// General information: 
//  MT Manager version: 2022.2.0 
//  XDA version: 2022.2.0 build 7381 rev 124627 built on 2023-07-19
// Device information: 
//  DeviceId: 00B4BB52
//  ProductCode: MTW2-3A7G6
//  Firmware Version: 4.6.0
//  Hardware Version: 2.0.0
// Device settings: 
//  Filter Profile: human(46.1)
//  Option Flags: Orientation Smoother Disabled, Position/Velocity Smoother Disabled, Continuous Zero Rotation Update Disabled, AHS Disabled, ICC Disabled
// Coordinate system: ENU
PacketCounter	Acc_X	Acc_Y	Acc_Z	Gyr_X	Gyr_Y	Gyr_Z	Roll	Pitch	Yaw
42599	8.975942	3.126499	2.286126	-0.017404	-0.038069	0.078754	54.016849	-66.820187	32.814283
42600	9.040291	3.082273	2.161309	-0.016318	-0.051705	0.098953	53.989690	-66.882778	32.839560
42601	8.862293	3.135103	2.348481	0.010784	-0.021767	0.114117	53.933274	-66.942403	32.913466
42602	8.974029	3.088721	2.237979	-0.072657	-0.058876	0.108301	53.873825	-67.011725	32.938731
42603	9.078767	2.936655	2.063080	-0.038426	-0.019282	0.094339	53.801567	-67.061296	32.999143
42604	8.994705	3.132509	2.277530	-0.026885	-0.013156	0.098719	53.725512	-67.110681	33.070889
42605	8.980989	3.133813	2.249876	-0.048004	-0.025896	0.123926	53.630573	-67.176092	33.149921
42606	8.989266	3.098955	2.237388	-0.047108	-0.024527	0.157118	53.507283	-67.256172	33.260263
42607	8.915592	3.091721	2.248452	-0.057377	-0.030715	0.183336	53.362561	-67.350435	33.387338
42608	8.868988	3.066538	2.345472	-0.084950	-0.042722	0.205563	53.195872	-67.458780	33.521050
42609	8.797020	3.006466	2.443678	-0.105353	-0.063227	0.210728	53.034387	-67.576497	33.636332
42610	8.897637	2.836322	2.377519	-0.143972	-0.104244	0.205566	52.899404	-67.705792	33.698967
42611	9.100644	2.809253	2.131010	-0.119435	-0.109050	0.191919	52.794281	-67.830566	33.744426
42612	9.128134	2.870859	2.237325	-0.075056	-0.098714	0.178355	52.713902	-67.945443	33.790633
42613	9.200307	2.883435	2.091691	-0.090773	-0.100922	0.177809	52.626719	-68.060913	33.834383
42614	9.300972	2.799608	1.926999	-0.054347	-0.055368	0.165854	52.518577	-68.154952	33.923227
42615	9.235299	2.741492	2.084011	-0.024460	-0.015685	0.145768	52.399131	-68.226052	34.042592
42616	9.186328	2.772045	2.094694	-0.021303	0.002546	0.119542	52.283153	-68.278677	34.160166
42617	9.133430	2.771506	2.114920	0.003897	0.017922	0.105786	52.175641	-68.319701	34.284081
42618	9.053131	2.745320	2.228737	0.002580	0.022634	0.082054	52.082724	-68.348144	34.391497
42619	8.971600	2.662482	2.247791	-0.003085	0.015629	0.043268	52.028685	-68.361590	34.453526
42620	9.004328	2.650684	2.223145	-0.002130	0.004005	0.006422	52.021223	-68.362369	34.466085
42621	9.025026	2.726692	2.245448	-0.000511	0.002105	-0.028835	52.048074	-68.348006	34.442677
42622	9.003617	2.764250	2.230340	-0.011258	-0.008960	-0.054767	52.104399	-68.325699	34.380977
42623	9.052284	2.801813	2.234475	-0.007063	-0.010932	-0.068248	52.177053	-68.298076	34.304227
42624	9.083322	2.852531	2.211484	-0.015569	-0.016262	-0.062985	52.246175	-68.274558	34.226072
42625	9.167302	2.854005	2.086741	-0.001303	-0.006338	-0.045894	52.296919	-68.255389	34.176435
42626	9.175302	2.907995	2.149061	0.013525	0.004906	-0.024984	52.325052	-68.241635	34.160338
42627	9.148430	2.930856	2.154902	0.009267	0.013468	0.003809	52.315652	-68.238056	34.181971
42628	9.154308	2.887286	2.132210	0.020914	0.020331	0.032114	52.280377	-68.244783	34.238704
42629	9.117153	2.935145	2.183102	0.037363	0.031278	0.065580	52.212523	-68.262927	34.340601
42630	9.092284	2.895701	2.186462	0.033060	0.025341	0.097216	52.120939	-68.297305	34.465422
42631	9.130524	2.909960	2.153644	0.045137	0.025015	0.131539	52.005735	-68.347340	34.623033
42632	9.081611	2.946092	2.256304	0.040568	0.022702	0.164109	51.860888	-68.412637	34.809688
42633	9.132909	2.869863	2.175776	0.021652	0.016789	0.186912	51.690296	-68.490217	35.012223
42634	9.129520	2.860960	2.208872	0.045769	0.025145	0.221893	51.490956	-68.580174	35.260435
42635	9.103517	2.850450	2.234778	0.047108	0.012243	0.245684	51.283344	-68.685188	35.518146
42636	9.088984	2.752993	2.212100	0.050024	-0.001306	0.274041	51.064437	-68.807261	35.789611
42637	9.117646	2.749076	2.228830	0.052979	-0.005152	0.284703	50.838734	-68.935193	36.069890
42638	9.050210	2.639157	2.212341	0.046892	-0.005534	0.287105	50.604723	-69.063814	36.355148
42639	8.748090	2.147718	2.335309	0.024449	-0.040654	0.195610	50.483138	-69.164540	36.506046
42640	9.045644	2.547555	2.254197	0.052437	-0.032489	0.117249	50.442428	-69.227475	36.587547
42641	9.107946	2.635988	2.237136	0.033808	-0.044698	0.106823	50.414869	-69.290357	36.643487
42642	9.043893	2.614658	2.290917	0.043196	-0.061957	0.105841	50.413720	-69.358988	36.676974
42643	9.039648	2.615517	2.315661	0.015602	-0.084330	0.095958	50.432431	-69.431539	36.672330
42644	9.165632	2.548292	2.134219	0.005889	-0.092381	0.085675	50.465310	-69.502369	36.646625
42645	9.165112	2.583538	2.149322	0.029952	-0.081784	0.081769	50.503322	-69.567711	36.630061
42646	9.141079	2.620229	2.158009	0.017564	-0.086874	0.082040	50.540317	-69.634915	36.607123
42647	9.204936	2.558825	2.106869	0.020685	-0.086541	0.083696	50.577152	-69.702840	36.586213
42648	9.187286	2.607050	2.095047	0.032182	-0.083157	0.089596	50.611008	-69.772027	36.575571
42649	9.178999	2.575460	2.127517	0.027040	-0.081446	0.093826	50.635693	-69.842582	36.571538
42650	9.187277	2.600383	2.110712	0.030739	-0.079856	0.099271	50.655382	-69.914853	36.575113
42651	9.172247	2.550370	2.072548	0.028042	-0.083261	0.102498	50.674375	-69.989905	36.577816
42652	9.189942	2.570864	2.114228	0.039512	-0.085998	0.109016	50.696960	-70.068726	36.583654
42653	9.208119	2.590649	2.155221	0.033640	-0.095672	0.119160	50.717799	-70.155669	36.587685
42654	9.269589	2.540535	2.022949	0.031979	-0.100809	0.131086	50.732177	-70.249652	36.597651
42655	9.237063	2.528047	2.059465	0.054691	-0.086942	0.136763	50.736522	-70.341242	36.632020
42656	9.183325	2.571516	2.093171	0.049248	-0.085989	0.135130	50.738191	-70.431646	36.665969
42657	9.228345	2.539331	2.025490	0.049617	-0.095163	0.140657	50.745639	-70.527947	36.693926
42658	9.245993	2.577365	2.077426	0.057961	-0.090056	0.161149	50.730317	-70.631368	36.751145
42659	9.262297	2.703932	2.063939	0.057320	-0.102711	0.198258	50.691608	-70.755938	36.832590
42660	9.298465	2.715940	2.050262	0.038444	-0.107989	0.244896	50.599195	-70.902947	36.959501
42661	9.238448	2.649176	1.905376	0.050878	-0.120764	0.260157	50.512370	-71.061402	37.087836
42662	9.177742	3.096210	1.993973	0.122107	-0.080192	0.264732	50.407295	-71.206901	37.278551
42663	8.543725	4.699404	2.555548	0.352537	-0.009704	0.190944	50.420281	-71.294138	37.483863
42664	7.501636	6.880519	5.010660	0.305481	0.151785	0.101183	50.292240	-71.282568	37.809579
42665	6.996006	8.372551	5.119212	-0.299775	0.019052	-0.082675	50.188866	-71.238461	37.743127
42666	7.119598	7.020790	4.097888	-0.776554	-0.129441	-0.200244	50.131372	-71.197151	37.339634
42667	7.693222	6.342415	3.355029	-0.727587	-0.058582	-0.332502	50.151151	-71.071562	36.883874
42668	7.869503	5.303336	3.429627	-0.830387	-0.112634	-0.436344	50.287718	-70.919995	36.241977
42669	9.148733	3.401361	2.150097	-1.014477	-0.172579	-0.418941	50.371298	-70.797434	35.543965
42670	9.534785	1.758985	1.180217	-0.679544	-0.052567	-0.302400	50.368509	-70.682476	35.140240
42671	9.700574	0.944445	1.696912	-0.535747	-0.041277	-0.208797	50.334713	-70.604512	34.856548
42672	10.513069	-0.751512	0.739313	-0.641513	-0.177682	-0.052338	50.248249	-70.645757	34.564337
42673	11.022861	-2.344511	-0.322149	-0.319425	-0.144722	0.116416	50.129131	-70.749200	34.502447
42674	11.131776	-3.185376	-0.113689	-0.069178	-0.095589	0.292689	49.904138	-70.912159	34.704436
42675	10.855308	-4.371353	-0.827364	-0.155419	-0.228587	0.412788	49.665518	-71.176574	34.868330
42676	10.412805	-3.278057	-2.267684	0.104731	-0.360462	0.135198	50.047775	-71.368210	34.533801
42677	8.642203	2.544872	3.538860	0.896647	0.547677	-0.319863	50.203031	-71.025801	34.918173
42678	9.387504	5.094875	4.231852	-0.713439	-0.199445	-0.463937	50.544398	-70.893216	34.130367
42679	10.628864	0.988563	-0.960802	-0.746481	-0.339397	-0.096615	50.656813	-70.973240	33.564597
42680	9.534661	2.668819	1.716126	0.529499	0.314281	0.025062	50.535418	-70.869307	34.019810
42681	8.523110	3.027683	3.571731	-0.230280	-0.071206	-0.047204	50.547622	-70.873763	33.872937
42682	9.367329	1.749317	1.109489	-0.322272	-0.029033	-0.142068	50.552754	-70.820754	33.677788
42683	9.043061	2.511590	2.321120	0.002299	0.145398	-0.151012	50.531088	-70.700413	33.707829
42684	8.839648	2.765447	2.789960	-0.263942	-0.041086	-0.164200	50.605951	-70.641975	33.473991
42685	9.223318	2.296767	1.809722	-0.287531	-0.097743	-0.156674	50.729919	-70.607431	33.173652
42686	9.207162	2.492214	2.016628	-0.147709	-0.046045	-0.144888	50.856050	-70.559061	32.955941
42687	9.114185	2.528924	2.187834	-0.214173	-0.083358	-0.147482	50.992793	-70.522968	32.686475
42688	9.134944	2.366967	2.048067	-0.219080	-0.080895	-0.163259	51.138983	-70.478614	32.403993
42689	9.153493	2.546661	2.104837	-0.184870	-0.056729	-0.175508	51.285544	-70.419996	32.141773
42690	9.319149	2.595810	1.934854	-0.220395	-0.077779	-0.163637	51.425286	-70.373882	31.865153
42691	9.434649	2.538332	1.740070	-0.177828	-0.052159	-0.125583	51.518201	-70.335614	31.664025
42692	9.329364	2.598768	1.868821	-0.107378	-0.011248	-0.093005	51.567318	-70.297180	31.552289
42693	9.241151	2.588081	2.017350	-0.111985	-0.009276	-0.074826	51.592878	-70.266305	31.462695
42694	9.248970	2.565168	1.973217	-0.110472	-0.006362	-0.069212	51.610041	-70.236777	31.382981
42695	9.251359	2.528522	1.949364	-0.095593	0.010028	-0.062368	51.608239	-70.204614	31.332412
42696	9.146436	2.584162	2.080890	-0.075856	0.012038	-0.057002	51.609969	-70.174019	31.290150
42697	9.171971	2.619875	2.082953	-0.103353	-0.004483	-0.054131	51.613507	-70.150718	31.229159
42698	9.291141	2.536954	1.877206	-0.095440	-0.006807	-0.044755	51.615275	-70.132326	31.174914
42699	9.247068	2.594771	1.966828	-0.055792	0.018268	-0.036657	51.600489	-70.108780	31.162368
42700	9.180178	2.578802	2.030729	-0.064936	0.013114	-0.026882	51.577360	-70.091329	31.153176
42701	9.206956	2.538493	2.012891	-0.068458	0.022533	-0.035807	51.549228	-70.066649	31.147103
42702	9.276544	2.572138	1.936926	-0.061089	0.038182	-0.041449	51.511652	-70.033732	31.155622
42703	9.267360	2.580949	1.974949	-0.037114	0.042483	-0.024602	51.465957	-70.006963	31.187343
42704	9.236888	2.569876	1.993527	-0.032381	0.039749	-0.016887	51.418969	-69.984487	31.223385
42705	9.188037	2.573422	1.987458	-0.015698	0.062323	-0.015798	51.352765	-69.954548	31.290007
42706	9.146291	2.628038	2.171822	-0.024797	0.053504	-0.015115	51.291764	-69.927914	31.345606
42707	9.131749	2.529450	2.104498	-0.045413	0.052069	-0.031819	51.237141	-69.894443	31.381792
42708	9.100256	2.519987	2.125001	-0.048574	0.068892	-0.053199	51.181407	-69.845239	31.417297
42709	9.103753	2.591963	2.120494	-0.060503	0.067005	-0.066676	51.134418	-69.790823	31.436160
42710	9.126308	2.576135	2.120410	-0.073697	0.062738	-0.087880	51.105966	-69.728345	31.427270
42711	9.251431	2.585576	2.013476	-0.070042	0.070506	-0.090702	51.072952	-69.661950	31.425419
42712	9.151258	2.635462	2.116496	-0.047949	0.066949	-0.076456	51.043240	-69.603050	31.433602
42713	9.158373	2.632895	2.181966	-0.058370	0.059358	-0.074456	51.014709	-69.547910	31.434102
42714	9.207758	2.631387	2.076082	-0.060917	0.053882	-0.071930	50.988978	-69.495734	31.430110
42715	9.192510	2.683086	2.141899	-0.031066	0.043919	-0.055245	50.976064	-69.454716	31.430640
42716	9.206116	2.673908	2.080136	-0.036076	0.028697	-0.041269	50.965017	-69.425275	31.426164
42717	9.209315	2.636216	2.056641	-0.017392	0.034595	-0.027916	50.944780	-69.399783	31.442886
42718	9.129079	2.666269	2.180606	-0.013326	0.036855	-0.024410	50.920975	-69.374897	31.465966
42719	9.093217	2.641595	2.216810	-0.020492	0.023627	-0.020345	50.904742	-69.356731	31.476516
42720	9.142416	2.656849	2.120644	-0.031762	0.022901	-0.030000	50.892279	-69.334396	31.476192
42721	9.127800	2.651323	2.176162	-0.014884	0.031361	-0.020624	50.870465	-69.313308	31.496144
42722	9.126662	2.652723	2.179226	-0.026257	0.023837	-0.019888	50.850413	-69.295129	31.507305
42723	9.135907	2.627638	2.135569	-0.025746	0.025058	-0.023997	50.833084	-69.274818	31.515814
42724	9.135360	2.683083	2.146396	-0.015406	0.030117	-0.016520	50.808715	-69.255859	31.538241
42725	9.091968	2.663897	2.214738	-0.015984	0.014168	-0.010183	50.796592	-69.245624	31.547166
42726	9.138957	2.644233	2.123072	-0.010536	0.009036	-0.007661	50.791291	-69.238229	31.552189
42727	9.125274	2.636920	2.176455	-0.004931	0.008150	0.001904	50.781012	-69.235539	31.565914
42728	9.120256	2.677058	2.204179	-0.001079	0.001885	-0.000691	50.782849	-69.233829	31.569100
42729	9.130718	2.650344	2.157639	-0.003961	-0.002320	0.004456	50.782946	-69.236063	31.572323
42730	9.131047	2.649529	2.157247	0.001847	-0.006885	0.012899	50.783740	-69.243562	31.578415
42731	9.152869	2.667016	2.176040	0.007350	-0.005934	0.023025	50.776795	-69.255349	31.596100
42732	9.131720	2.592144	2.148255	0.001027	-0.002597	0.018688	50.766545	-69.263863	31.613499
42733	9.111302	2.643909	2.241426	0.015382	0.007287	0.012250	50.758995	-69.266076	31.636749
42734	9.133020	2.643943	2.155748	-0.005924	-0.010862	0.011786	50.761049	-69.274522	31.636732
42735	9.169909	2.595212	2.100941	0.007816	-0.000368	0.010014	50.760270	-69.278516	31.648106
42736	9.136899	2.675847	2.148872	0.017068	-0.003849	0.018105	50.761213	-69.287225	31.663360
42737	9.192186	2.611751	2.118911	0.010117	-0.010324	0.019736	50.764112	-69.299143	31.672211
42738	9.103730	2.645955	2.179848	0.026277	0.000583	0.034353	50.749515	-69.313455	31.709715
42739	9.125883	2.662590	2.198408	0.011451	-0.009812	0.026905	50.745670	-69.328368	31.726588
42740	9.094575	2.613684	2.216762	0.018504	-0.003398	0.033239	50.732308	-69.343624	31.758007
42741	9.098520	2.645403	2.209994	0.008775	-0.009063	0.021096	50.731600	-69.355687	31.769885
42742	9.170452	2.622138	2.121210	0.007876	-0.021285	0.020588	50.745356	-69.371817	31.765814
42743	9.198243	2.653048	2.119102	0.027425	-0.015391	0.027243	50.756865	-69.388903	31.776053
42744	9.207407	2.644152	2.083657	0.021647	-0.023802	0.037539	50.765162	-69.413467	31.786243
42745	9.168665	2.601086	2.133605	0.041158	-0.011789	0.043812	50.764278	-69.436603	31.818122
42746	9.099855	2.673688	2.226496	0.038746	-0.008640	0.044477	50.757695	-69.458751	31.854663
42747	9.136637	2.568491	2.162919	0.014668	-0.013720	0.037493	50.749953	-69.479781	31.877648
42748	9.185844	2.599005	2.076139	0.028423	-0.003267	0.035695	50.739504	-69.496081	31.911993
42749	9.139634	2.617023	2.167995	0.029590	-0.007005	0.035825	50.733903	-69.513934	31.941815
42750	9.146273	2.628115	2.146960	0.027568	-0.011210	0.034258	50.733726	-69.532475	31.964663
42751	9.190082	2.644968	2.079006	0.036968	-0.012281	0.040839	50.733691	-69.554465	31.993048
42752	9.204120	2.612994	2.121832	0.046700	-0.006662	0.052950	50.720809	-69.579646	32.041146
42753	9.208894	2.642813	2.114178	0.046244	-0.003614	0.056110	50.700776	-69.605261	32.096531
42754	9.138513	2.588023	2.087690	0.054282	0.002704	0.063661	50.670423	-69.631778	32.167885
42755	9.032316	2.618623	2.325297	0.054604	0.007587	0.060659	50.637141	-69.655321	32.242491
42756	9.152965	2.624768	2.150988	0.013700	-0.022412	0.054041	50.622744	-69.686681	32.272008
42757	9.161676	2.559256	2.108040	0.039719	-0.017554	0.063478	50.607993	-69.720593	32.317735
42758	9.112254	2.615862	2.225063	0.042654	-0.023875	0.067601	50.598440	-69.758484	32.359760
42759	9.193155	2.581233	2.101258	0.027004	-0.036040	0.066369	50.595561	-69.800393	32.385050
42760	9.174143	2.556763	2.077981	0.049028	-0.029171	0.071347	50.592141	-69.841867	32.424409
42761	9.196030	2.590068	2.106591	0.048063	-0.033502	0.078990	50.585617	-69.888440	32.466417
42762	9.216549	2.549869	2.022549	0.054172	-0.039402	0.084796	50.583945	-69.939586	32.507030
42763	9.209773	2.569625	2.064085	0.076834	-0.029637	0.102106	50.565897	-69.994981	32.578823
42764	9.176075	2.556427	2.105960	0.081062	-0.031162	0.104462	50.549616	-70.051823	32.651345
42765	9.138835	2.509776	2.153925	0.071822	-0.033779	0.096777	50.538615	-70.106356	32.712538
42766	9.147385	2.516378	2.129859	0.067456	-0.026171	0.086027	50.526542	-70.153216	32.772247
42767	9.120635	2.498455	2.139721	0.056711	-0.025563	0.072314	50.521164	-70.193929	32.818223
42768	9.124708	2.473459	2.123056	0.033315	-0.022369	0.050930	50.520118	-70.223878	32.845395
42769	9.158989	2.515947	2.100871	0.030747	-0.006785	0.034881	50.514545	-70.241194	32.875751
42770	9.185695	2.491598	2.091859	0.021975	-0.010606	0.032581	50.511064	-70.258743	32.898599
42771	9.211974	2.541893	2.103246	0.022498	-0.009386	0.028475	50.510418	-70.274174	32.918693
42772	9.169594	2.501802	2.063508	0.024184	-0.010127	0.033013	50.507130	-70.291738	32.942676
42773	9.192284	2.518322	2.081034	0.027977	-0.010322	0.030037	50.509152	-70.308200	32.963267
42774	9.206576	2.522375	2.026702	0.016465	-0.015851	0.031412	50.510106	-70.327142	32.978043
42775	9.198337	2.472530	2.051130	0.034737	-0.002778	0.038881	50.497608	-70.344765	33.018161
42776	9.174557	2.511261	2.162063	0.026569	-0.007207	0.031936	50.493073	-70.360787	33.044909
42777	9.211438	2.494335	2.009684	0.004720	-0.005338	0.025124	50.480526	-70.373259	33.066812
42778	9.224364	2.464152	2.054602	0.027503	0.011216	0.024004	50.461752	-70.379053	33.109240
42779	9.132802	2.542297	2.142869	0.025505	-0.000958	0.022332	50.458506	-70.388691	33.133909
42780	9.192276	2.489697	2.094133	0.010460	-0.005661	0.024636	50.450209	-70.400917	33.154845
42781	9.194908	2.467380	2.080055	0.021788	-0.002617	0.024755	50.444370	-70.412228	33.180002
42782	9.193659	2.485961	2.092498	0.015227	-0.005925	0.022903	50.440877	-70.423784	33.198735
42783	9.225561	2.475652	2.064537	0.010984	-0.004442	0.020529	50.435418	-70.433893	33.216915
42784	9.202375	2.475698	2.058385	0.016939	0.003836	0.018124	50.425657	-70.439774	33.243339
42785	9.199041	2.514931	2.084634	0.018517	-0.001209	0.023620	50.417293	-70.450066	33.269179
42786	9.142713	2.469641	2.098752	0.013118	0.002241	0.012603	50.412979	-70.454089	33.287498
42787	9.139105	2.509589	2.125411	0.002159	0.004118	0.009474	50.403146	-70.456188	33.304952
42788	9.203642	2.471393	2.057894	-0.012490	-0.005430	0.000145	50.406510	-70.457512	33.299553
42789	9.179926	2.472996	2.052260	-0.002816	0.004494	-0.004688	50.407924	-70.453220	33.302045
42790	9.170229	2.500827	2.098969	-0.007243	0.003524	-0.005556	50.409023	-70.448757	33.302241
42791	9.187128	2.466655	2.020154	-0.014964	-0.002170	-0.007143	50.414286	-70.445814	33.293263
42792	9.236196	2.517892	2.038931	-0.004319	0.003332	-0.001826	50.413463	-70.443068	33.297275
42793	9.204866	2.526407	2.066553	-0.005901	0.004015	0.001582	50.407264	-70.441721	33.305971
42794	9.181202	2.453165	2.041137	0.002873	0.007800	0.003866	50.399161	-70.439855	33.322083
42795	9.215191	2.518071	2.125906	-0.003531	0.000811	0.000922	50.398983	-70.439386	33.325832
42796	9.223830	2.470527	1.975439	0.001105	0.006025	0.008779	50.387023	-70.440337	33.344961
42797	9.202991	2.470618	2.061731	0.022291	0.017083	0.011468	50.370582	-70.438578	33.381669
42798	9.167955	2.519324	2.116105	0.004370	0.004601	0.009909	50.361099	-70.440544	33.400155
42799	9.232506	2.480882	2.048948	0.007744	0.007478	0.010081	50.349678	-70.441679	33.422692
42800	9.193706	2.495826	2.109676	0.015464	0.013166	0.011668	50.334100	-70.441287	33.454391
42801	9.212762	2.514583	2.038095	0.006504	0.006927	0.010889	50.321816	-70.442976	33.477088
42802	9.209145	2.479764	2.045033	0.021306	0.012776	0.019127	50.302383	-70.446011	33.516431
42803	9.176288	2.507231	2.085968	0.031573	0.013350	0.027455	50.279404	-70.452645	33.565717
42804	9.231770	2.494921	2.064687	0.026660	0.003164	0.030557	50.263143	-70.464227	33.604945
42805	9.205036	2.460313	2.064925	0.037112	0.006188	0.037376	50.241918	-70.477845	33.655732
42806	9.180406	2.479417	2.071757	0.043102	0.002096	0.043741	50.222692	-70.495615	33.708094
42807	9.173996	2.483191	2.103441	0.045715	-0.004873	0.049935	50.207022	-70.518808	33.758205
42808	9.177287	2.458987	2.088420	0.040904	-0.010762	0.052077	50.193746	-70.544953	33.802906
42809	9.160827	2.470245	2.060742	0.040688	-0.015022	0.045093	50.192724	-70.569731	33.834412
42810	9.206213	2.503973	2.095729	0.052200	-0.026288	0.061384	50.195487	-70.605666	33.868955
42811	9.282796	2.506879	1.997286	0.059845	-0.047869	0.089972	50.199623	-70.662246	33.906614
42812	9.269459	2.419319	1.933263	0.080269	-0.032644	0.098332	50.187588	-70.716775	33.973855
42813	9.252019	2.487736	2.034171	0.104340	-0.013977	0.104783	50.158695	-70.767432	34.073482
42814	9.293798	2.463081	1.970138	0.089160	-0.021167	0.116541	50.117529	-70.825734	34.176921
42815	9.232443	2.417770	2.013983	0.125850	-0.005274	0.130606	50.061790	-70.884492	34.317944
42816	9.217618	2.463644	2.101917	0.118806	-0.017920	0.140677	50.006834	-70.952136	34.453874
42817	9.267763	2.428347	2.004009	0.108298	-0.031565	0.151138	49.951207	-71.029500	34.584024
42818	9.238276	2.371972	2.019347	0.133330	-0.022951	0.150159	49.899349	-71.103072	34.725355
42819	9.172664	2.387255	2.101307	0.126780	-0.020179	0.147850	49.841795	-71.174712	34.868614
42820	9.163324	2.329826	2.031918	0.099393	-0.025054	0.131491	49.791987	-71.240803	34.987120
42821	9.151771	2.336086	2.093462	0.083282	-0.018929	0.107374	49.750694	-71.294193	35.086785
42822	9.189778	2.352664	2.056265	0.053369	-0.016690	0.084840	49.713807	-71.336735	35.163738
42823	9.248122	2.314192	2.019329	0.040201	-0.016923	0.072845	49.682471	-71.374252	35.226795
42824	9.267776	2.346984	1.957275	0.050224	-0.012774	0.074240	49.649908	-71.410684	35.297250
42825	9.292070	2.359537	1.973412	0.062729	-0.013788	0.082385	49.616479	-71.451180	35.376099
42826	9.295918	2.331923	1.957392	0.063404	-0.020729	0.094045	49.579427	-71.499180	35.459219
42827	9.258463	2.267041	1.995623	0.074042	-0.005615	0.099839	49.521835	-71.544213	35.570340
42828	9.210520	2.305449	2.007967	0.068609	-0.002058	0.080906	49.477387	-71.579496	35.664358
42829	9.206316	2.287064	2.026369	0.057880	0.000657	0.067825	49.437490	-71.608196	35.747013
42830	9.237356	2.292974	2.011033	0.037540	-0.002047	0.058702	49.399676	-71.633771	35.815249
42831	9.253099	2.273015	1.944811	0.031413	0.005887	0.045471	49.362548	-71.650763	35.878992
42832	9.292539	2.294207	2.002118	0.043132	0.015439	0.042986	49.322471	-71.662951	35.952973
42833	9.272997	2.347084	2.002258	0.035826	0.006742	0.046302	49.285641	-71.679959	36.019058
42834	9.323959	2.297665	1.987774	0.039418	0.005784	0.053292	49.244273	-71.700199	36.092144
42835	9.252948	2.319987	1.983011	0.051470	0.009657	0.065059	49.191109	-71.724222	36.184857
42836	9.205403	2.287023	2.069374	0.046230	0.003300	0.061402	49.147409	-71.748870	36.264489
42837	9.236499	2.292859	2.053914	0.021653	-0.013808	0.057751	49.115956	-71.778479	36.316323
42838	9.256370	2.209939	1.948307	0.013579	-0.011890	0.050442	49.085714	-71.804050	36.362070
42839	9.247757	2.255515	2.005585	0.028134	-0.002570	0.043732	49.058942	-71.823356	36.412874
42840	9.247434	2.273108	2.017635	0.016936	-0.002836	0.034250	49.037039	-71.838506	36.451857
42841	9.250841	2.228761	1.991051	-0.003050	-0.014732	0.030447	49.023527	-71.856621	36.469891
42842	9.233867	2.241617	1.964528	0.004002	-0.002258	0.012331	49.018503	-71.862067	36.483308
42843	9.272919	2.265005	2.021596	-0.002788	0.001992	0.012651	49.003441	-71.866200	36.503134
42844	9.279212	2.276596	2.001566	-0.014616	-0.007474	0.007233	49.000477	-71.871401	36.503158
42845	9.264321	2.249096	1.949991	-0.017568	-0.005363	0.004053	48.996521	-71.874578	36.502380
42846	9.310574	2.264736	1.974163	-0.011209	-0.004676	0.007357	48.991670	-71.878781	36.506444
42847	9.278844	2.294532	2.013573	-0.005305	-0.008902	0.013715	48.988312	-71.887467	36.512432
42848	9.281816	2.251633	1.987156	-0.015351	-0.012998	0.012338	48.986356	-71.896952	36.510952
42849	9.273073	2.236580	1.915137	-0.008896	-0.007944	0.006724	48.987707	-71.902255	36.509821
42850	9.258763	2.252187	1.980528	-0.003508	0.000897	0.000925	48.987286	-71.901582	36.513865
42851	9.281173	2.270596	1.999286	-0.016786	-0.001693	-0.001578	48.985401	-71.900946	36.511381
42852	9.265890	2.244137	1.948244	-0.019133	-0.000212	-0.009385	48.989355	-71.896233	36.501403
42853	9.280748	2.271405	2.000339	-0.017482	0.007069	-0.012731	48.988307	-71.887481	36.497620
42854	9.259097	2.233143	1.969956	-0.023516	0.005138	-0.018613	48.993272	-71.876766	36.483935
42855	9.285696	2.286475	1.982626	-0.023340	0.009440	-0.019614	48.993635	-71.864147	36.475137
42856	9.263934	2.248506	1.952508	-0.026749	0.006634	-0.019742	48.996050	-71.852381	36.462184
42857	9.238377	2.272854	1.961134	-0.018463	0.015213	-0.021831	48.994122	-71.836633	36.458731
42858	9.249167	2.247125	2.008497	-0.028872	0.010561	-0.029080	49.000817	-71.819352	36.439991
42859	9.271877	2.247140	2.016084	-0.035339	0.013556	-0.031337	49.002263	-71.800117	36.422819
42860	9.248375	2.231281	1.999666	-0.041561	0.015373	-0.044091	49.012458	-71.774536	36.392737
42861	9.249119	2.309774	2.020853	-0.051522	0.015614	-0.054399	49.028152	-71.744550	36.350799
42862	9.267655	2.257788	2.023582	-0.062784	0.017167	-0.063369	49.045626	-71.709949	36.300236
42863	9.237354	2.231428	2.028330	-0.069231	0.026342	-0.074021	49.059194	-71.667436	36.249820
42864	9.223432	2.264737	1.986907	-0.079812	0.027167	-0.079715	49.072076	-71.621998	36.193791
42865	9.272799	2.300379	1.996047	-0.081682	0.031655	-0.091118	49.090555	-71.570082	36.130649
42866	9.270060	2.307019	2.001100	-0.084361	0.036079	-0.087918	49.098110	-71.517739	36.077456
42867	9.271872	2.347151	1.999349	-0.081779	0.033381	-0.090628	49.113325	-71.465380	36.017661
42868	9.272054	2.312230	1.978271	-0.079724	0.031240	-0.080781	49.121448	-71.417936	35.966639
42869	9.284350	2.344521	2.034553	-0.071798	0.031214	-0.080869	49.133926	-71.370610	35.915735
42870	9.289412	2.342476	2.005982	-0.066436	0.025766	-0.070418	49.144872	-71.329703	35.869741
42871	9.232683	2.358993	2.030871	-0.055121	0.022373	-0.061975	49.157016	-71.293873	35.829254
42872	9.254515	2.361314	2.039871	-0.054928	0.018584	-0.055126	49.166608	-71.262280	35.791632
42873	9.248493	2.331612	2.049319	-0.050877	0.012707	-0.051782	49.182101	-71.234484	35.750168
42874	9.282631	2.359125	2.017828	-0.047285	0.011755	-0.044781	49.193232	-71.209929	35.715534
42875	9.248773	2.392196	2.060077	-0.043415	0.011421	-0.039828	49.201350	-71.187794	35.686337
42876	9.252157	2.333308	2.023120	-0.040087	0.016084	-0.039144	49.204801	-71.164061	35.664165
42877	9.249531	2.356371	2.038244	-0.029936	0.010364	-0.030410	49.211576	-71.146407	35.644565
42878	9.276776	2.389853	2.038764	-0.029944	0.004137	-0.022043	49.217218	-71.134563	35.626214
42879	9.233524	2.333463	1.989198	-0.028893	0.010198	-0.021245	49.214733	-71.120946	35.617022
42880	9.247240	2.361282	2.042950	-0.023559	0.019091	-0.026978	49.210444	-71.101364	35.613030
42881	9.244785	2.383570	2.058028	-0.023225	0.011635	-0.021200	49.209324	-71.087229	35.605819
42882	9.239835	2.351115	2.066023	-0.021985	0.005947	-0.013645	49.208010	-71.078350	35.599636
42883	9.243729	2.385507	2.060524	-0.015410	0.009160	-0.011817	49.204248	-71.069212	35.599972
42884	9.219644	2.388139	2.055888	-0.014442	0.009081	-0.010577	49.199941	-71.060492	35.601520
42885	9.236869	2.374001	2.082617	-0.019498	0.007012	-0.015268	49.200322	-71.050662	35.594988
42886	9.221786	2.349056	2.032027	-0.020257	0.009544	-0.018021	49.200216	-71.038539	35.588573
42887	9.235630	2.376436	2.085332	-0.022262	0.011539	-0.019966	49.198407	-71.024976	35.582662
42888	9.223232	2.405754	2.041387	-0.020469	0.007080	-0.016512	49.199635	-71.014430	35.574706
42889	9.240406	2.391820	2.068098	-0.021715	0.006540	-0.015703	49.199797	-71.004588	35.567089
42890	9.241538	2.372228	2.056027	-0.008710	0.008682	-0.011063	49.199812	-70.995805	35.567541
42891	9.217424	2.375018	2.051320	-0.017355	0.009298	-0.014303	49.197472	-70.985538	35.565197
42892	9.216948	2.375929	2.052403	-0.021926	0.004076	-0.014196	49.199115	-70.977122	35.555917
42893	9.222411	2.389976	2.033684	-0.019504	0.006991	-0.015275	49.199499	-70.967297	35.549344
42894	9.210082	2.364652	2.074206	-0.019780	0.006373	-0.013226	49.198422	-70.958441	35.544241
42895	9.261218	2.395304	2.080310	-0.020959	0.003991	-0.012958	49.199219	-70.950743	35.536378
42896	9.215201	2.379326	2.056311	-0.018746	0.004450	-0.012526	49.200386	-70.942911	35.529528
42897	9.214741	2.380193	2.057368	-0.015148	0.009748	-0.013872	49.198271	-70.932662	35.528260
42898	9.214364	2.380988	2.058139	-0.022279	-0.002697	-0.011723	49.205505	-70.927854	35.512849
42899	9.214054	2.381758	2.058632	-0.017437	0.003141	-0.013876	49.210368	-70.920078	35.502868
42900	9.215291	2.362165	2.046246	-0.017505	0.004981	-0.013336	49.212441	-70.911695	35.495810
42901	9.235224	2.402016	2.079394	-0.017848	0.006205	-0.010747	49.209836	-70.904130	35.493435
42902	9.220416	2.376740	2.028491	-0.018818	0.006279	-0.011989	49.208069	-70.895846	35.489644
42903	9.210704	2.405362	2.075786	-0.015221	0.011580	-0.013332	49.203036	-70.885149	35.491405
42904	9.210214	2.406172	2.077023	-0.021033	0.005811	-0.012425	49.201055	-70.876851	35.486496
42905	9.244256	2.356864	2.024856	-0.017437	0.011112	-0.013767	49.195813	-70.866141	35.487217
42906	9.209155	2.408038	2.079552	-0.012598	0.008972	-0.016031	49.198602	-70.855096	35.482375
42907	9.233872	2.386743	2.073599	-0.021934	0.012019	-0.014096	49.190008	-70.843904	35.483858
42908	9.239188	2.400894	2.055493	-0.021592	0.010792	-0.016689	49.186081	-70.831892	35.480670
42909	9.204752	2.357026	2.077381	-0.022631	0.012705	-0.017390	49.179792	-70.819016	35.479266
42910	9.209809	2.371676	2.059880	-0.027204	0.021676	-0.025535	49.168615	-70.799092	35.480348
42911	9.199395	2.401402	2.108584	-0.024373	0.021528	-0.029743	49.163635	-70.777554	35.476489
42912	9.245594	2.399631	2.122754	-0.030804	0.016355	-0.024205	49.155596	-70.760201	35.472064
42913	9.228598	2.396058	2.086294	-0.029011	0.018124	-0.029113	49.151514	-70.740212	35.464429
42914	9.203812	2.400104	2.082998	-0.030818	0.022563	-0.032566	49.144734	-70.716909	35.458661
42915	9.194939	2.409574	2.118671	-0.028883	0.022404	-0.030082	49.136465	-70.694900	35.455615
42916	9.221705	2.443345	2.120505	-0.030672	0.012642	-0.025305	49.134270	-70.678463	35.445076
42917	9.224396	2.404029	2.095687	-0.028868	0.008190	-0.021857	49.134768	-70.665341	35.432754
42918	9.227930	2.439009	2.090616	-0.019250	0.007532	-0.017357	49.136922	-70.654263	35.424539
42919	9.205541	2.421465	2.072500	-0.022913	0.004058	-0.015486	49.139118	-70.645453	35.413982
42920	9.222742	2.407427	2.099064	-0.020497	0.006983	-0.016553	49.140367	-70.634929	35.405969
42921	9.186519	2.384215	2.134035	-0.024807	0.016560	-0.026744	49.138064	-70.616556	35.399028
42922	9.197266	2.412966	2.097006	-0.032838	0.016523	-0.034650	49.139754	-70.594614	35.383050
42923	9.195937	2.415643	2.099750	-0.038948	0.024308	-0.039941	49.133836	-70.567617	35.371355
42924	9.194340	2.418728	2.103187	-0.044915	0.028409	-0.046323	49.126380	-70.536162	35.357732
42925	9.222095	2.433709	2.093313	-0.034622	0.033285	-0.046875	49.119280	-70.502796	35.349867
42926	9.212730	2.444005	2.129643	-0.031279	0.023772	-0.037936	49.116405	-70.476715	35.339668
42927	9.226908	2.432392	2.066632	-0.033278	0.019521	-0.031535	49.110664	-70.455159	35.331195
42928	9.194465	2.443136	2.096099	-0.023040	0.020032	-0.023182	49.101480	-70.436871	35.332697
42929	9.207531	2.470390	2.150546	-0.018815	0.018520	-0.020797	49.093916	-70.420344	35.334999
42930	9.214687	2.464346	2.119118	-0.015863	0.004111	-0.008850	49.093122	-70.414235	35.331961
42931	9.202559	2.438003	2.159162	-0.009651	0.008594	-0.004380	49.085582	-70.408537	35.339762
42932	9.186445	2.433026	2.121119	-0.019245	0.001248	-0.009038	49.086532	-70.403421	35.332816
42933	9.192117	2.446727	2.102199	-0.016140	0.003489	-0.006803	49.084031	-70.398586	35.331353
42934	9.215487	2.445341	2.108800	-0.019246	0.001245	-0.009040	49.084982	-70.393470	35.324405
42935	9.185612	2.434275	2.123294	-0.014498	0.008947	-0.010609	49.080803	-70.384942	35.325740
42936	9.183298	2.455295	2.137821	-0.018925	0.007992	-0.011497	49.076326	-70.376231	35.324749
42937	9.214224	2.447261	2.112091	-0.022109	0.007584	-0.013187	49.072164	-70.367100	35.321404
42938	9.176474	2.443298	2.159707	-0.015668	0.006557	-0.010356	49.070097	-70.359422	35.319836
42939	9.203834	2.475774	2.160161	-0.022629	-0.001628	-0.009235	49.072653	-70.355461	35.309046
42940	9.215210	2.428376	2.100910	-0.018479	-0.001295	-0.006299	49.074229	-70.352486	35.301898
42941	9.203563	2.476192	2.160836	-0.008656	0.000545	-0.003277	49.075875	-70.350281	35.300495
42942	9.207324	2.435490	2.134082	-0.015616	-0.007641	-0.002158	49.082431	-70.351481	35.289801
42943	9.164271	2.472455	2.115655	-0.015892	-0.008263	-0.000110	49.087288	-70.353956	35.280797
42944	9.184071	2.436599	2.127290	-0.011664	-0.009765	0.002278	49.094026	-70.357873	35.272315
42945	9.210378	2.487814	2.139444	-0.003613	-0.015944	0.018540	49.095642	-70.371307	35.274111
42946	9.238613	2.443466	2.117034	-0.001797	-0.020385	0.021982	49.100211	-70.387740	35.273935
42947	9.184576	2.451829	2.136308	0.004767	-0.017117	0.023861	49.102450	-70.403917	35.280072
42948	9.215162	2.461275	2.120624	0.000092	-0.026668	0.024873	49.112710	-70.423959	35.275004
42949	9.188691	2.426930	2.118372	0.006458	-0.025863	0.028249	49.121947	-70.445317	35.274698
42950	9.188106	2.444831	2.129140	-0.000112	-0.029138	0.026369	49.133556	-70.466933	35.268076
42951	9.230640	2.480847	2.073830	0.002300	-0.026207	0.025311	49.143971	-70.487153	35.264178
42952	9.220173	2.451481	2.110161	0.012421	-0.029996	0.034613	49.155123	-70.512662	35.265660
42953	9.229443	2.441283	2.074087	0.011594	-0.031872	0.040753	49.161473	-70.541696	35.271572
42954	9.191491	2.379263	2.110483	0.023065	-0.024584	0.039959	49.166420	-70.567496	35.286101
42955	9.156346	2.445947	2.174745	0.012061	-0.028807	0.037202	49.173036	-70.593842	35.292115
42956	9.169129	2.395263	2.111705	-0.008411	-0.044043	0.028695	49.195890	-70.622046	35.268538
42957	9.201736	2.384192	2.081400	-0.004640	-0.030020	0.017544	49.215408	-70.640326	35.250671
42958	9.169487	2.412105	2.119899	-0.017690	-0.018019	0.004668	49.226496	-70.648361	35.233934
42959	9.169975	2.411441	2.118543	-0.023920	-0.022498	0.000201	49.244190	-70.656296	35.206379
42960	9.194004	2.409376	2.122948	-0.045185	-0.027215	-0.010892	49.267502	-70.661014	35.159993
42961	9.233035	2.393869	2.061889	-0.040223	-0.017045	-0.013957	49.284219	-70.660757	35.123504
42962	9.186529	2.417193	2.154334	-0.033032	-0.014377	-0.016735	49.304839	-70.658129	35.087351
42963	9.242974	2.442256	2.034877	-0.053654	-0.024222	-0.015657	49.324535	-70.659801	35.039550
42964	9.240562	2.388713	2.027213	-0.035541	-0.007509	-0.014975	49.333334	-70.655366	35.014400
42965	9.215688	2.430711	2.139869	-0.037986	-0.004200	-0.022250	49.344208	-70.646687	34.985586
42966	9.220225	2.426561	2.016172	-0.047827	-0.006044	-0.025257	49.355053	-70.637232	34.950804
42967	9.268747	2.404036	2.015053	-0.033359	-0.000794	-0.022869	49.365002	-70.627017	34.925637
42968	9.196340	2.450002	2.116585	-0.027756	0.002548	-0.022240	49.373477	-70.615665	34.905553
42969	9.199174	2.410970	2.090921	-0.036299	0.007398	-0.026439	49.375370	-70.600841	34.887122
42970	9.236963	2.397726	2.032962	-0.036980	0.020495	-0.038443	49.373529	-70.575746	34.872369
42971	9.200691	2.449831	2.090105	-0.025578	0.029654	-0.038672	49.367031	-70.547300	34.869476
42972	9.206827	2.445942	2.060296	-0.035816	0.022861	-0.038703	49.363191	-70.521211	34.857546
42973	9.254454	2.424941	2.061665	-0.032509	0.027561	-0.037959	49.354553	-70.493858	34.852675
42974	9.221620	2.436305	2.092388	-0.027060	0.034581	-0.036216	49.338729	-70.464476	34.858777
42975	9.190290	2.427702	2.110537	-0.035994	0.046872	-0.046145	49.313102	-70.426355	34.869880
42976	9.186188	2.451810	2.129391	-0.030557	0.052163	-0.052896	49.291415	-70.383157	34.880082
42977	9.158256	2.478118	2.142515	-0.041298	0.048507	-0.057732	49.273015	-70.339387	34.880286
42978	9.218412	2.465916	2.093910	-0.044923	0.049389	-0.064774	49.259000	-70.292067	34.873604
42979	9.206246	2.497517	2.145916	-0.028297	0.050738	-0.053026	49.240515	-70.249505	34.881718
42980	9.227636	2.499806	2.156759	-0.026864	0.041351	-0.046623	49.227703	-70.213070	34.884749
42981	9.186353	2.499756	2.115998	-0.019407	0.034016	-0.034226	49.215011	-70.184922	34.892281
42982	9.218523	2.491888	2.183583	-0.011480	0.029780	-0.025362	49.202915	-70.162041	34.903923
42983	9.179841	2.470358	2.128047	-0.017270	0.023943	-0.024527	49.193564	-70.141880	34.909073
42984	9.178586	2.472283	2.131223	-0.012779	0.037177	-0.024388	49.170895	-70.116649	34.931168
42985	9.135913	2.509662	2.208247	-0.015451	0.031872	-0.029804	49.158589	-70.091225	34.940388
42986	9.169898	2.463600	2.157125	-0.027791	0.021007	-0.039381	49.162244	-70.065551	34.925342
42987	9.174417	2.479895	2.140308	-0.019836	0.022912	-0.030887	49.159268	-70.043012	34.922376
42988	9.190812	2.467165	2.168596	-0.021754	0.029170	-0.033764	49.150822	-70.016715	34.923881
42989	9.195055	2.483649	2.152761	-0.026585	0.035627	-0.040389	49.138613	-69.985283	34.926401
42990	9.179546	2.479664	2.209104	-0.020302	0.038295	-0.036435	49.122935	-69.954407	34.936489
42991	9.132406	2.539850	2.208616	-0.032373	0.029762	-0.039574	49.113595	-69.925537	34.932549
42992	9.211737	2.510669	2.183338	-0.035794	0.022458	-0.030912	49.102198	-69.902992	34.928632
42993	9.163359	2.515898	2.173941	-0.013945	0.020631	-0.023964	49.098237	-69.884307	34.930052
42994	9.156707	2.503541	2.195160	-0.026683	0.008272	-0.013579	49.091083	-69.874590	34.927174
42995	9.177557	2.523260	2.216283	-0.018670	0.012885	-0.022452	49.092034	-69.859471	34.920594
42996	9.121653	2.534471	2.238650	-0.022508	0.006907	-0.019134	49.094563	-69.847861	34.909950
42997	9.138917	2.502556	2.160585	-0.036664	0.008292	-0.024041	49.092224	-69.833770	34.895852
42998	9.167484	2.516265	2.149132	-0.027158	0.015813	-0.027248	49.089865	-69.815305	34.887576
42999	9.203658	2.541574	2.209749	-0.027348	0.013347	-0.025763	49.088643	-69.798569	34.877864
43000	9.165694	2.519577	2.152880	-0.022686	0.010554	-0.018024	49.085618	-69.786072	34.873025
43001	9.180654	2.525567	2.193452	-0.012946	0.014303	-0.014393	49.079942	-69.773905	34.876865
43002	9.156546	2.528058	2.188492	-0.017677	0.000433	-0.012522	49.086072	-69.767588	34.865327
43003	9.118773	2.523016	2.235499	-0.018212	0.005299	-0.008798	49.082253	-69.761219	34.863983
43004	9.149953	2.515468	2.209637	-0.023425	0.006828	-0.012448	49.077500	-69.752535	34.860534
43005	9.181011	2.508236	2.183971	-0.027308	0.007085	-0.017454	49.075194	-69.741756	34.852150
43006	9.152571	2.551145	2.206446	-0.025007	0.005748	-0.017559	49.075996	-69.731265	34.841813
43007	9.169742	2.536984	2.232903	-0.025891	0.003977	-0.019372	49.080069	-69.720815	34.827562
43008	9.183043	2.545307	2.181663	-0.023069	0.005610	-0.015059	49.079591	-69.711457	34.819773
43009	9.131701	2.515427	2.176092	-0.019895	-0.000081	-0.012987	49.085380	-69.705305	34.807136
43010	9.188142	2.560427	2.163873	-0.022649	0.004283	-0.009716	49.081269	-69.698758	34.803475
43011	9.148885	2.500826	2.203022	-0.007967	0.005891	-0.000379	49.074084	-69.695812	34.812064
43012	9.132258	2.587579	2.291002	-0.018963	-0.004562	-0.002864	49.075484	-69.695552	34.804779
43013	9.151011	2.480479	2.189692	-0.033047	-0.011161	-0.007984	49.081607	-69.695717	34.783486
43014	9.182009	2.546765	2.184311	-0.020544	-0.005638	-0.007976	49.088545	-69.693646	34.769331
43015	9.146632	2.521123	2.216932	-0.027190	-0.007142	-0.009349	49.094681	-69.691700	34.751785
43016	9.160368	2.528817	2.164684	-0.025946	-0.006580	-0.010145	49.101818	-69.689042	34.734115
43017	9.175880	2.533895	2.203801	-0.020634	-0.003814	-0.007416	49.105888	-69.686703	34.722832
43018	9.114749	2.529885	2.244130	-0.016116	-0.004644	-0.007064	49.113267	-69.684653	34.710911
43019	9.152168	2.535806	2.197823	-0.029955	-0.008917	-0.005720	49.116257	-69.684966	34.694994
43020	9.179934	2.494406	2.176622	-0.029651	-0.003870	-0.016638	49.124667	-69.678477	34.673703
43021	9.151688	2.537042	2.198397	-0.031868	-0.004376	-0.017098	49.132714	-69.672137	34.651509
43022	9.182940	2.530115	2.171742	-0.028321	-0.005143	-0.017999	49.144732	-69.665533	34.627181
43023	9.159055	2.532457	2.165985	-0.023554	-0.003638	-0.011177	49.150701	-69.661492	34.612063
43024	9.180323	2.551370	2.186022	-0.019485	-0.001434	-0.007652	49.152971	-69.657981	34.603530
43025	9.174415	2.537760	2.205452	-0.016393	-0.005291	-0.005026	49.158727	-69.657214	34.593198
43026	9.156632	2.553113	2.180141	-0.010107	-0.002582	-0.001041	49.161028	-69.656998	34.590361
43027	9.176635	2.517419	2.191782	-0.010469	-0.001384	0.001569	49.158945	-69.657625	34.592117
43028	9.178238	2.570910	2.200058	-0.006310	-0.001010	0.004531	49.155953	-69.659235	34.597247
43029	9.153299	2.517802	2.185983	-0.003484	0.000627	0.008851	49.148171	-69.662270	34.609009
43030	9.188746	2.543008	2.153594	-0.002239	0.001195	0.008058	49.141364	-69.664582	34.620694
43031	9.143570	2.542435	2.232994	0.004136	0.002072	0.011479	49.133608	-69.668219	34.637197
43032	9.145951	2.521446	2.219372	0.000948	0.001633	0.009768	49.126379	-69.671107	34.651279
43033	9.183428	2.526960	2.173350	-0.001149	0.003726	-0.000122	49.125398	-69.669098	34.657169
43034	9.143723	2.540974	2.234030	0.009576	0.013564	0.004430	49.114567	-69.665199	34.680364
43035	9.159638	2.528017	2.168706	0.004591	0.005167	0.007953	49.106998	-69.666136	34.696969
43036	9.201071	2.510435	2.200533	0.012306	0.010904	0.009665	49.095545	-69.665499	34.722496
43037	9.153778	2.513138	2.189340	0.008332	0.012993	0.005222	49.083761	-69.662325	34.745598
43038	9.159452	2.526614	2.171122	0.010458	0.015325	0.006245	49.069558	-69.658544	34.772930
43039	9.145367	2.519040	2.224505	0.014554	0.015828	0.001256	49.062083	-69.652599	34.795357
43040	9.148752	2.553059	2.220028	0.004446	0.013250	0.000212	49.052981	-69.646983	34.813577
43041	9.152777	2.513052	2.193620	0.010211	0.012991	-0.000227	49.047801	-69.641439	34.831134
43042	9.148199	2.553373	2.221944	0.009936	0.012358	0.001818	49.041273	-69.636852	34.849964
43043	9.118507	2.541361	2.235936	0.003742	0.007823	-0.002733	49.040980	-69.632174	34.858148
43044	9.173442	2.532223	2.215835	0.000378	0.011046	-0.003317	49.035709	-69.625857	34.869796
43045	9.169409	2.498646	2.222484	0.006934	0.014381	-0.001375	49.028236	-69.619301	34.887639
43046	9.121236	2.576181	2.233205	0.004897	0.010218	-0.002962	49.026170	-69.613447	34.898632
43047	9.154822	2.548436	2.193173	-0.004334	0.003287	-0.001838	49.025588	-69.610838	34.902447
43048	9.154682	2.548396	2.193803	0.005229	0.010720	0.002944	49.017165	-69.607351	34.920426
43049	9.116957	2.542519	2.240933	-0.003083	0.009975	-0.002986	49.010746	-69.601762	34.931119
43050	9.124649	2.536477	2.209065	-0.009543	0.010929	-0.005848	49.002511	-69.594392	34.939867
43051	9.086653	2.531179	2.256576	-0.006504	0.013325	-0.011524	48.998873	-69.583849	34.945288
43052	9.139190	2.542843	2.250392	-0.014917	0.002167	-0.016183	49.008179	-69.575303	34.932034
43053	9.140949	2.523727	2.237313	-0.018742	0.002293	-0.013243	49.012075	-69.568164	34.922011
43054	9.122841	2.539907	2.212590	-0.020868	-0.000041	-0.014268	49.018589	-69.561276	34.908097
43055	9.145969	2.539361	2.219420	-0.025901	0.003937	-0.019406	49.022619	-69.550825	34.893773
43056	9.147544	2.520412	2.206963	-0.023958	0.009924	-0.017254	49.018798	-69.538900	34.888997
43057	9.166015	2.560379	2.241904	-0.025170	0.007654	-0.024980	49.024589	-69.524670	34.873219
43058	9.149761	2.557287	2.203965	-0.018894	0.004240	-0.020637	49.033645	-69.513417	34.857794
43059	9.155058	2.572379	2.185555	-0.028304	0.000953	-0.018394	49.038749	-69.504550	34.840755
43060	9.145064	2.525707	2.211186	-0.019536	0.004799	-0.015984	49.042096	-69.495099	34.831031
43061	9.116452	2.568580	2.233603	-0.021204	0.005556	-0.020537	49.048026	-69.483553	34.817620
43062	9.139398	2.568429	2.240729	-0.025636	0.004540	-0.021462	49.053657	-69.471828	34.801725
43063	9.154895	2.557426	2.175813	-0.023422	0.005043	-0.021001	49.059344	-69.460266	34.787121
43064	9.169737	2.563598	2.215942	-0.016503	0.007192	-0.021660	49.067318	-69.447459	34.774308
43065	9.145570	2.566393	2.210766	-0.015292	0.003336	-0.013585	49.072235	-69.439771	34.765407
43066	9.139279	2.553377	2.230867	-0.017692	0.006484	-0.012916	49.071580	-69.431014	34.761082
43067	9.160091	2.572865	2.251800	-0.017146	0.007748	-0.017006	49.073761	-69.420192	34.754255
43068	9.133751	2.595500	2.260274	-0.021755	-0.001850	-0.016110	49.083571	-69.413179	34.736265
43069	9.108349	2.544197	2.246496	-0.025825	0.002054	-0.019994	49.090324	-69.403202	34.718744
43070	9.145241	2.551828	2.201331	-0.025372	0.005145	-0.023518	49.097375	-69.390356	34.701484
43071	9.142269	2.573371	2.216300	-0.022280	0.007415	-0.021235	49.101178	-69.377821	34.689500
43072	9.159312	2.559390	2.242912	-0.020159	0.009749	-0.020205	49.102590	-69.364681	34.681454
43073	9.146740	2.590050	2.199472	-0.025735	0.000208	-0.020570	49.112028	-69.355140	34.660964
43074	9.161680	2.595781	2.239515	-0.013092	0.009944	-0.013469	49.110549	-69.344844	34.660335
43075	9.155326	2.582744	2.259856	-0.013272	0.007481	-0.011993	49.110182	-69.336271	34.658410
43076	9.165243	2.557437	2.214082	-0.015488	0.006968	-0.012459	49.109742	-69.327529	34.655203
43077	9.138906	2.579624	2.222889	-0.009209	0.009693	-0.008452	49.105684	-69.319683	34.660121
43078	9.112632	2.601626	2.231624	-0.007174	0.007742	-0.006511	49.103210	-69.313228	34.664179
43079	9.113246	2.528269	2.210503	-0.009031	0.012153	-0.009929	49.097888	-69.303806	34.669942
43080	9.158582	2.600488	2.246716	-0.018477	0.019516	-0.024864	49.093671	-69.284985	34.668939
43081	9.132644	2.549846	2.234686	-0.012117	0.026528	-0.021764	49.081891	-69.265051	34.680009
43082	9.109064	2.607194	2.239679	-0.022458	0.021576	-0.029322	49.077468	-69.243527	34.676788
43083	9.127813	2.574273	2.253680	-0.021544	0.021644	-0.036027	49.080038	-69.219266	34.666966
43084	9.109970	2.589312	2.322410	-0.014546	0.028096	-0.037582	49.080869	-69.191719	34.662973
43085	9.098916	2.601567	2.266685	-0.028275	0.015797	-0.036529	49.086661	-69.169410	34.645045
43086	9.123571	2.582786	2.261105	-0.018448	0.017786	-0.033406	49.092847	-69.147540	34.632928
43087	9.102307	2.620563	2.251519	-0.021292	0.011710	-0.028881	49.099706	-69.130076	34.618308
43088	9.159129	2.593635	2.218403	-0.022988	0.008037	-0.024575	49.105641	-69.115687	34.603673
43089	9.094695	2.610176	2.273717	-0.014423	0.015573	-0.020994	49.104310	-69.100207	34.601956
43090	9.117523	2.610104	2.281324	-0.021595	0.006642	-0.017976	49.106123	-69.089198	34.592586
43091	9.135635	2.579342	2.202923	-0.021617	0.012751	-0.018313	49.101241	-69.075940	34.590041
43092	9.137238	2.631033	2.304479	-0.013730	0.014873	-0.017695	49.097956	-69.061966	34.590952
43093	9.150689	2.639874	2.253758	-0.018361	0.006955	-0.008294	49.091665	-69.055215	34.592194
43094	9.120868	2.627759	2.267891	-0.011443	0.009139	-0.008931	49.087593	-69.047187	34.595350
43095	9.140691	2.592646	2.280366	-0.014479	0.006717	-0.003268	49.078857	-69.042690	34.601242
43096	9.099170	2.609353	2.249814	-0.011469	0.004715	-0.000067	49.071091	-69.040160	34.608338
43097	9.116698	2.593831	2.276133	-0.012189	0.011519	-0.003702	49.058688	-69.033683	34.620199
43098	9.113926	2.613989	2.291226	-0.011718	0.008502	-0.006888	49.053192	-69.026778	34.624712
43099	9.107838	2.600088	2.311264	-0.008011	0.005806	-0.000385	49.046362	-69.023862	34.632516
43100	9.089866	2.615625	2.286727	-0.014979	0.003756	-0.007713	49.045167	-69.018382	34.630423
43101	9.107287	2.600616	2.312839	-0.014805	0.006215	-0.009187	49.042565	-69.011483	34.629850
43102	9.095004	2.630618	2.269232	-0.014607	0.002564	-0.010330	49.045488	-69.005319	34.623574
43103	9.112350	2.615952	2.295251	-0.014159	0.005658	-0.013848	49.048492	-68.996638	34.617265
43104	9.111840	2.616931	2.296157	-0.017345	0.005196	-0.015577	49.052004	-68.987215	34.608676
43105	9.090140	2.599400	2.277142	-0.021875	0.005981	-0.015948	49.052250	-68.977496	34.600921
43106	9.116513	2.633112	2.279164	-0.025658	0.004385	-0.021552	49.057738	-68.965790	34.585112
43107	9.094682	2.615939	2.260290	-0.032405	0.004646	-0.022397	49.059753	-68.953791	34.569012
43108	9.094090	2.617050	2.261384	-0.020808	0.004087	-0.015266	49.062202	-68.944917	34.559435
43109	9.120511	2.650589	2.263389	-0.027281	0.004984	-0.018155	49.062655	-68.934645	34.548249
43110	9.092976	2.619094	2.263498	-0.022752	0.004197	-0.017784	49.066310	-68.924640	34.536183
43111	9.070067	2.617818	2.349590	-0.024968	0.003672	-0.018258	49.069639	-68.914809	34.523214
43112	9.117841	2.600120	2.257756	-0.032312	0.002797	-0.022980	49.074428	-68.903080	34.504060
43113	9.106455	2.627382	2.305566	-0.031737	-0.002045	-0.026746	49.088498	-68.891703	34.475125
43114	9.117475	2.656889	2.268230	-0.030648	0.002034	-0.018423	49.090639	-68.882231	34.459830
43115	9.105358	2.629745	2.307207	-0.030447	-0.001619	-0.019572	49.097988	-68.873808	34.438973
43116	9.102442	2.650616	2.321778	-0.028506	-0.001738	-0.017057	49.104240	-68.866342	34.420585
43117	9.104471	2.631707	2.308468	-0.037096	-0.003201	-0.020997	49.110904	-68.857888	34.396255
43118	9.080354	2.634286	2.303038	-0.035582	-0.001989	-0.023828	49.119927	-68.847582	34.370546
43119	9.087931	2.630134	2.270946	-0.041516	0.000166	-0.030809	49.129770	-68.833615	34.340098
43120	9.134322	2.629235	2.284251	-0.040445	-0.001724	-0.030129	49.141767	-68.820476	34.308207
43121	9.118319	2.626683	2.245770	-0.033869	-0.004440	-0.027818	49.158229	-68.809543	34.275312
43122	9.109371	2.634077	2.279540	-0.034180	0.001023	-0.026092	49.166792	-68.797119	34.250950
43123	9.111160	2.615985	2.266386	-0.031489	-0.001464	-0.028816	49.182157	-68.784610	34.220899
43124	9.129003	2.656224	2.301232	-0.031491	-0.001471	-0.028819	49.197632	-68.771933	34.190770
43125	9.113029	2.653706	2.262616	-0.026258	-0.002939	-0.025146	49.214037	-68.761556	34.162779
43126	9.138580	2.634067	2.255206	-0.021231	-0.000757	-0.020317	49.226360	-68.752295	34.142335
43127	9.129761	2.641136	2.288751	-0.022204	-0.000705	-0.021577	49.239109	-68.742618	34.120746
43128	9.087805	2.659258	2.258099	-0.021713	0.002243	-0.017120	49.244710	-68.733619	34.107217
43129	9.131840	2.677599	2.285484	-0.014837	0.010580	-0.018046	49.245720	-68.721273	34.102914
43130	9.104418	2.646106	2.285387	-0.019498	0.002767	-0.016647	49.251534	-68.712283	34.090515
43131	9.093060	2.672409	2.333528	-0.013541	0.011010	-0.010862	49.245877	-68.702877	34.093929
43132	9.100882	2.667532	2.301502	-0.014366	0.003131	-0.012394	49.250137	-68.695597	34.086353
43133	9.076997	2.669288	2.296019	-0.016528	0.002446	-0.004902	49.246570	-68.691973	34.085758
43134	9.071156	2.655018	2.315447	-0.010212	-0.000888	-0.000544	49.246316	-68.691339	34.085581
43135	9.092242	2.673139	2.335880	-0.011832	-0.000291	0.002861	49.241040	-68.692108	34.089778
43136	9.108918	2.661502	2.270000	-0.008267	-0.000998	0.001975	49.239607	-68.692608	34.092063
43137	9.085464	2.662424	2.263782	-0.006113	-0.004753	0.003337	49.242167	-68.695276	34.090994
43138	9.100860	2.666374	2.302931	-0.007997	-0.000357	-0.000068	49.242136	-68.694651	34.091941
43139	9.114865	2.674899	2.251179	-0.007831	0.002106	-0.001532	49.240699	-68.692619	34.094837
43140	9.126809	2.645065	2.295975	-0.004686	0.008692	-0.000100	49.232528	-68.688594	34.106556
43141	9.071149	2.653329	2.317407	-0.007560	0.002747	-0.003575	49.232524	-68.685450	34.107980
43142	9.092023	2.672092	2.337929	-0.011511	-0.001321	-0.007731	49.238899	-68.681860	34.099889
43143	9.076575	2.668227	2.298915	-0.014971	-0.002440	-0.007426	49.244152	-68.679004	34.090489
43144	9.102545	2.647462	2.291270	-0.011616	0.000500	-0.007152	49.247882	-68.674983	34.085171
43145	9.070445	2.654881	2.318386	-0.013351	-0.003037	-0.010832	49.257993	-68.670878	34.071948
43146	9.099564	2.668469	2.305623	-0.011136	-0.002506	-0.010355	49.268402	-68.666590	34.059756
43147	9.081553	2.684483	2.280612	-0.018432	-0.003564	-0.007122	49.272575	-68.664266	34.049976
43148	9.104952	2.683557	2.287058	-0.015780	0.000073	-0.010151	49.277255	-68.659102	34.041078
43149	9.101498	2.650099	2.292381	-0.011348	0.001137	-0.009196	49.282263	-68.654125	34.034068
43150	9.080840	2.686074	2.281577	-0.013353	-0.003042	-0.010835	49.292441	-68.649827	34.020758
43151	9.118943	2.635698	2.317777	-0.012651	-0.003739	-0.007532	49.300498	-68.647386	34.010397
43152	9.080576	2.686890	2.281666	-0.008595	-0.001492	-0.003954	49.305098	-68.645497	34.006003
43153	9.121888	2.670287	2.313141	-0.007187	0.001560	-0.006198	49.309118	-68.641650	34.002802
43154	9.103838	2.686105	2.288503	-0.007669	0.004563	-0.002994	49.306604	-68.637917	34.006616
43155	9.098048	2.671715	2.307844	-0.006053	-0.000475	0.002450	49.305308	-68.638606	34.010119
43156	9.074554	2.672537	2.301887	-0.010862	-0.000363	0.004118	49.299644	-68.639802	34.015352
43157	9.074669	2.671998	2.302060	-0.005080	-0.000530	0.003710	49.297752	-68.641054	34.020103
43158	9.092562	2.656227	2.327246	-0.007622	-0.001547	-0.002694	49.301766	-68.639733	34.016936
43159	9.083005	2.666268	2.269120	-0.010110	-0.002724	-0.001130	49.304084	-68.639717	34.013793
43160	9.090034	2.675765	2.341461	-0.004809	0.000112	0.001668	49.303701	-68.639671	34.017079
43161	9.098406	2.669968	2.308456	-0.010380	-0.003367	0.000912	49.304636	-68.640788	34.015537
43162	9.095800	2.689621	2.322849	-0.007670	0.004562	-0.002993	49.302122	-68.637055	34.019350
43163	9.104093	2.683921	2.290049	-0.006218	-0.002943	0.003910	49.302049	-68.639284	34.021018
43164	9.083164	2.664996	2.269979	-0.004048	0.003701	0.004091	49.295801	-68.638950	34.031070
43165	9.104264	2.682903	2.290562	-0.006429	0.000701	0.005073	49.290507	-68.640355	34.038581
43166	9.075107	2.669204	2.303574	-0.005727	0.000003	0.008376	49.283307	-68.643262	34.048622
43167	9.104692	2.681242	2.290806	-0.002432	-0.001340	0.009533	49.278278	-68.647351	34.058220
43168	9.073197	2.686776	2.317666	-0.004593	-0.002038	0.017023	49.265718	-68.654775	34.074712
43169	9.134907	2.691291	2.277867	0.001084	-0.000383	0.017197	49.254201	-68.661785	34.093339
43170	9.100421	2.662125	2.309569	-0.004539	-0.002204	0.024990	49.234204	-68.672727	34.117846
43171	9.136109	2.687207	2.277867	0.000602	0.002614	0.020401	49.216035	-68.680029	34.143601
43172	9.109926	2.652451	2.276539	0.006648	-0.001366	0.026798	49.199741	-68.691435	34.171010
43173	9.099912	2.675235	2.323356	0.003887	-0.003190	0.030402	49.180331	-68.705271	34.199574
43174	9.108328	2.613477	2.280618	0.006750	-0.003194	0.026214	49.166642	-68.717103	34.224247
43175	9.101483	2.670653	2.322473	0.009238	-0.002021	0.024649	49.154427	-68.727978	34.248746
43176	9.089451	2.644810	2.268422	0.003001	-0.010905	0.020889	49.152266	-68.740389	34.258740
43177	9.078556	2.614810	2.305534	0.010532	-0.003091	0.015318	49.150932	-68.747615	34.272797
43178	9.079836	2.667398	2.314044	-0.002836	-0.010566	0.013330	49.152323	-68.756622	34.275389
43179	9.094910	2.616784	2.343108	0.002516	-0.009394	0.007578	49.160902	-68.762863	34.272898
43180	9.083255	2.646009	2.298214	0.000196	-0.008103	0.007682	49.166731	-68.768499	34.272593
43181	9.091888	2.639912	2.264355	-0.001647	-0.009811	0.004582	49.176285	-68.773600	34.266853
43182	9.072411	2.616502	2.334600	-0.000506	-0.007401	0.004381	49.184118	-68.777542	34.263967
43183	9.107878	2.643154	2.301953	-0.007224	-0.013283	0.003827	49.195055	-68.783604	34.254017
43184	9.108275	2.642541	2.301082	-0.004239	-0.009166	0.006727	49.200462	-68.789224	34.251439
43185	9.112077	2.675655	2.295159	-0.002528	-0.016039	0.011583	49.209704	-68.799680	34.245568
43186	9.085827	2.641952	2.292709	-0.002462	-0.011750	0.010704	49.215187	-68.807992	34.244001
43187	9.124004	2.647990	2.245966	0.003340	-0.005984	0.017962	49.210420	-68.817466	34.256487
43188	9.142550	2.630732	2.270047	-0.002203	-0.015569	0.017505	49.213758	-68.830158	34.257379
43189	9.096199	2.631712	2.256574	0.007165	-0.010511	0.023874	49.210520	-68.843888	34.270343
43190	9.094676	2.649381	2.269337	0.001416	-0.016452	0.024581	49.210073	-68.859980	34.277517
43191	9.119264	2.645865	2.273914	0.008340	-0.014221	0.023967	49.211543	-68.875137	34.287615
43192	9.085017	2.616975	2.304384	0.008781	-0.011109	0.020465	49.213294	-68.887444	34.296954
43193	9.149531	2.601190	2.248953	0.007194	-0.016637	0.024166	49.216717	-68.903638	34.303831
43194	9.100780	2.621875	2.249543	0.009551	-0.007528	0.022884	49.212522	-68.915654	34.320015
43195	9.095614	2.606258	2.267712	0.013126	-0.003770	0.013153	49.215444	-68.922200	34.330440
43196	9.120562	2.657661	2.282328	0.005226	-0.005941	0.012510	49.217049	-68.929122	34.337750
43197	9.116684	2.568963	2.277550	0.007787	-0.000476	0.010065	49.216221	-68.933114	34.349853
43198	9.117789	2.622187	2.286646	0.006011	0.002112	0.006089	49.215441	-68.934236	34.360201
43199	9.122684	2.582382	2.258552	0.006554	0.003405	0.002006	49.217411	-68.933296	34.367186
43200	9.115424	2.641724	2.300781	0.005510	-0.000829	0.001627	49.223992	-68.933583	34.369339
43201	9.085974	2.629109	2.313811	-0.005066	0.003944	-0.005128	49.225532	-68.929303	34.370159
43202	9.117605	2.622417	2.287116	-0.000702	0.000706	-0.003299	49.231610	-68.926879	34.369036
43203	9.125742	2.616888	2.254241	-0.001445	0.003060	0.001945	49.229423	-68.926034	34.375944
43204	9.102055	2.618390	2.248443	0.000443	0.003115	-0.003501	49.233640	-68.922620	34.377519
43205	9.087891	2.610070	2.300883	-0.005066	0.003943	-0.005129	49.235195	-68.918349	34.378344
43206	9.120422	2.657152	2.283483	-0.005238	0.001474	-0.003669	49.238167	-68.915477	34.377765
43207	9.120304	2.657398	2.283666	-0.002920	0.000178	-0.003775	49.243954	-68.913242	34.375679
43208	9.122696	2.637770	2.269547	-0.004336	-0.002878	-0.001532	49.250267	-68.912925	34.372073
43209	9.131064	2.631801	2.236279	-0.000113	-0.002644	0.009423	49.248089	-68.917500	34.380186
43210	9.091380	2.643674	2.295877	-0.001759	-0.007995	0.005162	49.255146	-68.922002	34.377364
43211	9.126103	2.615922	2.253902	-0.003018	-0.013051	0.014786	49.257638	-68.932707	34.378608
43212	9.098268	2.655635	2.275071	0.009390	-0.005537	0.015500	49.258278	-68.940777	34.389508
43213	9.103732	2.614703	2.245944	-0.004264	-0.013639	0.015569	49.260042	-68.952085	34.391216
43214	9.119807	2.617279	2.284218	0.005555	-0.005477	0.018429	49.255561	-68.961404	34.405248
43215	9.065014	2.624320	2.304451	-0.002948	-0.008761	0.013907	49.254199	-68.970171	34.410764
43216	9.103175	2.630109	2.257648	-0.007558	-0.012285	0.014416	49.253783	-68.980295	34.412390
43217	9.123859	2.593390	2.268223	-0.009186	-0.001108	0.008685	49.245249	-68.983917	34.421351
43218	9.092351	2.599448	2.295281	-0.009087	-0.002932	0.008103	49.239531	-68.987802	34.427719
43219	9.121865	2.611620	2.282478	-0.021313	-0.003500	-0.002908	49.238114	-68.987332	34.422634
43220	9.090144	2.618441	2.309526	-0.013485	-0.005629	-0.001390	49.242168	-68.988106	34.415834
43221	9.101759	2.646753	2.271455	-0.025554	-0.008203	-0.005022	49.245637	-68.988442	34.401661
43222	9.130284	2.605518	2.249015	-0.024655	-0.012561	-0.002889	49.252586	-68.991157	34.384904
43223	9.096270	2.632126	2.289765	-0.018800	-0.008450	-0.004181	49.259449	-68.991980	34.371295
43224	9.130495	2.605271	2.248444	-0.027776	-0.008738	-0.005499	49.262832	-68.992131	34.356442
43225	9.072675	2.633630	2.283632	-0.027062	-0.004971	-0.011039	49.267603	-68.988629	34.340513
43226	9.098521	2.612661	2.275873	-0.025214	-0.003272	-0.007941	49.268649	-68.985676	34.329735
43227	9.101784	2.646905	2.271178	-0.031577	-0.010329	-0.011119	49.276999	-68.984158	34.307006
43228	9.098338	2.613281	2.275892	-0.024649	-0.008099	-0.011734	49.287510	-68.981362	34.286436
43229	9.117103	2.651649	2.310024	-0.027312	-0.011753	-0.008715	49.297561	-68.981413	34.264638
43230	9.143952	2.615625	2.196379	-0.029731	-0.008640	-0.008023	49.302159	-68.980428	34.247282
43231	9.119392	2.632259	2.295899	-0.019266	-0.000989	-0.009815	49.305767	-68.976004	34.237624
43232	9.098019	2.614235	2.276069	-0.028686	-0.004411	-0.007639	49.305806	-68.973606	34.225794
43233	9.074172	2.616208	2.270397	-0.024042	-0.002513	-0.016691	49.315017	-68.966733	34.206666
43234	9.091617	2.601449	2.295921	-0.039413	-0.003755	-0.021478	49.321600	-68.958076	34.181239
43235	9.104917	2.611696	2.244637	-0.036385	-0.001278	-0.027124	49.332481	-68.946226	34.153294
43236	9.083097	2.663619	2.340100	-0.035143	-0.000695	-0.027909	49.344254	-68.933628	34.124922
43237	9.093011	2.640213	2.293396	-0.043997	-0.008951	-0.029538	49.361647	-68.923548	34.084992
43238	9.124195	2.635011	2.266726	-0.040905	-0.006666	-0.027221	49.376142	-68.913472	34.050161
43239	9.131789	2.631178	2.234051	-0.037713	-0.006201	-0.025489	49.390141	-68.904156	34.017664
43240	9.123171	2.637785	2.267620	-0.031693	-0.004090	-0.019394	49.399404	-68.896519	33.994095
43241	9.101364	2.621049	2.248143	-0.035969	0.001805	-0.030630	49.410270	-68.881961	33.966266
43242	9.113482	2.646630	2.302838	-0.031464	0.007164	-0.030541	49.417707	-68.865275	33.944790
43243	9.093847	2.610681	2.269707	-0.040516	0.002539	-0.031005	49.425479	-68.850291	33.917260
43244	9.096029	2.647091	2.266588	-0.041500	0.007082	-0.041095	49.437369	-68.829040	33.884837
43245	9.063027	2.656521	2.295401	-0.036087	0.008084	-0.038884	49.448910	-68.808535	33.856039
43246	9.088071	2.637914	2.288459	-0.046614	-0.003923	-0.036265	49.465501	-68.793480	33.815424
43247	9.023632	2.653538	2.343454	-0.035144	-0.002412	-0.036503	49.486960	-68.777896	33.776854
43248	9.041425	2.693928	2.378465	-0.051528	-0.014081	-0.041446	49.517004	-68.764352	33.718779
43249	9.154962	2.646512	2.216142	-0.057507	-0.026851	-0.038471	49.554865	-68.756987	33.648674
43250	9.125887	2.689329	2.238012	-0.040054	-0.017077	-0.032866	49.586549	-68.748273	33.595884
43251	9.068390	2.659719	2.354916	-0.049032	-0.007011	-0.035314	49.604044	-68.734949	33.552627
43252	9.060069	2.653667	2.283210	-0.052283	-0.008932	-0.053591	49.639256	-68.714149	33.488522
43253	9.109218	2.688636	2.291337	-0.062421	-0.011728	-0.054742	49.672605	-68.694007	33.419315
43254	9.100689	2.683318	2.219656	-0.052671	-0.007809	-0.050976	49.703668	-68.673907	33.359409
43255	9.040247	2.674193	2.351431	-0.046278	-0.006849	-0.047502	49.733733	-68.655088	33.304288
43256	9.105819	2.698559	2.293183	-0.062261	-0.013828	-0.047395	49.762481	-68.638759	33.240950
43257	9.046477	2.675064	2.318904	-0.052087	-0.017182	-0.046005	49.799260	-68.624415	33.174867
43258	9.040459	2.717485	2.347369	-0.057651	-0.022342	-0.055363	49.847541	-68.607714	33.093376
43259	9.119334	2.698397	2.226212	-0.069405	-0.024611	-0.053109	49.889323	-68.593012	33.012396
43260	9.152764	2.675877	2.184350	-0.054073	-0.017141	-0.048552	49.927251	-68.577334	32.944213
43261	9.112423	2.743535	2.254846	-0.036428	-0.009310	-0.035532	49.954106	-68.564632	32.898893
43262	9.039641	2.709609	2.332534	-0.040877	-0.010425	-0.036501	49.980656	-68.551740	32.851043
43263	9.070650	2.705827	2.305440	-0.057313	-0.016080	-0.041743	50.008852	-68.538797	32.791907
43264	9.069748	2.708515	2.305834	-0.043522	-0.005330	-0.043171	50.034345	-68.521084	32.743555
43265	9.031623	2.702802	2.351863	-0.052447	-0.022298	-0.043194	50.073553	-68.509789	32.675102
43266	9.044702	2.715008	2.299243	-0.053236	-0.024298	-0.037087	50.108861	-68.501701	32.610211
43267	9.065204	2.735708	2.318835	-0.050022	-0.025423	-0.043928	50.153492	-68.491181	32.537819
43268	9.072946	2.733171	2.284347	-0.054836	-0.034220	-0.032617	50.194720	-68.488667	32.465574
43269	9.131124	2.761534	2.257276	-0.046685	-0.029683	-0.025410	50.228669	-68.487791	32.405775
43270	9.162725	2.702786	2.218208	-0.047834	-0.030523	-0.016662	50.254933	-68.490919	32.353925
43271	9.113009	2.724968	2.219737	-0.026401	-0.016489	-0.006778	50.268517	-68.493434	32.328530
43272	8.969852	2.704809	2.384626	-0.027453	-0.010310	-0.008267	50.276067	-68.492849	32.309347
43273	8.975218	2.720353	2.365296	-0.051727	-0.027641	-0.031128	50.310148	-68.488671	32.246584
43274	9.107184	2.713336	2.236215	-0.055042	-0.027949	-0.040858	50.351851	-68.480157	32.173697
43275	9.080288	2.736542	2.244265	-0.039508	-0.013594	-0.038530	50.383991	-68.467541	32.120631
43276	9.106063	2.772007	2.245700	-0.045242	-0.019655	-0.037899	50.419191	-68.457270	32.060762
43277	9.203404	2.736968	2.148263	-0.045436	-0.024865	-0.027063	50.449968	-68.453856	32.005227
43278	9.134386	2.735092	2.221056	-0.023120	-0.009013	-0.015291	50.464995	-68.449672	31.980668
43279	9.105240	2.722090	2.233492	-0.033920	-0.015707	-0.010946	50.477151	-68.449995	31.952184
43280	9.099988	2.761222	2.262183	-0.022541	-0.012223	-0.010566	50.491733	-68.449065	31.928460
43281	9.131699	2.755764	2.234288	-0.027248	-0.014022	-0.009498	50.504485	-68.449413	31.904206
43282	9.107933	2.703766	2.217356	-0.026994	-0.013360	-0.011537	50.518683	-68.448464	31.878153
43283	9.102516	2.743202	2.246350	-0.028674	-0.008286	-0.016918	50.530997	-68.443416	31.852707
43284	9.110189	2.739641	2.213243	-0.031742	-0.006317	-0.020093	50.542464	-68.436113	31.826664
43285	9.133394	2.739535	2.219660	-0.026382	0.000896	-0.018077	50.546917	-68.427235	31.811680
43286	9.040370	2.738601	2.288275	-0.026094	0.005871	-0.020934	50.548734	-68.415121	31.799490
43287	9.047612	2.735535	2.256323	-0.036715	0.004362	-0.027434	50.552010	-68.400851	31.778913
43288	9.088667	2.720093	2.288211	-0.033108	0.008029	-0.029156	50.554933	-68.384313	31.761208
43289	9.042951	2.758746	2.274283	-0.038150	0.010089	-0.034855	50.557823	-68.364695	31.739787
43290	9.105151	2.749660	2.221534	-0.042717	0.010762	-0.035221	50.557722	-68.344479	31.719408
43291	9.103708	2.752077	2.224453	-0.033694	0.030276	-0.036544	50.542177	-68.316760	31.721323
43292	9.112288	2.796240	2.296920	-0.040347	0.034454	-0.030231	50.512507	-68.290125	31.734222
43293	9.063462	2.746632	2.278577	-0.039876	0.033056	-0.024902	50.479722	-68.266522	31.750508
43294	9.003886	2.773919	2.319046	-0.032557	0.040174	-0.020347	50.439249	-68.242162	31.779847
43295	9.057832	2.768226	2.302048	-0.047042	0.034288	-0.023121	50.399541	-68.218918	31.799768
43296	9.024534	2.721887	2.323053	-0.038727	0.038181	-0.034490	50.370803	-68.189029	31.812671
43297	9.065288	2.801589	2.273589	-0.054989	0.026018	-0.031617	50.343426	-68.165006	31.814055
43298	9.066522	2.784005	2.262849	-0.039277	0.032507	-0.029614	50.316269	-68.139339	31.824920
43299	9.075009	2.774034	2.325035	-0.050614	0.037567	-0.031661	50.278866	-68.111086	31.839592
43300	9.086769	2.786486	2.277967	-0.043574	0.038123	-0.032843	50.246137	-68.081934	31.853814
43301	9.045085	2.744835	2.332593	-0.045643	0.044325	-0.035575	50.207858	-68.049466	31.873041
43302	9.013810	2.786861	2.361105	-0.054814	0.035442	-0.043313	50.181264	-68.016683	31.873709
43303	9.072678	2.798047	2.325737	-0.052246	0.030542	-0.044671	50.162599	-67.985259	31.867676
43304	9.020959	2.768792	2.321532	-0.046839	0.027326	-0.041617	50.147917	-67.956201	31.860423
43305	9.068981	2.803457	2.333628	-0.049190	0.028546	-0.041506	50.130333	-67.926904	31.854780
43306	9.089069	2.812663	2.252305	-0.051322	0.021826	-0.041820	50.119244	-67.899778	31.840876
43307	9.076517	2.785131	2.293361	-0.040901	0.039914	-0.036455	50.089639	-67.868552	31.853123
43308	9.039929	2.812068	2.339562	-0.040325	0.026512	-0.038737	50.077017	-67.841063	31.847669
43309	9.041146	2.795328	2.328268	-0.042812	0.025245	-0.037206	50.062896	-67.814902	31.842113
43310	9.017612	2.790982	2.416551	-0.038126	0.022763	-0.037448	50.054424	-67.789359	31.833537
43311	8.963377	2.780845	2.425643	-0.043567	0.011449	-0.046723	50.063265	-67.764090	31.802765
43312	9.051776	2.807131	2.375333	-0.047038	0.000042	-0.053469	50.088453	-67.739861	31.752300
43313	9.069318	2.836860	2.306479	-0.038401	0.001691	-0.049442	50.113032	-67.716966	31.707781
43314	9.070891	2.821104	2.292831	-0.041142	-0.000252	-0.045877	50.134958	-67.696168	31.664478
43315	9.116904	2.822154	2.306055	-0.037076	0.002050	-0.042228	50.153305	-67.676289	31.627466
43316	9.070812	2.861285	2.291706	-0.025348	0.006076	-0.035806	50.168392	-67.657588	31.601326
43317	9.088080	2.847490	2.317318	-0.025129	0.004011	-0.028434	50.179120	-67.643066	31.579945
43318	8.986174	2.848715	2.418811	-0.025053	0.009637	-0.012624	50.169845	-67.633256	31.580326
43319	9.008209	2.803105	2.323702	-0.028884	-0.000618	-0.016726	50.172909	-67.625583	31.564944
43320	9.049108	2.840180	2.366144	-0.025552	-0.001890	-0.015578	50.178300	-67.618704	31.549155
43321	8.961708	2.798773	2.403969	-0.023929	0.001898	-0.019797	50.184253	-67.608763	31.533774
43322	8.995346	2.829337	2.374152	-0.021575	0.004971	-0.020712	50.189149	-67.597106	31.520984
43323	9.018306	2.829745	2.381075	-0.025777	0.000158	-0.022959	50.198705	-67.586416	31.500477
43324	8.988784	2.817060	2.393816	-0.023309	-0.007188	-0.022906	50.217511	-67.578250	31.471562
43325	9.065716	2.820271	2.287675	-0.030086	-0.008720	-0.032412	50.242423	-67.566643	31.431744
43326	9.088497	2.821753	2.294061	-0.018577	0.001695	-0.034144	50.264387	-67.550263	31.402342
43327	9.044152	2.852283	2.370530	-0.015616	0.010173	-0.031924	50.276953	-67.531948	31.385089
43328	9.021690	2.889969	2.362310	-0.020196	0.006495	-0.031518	50.290485	-67.514962	31.363801
43329	9.016157	2.823593	2.370333	-0.018479	0.005736	-0.026946	50.301683	-67.500458	31.345911
43330	8.971933	2.853587	2.446675	-0.013525	0.003963	-0.029221	50.319653	-67.485407	31.323952
43331	9.046418	2.823489	2.343903	-0.030063	-0.018941	-0.039474	50.361452	-67.474389	31.265688
43332	9.106439	2.836386	2.303450	-0.007412	-0.011411	-0.046513	50.414428	-67.457311	31.209615
43333	9.058064	2.842506	2.290465	-0.007896	-0.014339	-0.051068	50.474080	-67.439452	31.146119
43334	9.064725	2.800837	2.350313	-0.001075	-0.015950	-0.058809	50.546111	-67.418545	31.073328
43335	9.107975	2.866412	2.281452	0.002025	-0.015165	-0.065043	50.624308	-67.394737	30.995755
43336	9.052484	2.772250	2.277984	0.027039	-0.014723	-0.080049	50.729341	-67.363890	30.904637
43337	9.046287	2.853911	2.301591	0.058873	-0.020201	-0.102017	50.877145	-67.325393	30.786884
43338	8.989668	2.862134	2.411418	0.001848	-0.014146	-0.125803	51.005949	-67.273820	30.654301
43339	9.088436	2.822607	2.297281	0.030227	-0.029498	-0.145952	51.183925	-67.218848	30.485841
43340	9.084467	2.880859	2.199408	0.041581	-0.023709	-0.181637	51.391766	-67.145431	30.292094
43341	9.040310	2.812208	2.339968	0.062880	-0.011509	-0.206862	51.618745	-67.056269	30.090753
43342	9.022775	2.857256	2.384619	0.084012	-0.020481	-0.244181	51.896780	-66.952947	29.846909
43343	9.111095	2.824634	2.195937	0.102927	-0.019100	-0.285070	52.215424	-66.830374	29.570275
43344	9.154953	2.956327	2.193317	0.148474	0.014938	-0.308782	52.540295	-66.684323	29.315204
43345	9.193739	3.022521	2.199299	0.175345	0.039502	-0.329024	52.867187	-66.520140	29.074376
43346	9.175067	3.050808	2.126300	0.212075	0.078249	-0.359206	53.194361	-66.328054	28.855908
43347	9.157220	3.156830	2.244241	0.308420	0.124248	-0.409285	53.562895	-66.096900	28.652138
43348	9.349694	3.092114	2.209244	0.428972	0.226815	-0.526529	53.977338	-65.776060	28.473376
43349	9.253472	3.323880	2.303235	0.531017	0.278010	-0.594997	54.440345	-65.405921	28.304851
43350	9.410254	3.266410	2.285881	0.539156	0.266293	-0.683260	54.973417	-64.997568	28.063911
43351	9.861004	2.954207	2.126059	0.714931	0.200118	-0.750384	55.706240	-64.578292	27.712803
43352	9.637001	3.110040	2.278266	0.982199	0.248410	-0.870701	56.605318	-64.084023	27.345694
43353	9.232641	3.483408	2.378424	1.078402	0.173986	-0.987148	57.681243	-63.554444	26.841557
43354	9.083240	3.657872	2.372401	1.111093	0.198166	-1.072158	58.772535	-62.971779	26.338537
43355	9.116222	3.731490	2.631226	1.138057	0.134874	-1.156455	59.953572	-62.361983	25.749594
43356	8.901852	4.003346	2.608532	1.023325	0.225312	-1.227391	60.985194	-61.685854	25.251541
43357	8.905514	4.382590	3.023010	0.847547	0.282570	-1.253434	61.843807	-60.977578	24.833322
43358	8.724306	4.419701	3.018598	0.500621	0.273775	-1.263083	62.488679	-60.263778	24.428688
43359	8.936741	4.427528	2.450121	0.310749	0.228958	-1.302455	63.058958	-59.539963	23.982420
43360	8.784170	4.370278	2.136274	0.308873	0.309145	-1.316919	63.543027	-58.785710	23.631096
43361	8.660452	4.591191	2.297295	0.360814	0.332748	-1.351643	64.032018	-58.006383	23.306046
43362	8.607297	4.803459	2.374150	0.311758	0.338218	-1.375241	64.479337	-57.211900	22.994288
43363	8.526464	4.788874	2.321005	0.281644	0.354373	-1.398093	64.888084	-56.400641	22.705100
43364	8.406275	4.766235	2.498636	0.305866	0.398998	-1.402812	65.262456	-55.574850	22.471442
43365	8.231916	4.949383	2.363136	0.302856	0.401384	-1.418962	65.625250	-54.739498	22.247379
43366	8.331871	5.379794	2.407469	0.375965	0.419584	-1.432110	66.007800	-53.891941	22.048304
43367	8.212464	5.492686	2.620722	0.279336	0.441852	-1.410885	66.300888	-53.049928	21.889429
43368	8.576653	5.696290	2.392641	0.271736	0.246721	-1.392587	66.708074	-52.261290	21.579931
43369	7.999655	5.377687	2.335869	0.251620	0.361880	-1.393491	67.013454	-51.445348	21.381774
43370	7.490525	5.637823	2.127080	0.314586	0.346563	-1.404435	67.357725	-50.626097	21.177814
43371	7.607273	5.903746	2.261120	0.306374	0.305726	-1.433422	67.720212	-49.799916	20.941530
43372	7.779001	5.989588	2.394566	0.248055	0.309631	-1.453743	68.040975	-48.960965	20.713352
43373	7.653644	6.025367	2.255169	0.256535	0.308798	-1.486642	68.364570	-48.104123	20.484846
43374	7.685772	6.194549	2.307031	0.271996	0.300714	-1.528113	68.700753	-47.225750	20.248245
43375	7.752243	6.313825	2.384345	0.240441	0.305222	-1.569015	69.014614	-46.323961	20.013967
43376	7.900556	6.542857	2.332964	0.251274	0.320605	-1.610527	69.324479	-45.395685	19.790380
43377	7.811601	6.745202	2.420394	0.246681	0.369607	-1.653515	69.604146	-44.433979	19.602096
43378	7.526646	6.819062	2.410667	0.220744	0.361482	-1.716040	69.876183	-43.439374	19.400156
43379	7.500609	6.872637	2.403010	0.200298	0.346447	-1.794537	70.149059	-42.405049	19.175900
43380	7.300735	7.035479	2.249932	0.221116	0.348432	-1.869039	70.435722	-41.329083	18.944361
43381	7.326705	7.267006	2.377930	0.257055	0.288836	-1.970290	70.776440	-40.209098	18.656417
43382	7.708962	7.438660	2.638425	0.241226	0.231122	-2.064401	71.135417	-39.047329	18.318828
43383	8.096479	7.572668	2.800756	0.224048	0.249269	-2.144341	71.473876	-37.837590	17.989621
43384	7.619737	7.558857	2.646854	0.248031	0.284967	-2.254010	71.811945	-36.559961	17.674516
43385	7.458487	7.847644	2.570512	0.282945	0.252089	-2.377410	72.184201	-35.219719	17.325293
43386	7.140531	7.927420	2.498912	0.290854	0.210362	-2.504302	72.575478	-33.815226	16.938512
43387	6.985129	8.021441	2.367614	0.299907	0.131763	-2.636901	72.996594	-32.349630	16.491770
43388	6.832780	8.089269	2.411838	0.327412	0.099067	-2.770997	73.437585	-30.812743	16.018355
43389	6.984492	8.149756	2.450865	0.315819	0.041356	-2.879831	73.878683	-29.222657	15.509224
43390	6.883578	8.437604	2.261230	0.353310	0.052650	-2.977335	74.323128	-27.573316	15.011865
43391	6.122279	8.369303	2.287622	0.349840	0.028369	-3.109803	74.759796	-25.851652	14.498501
43392	6.223571	8.377047	2.100814	0.263309	-0.062731	-3.248306	75.156709	-24.063165	13.928350
43393	6.264723	8.223553	2.042950	0.290175	-0.049365	-3.366968	75.548258	-22.203928	13.368848
43394	6.136581	8.064937	2.399498	0.316308	-0.012103	-3.492367	75.928806	-20.265896	12.833672
43395	6.535804	7.153411	3.008037	0.093654	0.050167	-3.511463	76.147804	-18.306595	12.349643
43396	9.778128	1.853016	2.938795	-1.089322	-0.391800	-3.067145	75.731855	-16.656011	11.674596
43397	14.214152	0.676244	-1.048369	-0.572586	-0.295841	-1.872524	75.533718	-15.659012	11.227120
43398	16.624160	3.485268	1.980922	0.148512	0.033924	-0.366248	75.633323	-15.450520	11.193252
43399	15.384349	2.872935	2.823736	-0.722150	-0.336474	0.907376	75.240537	-16.002787	11.135760
43400	13.578882	1.925888	1.757995	-0.685339	-0.169417	1.885064	74.797998	-17.070807	11.330000
43401	10.988017	3.266311	2.648949	-0.587006	0.161004	2.517734	74.315351	-18.437632	11.827182
43402	8.811122	4.337690	2.670341	-0.860493	0.334763	2.853120	73.606000	-19.955294	12.501439
43403	6.842971	4.416703	1.934396	-1.032970	0.369384	3.006475	72.753541	-21.544042	13.251565
43404	5.438566	4.462987	1.626233	-1.083938	0.320378	3.090080	71.844172	-23.174450	14.023537
43405	4.619305	4.637702	1.556368	-1.166142	0.103768	3.112389	70.902081	-24.846486	14.709209
43406	4.383323	4.685137	1.352045	-1.270475	-0.187859	3.097310	69.941759	-26.554101	15.257421
43407	4.497544	4.602764	1.209766	-1.302835	-0.474343	3.048469	69.014468	-28.286353	15.660973
43408	5.130927	4.496030	1.330667	-1.294125	-0.697115	2.990672	68.136185	-30.026856	15.952767
43409	5.876323	4.477011	1.551525	-1.252010	-0.771258	2.924980	67.287959	-31.746335	16.217457
43410	6.520287	4.597699	1.658871	-1.198508	-0.741729	2.855160	66.445200	-33.417112	16.517234
43411	7.003296	4.457944	1.579823	-1.123733	-0.681999	2.791403	65.606822	-35.038518	16.871902
43412	7.411516	4.246396	1.385195	-1.015075	-0.620186	2.748253	64.786069	-36.616413	17.289651
43413	7.725035	3.938327	1.141876	-0.871152	-0.577300	2.738511	64.001170	-38.175636	17.768312
43414	8.003798	3.840935	0.882208	-0.676290	-0.587015	2.759520	63.294725	-39.741158	18.284147
43415	8.173868	3.927281	0.904976	-0.467744	-0.640458	2.788951	62.690286	-41.332892	18.809342
43416	8.461308	4.208367	1.130533	-0.281206	-0.732264	2.808291	62.196943	-42.952914	19.312499
43417	8.954609	4.494086	1.434761	-0.143313	-0.828846	2.825133	61.792727	-44.606527	19.785094
43418	9.352677	4.780699	1.797739	-0.025776	-0.905215	2.858028	61.455684	-46.293215	20.244893
43419	9.600277	4.990178	2.239528	0.022166	-0.964474	2.886272	61.139038	-48.010676	20.700718
43420	9.709944	4.995149	2.483878	0.034973	-0.982550	2.896034	60.805378	-49.734127	21.177440
43421	9.576494	5.016914	2.609550	0.072392	-0.963166	2.873929	60.453502	-51.441389	21.692788
43422	9.339235	5.137592	2.858071	0.087625	-0.951314	2.821508	60.083673	-53.114908	22.230625
43423	9.199452	5.200384	2.926775	0.045751	-0.963354	2.750879	59.683548	-54.756870	22.763934
43424	9.169934	4.978685	2.857609	0.012359	-0.982124	2.663823	59.271643	-56.356823	23.278524
43425	9.366210	4.828022	2.754291	0.012991	-0.967631	2.562691	58.850532	-57.902897	23.794415
43426	9.542101	4.674510	2.609262	0.025838	-0.967200	2.469678	58.437842	-59.399007	24.301302
43427	9.867329	4.643788	2.494900	0.075933	-0.984076	2.394711	58.062564	-60.864088	24.789691
43428	10.266749	4.538404	2.490083	0.087553	-1.031149	2.345558	57.721606	-62.315841	25.240511
43429	10.793346	4.333373	2.302173	0.149658	-1.055350	2.326148	57.408594	-63.766663	25.693189
43430	11.327832	4.368193	2.503172	0.240127	-1.042147	2.343017	57.080442	-65.218088	26.215206
43431	11.523823	4.392974	2.588868	0.272946	-0.981803	2.370391	56.631530	-66.664468	26.883245
43432	11.297795	4.525888	2.596973	0.345087	-0.876734	2.369602	56.030546	-68.072283	27.754410
43433	11.036689	4.745829	2.720251	0.355400	-0.812960	2.334065	55.285261	-69.440913	28.777521
43434	11.052375	4.701092	2.612867	0.365669	-0.773189	2.293153	54.409031	-70.769631	29.937879
43435	11.255535	4.760846	2.726705	0.389045	-0.720162	2.265274	53.349452	-72.062913	31.295827
43436	11.460578	4.556002	2.618929	0.384114	-0.694833	2.250417	52.082637	-73.329400	32.858804
43437	11.546054	4.433823	2.511163	0.421739	-0.668355	2.256046	50.555615	-74.579400	34.703979
43438	11.578588	4.403657	2.484206	0.461386	-0.647246	2.265041	48.712292	-75.807889	36.889533
43439	11.471763	4.449913	2.616334	0.507277	-0.621231	2.254950	46.486681	-77.003583	39.483042
43440	11.341702	4.546668	2.826815	0.531440	-0.588718	2.234272	43.779850	-78.148497	42.571961
43441	11.139053	4.600642	3.008418	0.540219	-0.516070	2.183120	40.442317	-79.208282	46.296042
43442	10.697762	4.637173	2.944499	0.534651	-0.459702	2.110471	36.445969	-80.166288	50.674684
43443	10.346068	4.751091	2.888112	0.547408	-0.409321	2.006299	31.807749	-81.006944	55.698758
43444	10.364983	4.981379	2.925104	0.565987	-0.380167	1.885110	26.625753	-81.724246	61.273458
43445	10.582377	5.182287	2.973381	0.563528	-0.342827	1.794226	20.786949	-82.318691	67.500015
43446	10.676205	5.398888	3.042831	0.567402	-0.288853	1.731394	14.262484	-82.775162	74.413230
43447	10.684251	5.688103	3.178663	0.543736	-0.233692	1.697043	7.054943	-83.087213	81.994578
43448	10.361308	5.832132	3.172607	0.479221	-0.169779	1.677824	-0.629530	-83.237700	90.015922
43449	9.952385	6.061248	3.239919	0.408267	-0.098002	1.644749	-8.357463	-83.219280	98.038436
43450	9.453379	6.321602	3.290483	0.299192	-0.012437	1.596224	-15.617467	-83.035098	105.528964
43451	8.755178	6.602731	3.160666	0.132387	0.027386	1.538581	-22.188163	-82.733298	112.231929
43452	7.929775	6.863051	2.939728	-0.073269	0.008702	1.469814	-28.039632	-82.370188	118.096215
43453	6.977051	7.048741	2.624884	-0.288507	-0.100716	1.376345	-33.366133	-82.015807	123.310641
43454	6.133228	7.294359	2.405730	-0.503514	-0.276619	1.259132	-38.387029	-81.720600	128.096522
43455	5.345615	7.484677	2.295144	-0.736485	-0.520537	1.122136	-43.432077	-81.523822	132.774514
43456	4.661656	7.474986	2.246351	-0.990672	-0.802734	0.962702	-48.758377	-81.444825	137.591669
43457	4.534423	7.111685	2.161064	-1.198201	-1.040052	0.739284	-54.304288	-81.483079	142.510628
43458	4.944667	6.856495	2.374688	-1.240266	-1.084477	0.478065	-59.509298	-81.592642	147.059914
43459	5.339418	6.627691	2.679748	-1.305828	-1.024544	0.224588	-64.201774	-81.755531	151.051467
43460	6.044173	6.084641	2.515448	-1.349997	-0.872188	0.004003	-68.165021	-81.955135	154.279183
43461	6.370614	5.522637	2.122278	-1.262687	-0.637957	-0.174936	-71.086994	-82.175986	156.504289
43462	6.339525	5.125204	1.737400	-1.157615	-0.427854	-0.299985	-73.071490	-82.414892	157.843031
43463	6.378541	4.659472	1.116203	-1.040320	-0.306544	-0.402094	-74.453497	-82.685001	158.641076
43464	6.432382	4.198194	0.452844	-0.844941	-0.187138	-0.486737	-75.166936	-82.982195	158.877676
43465	12.662185	0.696434	3.758666	-0.855937	-0.359366	-0.612058	-76.599456	-83.372489	159.831931
43466	22.824068	0.085515	-1.483283	-1.475926	0.132893	-1.451487	-74.880314	-84.159918	157.257405
43467	5.237284	-8.374525	-7.270634	-1.834704	4.418436	-0.177549	-54.787747	-83.158215	135.992516
43468	-1.937634	-11.020516	-10.760521	0.732733	0.534749	-1.534214	-47.518773	-83.651151	129.103389
43469	10.371906	-0.031467	-2.704840	2.853793	1.089839	-2.038371	-33.964198	-83.941409	117.119655
43470	7.413565	2.415826	4.690760	1.695004	2.004162	-1.876516	-19.635117	-83.396810	103.686202
43471	6.303561	-0.200322	0.473064	0.251546	0.164715	-1.801593	-10.531886	-83.574327	94.674482
43472	16.026175	-1.603804	-0.404656	1.518754	-0.359330	-2.210344	1.706046	-83.877691	83.244230
43473	19.838522	6.774551	8.152579	2.656271	2.235720	-1.914392	11.151303	-82.478133	75.270650
43474	6.770468	2.302685	7.978815	0.055609	2.656544	-1.523181	14.663575	-80.797888	71.758734
43475	8.836969	1.877334	5.278599	-0.135271	-0.212117	-1.707504	20.517554	-80.617140	65.753977
43476	12.259545	2.412011	2.438856	-0.315266	1.165425	-1.683055	24.015216	-79.632407	62.026046
43477	9.770151	0.063989	1.077626	-0.047082	0.934316	-1.581646	27.067868	-78.757605	58.896452
43478	11.827112	1.511327	1.086692	0.226768	0.725932	-1.391569	29.654439	-78.011824	56.394066
43479	9.689746	1.841663	2.436545	0.415689	0.949846	-1.289634	31.528707	-77.166526	54.724410
43480	10.554391	2.365819	3.086593	0.123167	0.608509	-1.195266	33.276820	-76.504267	53.007205
43481	10.261235	1.813892	2.258045	0.161907	0.633412	-1.097840	34.669733	-75.851045	51.673887
43482	9.331099	1.865090	2.587177	0.159953	0.603371	-1.068062	35.927072	-75.214432	50.475652
43483	9.505873	1.643770	2.150659	0.128574	0.458953	-1.053111	37.222567	-74.642962	49.215934
43484	9.360166	1.909527	2.474590	0.250186	0.459802	-1.054974	38.496615	-74.063160	48.047378
43485	8.891193	1.836562	2.507797	0.099100	0.415690	-1.065763	39.670654	-73.492568	46.889459
43486	9.152659	1.768958	2.096913	0.180713	0.340794	-1.073106	40.914725	-72.945200	45.703890
43487	9.122650	2.282224	2.564492	0.178211	0.371200	-1.093493	42.072580	-72.370073	44.603566
43488	12.002528	2.090625	3.163539	0.121836	0.064722	-1.195734	43.625557	-71.876153	43.050884
43489	16.649608	8.006590	5.446954	0.546768	0.103585	-0.773495	44.778500	-71.523928	42.172211
43490	8.812018	2.934215	3.385803	-1.342450	0.544980	-0.234251	43.652924	-71.205777	42.554068
43491	10.946404	0.790737	-0.733434	-0.471081	-0.483265	-0.203986	44.201794	-71.323347	41.695233
43492	9.216311	1.914698	2.155741	0.442606	0.791619	-0.141154	43.708656	-70.939929	42.490105
43493	7.653183	3.387830	4.960261	0.017312	0.028669	-0.187280	43.913622	-70.853078	42.289454
43494	9.616740	2.109010	1.949172	-0.742235	-0.264981	-0.194846	44.027937	-70.884073	41.724075
43495	9.715865	1.474360	0.916579	-0.023481	0.046113	-0.152404	44.146385	-70.803587	41.590209
43496	8.976550	2.849630	3.289751	0.050435	0.102725	-0.128906	44.213617	-70.709146	41.555359
43497	9.193652	2.398764	2.565432	-0.352600	-0.104428	-0.124102	44.280611	-70.701646	41.276104
43498	9.451254	1.956970	1.698714	-0.179709	-0.032559	-0.095723	44.330942	-70.675929	41.119423
43499	9.205081	2.322646	2.477996	-0.041656	0.016749	-0.095857	44.404066	-70.629926	41.022401
43500	9.210329	2.435730	2.497529	-0.171128	-0.053233	-0.086253	44.471169	-70.616347	40.853090
43501	9.317488	2.151582	2.069000	-0.176267	-0.048419	-0.067115	44.507649	-70.608445	40.713129
43502	9.205331	2.191981	2.215895	-0.074311	-0.001454	-0.071081	44.553252	-70.579722	40.625397
43503	9.248820	2.411940	2.424319	-0.098642	-0.032205	-0.064090	44.611899	-70.566352	40.509058
43504	9.378870	2.234181	2.144518	-0.136362	-0.038808	-0.050041	44.639966	-70.561281	40.402203
43505	9.277928	2.232238	2.138834	-0.064611	-0.001135	-0.036276	44.650412	-70.546402	40.357646
43506	9.206507	2.343678	2.356338	-0.058548	-0.001101	-0.030783	44.657734	-70.533699	40.320062
43507	9.229511	2.248827	2.325182	-0.080612	-0.013786	-0.022148	44.657080	-70.529664	40.277548
43508	9.190429	2.248844	2.280359	-0.061948	-0.006151	-0.023768	44.660089	-70.521844	40.242469
43509	9.135491	2.255090	2.393090	-0.068313	-0.006559	-0.035163	44.673206	-70.509621	40.192818
43510	9.092751	2.202929	2.338699	-0.094082	-0.012054	-0.047651	44.691947	-70.494578	40.121515
43511	9.236840	2.323107	2.319433	-0.092104	-0.021318	-0.061895	44.738819	-70.477573	40.021580
43512	9.250680	2.242419	2.229112	-0.094724	-0.020724	-0.059787	44.780793	-70.461130	39.925220
43513	9.120000	2.224383	2.327463	-0.068012	-0.004920	-0.060959	44.821494	-70.437788	39.846458
43514	9.162153	2.355834	2.408011	-0.089234	-0.021047	-0.074013	44.882944	-70.415675	39.732742
43515	9.275499	2.286751	2.232150	-0.123237	-0.031539	-0.077885	44.941237	-70.396235	39.601699
43516	9.236527	2.191978	2.239549	-0.073997	-0.000801	-0.067338	44.980447	-70.368544	39.520830
43517	9.237477	2.343127	2.290667	-0.071982	0.005434	-0.073002	45.020162	-70.336039	39.440652
43518	9.125852	2.276000	2.295374	-0.074892	0.005698	-0.076783	45.061809	-70.301850	39.356617
43519	9.217284	2.364396	2.361548	-0.073043	0.007626	-0.081611	45.107736	-70.264927	39.269161
43520	9.235167	2.320116	2.268653	-0.091512	0.001907	-0.073582	45.140102	-70.233530	39.184833
43521	9.203633	2.312610	2.283302	-0.056742	0.007657	-0.059694	45.170298	-70.205462	39.123985
43522	9.204872	2.370162	2.295871	-0.066120	0.008580	-0.058451	45.192380	-70.177491	39.066020
43523	9.223943	2.318094	2.294303	-0.054975	0.018938	-0.055642	45.206105	-70.146501	39.023737
43524	9.135434	2.339168	2.344995	-0.048816	0.017209	-0.050730	45.219548	-70.118175	38.985478
43525	9.178984	2.357464	2.374639	-0.059679	0.015401	-0.055220	45.233913	-70.088778	38.939632
43526	9.231954	2.357728	2.265155	-0.063187	0.005998	-0.047408	45.247864	-70.066320	38.892062
43527	9.224419	2.345935	2.285768	-0.040594	0.011277	-0.036588	45.256934	-70.046163	38.863469
43528	9.115494	2.341464	2.405911	-0.040598	0.011265	-0.036593	45.265794	-70.025977	38.835072
43529	9.144101	2.356121	2.395746	-0.056743	0.012852	-0.044155	45.272159	-70.002102	38.799503
43530	9.122943	2.322525	2.362821	-0.069089	0.008301	-0.054392	45.287627	-69.975861	38.746692
43531	9.127577	2.341036	2.346913	-0.071557	0.013934	-0.068942	45.311542	-69.941449	38.683394
43532	9.153568	2.377265	2.352121	-0.081762	0.011285	-0.070176	45.333596	-69.907562	38.615821
43533	9.197998	2.384302	2.276115	-0.086303	0.004124	-0.070971	45.361919	-69.876255	38.538803
43534	9.175304	2.364453	2.349016	-0.071906	0.013126	-0.066962	45.383742	-69.842917	38.477462
43535	9.165132	2.373636	2.385273	-0.074313	0.016190	-0.066267	45.400068	-69.808655	38.420512
43536	9.120034	2.343747	2.346989	-0.080889	0.018931	-0.068588	45.411820	-69.772307	38.364391
43537	9.111368	2.334212	2.369600	-0.080719	0.030059	-0.085476	45.429802	-69.724619	38.301735
43538	9.136333	2.372320	2.376606	-0.077162	0.029697	-0.094293	45.459416	-69.673435	38.228813
43539	9.109833	2.381405	2.375073	-0.081438	0.031112	-0.096731	45.487576	-69.620708	38.154821
43540	9.122050	2.390905	2.418743	-0.075231	0.021869	-0.100156	45.532690	-69.570242	38.066491
43541	9.089458	2.458398	2.460364	-0.086454	0.013122	-0.102493	45.583321	-69.522337	37.965400
43542	9.154434	2.413639	2.380209	-0.097053	0.011859	-0.109075	45.635786	-69.472177	37.855818
43543	9.147132	2.460000	2.413675	-0.074613	0.027387	-0.105066	45.679626	-69.417443	37.769157
43544	9.105283	2.467328	2.372445	-0.096664	0.022420	-0.104221	45.714853	-69.364989	37.678154
43545	9.153537	2.431526	2.359861	-0.101719	0.026000	-0.101409	45.740162	-69.312272	37.594640
43546	9.186173	2.538124	2.360118	-0.076629	0.026232	-0.083857	45.760610	-69.266623	37.531648
43547	9.131549	2.451709	2.434596	-0.079006	0.014482	-0.067533	45.775218	-69.232398	37.473446
43548	9.148067	2.500648	2.382857	-0.074558	0.015497	-0.066534	45.789933	-69.198138	37.417824
43549	9.186645	2.493533	2.325628	-0.074582	0.008583	-0.050495	45.795323	-69.173259	37.372170
43550	9.132897	2.404999	2.399121	-0.054678	0.023417	-0.052814	45.798307	-69.141466	37.341268
43551	9.128113	2.500522	2.443847	-0.061587	0.019687	-0.060886	45.809917	-69.107882	37.296907
43552	9.135189	2.428003	2.387442	-0.062185	0.018644	-0.064799	45.826127	-69.073067	37.247227
43553	9.100515	2.511353	2.443840	-0.056093	0.013101	-0.067010	45.854142	-69.039586	37.188652
43554	9.130557	2.509709	2.419323	-0.056591	0.009868	-0.063600	45.881483	-69.008750	37.130462
43555	9.153190	2.439270	2.401219	-0.042232	0.012582	-0.051333	45.901461	-68.981906	37.088979
43556	9.060966	2.549053	2.492497	-0.041660	0.007871	-0.055213	45.930576	-68.955300	37.038032
43557	9.096160	2.508505	2.436994	-0.061953	-0.005588	-0.058266	45.965690	-68.932827	36.968207
43558	9.148109	2.523221	2.431935	-0.050117	-0.009805	-0.052264	46.005616	-68.914451	36.900465
43559	9.112354	2.560379	2.383222	-0.044872	-0.011722	-0.040635	46.038690	-68.901654	36.843299
43560	9.055213	2.508831	2.483294	-0.041482	-0.008774	-0.040261	46.069946	-68.887791	36.790142
43561	9.115939	2.518845	2.444496	-0.062756	-0.015689	-0.052700	46.109308	-68.871566	36.715241
43562	9.167490	2.542477	2.348112	-0.057823	-0.011422	-0.055102	46.149140	-68.852599	36.642838
43563	9.084307	2.512145	2.457435	-0.046364	-0.002713	-0.038823	46.169632	-68.836928	36.598225
43564	9.104455	2.532052	2.479494	-0.064050	-0.010284	-0.052134	46.201474	-68.818711	36.530547
43565	9.166816	2.532392	2.335335	-0.060366	-0.007032	-0.045832	46.225603	-68.801838	36.473417
43566	9.116950	2.548430	2.430134	-0.043963	0.005992	-0.031925	46.230807	-68.785513	36.446642
43567	9.092645	2.552075	2.425020	-0.053161	-0.009116	-0.031675	46.246739	-68.775317	36.402722
43568	9.147615	2.545781	2.404736	-0.043645	-0.005926	-0.025709	46.258438	-68.766282	36.369171
43569	9.079435	2.524597	2.462675	-0.036576	0.000719	-0.026954	46.268533	-68.754140	36.341702
43570	9.058882	2.562270	2.454062	-0.045398	-0.009384	-0.029503	46.286728	-68.744898	36.300099
43571	9.110316	2.521991	2.436476	-0.047536	-0.011743	-0.030649	46.307525	-68.736152	36.254404
43572	9.103690	2.508675	2.454981	-0.035717	-0.003284	-0.032876	46.328147	-68.723089	36.216143
43573	9.088954	2.562322	2.428049	-0.045044	-0.010105	-0.040111	46.358162	-68.709761	36.162081
43574	9.086926	2.511918	2.416479	-0.036538	-0.000315	-0.043493	46.385834	-68.691107	36.115740
43575	9.078534	2.571791	2.462665	-0.043713	-0.005199	-0.041639	46.412824	-68.675188	36.065732
43576	9.031879	2.506027	2.423856	-0.040531	0.001365	-0.039996	46.432768	-68.657307	36.025220
43577	9.045006	2.573676	2.582485	-0.041918	-0.002772	-0.054391	46.470954	-68.635119	35.964281
43578	9.082556	2.524712	2.419572	-0.064144	-0.016243	-0.060074	46.516165	-68.615822	35.882097
43579	9.105883	2.580048	2.438252	-0.046098	-0.009314	-0.057329	46.561645	-68.594955	35.810735
43580	9.104717	2.583900	2.438527	-0.050164	-0.011944	-0.053070	46.603039	-68.576833	35.741233
43581	9.120526	2.580230	2.372167	-0.043468	-0.010289	-0.051522	46.645033	-68.558731	35.675216
43582	9.070573	2.596298	2.466285	-0.037750	-0.002857	-0.043414	46.674055	-68.541026	35.626629
43583	9.080505	2.576780	2.418444	-0.048826	-0.007468	-0.046646	46.704954	-68.523821	35.569221
43584	9.103004	2.578070	2.425270	-0.034269	-0.001685	-0.043654	46.734841	-68.505536	35.521837
43585	9.014515	2.593557	2.473737	-0.037035	-0.009784	-0.040019	46.768207	-68.491985	35.469025
43586	9.068256	2.536294	2.440923	-0.045002	-0.001301	-0.049667	46.797395	-68.471019	35.415772
43587	9.125788	2.567121	2.418345	-0.035334	0.004866	-0.053016	46.828999	-68.446274	35.365885
43588	9.045196	2.580114	2.434275	-0.039212	-0.000960	-0.057981	46.869205	-68.421677	35.304335
43589	9.026733	2.591659	2.501851	-0.035169	0.001647	-0.062253	46.913240	-68.394305	35.241164
43590	9.042795	2.642342	2.448512	-0.046867	-0.008730	-0.060714	46.959722	-68.371570	35.168123
43591	9.085351	2.608858	2.463887	-0.037126	-0.009063	-0.055983	47.007514	-68.350972	35.099683
43592	9.081498	2.631889	2.479314	-0.037134	-0.009080	-0.055991	47.055057	-68.330310	35.031479
43593	9.076338	2.611816	2.391173	-0.039991	-0.015397	-0.051735	47.103508	-68.313924	34.960545
43594	9.058380	2.622563	2.457553	-0.030611	-0.009911	-0.053056	47.152586	-68.294775	34.894696
43595	9.103512	2.633412	2.379069	-0.044416	-0.012267	-0.053540	47.196774	-68.276370	34.825602
43596	9.125874	2.635538	2.385609	-0.031173	-0.000949	-0.049887	47.232790	-68.255029	34.773449
43597	9.060466	2.649666	2.440745	-0.031607	0.000531	-0.055201	47.272248	-68.230916	34.717332
43598	9.093657	2.630105	2.399162	-0.034829	0.000010	-0.057001	47.311889	-68.206180	34.659002
43599	9.083667	2.637706	2.433632	-0.030698	0.006537	-0.054050	47.344218	-68.180194	34.611104
43600	9.102859	2.659248	2.456666	-0.026775	0.010962	-0.057681	47.377392	-68.150896	34.564691
43601	9.091682	2.677690	2.400966	-0.029998	0.010438	-0.059483	47.411071	-68.121087	34.515752
43602	9.127232	2.639706	2.345360	-0.023975	0.022938	-0.054089	47.429605	-68.088643	34.486826
43603	9.044050	2.660960	2.469031	-0.000144	0.030464	-0.059585	47.459284	-68.051019	34.460616
43604	9.033350	2.669523	2.504736	-0.018124	0.017205	-0.062306	47.494887	-68.017315	34.416885
43605	9.036720	2.637354	2.476045	-0.015234	0.017392	-0.066465	47.535975	-67.981829	34.369032
43606	9.002342	2.648311	2.505034	-0.014783	0.014888	-0.077741	47.590383	-67.942470	34.307057
43607	9.037609	2.666063	2.461632	-0.021428	0.011717	-0.087939	47.653946	-67.900054	34.231093
43608	9.040587	2.689250	2.445397	-0.026346	0.012001	-0.094319	47.720015	-67.854734	34.149342
43609	9.031656	2.629472	2.452722	-0.022507	0.021498	-0.114646	47.797434	-67.797157	34.057694
43610	9.059970	2.688273	2.441029	-0.025251	0.022725	-0.128488	47.884410	-67.733117	33.953970
43611	9.093680	2.710673	2.398466	-0.017285	0.019357	-0.135558	47.985650	-67.667364	33.839727
43612	8.911939	2.751695	2.602187	0.013872	0.014635	-0.125975	48.099923	-67.607356	33.730629
43613	9.004829	2.697390	2.507972	-0.037829	-0.023703	-0.157646	48.253087	-67.548442	33.547382
43614	9.251279	2.723869	2.229780	-0.012188	-0.020177	-0.167851	48.425611	-67.483553	33.358986
43615	9.042517	2.787661	2.440177	0.043910	0.008220	-0.158937	48.591890	-67.411569	33.212077
43616	8.951045	2.802478	2.577888	0.016446	-0.012999	-0.167037	48.770554	-67.343887	33.034613
43617	9.059833	2.851666	2.440605	0.015260	-0.024157	-0.165494	48.957777	-67.280929	32.847068
43618	9.059757	2.794675	2.409412	0.040411	-0.025546	-0.146315	49.142527	-67.226488	32.677734
43619	8.987977	2.888906	2.489101	0.036983	-0.010035	-0.141113	49.304010	-67.168374	32.531454
43620	9.110775	2.893601	2.484633	0.019568	-0.016401	-0.140038	49.460218	-67.112873	32.379993
43621	9.096809	2.644237	2.183078	-0.009266	-0.014177	-0.201103	49.650560	-67.029813	32.173472
43622	8.979829	2.941975	2.558475	0.112389	0.050678	-0.196705	49.838366	-66.924328	32.045281
43623	8.918723	2.913995	2.566248	0.003596	-0.023562	-0.217811	50.057059	-66.836858	31.815652
43624	9.082443	2.729226	2.269292	0.066463	0.003562	-0.243394	50.303840	-66.727734	31.594469
43625	9.026646	2.981774	2.485108	0.113832	0.025723	-0.256701	50.564228	-66.604344	31.387849
43626	9.006685	2.987163	2.428818	0.086507	0.006794	-0.274257	50.840371	-66.479574	31.146777
43627	9.062705	2.877809	2.259185	0.131989	0.013040	-0.305258	51.159070	-66.338335	30.887477
43628	9.119938	2.928144	2.290604	0.220430	0.046874	-0.344808	51.522385	-66.166592	30.634469
43629	9.050564	3.146432	2.329088	0.261906	0.084156	-0.390593	51.903891	-65.960461	30.387204
43630	9.076665	3.053363	2.352812	0.305203	0.098678	-0.462943	52.346448	-65.715688	30.099766
43631	9.143836	3.110341	2.410578	0.428037	0.139317	-0.552386	52.879416	-65.415167	29.789725
43632	9.010760	3.216604	2.447565	0.496526	0.158080	-0.621129	53.473433	-65.075327	29.454859
43633	9.118699	3.292036	2.514520	0.548251	0.126269	-0.678970	54.157498	-64.718063	29.052349
43634	9.687290	2.961894	2.472764	0.664533	0.001636	-0.772729	55.079191	-64.355882	28.459228
43635	9.414796	2.969809	2.250466	0.874407	0.031178	-0.874038	56.137786	-63.932013	27.845660
43636	9.234036	3.687457	2.523119	1.007422	0.045721	-0.953956	57.281801	-63.460105	27.219458
43637	8.791563	3.509331	2.540422	0.940054	-0.031781	-1.026299	58.474684	-62.971285	26.492660
43638	9.034357	3.623828	2.308979	0.993443	-0.057967	-1.118904	59.741149	-62.437576	25.714159
43639	9.028009	3.859799	2.387684	1.069071	-0.036943	-1.212756	61.042322	-61.843451	24.941412
43640	8.920875	4.239404	2.673973	0.982924	0.026416	-1.262824	62.218914	-61.199017	24.249749
43641	9.028791	4.447461	2.562676	0.853118	-0.000748	-1.352931	63.348481	-60.509433	23.522335
43642	9.029740	4.795760	2.485320	0.617499	0.155741	-1.381041	64.176345	-59.759666	22.981957
43643	8.972637	4.718175	2.529064	0.460428	0.115706	-1.423730	64.935425	-58.994156	22.412752
43644	8.818722	4.770411	2.114268	0.320445	0.200572	-1.477577	65.533129	-58.176740	21.933905
43645	8.824800	4.567246	2.212370	0.360663	0.165721	-1.539452	66.178728	-57.332628	21.421353
43646	8.825440	4.880398	2.282770	0.382500	0.235644	-1.610843	66.777125	-56.431957	20.975061
43647	8.811809	5.000718	2.513063	0.382155	0.237032	-1.641042	67.357875	-55.512744	20.545095
43648	8.724871	4.848330	2.749343	0.390861	0.282009	-1.678772	67.896138	-54.561264	20.168207
43649	8.042045	4.945164	2.132341	0.437007	0.257192	-1.737037	68.472591	-53.582200	19.772249
43650	8.372117	5.382447	2.212519	0.573855	0.066518	-1.787415	69.250359	-52.612749	19.217617
43651	8.213653	5.264388	2.671792	0.540199	0.053115	-1.853094	70.002703	-51.606532	18.663391
43652	8.029407	5.890266	1.882408	0.642829	0.032201	-1.928246	70.812859	-50.559022	18.102531
43653	7.581191	6.956352	1.958546	0.722734	-0.014088	-2.022190	71.684685	-49.464222	17.512222
43654	8.184765	6.381454	2.385586	0.465212	-0.244695	-2.040131	72.521116	-48.394489	16.763561
43655	9.812446	6.402985	2.165221	0.540634	-0.167372	-2.049036	73.317685	-47.300175	16.114276
43656	8.915379	6.823525	2.611088	0.505807	0.187240	-1.986559	73.844636	-46.177616	15.796121
43657	7.235899	6.381840	1.703447	0.523169	0.065532	-2.027688	74.436500	-45.049628	15.394967
43658	7.970889	7.082287	1.841072	0.539255	0.027351	-2.050274	75.038982	-43.911791	14.983854
43659	7.753263	6.871716	1.913215	0.488806	0.055918	-2.060405	75.577026	-42.761608	14.615866
43660	7.413624	7.034216	1.684079	0.524421	0.074768	-2.072629	76.107782	-41.599265	14.281031
43661	6.840879	7.295915	1.444459	0.530106	0.022499	-2.092833	76.650979	-40.430764	13.924413
43662	6.424860	7.724689	1.360930	0.526243	-0.077760	-2.102108	77.220726	-39.267197	13.514319
43663	6.371574	7.873930	1.428692	0.413865	-0.181269	-2.079511	77.750728	-38.126470	13.054590
43664	4.990835	7.697524	0.418552	0.397171	-0.268259	-2.106785	78.291314	-36.977178	12.549953
43665	3.991347	8.199386	0.174839	0.419150	-0.562039	-2.173766	78.950315	-35.819641	11.853377
43666	3.566994	8.712073	-0.176117	0.325917	-1.011181	-2.236066	79.711816	-34.667490	10.866839
43667	4.191961	8.712162	-0.126730	0.207370	-1.423089	-2.292398	80.531916	-33.513209	9.625658
43668	4.925554	8.992812	0.219645	0.130987	-1.588691	-2.307124	81.329108	-32.350946	8.307432
43669	4.271846	9.732641	0.321522	0.161943	-1.577097	-2.383905	82.102005	-31.129293	7.025406
43670	3.170441	11.166945	0.620245	0.233511	-1.456786	-2.554806	82.840193	-29.787119	5.843938
43671	2.377146	12.289933	1.121291	0.199920	-1.314158	-2.783083	83.480603	-28.293232	4.772435
43672	1.716624	13.243038	1.254874	0.040533	-1.154671	-3.028833	83.949463	-26.640361	3.818152
43673	4.259815	13.973214	1.830818	-0.033814	-1.065884	-3.116157	84.317088	-24.926201	2.941630
43674	7.196156	12.825477	2.154597	-0.447402	-0.822239	-2.704601	84.345001	-23.430394	2.260896
43675	8.537078	10.505021	1.221427	-0.335393	-0.566472	-2.023642	84.342615	-22.308059	1.787153
43676	9.048533	10.143578	1.687092	-0.008006	0.064179	-1.195260	84.355558	-21.622651	1.754808
43677	7.765858	10.863745	2.501996	0.161617	0.481463	-0.448213	84.355414	-21.339661	2.023476
43678	6.108726	11.837487	2.750661	0.066359	0.753100	0.096142	84.228605	-21.351275	2.491239
43679	4.090098	12.469160	2.722667	-0.007306	0.928578	0.397394	84.012727	-21.523085	3.085689
43680	1.920927	13.087303	2.699673	-0.130323	1.049641	0.419562	83.696092	-21.697425	3.757424
43681	0.086515	13.552385	2.620431	-0.279965	1.015001	0.177879	83.306163	-21.732576	4.392654
43682	-0.910025	13.830561	2.542196	-0.490091	0.863759	-0.298488	82.843940	-21.502832	4.899830
43683	-1.097376	13.570312	1.998243	-0.659331	0.711148	-0.891202	82.339976	-20.943358	5.263558
43684	-0.741238	13.075440	1.487802	-0.698771	0.566733	-1.470562	81.867728	-20.063855	5.484252
43685	0.264707	12.465880	1.138317	-0.686358	0.374398	-1.918912	81.460929	-18.944042	5.541241
43686	1.645287	11.922846	0.861071	-0.622978	0.183916	-2.204097	81.137883	-17.679455	5.450610
43687	2.950287	11.368913	0.870537	-0.499532	0.031080	-2.325820	80.915172	-16.359351	5.252537
43688	4.289331	11.018501	1.010587	-0.359324	-0.059954	-2.311946	80.783273	-15.056691	4.999333
43689	5.349185	10.877148	1.377333	-0.172344	-0.022208	-2.198219	80.745142	-13.814543	4.778513
43690	5.946502	11.203578	2.021187	0.004709	0.129592	-2.026767	80.779687	-12.656098	4.663147
43691	6.006880	11.575062	2.628644	0.077415	0.304919	-1.864188	80.829047	-11.572918	4.665821
43692	5.956385	11.911284	2.948599	0.105394	0.507905	-1.738461	80.869515	-10.542917	4.797996
43693	5.649751	11.938621	3.231801	0.084964	0.720644	-1.646218	80.877857	-9.545443	5.060930
43694	5.151057	11.667318	2.945492	0.048429	0.878181	-1.597471	80.854898	-8.561558	5.417685
43695	4.601978	11.588673	2.871383	0.077074	1.001632	-1.573352	80.844386	-7.579759	5.845993
43696	4.192544	11.557096	2.938903	0.053569	1.022748	-1.572617	80.826316	-6.596549	6.285168
43697	4.108767	11.539999	2.945212	0.020441	1.018947	-1.578792	80.797166	-5.609952	6.720342
43698	4.208477	11.413484	3.150538	-0.046584	1.017404	-1.583208	80.737354	-4.620726	7.152718
43699	4.469784	11.087428	3.247794	-0.154772	1.029170	-1.565856	80.622432	-3.639657	7.591265
43700	4.867981	10.721793	3.241537	-0.252788	1.061004	-1.489654	80.457547	-2.697498	8.052147
43701	5.230562	10.392396	3.234982	-0.349129	1.116896	-1.343815	80.242899	-1.831126	8.555157
43702	5.588988	10.015545	3.268343	-0.448311	1.185173	-1.140165	79.977339	-1.070588	9.112912
43703	5.914852	9.581022	3.211690	-0.554665	1.270201	-0.871655	79.656366	-0.450574	9.741753
43704	6.073478	9.065380	2.936052	-0.653753	1.360384	-0.562712	79.284490	0.009202	10.449969
43705	6.040272	8.584548	2.604215	-0.712703	1.428326	-0.215077	78.883228	0.284674	11.230936
43706	5.665192	8.484183	2.376830	-0.703712	1.515605	0.160887	78.490389	0.365000	12.101348
43707	4.796458	8.684346	2.390610	-0.747308	1.600850	0.517805	78.072450	0.259992	13.060424
43708	3.927339	8.573827	2.200607	-0.860509	1.558276	0.739626	77.587307	0.034333	14.023327
43709	2.966997	8.462298	1.901799	-0.906494	1.567665	0.845514	77.071071	-0.242307	15.006599
43710	2.384167	8.314555	1.737653	-0.961820	1.465653	0.860216	76.519133	-0.529929	15.937555
43711	2.137500	7.800491	1.375288	-0.997429	1.318923	0.870713	75.942365	-0.835738	16.790986
43712	2.080969	7.407465	1.234331	-0.988764	1.105691	0.938831	75.367983	-1.199519	17.538924
43713	2.239374	6.690588	1.065293	-1.058512	0.799870	1.091782	74.751142	-1.686969	18.143838
43714	2.836328	6.045043	0.783466	-1.047307	0.476749	1.299771	74.140239	-2.330740	18.607749
43715	3.964995	5.874864	1.171815	-0.916627	0.210237	1.596487	73.602114	-3.177303	18.978638
43716	4.926465	5.885024	1.940478	-0.947742	0.023077	1.965099	73.042662	-4.251628	19.315903
43717	5.416708	5.754063	2.313739	-1.052043	0.018387	2.320362	72.410074	-5.519523	19.722831
43718	5.065431	5.466329	2.168725	-1.119866	0.250153	2.536967	71.710414	-6.857831	20.311090
43719	3.840775	5.012304	1.468146	-1.149330	0.455615	2.644613	70.959711	-8.211603	21.050336
43720	2.638394	4.526379	0.648352	-1.128672	0.479662	2.698161	70.197285	-9.577726	21.833719
43721	2.208884	4.025531	-0.115492	-1.034265	0.260895	2.774244	69.484250	-11.020226	22.533744
43722	2.176786	3.826755	-0.335673	-0.848688	-0.040822	2.917336	68.883641	-12.590460	23.118984
43723	2.358429	3.584719	0.039030	-0.736047	-0.383612	3.044514	68.363449	-14.296868	23.562928
43724	2.524509	3.395440	0.209441	-0.655047	-0.522516	3.065672	67.891255	-16.037958	23.953806
43725	2.491649	3.265708	0.390436	-0.533416	-0.494016	2.994659	67.471896	-17.734717	24.361790
43726	2.572102	3.029953	0.430630	-0.446405	-0.439722	2.907573	67.083324	-19.368147	24.796170
43727	2.916052	2.910243	0.378459	-0.384316	-0.457786	2.890185	66.717536	-20.996305	25.232022
43728	3.297364	2.945781	0.445945	-0.305622	-0.565256	2.951926	66.396990	-22.676357	25.637552
43729	3.168863	3.408433	0.920965	-0.233119	-0.613658	2.994272	66.107175	-24.390440	26.040852
43730	2.789021	3.829528	1.342215	-0.327322	-0.654660	2.958371	65.760302	-26.090556	26.427163
43731	2.738994	3.760244	1.092752	-0.440369	-0.711395	2.861040	65.356385	-27.753774	26.772516
43732	3.441563	3.362342	0.950004	-0.480345	-0.813383	2.806375	64.948480	-29.408153	27.061153
43733	4.567936	2.997172	0.923689	-0.502257	-0.926899	2.851038	64.538619	-31.114382	27.312878
43734	5.715171	2.842628	0.987282	-0.494460	-1.054437	3.000187	64.135270	-32.924890	27.549456
43735	6.415863	3.169901	1.282566	-0.479874	-1.101986	3.203021	63.703534	-34.853224	27.839160
43736	5.799135	3.863064	1.731727	-0.497443	-1.086627	3.348680	63.206283	-36.847300	28.210713
43737	5.106920	4.583237	2.300800	-0.654336	-1.160171	3.383803	62.609071	-38.878654	28.580559
43738	5.206309	4.828656	2.586921	-0.884103	-1.293431	3.364945	61.905282	-40.929399	28.896348
43739	5.651776	4.901788	2.979654	-1.083620	-1.308249	3.336435	61.059957	-42.969559	29.239081
43740	6.039533	4.655026	2.830615	-1.320492	-1.303581	3.315478	60.034293	-44.990337	29.634219
43741	5.948243	4.345422	2.382225	-1.379036	-1.241020	3.280923	58.893168	-46.973323	30.128699
43742	6.027697	4.255729	2.170306	-1.435022	-1.273151	3.223041	57.687460	-48.927120	30.652280
43743	6.809322	3.949779	1.858606	-1.445339	-1.410582	3.217263	56.478560	-50.916338	31.155912
43744	7.730657	4.006700	2.075904	-1.342775	-1.511636	3.269405	55.287730	-52.952319	31.697960
43745	7.637526	4.344204	2.551083	-1.263280	-1.476263	3.295261	54.013794	-54.984307	32.383871
43746	7.247692	4.648319	2.716190	-1.202970	-1.441436	3.209990	52.684413	-56.952223	33.162646
43747	6.846092	4.492331	2.309137	-1.104490	-1.404773	3.061993	51.344606	-58.832981	34.002680
43748	6.925821	4.578622	2.430209	-0.892229	-1.402858	2.881598	50.113435	-60.619271	34.842464
43749	7.558355	4.472989	2.487119	-0.734250	-1.425850	2.734625	48.968067	-62.344094	35.672485
43750	7.705295	4.764340	2.804710	-0.474805	-1.361025	2.612063	47.890694	-63.980525	36.580997
43751	7.247561	5.239762	3.244745	-0.296160	-1.268529	2.432149	46.856448	-65.500521	37.542149
43752	7.021399	5.573117	3.585038	-0.135280	-1.179931	2.189583	45.931833	-66.874509	38.473940
43753	7.212746	5.423279	3.556604	-0.075467	-1.104447	1.947482	45.092686	-68.116212	39.340620
43754	7.516126	5.417400	3.380025	0.165272	-1.004703	1.742778	44.413450	-69.227312	40.177245
43755	7.989561	5.930798	3.925552	0.315263	-0.975688	1.582336	43.887943	-70.261918	40.935100
43756	8.689760	6.854896	4.714923	0.499612	-0.914472	1.436988	43.510897	-71.208802	41.643483
43757	9.557973	7.693322	5.985352	0.405755	-0.787953	1.311668	43.028475	-72.054355	42.401948
43758	9.696147	7.517827	5.457308	0.126887	-0.676365	1.196206	42.343923	-72.803144	43.201942
43759	9.574446	7.237964	4.594951	0.209419	-0.473533	1.085504	41.538346	-73.421949	44.174429
43760	9.214396	7.538374	4.783493	0.302022	-0.364766	0.986100	40.731191	-73.950272	45.201398
43761	9.342964	7.380909	4.717767	0.168905	-0.388860	0.903784	39.943627	-74.456209	46.125707
43762	9.365674	6.513139	3.979362	0.124467	-0.344714	0.836203	39.128752	-74.912740	47.050150
43763	9.063363	6.065211	3.557803	0.282645	-0.260210	0.781493	38.329047	-75.309757	48.050518
43764	8.579689	6.640615	4.045682	0.416672	-0.157754	0.666984	37.624554	-75.615372	49.030551
43765	8.307201	6.880031	4.518781	0.293429	-0.182928	0.521864	37.109320	-75.880397	49.740975
43766	8.748444	6.747222	4.316128	0.157340	-0.208770	0.380425	36.793406	-76.106212	50.165079
43767	9.118630	6.994372	4.608530	0.120003	-0.119790	0.244067	36.575457	-76.244691	50.465774
43768	9.285466	6.790618	4.555444	-0.094236	-0.096026	0.129933	36.414244	-76.332390	50.581729
43769	9.376123	6.224841	4.021751	-0.213914	-0.026635	0.048628	36.239618	-76.360735	50.640814
43770	9.205751	5.688713	3.733646	-0.305613	0.066251	-0.001606	35.979469	-76.328715	50.733923
43771	8.836697	4.830333	2.995849	-0.464993	0.078111	-0.004935	35.618852	-76.290025	50.836448
43772	8.328246	3.765220	1.769309	-0.444156	0.130067	-0.022936	35.235561	-76.220867	50.974645
43773	7.769849	2.886844	0.921993	-0.280880	0.206075	-0.076433	34.949046	-76.098190	51.109610
43774	4.065449	1.287408	0.231884	0.201626	0.201255	-0.494881	35.727307	-75.839302	50.432090
43775	14.913148	-0.148613	-1.241110	0.340976	-2.511428	-2.385259	43.812922	-76.070718	42.305193
43776	24.107000	7.809577	2.473088	2.459275	-0.221278	-1.599216	48.100216	-75.499311	39.341759
43777	15.767118	7.498673	6.031628	-0.029081	1.317208	-0.645569	46.934776	-74.716044	40.536148
43778	7.800386	0.943560	0.414226	-0.975176	0.322166	-0.344962	46.384760	-74.444877	40.532737
43779	7.690964	-1.174554	-2.815677	0.219328	0.370143	-0.575949	46.773577	-74.058540	40.265087
43780	8.453411	0.872353	1.420988	1.241862	0.738470	-0.907695	47.635602	-73.388741	40.113982
43781	16.343004	6.626436	7.635115	1.297257	0.338648	-0.921416	49.062738	-72.864625	39.405166
43782	7.885069	6.474716	6.680825	-0.371758	1.185445	-0.092650	47.348820	-72.371620	40.983567
43783	7.081679	1.536128	3.510251	-1.065721	-0.910974	-0.090812	48.081108	-72.683256	39.581543
43784	11.023772	1.191146	-1.107830	-0.656568	-0.209522	-0.185168	48.222542	-72.683597	39.045038
43785	10.054232	1.714141	0.973998	0.388527	0.151121	-0.066571	48.324524	-72.596495	39.177239
43786	8.912797	3.108699	3.379628	-0.020066	0.124604	-0.071998	48.234592	-72.517475	39.265149
43787	8.891715	1.598490	1.625162	-0.341746	-0.121976	-0.166784	48.410847	-72.491548	38.880865
43788	9.829973	2.291361	1.645360	0.055273	0.080810	-0.122077	48.483448	-72.407776	38.843631
43789	8.945343	2.402624	2.520486	-0.143071	0.064815	-0.119116	48.461261	-72.331065	38.786725
43790	9.591935	2.142454	1.588215	-0.234387	-0.005937	-0.123341	48.485605	-72.279698	38.625911
43791	9.480008	2.022536	1.561220	-0.074330	0.113991	-0.130439	48.449970	-72.179441	38.624442
43792	9.046346	2.380695	2.364327	-0.076515	0.067586	-0.138694	48.483496	-72.093562	38.548864
43793	9.275116	2.311494	2.205970	-0.211698	0.051054	-0.155837	48.482176	-72.006312	38.428590
43794	9.354993	2.195536	1.807214	-0.195646	0.032097	-0.159692	48.517823	-71.924883	38.278925
43795	9.344623	2.271401	1.767835	-0.134145	0.091638	-0.150286	48.499983	-71.824593	38.222669
43796	9.231134	2.277573	2.115736	-0.121100	0.103671	-0.152592	48.475345	-71.719040	38.181276
43797	9.267813	2.328198	2.077131	-0.186030	0.093675	-0.164848	48.441461	-71.611749	38.110538
43798	9.307926	2.207185	1.944897	-0.192982	0.106123	-0.180076	48.403676	-71.493499	38.039535
43799	9.376218	2.232185	1.868158	-0.165254	0.149351	-0.186144	48.334428	-71.355932	38.018564
43800	9.210243	2.327782	2.051435	-0.100064	0.174252	-0.183753	48.267693	-71.210190	38.034227
43801	9.142596	2.446004	2.252658	-0.136569	0.138973	-0.180976	48.222661	-71.078815	38.005001
43802	9.242895	2.350456	2.096147	-0.175908	0.121686	-0.180745	48.175376	-70.954425	37.954166
43803	9.245238	2.324462	1.959045	-0.133468	0.144627	-0.171754	48.115239	-70.824833	37.942764
43804	9.220644	2.396124	2.267518	-0.125471	0.151071	-0.179952	48.060084	-70.689567	37.930791
43805	9.223068	2.357488	2.025978	-0.159476	0.146427	-0.184035	47.996833	-70.554064	37.906876
43806	9.051280	2.408988	2.303014	-0.087615	0.163196	-0.172778	47.941662	-70.417207	37.917913
43807	9.117778	2.633678	2.409884	-0.136408	0.102047	-0.156549	47.915294	-70.310446	37.868834
43808	9.098176	2.369015	2.173514	-0.173261	0.064885	-0.142120	47.895300	-70.224380	37.790381
43809	9.061345	2.472586	2.341289	-0.121694	0.083654	-0.149082	47.890796	-70.127859	37.726966
43810	9.069715	2.504740	2.404451	-0.179761	0.039882	-0.146888	47.900799	-70.049375	37.612560
43811	9.113740	2.410812	2.187901	-0.197809	0.023413	-0.150446	47.923905	-69.975389	37.473291
43812	9.024118	2.502920	2.358199	-0.141701	0.018911	-0.141598	47.973533	-69.907167	37.339809
43813	8.969178	2.560933	2.576424	-0.199179	-0.015073	-0.159102	48.048312	-69.844161	37.144549
43814	9.166417	2.499055	2.172252	-0.267249	-0.051158	-0.167360	48.132819	-69.791657	36.897162
43815	9.296169	2.496185	2.047963	-0.208854	-0.020841	-0.157836	48.205803	-69.731198	36.697763
43816	9.151286	2.450571	2.186424	-0.184286	0.002975	-0.153053	48.258705	-69.663938	36.534565
43817	9.179897	2.591556	2.306932	-0.170599	0.004794	-0.152779	48.317245	-69.595735	36.373785
43818	9.070052	2.507509	2.297129	-0.186794	-0.022444	-0.152985	48.396397	-69.538058	36.180904
43819	9.134282	2.538347	2.241341	-0.177992	-0.032778	-0.150713	48.490257	-69.484865	35.977772
43820	9.194523	2.607530	2.214087	-0.161660	-0.044461	-0.136333	48.590698	-69.442475	35.777405
43821	9.259952	2.565038	2.129972	-0.145540	-0.038445	-0.120429	48.677740	-69.404215	35.601301
43822	9.175039	2.548883	2.148900	-0.111739	-0.024080	-0.107184	48.753040	-69.366456	35.458250
43823	9.208973	2.647698	2.236545	-0.091710	-0.017898	-0.094129	48.820183	-69.331617	35.336288
43824	9.204479	2.608844	2.134334	-0.100185	-0.028518	-0.074824	48.874161	-69.309376	35.223043
43825	9.228699	2.592652	2.126261	-0.078635	-0.002197	-0.072929	48.909248	-69.277700	35.143316
43826	9.180347	2.664582	2.233569	-0.048752	0.001851	-0.055784	48.938724	-69.252197	35.087739
43827	9.148264	2.601331	2.235218	-0.053512	-0.005067	-0.038117	48.956656	-69.236619	35.041726
43828	9.153382	2.618595	2.217638	-0.040475	-0.006831	-0.032302	48.977334	-69.224515	35.000617
43829	9.172713	2.584422	2.227152	-0.037450	-0.008886	-0.029144	48.999851	-69.214243	34.959538
43830	9.187617	2.650300	2.187776	-0.031865	-0.003960	-0.019697	49.009652	-69.206501	34.935336
43831	9.148206	2.588974	2.221898	-0.017194	-0.000054	-0.017424	49.022086	-69.197977	34.917453
43832	9.137418	2.612951	2.270551	-0.017936	-0.003983	-0.011991	49.032248	-69.193574	34.901399
43833	9.148982	2.643586	2.234436	-0.009929	0.004010	-0.003428	49.030370	-69.189578	34.903279
43834	9.149118	2.643194	2.234344	-0.002366	-0.009579	0.008978	49.035093	-69.196349	34.902587
43835	9.114404	2.613558	2.263767	0.000808	-0.013828	0.019460	49.037058	-69.208958	34.906937
43836	9.053906	2.604850	2.302057	-0.001478	-0.013978	0.011008	49.045298	-69.218259	34.903026
43837	9.076678	2.549032	2.294788	-0.010284	-0.019379	-0.000212	49.066711	-69.224437	34.879778
43838	9.088522	2.579894	2.257274	-0.022365	-0.012604	-0.021429	49.093518	-69.219179	34.843210
43839	9.117552	2.594866	2.244734	-0.016970	-0.005070	-0.027245	49.121483	-69.208275	34.808853
43840	9.131048	2.608021	2.193022	-0.021906	-0.009392	-0.024845	49.148215	-69.200320	34.772641
43841	9.153292	2.679941	2.225746	-0.005922	-0.005245	-0.015382	49.170961	-69.194617	34.750635
43842	9.159459	2.632985	2.285343	0.007154	-0.018219	0.007235	49.192764	-69.203867	34.737506
43843	9.129352	2.628101	2.204484	0.001577	-0.028276	0.014441	49.216724	-69.219715	34.718800
43844	9.114148	2.634381	2.268698	0.007448	-0.022635	0.021873	49.229343	-69.236965	34.715677
43845	9.084391	2.566197	2.266917	-0.004534	-0.022788	0.016694	49.241350	-69.251734	34.706013
43846	9.112421	2.597202	2.267794	-0.002353	-0.021841	0.009251	49.259934	-69.263208	34.690507
43847	9.127117	2.607465	2.214294	-0.012559	-0.024665	0.007992	49.278121	-69.274900	34.669319
43848	9.123392	2.644326	2.242812	0.007904	-0.013299	0.018314	49.283854	-69.287114	34.673838
43849	9.043322	2.609258	2.350584	-0.005148	-0.023814	0.012783	49.300616	-69.300566	34.658718
43850	9.127982	2.550878	2.197028	-0.025770	-0.026847	-0.004995	49.325695	-69.307715	34.621931
43851	9.052448	2.604885	2.313677	-0.006766	-0.019625	-0.009046	49.358316	-69.310111	34.588866
43852	9.060978	2.601421	2.277984	-0.030764	-0.043034	-0.010266	49.404431	-69.320989	34.526539
43853	9.127088	2.571350	2.204941	-0.029573	-0.042010	-0.018975	49.459629	-69.327383	34.455378
43854	9.160382	2.620020	2.186839	-0.024645	-0.031563	-0.021516	49.507196	-69.329052	34.395250
43855	9.097381	2.632864	2.239172	-0.027434	-0.039675	-0.017852	49.559876	-69.335025	34.328094
43856	9.165211	2.584721	2.151634	-0.042813	-0.031965	-0.032231	49.608073	-69.332132	34.256170
43857	9.120821	2.634506	2.241571	-0.020257	-0.011680	-0.028861	49.643322	-69.322875	34.212037
43858	9.185336	2.677732	2.197033	-0.037741	-0.040737	-0.018492	49.691040	-69.329199	34.143728
43859	9.246023	2.622450	2.036235	-0.015761	-0.037466	0.006457	49.724039	-69.344907	34.104757
43860	9.162135	2.625071	2.173393	0.007679	-0.026303	0.020553	49.742770	-69.362928	34.095245
43861	9.094316	2.619668	2.244070	-0.003518	-0.029068	0.018044	49.761753	-69.380593	34.078756
43862	9.176504	2.580099	2.104939	-0.010405	-0.022373	0.009097	49.776868	-69.392146	34.062040
43863	9.146901	2.647185	2.248786	0.014210	-0.014908	0.023184	49.784518	-69.406822	34.068512
43864	9.161928	2.655967	2.194767	-0.002482	-0.034313	0.035948	49.791673	-69.434538	34.065152
43865	9.109084	2.588243	2.186567	0.007912	-0.022825	0.035674	49.792628	-69.457607	34.074918
43866	9.086699	2.596901	2.284425	0.004065	-0.024314	0.030004	49.797739	-69.479024	34.077748
43867	9.159031	2.569429	2.087694	-0.017791	-0.028396	0.020967	49.805002	-69.497716	34.065051
43868	9.155646	2.614839	2.222397	0.011608	-0.008254	0.025192	49.800394	-69.511088	34.082870
43869	9.180301	2.601045	2.120875	-0.018065	-0.022974	0.022859	49.799299	-69.528608	34.078931
43870	9.146110	2.570293	2.150331	0.016894	-0.003630	0.028707	49.788780	-69.541808	34.106287
43871	9.130733	2.647718	2.243086	-0.006158	-0.021028	0.028630	49.786501	-69.561139	34.110894
43872	9.166166	2.547952	2.171248	0.008628	-0.018916	0.030231	49.787636	-69.580658	34.120754
43873	9.141155	2.638537	2.205563	0.010584	-0.025230	0.032869	49.795670	-69.603399	34.124590
43874	9.156910	2.574404	2.123817	0.000431	-0.034625	0.039699	49.801174	-69.632872	34.124776
43875	9.172381	2.591663	2.174935	0.022834	-0.029160	0.044673	49.809107	-69.662234	34.136205
43876	9.113354	2.580772	2.211669	0.015920	-0.033339	0.044562	49.817131	-69.693360	34.143168
43877	9.154345	2.567642	2.147419	0.002489	-0.031870	0.032880	49.828392	-69.718562	34.138615
43878	9.167233	2.595097	2.108489	0.016238	-0.015595	0.033590	49.826548	-69.738327	34.156289
43879	9.184462	2.593703	2.145574	0.006977	-0.023260	0.042315	49.820730	-69.764481	34.172683
43880	9.223538	2.598596	2.096760	0.023333	-0.031169	0.057874	49.817031	-69.800633	34.196659
43881	9.135624	2.573323	2.145679	0.038092	-0.033870	0.068139	49.815644	-69.842016	34.227320
43882	9.185409	2.563629	2.153067	0.028841	-0.036785	0.068166	49.811321	-69.884748	34.255311
43883	9.125243	2.497672	2.177617	0.039627	-0.025050	0.073777	49.794411	-69.925337	34.303420
