// General information: 
//  MT Manager version: 2022.2.0 
//  XDA version: 2022.2.0 build 7381 rev 124627 built on 2023-07-19
// Device information: 
//  DeviceId: 00B4BB52
//  ProductCode: MTW2-3A7G6
//  Firmware Version: 4.6.0
//  Hardware Version: 2.0.0
// Device settings: 
//  Filter Profile: human(46.1)
//  Option Flags: Orientation Smoother Disabled, Position/Velocity Smoother Disabled, Continuous Zero Rotation Update Disabled, AHS Disabled, ICC Disabled
// Coordinate system: ENU
PacketCounter	Acc_X	Acc_Y	Acc_Z	Gyr_X	Gyr_Y	Gyr_Z	Roll	Pitch	Yaw
56688	9.093498	1.816246	2.755786	-0.986024	-0.605543	-0.099965	39.153507	-64.172342	47.611235
56689	9.027768	1.670328	2.855625	-1.079840	-0.585472	-0.070616	39.045552	-64.406130	47.050463
56690	9.034136	1.476876	2.912719	-1.096273	-0.604414	-0.051296	38.927454	-64.656042	46.491254
56691	9.129878	1.220965	2.923524	-1.108279	-0.642247	-0.012430	38.800953	-64.937112	45.935312
56692	9.325992	1.288125	3.069130	-1.091717	-0.663843	0.012693	38.680349	-65.237555	45.384293
56693	9.356140	1.164720	3.075619	-1.069425	-0.645476	0.042646	38.535736	-65.540860	44.875394
56694	9.424041	1.227911	3.226833	-1.101728	-0.576646	0.087472	38.276472	-65.830119	44.472865
56695	9.505384	1.184463	3.281192	-1.059870	-0.512689	0.119811	37.960633	-66.102697	44.159719
56696	9.356165	1.362117	3.392553	-0.938959	-0.461495	0.151831	37.639215	-66.364161	43.928719
56697	9.105260	1.712141	3.526673	-0.887563	-0.415538	0.185415	37.275477	-66.616894	43.776697
56698	8.807818	1.871837	3.592297	-0.845951	-0.364531	0.204756	36.870567	-66.853473	43.695463
56699	8.646592	1.956892	3.566814	-0.807676	-0.387736	0.200482	36.509131	-67.099370	43.591198
56700	8.722477	1.724468	3.398514	-0.788174	-0.505631	0.202643	36.249048	-67.400690	43.389126
56701	8.829303	1.491477	3.202798	-0.684337	-0.548264	0.210871	36.075297	-67.724703	43.158681
56702	8.934641	1.668909	3.305990	-0.631521	-0.549249	0.213910	35.929365	-68.050544	42.931203
56703	9.065401	1.296043	3.039699	-0.653795	-0.563878	0.233604	35.762353	-68.389915	42.713396
56704	9.195470	1.119963	3.133719	-0.579703	-0.482237	0.272084	35.522187	-68.704507	42.620108
56705	9.272167	0.925063	3.204385	-0.510498	-0.522966	0.292975	35.330709	-69.045094	42.517497
56706	9.328541	0.752131	3.080562	-0.400876	-0.516320	0.334909	35.142432	-69.396639	42.478722
56707	9.326883	0.921578	3.125228	-0.249149	-0.480539	0.355241	34.982385	-69.738075	42.502801
56708	9.277551	0.794217	2.950040	-0.210140	-0.480556	0.336235	34.865730	-70.073323	42.504302
56709	9.397248	0.619263	2.913714	-0.135963	-0.476356	0.343198	34.777486	-70.408836	42.520860
56710	9.689511	0.733644	2.960237	0.050306	-0.480927	0.352286	34.786566	-70.749503	42.547262
56711	9.825029	0.918746	2.814920	0.157639	-0.485839	0.348646	34.867398	-71.091291	42.562816
56712	9.932141	1.342457	2.657434	0.261707	-0.424652	0.408980	34.865233	-71.424085	42.728891
56713	10.447623	1.382516	2.748269	0.223981	-0.402348	0.446152	34.763282	-71.758521	42.977070
56714	10.464990	0.884769	2.272177	0.216965	-0.228749	0.515243	34.376103	-72.033157	43.520624
56715	10.078118	1.030743	2.434590	0.345203	0.148413	0.543548	33.632963	-72.136106	44.514950
56716	9.372501	1.492095	2.609426	0.304338	0.308525	0.556458	32.682950	-72.161703	45.701619
56717	9.098481	1.369727	2.633654	0.238018	0.154868	0.560545	31.830068	-72.257363	46.745993
56718	9.113102	1.241950	2.577273	0.385746	-0.015588	0.560331	31.210597	-72.432021	47.633435
56719	9.312911	1.458875	2.585039	0.552320	-0.174069	0.542559	30.847736	-72.677012	48.350925
56720	9.539490	1.451334	2.389171	0.505962	-0.262104	0.515524	30.569122	-72.956164	48.951391
56721	9.788118	1.486684	2.283888	0.490648	-0.144509	0.507915	30.167860	-73.174014	49.670110
56722	9.585639	1.656260	2.213798	0.440907	0.070690	0.518316	29.503504	-73.285824	50.633201
56723	9.347917	1.848879	2.400656	0.317102	0.154519	0.536619	28.649535	-73.357165	51.719743
56724	9.284346	1.562987	2.360564	0.172471	0.119268	0.539433	27.731124	-73.442134	52.786591
56725	9.235911	1.475530	2.363941	0.244008	0.089365	0.531448	26.883915	-73.535621	53.821463
56726	9.007944	1.900231	2.416955	0.351691	0.020183	0.515150	26.175744	-73.656302	54.775111
56727	8.970749	2.317647	2.459512	0.268889	-0.139079	0.484361	25.597611	-73.848435	55.543173
56728	9.257129	2.210670	2.437842	0.073540	-0.287442	0.436977	25.102405	-74.103652	56.107598
56729	9.736631	1.819322	2.384204	-0.054566	-0.305541	0.397702	24.604947	-74.357520	56.597437
56730	9.994107	1.172674	2.266393	-0.115017	-0.243640	0.360163	24.074720	-74.568944	57.084725
56731	9.927355	0.778862	2.164188	-0.067975	-0.112236	0.325671	23.514417	-74.702318	57.630815
56732	9.630689	0.853317	2.334004	0.078978	0.013144	0.299835	22.975565	-74.762384	58.241632
56733	9.375202	1.059461	2.372889	0.068697	-0.071595	0.285447	22.523348	-74.862728	58.756406
56734	9.396251	0.951573	2.425577	0.028821	-0.195681	0.283761	22.144260	-75.027401	59.171407
56735	9.490722	0.812085	2.297512	0.073273	-0.221474	0.284522	21.801721	-75.205344	59.574672
56736	9.511480	0.828877	2.244360	0.116253	-0.191068	0.279391	21.460520	-75.365303	60.001641
56737	9.502601	0.912110	2.282950	0.116052	-0.156547	0.282687	21.076965	-75.506917	60.472016
56738	9.480068	0.925023	2.304494	0.064154	-0.131120	0.295804	20.607165	-75.636614	61.000394
56739	9.443747	0.778011	2.287130	0.017770	-0.130717	0.302228	20.088237	-75.766327	61.551797
56740	9.406992	0.780850	2.257487	0.056769	-0.151510	0.303146	19.595379	-75.906122	62.098971
56741	9.086975	0.342780	2.384875	-0.056510	-0.133425	0.228670	19.175933	-76.021003	62.503324
56742	9.415085	0.440693	2.184148	0.022552	-0.166583	0.138738	19.017076	-76.136386	62.685613
56743	9.351857	0.617106	2.256992	0.175739	-0.269424	0.121297	19.060931	-76.304263	62.749490
56744	9.401841	0.701751	2.178662	0.189780	-0.333470	0.105227	19.198331	-76.503719	62.725304
56745	9.494847	0.756381	2.110538	0.130828	-0.376007	0.086372	19.381752	-76.722688	62.619158
56746	9.628497	0.721535	2.021298	0.081846	-0.330080	0.074541	19.530954	-76.914420	62.519377
56747	9.620772	0.736238	1.994650	0.077497	-0.230362	0.070113	19.608549	-77.051523	62.490647
56748	9.682148	0.709667	2.007275	0.043861	-0.176423	0.057386	19.652012	-77.156961	62.477130
56749	9.712288	0.667616	1.918059	0.041606	-0.195640	0.043218	19.745307	-77.270131	62.411240
56750	9.660563	0.683442	1.938039	0.050365	-0.138977	0.051635	19.775339	-77.354257	62.415321
56751	9.621322	0.739679	1.931284	0.037550	-0.054681	0.050230	19.728896	-77.392771	62.490293
56752	9.483523	0.754819	2.001437	0.001976	-0.008913	0.052918	19.615266	-77.406970	62.613171
56753	9.456552	0.729052	2.035276	-0.035610	-0.011102	0.049462	19.490505	-77.421753	62.725429
56754	9.483521	0.594555	2.009590	-0.027263	-0.073465	0.045375	19.433073	-77.469286	62.773547
56755	9.540919	0.570681	1.963184	0.024247	-0.131566	0.042095	19.463317	-77.547700	62.762127
56756	9.600800	0.667444	1.916472	0.076496	-0.145129	0.042175	19.535052	-77.633334	62.738833
56757	9.633863	0.712565	1.957177	0.090513	-0.084921	0.048012	19.548499	-77.687698	62.783479
56758	9.635152	0.799934	1.902606	0.015690	-0.018371	0.051799	19.450603	-77.706711	62.898153
56759	9.620996	0.633380	1.966818	-0.043197	0.001382	0.055143	19.293547	-77.715757	63.038886
56760	9.590685	0.639965	1.882099	-0.011760	0.002293	0.066168	19.125643	-77.726174	63.209102
56761	9.551540	0.661343	1.973233	0.002894	0.053906	0.072707	18.905909	-77.709865	63.441004
56762	9.494133	0.676598	1.945258	-0.000091	0.034688	0.068691	18.710823	-77.702925	63.645892
56763	9.482432	0.627278	2.049904	-0.035501	0.002289	0.065210	18.531826	-77.712933	63.813596
56764	9.520927	0.563120	1.942691	-0.005054	-0.019675	0.065638	18.386751	-77.734718	63.964379
56765	9.510200	0.606050	1.994362	0.015129	-0.020674	0.054675	18.281429	-77.755136	64.086349
56766	9.482443	0.612618	1.976202	0.007393	-0.021492	0.044563	18.196982	-77.774007	64.182369
56767	9.484055	0.637951	1.993552	-0.016946	0.004838	0.038613	18.092003	-77.777583	64.285168
56768	9.469217	0.594780	1.993269	-0.027452	0.001445	0.028736	18.008194	-77.781082	64.360101
56769	9.399923	0.572306	2.027754	-0.027478	-0.039220	0.024524	17.968505	-77.806113	64.389919
56770	9.484658	0.539052	2.000732	0.002035	-0.094128	0.012894	18.019741	-77.858873	64.343973
56771	9.544432	0.607202	1.972624	0.040061	-0.136224	0.013393	18.127316	-77.934768	64.262741
56772	9.587227	0.638491	1.872482	0.036444	-0.137968	0.006504	18.252778	-78.010216	64.161084
56773	9.618243	0.657163	1.860031	0.016973	-0.109083	0.016656	18.318016	-78.071870	64.109649
56774	9.619749	0.625115	1.868716	-0.011458	-0.050801	0.018950	18.311316	-78.102099	64.115057
56775	9.549537	0.604325	1.868068	-0.030034	-0.007312	0.024752	18.242135	-78.109847	64.173479
56776	9.565821	0.579180	1.935868	-0.028695	0.001901	0.023193	18.169499	-78.112149	64.236177
56777	9.496676	0.618076	1.938983	-0.015498	-0.018094	0.022097	18.124505	-78.125267	64.278390
56778	9.511074	0.595627	1.934605	-0.003117	-0.051974	0.020365	18.119403	-78.156383	64.287047
56779	9.569703	0.601383	1.943764	0.009518	-0.078852	0.030049	18.119524	-78.203998	64.297802
56780	9.611309	0.629983	1.848360	0.020727	-0.095224	0.035537	18.125357	-78.261369	64.309241
56781	9.600852	0.645635	1.875977	0.007865	-0.069395	0.044484	18.078341	-78.306404	64.367164
56782	9.615609	0.651273	1.854403	-0.019051	-0.015839	0.046759	17.963216	-78.322507	64.478844
56783	9.532887	0.616536	1.907856	-0.041086	-0.004630	0.055090	17.803957	-78.334049	64.622733
56784	9.533325	0.549805	1.938934	-0.039936	-0.034839	0.052846	17.676141	-78.361473	64.735140
56785	9.601175	0.504925	1.860859	-0.003388	-0.073432	0.049683	17.610016	-78.409517	64.805968
56786	9.559221	0.532971	1.805059	0.023535	-0.065528	0.049486	17.552287	-78.453058	64.883922
56787	9.563135	0.557550	1.853842	-0.016061	-0.014104	0.029310	17.482314	-78.465147	64.951247
56788	9.602472	0.555673	1.784319	-0.035771	0.036342	0.020298	17.382389	-78.447951	65.037579
56789	9.522928	0.581335	1.914737	-0.041569	0.070287	0.022952	17.244452	-78.412750	65.159365
56790	9.464306	0.510077	1.937620	-0.069609	0.038465	0.008890	17.154557	-78.392389	65.215683
56791	9.518301	0.457671	1.917751	-0.021375	-0.017409	0.006121	17.146054	-78.402283	65.217160
56792	9.520985	0.547453	1.899775	0.031873	-0.056538	0.004357	17.204808	-78.433156	65.181090
56793	9.578310	0.586754	1.857951	0.016576	-0.071564	0.006376	17.262390	-78.472728	65.137308
56794	9.618521	0.556882	1.798491	-0.003155	-0.032655	0.005971	17.277258	-78.490796	65.125552
56795	9.621831	0.614209	1.834672	-0.035638	0.027045	0.013860	17.202779	-78.477681	65.186018
56796	9.607460	0.571403	1.871939	-0.059893	0.038764	0.014542	17.102798	-78.458102	65.258298
56797	9.527195	0.659096	1.933908	-0.046907	0.035013	0.019131	17.001585	-78.441470	65.339469
56798	9.247944	1.045926	3.564078	-0.248431	0.263901	0.048210	16.524256	-78.303844	65.686739
56799	9.591871	-0.451857	-0.834979	-0.436944	-0.469939	-0.008811	16.679145	-78.559690	65.278385
56800	10.517015	-0.048530	2.315000	0.558300	-0.047881	0.023605	16.979757	-78.589051	65.303305
56801	9.242595	1.366428	2.017868	0.414152	0.415144	0.022564	16.822734	-78.364593	65.711022
56802	9.246576	1.327074	2.259791	-0.345141	0.000397	0.039579	16.524631	-78.370068	65.818743
56803	9.963053	0.032997	1.702781	-0.555820	-0.073649	0.049250	16.137957	-78.417826	65.893682
56804	9.712278	-0.139681	1.249100	0.121542	0.274470	0.051651	15.865025	-78.274005	66.248727
56805	9.381756	0.999202	2.539111	0.170567	0.238285	0.045139	15.671412	-78.149023	66.551646
56806	9.261435	0.693428	1.905878	-0.184124	0.054375	0.038933	15.429412	-78.124177	66.696399
56807	9.675148	0.310438	1.984511	-0.176048	0.001750	0.039479	15.229328	-78.128538	66.803088
56808	9.569303	0.336622	1.787959	0.034779	0.120773	0.040528	15.062717	-78.067000	66.998994
56809	9.464351	0.712325	2.145746	0.006918	0.106111	0.039143	14.895954	-78.013423	67.178810
56810	9.451572	0.534890	1.973379	-0.114484	0.037117	0.048690	14.683443	-77.999172	67.334277
56811	9.585949	0.385694	1.932861	-0.093997	0.039851	0.047030	14.485753	-77.983208	67.486631
56812	9.516033	0.422739	1.942308	-0.009261	0.072184	0.039657	14.334563	-77.947995	67.641065
56813	9.478455	0.505948	2.039731	-0.020885	0.056598	0.041220	14.183904	-77.921736	67.788193
56814	9.476093	0.472296	2.026003	-0.057555	0.039750	0.037617	14.033037	-77.904091	67.914028
56815	9.486858	0.450349	1.959677	-0.057023	0.037020	0.033980	13.894170	-77.887553	68.027939
56816	9.471694	0.405762	1.996639	-0.024346	0.038608	0.028547	13.787301	-77.869179	68.128252
56817	9.446981	0.471452	2.055436	-0.026911	0.027532	0.017257	13.715545	-77.855556	68.191177
56818	9.472556	0.430093	2.019566	-0.030049	-0.005603	0.014473	13.670085	-77.859830	68.225342
56819	9.528553	0.406461	2.015441	-0.013666	-0.029815	0.012343	13.654797	-77.877445	68.238268
56820	9.557688	0.456581	1.962469	0.006461	-0.024796	0.005787	13.664791	-77.891225	68.237106
56821	9.558040	0.456157	1.960853	-0.005628	-0.008969	0.003252	13.664507	-77.896005	68.239395
56822	9.558558	0.486038	1.945620	-0.029002	0.021858	0.005259	13.626148	-77.883737	68.266906
56823	9.573258	0.461441	2.016364	-0.033675	0.039575	0.004293	13.576634	-77.861628	68.303113
56824	9.530367	0.461811	2.020957	-0.026258	0.027512	0.007213	13.531436	-77.846464	68.339231
56825	9.515170	0.451650	2.005291	-0.020762	0.003928	0.014503	13.485298	-77.845566	68.379556
56826	9.557511	0.448403	2.003962	-0.012361	-0.007421	0.014494	13.450992	-77.850827	68.412678
56827	9.599985	0.445144	2.001985	-0.010999	-0.009054	0.016520	13.413219	-77.857422	68.450166
56828	9.599745	0.475273	1.951814	-0.020427	0.011655	0.020953	13.345752	-77.852895	68.512479
56829	9.569737	0.423219	1.970289	-0.037225	0.041341	0.020300	13.252301	-77.831872	68.591554
56830	9.543015	0.459715	2.012906	-0.045175	0.070122	0.019662	13.138865	-77.794520	68.686399
56831	9.540137	0.427920	2.000952	-0.043774	0.065400	0.019513	13.030060	-77.759908	68.777362
56832	9.539077	0.425213	2.006574	-0.034468	0.048952	0.020824	12.933475	-77.734451	68.861266
56833	9.539886	0.451447	2.029542	-0.024761	0.039057	0.025009	12.837854	-77.715190	68.949903
56834	9.594024	0.427876	1.995911	-0.025809	0.027480	0.031434	12.732178	-77.703014	69.048200
56835	9.593458	0.424059	1.999441	-0.033831	0.043476	0.035720	12.601930	-77.682559	69.166970
56836	9.593978	0.448808	2.024184	-0.045988	0.079523	0.036169	12.443659	-77.641766	69.307288
56837	9.535768	0.435626	2.052226	-0.060018	0.121916	0.036790	12.253248	-77.577402	69.472331
56838	9.449623	0.432421	2.100818	-0.075823	0.126434	0.034403	12.059267	-77.509931	69.631778
56839	9.458377	0.347645	2.106802	-0.065057	0.085058	0.032560	11.899889	-77.465492	69.762152
56840	9.458758	0.372747	2.131495	-0.030453	0.037130	0.027501	11.799266	-77.447102	69.852642
56841	9.473390	0.410787	2.101110	-0.005741	0.011522	0.026918	11.727820	-77.443143	69.927767
56842	9.586239	0.425305	2.065501	-0.008485	-0.006154	0.024840	11.669364	-77.448677	69.987957
56843	9.641125	0.401715	2.029141	-0.024553	0.011905	0.034719	11.567307	-77.445361	70.083399
56844	9.714355	0.473531	2.035235	-0.033372	0.058211	0.053564	11.389303	-77.417978	70.251465
56845	9.672289	0.496971	2.063312	-0.060912	0.110768	0.075947	11.113971	-77.363590	70.503139
56846	9.599310	0.468217	2.111169	-0.100084	0.151706	0.096894	10.746773	-77.287970	70.826017
56847	9.540584	0.445798	2.178441	-0.115301	0.152735	0.107906	10.347071	-77.212625	71.173395
56848	9.524031	0.422070	2.207927	-0.093045	0.101144	0.126508	9.940933	-77.167545	71.540515
56849	9.607422	0.403600	2.213987	-0.060999	0.047298	0.143703	9.535639	-77.154128	71.925662
56850	9.594853	0.441115	2.169214	-0.056792	0.029117	0.158169	9.105038	-77.151544	72.339232
56851	9.649684	0.401686	2.172706	-0.091142	0.078184	0.158116	8.636498	-77.120618	72.771576
56852	9.524456	0.448096	2.224396	-0.134139	0.161386	0.156125	8.121045	-77.041377	73.226853
56853	9.354373	0.464211	2.332754	-0.173463	0.210721	0.134963	7.624634	-76.931736	73.639654
56854	9.069840	0.982570	2.578267	-0.107257	0.213178	0.069974	7.330556	-76.815058	73.883813
56855	8.313186	2.903541	3.550393	0.075929	0.203775	-0.068115	7.480686	-76.693576	73.779595
56856	8.238525	3.507115	3.511450	-0.286726	-0.047162	-0.188780	7.791056	-76.705193	73.297158
56857	9.253499	2.667017	3.152138	-0.866186	-0.463425	-0.224033	8.001168	-76.949710	72.577039
56858	10.061305	1.102444	2.196788	-0.896905	-0.299756	-0.219235	8.137692	-77.101332	71.914878
56859	10.012635	0.512252	1.655732	-0.770815	0.010385	-0.193942	8.180205	-77.078742	71.423557
56860	9.626770	0.244930	1.332535	-0.889974	0.107682	-0.177049	8.074747	-77.002529	71.013817
56861	9.827225	-0.636351	1.285101	-0.961408	0.094105	-0.160799	7.893766	-76.935470	70.639585
56862	9.930464	-1.255726	1.430148	-0.804423	0.177425	-0.125055	7.684316	-76.824247	70.386688
56863	9.800102	-1.354431	1.547845	-0.688465	0.147810	-0.086716	7.459483	-76.732983	70.217837
56864	9.668864	-1.505058	1.816607	-0.537221	0.190582	-0.062674	7.249032	-76.619298	70.123088
56865	9.706240	-1.630256	2.035917	-0.537582	0.162146	-0.028678	6.967944	-76.524386	70.100772
56866	9.515367	-2.027472	1.628234	-0.361353	0.210705	0.015285	6.671246	-76.404765	70.198295
56867	9.123985	-1.447846	1.532773	0.056264	0.172685	0.023225	6.607820	-76.307402	70.302056
56868	9.130020	0.748925	3.163738	0.341900	-0.058589	-0.000925	6.828025	-76.339890	70.282341
56869	9.492257	0.633442	2.290413	0.060806	-0.349692	0.022170	6.915617	-76.539696	70.233375
56870	9.983756	0.105216	1.981895	-0.012376	-0.209377	0.058837	6.834330	-76.662043	70.314948
56871	9.670718	0.347148	2.101545	0.025688	0.163468	0.063316	6.657086	-76.572676	70.517569
56872	9.175962	0.375737	2.301659	-0.189448	0.233055	0.050817	6.370873	-76.442522	70.705581
56873	9.029019	-0.059537	2.398282	-0.141611	0.087906	0.022888	6.218688	-76.393284	70.783980
56874	9.022140	0.120027	2.333679	0.142736	-0.132880	-0.013655	6.373321	-76.467314	70.714341
56875	9.321309	0.412303	2.259475	0.195646	-0.401506	-0.024881	6.659868	-76.693625	70.540290
56876	9.941553	0.257830	2.022381	0.142784	-0.367054	-0.004949	6.865283	-76.901345	70.418625
56877	9.811110	0.844032	1.815509	0.261718	-0.092704	0.018672	7.002809	-76.954742	70.436675
56878	9.391462	1.683569	1.620067	0.314520	-0.087956	0.005711	7.201951	-77.004364	70.422532
56879	9.519007	1.825783	1.179125	0.327157	-0.252979	-0.001006	7.478740	-77.147464	70.336190
56880	9.791322	2.206338	1.206957	0.684637	-0.182715	-0.022914	7.996296	-77.248638	70.212996
56881	9.721742	2.035813	0.846929	0.596303	-0.101135	-0.027017	8.449469	-77.303264	70.104049
56882	9.232696	2.627329	1.429942	0.748478	0.231202	-0.098895	9.042530	-77.162923	69.940959
56883	10.107491	1.203750	2.422861	0.241901	0.175888	-0.060464	9.268383	-77.057473	69.856898
56884	10.782902	-2.050651	1.709103	-0.044199	0.232478	0.144831	8.803464	-76.938161	70.313352
56885	9.545666	-2.025453	1.926406	1.046519	0.811525	0.235875	8.547429	-76.498489	71.197952
56886	9.195077	-0.017839	5.432513	0.613403	0.364317	0.373654	7.904745	-76.321729	72.226027
56887	8.916866	-2.316099	4.495843	-0.078658	-0.000263	0.558179	6.560858	-76.361634	73.568031
56888	7.403199	-1.412304	4.453217	0.426271	0.009108	0.322839	6.050605	-76.375976	74.349692
56889	7.801746	-1.350970	1.989594	0.125607	-0.815618	0.031999	6.262293	-76.841823	74.211357
56890	9.289611	-0.984326	1.429570	0.567367	-1.422756	-0.159474	7.422984	-77.639540	73.359899
56891	10.216139	0.251499	1.651207	0.923322	-1.187542	-0.209952	8.970796	-78.295173	72.323482
56892	10.018152	0.908065	1.528010	0.490430	-0.382623	-0.215853	10.027768	-78.490188	71.536572
56893	9.885711	0.883340	1.447823	-0.099752	0.163863	-0.217220	10.492349	-78.374979	71.009260
56894	9.565028	0.486746	2.293159	-0.436863	0.392708	-0.210222	10.619149	-78.130913	70.629356
56895	9.100927	-0.099077	2.182469	-0.218695	0.328759	-0.234952	10.956353	-77.920029	70.161816
56896	9.046917	0.092884	2.530442	0.202315	-0.185443	-0.242470	11.814853	-77.995962	69.407799
56897	9.422022	0.327819	2.137713	0.445258	-0.843113	-0.224230	13.177317	-78.439119	68.281863
56898	9.946835	0.495519	1.877155	0.480930	-1.043762	-0.179604	14.680724	-78.994016	67.035085
56899	10.243674	0.608218	1.211117	0.439967	-0.610417	-0.143018	15.830246	-79.309187	66.126541
56900	10.176448	0.924350	1.222313	0.217891	-0.172627	-0.100748	16.401476	-79.387373	65.677574
56901	9.954514	0.843593	1.613314	-0.139047	0.222595	-0.067663	16.333316	-79.253443	65.671099
56902	9.592397	0.512676	1.785774	-0.299543	0.384163	-0.054241	16.003295	-79.032572	65.837630
56903	9.447723	0.257603	2.036963	-0.231934	0.275266	-0.065471	15.838560	-78.869984	65.875324
56904	9.372421	0.276301	2.001811	0.020992	-0.017505	-0.057864	16.032179	-78.869713	65.695507
56905	9.394553	0.411398	2.011079	0.220753	-0.271593	-0.042956	16.507382	-79.011547	65.345425
56906	9.607042	0.541245	1.800529	0.243211	-0.402971	-0.036115	17.102527	-79.225777	64.886535
56907	9.831959	0.618072	1.599492	0.198140	-0.325305	-0.021338	17.576902	-79.399387	64.524545
56908	9.848843	0.723943	1.511154	0.093824	-0.126648	-0.003762	17.765191	-79.467058	64.392936
56909	9.755805	0.682250	1.614784	-0.055056	0.050862	0.012180	17.655057	-79.440774	64.478108
56910	9.656537	0.518286	1.726508	-0.132523	0.137725	0.016090	17.410513	-79.367492	64.654893
56911	9.554530	0.416749	1.774859	-0.098043	0.115394	0.014014	17.213939	-79.306118	64.802995
56912	9.473060	0.413786	1.854492	-0.016808	0.002090	0.010878	17.176380	-79.306003	64.836664
56913	9.554590	0.414123	1.775148	0.055131	-0.116847	0.004950	17.303704	-79.370134	64.744477
56914	9.635373	0.448329	1.637463	0.103158	-0.158842	-0.000048	17.514096	-79.456153	64.595815
56915	9.659070	0.606960	1.665798	0.095113	-0.091327	0.002172	17.651980	-79.505765	64.516230
56916	9.673404	0.586963	1.658292	-0.007894	-0.021890	0.005506	17.657213	-79.517858	64.511552
56917	9.664970	0.469845	1.585018	-0.052210	0.039177	0.004659	17.581558	-79.496629	64.563299
56918	9.583765	0.437942	1.680842	-0.019664	0.080464	-0.003658	17.511700	-79.451226	64.628138
56919	9.575411	0.515046	1.760552	-0.007505	0.050518	-0.008733	17.490970	-79.421482	64.650081
56920	9.544094	0.498624	1.729209	0.001897	-0.002777	-0.011663	17.534196	-79.420174	64.612459
56921	9.599801	0.508901	1.707951	0.024735	-0.018724	-0.010404	17.600779	-79.427965	64.564370
56922	9.544539	0.531990	1.710157	0.021017	-0.023129	-0.010824	17.671471	-79.437900	64.509954
56923	9.600406	0.541925	1.687997	-0.003217	-0.017134	-0.005621	17.706707	-79.445636	64.477464
56924	9.569628	0.494939	1.669467	-0.016251	0.000203	-0.019949	17.761064	-79.441229	64.417944
56925	9.600339	0.483576	1.719229	-0.000887	0.005112	-0.023483	17.829059	-79.433693	64.353488
56926	9.615639	0.525438	1.720077	-0.000386	-0.007611	-0.028689	17.925299	-79.431982	64.260608
56927	9.582750	0.512554	1.651080	0.000094	-0.012252	-0.030936	18.031901	-79.432552	64.157448
56928	9.573376	0.532612	1.721265	0.007507	0.003503	-0.030737	18.127980	-79.424364	64.069330
56929	9.599965	0.525656	1.701948	-0.023199	-0.002836	-0.035089	18.224222	-79.419003	63.963129
56930	9.626473	0.519103	1.683006	-0.010648	0.010341	-0.041846	18.335366	-79.405041	63.849099
56931	9.628039	0.551964	1.702788	0.004233	0.014122	-0.038905	18.441666	-79.389700	63.748646
56932	9.627604	0.555592	1.704067	-0.015784	0.011778	-0.038490	18.538154	-79.375491	63.646522
56933	9.651817	0.550635	1.652214	-0.014443	0.027102	-0.035577	18.610930	-79.353649	63.569281
56934	9.599343	0.602367	1.713268	-0.015927	0.047965	-0.029471	18.645535	-79.321398	63.530029
56935	9.529361	0.584657	1.756249	-0.049044	0.057875	-0.021977	18.629005	-79.285326	63.523482
56936	9.511129	0.486933	1.758128	-0.056946	0.056419	-0.027000	18.624612	-79.248937	63.499992
56937	9.537195	0.509995	1.726038	-0.025054	0.003457	-0.034886	18.711089	-79.240031	63.402585
56938	9.621696	0.511561	1.719323	0.012879	-0.040186	-0.047519	18.898601	-79.252235	63.224481
56939	9.704175	0.577725	1.644699	0.031952	-0.031956	-0.054211	19.107511	-79.258805	63.035702
56940	9.718985	0.652890	1.629630	-0.000941	0.027196	-0.044010	19.210794	-79.234994	62.935273
56941	9.759760	0.655441	1.634176	-0.064230	0.113081	-0.041438	19.184291	-79.165382	62.930018
56942	9.701672	0.617641	1.684710	-0.096749	0.179593	-0.033397	19.052957	-79.061075	63.012560
56943	9.617551	0.617405	1.777513	-0.109517	0.204244	-0.027710	18.876276	-78.944635	63.133858
56944	9.529763	0.558498	1.832378	-0.104759	0.175909	-0.023547	18.721207	-78.844060	63.235974
56945	9.567360	0.559741	1.810461	-0.073747	0.122574	-0.019859	18.624308	-78.773270	63.296914
56946	9.594010	0.579576	1.820528	-0.043774	0.089300	-0.015069	18.563718	-78.721207	63.338377
56947	9.617564	0.603172	1.760271	-0.044734	0.092459	-0.014960	18.499037	-78.667641	63.383437
56948	9.657730	0.602614	1.769261	-0.075728	0.130082	-0.016099	18.387272	-78.593204	63.458441
56949	9.639583	0.594158	1.768508	-0.101785	0.197233	-0.020907	18.214589	-78.481544	63.580373
56950	9.596302	0.622001	1.845851	-0.131529	0.247259	-0.021390	17.986775	-78.342263	63.741261
56951	9.576580	0.581678	1.868448	-0.153964	0.240103	-0.016149	17.742248	-78.207886	63.906150
56952	9.514687	0.511461	1.907155	-0.131032	0.228999	-0.022606	17.541973	-78.078110	64.039347
56953	9.512987	0.600237	1.952053	-0.096961	0.228091	-0.029777	17.382964	-77.947725	64.150355
56954	9.567158	0.637355	2.007576	-0.104245	0.194523	-0.026183	17.240829	-77.836042	64.239911
56955	9.600516	0.583793	1.918302	-0.115383	0.192206	-0.031148	17.107926	-77.724951	64.313504
56956	9.628144	0.659392	2.013365	-0.107510	0.253885	-0.035239	16.945384	-77.579135	64.422115
56957	9.552796	0.701623	2.045282	-0.153567	0.295056	-0.040580	16.741541	-77.409992	64.546044
56958	9.488354	0.665865	2.038961	-0.189000	0.292688	-0.045328	16.535841	-77.241066	64.651171
56959	9.427722	0.713810	2.125025	-0.184493	0.307108	-0.049921	16.336859	-77.063596	64.752107
56960	9.370543	0.876711	2.287213	-0.164959	0.274564	-0.057739	16.194592	-76.902500	64.806410
56961	9.299585	1.223767	2.267134	-0.139891	0.193717	-0.078122	16.170843	-76.782802	64.753761
56962	9.214738	1.940641	2.685316	-0.164630	0.161548	-0.104297	16.215863	-76.676436	64.615889
56963	8.969631	2.685331	2.883558	-0.368748	0.101064	-0.149899	16.288707	-76.596108	64.329158
56964	8.954671	2.998539	2.965512	-0.851412	0.007293	-0.199457	16.261121	-76.559257	63.861297
56965	9.408469	1.830067	2.514934	-1.447539	-0.140593	-0.213337	16.023934	-76.601789	63.257828
56966	9.979115	0.563179	2.058441	-1.627499	-0.050606	-0.212391	15.621519	-76.595692	62.718218
56967	9.719800	0.485713	1.911694	-1.377588	0.170387	-0.218375	15.233887	-76.467412	62.310551
56968	9.453330	0.955257	2.142997	-1.369525	0.150721	-0.191976	14.801669	-76.354692	61.953242
56969	9.794473	0.010863	1.733603	-1.641790	-0.089400	-0.076140	14.094599	-76.392539	61.718242
56970	9.934126	-0.357982	1.688807	-1.320353	0.056212	-0.005948	13.325865	-76.359633	61.736128
56971	9.683519	0.086905	1.976724	-1.088996	0.172083	0.040256	12.525440	-76.267912	61.923122
56972	9.637283	-0.176880	1.945718	-1.166649	0.096336	0.097555	11.592267	-76.224805	62.200977
56973	9.700626	-0.787906	1.746654	-0.999679	0.113480	0.135415	10.664726	-76.175256	62.571641
56974	9.569316	-1.053230	1.865889	-0.675622	0.224695	0.159583	9.826638	-76.064030	63.041502
56975	9.452329	-1.058975	2.116870	-0.432996	0.233349	0.182133	9.083099	-75.948650	63.557427
56976	9.272206	-1.414020	1.828853	-0.269455	0.154850	0.210283	8.406262	-75.878478	64.101390
56977	8.779084	0.015409	2.803235	0.230918	0.166009	0.146922	8.159209	-75.795905	64.497920
56978	8.757506	0.615863	2.601748	0.112646	-0.157366	0.097813	8.060105	-75.892279	64.672008
56979	9.591383	0.237763	2.347701	-0.031837	-0.465593	0.097141	7.974922	-76.163566	64.746256
56980	9.992293	0.255842	2.069818	0.165490	-0.228556	0.116236	7.880178	-76.301659	64.946734
56981	9.652008	0.748869	2.262290	0.004034	0.057295	0.117662	7.595565	-76.277594	65.247335
56982	9.473773	0.280938	2.262246	-0.298353	0.137586	0.108300	7.137965	-76.206578	65.547766
56983	9.364138	-0.175969	2.303554	-0.174274	0.181986	0.076217	6.815961	-76.107774	65.781835
56984	9.128209	0.151981	2.390641	0.009265	0.061402	0.033131	6.734380	-76.074288	65.876660
56985	9.340822	0.194530	2.307708	0.005897	-0.139082	0.006054	6.766740	-76.153215	65.852068
56986	9.582775	0.192449	2.241236	0.044907	-0.107420	-0.009201	6.849415	-76.212913	65.798736
56987	9.515872	0.358339	2.240357	0.002638	0.054272	-0.010355	6.864778	-76.180720	65.789730
56988	9.397709	0.158387	2.238610	-0.080246	0.091849	-0.008771	6.819597	-76.127081	65.794220
56989	9.327638	0.178632	2.480952	-0.002212	0.067302	-0.011149	6.830432	-76.087430	65.787013
56990	9.229683	0.242168	2.442195	0.061206	-0.063602	-0.012359	6.917533	-76.121971	65.738723
56991	9.401490	0.256832	2.361470	0.071801	-0.188264	-0.009539	7.038913	-76.227750	65.661343
56992	9.518370	0.284508	2.314668	0.100656	-0.151617	-0.005340	7.158935	-76.312785	65.602467
56993	9.435980	0.310516	2.201975	0.055549	-0.108207	-0.001112	7.230247	-76.373586	65.567084
56994	9.479366	0.212646	2.221923	0.026608	-0.116183	-0.014286	7.319909	-76.437789	65.495826
56995	9.409754	0.099344	2.238805	0.077960	-0.116010	-0.038746	7.496578	-76.500218	65.365306
56996	9.327717	0.148685	2.184969	0.103208	-0.115158	-0.080036	7.788053	-76.558721	65.131694
56997	9.404070	0.247292	2.279227	0.108905	-0.143927	-0.107310	8.158739	-76.631240	64.820014
56998	9.407388	0.293619	2.254677	0.117369	-0.148121	-0.123944	8.580514	-76.704071	64.460966
56999	9.353391	0.303121	2.223007	0.109954	-0.138023	-0.137179	9.029124	-76.769565	64.070026
57000	9.343718	0.323656	2.280818	0.104517	-0.157790	-0.140887	9.496846	-76.845002	63.656428
57001	9.321156	0.364515	2.340070	0.109898	-0.203304	-0.149511	10.011903	-76.944656	63.197484
57002	9.368463	0.380736	2.316185	0.134723	-0.276335	-0.145688	10.573776	-77.084722	62.705373
57003	9.513956	0.365537	2.183734	0.185446	-0.429568	-0.135855	11.225803	-77.311035	62.150915
57004	9.717577	0.421764	2.035683	0.221587	-0.482897	-0.126239	11.925741	-77.566771	61.569171
57005	9.836167	0.503308	1.913259	0.200150	-0.398294	-0.113880	12.558042	-77.775303	61.044549
57006	9.838832	0.530741	1.814160	0.118149	-0.225530	-0.101070	13.026032	-77.887687	60.640328
57007	9.872053	0.546845	1.870487	0.019683	-0.052769	-0.086325	13.298486	-77.905237	60.378436
57008	9.746635	0.514891	1.920795	-0.037823	0.056137	-0.065705	13.418519	-77.864437	60.238778
57009	9.593656	0.512385	2.020771	-0.037059	0.084552	-0.044621	13.464935	-77.810765	60.174803
57010	9.494966	0.436986	2.067670	-0.024270	0.040036	-0.034053	13.519687	-77.783098	60.109833
57011	9.425178	0.446098	2.089571	0.001369	-0.038447	-0.027851	13.620577	-77.800151	60.012640
57012	9.453151	0.384849	2.051487	0.038183	-0.088147	-0.041486	13.810601	-77.842770	59.845897
57013	9.523404	0.481559	1.986804	0.059877	-0.119374	-0.039705	14.028699	-77.903061	59.663134
57014	9.569287	0.479511	2.007187	0.053673	-0.117810	-0.038506	14.242273	-77.962319	59.481454
57015	9.610392	0.497394	1.927658	0.029968	-0.087586	-0.030905	14.402801	-78.005937	59.340108
57016	9.710566	0.539452	1.924048	0.019000	-0.056200	-0.021085	14.512324	-78.033291	59.244545
57017	9.626803	0.540966	1.923855	-0.001898	-0.026754	-0.007201	14.552678	-78.046474	59.207407
57018	9.599225	0.488700	1.930941	-0.025065	-0.000195	0.001542	14.540027	-78.045993	59.210930
57019	9.597552	0.495083	1.897838	-0.028520	0.012006	-0.002250	14.525872	-78.038395	59.213919
57020	9.600362	0.480723	1.967083	-0.018313	0.019867	0.005713	14.492593	-78.027384	59.242482
57021	9.527288	0.499629	1.924026	-0.027463	0.028781	0.009200	14.437839	-78.012122	59.287594
57022	9.568350	0.439436	1.913824	-0.040943	0.044011	0.010609	14.362803	-77.988398	59.345595
57023	9.500367	0.463229	1.997621	-0.027418	0.059280	0.006033	14.296372	-77.955739	59.402680
57024	9.442028	0.456081	1.987008	-0.031615	0.059805	-0.000880	14.246643	-77.921595	59.440282
57025	9.457526	0.455569	2.043259	-0.025778	0.025959	-0.013507	14.254241	-77.904664	59.422632
57026	9.498641	0.431064	2.018883	0.010875	-0.019090	-0.017431	14.323878	-77.911988	59.363059
57027	9.497157	0.472805	1.971381	0.022057	-0.038391	-0.019046	14.415821	-77.929970	59.287181
57028	9.580763	0.482234	1.930267	0.006957	-0.035453	-0.026526	14.518038	-77.945031	59.192004
57029	9.595917	0.491353	1.946646	0.007905	-0.003159	-0.028865	14.604021	-77.942011	59.113936
57030	9.581717	0.513534	1.951919	-0.005671	0.017011	-0.026308	14.663091	-77.927962	59.055481
57031	9.594478	0.528964	1.938972	-0.020160	0.035382	-0.024572	14.695538	-77.904172	59.015709
57032	9.595545	0.490981	1.987945	-0.020004	0.051551	-0.018876	14.703500	-77.872047	59.001117
57033	9.538164	0.511498	1.999825	-0.023038	0.059800	-0.012945	14.687633	-77.836415	59.009069
57034	9.564313	0.506005	1.985368	-0.023932	0.055960	-0.012506	14.673987	-77.802771	59.014276
57035	9.549189	0.525971	1.995462	-0.024472	0.056343	-0.007401	14.645564	-77.769857	59.034236
57036	9.478789	0.499633	2.034177	-0.035944	0.066486	-0.011621	14.615927	-77.730506	59.048766
57037	9.505421	0.461148	2.030920	-0.035261	0.055027	-0.014095	14.599495	-77.697348	59.050133
57038	9.531251	0.488752	2.004786	-0.012791	0.042840	-0.017915	14.614908	-77.670196	59.032133
57039	9.531247	0.515967	2.031403	-0.007454	0.033375	-0.016161	14.633900	-77.648742	59.013545
57040	9.558805	0.536539	2.037420	-0.019777	0.030258	-0.009942	14.633328	-77.629718	59.007809
57041	9.543004	0.471956	2.010123	-0.022731	0.033553	-0.005163	14.615616	-77.609753	59.017835
57042	9.528271	0.491430	2.018249	-0.024238	0.038280	-0.004672	14.593953	-77.587043	59.031075
57043	9.543083	0.523178	2.063377	-0.021972	0.039106	0.001753	14.555731	-77.564997	59.062549
57044	9.528939	0.508875	2.082117	-0.022365	0.028371	0.009501	14.506150	-77.549816	59.105481
57045	9.500260	0.487706	2.081401	-0.022696	0.016789	0.013566	14.452554	-77.541826	59.152276
57046	9.512182	0.506141	2.033891	-0.023664	0.015836	0.016422	14.393141	-77.534572	59.204518
57047	9.512388	0.471425	2.046508	-0.023701	0.019944	0.013893	14.336244	-77.524854	59.254107
57048	9.525022	0.515668	2.022514	-0.021894	0.023547	0.015541	14.275270	-77.513170	59.308989
57049	9.511829	0.526146	2.063656	-0.021107	0.032354	0.016256	14.206232	-77.496871	59.372541
57050	9.525894	0.471698	2.072150	-0.030753	0.013514	0.018054	14.140469	-77.491086	59.427135
57051	9.510605	0.495752	2.043801	-0.019272	0.001303	0.023551	14.073988	-77.493025	59.489146
57052	9.554245	0.486336	2.076015	-0.011593	-0.002891	0.020588	14.023191	-77.496686	59.539655
57053	9.539139	0.510357	2.046920	-0.017448	0.002852	0.026463	13.949434	-77.498136	59.610187
57054	9.525577	0.494049	2.063199	-0.027569	0.014088	0.026569	13.863899	-77.493150	59.686902
57055	9.496159	0.445792	2.039213	-0.034828	0.026985	0.023053	13.773897	-77.480661	59.763878
57056	9.511313	0.475155	2.083224	-0.024772	0.023968	0.017897	13.705832	-77.468947	59.824344
57057	9.497132	0.492328	2.089419	-0.019817	0.006998	0.021180	13.641541	-77.467289	59.883795
57058	9.496831	0.431326	2.077135	-0.013471	-0.007698	0.023864	13.584351	-77.473984	59.939755
57059	9.524951	0.481412	2.069069	-0.015341	-0.003076	0.017165	13.538749	-77.477368	59.982687
57060	9.539034	0.459747	2.064278	-0.012595	-0.001788	0.022168	13.482663	-77.480522	60.038029
57061	9.510382	0.470632	2.050765	-0.023117	0.006084	0.021283	13.416724	-77.479331	60.097228
57062	9.496739	0.454936	2.067042	-0.025052	0.011550	0.018266	13.355305	-77.474507	60.150721
57063	9.511770	0.426200	2.097118	-0.020673	0.006424	0.015408	13.305341	-77.472323	60.194990
57064	9.483123	0.437812	2.083442	-0.014781	-0.005489	0.013311	13.272393	-77.476328	60.225349
57065	9.524403	0.443537	2.047393	-0.007089	-0.011752	0.011610	13.250470	-77.483765	60.248863
57066	9.540349	0.474151	2.087728	-0.009403	-0.013769	0.010119	13.233473	-77.491964	60.266037
57067	9.566940	0.473619	2.032819	-0.009536	-0.012086	0.017480	13.195515	-77.500351	60.304538
57068	9.538745	0.452109	2.029468	-0.020237	0.005695	0.018924	13.138630	-77.498835	60.356209
57069	9.526811	0.487777	2.092015	-0.027942	0.014018	0.019367	13.070019	-77.492887	60.415307
57070	9.496511	0.414777	2.044115	-0.027877	0.013181	0.015684	13.012601	-77.486750	60.463041
57071	9.496639	0.380332	2.056016	-0.014030	0.011542	0.009005	12.979556	-77.480823	60.493874
57072	9.540196	0.463253	2.090869	-0.007314	0.004317	0.010154	12.953031	-77.478910	60.522034
57073	9.539257	0.436338	2.068324	-0.018715	0.006296	0.010960	12.915439	-77.476155	60.554776
57074	9.510451	0.448310	2.055440	-0.023026	0.010590	0.010138	12.876368	-77.470729	60.586566
57075	9.525306	0.420040	2.085922	-0.014188	0.017336	0.013850	12.827817	-77.462165	60.633191
57076	9.539489	0.457635	2.095328	-0.019250	0.014045	0.007351	12.796009	-77.454445	60.659760
57077	9.509959	0.411809	2.070519	-0.020112	0.015523	0.000324	12.779140	-77.445165	60.670452
57078	9.494493	0.438378	2.043312	-0.011637	0.022167	-0.003152	12.773478	-77.431571	60.674703
57079	9.508775	0.444552	2.063995	-0.014950	0.023308	-0.004311	12.766780	-77.417353	60.678005
57080	9.524324	0.443680	2.117839	-0.017991	0.009596	-0.008971	12.779183	-77.410047	60.660017
57081	9.493707	0.406398	2.058768	-0.005262	0.010727	-0.006682	12.791086	-77.402557	60.649946
57082	9.551043	0.471481	2.089256	-0.002369	0.008270	-0.007780	12.810181	-77.396141	60.634273
57083	9.536037	0.465989	2.071801	-0.013783	0.012310	-0.008240	12.820155	-77.387567	60.621174
57084	9.507313	0.446825	2.070231	-0.017758	0.020818	-0.004383	12.814801	-77.374571	60.621518
57085	9.536317	0.459317	2.109350	-0.014398	0.022957	-0.009420	12.821299	-77.359899	60.611620
57086	9.479944	0.446701	2.128160	-0.011504	0.020501	-0.010517	12.834968	-77.346300	60.596139
57087	9.492310	0.435226	2.091484	-0.013307	0.014852	-0.010926	12.850378	-77.335957	60.577747
57088	9.520724	0.422532	2.106238	-0.006077	0.003984	-0.008684	12.871915	-77.331816	60.557388
57089	9.520296	0.456171	2.096034	-0.003681	0.003105	-0.009612	12.896186	-77.328198	60.535564
57090	9.533743	0.470337	2.081358	-0.013203	0.007843	-0.010838	12.916764	-77.321622	60.512002
57091	9.519853	0.457602	2.097734	-0.009580	0.015029	-0.007508	12.925614	-77.311610	60.502519
57092	9.505921	0.444730	2.114319	-0.013788	0.012316	-0.008247	12.936840	-77.302867	60.488199
57093	9.505655	0.445375	2.115380	-0.008496	0.008982	-0.010271	12.956557	-77.295874	60.468211
57094	9.519419	0.426748	2.111281	-0.007900	0.002453	-0.011608	12.985065	-77.292204	60.439633
57095	9.476789	0.460783	2.102076	-0.003012	-0.004256	-0.014633	13.026235	-77.292031	60.400871
57096	9.518292	0.436656	2.077075	-0.000127	-0.004652	-0.016986	13.076555	-77.291622	60.354498
57097	9.518276	0.438192	2.076824	-0.004932	-0.000837	-0.016387	13.118979	-77.289299	60.313324
57098	9.532479	0.478804	2.085212	-0.002670	0.009415	-0.019914	13.166933	-77.280643	60.267882
57099	9.490997	0.472921	2.121530	-0.017049	0.014680	-0.014348	13.188336	-77.269919	60.241140
57100	9.504286	0.487360	2.107471	-0.005616	0.008588	-0.012624	13.216978	-77.262668	60.213763
57101	9.503306	0.462906	2.085039	-0.006521	0.006792	-0.013458	13.246714	-77.256451	60.184659
57102	9.517858	0.470338	2.103964	-0.003537	0.001446	-0.016981	13.291378	-77.252603	60.142075
57103	9.518849	0.464460	2.137904	-0.003121	0.002761	-0.014723	13.328464	-77.248458	60.107425
57104	9.545869	0.492662	2.107932	-0.003637	0.006398	-0.015811	13.367241	-77.241991	60.070817
57105	9.503313	0.493686	2.110381	-0.010513	0.015294	-0.009600	13.380094	-77.231526	60.056687
57106	9.530797	0.455661	2.102869	-0.015275	0.022396	-0.015198	13.401252	-77.216218	60.031304
57107	9.488680	0.482620	2.129694	-0.008111	0.023890	-0.020492	13.437115	-77.199510	59.994971
57108	9.515781	0.477936	2.111632	-0.004314	0.013765	-0.010790	13.458682	-77.189592	59.975607
57109	9.501499	0.498334	2.117447	-0.008016	0.009470	-0.011702	13.481383	-77.182084	59.952842
57110	9.529177	0.460303	2.109192	-0.006210	0.013064	-0.010033	13.500362	-77.172655	59.935017
57111	9.528426	0.493918	2.100156	-0.009615	0.017096	-0.008771	13.510444	-77.161287	59.924220
57112	9.514027	0.513953	2.106553	-0.013419	0.017753	-0.008512	13.518774	-77.149448	59.913079
57113	9.527973	0.462378	2.114172	-0.005337	0.018986	-0.011711	13.537357	-77.136627	59.896105
57114	9.498480	0.509353	2.091617	-0.010609	0.018193	-0.007180	13.543748	-77.124720	59.888604
57115	9.513121	0.483050	2.122427	-0.013421	0.017756	-0.008515	13.550562	-77.113019	59.878911
57116	9.497992	0.477392	2.105882	-0.010716	0.023148	-0.006009	13.551113	-77.098509	59.877337
57117	9.484535	0.489855	2.146443	-0.011619	0.021353	-0.006846	13.552782	-77.085025	59.873961
57118	9.511048	0.458773	2.105297	-0.012017	0.017979	-0.007851	13.560074	-77.073147	59.864705
57119	9.497648	0.471542	2.145457	-0.007234	0.018292	-0.010956	13.575989	-77.060812	59.849342
57120	9.509790	0.493250	2.098359	-0.007234	0.018293	-0.010957	13.593319	-77.048339	59.832597
57121	9.468135	0.486492	2.135022	-0.012921	0.016184	-0.008690	13.601640	-77.037486	59.821722
57122	9.510006	0.487210	2.135395	-0.011026	0.016889	-0.009446	13.613916	-77.025998	59.807932
57123	9.509630	0.487866	2.136916	-0.007207	0.014172	-0.008447	13.626072	-77.016294	59.796407
57124	9.481648	0.494338	2.158137	-0.010098	0.014562	-0.006100	13.632123	-77.006552	59.789550
57125	9.494873	0.508286	2.144628	-0.010127	0.018689	-0.008611	13.640320	-76.994307	59.780410
57126	9.523141	0.495598	2.160057	-0.008108	0.012377	-0.009285	13.656439	-76.985351	59.764391
57127	9.465931	0.489968	2.143981	-0.006294	0.013909	-0.006356	13.664169	-76.976067	59.757993
57128	9.535153	0.517600	2.113687	-0.009499	0.010096	-0.008699	13.679380	-76.968458	59.742086
57129	9.507645	0.491220	2.144969	-0.005284	0.010754	-0.006692	13.690316	-76.960888	59.732944
57130	9.492647	0.485812	2.127944	-0.008249	0.021461	-0.010623	13.704174	-76.946690	59.719160
57131	9.492744	0.511928	2.153170	-0.015833	0.018644	-0.007608	13.706615	-76.934600	59.712575
57132	9.464112	0.492977	2.151312	-0.009529	0.014227	-0.011212	13.725339	-76.924348	59.693042
57133	9.505131	0.501445	2.117440	-0.005597	0.006554	-0.011384	13.749739	-76.918470	59.669828
57134	9.477327	0.508353	2.137580	-0.000764	0.000679	-0.010718	13.780190	-76.915821	59.643409
57135	9.505336	0.470526	2.128377	-0.002675	0.002039	-0.011219	13.808498	-76.912472	59.617934
57136	9.505755	0.497059	2.151986	-0.007902	0.004538	-0.012893	13.837766	-76.907371	59.588530
57137	9.476897	0.511172	2.138815	-0.005288	0.010757	-0.006694	13.848556	-76.899791	59.579582
57138	9.505337	0.498548	2.153490	-0.006988	0.004272	-0.010800	13.873461	-76.895122	59.555194
57139	9.491233	0.518879	2.158160	-0.001141	-0.004759	-0.010470	13.904782	-76.895651	59.527583
57140	9.506267	0.493089	2.186915	-0.003068	-0.001335	-0.012227	13.938635	-76.893897	59.496314
57141	9.491090	0.462658	2.145022	-0.003084	0.000730	-0.013482	13.972759	-76.890950	59.464650
57142	9.518149	0.490969	2.115324	-0.004636	0.009595	-0.015487	14.006969	-76.882660	59.432091
57143	9.505689	0.497059	2.188529	-0.007478	0.013287	-0.019338	14.044993	-76.871912	59.393909
57144	9.504354	0.506169	2.156047	-0.006972	0.011710	-0.019508	14.086081	-76.861876	59.352910
57145	9.476383	0.513820	2.176632	0.001672	0.005185	-0.019092	14.133485	-76.855649	59.310369
57146	9.517489	0.523262	2.142224	-0.000224	0.004479	-0.018339	14.179886	-76.849779	59.267882
57147	9.489088	0.505518	2.139199	-0.007265	0.005447	-0.022948	14.231086	-76.842846	59.216262
57148	9.517019	0.526917	2.143415	-0.002238	0.008729	-0.016412	14.269107	-76.834873	59.181195
57149	9.503130	0.514864	2.159383	-0.007450	0.009160	-0.016833	14.303349	-76.826725	59.146858
57150	9.501870	0.523700	2.126670	-0.006554	0.010959	-0.015994	14.336470	-76.817563	59.114280
57151	9.488445	0.536895	2.166001	-0.007027	0.008406	-0.013316	14.362984	-76.810329	59.088087
57152	9.488206	0.538179	2.166728	-0.005030	0.006227	-0.016500	14.400968	-76.803714	59.051409
57153	9.488035	0.539358	2.167182	-0.006484	0.002697	-0.010975	14.425672	-76.799972	59.027449
57154	9.501948	0.520890	2.163135	-0.006623	0.009718	-0.011054	14.447681	-76.792189	59.006240
57155	9.487539	0.541172	2.168904	-0.010449	0.012434	-0.012060	14.466706	-76.782884	58.985757
57156	9.514913	0.536348	2.150414	-0.009959	0.012924	-0.013484	14.490533	-76.772971	58.960715
57157	9.487816	0.535776	2.205004	-0.006133	0.010209	-0.012479	14.514313	-76.764838	58.937882
57158	9.501142	0.550182	2.190933	-0.010923	0.009881	-0.009384	14.529715	-76.757198	58.920927
57159	9.486260	0.544813	2.173578	-0.010065	0.015814	-0.011054	14.544413	-76.746152	58.905136
57160	9.485892	0.545318	2.175059	-0.009219	0.014299	-0.004018	14.545425	-76.736831	58.903966
57161	9.471970	0.532029	2.191417	-0.015732	0.011621	-0.007546	14.551154	-76.728613	58.894025
57162	9.484913	0.520729	2.154010	-0.008010	0.007437	-0.010474	14.572212	-76.722168	58.872971
57163	9.485664	0.514182	2.188255	-0.004587	0.003413	-0.011731	14.599136	-76.717896	58.847799
57164	9.513178	0.567636	2.181703	-0.002250	0.001297	-0.007709	14.620722	-76.715251	58.829592
57165	9.499417	0.554728	2.197256	-0.009011	0.008527	-0.008883	14.635257	-76.708549	58.814586
57166	9.470467	0.568590	2.184369	-0.011945	0.013041	-0.009050	14.647213	-76.699197	58.800566
57167	9.498725	0.555859	2.199963	-0.011176	0.019795	-0.007031	14.649244	-76.686512	58.797106
57168	9.497409	0.563670	2.167931	-0.012033	0.013862	-0.005364	14.651987	-76.677239	58.792501
57169	9.483527	0.550141	2.184136	-0.012486	0.009237	-0.001433	14.646623	-76.671217	58.795875
57170	9.483296	0.550276	2.185106	-0.007204	0.010059	-0.005948	14.655818	-76.663967	58.787481
57171	9.483116	0.550451	2.185846	-0.010956	0.004502	-0.001940	14.655411	-76.660494	58.786663
57172	9.497494	0.556538	2.205097	-0.009571	0.006791	-0.002521	14.657230	-76.655552	58.784457
57173	9.483331	0.517520	2.197562	-0.010082	0.008370	-0.002353	14.655926	-76.649873	58.785084
57174	9.510724	0.570079	2.191743	-0.012487	0.009238	-0.001435	14.652040	-76.643732	58.787023
57175	9.454836	0.497625	2.195561	-0.016171	0.004932	-0.002370	14.649385	-76.639954	58.785431
57176	9.496529	0.531037	2.184359	-0.007423	-0.002406	-0.005632	14.665304	-76.639660	58.769996
57177	9.482822	0.576029	2.212002	0.003446	-0.006093	-0.000003	14.675077	-76.642336	58.767196
57178	9.454495	0.530875	2.184323	-0.015879	-0.009115	-0.002223	14.682301	-76.646253	58.755719
57179	9.511478	0.537226	2.201104	-0.002643	-0.009532	-0.000021	14.690735	-76.650829	58.750710
57180	9.482098	0.557797	2.152698	-0.001346	-0.006426	0.003087	14.692246	-76.654028	58.753662
57181	9.511232	0.569466	2.189699	-0.013796	-0.001325	0.004162	14.679496	-76.654663	58.763856
57182	9.469166	0.510124	2.177694	-0.013306	-0.000834	0.002739	14.671542	-76.654711	58.769494
57183	9.497695	0.554616	2.204716	-0.007689	0.000044	0.005432	14.658482	-76.654770	58.783603
57184	9.455208	0.528044	2.181925	-0.007505	-0.011117	0.008009	14.647817	-76.661281	58.795443
57185	9.497346	0.560263	2.169087	-0.006428	-0.020480	0.011427	14.633978	-76.673582	58.811091
57186	9.498700	0.551578	2.201146	-0.004168	-0.014324	0.010437	14.621470	-76.682222	58.826790
57187	9.512995	0.589351	2.208544	-0.013827	-0.006712	0.011609	14.594513	-76.686913	58.851565
57188	9.498754	0.523443	2.176504	-0.012548	-0.001539	0.013465	14.562273	-76.688896	58.882606
57189	9.471109	0.527542	2.196216	-0.013549	-0.000450	0.015057	14.523558	-76.690602	58.919626
57190	9.457140	0.545202	2.200667	-0.010106	-0.006544	0.015048	14.492018	-76.695580	58.951384
57191	9.484722	0.512567	2.156808	-0.004787	-0.009860	0.013038	14.468726	-76.702203	58.977710
57192	9.499955	0.542662	2.197944	-0.003383	-0.009641	0.013711	14.446004	-76.708701	59.004364
57193	9.485689	0.535339	2.178420	-0.013726	-0.009590	0.009171	14.426459	-76.714617	59.021567
57194	9.485908	0.534202	2.177744	-0.004824	-0.005721	0.010534	14.407969	-76.718483	59.043023
57195	9.471978	0.552483	2.181947	-0.007634	-0.006157	0.009188	14.389772	-76.722493	59.062453
57196	9.472726	0.518386	2.191418	-0.007090	-0.011872	0.011520	14.371348	-76.729910	59.082505
57197	9.501156	0.537057	2.194127	-0.005635	-0.008331	0.006002	14.363082	-76.734668	59.092883
57198	9.513527	0.532075	2.121659	-0.008178	-0.000439	0.006856	14.348098	-76.735074	59.108760
57199	9.486744	0.529367	2.175283	-0.014411	0.003153	0.006773	14.326068	-76.733567	59.128122
57200	9.486710	0.528570	2.175626	-0.012920	0.002556	0.003758	14.313865	-76.731869	59.138351
57201	9.458582	0.508266	2.171975	-0.009972	-0.004030	0.005167	14.302473	-76.734120	59.149402
57202	9.514707	0.521573	2.154953	-0.001197	-0.015515	0.004394	14.306340	-76.742544	59.150022
57203	9.500947	0.540665	2.158266	-0.003026	-0.014967	0.000204	14.317187	-76.750164	59.142308
57204	9.501627	0.565860	2.180731	-0.004672	-0.005280	0.001905	14.318779	-76.752554	59.143219
57205	9.500734	0.514723	2.133927	-0.014343	0.004409	0.001837	14.307651	-76.749647	59.151420
57206	9.472885	0.519963	2.154414	-0.017274	0.008928	0.001678	14.294017	-76.744117	59.160556
57207	9.487361	0.525565	2.173514	-0.009008	-0.000979	0.001073	14.290987	-76.744095	59.163580
57208	9.472997	0.519357	2.154065	-0.001113	-0.016328	0.000702	14.304090	-76.752449	59.154759
57209	9.515554	0.519785	2.151645	0.001239	-0.010991	-0.003970	14.324847	-76.757271	59.139367
57210	9.501633	0.539321	2.155578	-0.006483	-0.006801	-0.001035	14.333255	-76.760088	59.132209
57211	9.488025	0.525519	2.170626	-0.015766	0.006262	-0.000084	14.324714	-76.755885	59.136911
57212	9.460073	0.531172	2.191469	-0.017242	0.014324	-0.005756	14.325366	-76.746306	59.131389
57213	9.473947	0.512051	2.187626	-0.010872	0.003710	-0.005615	14.334205	-76.742732	59.121138
57214	9.516265	0.512803	2.186185	-0.002485	-0.011148	-0.007412	14.362549	-76.747057	59.095852
57215	9.501451	0.540428	2.156103	-0.000063	-0.014088	-0.007084	14.391779	-76.753148	59.070980
57216	9.501584	0.540991	2.155375	-0.004132	-0.001462	-0.005707	14.409327	-76.752335	59.055816
57217	9.515577	0.522087	2.150983	-0.014720	0.008502	-0.007864	14.418336	-76.745777	59.043115
57218	9.501637	0.508862	2.167359	-0.015877	0.018680	-0.007580	14.421354	-76.733518	59.035964
57219	9.444929	0.528155	2.174637	-0.008184	0.009095	-0.003080	14.422460	-76.727316	59.035216
57220	9.514763	0.523195	2.154313	-0.008384	0.002030	-0.010226	14.446054	-76.723917	59.011336
57221	9.472940	0.548988	2.178649	-0.001604	-0.007282	-0.007820	14.471987	-76.726122	58.988953
57222	9.529372	0.530782	2.172333	-0.003556	-0.001780	-0.010818	14.502041	-76.724747	58.961278
57223	9.500571	0.544971	2.158839	-0.007120	0.009268	-0.009611	14.518962	-76.717509	58.944930
57224	9.500774	0.512817	2.170207	-0.010968	0.014062	-0.011862	14.537547	-76.707193	58.924674
57225	9.514450	0.552864	2.179951	-0.008968	0.011891	-0.015051	14.564526	-76.697716	58.896865
57226	9.485956	0.534181	2.177543	-0.010055	0.013788	-0.009768	14.578830	-76.687851	58.881545
57227	9.457946	0.540721	2.198307	-0.008422	0.006173	-0.012726	14.604101	-76.681874	58.855824
57228	9.512607	0.563350	2.149551	-0.005754	0.013629	-0.011437	14.624822	-76.671852	58.836439
57229	9.499590	0.543051	2.199426	-0.008055	0.011619	-0.012958	14.647467	-76.662819	58.813641
57230	9.483786	0.545653	2.148371	-0.009567	0.014283	-0.011192	14.664972	-76.652467	58.795315
57231	9.526040	0.572302	2.172293	-0.007690	0.017065	-0.013188	14.684974	-76.640378	58.775437
57232	9.456050	0.545570	2.205253	-0.010224	0.022886	-0.011077	14.696516	-76.625272	58.762853
57233	9.510126	0.542527	2.134221	-0.016404	0.020264	-0.007417	14.696069	-76.612246	58.758852
57234	9.454966	0.546594	2.209643	-0.016955	0.025988	-0.009742	14.698719	-76.595615	58.751442
57235	9.467800	0.535319	2.172926	-0.011003	0.008664	-0.004435	14.701497	-76.589452	58.747348
57236	9.468544	0.528161	2.207100	-0.003163	0.001602	-0.009805	14.727049	-76.586325	58.724517
57237	9.496583	0.548614	2.210998	-0.002249	0.001325	-0.007709	14.746907	-76.583751	58.707980
57238	9.510067	0.562918	2.196442	-0.010405	0.006278	-0.008298	14.761927	-76.578249	58.691709
57239	9.481138	0.576714	2.183563	-0.012961	0.014171	-0.007435	14.767137	-76.568594	58.683955
57240	9.494937	0.557711	2.180265	-0.011154	0.015689	-0.004491	14.767122	-76.558433	58.682701
57241	9.481048	0.544183	2.196361	-0.007684	0.007520	-0.003259	14.769735	-76.553073	58.680697
57242	9.495710	0.575636	2.239238	-0.007173	0.005942	-0.003432	14.775495	-76.548467	58.675849
57243	9.495273	0.550347	2.216188	-0.012352	0.002231	-0.001368	14.774282	-76.546312	58.675009
57244	9.480688	0.544164	2.197918	-0.011970	0.005605	-0.000347	14.770356	-76.542343	58.677295
57245	9.494161	0.557777	2.183625	-0.010987	0.006594	-0.003189	14.771473	-76.537503	58.674907
57246	9.481204	0.536390	2.233116	-0.012521	0.011330	-0.002671	14.769116	-76.530023	58.675255
57247	9.479556	0.576929	2.190364	-0.011589	0.008979	0.000673	14.759497	-76.524425	58.683516
57248	9.494431	0.549673	2.219960	-0.014780	0.005174	-0.001701	14.757359	-76.520497	58.682308
57249	9.465462	0.537370	2.182585	-0.010377	-0.005350	0.002874	14.752084	-76.523157	58.686854
57250	9.480061	0.543125	2.200877	-0.005088	-0.004516	-0.001630	14.761237	-76.524609	58.679746
57251	9.508271	0.562641	2.204275	-0.008480	-0.004639	0.002129	14.758331	-76.526767	58.682956
57252	9.465243	0.569448	2.171275	-0.011381	-0.004266	0.004468	14.749626	-76.528970	58.690504
57253	9.480355	0.541616	2.199982	-0.012002	0.000191	0.007084	14.730306	-76.529175	58.708493
57254	9.480355	0.540653	2.200218	-0.013025	0.003349	0.007431	14.709170	-76.527589	58.727855
57255	9.466760	0.525919	2.215271	-0.011983	-0.001882	0.008330	14.688231	-76.529120	58.747522
57256	9.494941	0.544672	2.219012	-0.009595	-0.000676	0.006165	14.674433	-76.529577	58.761360
57257	9.508706	0.557583	2.203681	-0.007530	-0.009064	0.006717	14.664112	-76.534851	58.772766
57258	9.479709	0.603088	2.179088	-0.009064	-0.004328	0.007238	14.650337	-76.537487	58.786892
57259	9.480875	0.536116	2.199090	-0.007276	-0.000739	0.008938	14.629979	-76.538467	58.808764
57260	9.509052	0.554917	2.202862	-0.012405	-0.001104	0.004813	14.617949	-76.538964	58.819127
57261	9.467687	0.546060	2.237540	-0.014322	0.000260	0.004311	14.603662	-76.538719	58.830605
57262	9.466511	0.527774	2.180374	-0.012898	-0.001599	0.006233	14.588359	-76.539693	58.844043
57263	9.481945	0.525363	2.232591	-0.007097	-0.002345	0.001556	14.586165	-76.540491	58.847310
57264	9.480642	0.565893	2.188540	-0.007481	-0.005717	0.000531	14.589657	-76.542925	58.844614
57265	9.495918	0.538398	2.216361	-0.008299	-0.015807	0.004662	14.587690	-76.551635	58.846905
57266	9.495746	0.571030	2.204868	-0.000200	-0.014545	0.001511	14.598413	-76.559105	58.841063
57267	9.495641	0.545548	2.180275	-0.007462	-0.007790	0.001777	14.598787	-76.562950	58.841524
57268	9.496171	0.570140	2.203267	-0.012368	-0.005250	0.007305	14.583478	-76.566103	58.855279
57269	9.482239	0.530292	2.194613	-0.013938	0.003634	0.005339	14.564967	-76.564129	58.871315
57270	9.510316	0.549101	2.198857	-0.011127	0.004063	0.006690	14.546176	-76.562027	58.889381
57271	9.467550	0.580879	2.189951	-0.009577	-0.002747	0.007410	14.529208	-76.563886	58.906444
57272	9.482678	0.552850	2.218527	-0.008171	-0.002532	0.008086	14.512839	-76.565640	58.923761
57273	9.509708	0.554021	2.164752	-0.009540	-0.006894	0.009899	14.492608	-76.570151	58.944119
57274	9.468451	0.544765	2.199129	-0.012496	-0.000297	0.008504	14.471438	-76.570722	58.963825
57275	9.510843	0.544042	2.197839	-0.007643	-0.006184	0.009154	14.453569	-76.574735	58.982894
57276	9.483220	0.548561	2.217274	-0.010580	-0.001661	0.009004	14.433141	-76.576131	59.002965
57277	9.496591	0.535935	2.178520	-0.010052	-0.005314	0.010073	14.411241	-76.579780	59.024841
57278	9.482709	0.554017	2.182618	-0.005692	-0.011698	0.012142	14.392293	-76.587190	59.046268
57279	9.511675	0.539319	2.195398	-0.004286	-0.011484	0.012817	14.370957	-76.594654	59.070857
57280	9.512375	0.563167	2.218026	-0.010016	-0.009460	0.012560	14.347176	-76.600878	59.094704
57281	9.484409	0.541958	2.213809	-0.012162	-0.000269	0.015710	14.307858	-76.602521	59.133137
57282	9.498102	0.554122	2.199024	-0.009280	0.001431	0.012127	14.279002	-76.602630	59.162635
57283	9.484113	0.513761	2.190444	-0.015889	-0.000410	0.012262	14.245663	-76.603854	59.192736
57284	9.498225	0.551229	2.199219	-0.013991	0.000299	0.011518	14.216193	-76.604499	59.220090
57285	9.512415	0.530578	2.194325	-0.009668	-0.001938	0.011098	14.190030	-76.606398	59.246568
57286	9.470262	0.529076	2.195159	-0.011971	-0.003941	0.009570	14.168754	-76.609119	59.266689
57287	9.512704	0.528179	2.193651	-0.008141	-0.006675	0.010568	14.147478	-76.613570	59.288894
57288	9.485105	0.532799	2.213052	-0.009088	-0.002242	0.005988	14.135199	-76.614842	59.301463
57289	9.457034	0.512501	2.208963	-0.012798	-0.004456	0.003783	14.125767	-76.617110	59.308851
57290	9.485039	0.506325	2.188164	-0.002591	-0.017820	0.004896	14.128911	-76.626884	59.309393
57291	9.499103	0.519669	2.171499	0.002224	-0.019562	0.003056	14.138667	-76.637442	59.305896
57292	9.514088	0.525149	2.188368	-0.000676	-0.019185	0.005395	14.142556	-76.648045	59.306799
57293	9.500344	0.543766	2.191914	-0.010849	-0.009970	0.006769	14.130469	-76.653796	59.318115
57294	9.486875	0.529163	2.206326	-0.012901	-0.001580	0.006235	14.114997	-76.654734	59.331719
57295	9.488356	0.545679	2.263276	-0.008070	-0.005397	0.005635	14.104462	-76.657780	59.343076
57296	9.500328	0.516096	2.166985	-0.003834	-0.006837	0.008903	14.091019	-76.662011	59.359933
57297	9.501489	0.507349	2.199747	-0.011748	-0.011758	0.005915	14.081451	-76.668627	59.368090
57298	9.501698	0.506463	2.199049	-0.006258	-0.003891	0.008582	14.065619	-76.671173	59.385974
57299	9.474172	0.511095	2.218267	-0.006631	-0.009333	0.008793	14.050776	-76.676841	59.402617
57300	9.473437	0.518219	2.184020	-0.008985	-0.005111	0.003541	14.045916	-76.679362	59.407619
57301	9.488185	0.523483	2.202045	-0.006546	-0.010132	0.005101	14.040251	-76.684955	59.414711
57302	9.488518	0.522908	2.200743	-0.002598	-0.017815	0.004887	14.043345	-76.694725	59.415299
57303	9.488006	0.530201	2.165443	-0.003090	-0.018309	0.006306	14.041643	-76.705023	59.420400
57304	9.503858	0.527378	2.216440	-0.010852	-0.009964	0.006767	14.030962	-76.710690	59.430283
57305	9.517200	0.515070	2.177203	-0.008562	-0.005889	0.007054	14.017025	-76.714191	59.444789
57306	9.489761	0.519669	2.196145	-0.009413	-0.013900	0.009923	14.002031	-76.722483	59.459951
57307	9.503723	0.532360	2.180033	-0.005616	-0.012488	0.008434	13.990383	-76.729843	59.473735
57308	9.518193	0.512032	2.173574	-0.005976	-0.020003	0.009883	13.981003	-76.741521	59.485152
57309	9.490908	0.516481	2.191941	-0.007108	-0.011898	0.011450	13.960989	-76.748972	59.506748
57310	9.518804	0.509459	2.171505	-0.011152	-0.001342	0.014119	13.927649	-76.750857	59.539732
57311	9.477086	0.532868	2.196558	-0.015505	0.005049	0.012065	13.891433	-76.748955	59.573187
57312	9.477461	0.498411	2.207075	-0.016421	0.005335	0.009972	13.860970	-76.746546	59.600114
57313	9.477415	0.497314	2.207521	-0.009202	0.002714	0.007203	13.841196	-76.745273	59.620445
57314	9.462958	0.490783	2.188428	-0.007452	-0.011914	0.004242	13.839450	-76.751671	59.623149
57315	9.476859	0.503810	2.172516	-0.004229	-0.010202	0.007864	13.828517	-76.757658	59.636922
57316	9.477122	0.503040	2.171545	-0.009859	-0.011039	0.005165	13.822692	-76.763696	59.642399
57317	9.505607	0.521846	2.174353	-0.008452	-0.010829	0.005839	13.814463	-76.769756	59.650807
57318	9.505284	0.496018	2.149877	-0.008974	-0.007176	0.004779	13.807799	-76.773591	59.657668
57319	9.492359	0.506815	2.187908	-0.007582	-0.004892	0.004215	13.800432	-76.776131	59.665887
57320	9.492481	0.506196	2.187523	-0.011396	-0.004226	0.004463	13.791406	-76.778281	59.673748
57321	9.520182	0.499988	2.167662	-0.011033	0.003289	0.003020	13.780147	-76.776099	59.683899
57322	9.463879	0.518517	2.173918	-0.010496	-0.002438	0.005317	13.768574	-76.777370	59.694906
57323	9.505733	0.492828	2.148625	-0.010875	-0.007879	0.005521	13.757949	-76.781745	59.704704
57324	9.478792	0.522978	2.191568	-0.006585	-0.005974	0.002615	13.757064	-76.784615	59.707034
57325	9.493019	0.503169	2.185885	-0.003247	-0.009210	0.005022	13.752759	-76.789662	59.714916
57326	9.493223	0.502570	2.185138	-0.008976	-0.007173	0.004777	13.746069	-76.793493	59.721801
57327	9.507324	0.482658	2.180003	-0.012440	0.003082	0.002347	13.735703	-76.791333	59.730377
57328	9.492268	0.509466	2.151701	-0.010526	0.001712	0.002841	13.727564	-76.789955	59.737838
57329	9.493266	0.500973	2.185317	-0.011413	-0.002149	0.003224	13.718757	-76.790821	59.745362
57330	9.493328	0.500577	2.185138	-0.009923	-0.002736	0.000207	13.719785	-76.791561	59.743762
57331	9.493465	0.500148	2.184639	-0.008471	-0.008751	0.004594	13.713219	-76.796288	59.750982
57332	9.492710	0.507628	2.150184	-0.002250	-0.010293	0.003420	13.715395	-76.801671	59.752718
57333	9.493938	0.499167	2.182808	-0.007965	-0.010329	0.004413	13.710449	-76.807253	59.758453
57334	9.507128	0.487292	2.143706	-0.009513	-0.001444	0.002481	13.705565	-76.807583	59.763166
57335	9.480038	0.517433	2.187492	-0.013439	0.004168	0.003948	13.690222	-76.805024	59.776368
57336	9.451151	0.472188	2.160431	-0.014847	0.003960	0.003273	13.677279	-76.802452	59.786220
57337	9.508650	0.502731	2.201568	-0.010811	-0.006595	0.000588	13.677610	-76.805436	59.784717
57338	9.493260	0.504482	2.148494	-0.001827	-0.011077	0.006927	13.672136	-76.811730	59.794560
57339	9.536167	0.471143	2.156210	-0.007900	-0.009048	-0.000518	13.678163	-76.815933	59.789000
57340	9.507821	0.542610	2.155951	-0.008106	-0.001235	0.003155	13.672359	-76.816237	59.795486
57341	9.479012	0.497491	2.128465	-0.012426	0.001012	0.003586	13.660256	-76.815389	59.806025
57342	9.493075	0.477645	2.123394	-0.009008	-0.003021	0.002299	13.657001	-76.816571	59.809362
57343	9.495121	0.461324	2.190347	-0.005208	-0.001614	0.000812	13.657146	-76.816813	59.811277
57344	9.480740	0.513523	2.185370	-0.008517	-0.002524	0.000881	13.657256	-76.817527	59.811447
57345	9.493763	0.502052	2.146839	-0.010461	0.002998	-0.002084	13.658566	-76.814818	59.809121
57346	9.522374	0.488328	2.160679	-0.005715	-0.000035	0.000993	13.658576	-76.814160	59.811043
57347	9.494731	0.493758	2.180587	-0.011349	-0.000863	-0.001705	13.660768	-76.813637	59.807476
57348	9.494781	0.493931	2.180330	-0.006441	-0.005481	-0.006011	13.680153	-76.815063	59.789072
57349	9.507900	0.483002	2.141254	-0.002215	-0.004860	-0.003987	13.695275	-76.816463	59.777370
57350	9.508544	0.508424	2.164672	-0.007453	-0.002323	-0.005647	13.711392	-76.816179	59.761726
57351	9.493880	0.503028	2.146094	-0.010887	0.003785	-0.005594	13.720373	-76.812543	59.751410
57352	9.494134	0.470362	2.156522	-0.012326	0.007729	-0.008740	13.735203	-76.806242	59.734221
57353	9.465754	0.509784	2.167812	-0.009569	0.016445	-0.012333	13.753525	-76.794649	59.715277
57354	9.493052	0.504983	2.149297	-0.008622	0.012005	-0.007770	13.765655	-76.786099	59.703038
57355	9.493785	0.497656	2.183817	-0.010837	0.007146	-0.011759	13.787250	-76.779755	59.680138
57356	9.493143	0.531889	2.174701	-0.002223	0.006806	-0.015093	13.823370	-76.773093	59.647021
57357	9.464846	0.513637	2.170864	-0.006275	-0.007061	-0.013399	13.859729	-76.774419	59.611007
57358	9.507147	0.515032	2.169242	-0.002081	-0.002288	-0.013845	13.898250	-76.772978	59.575508
57359	9.492455	0.510387	2.150655	-0.008417	0.004196	-0.011449	13.922141	-76.768307	59.551259
57360	9.521456	0.522631	2.188791	-0.010937	0.010013	-0.009303	13.937604	-76.760644	59.534232
57361	9.506588	0.517578	2.171081	-0.013755	0.009600	-0.010654	13.953365	-76.753072	59.515254
57362	9.477703	0.531740	2.158286	-0.014231	0.007026	-0.008002	13.965587	-76.747248	59.499617
57363	9.492718	0.504890	2.186793	-0.003522	-0.007931	-0.007125	13.989197	-76.749900	59.478573
57364	9.477839	0.532893	2.157406	-0.002507	-0.011088	-0.007490	14.017579	-76.754214	59.453237
57365	9.506684	0.519976	2.170087	-0.004423	-0.009716	-0.007983	14.043736	-76.757744	59.429158
57366	9.506753	0.520537	2.169651	-0.006060	-0.000038	-0.006212	14.060556	-76.756089	59.413608
57367	9.492089	0.515094	2.151149	-0.009975	0.003494	-0.003504	14.065167	-76.752895	59.408357
57368	9.493512	0.532173	2.208929	-0.011891	0.004865	-0.003997	14.070509	-76.748822	59.401166
57369	9.478333	0.501409	2.166631	-0.008025	-0.002031	-0.000543	14.072540	-76.749099	59.400382
57370	9.493483	0.532244	2.209039	-0.005143	-0.000329	-0.004120	14.085107	-76.747896	59.389741
57371	9.520199	0.535100	2.155316	-0.005520	-0.005769	-0.003927	14.098728	-76.749789	59.378123
57372	9.535854	0.532777	2.207325	-0.007125	-0.000246	0.000316	14.099643	-76.749158	59.378286
57373	9.492537	0.540327	2.175266	-0.011056	0.005362	0.001789	14.090037	-76.745662	59.386569
57374	9.505970	0.495522	2.146956	-0.011547	0.004864	0.003207	14.078575	-76.742594	59.396845
57375	9.478770	0.525575	2.191043	-0.010041	0.002206	0.001423	14.072285	-76.740803	59.402292
57376	9.493335	0.531008	2.209971	-0.007633	0.001333	0.000498	14.071547	-76.739320	59.403854
57377	9.506472	0.519592	2.171109	-0.005585	-0.007058	0.000999	14.074326	-76.742607	59.402655
57378	9.492926	0.505665	2.185715	-0.009959	0.001420	-0.002271	14.078732	-76.740689	59.397562
57379	9.507480	0.511310	2.204640	-0.004324	0.002245	0.000432	14.078046	-76.738730	59.401029
57380	9.492376	0.538646	2.176385	-0.009959	0.001420	-0.002271	14.082451	-76.736812	59.395938
57381	9.492818	0.505434	2.186234	-0.007125	-0.000245	0.000314	14.081886	-76.736225	59.397426
57382	9.519992	0.532921	2.156771	-0.006241	0.003618	-0.000060	14.081908	-76.733395	59.399026
57383	9.506326	0.519017	2.171887	-0.008551	0.001627	-0.001595	14.083917	-76.731499	59.397759
57384	9.492678	0.505190	2.186899	-0.011369	0.001215	-0.002947	14.089226	-76.729601	59.390909
57385	9.492138	0.538425	2.177476	-0.006668	0.004410	-0.003570	14.095327	-76.725881	59.386389
57386	9.492522	0.505398	2.187531	-0.009960	0.001421	-0.002272	14.099726	-76.723962	59.381304
57387	9.463797	0.519130	2.174130	-0.008978	0.002420	-0.005106	14.109319	-76.721127	59.371759
57388	9.506940	0.511613	2.206898	-0.004277	0.005616	-0.005727	14.122621	-76.716394	59.360871
57389	9.478699	0.550577	2.217422	-0.008470	0.000842	-0.005290	14.133883	-76.714406	59.349405
57390	9.463628	0.520356	2.174574	-0.004929	-0.008128	-0.007811	14.159851	-76.717016	59.325118
57391	9.492455	0.507277	2.187382	0.000723	-0.009382	-0.003873	14.179086	-76.720911	59.310753
57392	9.505226	0.529653	2.138193	-0.002603	-0.008216	-0.005042	14.199942	-76.723955	59.293090
57393	9.505867	0.555072	2.161385	-0.006438	-0.005471	-0.006026	14.217829	-76.725372	59.276117
57394	9.463459	0.497681	2.148664	-0.003659	0.008704	-0.016997	14.256121	-76.717331	59.239916
57395	9.451168	0.502201	2.221426	-0.004034	0.003264	-0.016809	14.295507	-76.712372	59.202591
57396	9.478348	0.531349	2.191474	0.000461	-0.010155	-0.014773	14.342178	-76.715104	59.160205
57397	9.465012	0.519050	2.204831	0.007330	-0.020288	-0.016128	14.400666	-76.723289	59.109942
57398	9.505674	0.537337	2.134283	0.010772	-0.026392	-0.016191	14.466484	-76.734808	59.053956
57399	9.506580	0.506121	2.141773	0.005490	-0.019697	-0.020316	14.533506	-76.742051	58.993976
57400	9.507797	0.558241	2.188044	0.008133	-0.008109	-0.021436	14.599145	-76.742646	58.936624
57401	9.520757	0.549344	2.149263	-0.003004	0.005558	-0.024573	14.655957	-76.735228	58.881551
57402	9.479276	0.542687	2.184670	-0.007472	0.007289	-0.015516	14.689222	-76.728124	58.848272
57403	9.507752	0.530669	2.198887	-0.008292	0.004722	-0.020072	14.732790	-76.721817	58.803998
57404	9.464367	0.540347	2.166466	0.007136	-0.007024	-0.019836	14.793351	-76.721999	58.751272
57405	9.493283	0.528773	2.178682	0.008334	-0.021352	-0.017736	14.857136	-76.730451	58.695789
57406	9.507660	0.569457	2.185746	0.008723	-0.017988	-0.016692	14.918117	-76.737141	58.643568
57407	9.521917	0.551799	2.179608	0.000317	-0.003131	-0.014781	14.959059	-76.735916	58.607069
57408	9.521798	0.553124	2.179791	-0.010788	0.006371	-0.015450	14.990688	-76.729289	58.573519
57409	9.492699	0.567843	2.167536	-0.009663	0.020614	-0.014783	15.010949	-76.714914	58.552088
57410	9.493360	0.560962	2.202448	-0.007480	0.007289	-0.015518	15.043975	-76.707762	58.519047
57411	9.493210	0.561934	2.202847	-0.006987	0.000259	-0.008308	15.063349	-76.705606	58.500290
57412	9.478171	0.532278	2.159966	0.000441	-0.008065	-0.016013	15.111720	-76.706866	58.456145
57413	9.492252	0.572561	2.168254	0.002259	-0.006574	-0.013059	15.151840	-76.707768	58.421568
57414	9.520979	0.560127	2.181580	-0.007908	0.000552	-0.010402	15.176834	-76.705089	58.396527
57415	9.520267	0.593955	2.172169	-0.009930	0.004782	-0.008430	15.191911	-76.700402	58.380425
57416	9.478443	0.560919	2.183681	-0.010930	0.005857	-0.006828	15.203424	-76.695324	58.367458
57417	9.478232	0.561547	2.184435	-0.011383	0.008733	-0.011572	15.222485	-76.687977	58.346380
57418	9.477023	0.570404	2.151389	-0.004170	0.000675	-0.006957	15.241446	-76.685743	58.329738
57419	9.492060	0.601657	2.193775	-0.001716	-0.004350	-0.005418	15.259983	-76.686550	58.314950
57420	9.519344	0.571720	2.149685	-0.009353	-0.003031	-0.004918	15.273567	-76.686669	58.300782
57421	9.491703	0.577278	2.169404	-0.006535	-0.002615	-0.003566	15.283913	-76.686797	58.291620
57422	9.478175	0.563525	2.184172	-0.006148	0.000746	-0.002519	15.291320	-76.685190	58.285686
57423	9.463977	0.582612	2.189557	-0.010558	0.003762	0.001613	15.283197	-76.682575	58.293152
57424	9.505753	0.557817	2.164764	-0.011865	0.000696	-0.001528	15.285045	-76.681146	58.289566
57425	9.491530	0.577014	2.170234	-0.009091	0.005270	-0.002640	15.286731	-76.677055	58.287700
57426	9.478004	0.563112	2.185022	-0.006491	-0.006773	-0.001102	15.295430	-76.679818	58.280238
57427	9.477120	0.571274	2.150735	-0.005468	-0.009927	-0.001473	15.306168	-76.684301	58.271234
57428	9.506104	0.557701	2.163253	0.000702	-0.012753	0.002278	15.314925	-76.690879	58.267947
57429	9.521367	0.588163	2.204896	-0.002752	-0.006653	0.002344	15.316227	-76.694131	58.270169
57430	9.533477	0.584675	2.132437	-0.012002	0.000175	0.007099	15.298172	-76.694294	58.286953
57431	9.506432	0.555958	2.162258	-0.010615	0.002462	0.006543	15.279343	-76.693141	58.305271
57432	9.477653	0.568641	2.149083	-0.009228	0.004749	0.005987	15.262559	-76.690606	58.322383
57433	9.492808	0.540370	2.177906	-0.014434	0.003123	0.006793	15.240542	-76.689125	58.341667
57434	9.506734	0.578512	2.187395	-0.014377	0.004425	0.001864	15.230658	-76.686146	58.348657
57435	9.492113	0.572185	2.168959	-0.006286	0.000226	0.006105	15.216755	-76.686162	58.364449
57436	9.492128	0.571505	2.169075	-0.011026	0.001183	0.004262	15.205256	-76.685335	58.375072
57437	9.506695	0.576461	2.188105	-0.011127	0.004041	0.006727	15.184717	-76.683332	58.394967
57438	9.491579	0.545067	2.146007	-0.010149	0.005047	0.003893	15.172138	-76.680311	58.407216
57439	9.506103	0.550064	2.165212	-0.012537	0.003835	0.006050	15.152521	-76.678318	58.425177
57440	9.492406	0.593391	2.194530	-0.010106	0.000888	0.006354	15.136859	-76.677964	58.440620
57441	9.491910	0.567503	2.171077	-0.012639	0.006693	0.008516	15.109623	-76.674756	58.466594
57442	9.491830	0.566468	2.171696	-0.014948	0.004704	0.006976	15.087337	-76.672381	58.485994
57443	9.492892	0.557032	2.205465	-0.010656	-0.000918	0.012697	15.056286	-76.674002	58.516888
57444	9.505430	0.577859	2.157331	-0.010698	0.003243	0.010236	15.029746	-76.672916	58.543162
57445	9.463749	0.543166	2.168458	-0.013007	0.001255	0.008696	15.005343	-76.672731	58.565759
57446	9.492926	0.553444	2.206222	-0.008799	0.003953	0.009496	14.981184	-76.671137	58.590705
57447	9.478327	0.546655	2.187799	-0.013008	0.001256	0.008695	14.956788	-76.670945	58.613203
57448	9.464202	0.565050	2.193184	-0.007719	0.002103	0.004196	14.946793	-76.669587	58.624228
57449	9.492878	0.550949	2.207053	-0.011049	0.003270	0.003028	14.935500	-76.667440	58.634530
57450	9.463774	0.538987	2.169393	-0.005637	-0.008367	0.005907	14.929226	-76.672131	58.642957
57451	9.505761	0.571996	2.157439	-0.004005	-0.015956	0.002878	14.934293	-76.680605	58.640554
57452	9.507081	0.563403	2.189829	0.000572	-0.007819	0.003501	14.936854	-76.684637	58.643557
57453	9.520819	0.576829	2.174363	-0.007557	-0.006994	0.005417	14.928366	-76.688524	58.653016
57454	9.492812	0.556469	2.169989	-0.012397	-0.003175	0.006041	14.914650	-76.690359	58.665109
57455	9.492885	0.555794	2.169842	-0.006699	-0.001050	0.003822	14.906682	-76.690720	58.674449
57456	9.479414	0.541244	2.184431	-0.008578	-0.003839	0.005791	14.896149	-76.692885	58.685520
57457	9.507245	0.535069	2.163956	-0.007127	-0.007795	0.008925	14.880196	-76.697728	58.702812
57458	9.479705	0.539549	2.183588	-0.009108	-0.000180	0.004749	14.869513	-76.697712	58.713725
57459	9.507839	0.558604	2.187769	-0.009149	0.003981	0.002292	14.860581	-76.695060	58.722717
57460	9.465014	0.532904	2.165480	-0.012459	0.003069	0.002354	14.851572	-76.692893	58.729937
57461	9.492648	0.527193	2.145746	-0.009539	0.000623	0.001239	14.846967	-76.691946	58.734191
57462	9.465494	0.557143	2.189627	-0.006620	-0.001824	0.000125	14.849563	-76.692162	58.732923
57463	9.507826	0.557439	2.188123	-0.005110	-0.004475	-0.001667	14.857463	-76.693612	58.726967
57464	9.478703	0.546361	2.150228	-0.005031	-0.005249	-0.005364	14.875952	-76.694917	58.710304
57465	9.522127	0.538668	2.181977	-0.004600	-0.006052	-0.001855	14.885571	-76.697213	58.703023
57466	9.478341	0.579762	2.139726	-0.007520	-0.003605	-0.000740	14.890787	-76.698287	58.698534
57467	9.493582	0.552149	2.167723	-0.007520	-0.003605	-0.000740	14.894623	-76.699392	58.695160
57468	9.508212	0.557836	2.186343	-0.008971	0.000353	-0.003873	14.903880	-76.697812	58.685664
57469	9.493578	0.552186	2.167734	-0.009050	0.001127	-0.000176	14.902552	-76.696380	58.687162
57470	9.507068	0.565938	2.153271	-0.011480	0.004077	-0.000476	14.900095	-76.693239	58.688226
57471	9.479960	0.538060	2.182847	-0.006031	-0.004174	-0.003762	14.912231	-76.694210	58.677530
57472	9.494096	0.577186	2.191539	-0.003111	-0.006621	-0.004877	14.931543	-76.696342	58.661153
57473	9.494884	0.544334	2.200052	-0.001540	-0.015514	-0.002988	14.951527	-76.703702	58.645234
57474	9.494050	0.552747	2.165521	-0.006501	-0.006759	-0.001118	14.960193	-76.706465	58.637800
57475	9.521800	0.547657	2.145066	-0.006953	-0.003873	-0.005854	14.976514	-76.706957	58.622271
57476	9.509839	0.550534	2.217159	-0.007562	0.000558	-0.003195	14.984858	-76.705362	58.614544
57477	9.479490	0.547780	2.146396	-0.008993	0.002436	-0.005100	14.994288	-76.702474	58.604540
57478	9.522787	0.540241	2.178704	-0.006974	-0.001791	-0.007082	15.013539	-76.701601	58.585951
57479	9.494656	0.521006	2.174565	-0.006542	-0.002596	-0.003573	15.023948	-76.701722	58.576833
57480	9.507150	0.543590	2.126109	-0.008874	-0.002499	-0.006343	15.040823	-76.701348	58.559566
57481	9.466443	0.560181	2.184743	-0.006074	-0.000010	-0.006217	15.056063	-76.699645	58.545622
57482	9.479974	0.574432	2.169931	-0.011773	-0.002134	-0.004000	15.065559	-76.699417	58.534231
57483	9.508768	0.561040	2.183103	-0.005522	-0.005749	-0.003952	15.079432	-76.701224	58.522058
57484	9.480146	0.574964	2.169040	-0.004522	-0.006821	-0.005557	15.099688	-76.703355	58.503879
57485	9.507982	0.570043	2.148147	-0.003969	-0.012561	-0.003294	15.117207	-76.709030	58.489049
57486	9.509273	0.561734	2.180724	-0.006989	-0.007263	0.000295	15.122640	-76.712277	58.484650
57487	9.522845	0.575421	2.165847	-0.010562	0.003775	0.001621	15.114563	-76.709650	58.491913
57488	9.509674	0.585709	2.205329	-0.015502	0.010446	0.004723	15.093555	-76.703763	58.509671
57489	9.495001	0.521503	2.172943	-0.015305	0.004743	-0.000221	15.086481	-76.700323	58.513106
57490	9.480170	0.573510	2.169316	-0.010173	0.007133	0.002677	15.075426	-76.695962	58.523775
57491	9.495806	0.570216	2.221917	-0.009110	-0.000185	0.004749	15.063373	-76.695989	58.535974
57492	9.480155	0.572422	2.169670	-0.010931	-0.001662	0.001789	15.059506	-76.696362	58.538811
57493	9.494304	0.552805	2.164393	-0.012853	-0.000288	0.001302	15.053453	-76.695930	58.542464
57494	9.481226	0.563172	2.203412	-0.011563	0.004849	0.003226	15.041768	-76.692913	58.552962
57495	9.493680	0.526893	2.141250	-0.015384	0.005515	0.003476	15.025542	-76.689589	58.565792
57496	9.508657	0.556684	2.184701	-0.012584	0.008004	0.003605	15.010417	-76.684881	58.579225
57497	9.479793	0.569721	2.171964	-0.014895	0.006022	0.002060	14.997457	-76.681068	58.589271
57498	9.479198	0.544337	2.148562	-0.008742	0.005256	0.004580	14.983993	-76.678024	58.603259
57499	9.492587	0.557712	2.134658	-0.016427	0.010755	0.002630	14.965910	-76.671673	58.617309
57500	9.479362	0.567709	2.174371	-0.015975	0.007864	0.007362	14.940193	-76.667595	58.639632
57501	9.494377	0.539238	2.203493	-0.011685	0.009786	0.004472	14.921163	-76.662050	58.657659
57502	9.479068	0.566087	2.176071	-0.014466	0.005216	0.005565	14.902180	-76.659169	58.673950
57503	9.521234	0.565740	2.175461	-0.012075	0.006431	0.003413	14.887496	-76.655325	58.687216
57504	9.478849	0.564660	2.177396	-0.016387	0.006593	0.005077	14.867714	-76.651608	58.703197
57505	9.521017	0.564167	2.176816	-0.013056	0.005420	0.006242	14.846511	-76.648739	58.722481
57506	9.479216	0.529809	2.188088	-0.013977	0.005725	0.004149	14.830831	-76.645364	58.735665
57507	9.506199	0.557181	2.159382	-0.015408	0.007607	0.002246	14.816262	-76.640696	58.746783
57508	9.493021	0.567194	2.198796	-0.014958	0.004713	0.006977	14.794062	-76.638294	58.766091
57509	9.478399	0.560720	2.180372	-0.010116	0.000890	0.006347	14.777139	-76.637943	58.782636
57510	9.493025	0.565245	2.199278	-0.013508	0.000748	0.010102	14.750928	-76.638190	58.806922
57511	9.492558	0.539205	2.175453	-0.014019	0.002326	0.010293	14.721685	-76.637615	58.833975
57512	9.506136	0.551870	2.161024	-0.015921	0.001620	0.011029	14.691396	-76.637508	58.861030
57513	9.492049	0.569763	2.166579	-0.015430	0.002127	0.009614	14.663058	-76.636940	58.886146
57514	9.479060	0.521129	2.190849	-0.013080	-0.000062	0.013608	14.629405	-76.638133	58.918333
57515	9.465049	0.538976	2.196089	-0.013901	-0.002605	0.009039	14.606156	-76.640101	58.939162
57516	9.520419	0.527479	2.156222	-0.013039	0.003342	0.007463	14.584792	-76.638512	58.958742
57517	9.478103	0.526149	2.157904	-0.013549	0.004921	0.007655	14.560416	-76.636102	58.981095
57518	9.478532	0.549983	2.182526	-0.015881	0.005028	0.004883	14.542438	-76.633203	58.995521
57519	9.492534	0.530013	2.177813	-0.013979	0.005735	0.004147	14.525524	-76.629835	59.009952
57520	9.478421	0.548604	2.183357	-0.011431	-0.002154	0.003188	14.518404	-76.630675	59.015838
57521	9.478571	0.547966	2.182866	-0.010374	-0.009479	0.005247	14.510193	-76.635903	59.023246
57522	9.493320	0.552972	2.201127	-0.007117	-0.002319	0.001526	14.509521	-76.636595	59.025045
57523	9.493357	0.552426	2.201101	-0.011530	0.000695	0.005665	14.493506	-76.636241	59.039862
57524	9.493407	0.551664	2.201078	-0.010511	-0.002460	0.005280	14.482206	-76.637550	59.050585
57525	9.491907	0.534753	2.143539	-0.011039	0.001203	0.004251	14.469472	-76.636710	59.062187
57526	9.465281	0.530785	2.197085	-0.007708	0.000024	0.005416	14.457962	-76.636659	59.074777
57527	9.492488	0.558289	2.167640	-0.010431	-0.003223	0.001580	14.454468	-76.637893	59.077547
57528	9.478983	0.543790	2.182122	-0.010021	-0.001952	0.003865	14.446443	-76.638716	59.085193
57529	9.478975	0.543449	2.182240	-0.007664	0.003431	-0.000725	14.445944	-76.635927	59.086266
57530	9.479398	0.510237	2.191952	-0.011407	0.003342	-0.004176	14.452718	-76.632663	59.077885
57531	9.492872	0.524268	2.177733	-0.008174	0.005009	-0.000532	14.450529	-76.629024	59.080539
57532	9.465578	0.554307	2.222404	-0.010935	0.005935	-0.006811	14.462156	-76.623944	59.067448
57533	9.479074	0.510863	2.193203	-0.008387	-0.001955	-0.007775	14.480920	-76.623134	59.048307
57534	9.478626	0.544840	2.183410	-0.002034	-0.008432	-0.010208	14.514221	-76.625534	59.018179
57535	9.493821	0.518248	2.210911	0.003654	-0.004227	-0.013631	14.554883	-76.625137	58.984538
57536	9.492225	0.561275	2.168025	-0.008345	0.001454	-0.013915	14.587232	-76.621512	58.951673
57537	9.534793	0.529514	2.176839	-0.006190	0.012534	-0.013547	14.611906	-76.611819	58.928185
57538	9.478049	0.549446	2.184761	-0.017170	0.015059	-0.014218	14.631583	-76.600601	58.903146
57539	9.492817	0.522813	2.214147	-0.008503	0.010561	-0.015099	14.659675	-76.591777	58.874232
57540	9.490914	0.566046	2.172517	-0.005619	0.012286	-0.018661	14.697900	-76.581445	58.836926
57541	9.491576	0.559164	2.207075	-0.005109	0.010709	-0.018854	14.736507	-76.571979	58.799235
57542	9.477154	0.579774	2.213354	-0.009896	0.008278	-0.014561	14.765113	-76.564455	58.769296
57543	9.462854	0.542099	2.204764	-0.010898	0.009348	-0.012955	14.787435	-76.556600	58.745277
57544	9.476243	0.557166	2.190632	-0.002188	0.000678	-0.011394	14.817714	-76.553743	58.718157
57545	9.476234	0.558148	2.190418	-0.005870	-0.005670	-0.011187	14.847985	-76.554463	58.688491
57546	9.517574	0.567790	2.155229	-0.005931	-0.006998	-0.006267	14.868949	-76.556604	58.668743
57547	9.504428	0.578873	2.194040	-0.006218	0.007041	-0.006187	14.879656	-76.551013	58.658952
57548	9.518831	0.584487	2.213563	-0.013928	0.007054	-0.000775	14.874673	-76.546179	58.661172
57549	9.476369	0.583831	2.215650	-0.014951	0.010210	-0.000388	14.864992	-76.539684	58.667968
57550	9.490357	0.564239	2.211020	-0.011065	0.003279	0.003025	14.855184	-76.537499	58.676836
57551	9.490396	0.563709	2.210989	-0.008999	-0.005119	0.003470	14.849401	-76.540061	58.682906
57552	9.475945	0.557616	2.191803	-0.011413	-0.004249	0.004397	14.840837	-76.542246	58.690290
57553	9.489573	0.571088	2.177050	-0.007220	0.000522	0.003999	14.831362	-76.541769	58.700567
57554	9.490502	0.562175	2.210925	-0.012027	0.007765	-0.001507	14.828746	-76.536433	58.701473
57555	9.489351	0.570352	2.178213	-0.013991	0.005728	0.004145	14.811947	-76.533077	58.716064
57556	9.476732	0.547132	2.226665	-0.014788	0.001107	0.000789	14.806518	-76.531765	58.718236
57557	9.475780	0.555263	2.193117	-0.009000	-0.005118	0.003468	14.800717	-76.534328	58.724472
57558	9.490477	0.560289	2.211508	-0.008510	-0.004608	0.002054	14.799451	-76.536368	58.726062
57559	9.489549	0.568321	2.177879	-0.011026	-0.000894	0.005462	14.785328	-76.536878	58.739171
57560	9.475965	0.553421	2.192779	-0.013071	0.005418	0.006239	14.765643	-76.533974	58.757014
57561	9.490031	0.533325	2.187892	-0.014463	0.003133	0.006776	14.744076	-76.532442	58.775733
57562	9.475886	0.551454	2.193620	-0.013543	0.002822	0.008870	14.719628	-76.531357	58.798196
57563	9.490497	0.555984	2.212510	-0.010516	-0.002470	0.005266	14.707228	-76.532705	58.810245
57564	9.475961	0.549850	2.193696	-0.012459	0.000998	0.003562	14.696793	-76.531856	58.818937
57565	9.490966	0.579390	2.236953	-0.012479	0.003087	0.002343	14.686658	-76.529699	58.827468
57566	9.474887	0.557221	2.160907	-0.015876	0.002938	0.006094	14.667233	-76.528143	58.843390
57567	9.489993	0.528497	2.189229	-0.015365	0.001360	0.005899	14.648220	-76.527465	58.859538
57568	9.461794	0.565952	2.200067	-0.011520	-0.001401	0.006871	14.632121	-76.528424	58.874607
57569	9.490599	0.551272	2.213250	-0.010990	-0.005067	0.007893	14.614902	-76.531594	58.891261
57570	9.504270	0.564578	2.198448	-0.011949	-0.000577	0.003365	14.606170	-76.531586	58.898502
57571	9.490295	0.524960	2.188770	-0.011092	-0.002223	0.010376	14.581490	-76.533526	58.922572
57572	9.518984	0.567969	2.217204	-0.015857	0.000853	0.007311	14.560519	-76.533294	58.940094
57573	9.461711	0.536619	2.175399	-0.012933	-0.001595	0.006189	14.544077	-76.534284	58.954204
57574	9.490942	0.546430	2.212983	-0.013016	-0.000841	0.009889	14.519778	-76.535359	58.976823
57575	9.491048	0.545250	2.212817	-0.013406	-0.004193	0.008817	14.498471	-76.538173	58.996121
57576	9.462981	0.524641	2.208439	-0.013936	-0.000526	0.007796	14.478299	-76.538769	59.013954
57577	9.490743	0.518617	2.188338	-0.012424	-0.003171	0.005992	14.463496	-76.540602	59.027515
57578	9.505371	0.581336	2.221999	-0.007123	-0.002315	0.001511	14.462863	-76.541290	59.029271
57579	9.448531	0.575153	2.204423	-0.015796	0.002193	0.002393	14.451258	-76.539635	59.037049
57580	9.491393	0.541660	2.212220	-0.014637	-0.007982	0.001947	14.448693	-76.543529	59.036366
57581	9.477472	0.502667	2.202005	-0.005610	-0.004961	-0.000294	14.453436	-76.545456	59.033805
57582	9.505257	0.555310	2.196540	-0.005592	-0.007049	0.000922	14.457876	-76.548686	59.031247
57583	9.491856	0.540898	2.210420	-0.010811	-0.008657	0.001701	14.457261	-76.552944	59.030821
57584	9.491977	0.540636	2.209965	-0.008044	-0.001999	-0.000582	14.460766	-76.553157	59.027780
57585	9.490948	0.549269	2.176671	-0.010495	0.003051	-0.002086	14.462122	-76.550378	59.025100
57586	9.477386	0.534986	2.191216	-0.011341	-0.004990	0.000681	14.462595	-76.552431	59.023234
57587	9.477937	0.559327	2.215262	-0.008554	-0.000420	-0.000386	14.463169	-76.551825	59.022743
57588	9.490587	0.524317	2.151944	-0.002705	-0.005320	-0.002634	14.476482	-76.553587	59.012763
57589	9.491676	0.573540	2.199971	-0.008435	-0.005350	-0.001658	14.483040	-76.555533	59.006472
57590	9.476607	0.543550	2.156846	-0.010496	0.003052	-0.002085	14.485600	-76.552728	59.002959
57591	9.477014	0.567999	2.181503	-0.011498	0.004119	-0.000477	14.482025	-76.549587	59.005025
57592	9.478472	0.525799	2.224395	-0.012400	0.002346	-0.001355	14.482223	-76.547279	59.002818
57593	9.491507	0.515445	2.185773	-0.008492	0.000919	-0.005303	14.493516	-76.545213	58.991782
57594	9.478874	0.550736	2.248935	-0.005157	-0.000269	-0.004137	14.505878	-76.543955	58.981335
57595	9.476378	0.543963	2.157746	-0.004136	-0.003425	-0.004532	14.520398	-76.544425	58.968760
57596	9.464357	0.545882	2.229679	-0.009867	-0.003455	-0.003556	14.530625	-76.545017	58.957733
57597	9.504136	0.539268	2.137290	-0.004237	-0.000585	-0.002044	14.537659	-76.544264	58.952542
57598	9.464387	0.546298	2.229448	-0.006980	-0.001725	-0.007109	14.556735	-76.543384	58.934117
57599	9.492013	0.541685	2.209551	-0.004276	0.003595	-0.004472	14.566849	-76.539962	58.926255
57600	9.477855	0.561293	2.215117	-0.008393	-0.001919	-0.007791	14.586804	-76.539090	58.906092
57601	9.491971	0.542592	2.209510	-0.007472	-0.002236	-0.005698	14.601416	-76.538726	58.891420
57602	9.492099	0.542936	2.208874	-0.000661	-0.011631	-0.003428	14.621559	-76.543866	58.875620
57603	9.519438	0.571490	2.178798	-0.001683	-0.008474	-0.003032	14.637150	-76.547332	58.863905
57604	9.463665	0.557102	2.194272	-0.008575	0.001669	-0.001600	14.640490	-76.545361	58.860720
57605	9.464102	0.523809	2.203825	-0.011029	0.006720	-0.003100	14.641734	-76.540386	58.858417
57606	9.463419	0.557230	2.195303	-0.006691	0.004467	-0.003544	14.648959	-76.536584	58.852347
57607	9.478061	0.562771	2.213858	-0.001663	-0.010564	-0.001820	14.662981	-76.541392	58.841839
57608	9.463819	0.557543	2.193497	0.002835	-0.021926	-0.001113	14.686041	-76.552570	58.825101
57609	9.506498	0.558228	2.190420	0.006111	-0.016844	-0.003589	14.712523	-76.560586	58.807105
57610	9.492653	0.577431	2.194734	-0.004669	-0.007366	0.003008	14.712908	-76.564293	58.809260
57611	9.493282	0.543717	2.203595	-0.013385	0.001321	0.001472	14.705374	-76.562990	58.814548
57612	9.492780	0.519031	2.179386	-0.005651	-0.000779	-0.002725	14.714483	-76.562212	58.807155
57613	9.451556	0.567905	2.228890	0.005360	-0.005409	-0.000842	14.727118	-76.564310	58.802529
57614	9.479536	0.563107	2.207452	0.001932	-0.023696	-0.001995	14.752872	-76.576335	58.782491
57615	9.508853	0.549689	2.218101	0.008311	-0.032258	-0.003235	14.789305	-76.592942	58.755078
57616	9.493832	0.553639	2.162945	0.013019	-0.029070	-0.003819	14.829062	-76.607671	58.727177
57617	9.508376	0.592702	2.170401	-0.000113	-0.017382	-0.001202	14.846878	-76.616337	58.713478
57618	9.510301	0.550642	2.211649	-0.007906	-0.009014	-0.000642	14.854951	-76.620422	58.705823
57619	9.509372	0.559122	2.177679	-0.005689	-0.004210	0.003407	14.850717	-76.622468	58.711882
57620	9.468351	0.549555	2.211746	-0.001332	-0.008552	0.004172	14.851064	-76.627003	58.716041
57621	9.495705	0.519764	2.166430	-0.006886	-0.012168	-0.001039	14.861411	-76.632801	58.706915
57622	9.495895	0.577703	2.180593	0.000236	-0.009853	-0.002553	14.879139	-76.637068	58.694132
57623	9.496038	0.577818	2.179939	-0.002296	-0.004056	-0.000346	14.885486	-76.638481	58.691295
57624	9.495567	0.611100	2.170432	-0.008438	-0.005347	-0.001655	14.893368	-76.640384	58.683524
57625	9.510930	0.525147	2.182614	-0.008005	-0.006176	0.001848	14.892698	-76.643283	58.685023
57626	9.484037	0.554491	2.226130	0.001180	-0.012259	0.000750	14.904775	-76.649368	58.678604
57627	9.496707	0.577369	2.177139	-0.002668	-0.009493	-0.000212	14.913949	-76.653812	58.673124
57628	9.495897	0.586123	2.142468	-0.002020	-0.018085	-0.000477	14.930697	-76.662940	58.660021
57629	9.468697	0.533207	2.145639	-0.001096	-0.018402	0.001615	14.942094	-76.672585	58.653183
57630	9.540600	0.544245	2.180345	0.000276	-0.014028	-0.000131	14.956853	-76.679517	58.643477
57631	9.484519	0.563144	2.185933	-0.002573	-0.012328	-0.002703	14.973789	-76.685155	58.629497
57632	9.511146	0.567025	2.131824	-0.007558	-0.001485	-0.001986	14.980572	-76.684869	58.623375
57633	9.484635	0.563321	2.185383	-0.008089	0.002181	-0.002999	14.985937	-76.682434	58.618804
57634	9.456487	0.543978	2.181069	-0.005538	-0.005703	-0.003997	15.001220	-76.684183	58.605138
57635	9.498986	0.544695	2.178628	0.001371	-0.017928	-0.004235	15.027597	-76.692683	58.583481
57636	9.484154	0.573337	2.148829	0.004879	-0.022697	-0.009270	15.071905	-76.703048	58.546123
57637	9.513320	0.560461	2.160021	0.001955	-0.020249	-0.008139	15.109237	-76.712250	58.514358
57638	9.513597	0.561190	2.158613	-0.003031	-0.009407	-0.007419	15.136366	-76.715530	58.489996
57639	9.499510	0.580861	2.163944	-0.009037	0.004586	-0.006299	15.147399	-76.711265	58.478937
57640	9.484707	0.576011	2.145670	-0.012791	0.004516	-0.009749	15.165559	-76.706493	58.458045
57641	9.471634	0.529282	2.169902	-0.007572	0.006125	-0.010535	15.186432	-76.700731	58.437365
57642	9.458028	0.573744	2.199748	0.003093	-0.006026	-0.007327	15.214701	-76.702148	58.415436
57643	9.485773	0.569800	2.178752	0.000456	-0.012084	-0.013669	15.259044	-76.705979	58.375527
57644	9.500137	0.551883	2.171791	-0.000403	-0.018032	-0.012126	15.304235	-76.713300	58.334153
57645	9.500899	0.577672	2.194836	-0.000078	-0.008418	-0.014682	15.348265	-76.714948	58.294611
57646	9.513789	0.568740	2.155789	-0.003188	0.005218	-0.015904	15.385804	-76.708836	58.259461
57647	9.500583	0.580465	2.195469	-0.011376	0.010231	-0.016408	15.415489	-76.699886	58.228300
57648	9.499755	0.557200	2.172103	-0.011354	0.008142	-0.015197	15.444741	-76.692257	58.196854
57649	9.456570	0.591520	2.165273	-0.004649	0.009205	-0.019008	15.484873	-76.683475	58.159104
57650	9.472271	0.589727	2.217486	0.000414	-0.007900	-0.016097	15.533278	-76.684555	58.114904
57651	9.484138	0.589797	2.144443	-0.005243	-0.008679	-0.018815	15.584167	-76.685662	58.064849
57652	9.513074	0.577662	2.156571	0.001971	-0.014715	-0.015488	15.636507	-76.690579	58.017523
57653	9.500280	0.589616	2.194338	-0.000003	-0.009154	-0.018390	15.689716	-76.692005	57.967458
57654	9.513212	0.580813	2.155115	-0.007901	0.002034	-0.015320	15.725068	-76.687692	57.931777
57655	9.484209	0.595878	2.142444	-0.013704	0.008265	-0.017968	15.758007	-76.679555	57.894856
57656	9.498058	0.578021	2.137865	-0.017118	0.010194	-0.015422	15.782891	-76.670718	57.864503
57657	9.484837	0.589640	2.177551	-0.007439	0.004642	-0.017945	15.821669	-76.664574	57.825604
57658	9.484165	0.624408	2.168024	0.001489	-0.015222	-0.014081	15.870805	-76.669946	57.781282
57659	9.512729	0.587391	2.155462	-0.004728	-0.015775	-0.011682	15.910037	-76.676020	57.744522
57660	9.513464	0.612804	2.178483	-0.000096	-0.011842	-0.008563	15.943250	-76.680382	57.715632
57661	9.497719	0.616793	2.125714	-0.006072	-0.002039	-0.005010	15.957208	-76.679918	57.703238
57662	9.539893	0.617375	2.124702	-0.015877	0.008434	-0.001203	15.950781	-76.674267	57.705794
57663	9.469727	0.621457	2.147623	-0.015637	0.018792	-0.000049	15.933831	-76.663123	57.719068
57664	9.498772	0.574150	2.171988	-0.018103	0.023840	-0.001538	15.916713	-76.648931	57.731300
57665	9.483449	0.626344	2.170599	-0.013225	0.017930	-0.000985	15.903935	-76.638110	57.742452
57666	9.470335	0.578577	2.195793	-0.014101	0.014070	-0.000656	15.893565	-76.629439	57.750106
57667	9.511099	0.587909	2.162504	-0.010712	0.014236	-0.004413	15.892624	-76.620120	57.750163
57668	9.468494	0.587661	2.165279	-0.011639	0.014557	-0.006506	15.896904	-76.610263	57.744209
57669	9.482823	0.593330	2.185306	-0.014417	0.009985	-0.005446	15.899007	-76.603128	57.739011
57670	9.482638	0.593558	2.186044	-0.009537	0.004073	-0.004891	15.907654	-76.599300	57.729806
57671	9.496045	0.607991	2.171685	-0.005657	-0.000780	-0.002723	15.915619	-76.598523	57.722356
57672	9.510143	0.589333	2.166317	-0.007561	0.004045	-0.009328	15.935664	-76.594013	57.702597
57673	9.509129	0.623215	2.158523	-0.011280	0.019997	-0.006632	15.935704	-76.581171	57.701286
57674	9.495125	0.609171	2.175373	-0.017652	0.026456	-0.004164	15.923252	-76.565125	57.708990
57675	9.510194	0.605838	2.230475	-0.024388	0.033015	-0.008908	15.912542	-76.544744	57.710918
57676	9.466767	0.580943	2.210507	-0.017270	0.029808	-0.003083	15.895674	-76.527020	57.723390
57677	9.479743	0.595348	2.198083	-0.011130	0.012990	-0.006712	15.900536	-76.518037	57.717188
57678	9.465403	0.614809	2.204211	-0.007481	-0.002227	-0.005704	15.916296	-76.517553	57.701876
57679	9.479642	0.596193	2.198286	-0.002623	-0.006049	-0.006356	15.937752	-76.519108	57.682668
57680	9.478959	0.629995	2.189074	-0.003265	0.000450	-0.004868	15.952248	-76.517278	57.671140
57681	9.506626	0.625422	2.168882	-0.008458	-0.003260	-0.002881	15.960516	-76.517843	57.662738
57682	9.493070	0.611288	2.183734	-0.011080	0.008805	-0.004292	15.963716	-76.511501	57.658221
57683	9.507073	0.592412	2.178916	-0.010052	0.005654	-0.004695	15.969454	-76.506857	57.651595
57684	9.492765	0.611757	2.184926	-0.010438	0.002308	-0.005781	15.980701	-76.503859	57.639181
57685	9.465005	0.616898	2.205339	-0.005708	0.003408	-0.005147	15.991346	-76.500397	57.629783
57686	9.479040	0.598196	2.200339	-0.011493	0.007553	-0.006587	16.000376	-76.494382	57.619027
57687	9.478824	0.598640	2.201146	-0.011005	0.008071	-0.007999	16.011517	-76.487894	57.604949
57688	9.478760	0.599237	2.201263	-0.008277	-0.006824	-0.009088	16.037566	-76.489399	57.578584
57689	9.451262	0.604814	2.220411	-0.002388	-0.013797	-0.010146	16.072955	-76.494608	57.545118
57690	9.479288	0.601014	2.198501	0.004042	-0.024437	-0.010198	16.120291	-76.505626	57.504121
57691	9.479052	0.635337	2.187126	0.005482	-0.026335	-0.008308	16.164412	-76.517999	57.467879
57692	9.521661	0.636842	2.184058	-0.006248	-0.011033	-0.011105	16.199135	-76.521481	57.433794
57693	9.506745	0.607802	2.140203	-0.007895	-0.003478	-0.008000	16.219740	-76.521326	57.412473
57694	9.480616	0.628693	2.218022	-0.008952	0.001767	-0.008804	16.239093	-76.518128	57.392599
57695	9.507752	0.600058	2.173854	-0.011884	0.004206	-0.007669	16.251488	-76.513794	57.378518
57696	9.478811	0.614233	2.161071	-0.005224	0.003927	-0.006556	16.266359	-76.509766	57.365449
57697	9.493279	0.620232	2.180298	-0.008980	0.003862	-0.010013	16.285996	-76.505243	57.345993
57698	9.478894	0.639845	2.186498	-0.011500	0.007552	-0.006583	16.294887	-76.499216	57.335375
57699	9.493611	0.587652	2.190859	-0.017365	0.012429	-0.004314	16.290967	-76.490890	57.334872
57700	9.465331	0.650263	2.227485	-0.010574	0.007229	-0.004490	16.295803	-76.485376	57.328970
57701	9.464491	0.601748	2.178866	-0.006967	-0.003799	-0.005911	16.312254	-76.485740	57.312155
57702	9.492679	0.621810	2.182461	-0.003464	-0.012000	-0.004833	16.334822	-76.490745	57.292206
57703	9.507538	0.627481	2.200067	-0.002023	-0.013899	-0.002943	16.354205	-76.497107	57.277601
57704	9.492761	0.597854	2.155864	-0.009330	-0.007124	-0.002562	16.364965	-76.499794	57.266339
57705	9.535448	0.622959	2.178806	-0.008103	0.002179	-0.003004	16.370068	-76.497330	57.263041
57706	9.492327	0.655671	2.171598	-0.008206	0.005005	-0.000504	16.368605	-76.493681	57.265012
57707	9.479546	0.607624	2.195571	-0.016845	0.005304	0.002817	16.353328	-76.490443	57.275818
57708	9.493632	0.588182	2.190628	-0.016797	0.006668	-0.002098	16.349480	-76.485623	57.275180
57709	9.479337	0.607169	2.196597	-0.002829	-0.000388	-0.001365	16.355639	-76.484833	57.272814
57710	9.464323	0.659506	2.193471	-0.011008	0.002524	-0.000662	16.354603	-76.482522	57.272696
57711	9.506281	0.635358	2.167505	-0.008451	-0.008811	0.004442	16.349868	-76.487309	57.277844
57712	9.479572	0.606209	2.195850	-0.005163	-0.005809	0.003189	16.348964	-76.490201	57.281034
57713	9.507620	0.625585	2.200254	-0.008722	0.006583	-0.000300	16.344816	-76.485726	57.284980
57714	9.492963	0.619903	2.181770	-0.014785	-0.000995	0.002002	16.337885	-76.485780	57.288699
57715	9.508623	0.615626	2.234491	-0.010832	0.011521	0.005430	16.315803	-76.479554	57.311751
57716	9.465391	0.647637	2.227995	-0.011732	0.009752	0.004544	16.297623	-76.474106	57.328840
57717	9.479541	0.627746	2.222880	-0.015350	-0.000783	0.007118	16.277554	-76.474880	57.346645
57718	9.479262	0.602486	2.198209	-0.005241	-0.005079	0.006893	16.267633	-76.477964	57.359064
57719	9.506354	0.630400	2.168634	-0.004210	-0.008230	0.006485	16.260408	-76.482732	57.368370
57720	9.507717	0.620622	2.201240	-0.006628	-0.007366	0.007417	16.250009	-76.487158	57.380463
57721	9.506777	0.628630	2.167294	-0.009534	-0.007022	0.009759	16.231176	-76.491819	57.400010
57722	9.494152	0.579875	2.190590	-0.014993	0.004660	0.007004	16.208903	-76.489561	57.419385
57723	9.479113	0.631329	2.188022	-0.013606	0.006948	0.006480	16.186192	-76.485968	57.440154
57724	9.452185	0.601572	2.217361	-0.010181	-0.000527	0.011258	16.160393	-76.487239	57.465992
57725	9.479291	0.628941	2.187940	-0.006165	-0.010307	0.012123	16.140322	-76.494055	57.489740
57726	9.480447	0.594311	2.195325	0.004512	-0.020373	0.014103	16.129552	-76.506698	57.508778
57727	9.507927	0.621607	2.164270	0.002635	-0.023178	0.016035	16.114120	-76.521220	57.530332
57728	9.549939	0.653872	2.152490	-0.000554	-0.010899	0.019765	16.081086	-76.529544	57.569277
57729	9.493975	0.612565	2.143589	-0.012359	0.005146	0.020700	16.027353	-76.529222	57.623136
57730	9.495775	0.567826	2.186708	-0.020178	0.013507	0.021292	15.963417	-76.524329	57.682295
57731	9.481805	0.609159	2.218393	-0.014420	0.017007	0.014195	15.915777	-76.516423	57.727206
57732	9.453627	0.587670	2.214939	-0.012237	0.000230	0.019398	15.869509	-76.518524	57.772878
57733	9.453928	0.585805	2.214148	-0.004169	-0.017970	0.016209	15.846073	-76.530176	57.799726
57734	9.495563	0.593908	2.177683	0.001178	-0.021276	0.014138	15.833579	-76.543299	57.818569
57735	9.510678	0.597874	2.194734	0.001541	-0.015837	0.014025	15.817012	-76.553425	57.841464
57736	9.496897	0.615445	2.199171	-0.010983	-0.010660	0.015188	15.788132	-76.560857	57.869989
57737	9.496571	0.589297	2.174536	-0.011380	0.006192	0.017879	15.740855	-76.559431	57.916599
57738	9.481861	0.582502	2.156471	-0.013185	0.008214	0.008784	15.713186	-76.555450	57.942581
57739	9.495766	0.619798	2.167094	-0.016944	0.002607	0.012646	15.677132	-76.555176	57.975306
57740	9.468791	0.589914	2.196450	-0.008327	0.004387	0.008121	15.656275	-76.553197	57.997147
57741	9.468776	0.589060	2.196743	-0.012963	0.000474	0.004980	15.641525	-76.552920	58.010042
57742	9.510634	0.564454	2.170782	-0.011913	-0.004773	0.005772	15.629957	-76.555630	58.020219
57743	9.495806	0.616247	2.167931	-0.010717	0.008716	0.002940	15.615903	-76.550480	58.034668
57744	9.482754	0.567951	2.192337	-0.017504	0.013932	0.003126	15.595184	-76.542458	58.050962
57745	9.468369	0.586418	2.199204	-0.018797	0.008825	0.001142	15.580475	-76.536998	58.060196
57746	9.495908	0.581231	2.179596	-0.008154	0.000836	0.001909	15.576363	-76.536015	58.064922
57747	9.481840	0.599890	2.185051	-0.009911	-0.006887	0.002537	15.573759	-76.539426	58.066157
57748	9.509650	0.594634	2.164282	-0.011816	-0.007595	0.003263	15.569844	-76.543305	58.068523
57749	9.496775	0.603871	2.202904	-0.011526	-0.001430	0.006863	15.552714	-76.544382	58.084501
57750	9.509724	0.592997	2.164403	-0.017457	0.009745	0.005533	15.529196	-76.539038	58.103699
57751	9.511173	0.606985	2.223305	-0.023271	0.010443	0.010216	15.490046	-76.534068	58.135119
57752	9.468880	0.547438	2.210005	-0.018047	0.012051	0.009446	15.455740	-76.528043	58.165065
57753	9.482229	0.560714	2.196466	-0.015921	0.005019	0.004911	15.436479	-76.525256	58.180660
57754	9.453890	0.598118	2.208320	-0.012991	0.002575	0.003772	15.424210	-76.523594	58.190924
57755	9.495727	0.573662	2.182389	-0.009502	-0.005638	0.004829	15.415694	-76.526668	58.198457
57756	9.482378	0.558629	2.196353	-0.006671	-0.005260	0.006195	15.406438	-76.529702	58.209346
57757	9.481925	0.591344	2.187013	-0.007061	-0.008602	0.005097	15.400550	-76.534448	58.217125
57758	9.510275	0.610077	2.190675	-0.008553	-0.008064	0.008121	15.387542	-76.539324	58.230764
57759	9.511058	0.575725	2.199006	-0.010114	-0.001238	0.007542	15.369622	-76.540383	58.246469
57760	9.467726	0.583403	2.167032	-0.012531	-0.000369	0.008474	15.348623	-76.541058	58.265980
57761	9.496708	0.568370	2.179504	-0.011317	-0.014728	0.010356	15.332155	-76.549966	58.281591
57762	9.482812	0.586428	2.184485	-0.007696	-0.002106	0.006609	15.319321	-76.551316	58.295554
57763	9.511659	0.571743	2.197443	-0.007697	-0.002105	0.006609	15.305404	-76.552706	58.310971
57764	9.482260	0.618203	2.175921	-0.015017	0.006791	0.005806	15.284605	-76.549015	58.328811
57765	9.498093	0.555569	2.212617	-0.013044	0.001210	0.008681	15.260813	-76.548880	58.350141
57766	9.468271	0.577695	2.166179	-0.007185	-0.003682	0.006400	15.249741	-76.551065	58.362593
57767	9.510638	0.577210	2.164655	-0.010605	-0.001755	0.008948	15.228581	-76.552616	58.381351
57768	9.496040	0.570901	2.145940	-0.010725	0.003163	0.010255	15.202254	-76.551595	58.407403
57769	9.482994	0.579615	2.185517	-0.017925	0.007145	0.008146	15.173100	-76.548101	58.432036
57770	9.511574	0.564703	2.199630	-0.016063	0.012046	0.005022	15.150266	-76.541377	58.451352
57771	9.483201	0.544162	2.196430	-0.019462	0.011877	0.008769	15.115900	-76.535340	58.481798
57772	9.495955	0.590836	2.174344	-0.013603	0.006984	0.006487	15.094290	-76.531631	58.501306
57773	9.483428	0.566309	2.222801	-0.016021	0.007855	0.007419	15.067685	-76.527606	58.523738
57774	9.496282	0.555365	2.184704	-0.016534	0.009433	0.007627	15.040270	-76.522708	58.547490
57775	9.481987	0.573481	2.191495	-0.014138	0.010661	0.005495	15.017449	-76.516829	58.569350
57776	9.482799	0.563516	2.226194	-0.015204	0.018011	0.003514	14.995020	-76.506569	58.588759
57777	9.467787	0.557660	2.209166	-0.019039	0.018697	0.003761	14.968413	-76.496001	58.610274
57778	9.439506	0.537390	2.205431	-0.011930	-0.004759	0.005745	14.956798	-76.498671	58.620491
57779	9.510104	0.556924	2.207953	-0.000252	-0.010356	-0.001214	14.970434	-76.503430	58.611857
57780	9.482219	0.595007	2.218045	0.003667	-0.019431	0.003332	14.982373	-76.513865	58.607043
57781	9.510207	0.589865	2.196498	-0.006561	-0.010175	0.004872	14.978097	-76.519448	58.613294
57782	9.510845	0.555732	2.205060	-0.011698	0.007695	0.005763	14.958872	-76.515228	58.631474
57783	9.481915	0.568781	2.193030	-0.017068	0.013112	0.006638	14.930296	-76.508162	58.655474
57784	9.468216	0.553466	2.208381	-0.011678	0.005598	0.006960	14.909639	-76.505276	58.675139
57785	9.481257	0.542970	2.169402	-0.005188	-0.005793	0.003157	14.907446	-76.508173	58.679589
57786	9.481855	0.566807	2.193802	-0.002909	0.000351	0.002339	14.905702	-76.507510	58.684971
57787	9.481820	0.566487	2.194033	-0.012015	0.003635	0.000952	14.898884	-76.504863	58.690422
57788	9.482299	0.532669	2.203133	-0.011111	0.005398	0.001846	14.890484	-76.501332	58.697817
57789	9.468151	0.551511	2.209153	-0.004739	-0.001076	-0.000646	14.894531	-76.501044	58.695731
57790	9.467187	0.560727	2.175357	-0.000745	-0.010876	0.000189	14.905881	-76.506280	58.688922
57791	9.510330	0.585122	2.197235	0.000340	-0.020324	0.003362	14.915445	-76.517237	58.684051
57792	9.511844	0.575812	2.228720	0.003207	-0.016478	-0.001373	14.936134	-76.525343	58.669967
57793	9.511588	0.551454	2.202929	-0.003751	-0.007705	0.005038	14.931679	-76.529564	58.677785
57794	9.496454	0.579502	2.175211	-0.010011	0.001523	-0.002278	14.935803	-76.527571	58.672948
57795	9.482807	0.565006	2.190147	-0.014475	0.008704	-0.000507	14.927908	-76.521898	58.676692
57796	9.455101	0.569504	2.210698	-0.006646	-0.001782	0.000077	14.930553	-76.522082	58.675357
57797	9.470444	0.541050	2.237609	-0.007413	-0.010558	-0.000934	14.939365	-76.527040	58.666033
57798	9.483162	0.564707	2.188687	-0.000116	-0.017368	-0.001338	14.958642	-76.535642	58.651442
57799	9.483601	0.564877	2.186741	0.003345	-0.023490	-0.001495	14.983175	-76.547624	58.634145
57800	9.511695	0.560086	2.164511	-0.004912	-0.019819	0.002921	14.991412	-76.558213	58.628083
57801	9.512576	0.583851	2.187830	-0.001333	-0.008576	0.004103	14.990944	-76.562799	58.632700
57802	9.498598	0.544894	2.177261	-0.013410	0.001354	0.001473	14.984540	-76.561455	58.636685
57803	9.456921	0.568090	2.203263	-0.010536	-0.002472	0.005234	14.972505	-76.562817	58.647310
57804	9.471230	0.548559	2.196650	-0.003539	-0.015438	0.001209	14.982780	-76.570726	58.639963
57805	9.485214	0.562880	2.180250	0.005289	-0.026977	0.000168	15.006732	-76.584900	58.623744
57806	9.515076	0.573114	2.215582	0.003755	-0.022245	0.000799	15.026413	-76.596515	58.611024
57807	9.513602	0.557979	2.156659	-0.008649	0.000332	0.003317	15.018259	-76.596013	58.620420
57808	9.471843	0.581227	2.183126	-0.015454	0.007662	0.002320	15.004778	-76.591303	58.630476
57809	9.472223	0.547252	2.192692	-0.014569	0.011522	0.002018	14.989183	-76.584441	58.642727
57810	9.458082	0.565988	2.198815	-0.000864	-0.005957	0.001498	14.994447	-76.587146	58.642106
57811	9.458945	0.532329	2.206208	-0.003009	-0.019110	0.002191	15.004056	-76.597252	58.638510
57812	9.487586	0.551698	2.208690	-0.000498	-0.022797	-0.001257	15.026431	-76.608867	58.620517
57813	9.529309	0.561585	2.171312	0.005004	-0.035224	-0.002264	15.061203	-76.627231	58.592190
57814	9.501249	0.575851	2.155152	0.003471	-0.030492	-0.001632	15.091647	-76.643043	58.568242
57815	9.515247	0.590169	2.138546	-0.004031	-0.015953	0.002613	15.097801	-76.651489	58.563485
57816	9.531307	0.585593	2.189889	-0.012899	-0.000220	0.001273	15.093109	-76.650986	58.566010
57817	9.488388	0.560598	2.166986	-0.014942	0.006085	0.002119	15.080334	-76.647159	58.575206
57818	9.488390	0.560252	2.167065	-0.008951	-0.005820	-0.000299	15.085087	-76.649520	58.570350
57819	9.446345	0.559661	2.167583	-0.002636	-0.013671	0.002097	15.091908	-76.656604	58.567127
57820	9.490164	0.550387	2.197915	-0.004011	-0.018049	0.003805	15.097620	-76.666342	58.564193
57821	9.488759	0.592708	2.154583	-0.009285	-0.015447	0.002181	15.101640	-76.674403	58.560968
57822	9.503700	0.539831	2.156157	-0.005585	-0.009125	0.002050	15.104933	-76.678942	58.559594
57823	9.489261	0.592047	2.152553	-0.005075	-0.010700	0.001837	15.109163	-76.684326	58.559072
57824	9.490767	0.582374	2.184584	-0.007869	-0.015262	0.002862	15.113127	-76.692382	58.555664
57825	9.477000	0.543560	2.172878	-0.004963	-0.015612	0.000517	15.123467	-76.700319	58.547477
57826	9.490808	0.557767	2.157097	-0.005474	-0.014035	0.000730	15.133032	-76.707377	58.539725
57827	9.491778	0.581638	2.180385	-0.004035	-0.015948	0.002606	15.139302	-76.715802	58.536623
57828	9.464534	0.528567	2.183024	-0.010637	-0.016344	-0.002211	15.154283	-76.723695	58.520266
57829	9.479039	0.567090	2.191632	-0.001529	-0.019632	-0.000848	15.172426	-76.733633	58.507767
57830	9.505807	0.571803	2.136044	0.001418	-0.024175	-0.000806	15.196050	-76.746066	58.489627
57831	9.492831	0.557689	2.148196	0.000976	-0.023315	-0.004303	15.226139	-76.757521	58.466222
57832	9.521359	0.577545	2.150987	-0.005452	-0.010554	-0.005368	15.247904	-76.761733	58.445951
57833	9.493358	0.558405	2.145682	-0.006449	-0.009500	-0.003747	15.263721	-76.765633	58.430730
57834	9.508201	0.563815	2.163884	-0.009840	-0.004097	-0.007285	15.283353	-76.765983	58.410067
57835	9.493590	0.558943	2.144512	-0.007935	-0.008966	-0.000720	15.290791	-76.770053	58.403140
57836	9.508455	0.564173	2.162675	-0.006494	-0.005305	-0.006136	15.310425	-76.771242	58.384446
57837	9.493771	0.559526	2.143560	-0.007514	-0.002154	-0.005708	15.325491	-76.770778	58.371158
57838	9.493122	0.593331	2.135104	-0.010462	0.002390	-0.005749	15.336985	-76.767772	58.358489
57839	9.494338	0.584240	2.168512	-0.009021	0.000476	-0.003874	15.344997	-76.766174	58.349570
57840	9.479591	0.579390	2.149728	-0.009930	-0.001282	-0.004770	15.356856	-76.765344	58.336840
57841	9.480894	0.570210	2.182782	-0.008489	-0.003196	-0.002895	15.365327	-76.765913	58.327154
57842	9.480319	0.546381	2.157639	-0.005984	-0.006878	-0.006351	15.386778	-76.767934	58.306893
57843	9.493195	0.594618	2.134419	-0.005187	-0.000211	-0.004133	15.398161	-76.766644	58.298104
57844	9.507893	0.599845	2.153320	-0.012857	0.001164	-0.003616	15.404047	-76.764636	58.289787
57845	9.479708	0.580397	2.148941	-0.010906	-0.002325	-0.001956	15.408462	-76.764843	58.284028
57846	9.522043	0.580822	2.147075	-0.004632	-0.005980	-0.001962	15.419799	-76.767033	58.274952
57847	9.479909	0.580607	2.147995	-0.005053	-0.007216	-0.004264	15.436070	-76.769606	58.260251
57848	9.508839	0.566600	2.160350	-0.011371	-0.004945	0.000644	15.436761	-76.771621	58.258145
57849	9.507548	0.575975	2.127156	-0.012394	0.003785	-0.006215	15.446524	-76.767774	58.246499
57850	9.481224	0.571296	2.181061	-0.009600	0.002767	0.000050	15.444621	-76.765439	58.248101
57851	9.494690	0.585771	2.166556	-0.008402	-0.006005	-0.005414	15.461152	-76.767124	58.231461
57852	9.508926	0.567015	2.159862	-0.005939	-0.011070	-0.003971	15.479779	-76.771815	58.214127
57853	9.494395	0.562244	2.140080	-0.001195	-0.009999	-0.003333	15.497951	-76.776039	58.202324
57854	9.495225	0.586745	2.163948	-0.006895	-0.008632	-0.007251	15.522173	-76.778879	58.178681
57855	9.508088	0.577631	2.124291	-0.006520	-0.003201	-0.007332	15.542447	-76.778724	58.158659
57856	9.523463	0.607249	2.167789	-0.006632	0.001707	-0.006006	15.557144	-76.776045	58.144955
57857	9.480512	0.583075	2.144663	-0.009934	-0.001279	-0.004770	15.568139	-76.775231	58.132347
57858	9.481878	0.573758	2.177572	-0.011793	-0.006180	-0.001661	15.574831	-76.777572	58.123829
57859	9.466693	0.602226	2.149412	0.000758	-0.013488	-0.001678	15.592705	-76.783955	58.112347
57860	9.509911	0.569377	2.154895	0.003198	-0.016454	-0.001428	15.614195	-76.792000	58.097450
57861	9.508939	0.579023	2.120099	-0.001061	-0.017002	-0.003472	15.637609	-76.800055	58.076869
57862	9.509877	0.603274	2.143580	-0.005518	-0.009833	-0.001669	15.650351	-76.804408	58.065830
57863	9.510097	0.603171	2.142632	-0.006492	-0.010879	0.001145	15.655737	-76.809791	58.062918
57864	9.483534	0.574052	2.170268	-0.008797	-0.014916	0.000758	15.664255	-76.817321	58.054289
57865	9.497348	0.588235	2.154203	-0.002498	-0.020666	0.001937	15.676531	-76.828228	58.046489
57866	9.483183	0.582965	2.132853	0.005354	-0.033236	0.003658	15.698485	-76.846314	58.032389
57867	9.540248	0.621738	2.138482	0.003909	-0.031319	0.001785	15.721758	-76.863106	58.015528
57868	9.526675	0.583288	2.125751	-0.001043	-0.019093	-0.002284	15.744771	-76.872466	57.996579
57869	9.526220	0.616744	2.116365	-0.011906	-0.001271	-0.000323	15.744095	-76.872344	57.995444
57870	9.526729	0.583023	2.125583	-0.014613	0.015701	-0.000295	15.731456	-76.862825	58.005120
57871	9.498962	0.587278	2.147338	-0.018826	0.010960	0.000045	15.717990	-76.855975	58.014827
57872	9.470660	0.567447	2.143608	-0.009577	0.000669	0.001251	15.714598	-76.854985	58.017969
57873	9.512242	0.601135	2.133666	-0.003836	0.000687	0.000262	15.715838	-76.853866	58.021678
57874	9.484141	0.581462	2.128998	-0.007514	-0.007726	0.001576	15.718443	-76.857556	58.019877
57875	9.525772	0.557432	2.102398	-0.010573	0.001720	0.002875	15.709173	-76.856248	58.029111
57876	9.525766	0.614504	2.119056	-0.009177	0.004000	0.002365	15.701168	-76.853594	58.037227
57877	9.500206	0.575719	2.181610	-0.014943	0.006080	0.002164	15.688074	-76.849784	58.048838
57878	9.524844	0.589412	2.095601	-0.012614	0.008019	0.003741	15.672199	-76.845124	58.063014
57879	9.511969	0.598461	2.135632	-0.012128	0.008543	0.002334	15.658825	-76.839971	58.074941
57880	9.497643	0.559319	2.126391	-0.017980	0.013432	0.004653	15.634171	-76.832464	58.094975
57881	9.483268	0.577726	2.133901	-0.017032	0.016578	0.000650	15.616624	-76.822627	58.108210
57882	9.483037	0.577482	2.134990	-0.011046	0.004687	-0.001812	15.616980	-76.818946	58.106641
57883	9.484421	0.567627	2.168081	-0.010905	-0.007904	0.005323	15.608123	-76.823333	58.114090
57884	9.497973	0.581579	2.153257	-0.008559	-0.002477	0.000813	15.608435	-76.824011	58.114029
57885	9.524206	0.586130	2.099417	-0.007116	-0.004395	0.002683	15.605477	-76.826071	58.119289
57886	9.525618	0.576178	2.132415	-0.011972	-0.000556	0.003379	15.596519	-76.826084	58.126740
57887	9.511416	0.594632	2.139165	-0.015589	0.014664	0.002523	15.576675	-76.817594	58.142879
57888	9.510353	0.570070	2.116180	-0.018564	0.021308	0.001305	15.554489	-76.805219	58.160037
57889	9.511975	0.583810	2.176117	-0.020002	0.017638	0.006711	15.520434	-76.795701	58.190891
57890	9.509740	0.568329	2.119398	-0.016432	0.006615	0.005187	15.500004	-76.792029	58.207503
57891	9.496906	0.576915	2.159209	-0.012149	0.005057	0.008420	15.474549	-76.789765	58.229673
57892	9.496753	0.575863	2.160160	-0.015633	0.013277	0.007420	15.445014	-76.782751	58.256108
57893	9.523970	0.570104	2.141391	-0.022908	0.017989	0.009056	15.403549	-76.773428	58.289490
57894	9.482666	0.558789	2.178031	-0.020580	0.019926	0.010637	15.359401	-76.763222	58.328026
57895	9.509210	0.586396	2.151211	-0.020493	0.017123	0.008112	15.322367	-76.754177	58.361192
57896	9.480717	0.565616	2.148431	-0.021470	0.016075	0.010922	15.279627	-76.746130	58.397760
57897	9.480346	0.564377	2.150394	-0.022470	0.022723	0.005271	15.244574	-76.733581	58.424596
57898	9.481269	0.553828	2.185367	-0.015639	0.013285	0.007415	15.215275	-76.726538	58.450792
57899	9.479822	0.562494	2.153194	-0.014020	0.005754	0.004236	15.198232	-76.723216	58.466678
57900	9.509175	0.571728	2.191508	-0.013532	0.006279	0.002831	15.185375	-76.719354	58.477220
57901	9.521834	0.561671	2.153086	-0.014043	0.007856	0.003049	15.169711	-76.714699	58.492249
57902	9.494745	0.589457	2.199456	-0.019922	0.014852	0.004178	15.144619	-76.706297	58.511602
57903	9.505895	0.588629	2.129117	-0.022984	0.024308	0.005488	15.107967	-76.692879	58.541473
57904	9.507215	0.544500	2.173146	-0.024006	0.027463	0.005923	15.068589	-76.677755	58.573104
57905	9.477945	0.557571	2.162718	-0.026715	0.020101	0.004400	15.035028	-76.666510	58.597493
57906	9.464130	0.542379	2.178651	-0.012670	0.012243	0.001356	15.022464	-76.659123	58.608245
57907	9.478058	0.580390	2.190218	-0.013048	0.006811	0.001420	15.011888	-76.654806	58.618540
57908	9.477312	0.556165	2.165848	-0.011028	0.002609	-0.000641	15.010965	-76.652453	58.618295
57909	9.491955	0.560799	2.185068	-0.012027	0.003659	0.000982	15.004132	-76.649794	58.624469
57910	9.504722	0.551025	2.146309	-0.012028	0.003660	0.000982	14.998197	-76.647100	58.628786
57911	9.477740	0.579107	2.191931	-0.012028	0.003660	0.000982	14.991419	-76.644448	58.632747
57912	9.505815	0.540744	2.180196	-0.012937	0.001907	0.000078	14.988169	-76.642591	58.633770
57913	9.505173	0.573715	2.172368	-0.015937	0.005057	0.004947	14.969040	-76.639756	58.647358
57914	9.505029	0.573100	2.173160	-0.016910	0.009612	0.000488	14.957763	-76.633693	58.654292
57915	9.504171	0.548575	2.149375	-0.016071	0.012067	0.005103	14.933864	-76.626980	58.675611
57916	9.489850	0.566745	2.156760	-0.024681	0.013808	0.003521	14.908497	-76.619040	58.692451
57917	9.490768	0.556274	2.191374	-0.021353	0.014691	0.003486	14.883735	-76.610642	58.710759
57918	9.448135	0.555201	2.194585	-0.021906	0.020476	0.001336	14.860972	-76.598686	58.726558
57919	9.502886	0.545741	2.155770	-0.019375	0.014698	-0.000946	14.847812	-76.589612	58.733980
57920	9.490396	0.578756	2.220962	-0.011562	0.006297	-0.001612	14.846594	-76.585075	58.733723
57921	9.517283	0.550178	2.176054	-0.007660	-0.000711	0.001687	14.843338	-76.584959	58.736513
57922	9.517272	0.550013	2.176143	-0.010030	0.001568	-0.002271	14.847439	-76.582943	58.731691
57923	9.531254	0.587988	2.187569	-0.016077	0.012071	0.005101	14.823561	-76.576244	58.752203
57924	9.475193	0.572327	2.204686	-0.021379	0.016801	0.002299	14.801212	-76.566461	58.767888
57925	9.503549	0.557371	2.219436	-0.024823	0.020830	0.003675	14.770277	-76.554701	58.791208
57926	9.474397	0.570742	2.208516	-0.021381	0.016805	0.002297	14.747993	-76.544911	58.806826
57927	9.474668	0.536819	2.217998	-0.016844	0.008929	-0.003233	14.745149	-76.538700	58.806011
57928	9.461050	0.522252	2.232663	-0.015689	-0.001235	-0.003838	14.751342	-76.538011	58.795703
57929	9.459411	0.565838	2.190956	-0.003050	-0.009283	-0.007560	14.777656	-76.541237	58.771907
57930	9.460697	0.556867	2.223370	-0.007841	-0.006127	-0.010581	14.806944	-76.542270	58.742474
57931	9.459768	0.567176	2.189068	-0.008136	-0.019981	-0.005797	14.832641	-76.551706	58.716857
57932	9.517757	0.539194	2.212579	0.001007	-0.025408	-0.003249	14.861893	-76.564487	58.692676
57933	9.502446	0.601737	2.175070	0.003334	-0.023479	-0.001657	14.886964	-76.576443	58.673460
57934	9.517426	0.549077	2.175705	-0.009948	-0.006848	0.002457	14.885323	-76.579782	58.674589
57935	9.545015	0.601276	2.172543	-0.015151	0.011718	0.007197	14.857366	-76.573567	58.701778
57936	9.475554	0.570566	2.203591	-0.018553	0.011535	0.010939	14.819813	-76.567970	58.734760
57937	9.476022	0.535593	2.212504	-0.017909	0.002949	0.010550	14.787973	-76.567116	58.759975
57938	9.460891	0.562731	2.185360	-0.009216	-0.007220	0.016861	14.753532	-76.572765	58.795257
57939	9.488733	0.556727	2.164273	-0.004793	-0.010189	0.012676	14.732172	-76.579496	58.820077
57940	9.503672	0.560075	2.182471	-0.012077	-0.005462	0.014307	14.700899	-76.583792	58.850416
57941	9.461567	0.558125	2.183614	-0.011188	-0.001605	0.014033	14.667672	-76.585921	58.883442
57942	9.489855	0.518584	2.171021	-0.007726	-0.007737	0.013833	14.641342	-76.591401	58.911261
57943	9.476159	0.536192	2.175908	-0.001314	-0.018425	0.013653	14.624783	-76.602801	58.933527
57944	9.504830	0.554197	2.178923	-0.001825	-0.016847	0.013874	14.607213	-76.613333	58.955814
57945	9.505136	0.553064	2.177877	-0.005764	-0.005622	0.008223	14.592924	-76.616844	58.973619
57946	9.520042	0.556716	2.196194	-0.005816	-0.007031	0.013116	14.568838	-76.621822	59.000254
57947	9.505577	0.550475	2.176606	-0.012479	-0.008783	0.013178	14.541093	-76.627782	59.028573
57948	9.506377	0.515658	2.183818	-0.003306	-0.010705	0.009644	14.528729	-76.634293	59.044636
57949	9.491347	0.543454	2.156168	-0.004854	-0.003870	0.009130	14.511779	-76.636968	59.062984
57950	9.520796	0.551983	2.194118	-0.012682	0.006647	0.008629	14.485915	-76.633705	59.087400
57951	9.491186	0.541267	2.157424	-0.016651	0.014359	0.009053	14.451125	-76.626288	59.118569
57952	9.463407	0.544696	2.179026	-0.012721	0.010859	0.006268	14.428254	-76.620345	59.139887
57953	9.464468	0.534217	2.212854	-0.011104	0.003329	0.003068	14.417423	-76.618171	59.149016
57954	9.477367	0.524488	2.173498	-0.001856	-0.007017	0.004255	14.416208	-76.621859	59.154473
57955	9.519268	0.558012	2.163420	-0.006136	-0.005431	0.001018	14.418449	-76.624199	59.156797
57956	9.492239	0.528414	2.191899	-0.011193	0.006129	0.005601	14.400859	-76.620784	59.173588
57957	9.520361	0.546876	2.197284	-0.013614	0.007005	0.006539	14.378252	-76.617062	59.194363
57958	9.478048	0.545696	2.199160	-0.008736	0.001043	0.007021	14.361814	-76.616668	59.211416
57959	9.492181	0.525828	2.192769	-0.006681	-0.007370	0.007309	14.350152	-76.621020	59.222780
57960	9.505948	0.539481	2.177739	-0.004733	-0.010879	0.008951	14.338609	-76.627516	59.237158
57961	9.465064	0.528370	2.211709	-0.009209	-0.001589	0.009602	14.316608	-76.628978	59.259997
57962	9.506144	0.537358	2.177407	-0.012175	0.005075	0.008406	14.292553	-76.626538	59.282854
57963	9.492570	0.521600	2.192096	-0.013157	0.004019	0.011208	14.261205	-76.625120	59.310910
57964	9.492614	0.520435	2.192180	-0.012963	-0.003682	0.007319	14.244442	-76.627384	59.325807
57965	9.478753	0.538461	2.197906	-0.007684	-0.006320	0.008931	14.227741	-76.631352	59.345157
57966	9.450764	0.518313	2.192285	-0.004649	-0.013677	0.006413	14.223770	-76.639037	59.351802
57967	9.479322	0.536943	2.195820	-0.004667	-0.011571	0.005235	14.220446	-76.645424	59.357718
57968	9.465021	0.531654	2.175231	0.000331	-0.024543	0.005534	14.227823	-76.659021	59.355632
57969	9.507899	0.531671	2.171134	0.005767	-0.030670	0.000897	14.252181	-76.675373	59.339411
57970	9.535637	0.560574	2.139722	0.005714	-0.032080	0.005786	14.266587	-76.693190	59.333271
57971	9.495218	0.549946	2.171702	-0.002599	-0.022084	0.006697	14.267299	-76.705619	59.336578
57972	9.495569	0.549109	2.170378	-0.009102	-0.006487	0.008249	14.252148	-76.709573	59.352087
57973	9.511049	0.519377	2.196404	-0.009913	-0.013137	0.005983	14.245060	-76.716932	59.357816
57974	9.454482	0.513792	2.177268	-0.002517	-0.024879	0.004158	14.254280	-76.730521	59.352159
