// General information: 
//  MT Manager version: 2022.2.0 
//  XDA version: 2022.2.0 build 7381 rev 124627 built on 2023-07-19
// Device information: 
//  DeviceId: 00B4BB52
//  ProductCode: MTW2-3A7G6
//  Firmware Version: 4.6.0
//  Hardware Version: 2.0.0
// Device settings: 
//  Filter Profile: human(46.1)
//  Option Flags: Orientation Smoother Disabled, Position/Velocity Smoother Disabled, Continuous Zero Rotation Update Disabled, AHS Disabled, ICC Disabled
// Coordinate system: ENU
PacketCounter	Acc_X	Acc_Y	Acc_Z	Gyr_X	Gyr_Y	Gyr_Z	Roll	Pitch	Yaw
11638	9.427608	1.348467	2.117665	-0.005073	-0.004226	0.003945	33.120231	-75.218505	25.905211
11639	9.442539	1.394540	2.062667	-0.011447	-0.007747	0.003550	33.121608	-75.222429	25.902542
11640	9.435601	1.336421	2.076781	-0.013823	-0.002743	0.001910	33.118587	-75.223357	25.902077
11641	9.428058	1.346874	2.116672	-0.004639	-0.004463	0.005391	33.116617	-75.226281	25.906904
11642	9.435490	1.381024	2.093384	-0.013383	-0.004542	0.003074	33.113839	-75.228463	25.907254
11643	9.428376	1.345850	2.115911	-0.012310	-0.008840	0.000373	33.121803	-75.231917	25.897263
11644	9.428496	1.345605	2.115530	-0.007870	-0.002114	0.000293	33.124254	-75.232056	25.894467
11645	9.435853	1.380073	2.092377	-0.008918	-0.004071	0.001860	33.125793	-75.233687	25.893130
11646	9.394993	1.347352	2.107931	-0.008912	-0.005635	0.001577	33.129569	-75.235946	25.889919
11647	9.456724	1.384085	2.079353	-0.015294	-0.007592	0.001465	33.132360	-75.239143	25.883510
11648	9.436502	1.355904	2.082580	-0.006128	-0.004622	0.005794	33.128855	-75.242219	25.888855
11649	9.429032	1.366265	2.122286	-0.006556	-0.005950	0.004064	33.129967	-75.245441	25.889359
11650	9.444323	1.366801	2.050056	-0.012311	-0.008841	0.000372	33.137747	-75.248819	25.878047
11651	9.457628	1.359060	2.068933	-0.010599	-0.003532	0.007292	33.127784	-75.251892	25.887608
11652	9.429607	1.364366	2.120955	-0.010587	-0.006659	0.006724	33.122439	-75.256225	25.891745
11653	9.458198	1.334584	2.059624	-0.011462	-0.004623	0.004116	33.119065	-75.258827	25.893981
11654	9.416851	1.370016	2.100964	-0.010593	-0.005097	0.007008	33.111369	-75.262506	25.901027
11655	9.437803	1.350994	2.079876	-0.012088	-0.003691	0.007697	33.099989	-75.265782	25.911170
11656	9.425073	1.334254	2.051638	-0.013131	-0.007212	0.008979	33.089847	-75.271095	25.919982
11657	9.471961	1.346566	2.086222	-0.005700	-0.003299	0.007524	33.081966	-75.274127	25.930292
11658	9.438283	1.370865	2.087465	-0.011649	-0.005492	0.008859	33.070841	-75.278571	25.940811
11659	9.431062	1.358083	2.118515	-0.009529	-0.007830	0.004588	33.071516	-75.282860	25.940005
11660	9.452082	1.339288	2.096901	-0.010573	-0.011352	0.005869	33.073204	-75.289208	25.937305
11661	9.439270	1.345580	2.076723	-0.008221	-0.010106	0.008641	33.069927	-75.295857	25.941360
11662	9.439551	1.344664	2.076039	-0.007177	-0.006585	0.007359	33.065248	-75.300378	25.947709
11663	9.419235	1.339014	2.087671	-0.006738	-0.008386	0.008520	33.060985	-75.306163	25.953662
11664	9.439962	1.365684	2.083263	-0.006733	-0.009950	0.008235	33.059164	-75.312565	25.958329
11665	9.460829	1.369566	2.070275	-0.010585	-0.008226	0.006439	33.056312	-75.317622	25.960544
11666	9.440684	1.341053	2.073224	-0.004815	-0.008467	0.009561	33.051384	-75.323722	25.969368
11667	9.461548	1.344483	2.060517	-0.009920	-0.003318	0.015214	33.026956	-75.329163	25.994281
11668	9.454354	1.331058	2.091891	-0.009301	-0.002686	0.011917	33.008110	-75.333235	26.014676
11669	9.461838	1.364568	2.068962	-0.013152	-0.000961	0.010121	32.988340	-75.335950	26.032857
11670	9.441545	1.335741	2.072730	-0.009745	0.000679	0.011042	32.966753	-75.338120	26.055095
11671	9.434073	1.345357	2.113224	-0.009754	0.003805	0.011612	32.940500	-75.339004	26.081991
11672	9.428559	1.340535	2.054330	-0.012547	0.004363	0.007681	32.919062	-75.338357	26.102484
11673	9.428633	1.339423	2.054717	-0.009746	0.000677	0.011041	32.897581	-75.340563	26.124451
11674	9.421258	1.326351	2.086624	-0.012547	0.004363	0.007681	32.876147	-75.339903	26.144602
11675	9.428721	1.337596	2.055501	-0.012349	0.000546	0.002081	32.869807	-75.339382	26.149378
11676	9.441825	1.329925	2.075192	-0.007461	0.005468	0.003169	32.858377	-75.336768	26.162205
11677	9.434277	1.317630	2.107352	-0.008330	0.005946	0.000278	32.851245	-75.333088	26.170180
11678	9.428369	1.359545	2.065743	-0.008756	0.003058	-0.001740	32.850919	-75.330132	26.171298
11679	9.454556	1.344982	2.104688	-0.009811	0.002662	0.000111	32.847149	-75.327980	26.174921
11680	9.441498	1.329195	2.077147	-0.008322	0.002819	-0.000294	32.844725	-75.325570	26.177985
11681	9.420670	1.347156	2.098626	-0.005357	0.007823	-0.000246	32.838041	-75.320823	26.187258
11682	9.441220	1.329328	2.078328	-0.009000	0.002608	-0.008214	32.849950	-75.316049	26.174494
11683	9.420344	1.347653	2.099767	-0.012178	0.006108	-0.001803	32.844257	-75.311643	26.178702
11684	9.440779	1.352443	2.088193	-0.007706	0.005017	-0.003304	32.845131	-75.307248	26.179166
11685	9.440734	1.329852	2.080199	-0.006656	0.006977	-0.004868	32.847201	-75.301472	26.178621
11686	9.427263	1.360115	2.070412	-0.011128	0.008067	-0.003368	32.842651	-75.295574	26.182384
11687	9.455257	1.354154	2.018860	-0.011124	0.006504	-0.003654	32.840496	-75.290403	26.183560
11688	9.439924	1.353250	2.091534	-0.009028	0.011987	-0.006495	32.838099	-75.281685	26.186660
11689	9.426449	1.360743	2.073704	-0.008174	0.016197	-0.002744	32.824511	-75.272130	26.201404
11690	9.431946	1.318802	2.117027	-0.013047	0.006584	-0.004697	32.823012	-75.266524	26.200110
11691	9.439074	1.353917	2.094935	-0.011987	0.005418	-0.006834	32.827471	-75.260887	26.193935
11692	9.438975	1.331337	2.087219	-0.013062	0.011272	-0.003836	32.818934	-75.253289	26.200378
11693	9.451662	1.347169	2.116254	-0.007096	0.008778	-0.006027	32.820753	-75.246286	26.199830
11694	9.417739	1.350017	2.109913	-0.013472	0.003696	-0.006718	32.825896	-75.241529	26.193124
11695	9.472016	1.329898	2.096639	-0.015395	0.003777	-0.007760	32.832017	-75.236395	26.183211
11696	9.424971	1.339941	2.071113	-0.010080	0.010024	-0.004931	32.828549	-75.229067	26.185748
11697	9.416997	1.351145	2.112498	-0.014800	0.012229	-0.009619	32.828442	-75.219286	26.182628
11698	9.437369	1.333677	2.092980	-0.019702	0.011992	-0.009853	32.826207	-75.209494	26.179132
11699	9.416213	1.352360	2.115217	-0.006920	0.012781	-0.010191	32.831004	-75.199270	26.175609
11700	9.430989	1.354600	2.044664	-0.019492	0.006618	-0.015746	32.845784	-75.190230	26.153596
11701	9.436203	1.336363	2.096522	-0.018020	0.011464	-0.015286	32.855021	-75.179056	26.138900
11702	9.456138	1.365243	2.094420	-0.009090	0.013981	-0.017418	32.870311	-75.165971	26.124473
11703	9.414419	1.357032	2.120204	-0.017399	0.012101	-0.018582	32.885098	-75.153463	26.104403
11704	9.442005	1.375233	2.078014	-0.020385	0.013343	-0.017488	32.894502	-75.140661	26.087805
11705	9.454473	1.369328	2.099263	-0.011487	0.023674	-0.018176	32.898321	-75.122711	26.082586
11706	9.446223	1.358827	2.133017	-0.017243	0.020789	-0.021883	32.908862	-75.104951	26.067398
11707	9.453198	1.349701	2.095141	-0.025133	0.021789	-0.021027	32.912192	-75.087020	26.054593
11708	9.384975	1.356171	2.083563	-0.014734	0.029158	-0.022690	32.915881	-75.065003	26.049187
11709	9.443736	1.363860	2.140803	-0.016211	0.025871	-0.022866	32.922827	-75.044535	26.037928
11710	9.429827	1.372849	2.124055	-0.024079	0.022181	-0.022880	32.929493	-75.025779	26.022014
11711	9.415984	1.381711	2.107111	-0.013410	0.022184	-0.019507	32.936253	-75.008130	26.012606
11712	9.428121	1.398832	2.137223	-0.016800	0.017414	-0.021018	32.949267	-74.992232	25.994212
11713	9.448336	1.382328	2.118289	-0.022336	0.018089	-0.017677	32.952349	-74.977121	25.983316
11714	9.406664	1.351168	2.135959	-0.015337	0.022259	-0.020551	32.959578	-74.959040	25.971132
11715	9.426043	1.403285	2.143462	-0.008496	0.019301	-0.019843	32.973017	-74.942671	25.957722
11716	9.404796	1.399822	2.157394	-0.020399	0.014880	-0.017214	32.979971	-74.929200	25.944137
11717	9.412108	1.390434	2.118661	-0.016960	0.010278	-0.017439	32.994674	-74.917915	25.924393
11718	9.432525	1.373786	2.099117	-0.015057	0.013322	-0.015814	33.004046	-74.905622	25.911869
11719	9.436929	1.401112	2.168991	-0.015508	0.016685	-0.016680	33.010772	-74.891494	25.901246
11720	9.444166	1.391816	2.130638	-0.019354	0.016839	-0.018772	33.018783	-74.876613	25.888091
11721	9.443588	1.392919	2.132475	-0.010811	0.017608	-0.011405	33.017732	-74.863688	25.888312
11722	9.422183	1.411319	2.155128	-0.013985	0.016396	-0.005866	33.006316	-74.853022	25.897017
11723	9.422116	1.388666	2.147860	-0.017995	0.010982	-0.004091	32.995819	-74.845564	25.902759
11724	9.421803	1.388727	2.149193	-0.011612	0.012955	-0.003954	32.986474	-74.837120	25.910520
11725	9.400590	1.406511	2.171333	-0.010307	0.010671	0.000095	32.973333	-74.831115	25.923565
11726	9.421356	1.388344	2.151397	-0.016238	0.005333	0.000822	32.961697	-74.827870	25.932872
11727	9.428783	1.400359	2.120831	-0.012641	0.007866	-0.002980	32.955908	-74.822254	25.936915
11728	9.407651	1.418066	2.142651	-0.008376	0.009031	0.000852	32.944343	-74.817212	25.948941
11729	9.386849	1.412906	2.155607	-0.017102	0.005814	-0.002072	32.936755	-74.812866	25.952199
11730	9.421012	1.364652	2.146029	-0.012406	0.006738	0.003206	32.921516	-74.809672	25.967127
11731	9.441217	1.391925	2.143596	-0.013269	0.007220	0.000313	32.910298	-74.805392	25.976423
11732	9.420064	1.409375	2.165637	-0.013310	0.013463	0.001478	32.889764	-74.798424	25.995368
11733	9.407136	1.393359	2.138725	-0.013907	0.008133	0.003896	32.870806	-74.794817	26.012306
11734	9.440435	1.412967	2.155623	-0.011113	0.006011	0.007545	32.849389	-74.793315	26.033677
11735	9.414673	1.403693	2.108909	-0.015153	0.005278	0.010188	32.821850	-74.793034	26.058768
11736	9.420066	1.382944	2.160503	-0.009221	0.010615	0.009467	32.792810	-74.789923	26.089337
11737	9.420007	1.381622	2.161609	-0.012831	0.009640	0.013557	32.755665	-74.788579	26.125762
11738	9.414872	1.377070	2.103095	-0.015596	0.007080	0.009033	32.728001	-74.786998	26.151476
11739	9.432577	1.394712	2.191926	-0.010534	0.014461	0.005713	32.700605	-74.780891	26.179163
11740	9.386293	1.358131	2.148985	-0.011996	0.009615	0.005235	32.678748	-74.776921	26.200648
11741	9.419542	1.377887	2.166013	-0.010916	0.006900	0.002805	32.664912	-74.773555	26.214056
11742	9.406731	1.361866	2.138635	-0.008564	0.006578	0.005299	32.648364	-74.771056	26.231628
11743	9.406372	1.383983	2.148153	-0.010476	0.005096	0.003959	32.634793	-74.768915	26.245023
11744	9.406347	1.383413	2.148631	-0.010456	0.001975	0.003374	32.625717	-74.768083	26.254595
11745	9.406065	1.405484	2.157850	-0.009605	0.003050	0.006559	32.610363	-74.767732	26.270355
11746	9.406431	1.381948	2.149205	-0.009576	-0.001632	0.005682	32.601807	-74.769329	26.279263
11747	9.426896	1.408979	2.145986	-0.006594	-0.001304	0.004885	32.596082	-74.770561	26.286832
11748	9.427396	1.385314	2.136816	-0.005903	-0.007364	0.011637	32.585637	-74.776751	26.299916
11749	9.432751	1.387192	2.195945	-0.007854	-0.002604	0.011468	32.568976	-74.780641	26.318069
11750	9.394182	1.385242	2.129152	-0.013198	-0.001048	0.010063	32.549971	-74.783272	26.334970
11751	9.441008	1.374394	2.155791	-0.007234	-0.000394	0.008469	32.536471	-74.785167	26.350215
11752	9.407424	1.375844	2.148775	-0.012587	0.002722	0.007357	32.518233	-74.785176	26.367139
11753	9.428154	1.379742	2.137080	-0.013639	0.000755	0.008909	32.498975	-74.786649	26.384549
11754	9.407298	1.396692	2.158186	-0.008526	0.000335	0.004130	32.491534	-74.786794	26.392181
11755	9.386926	1.368318	2.161770	-0.004719	0.006417	0.007399	32.473662	-74.785064	26.413450
11756	9.386678	1.390393	2.170937	-0.015334	-0.002952	0.002243	32.469406	-74.786235	26.414403
11757	9.428637	1.354293	2.129035	-0.010430	-0.002706	0.002494	32.467299	-74.787405	26.415944
11758	9.400132	1.359337	2.181238	-0.008948	-0.000982	0.002390	32.464238	-74.787632	26.418382
11759	9.407290	1.416764	2.167626	-0.010860	-0.002462	0.001048	32.464179	-74.788239	26.417545
11760	9.421164	1.340880	2.160300	-0.011300	-0.000658	-0.000105	32.463629	-74.787558	26.415169
11761	9.420581	1.386197	2.178309	-0.010258	0.002870	-0.001362	32.462169	-74.784846	26.416142
11762	9.407756	1.370771	2.150561	-0.012179	0.002950	-0.002410	32.461333	-74.781725	26.415271
11763	9.441370	1.368040	2.158247	-0.017284	0.001806	0.002075	32.450943	-74.780584	26.421326
11764	9.420358	1.385457	2.179744	-0.013689	0.005907	-0.001423	32.444066	-74.776333	26.425128
11765	9.386526	1.387822	2.173239	-0.012629	0.006315	-0.003268	32.440748	-74.771369	26.426618
11766	9.433057	1.377921	2.200463	-0.011759	0.004265	-0.000670	32.435546	-74.768144	26.430185
11767	9.406953	1.392635	2.162306	-0.010679	0.001554	-0.003103	32.438427	-74.765534	26.426408
11768	9.399570	1.357517	2.184790	-0.013204	-0.003700	-0.001744	32.443291	-74.765806	26.417858
11769	9.427920	1.374743	2.141329	-0.008309	-0.001892	-0.001197	32.448034	-74.765447	26.413558
11770	9.428006	1.374581	2.141054	-0.014247	-0.007229	-0.000489	32.454031	-74.767819	26.403299
11771	9.420496	1.362137	2.171817	-0.010194	-0.008052	-0.003424	32.468607	-74.769753	26.387690
11772	9.407308	1.392346	2.160949	-0.006799	-0.004848	-0.002185	32.479250	-74.770501	26.379058
11773	9.441325	1.367048	2.159072	-0.010862	-0.002466	0.001046	32.479199	-74.771109	26.378211
11774	9.428120	1.396867	2.148524	-0.007439	-0.003943	0.001401	32.482093	-74.772487	26.376039
11775	9.400207	1.356458	2.182705	-0.012344	-0.004191	0.001149	32.482960	-74.773960	26.373361
11776	9.428587	1.373338	2.139289	-0.015346	-0.001401	0.002535	32.476461	-74.774452	26.376144
11777	9.428580	1.373009	2.139534	-0.010260	0.002868	-0.001359	32.474996	-74.771742	26.377121
11778	9.420648	1.383011	2.180047	-0.008528	0.000327	0.004130	32.467703	-74.771894	26.385430
11779	9.366669	1.357417	2.175815	-0.013197	-0.005261	-0.002040	32.474951	-74.772904	26.375632
11780	9.428715	1.372297	2.139393	-0.008292	-0.005013	-0.001788	32.484141	-74.773828	26.366202
11781	9.421124	1.359890	2.170504	-0.010233	-0.001812	-0.002245	32.489554	-74.773107	26.360067
11782	9.441215	1.410397	2.176323	-0.009172	-0.001402	-0.004089	32.498309	-74.771600	26.351764
11783	9.428768	1.372344	2.139133	-0.009371	-0.002304	0.000647	32.499637	-74.772007	26.350374
11784	9.407864	1.389971	2.160057	-0.012155	-0.001732	-0.003293	32.505689	-74.770865	26.342042
11785	9.421224	1.359608	2.170246	-0.008500	-0.004356	0.003243	32.505229	-74.773063	26.343021
11786	9.408032	1.389529	2.159608	-0.010215	-0.004933	-0.002837	32.515226	-74.773601	26.331620
11787	9.421421	1.359304	2.169581	-0.009353	-0.005424	0.000055	32.521147	-74.775333	26.325480
11788	9.441656	1.409414	2.175049	-0.010414	-0.005836	0.001899	32.523649	-74.777761	26.321599
11789	9.421392	1.381341	2.177888	-0.010863	-0.002470	0.001046	32.523604	-74.778371	26.320745
11790	9.429382	1.370630	2.137525	-0.008510	-0.002797	0.003539	32.520832	-74.779862	26.324287
11791	9.442197	1.385422	2.165758	-0.008959	0.000569	0.002686	32.515525	-74.779509	26.330017
11792	9.408565	1.387319	2.158710	-0.013434	0.000073	0.003880	32.506073	-74.779704	26.336978
11793	9.442461	1.361519	2.157596	-0.019247	0.008115	0.002220	32.487163	-74.775560	26.350697
11794	9.421429	1.378689	2.179406	-0.007495	0.005413	0.003177	32.476312	-74.772963	26.362739
11795	9.421063	1.400834	2.189137	-0.010496	0.008201	0.004567	32.458165	-74.769498	26.380864
11796	9.387842	1.357277	2.164751	-0.012401	0.005163	0.002925	32.445365	-74.766941	26.392759
11797	9.429078	1.366726	2.141361	-0.012401	0.005163	0.002925	32.432483	-74.764438	26.404296
11798	9.420835	1.399186	2.191171	-0.010901	0.003768	0.002230	32.423178	-74.762313	26.411382
11799	9.408026	1.383480	2.163513	-0.010910	0.005328	0.002527	32.411678	-74.759607	26.422372
11800	9.421007	1.375551	2.183210	-0.012375	0.000483	0.002034	32.405628	-74.759012	26.425496
11801	9.449501	1.370066	2.131431	-0.014125	0.006150	-0.002858	32.400925	-74.754254	26.427533
11802	9.394729	1.390083	2.146050	-0.008375	0.009024	0.000881	32.389545	-74.749191	26.438872
11803	9.420869	1.352099	2.176468	-0.009428	0.007051	0.002427	32.377148	-74.745618	26.451673
11804	9.399819	1.369507	2.198158	-0.013686	0.004343	-0.001710	32.372856	-74.742060	26.455257
11805	9.420325	1.374570	2.186771	-0.011563	0.005169	-0.005397	32.375239	-74.736997	26.451471
11806	9.386493	1.377200	2.180129	-0.009210	0.004839	-0.002903	32.374975	-74.732812	26.452231
11807	9.412394	1.362502	2.218969	-0.010034	-0.000904	-0.006985	32.387871	-74.730200	26.438455
11808	9.414842	1.372688	2.128469	-0.011985	0.003856	-0.007140	32.394502	-74.725202	26.430192
11809	9.419754	1.375654	2.188548	-0.009210	0.004838	-0.002903	32.394175	-74.721064	26.430612
11810	9.393389	1.413182	2.159425	-0.009392	0.000811	0.001236	32.390935	-74.720111	26.434458
11811	9.427338	1.387863	2.157769	-0.010235	-0.001813	-0.002252	32.396342	-74.719391	26.428325
11812	9.414277	1.395316	2.138773	-0.008780	0.004590	-0.001456	32.393972	-74.715765	26.430995
11813	9.386150	1.355112	2.173428	-0.007269	0.001638	-0.002450	32.397551	-74.713315	26.428518
11814	9.427147	1.387827	2.158626	-0.011737	-0.000420	-0.001557	32.399253	-74.712092	26.425259
11815	9.373100	1.362445	2.154459	-0.009814	-0.000502	-0.000508	32.400340	-74.711273	26.423855
11816	9.419481	1.375194	2.190009	-0.005759	-0.001315	-0.003444	32.409718	-74.709905	26.415676
11817	9.419519	1.375062	2.189931	-0.010436	-0.002724	0.002482	32.407653	-74.711079	26.417170
11818	9.426992	1.409778	2.167567	-0.008513	-0.002806	0.003530	32.404851	-74.712587	26.420873
11819	9.411997	1.361754	2.221111	-0.010254	0.001305	-0.001655	32.405685	-74.710542	26.419470
11820	9.419580	1.374159	2.190233	-0.004935	0.004426	0.000642	32.401973	-74.707647	26.425899
11821	9.406217	1.404138	2.180458	-0.013248	0.002531	-0.000562	32.397782	-74.705344	26.427926
11822	9.398760	1.368750	2.203150	-0.006858	0.004508	-0.000406	32.394698	-74.702081	26.432172
11823	9.406002	1.403902	2.181538	-0.007298	0.006315	-0.001553	32.391424	-74.697643	26.436783
11824	9.406150	1.381153	2.173136	-0.010273	0.004423	-0.001058	32.387655	-74.694224	26.439909
11825	9.406036	1.381183	2.173610	-0.004295	0.003530	-0.002945	32.391689	-74.690706	26.438728
11826	9.405700	1.404103	2.182708	-0.011078	-0.004435	-0.005744	32.405682	-74.690148	26.423508
11827	9.406217	1.358904	2.164779	-0.007289	0.004756	-0.001852	32.404690	-74.686373	26.425759
11828	9.405833	1.381703	2.174158	-0.007691	0.000327	-0.004195	32.412558	-74.683992	26.419151
11829	9.418786	1.374436	2.193473	-0.007682	-0.001232	-0.004494	32.422721	-74.682302	26.409602
11830	9.405448	1.404828	2.183330	-0.009184	0.000160	-0.003798	32.429158	-74.680106	26.402678
11831	9.418405	1.397523	2.202647	-0.007682	-0.001233	-0.004494	32.439317	-74.678415	26.393134
11832	9.426070	1.410070	2.171383	-0.012790	-0.002399	-0.000015	32.439946	-74.678600	26.389883
11833	9.405674	1.382344	2.174440	-0.006209	0.002053	-0.004292	32.446905	-74.675382	26.384532
11834	9.418341	1.397518	2.202923	-0.011308	-0.000673	-0.000113	32.446458	-74.674733	26.383304
11835	9.392646	1.389573	2.155478	-0.014293	-0.001008	0.000681	32.443443	-74.674523	26.383493
11836	9.426645	1.364231	2.153628	-0.008304	-0.003457	-0.001506	32.450467	-74.674806	26.377815
11837	9.405714	1.381816	2.174604	-0.006831	-0.000171	-0.001304	32.454290	-74.673582	26.375347
11838	9.418457	1.397050	2.202725	-0.010639	-0.006244	-0.004601	32.468468	-74.674215	26.358742
11839	9.405810	1.381950	2.174100	-0.009797	-0.003625	-0.001110	32.474123	-74.674720	26.352611
11840	9.405827	1.381911	2.174053	-0.008754	-0.000090	-0.002352	32.478489	-74.673089	26.347912
11841	9.439504	1.379512	2.181218	-0.012141	-0.004853	-0.003904	32.489108	-74.673328	26.335241
11842	9.413495	1.394520	2.142733	-0.013242	0.000966	-0.000861	32.487088	-74.671648	26.334538
11843	9.405532	1.404552	2.183147	-0.007253	-0.001482	-0.003049	32.495214	-74.670520	26.327356
11844	9.426782	1.364203	2.153045	-0.012801	-0.000843	0.000284	32.493616	-74.670068	26.327510
11845	9.413210	1.416957	2.151917	-0.008735	-0.003208	-0.002953	32.502660	-74.669804	26.318495
11846	9.418603	1.396904	2.202194	-0.008736	-0.003209	-0.002953	32.511832	-74.669475	26.309538
11847	9.426596	1.386811	2.161685	-0.007874	-0.003708	-0.000062	32.516836	-74.670341	26.305225
11848	9.405716	1.404186	2.182589	-0.009376	-0.002317	0.000636	32.518168	-74.670694	26.303368
11849	9.413671	1.393989	2.142303	-0.010248	-0.000259	-0.001954	32.521272	-74.669311	26.299614
11850	9.426356	1.408942	2.170874	-0.011329	0.002441	0.000490	32.516449	-74.667308	26.302850
11851	9.385579	1.353253	2.177050	-0.008344	0.002777	-0.000304	32.514326	-74.664967	26.305647
11852	9.397620	1.413614	2.223958	-0.010699	0.003108	-0.002798	32.514841	-74.661653	26.304141
11853	9.405750	1.381033	2.174944	-0.011120	0.001799	-0.004545	32.519695	-74.658478	26.298055
11854	9.385022	1.376165	2.187102	-0.011100	-0.001318	-0.005147	32.529007	-74.656571	26.286476
11855	9.425970	1.409361	2.172276	-0.008546	-0.000732	-0.007386	32.543173	-74.653742	26.272262
11856	9.405508	1.382153	2.175279	-0.007064	0.000995	-0.007482	32.556400	-74.649993	26.259465
11857	9.392117	1.412725	2.165248	-0.009177	-0.001401	-0.004099	32.565163	-74.648500	26.250478
11858	9.426082	1.387855	2.163257	-0.011081	-0.004437	-0.005750	32.579029	-74.647897	26.233645
11859	9.438748	1.403308	2.191557	-0.010049	0.000658	-0.006688	32.589527	-74.644610	26.222341
11860	9.417954	1.398516	2.203946	-0.009649	0.005084	-0.004338	32.591125	-74.639883	26.220983
11861	9.391800	1.413757	2.165953	-0.010690	0.001547	-0.003099	32.593944	-74.637274	26.217261
11862	9.384710	1.355989	2.179089	-0.009608	-0.001152	-0.005545	32.604702	-74.635182	26.206440
11863	9.425656	1.389074	2.164330	-0.009188	0.000157	-0.003798	32.611167	-74.633028	26.199830
11864	9.404607	1.406936	2.185594	-0.008557	0.000826	-0.007085	32.623007	-74.629484	26.187801
11865	9.396947	1.394487	2.216752	-0.015128	-0.005196	-0.003117	32.630885	-74.630123	26.176195
11866	9.425546	1.389639	2.164446	-0.007274	0.001633	-0.002447	32.634323	-74.627640	26.173738
11867	9.412769	1.374747	2.136297	-0.006203	0.000495	-0.004591	32.643503	-74.625077	26.166086
11868	9.404461	1.407485	2.185867	-0.010250	-0.000264	-0.001956	32.646598	-74.623669	26.163026
11869	9.404735	1.384902	2.176870	-0.009188	0.000156	-0.003798	32.653053	-74.621514	26.156425
11870	9.391388	1.415157	2.166823	-0.008316	-0.001904	-0.001210	32.657649	-74.621123	26.151996
11871	9.438092	1.405094	2.193236	-0.010240	-0.001823	-0.002258	32.663024	-74.620399	26.145891
11872	9.391682	1.392427	2.157838	-0.010271	0.002852	-0.001351	32.661491	-74.617674	26.147321
11873	9.425008	1.412530	2.174389	-0.008316	-0.001905	-0.001210	32.666220	-74.617312	26.143028
11874	9.391695	1.392183	2.157936	-0.009377	-0.002325	0.000632	32.667556	-74.617681	26.141495
11875	9.417420	1.399613	2.205530	-0.009189	0.000156	-0.003797	32.674005	-74.615526	26.134900
11876	9.383726	1.402138	2.198348	-0.010240	-0.001824	-0.002259	32.679484	-74.614762	26.129497
11877	9.438055	1.404796	2.193586	-0.010240	-0.001824	-0.002259	32.684857	-74.614037	26.123393
11878	9.404700	1.384676	2.177168	-0.007255	-0.001484	-0.003052	32.692925	-74.612848	26.115767
11879	9.404699	1.384735	2.177133	-0.010240	-0.001824	-0.002259	32.698297	-74.612123	26.109664
11880	9.404428	1.407357	2.186091	-0.008295	-0.005023	-0.001817	32.707590	-74.613030	26.100447
11881	9.391451	1.414973	2.166670	-0.005331	-0.001566	-0.002003	32.715037	-74.612259	26.095110
11882	9.404535	1.407700	2.185412	-0.008055	-0.010333	-0.007761	32.740908	-74.613892	26.069478
11883	9.425306	1.413052	2.172762	-0.011270	-0.006922	-0.001326	32.749798	-74.615911	26.059115
11884	9.425404	1.413058	2.172332	-0.005310	-0.004683	-0.002610	32.761749	-74.616398	26.048227
11885	9.391798	1.415528	2.164802	-0.006382	-0.003546	-0.000465	32.768130	-74.617056	26.043371
11886	9.425523	1.412960	2.171876	-0.009810	-0.002077	-0.000813	32.771559	-74.616876	26.040536
11887	9.425883	1.390169	2.162637	-0.007885	-0.002158	0.000235	32.774288	-74.617083	26.038574
11888	9.391597	1.437730	2.173741	-0.008327	-0.000348	-0.000906	32.776698	-74.616046	26.037345
11889	9.384368	1.402074	2.195647	-0.008504	-0.004391	0.003218	32.776367	-74.618253	26.038190
11890	9.425788	1.411899	2.171417	-0.010429	-0.004310	0.002170	32.776671	-74.620043	26.036810
11891	9.426193	1.389042	2.162011	-0.008307	-0.003465	-0.001513	32.783696	-74.620337	26.030143
11892	9.405321	1.406398	2.182865	-0.009357	-0.005446	0.000024	32.789693	-74.622016	26.023957
11893	9.405434	1.406149	2.182541	-0.007443	-0.003969	0.001376	32.792722	-74.623449	26.021947
11894	9.405544	1.405822	2.182274	-0.008936	-0.004140	0.001773	32.794447	-74.625055	26.021039
11895	9.392909	1.390419	2.153787	-0.008957	-0.001023	0.002381	32.791524	-74.625381	26.024303
11896	9.413329	1.417960	2.150734	-0.006362	-0.006664	-0.001074	32.802433	-74.627305	26.014157
11897	9.384857	1.422550	2.202772	-0.011304	-0.002248	-0.000415	32.804447	-74.627354	26.010906
11898	9.419178	1.374698	2.191626	-0.008328	-0.000349	-0.000905	32.806718	-74.626318	26.008989
11899	9.413457	1.417626	2.150396	-0.008308	-0.003466	-0.001514	32.813747	-74.626611	26.002317
11900	9.385215	1.399654	2.193569	-0.010264	0.001291	-0.001648	32.814439	-74.624525	26.000371
11901	9.426744	1.387341	2.160700	-0.010696	0.001543	-0.003093	32.817208	-74.621916	25.996698
11902	9.384768	1.422288	2.203320	-0.008771	0.001461	-0.002045	32.819253	-74.619649	25.995051
11903	9.413256	1.417638	2.151265	-0.010696	0.001543	-0.003093	32.822019	-74.617040	25.991380
11904	9.405631	1.404819	2.182545	-0.009811	-0.002079	-0.000813	32.825401	-74.616835	25.987403
11905	9.413501	1.395002	2.142393	-0.011139	0.003353	-0.004233	32.827863	-74.613000	25.983785
11906	9.413110	1.417603	2.151929	-0.006414	0.001127	0.000448	32.827377	-74.611660	25.986509
11907	9.405481	1.404619	2.183322	-0.013250	0.000947	-0.000855	32.825434	-74.610032	25.986204
11908	9.392078	1.434597	2.173733	-0.007929	0.004072	0.001455	32.818918	-74.607590	25.993827
11909	9.405079	1.426652	2.193266	-0.009401	0.000784	0.001241	32.815701	-74.606692	25.997132
11910	9.413001	1.416444	2.153169	-0.008979	0.002089	0.002991	32.808139	-74.605660	26.004566
11911	9.405411	1.403146	2.184572	-0.010462	0.000359	0.003082	32.801573	-74.605538	26.010713
11912	9.405401	1.402584	2.184973	-0.010494	0.005034	0.003998	32.788219	-74.603438	26.025440
11913	9.405383	1.402092	2.185369	-0.007476	0.000702	0.002289	32.784368	-74.602904	26.030546
11914	9.426039	1.406685	2.173711	-0.011545	0.003051	0.005534	32.769841	-74.602197	26.043925
11915	9.413295	1.391264	2.145724	-0.008350	0.002766	-0.000295	32.767685	-74.599867	26.046754
11916	9.405283	1.401031	2.186479	-0.005796	0.003362	-0.002533	32.770281	-74.596532	26.046916
11917	9.392159	1.408762	2.167647	-0.010697	0.001543	-0.003094	32.773051	-74.593923	26.043241
11918	9.405108	1.401207	2.187117	-0.009204	0.001715	-0.003490	32.777159	-74.591105	26.040118
11919	9.405042	1.401433	2.187256	-0.006197	-0.001059	-0.004895	32.788581	-74.589191	26.030143
11920	9.391954	1.409239	2.168224	-0.012191	0.001371	-0.002697	32.789985	-74.586748	26.026933
11921	9.425262	1.429453	2.184821	-0.009183	-0.001402	-0.004102	32.798693	-74.585244	26.017997
11922	9.438507	1.399160	2.195242	-0.008394	0.008997	0.000929	32.787376	-74.580248	26.030170
11923	9.404372	1.424071	2.197973	-0.012201	0.002928	-0.002392	32.786493	-74.577189	26.029389
11924	9.411889	1.436721	2.167386	-0.007941	0.005627	0.001762	32.777828	-74.574070	26.039219
11925	9.383875	1.395705	2.201805	-0.010917	0.003725	0.002248	32.768688	-74.572067	26.047767
11926	9.425102	1.405688	2.178412	-0.011349	0.003979	0.000804	32.761564	-74.569468	26.054556
11927	9.398973	1.420615	2.140658	-0.010928	0.005282	0.002555	32.750139	-74.566809	26.065468
11928	9.404305	1.399705	2.191530	-0.007931	0.004068	0.001456	32.743777	-74.564349	26.073065
11929	9.424535	1.427180	2.189437	-0.013285	0.005618	0.000061	32.734983	-74.560754	26.079848
11930	9.383212	1.416408	2.213712	-0.010454	-0.001204	0.002772	32.730689	-74.561226	26.082576
11931	9.404508	1.376139	2.183399	-0.010266	0.001288	-0.001651	32.731472	-74.559187	26.081217
11932	9.411487	1.433894	2.170999	-0.007046	0.000443	0.003731	32.725692	-74.559213	26.089693
11933	9.383576	1.392624	2.205027	-0.011538	0.001485	0.005226	32.713527	-74.559210	26.101012
11934	9.412181	1.387518	2.153027	-0.010907	0.002165	0.001941	32.706570	-74.557818	26.106375
11935	9.404216	1.396739	2.193803	-0.007068	0.003558	0.004345	32.696181	-74.556542	26.118508
11936	9.411511	1.431595	2.172413	-0.011980	0.003296	0.004089	32.683637	-74.555301	26.130295
11937	9.424889	1.400773	2.182496	-0.010445	-0.002763	0.002464	32.681679	-74.556490	26.131675
11938	9.404283	1.395032	2.194601	-0.008562	0.003385	0.004742	32.669811	-74.555368	26.143220
11939	9.424988	1.399538	2.182864	-0.009592	-0.001715	0.005660	32.661586	-74.557039	26.151607
11940	9.432707	1.411804	2.151778	-0.013874	-0.001295	0.002118	32.656604	-74.557381	26.154147
11941	9.424803	1.420870	2.192388	-0.004711	0.003219	0.006839	32.643593	-74.557036	26.170401
11942	9.404179	1.414886	2.204721	-0.009624	0.002957	0.006582	32.628431	-74.556718	26.185994
11943	9.404213	1.414097	2.205079	-0.011539	0.001483	0.005226	32.616269	-74.556711	26.197308
11944	9.412192	1.403624	2.165068	-0.013043	0.002868	0.005929	32.600265	-74.556214	26.210372
11945	9.383849	1.384930	2.208706	-0.004533	0.007271	0.002726	32.590020	-74.552639	26.223862
11946	9.412427	1.379918	2.156829	-0.011529	-0.000076	0.004917	32.580213	-74.553255	26.233289
11947	9.411832	1.424495	2.175688	-0.014328	0.002076	0.001287	32.572674	-74.551743	26.238149
11948	9.370816	1.391003	2.190659	-0.005143	0.003472	0.005395	32.561823	-74.550775	26.252393
11949	9.424854	1.415769	2.195464	-0.007469	-0.000861	0.001978	32.560288	-74.550894	26.255102
11950	9.370659	1.412590	2.199947	-0.009564	-0.006390	0.004733	32.558860	-74.554528	26.257131
11951	9.425444	1.392030	2.185692	-0.008101	-0.001545	0.005262	32.551985	-74.555990	26.265004
11952	9.412245	1.421699	2.175727	-0.006597	-0.002931	0.004558	32.548630	-74.557879	26.269691
11953	9.404990	1.385550	2.197575	-0.011540	0.001481	0.005226	32.536469	-74.557868	26.281003
11954	9.391752	1.415215	2.187799	-0.008522	-0.002847	0.003509	32.533996	-74.559378	26.284667
11955	9.384194	1.401631	2.218949	-0.009615	0.001396	0.006275	32.521196	-74.559730	26.297787
11956	9.384618	1.378292	2.209593	-0.007650	-0.004917	0.006089	32.516826	-74.563041	26.302968
11957	9.413064	1.395825	2.166317	-0.007029	-0.002675	0.003113	32.515577	-74.564386	26.305642
11958	9.405550	1.382399	2.197163	-0.006588	-0.004489	0.004249	32.514512	-74.566903	26.307098
11959	9.413061	1.417396	2.175004	-0.008503	-0.005962	0.002891	32.516473	-74.569768	26.305565
11960	9.418834	1.373676	2.215775	-0.007048	0.000439	0.003731	32.510665	-74.569751	26.312587
11961	9.392872	1.388518	2.177600	-0.009605	-0.000162	0.005967	32.500139	-74.570760	26.323353
11962	9.413596	1.393043	2.165797	-0.008543	0.000267	0.004127	32.492978	-74.570992	26.332359
11963	9.405718	1.402244	2.206232	-0.009386	-0.002334	0.000620	32.494360	-74.571405	26.330902
11964	9.406077	1.379198	2.196919	-0.008111	0.000010	0.005571	32.485186	-74.572221	26.342649
11965	9.406143	1.378637	2.196989	-0.008965	-0.001034	0.002373	32.482290	-74.572545	26.345881
11966	9.385288	1.395304	2.218310	-0.010668	-0.000592	0.007806	32.468406	-74.574273	26.358866
11967	9.426396	1.427599	2.203836	-0.007471	-0.000862	0.001978	32.466866	-74.574392	26.361579
11968	9.406395	1.376737	2.197100	-0.009596	-0.001721	0.005657	32.458663	-74.576010	26.369810
11969	9.385553	1.393450	2.218351	-0.008534	-0.001291	0.003817	32.453768	-74.576902	26.375371
11970	9.414227	1.388478	2.165986	-0.006608	-0.001376	0.004866	32.448191	-74.578097	26.381698
11971	9.406400	1.397357	2.206423	-0.007680	-0.000249	0.007015	32.437016	-74.579467	26.394280
11972	9.419263	1.411416	2.234806	-0.011504	-0.004751	0.003989	32.433969	-74.582042	26.395906
11973	9.393981	1.381123	2.177518	-0.009147	-0.005093	0.006481	32.428283	-74.585590	26.401923
11974	9.406869	1.395165	2.205811	-0.008103	-0.001549	0.005261	32.421167	-74.587013	26.408678
11975	9.420299	1.364160	2.215425	-0.009579	-0.004836	0.005037	32.417476	-74.589993	26.412369
11976	9.407140	1.393869	2.205472	-0.008534	-0.001292	0.003818	32.412534	-74.590847	26.417660
11977	9.386887	1.365546	2.207869	-0.004665	-0.004577	0.005294	32.410917	-74.593781	26.422120
11978	9.428313	1.375511	2.183775	-0.009388	-0.002333	0.000620	32.412243	-74.594172	26.420860
11979	9.407743	1.369921	2.195587	-0.008525	-0.002849	0.003508	32.409624	-74.595721	26.424065
11980	9.395064	1.354899	2.166986	-0.006831	-0.001731	-0.001615	32.415709	-74.595105	26.418704
11981	9.407300	1.414741	2.214053	-0.008317	-0.003460	-0.001530	32.422734	-74.595403	26.412029
11982	9.387278	1.364399	2.206914	-0.009793	-0.006747	-0.001755	32.432984	-74.597197	26.401592
11983	9.402316	1.413057	2.153910	-0.009621	-0.001129	-0.005551	32.443719	-74.595131	26.390294
11984	9.441492	1.367599	2.202284	-0.007531	0.005961	-0.007988	32.452106	-74.588876	26.384056
11985	9.373694	1.395913	2.197662	-0.002158	0.001291	-0.007219	32.467333	-74.585126	26.372533
11986	9.394057	1.424218	2.194801	-0.006155	-0.008828	-0.006452	32.490268	-74.586457	26.350701
11987	9.386768	1.389100	2.215939	-0.013014	-0.005889	-0.007135	32.507136	-74.586200	26.331025
11988	9.428139	1.399964	2.191492	-0.002734	-0.008740	-0.005800	32.530614	-74.587650	26.308421
11989	9.415201	1.408176	2.171731	-0.004247	-0.005799	-0.004783	32.548284	-74.588071	26.293123
11990	9.415319	1.408283	2.171150	-0.009351	-0.008565	-0.000623	32.558759	-74.591058	26.281292
11991	9.407846	1.395097	2.201682	-0.009370	-0.005451	-0.000001	32.564731	-74.592783	26.275084
11992	9.415605	1.407855	2.170186	-0.002097	-0.005534	0.002746	32.570182	-74.595350	26.273566
11993	9.407917	1.416888	2.210052	-0.007633	-0.008043	0.005463	32.570476	-74.600012	26.274279
11994	9.416085	1.406628	2.168897	-0.010613	-0.009946	0.005944	32.570365	-74.605749	26.275113
11995	9.395679	1.400673	2.180285	-0.009578	-0.004843	0.005037	32.566707	-74.608735	26.278770
11996	9.416787	1.382695	2.158544	-0.006148	-0.006313	0.005378	32.565916	-74.612485	26.280108
11997	9.383062	1.407030	2.160313	-0.008714	-0.005361	0.007925	32.558263	-74.616612	26.288421
11998	9.442776	1.410558	2.214576	-0.007634	-0.008044	0.005462	32.558588	-74.621260	26.289960
11999	9.409600	1.389907	2.197464	-0.011064	-0.006574	0.005122	32.555863	-74.625108	26.291765
12000	9.417596	1.379782	2.156875	-0.010469	0.000345	0.003085	32.549572	-74.624921	26.298304
12001	9.409784	1.388751	2.197408	-0.008534	-0.001298	0.003821	32.544666	-74.625819	26.303875
12002	9.409594	1.410877	2.206757	-0.009390	-0.002337	0.000622	32.546031	-74.626224	26.303093
12003	9.430767	1.370641	2.176226	-0.012413	0.003545	0.002661	32.535510	-74.624426	26.312182
12004	9.409537	1.410084	2.207507	-0.013278	0.004063	-0.000226	32.528889	-74.621492	26.317353
12005	9.409484	1.409891	2.207854	-0.011758	-0.000434	-0.001558	32.530614	-74.620316	26.314130
12006	9.409725	1.387279	2.198590	-0.013685	-0.000349	-0.002605	32.533067	-74.618720	26.308934
12007	9.417819	1.355100	2.149017	-0.014764	0.002332	-0.000141	32.527485	-74.616644	26.311505
12008	9.417240	1.399928	2.168219	-0.004933	0.002853	0.000369	32.526052	-74.614424	26.315143
12009	9.396777	1.371997	2.171214	-0.015206	0.004148	-0.001273	32.520171	-74.611121	26.317760
12010	9.409176	1.409195	2.209611	-0.011137	0.001815	-0.004529	32.525026	-74.607918	26.312409
12011	9.396298	1.394378	2.181650	-0.009443	0.007002	0.002494	32.512646	-74.604397	26.325192
12012	9.388577	1.381020	2.213325	-0.017124	0.002677	-0.002633	32.509637	-74.601338	26.322848
12013	9.388439	1.381041	2.213894	-0.013082	0.005015	-0.004952	32.510463	-74.596484	26.319772
12014	9.395891	1.394166	2.183538	-0.008805	0.006138	-0.001100	32.505637	-74.592251	26.324938
12015	9.395782	1.394115	2.184038	-0.012200	0.001380	-0.002691	32.507064	-74.589849	26.321762
12016	9.416350	1.399337	2.172463	-0.008788	0.003024	-0.001726	32.506714	-74.586920	26.321369
12017	9.395379	1.416574	2.194089	-0.010264	-0.000263	-0.001956	32.509796	-74.585538	26.317626
12018	9.403236	1.407143	2.153765	-0.012191	-0.000177	-0.003004	32.513495	-74.583768	26.312322
12019	9.408892	1.363754	2.194504	-0.007266	-0.001472	-0.003061	32.521578	-74.582630	26.305172
12020	9.415964	1.421784	2.182447	-0.009409	0.000772	0.001244	32.518437	-74.581712	26.309088
12021	9.408601	1.385901	2.204265	-0.013263	0.000945	-0.000852	32.516517	-74.580087	26.308753
12022	9.416169	1.398706	2.173650	-0.012849	0.003797	0.001218	32.508020	-74.577644	26.314087
12023	9.400837	1.372253	2.236230	-0.008797	0.004580	-0.001412	32.505582	-74.574089	26.316942
12024	9.395296	1.393300	2.186649	-0.013074	0.003457	-0.005264	32.508696	-74.569857	26.311492
12025	9.428819	1.390947	2.194307	-0.008158	0.003719	-0.005007	32.513878	-74.565611	26.306821
12026	9.394980	1.393827	2.187670	-0.008167	0.005276	-0.004694	32.516823	-74.560658	26.304266
12027	9.402435	1.407303	2.157158	-0.012003	0.002335	-0.007417	32.525555	-74.556339	26.293627
12028	9.402311	1.407699	2.157438	-0.008140	0.000606	-0.005635	32.535286	-74.553378	26.284368
12029	9.407890	1.364613	2.198261	-0.008572	0.000867	-0.007078	32.547020	-74.549872	26.272655
12030	9.414808	1.423247	2.186474	-0.010509	0.002509	-0.007812	32.557207	-74.545296	26.261629
12031	9.373930	1.368139	2.191738	-0.010077	0.002248	-0.006369	32.565290	-74.541340	26.252810
12032	9.415369	1.356679	2.158730	-0.009005	0.001127	-0.008522	32.578901	-74.537212	26.237867
12033	9.414357	1.424588	2.187545	-0.006242	0.005188	-0.003645	32.581138	-74.532676	26.237392
12034	9.406873	1.389188	2.209561	-0.014994	0.001983	-0.006627	32.587058	-74.528743	26.227605
12035	9.414362	1.402494	2.179033	-0.007305	0.004752	-0.001806	32.585963	-74.524985	26.229955
12036	9.414231	1.402576	2.179545	-0.011150	0.003367	-0.004217	32.588295	-74.521125	26.225930
12037	9.406205	1.411973	2.220462	-0.008791	0.003020	-0.001725	32.588139	-74.518228	26.226422
12038	9.393399	1.397414	2.192168	-0.009203	0.000168	-0.003798	32.594428	-74.516027	26.219053
12039	9.406089	1.412010	2.220930	-0.009844	0.001026	-0.000202	32.593233	-74.514563	26.219996
12040	9.406367	1.389367	2.211603	-0.008339	-0.000355	-0.000912	32.595551	-74.513522	26.217663
12041	9.413974	1.402582	2.180652	-0.009194	-0.001388	-0.004113	32.604231	-74.512016	26.208746
12042	9.393281	1.397304	2.192744	-0.008359	0.002757	-0.000282	32.602158	-74.509697	26.213057
12043	9.405917	1.411994	2.221668	-0.008151	0.002161	-0.005321	32.609584	-74.506105	26.206063
12044	9.406146	1.389606	2.212394	-0.011762	-0.000445	-0.001565	32.611253	-74.504884	26.202133
12045	9.413398	1.425300	2.191202	-0.011151	0.003366	-0.004216	32.613691	-74.501051	26.198530
12046	9.392947	1.397622	2.193971	-0.007287	0.001638	-0.002435	32.617135	-74.498545	26.195216
12047	9.420843	1.438588	2.160922	-0.010287	0.002842	-0.001330	32.615627	-74.495856	26.196221
12048	9.384788	1.407025	2.235388	-0.008613	0.007091	-0.005819	32.618198	-74.489662	26.193026
12049	9.425959	1.417565	2.212166	-0.012413	0.001966	0.002345	32.610056	-74.488531	26.199652
12050	9.384579	1.406918	2.236334	-0.012006	0.002333	-0.007419	32.618767	-74.484176	26.189318
12051	9.384465	1.407165	2.236656	-0.007287	0.001637	-0.002435	32.622239	-74.481727	26.186938
12052	9.405074	1.412529	2.224894	-0.012185	-0.001742	-0.003326	32.628213	-74.480579	26.178388
12053	9.412651	1.425824	2.194070	-0.009215	0.001723	-0.003484	32.632306	-74.477764	26.174219
12054	9.379194	1.406048	2.177680	-0.012637	0.001632	-0.004138	32.635561	-74.474788	26.169091
12055	9.392119	1.398293	2.197087	-0.011142	0.001808	-0.004532	32.640272	-74.471609	26.163134
12056	9.391747	1.420763	2.206889	-0.009846	0.001021	-0.000203	32.639027	-74.470142	26.164770
12057	9.425621	1.395803	2.204937	-0.012017	0.003889	-0.007102	32.645382	-74.465164	26.156585
12058	9.391489	1.421113	2.207763	-0.009225	0.003278	-0.003168	32.647191	-74.461649	26.154336
12059	9.412086	1.426366	2.196141	-0.011331	-0.000712	-0.000125	32.646942	-74.461048	26.153414
12060	9.412340	1.403736	2.186954	-0.012226	0.004480	-0.002062	32.643651	-74.457307	26.154325
12061	9.391898	1.375848	2.189807	-0.010289	0.002838	-0.001330	32.642144	-74.454620	26.155328
12062	9.432453	1.431392	2.185663	-0.007319	0.006304	-0.001486	32.638805	-74.450181	26.160259
12063	9.391053	1.420649	2.209915	-0.011774	0.001105	-0.001253	32.638239	-74.448354	26.159403
12064	9.411684	1.425827	2.198213	-0.009836	-0.000536	-0.000520	32.639219	-74.447486	26.156499
12065	9.404020	1.412594	2.229304	-0.011133	0.000252	-0.004850	32.646202	-74.444959	26.148188
12066	9.383617	1.384700	2.231977	-0.009436	0.003868	0.001873	32.638497	-74.442747	26.156578
12067	9.391136	1.397827	2.201580	-0.011164	0.004919	-0.003899	32.638634	-74.438262	26.155355
12068	9.411037	1.448115	2.209298	-0.006867	0.002929	-0.000676	32.637960	-74.435689	26.157749
12069	9.390947	1.397791	2.202410	-0.012207	0.001367	-0.002696	32.639355	-74.433290	26.154600
12070	9.390869	1.397845	2.202705	-0.009216	0.001722	-0.003485	32.643322	-74.430467	26.150574
12071	9.390445	1.420453	2.212623	-0.007731	0.003454	-0.003562	32.646462	-74.426793	26.148274
12072	9.390341	1.420483	2.213047	-0.010290	0.002836	-0.001330	32.644968	-74.424100	26.150114
12073	9.390256	1.420494	2.213399	-0.009216	0.001721	-0.003485	32.649045	-74.421286	26.145959
12074	9.405760	1.424569	2.142328	-0.015209	0.002566	-0.001591	32.645393	-74.418624	26.145965
12075	9.382745	1.384695	2.235646	-0.004319	0.005102	-0.002589	32.646978	-74.414456	26.147309
12076	9.423322	1.440255	2.231430	-0.011344	0.000839	0.000189	32.644469	-74.413191	26.149382
12077	9.376926	1.428227	2.195790	-0.010701	-0.000012	-0.003409	32.649481	-74.411237	26.143372
12078	9.403165	1.389984	2.224792	-0.007753	0.006565	-0.002926	32.648071	-74.406220	26.145630
12079	9.402369	1.434958	2.244524	-0.010723	0.003098	-0.002774	32.648525	-74.402962	26.144339
12080	9.410590	1.403218	2.194801	-0.014767	0.000746	-0.000467	32.645110	-74.401528	26.143912
12081	9.410171	1.425635	2.204807	-0.006247	0.005187	-0.003637	32.647308	-74.396995	26.143473
12082	9.402456	1.412308	2.236071	-0.011334	-0.000718	-0.000130	32.647124	-74.396379	26.143327
12083	9.397035	1.433269	2.186464	-0.011377	0.005503	0.001142	32.637779	-74.393170	26.151822
12084	9.402662	1.389302	2.227344	-0.011777	0.001101	-0.001255	32.637225	-74.391336	26.151689
12085	9.389259	1.419581	2.218207	-0.010292	0.002834	-0.001331	32.635728	-74.388651	26.152681
12086	9.389211	1.419395	2.218533	-0.011345	0.000836	0.000187	32.633139	-74.387382	26.154172
12087	9.410164	1.402111	2.197336	-0.011777	0.001100	-0.001256	32.632579	-74.385557	26.153308
12088	9.376435	1.404578	2.190471	-0.010292	0.002833	-0.001331	32.631139	-74.382847	26.154768
12089	9.388729	1.441508	2.228990	-0.007279	0.000079	-0.002755	32.636872	-74.381051	26.150046
12090	9.409676	1.424378	2.207728	-0.013273	0.000921	-0.000862	32.634882	-74.379380	26.148528
12091	9.389302	1.396374	2.210306	-0.008365	0.002747	-0.000281	32.632775	-74.377061	26.151299
12092	9.414911	1.402938	2.258359	-0.006226	0.002077	-0.004273	32.639368	-74.373840	26.146579
12093	9.396475	1.432255	2.189533	-0.013263	-0.000635	-0.001181	32.639744	-74.372875	26.143858
12094	9.388838	1.418697	2.220556	-0.011335	-0.000721	-0.000132	32.639518	-74.372239	26.142793
12095	9.389147	1.396065	2.211159	-0.004942	0.002839	0.000375	32.638139	-74.370079	26.146845
12096	9.401446	1.432827	2.249745	-0.011778	0.001098	-0.001256	32.637415	-74.368232	26.145433
12097	9.422380	1.415576	2.228626	-0.013285	0.002475	-0.000544	32.633244	-74.365964	26.147421
12098	9.409637	1.400914	2.200351	-0.008366	0.002746	-0.000281	32.630989	-74.363614	26.149436
12099	9.401273	1.432462	2.250701	-0.011124	-0.001304	-0.005174	32.640210	-74.361738	26.138804
12100	9.388530	1.417994	2.222305	-0.009873	0.004122	0.000432	32.634477	-74.358959	26.144779
12101	9.409455	1.400790	2.201210	-0.006859	0.001369	-0.000993	32.635984	-74.357085	26.144694
12102	9.388402	1.417753	2.223001	-0.010294	0.002831	-0.001330	32.634211	-74.354374	26.144375
12103	9.395973	1.431070	2.192459	-0.012211	0.001362	-0.002700	32.635599	-74.351976	26.141229
12104	9.401552	1.387480	2.233157	-0.005174	0.004077	-0.005788	32.643266	-74.347282	26.135240
12105	9.408682	1.423708	2.212390	-0.012022	0.003891	-0.007102	32.649548	-74.342303	26.127124
12106	9.400866	1.410624	2.243806	-0.013086	0.003446	-0.005266	32.652476	-74.338048	26.120622
12107	9.400722	1.410840	2.244275	-0.006238	0.003633	-0.003952	32.656931	-74.334167	26.117845
12108	9.374533	1.427164	2.206672	-0.013950	0.003976	-0.008152	32.663892	-74.328794	26.108441
12109	9.407990	1.425071	2.214456	-0.012454	0.004155	-0.008545	32.672098	-74.323241	26.098067
12110	9.374113	1.428111	2.207846	-0.008610	0.005538	-0.006125	32.676879	-74.317730	26.093649
12111	9.386889	1.420591	2.227573	-0.010970	0.005889	-0.008618	32.684139	-74.311317	26.085141
12112	9.407359	1.426406	2.216277	-0.013076	0.001889	-0.005587	32.689409	-74.307743	26.077638
12113	9.394141	1.434818	2.197855	-0.012910	0.007529	-0.009347	32.694993	-74.300313	26.069716
12114	9.386302	1.421843	2.229249	-0.006216	0.000522	-0.004593	32.703916	-74.297688	26.061537
12115	9.373174	1.430046	2.210578	-0.011172	0.004912	-0.003896	32.704021	-74.293207	26.060341
12116	9.394047	1.413230	2.189583	-0.013076	0.001887	-0.005588	32.709211	-74.289604	26.051585
12117	9.393230	1.458333	2.209158	-0.006216	0.000522	-0.004594	32.718179	-74.287023	26.044132
12118	9.398908	1.414613	2.249492	-0.013685	-0.001934	-0.002952	32.722613	-74.286099	26.035933
12119	9.386246	1.400200	2.220841	-0.008777	-0.000104	-0.002366	32.726983	-74.284510	26.031732
12120	9.385439	1.445160	2.240450	-0.006240	0.003631	-0.003952	32.731564	-74.280590	26.029446
12121	9.406418	1.428234	2.219090	-0.013242	-0.003755	-0.001830	32.736476	-74.280926	26.022024
12122	9.365142	1.417449	2.242527	-0.011101	-0.004417	-0.005822	32.750183	-74.280318	26.006907
12123	9.385803	1.422986	2.230617	-0.008345	-0.000371	-0.000923	32.752620	-74.279304	26.004970
12124	9.372797	1.431020	2.211547	-0.010681	-0.003129	-0.004058	32.762053	-74.278632	25.994426
12125	9.406100	1.450953	2.228380	-0.012190	-0.001755	-0.003344	32.767956	-74.277534	25.986601
12126	9.385794	1.423220	2.230506	-0.005773	-0.001299	-0.003472	32.777425	-74.276144	25.979876
12127	9.385431	1.445571	2.240220	-0.012835	-0.000914	0.000255	32.775871	-74.275757	25.979413
12128	9.406495	1.428401	2.218659	-0.009818	-0.003662	-0.001173	32.781640	-74.276219	25.973815
12129	9.377799	1.431908	2.271165	-0.011163	0.003355	-0.004215	32.783987	-74.272389	25.970295
12130	9.392988	1.458887	2.209821	-0.010287	0.001268	-0.001651	32.784834	-74.270334	25.969558
12131	9.398691	1.415124	2.250076	-0.006193	-0.002587	-0.005237	32.798319	-74.269048	25.957425
12132	9.385310	1.445877	2.240532	-0.011102	-0.004418	-0.005824	32.811945	-74.268466	25.942897
12133	9.392610	1.481884	2.219167	-0.011747	-0.003578	-0.002224	32.818188	-74.268592	25.934982
12134	9.419400	1.421030	2.237733	-0.008766	-0.001661	-0.002687	32.824799	-74.267620	25.928359
12135	9.372361	1.454099	2.221092	-0.008754	-0.003216	-0.003009	32.833698	-74.267327	25.919465
12136	9.419477	1.421107	2.237363	-0.009806	-0.005218	-0.001497	32.841448	-74.268414	25.909422
12137	9.393128	1.459609	2.208747	-0.007258	-0.003035	-0.003402	32.851675	-74.267911	25.900039
12138	9.372514	1.454204	2.220376	-0.008322	-0.003483	-0.001567	32.858525	-74.268162	25.892754
12139	9.398639	1.437859	2.258251	-0.008534	-0.002910	0.003476	32.856133	-74.269737	25.895723
12140	9.373053	1.431255	2.210310	-0.008322	-0.003483	-0.001567	32.863183	-74.269954	25.888338
12141	9.406760	1.428435	2.217513	-0.012416	0.000369	0.002021	32.857432	-74.269498	25.892484
12142	9.373097	1.430646	2.210518	-0.007927	0.000913	0.000843	32.855764	-74.268421	25.896752
12143	9.406410	1.450193	2.227566	-0.009411	-0.000823	0.000913	32.854944	-74.268194	25.897565
12144	9.386143	1.422210	2.229681	-0.008767	-0.001661	-0.002687	32.861648	-74.267218	25.891319
12145	9.385724	1.444648	2.239590	-0.007308	0.003183	-0.002111	32.862779	-74.264123	25.891357
12146	9.406273	1.450355	2.228037	-0.003226	0.000887	-0.005377	32.874313	-74.261078	25.882425
12147	9.386320	1.400310	2.220458	-0.010264	-0.001844	-0.002295	32.879608	-74.260345	25.876376
12148	9.385576	1.445217	2.239843	-0.011117	-0.002864	-0.005503	32.891038	-74.259069	25.863464
12149	9.372888	1.431087	2.211115	-0.009212	0.000159	-0.003807	32.897304	-74.256901	25.857033
12150	9.406133	1.451144	2.228115	-0.006207	-0.001031	-0.004915	32.908536	-74.254942	25.847836
12151	9.365114	1.418131	2.242212	-0.013516	0.002151	-0.007026	32.915624	-74.250813	25.837990
12152	9.418925	1.443694	2.247711	-0.014580	0.001701	-0.005191	32.919395	-74.247465	25.831219
12153	9.372098	1.454538	2.221916	-0.008174	0.003717	-0.004995	32.924346	-74.243216	25.826772
12154	9.418275	1.466490	2.258327	-0.009238	0.003267	-0.003160	32.926094	-74.239730	25.825506
12155	9.384868	1.446647	2.241885	-0.010315	0.004371	-0.001002	32.922290	-74.236410	25.828882
12156	9.405425	1.452063	2.230504	-0.012219	0.001347	-0.002700	32.923583	-74.233978	25.825454
12157	9.405736	1.429665	2.221059	-0.012219	0.001347	-0.002700	32.924916	-74.231583	25.822359
12158	9.392250	1.460074	2.212173	-0.012232	0.002901	-0.002376	32.923994	-74.228488	25.821073
12159	9.384509	1.446445	2.243518	-0.012245	0.004455	-0.002052	32.920782	-74.224800	25.822685
12160	9.384384	1.446448	2.244035	-0.009239	0.003266	-0.003160	32.922523	-74.221305	25.821106
12161	9.383896	1.468928	2.254162	-0.009226	0.001712	-0.003484	32.926501	-74.218490	25.817043
12162	9.392207	1.437832	2.204142	-0.014149	0.001431	-0.003751	32.928441	-74.215693	25.812204
12163	9.418148	1.421642	2.242609	-0.010316	0.004369	-0.001002	32.924642	-74.212373	25.815573
12164	9.370946	1.454769	2.226617	-0.010091	0.002248	-0.006369	32.932229	-74.208390	25.806516
12165	9.412090	1.466037	2.203504	-0.011182	0.004904	-0.003886	32.932249	-74.203914	25.805401
12166	9.376420	1.411106	2.267701	-0.011169	0.003350	-0.004211	32.934441	-74.200064	25.801752
12167	9.391215	1.460717	2.216136	-0.006852	-0.000196	-0.001317	32.938190	-74.198842	25.799342
12168	9.396566	1.438983	2.266144	-0.013717	0.001161	-0.002309	32.938026	-74.196642	25.796323
12169	9.391469	1.438437	2.206887	-0.010092	0.002248	-0.006369	32.945810	-74.192670	25.787789
12170	9.370717	1.433292	2.218876	-0.008137	-0.000945	-0.005969	32.957552	-74.190316	25.776034
12171	9.403882	1.453389	2.236137	-0.013099	0.003434	-0.005261	32.960417	-74.186119	25.770822
12172	9.383124	1.448152	2.248203	-0.008137	-0.000945	-0.005969	32.972096	-74.183783	25.759380
12173	9.390667	1.462044	2.217585	-0.011157	0.001795	-0.004535	32.976641	-74.180600	25.753578
12174	9.403619	1.454138	2.236755	-0.009201	-0.001398	-0.004135	32.985105	-74.179050	25.744770
12175	9.390959	1.439998	2.208039	-0.010712	-0.000028	-0.003418	32.990014	-74.177090	25.738855
12176	9.370266	1.434434	2.220042	-0.011789	0.001073	-0.001259	32.989399	-74.175240	25.737724
12177	9.403469	1.454227	2.237329	-0.009228	0.001709	-0.003485	32.993355	-74.172425	25.733681
12178	9.389953	1.484713	2.228501	-0.012235	0.002895	-0.002376	32.992487	-74.169347	25.733125
12179	9.370020	1.434581	2.220986	-0.006221	0.000523	-0.004594	33.001348	-74.166756	25.725775
12180	9.403646	1.432195	2.228269	-0.012196	-0.001767	-0.003353	33.007188	-74.165630	25.718150
12181	9.390202	1.462761	2.219081	-0.009202	-0.001399	-0.004136	33.015678	-74.164104	25.709411
12182	9.382557	1.449229	2.249875	-0.012196	-0.001767	-0.003353	33.021643	-74.162934	25.701117
12183	9.377520	1.448673	2.190439	-0.010726	0.001524	-0.003093	33.024273	-74.160329	25.697561
12184	9.402712	1.477028	2.248327	-0.012855	0.000617	0.000575	33.020571	-74.159308	25.700855
12185	9.395453	1.440952	2.269508	-0.011145	0.000240	-0.004861	33.027367	-74.156769	25.692719
12186	9.369814	1.434559	2.221870	-0.011557	-0.000192	0.004901	33.017731	-74.157446	25.700250
12187	9.382441	1.448402	2.250890	-0.010294	0.001255	-0.001651	33.018464	-74.155421	25.698924
12188	9.402643	1.476165	2.249179	-0.009861	0.000985	-0.000209	33.017221	-74.153934	25.699029
12189	9.382406	1.448013	2.251287	-0.009415	-0.000838	0.000907	33.016430	-74.153713	25.699810
12190	9.382463	1.447661	2.251276	-0.012396	-0.002761	0.001363	33.015217	-74.154554	25.699632
12191	9.382127	1.469511	2.261137	-0.008564	0.000176	0.004118	33.008363	-74.154848	25.707222
12192	9.390643	1.437948	2.210718	-0.011964	-0.003031	0.002805	33.005196	-74.156277	25.709256
12193	9.390272	1.460075	2.220552	-0.007287	0.000071	-0.002760	33.010833	-74.154475	25.704623
12194	9.382655	1.446421	2.251274	-0.008324	-0.003491	-0.001580	33.017697	-74.154734	25.697831
12195	9.403387	1.451705	2.239311	-0.008537	-0.002932	0.003464	33.015384	-74.156318	25.700717
12196	9.390886	1.437211	2.210164	-0.009795	-0.006783	-0.001843	33.025580	-74.158041	25.689204
12197	9.369507	1.476190	2.241411	-0.007919	-0.000654	0.000516	33.026105	-74.157610	25.689508
12198	9.403991	1.428709	2.229049	-0.007932	0.000899	0.000843	33.024273	-74.156497	25.691486
12199	9.403594	1.450727	2.239077	-0.007500	0.000629	0.002285	33.020633	-74.156002	25.696369
12200	9.390623	1.458473	2.220121	-0.008970	-0.002663	0.002022	33.020314	-74.156952	25.696771
12201	9.383408	1.422188	2.241179	-0.010309	0.002808	-0.001322	33.018773	-74.154284	25.697799
12202	9.382591	1.466514	2.261157	-0.008564	0.000173	0.004118	33.011718	-74.154588	25.705493
12203	9.383450	1.421537	2.241417	-0.008325	-0.003491	-0.001581	33.018681	-74.154865	25.698863
12204	9.383097	1.443667	2.251198	-0.010914	-0.001025	0.001298	33.016335	-74.154826	25.698896
12205	9.403798	1.448929	2.239384	-0.005976	-0.002294	0.001238	33.018554	-74.155408	25.698595
12206	9.370228	1.451240	2.231937	-0.010874	-0.005685	0.000316	33.023078	-74.157343	25.693139
12207	9.383777	1.420370	2.240785	-0.008538	-0.002935	0.003463	33.020769	-74.158928	25.696020
12208	9.383143	1.464367	2.260257	-0.009156	-0.005215	0.006410	33.015590	-74.162522	25.701955
12209	9.370694	1.449698	2.230980	-0.009364	-0.007054	-0.000404	33.023888	-74.164878	25.693318
12210	9.383880	1.441190	2.249520	-0.006594	-0.004575	0.004185	33.023336	-74.167407	25.694782
12211	9.391650	1.454334	2.218489	-0.004677	-0.003107	0.005564	33.019868	-74.169730	25.701167
12212	9.391811	1.453716	2.218212	-0.008092	-0.004760	0.004577	33.017884	-74.172534	25.704383
12213	9.391969	1.453091	2.217956	-0.008105	-0.003207	0.004905	33.013675	-74.174700	25.709497
12214	9.384910	1.416302	2.238614	-0.005742	-0.003564	0.007397	33.006933	-74.177811	25.719048
12215	9.405720	1.421107	2.226611	-0.009603	-0.003392	0.005297	33.001402	-74.180187	25.724643
12216	9.425750	1.470585	2.234381	-0.007673	-0.003478	0.006347	32.995263	-74.182925	25.732510
12217	9.372038	1.444451	2.228737	-0.008711	-0.007042	0.007523	32.990481	-74.187750	25.737857
12218	9.371529	1.488066	2.248098	-0.009801	-0.004392	0.010013	32.977945	-74.192058	25.750968
12219	9.393522	1.425868	2.206307	-0.008514	-0.006042	0.002807	32.980176	-74.194931	25.749144
12220	9.359239	1.472637	2.218588	-0.005111	-0.002837	0.004122	32.978637	-74.196647	25.753598
12221	9.385848	1.433312	2.246341	-0.009158	-0.005218	0.006410	32.973471	-74.200247	25.759079
12222	9.386407	1.410241	2.236163	-0.006175	-0.003294	0.005955	32.968583	-74.202762	25.765846
12223	9.393786	1.445676	2.215104	-0.006609	-0.003023	0.004513	32.965677	-74.204716	25.770495
12224	9.373330	1.439434	2.226547	-0.009146	-0.006772	0.006081	32.962858	-74.208899	25.773060
12225	9.381092	1.452486	2.195606	-0.006634	0.000084	0.005171	32.955393	-74.209564	25.782432
12226	9.381210	1.451902	2.195491	-0.006597	-0.004576	0.004184	32.954611	-74.212170	25.785025
12227	9.394382	1.443188	2.214198	-0.008540	-0.002936	0.003464	32.952284	-74.213754	25.787924
12228	9.373880	1.437092	2.225745	-0.006597	-0.004577	0.004184	32.951615	-74.216329	25.790164
12229	9.399713	1.442441	2.273372	-0.010050	-0.001568	0.004185	32.945686	-74.217480	25.795905
12230	9.387087	1.427883	2.244621	-0.007933	0.000900	0.000847	32.943888	-74.216406	25.799222
12231	9.386773	1.449921	2.254488	-0.007464	-0.004032	0.001301	32.947063	-74.217844	25.797043
12232	9.387256	1.427249	2.244316	-0.010459	-0.004403	0.002085	32.947539	-74.219714	25.796681
12233	9.374726	1.412725	2.215128	-0.010447	-0.005956	0.001756	32.950354	-74.222219	25.793100
12234	9.400514	1.418381	2.262758	-0.008355	-0.000381	-0.000923	32.952722	-74.221186	25.791099
12235	9.374459	1.434676	2.224867	-0.006412	-0.002022	-0.000203	32.956842	-74.221188	25.788565
12236	9.374525	1.434498	2.224701	-0.009395	-0.003945	0.000251	32.960519	-74.222227	25.784179
12237	9.382213	1.448121	2.193699	-0.013246	-0.005324	-0.002177	32.967725	-74.223201	25.774368
12238	9.407964	1.454021	2.241342	-0.010708	-0.001574	-0.003742	32.974820	-74.221891	25.766643
12239	9.382588	1.425989	2.183613	-0.005782	-0.001291	-0.003477	32.984064	-74.220520	25.759159
12240	9.374575	1.434661	2.224389	-0.009235	0.001717	-0.003475	32.988064	-74.217666	25.755146
12241	9.394888	1.462452	2.222411	-0.012367	-0.007424	0.000375	32.993753	-74.220444	25.747435
12242	9.395667	1.417884	2.202313	-0.008147	-0.000930	-0.005968	33.005440	-74.218102	25.736007
12243	9.408335	1.432098	2.231139	-0.006412	-0.002023	-0.000203	33.009561	-74.218104	25.733471
12244	9.387669	1.426536	2.243045	-0.011167	0.001804	-0.004523	33.013971	-74.214893	25.727204
12245	9.361511	1.443186	2.205347	-0.007713	-0.001204	-0.004527	33.023788	-74.213151	25.717974
12246	9.374117	1.457679	2.234240	-0.007083	-0.000471	-0.007801	33.038710	-74.210049	25.704977
12247	9.374708	1.413568	2.214667	-0.012047	0.003903	-0.007075	33.044725	-74.205057	25.697118
12248	9.394815	1.442011	2.213130	-0.007517	-0.000198	-0.009242	33.061482	-74.201338	25.680649
12249	9.381673	1.450732	2.194284	-0.013074	-0.001216	-0.006233	33.071124	-74.199067	25.668408
12250	9.373634	1.459722	2.234931	-0.004075	-0.001652	-0.008916	33.090957	-74.196172	25.651950
12251	9.373943	1.437806	2.225018	-0.012219	-0.000211	-0.003021	33.094523	-74.194422	25.646533
12252	9.407531	1.435423	2.232392	-0.005177	0.002547	-0.006091	33.104259	-74.190374	25.639166
12253	9.373710	1.438531	2.225531	-0.010526	0.000982	-0.008128	33.116128	-74.186452	25.626128
12254	9.380780	1.475154	2.205018	-0.012024	0.000795	-0.007736	33.126687	-74.182728	25.613983
12255	9.373423	1.439536	2.226093	-0.009041	0.002721	-0.008189	33.137576	-74.177951	25.602847
12256	9.393852	1.445854	2.214707	-0.006479	0.003368	-0.010413	33.152896	-74.172142	25.588179
12257	9.373427	1.418705	2.216802	-0.010947	-0.000299	-0.009900	33.168910	-74.168276	25.570580
12258	9.364501	1.472594	2.277571	-0.001974	0.002376	-0.011920	33.190450	-74.162470	25.552300
12259	9.351724	1.459288	2.248686	-0.008122	-0.004039	-0.006632	33.206677	-74.161420	25.536162
12260	9.393734	1.426539	2.204971	-0.008990	-0.003492	-0.009514	33.226575	-74.159192	25.515615
12261	9.364693	1.452134	2.267258	-0.002787	-0.000919	-0.004262	33.238399	-74.157387	25.507231
12262	9.392918	1.471872	2.224519	-0.008739	-0.006327	-0.003689	33.251722	-74.158326	25.493060
12263	9.393005	1.472024	2.224053	-0.008739	-0.006327	-0.003689	33.265153	-74.159292	25.479460
12264	9.406476	1.441556	2.232883	-0.006873	0.001351	-0.000983	33.266493	-74.157428	25.479707
12265	9.371988	1.488607	2.245826	-0.006425	-0.000476	0.000126	33.268327	-74.156789	25.479539
12266	9.406474	1.441250	2.233090	-0.011353	-0.000765	-0.000139	33.268086	-74.156169	25.478224
12267	9.372771	1.443801	2.226077	-0.009226	0.000158	-0.003805	33.274249	-74.153992	25.471890
12268	9.372776	1.443752	2.226086	-0.005978	-0.002303	0.001235	33.276527	-74.154549	25.471747
12269	9.393093	1.471476	2.224044	-0.011314	-0.005424	-0.001134	33.283169	-74.155884	25.463671
12270	9.372593	1.465518	2.235506	-0.008526	-0.004506	0.003128	33.283234	-74.158071	25.463735
12271	9.406451	1.462389	2.242247	-0.008079	-0.006333	0.004237	33.283671	-74.161530	25.464034
12272	9.373405	1.441903	2.224635	-0.011704	-0.007444	0.008294	33.276431	-74.166779	25.470528
12273	9.373325	1.463128	2.234002	-0.009759	-0.009084	0.009011	33.270888	-74.173057	25.476043
12274	9.393874	1.490193	2.231450	-0.007620	-0.009713	0.005013	33.273984	-74.178329	25.472988
12275	9.366736	1.425253	2.253357	-0.011718	-0.005893	0.008627	33.264423	-74.182957	25.481513
12276	9.382087	1.452189	2.191550	-0.009578	-0.006521	0.004629	33.263610	-74.186623	25.483228
12277	9.374407	1.459770	2.231657	-0.010195	-0.008811	0.007570	33.259941	-74.192316	25.486534
12278	9.408361	1.456209	2.238251	-0.012153	-0.005619	0.007186	33.252211	-74.196353	25.493204
12279	9.395877	1.441312	2.209072	-0.009169	-0.003691	0.006734	33.244855	-74.199330	25.500953
12280	9.375073	1.457232	2.230519	-0.008081	-0.006334	0.004236	33.245198	-74.202800	25.501865
12281	9.408904	1.454043	2.237379	-0.008553	-0.001401	0.003794	33.240629	-74.203757	25.507085
12282	9.396316	1.439559	2.208346	-0.010461	-0.004419	0.002080	33.241137	-74.205613	25.505912
12283	9.388172	1.469578	2.258802	-0.007672	-0.003505	0.006342	33.235090	-74.208378	25.513192
12284	9.396576	1.438442	2.207969	-0.012841	-0.002504	-0.000076	33.235732	-74.208626	25.509938
12285	9.375650	1.454678	2.229762	-0.010486	-0.001314	0.002746	33.231733	-74.209212	25.513414
12286	9.375719	1.454187	2.229791	-0.010486	-0.001314	0.002746	33.227843	-74.209794	25.518134
12287	9.409456	1.451156	2.236929	-0.009423	-0.000851	0.000913	33.227045	-74.209582	25.518917
12288	9.376164	1.431273	2.219870	-0.007925	-0.000664	0.000521	33.227602	-74.209141	25.519758
12289	9.355215	1.447555	2.241738	-0.012419	-0.001227	0.001697	33.224175	-74.209355	25.521489
12290	9.362823	1.461141	2.211054	-0.009411	-0.002404	0.000579	33.225606	-74.209771	25.520005
12291	9.376283	1.430256	2.220022	-0.007515	0.002166	0.002628	33.219646	-74.208652	25.527289
12292	9.396547	1.457687	2.218524	-0.013930	0.000137	0.002423	33.212625	-74.208421	25.532216
12293	9.389027	1.443325	2.249329	-0.009424	-0.000852	0.000913	33.211829	-74.208210	25.532997
12294	9.368429	1.437246	2.261304	-0.010512	0.001789	0.003413	33.203212	-74.207476	25.540751
12295	9.404203	1.470208	2.188364	-0.013484	-0.001692	0.003529	33.196586	-74.208488	25.545172
12296	9.396397	1.477628	2.229184	-0.010271	0.000496	0.009566	33.179059	-74.210363	25.563639
12297	9.363577	1.434748	2.202080	-0.010682	-0.002333	0.007458	33.168083	-74.212913	25.574249
12298	9.376020	1.469854	2.241345	-0.013739	0.005053	0.009912	33.143032	-74.212687	25.598586
12299	9.410174	1.443871	2.238624	-0.010671	-0.003886	0.007123	33.134344	-74.215876	25.606825
12300	9.363614	1.453716	2.212599	-0.005971	0.000040	0.013102	33.113808	-74.219027	25.630052
12301	9.376835	1.444156	2.231615	-0.010272	0.000494	0.009566	33.096339	-74.220877	25.647653
12302	9.418241	1.454165	2.208214	-0.010902	-0.000248	0.012838	33.073788	-74.224074	25.670243
12303	9.364470	1.427504	2.202987	-0.010902	-0.000248	0.012838	33.051207	-74.227299	25.692782
12304	9.397608	1.468051	2.230404	-0.005354	0.002332	0.010164	33.033595	-74.228458	25.715191
12305	9.357253	1.411051	2.233757	-0.008924	-0.006547	0.012547	33.019591	-74.234615	25.729992
12306	9.364787	1.445996	2.212693	-0.007860	-0.006083	0.010715	33.008713	-74.239978	25.742537
12307	9.357115	1.453288	2.253068	-0.007677	-0.003511	0.006338	33.002622	-74.242737	25.749860
12308	9.378611	1.413598	2.220854	-0.008730	-0.005528	0.007835	32.995623	-74.246902	25.757615
12309	9.378566	1.434851	2.230345	-0.006340	-0.009001	0.009653	32.990716	-74.253333	25.764503
12310	9.412568	1.431188	2.236703	-0.008708	-0.008633	0.007165	32.988262	-74.258807	25.768006
12311	9.387101	1.424702	2.188117	-0.006330	-0.010554	0.009318	32.985644	-74.265879	25.772521
12312	9.379597	1.431877	2.227918	-0.005895	-0.010832	0.010758	32.981107	-74.273530	25.779834
12313	9.413614	1.428140	2.234249	-0.008719	-0.007082	0.007500	32.976368	-74.278366	25.785130
12314	9.367138	1.438445	2.207656	-0.007635	-0.009721	0.004998	32.979218	-74.283678	25.782183
12315	9.372714	1.437247	2.266338	-0.008023	-0.011765	0.014421	32.968238	-74.292924	25.794376
12316	9.394165	1.419194	2.243224	-0.013348	-0.017981	0.011378	32.966216	-74.304208	25.794404
12317	9.381600	1.426250	2.223090	-0.008883	-0.012762	0.011206	32.961330	-74.312930	25.799754
12318	9.361187	1.441718	2.243568	-0.000480	-0.018592	0.010780	32.968444	-74.324353	25.799234
12319	9.382494	1.446089	2.229683	-0.013919	-0.028042	0.012637	32.975203	-74.340866	25.789493
12320	9.370778	1.408559	2.188314	-0.010933	-0.026116	0.012187	32.982332	-74.356258	25.780591
12321	9.404675	1.448889	2.213082	-0.002125	-0.027570	0.014203	32.992671	-74.373032	25.774151
12322	9.405665	1.425194	2.200928	-0.010982	-0.018355	0.013866	32.988394	-74.385247	25.778714
12323	9.372839	1.404379	2.182163	-0.000047	-0.018878	0.012215	32.993650	-74.397224	25.778788
12324	9.378514	1.425350	2.249799	-0.006877	-0.025279	0.009567	33.006657	-74.411467	25.767626
12325	9.366190	1.432601	2.228476	-0.009413	-0.030592	0.010786	33.022143	-74.428625	25.751511
12326	9.380489	1.400837	2.233989	-0.003995	-0.039907	0.010465	33.051584	-74.450121	25.722779
12327	9.409628	1.419408	2.187690	-0.010846	-0.043205	0.008492	33.084492	-74.472614	25.687731
12328	9.423859	1.409988	2.202361	-0.012322	-0.048053	0.007877	33.123168	-74.497245	25.646836
12329	9.411858	1.417448	2.179354	-0.007845	-0.044390	0.007364	33.161300	-74.519942	25.608158
12330	9.399547	1.447195	2.166676	-0.007856	-0.042840	0.007700	33.197184	-74.541978	25.572219
12331	9.373074	1.382340	2.184844	-0.011699	-0.048870	0.004267	33.243797	-74.565836	25.522461
12332	9.435688	1.420638	2.154912	-0.012769	-0.047787	0.006437	33.284823	-74.589828	25.477485
12333	9.436695	1.419587	2.151192	-0.017762	-0.035645	0.008881	33.305101	-74.608786	25.451449
12334	9.445095	1.410348	2.107633	-0.003878	-0.026477	0.008435	33.323569	-74.623185	25.435030
12335	9.437936	1.439718	2.156332	-0.011828	-0.022473	0.009990	33.330322	-74.636182	25.426552
12336	9.410931	1.374527	2.177070	-0.014670	-0.015606	0.007421	33.332136	-74.645102	25.423249
12337	9.385083	1.390307	2.138102	-0.008847	-0.018994	0.009870	33.336836	-74.656396	25.418673
12338	9.377979	1.397558	2.177427	-0.008679	-0.014859	0.005833	33.343609	-74.664439	25.410808
12339	9.357727	1.413789	2.197595	-0.008440	-0.027811	-0.001913	33.379270	-74.676239	25.374369
12340	9.392120	1.410890	2.201637	-0.014408	-0.034775	-0.001674	33.419225	-74.691431	25.330856
12341	9.421095	1.386091	2.135792	-0.011859	-0.032568	-0.003570	33.461438	-74.704969	25.285599
12342	9.429025	1.400324	2.102412	-0.002451	-0.027067	-0.003506	33.502636	-74.715876	25.247467
12343	9.388084	1.433798	2.144146	-0.004396	-0.025420	-0.004209	33.542101	-74.725781	25.209496
12344	9.429646	1.445311	2.117888	-0.012760	-0.027350	-0.005431	33.581307	-74.736199	25.167994
12345	9.422853	1.431128	2.146304	-0.010578	-0.024095	0.002770	33.603579	-74.747671	25.144177
12346	9.443862	1.436298	2.132533	-0.009545	-0.017412	0.002285	33.619585	-74.755829	25.129308
12347	9.423690	1.430234	2.143226	-0.011501	-0.012658	0.002260	33.628952	-74.761679	25.118321
12348	9.451955	1.427064	2.089730	-0.007213	-0.005358	0.007465	33.623013	-74.765663	25.124725
12349	9.424330	1.406496	2.132036	-0.007219	-0.003805	0.007803	33.614811	-74.769048	25.134489
12350	9.411351	1.413877	2.112971	-0.009328	-0.006297	0.011137	33.602267	-74.774664	25.146694
12351	9.424658	1.426341	2.141564	-0.005908	-0.001543	0.012791	33.583422	-74.778549	25.168266
12352	9.425007	1.402853	2.131441	-0.006354	0.000293	0.011692	33.564026	-74.781165	25.189346
12353	9.404469	1.418420	2.153578	-0.007666	-0.001969	0.006704	33.555338	-74.783323	25.199348
12354	9.412053	1.409441	2.112808	-0.005738	0.001043	0.008419	33.541202	-74.784586	25.216731
12355	9.425309	1.400001	2.131982	-0.005759	0.007258	0.009773	33.517476	-74.783306	25.243450
12356	9.425200	1.399168	2.133013	-0.004100	0.013139	0.005680	33.494953	-74.777950	25.270845
12357	9.424895	1.420724	2.144250	-0.007081	0.008104	0.005461	33.477074	-74.774898	25.290718
12358	9.445439	1.403340	2.123295	-0.010098	0.013944	0.007613	33.446861	-74.769752	25.322488
12359	9.411445	1.405388	2.118211	-0.002623	0.019539	0.006637	33.416244	-74.761598	25.358213
12360	9.444489	1.446175	2.147486	-0.006081	0.025661	0.007350	33.375428	-74.750749	25.404041
12361	9.423851	1.395067	2.141639	-0.007764	0.025992	0.012797	33.323691	-74.741434	25.458608
12362	9.410035	1.424731	2.135819	-0.010408	0.029239	0.004511	33.281224	-74.727954	25.502435
12363	9.415294	1.401368	2.188157	-0.002669	0.031961	0.009347	33.231734	-74.714672	25.557705
12364	9.381022	1.403326	2.184277	-0.006095	0.028762	0.008027	33.186316	-74.702508	25.607546
12365	9.380608	1.402552	2.186550	-0.006058	0.017889	0.005655	33.157636	-74.694795	25.639234
12366	9.400873	1.407400	2.176386	-0.007118	0.017419	0.007489	33.125621	-74.687866	25.673679
12367	9.434486	1.381546	2.174713	-0.007552	0.016148	0.005713	33.098032	-74.680998	25.703350
12368	9.428242	1.425839	2.137251	-0.003939	0.018827	0.001986	33.075789	-74.671648	25.728345
12369	9.420474	1.411291	2.169758	-0.004567	0.019627	0.005597	33.046204	-74.663067	25.761862
12370	9.379092	1.399292	2.195126	-0.004729	0.012379	0.008950	33.019073	-74.658964	25.793126
12371	9.433277	1.401184	2.191042	-0.008582	0.006360	0.005511	33.002480	-74.656722	25.810787
12372	9.420089	1.408762	2.173071	-0.010709	0.006973	0.009518	32.976899	-74.655448	25.837235
12373	9.386472	1.388491	2.156938	-0.006656	0.009369	0.007231	32.954990	-74.652292	25.861552
12374	9.453615	1.404028	2.181933	-0.006667	0.012474	0.007909	32.928378	-74.647798	25.890115
12375	9.386056	1.408936	2.169359	-0.008155	0.009182	0.007626	32.905151	-74.644850	25.914909
12376	9.378709	1.371890	2.190567	-0.007078	0.004994	0.004775	32.892321	-74.643017	25.930207
12377	9.378587	1.393448	2.200994	-0.004683	-0.001597	0.005897	32.886336	-74.644714	25.939186
12378	9.399283	1.398623	2.188876	-0.009416	-0.005494	-0.000080	32.892421	-74.646434	25.933193
12379	9.406861	1.412372	2.157895	-0.006609	-0.004606	0.004176	32.891755	-74.649043	25.935511
12380	9.399565	1.397894	2.188131	-0.005981	-0.005405	0.000565	32.898658	-74.650914	25.931001
12381	9.440839	1.408913	2.163955	-0.009416	-0.005494	-0.000080	32.904852	-74.652625	25.924537
12382	9.420389	1.403004	2.175494	-0.007047	-0.004323	0.002738	32.905953	-74.654705	25.925804
12383	9.386779	1.405631	2.168376	-0.007923	-0.003755	-0.000137	32.911130	-74.655563	25.921281
12384	9.400122	1.396653	2.186530	-0.014084	-0.011752	0.004797	32.912954	-74.661779	25.915248
12385	9.392979	1.382193	2.216129	-0.006394	-0.012884	-0.002572	32.933647	-74.666268	25.895545
12386	9.421504	1.379457	2.161983	-0.006749	-0.019620	0.005825	32.947110	-74.676572	25.883121
12387	9.395492	1.418303	2.133097	-0.012377	-0.018290	-0.002007	32.969566	-74.683833	25.858037
12388	9.381131	1.367693	2.182809	-0.003587	-0.011998	0.001683	32.983354	-74.689184	25.846635
12389	9.340183	1.400599	2.225174	-0.000725	-0.028191	0.002196	33.016440	-74.702510	25.817454
12390	9.415918	1.408482	2.204677	-0.017159	-0.048883	0.002478	33.063297	-74.725856	25.764850
12391	9.473032	1.425094	2.105106	-0.021663	-0.047895	0.004009	33.103935	-74.749196	25.715412
12392	9.384403	1.365637	2.169991	-0.005238	-0.024099	0.004404	33.126256	-74.761225	25.696487
12393	9.308580	1.364792	2.284116	0.014127	-0.046004	-0.001166	33.194568	-74.782019	25.639628
12394	9.365554	1.449100	2.213211	-0.014514	-0.087066	-0.008264	33.306617	-74.820222	25.520477
12395	9.470523	1.388483	2.104482	-0.042371	-0.092986	-0.004647	33.403864	-74.862353	25.400121
12396	9.423953	1.318976	2.131495	0.004899	-0.062903	-0.008696	33.500562	-74.888770	25.308251
12397	9.431901	1.467262	2.155878	0.016279	-0.068381	-0.009987	33.613024	-74.917351	25.206976
12398	9.474426	1.456965	2.114937	-0.039690	-0.077336	-0.008493	33.701672	-74.950680	25.098864
12399	9.496676	1.351759	2.045828	-0.037619	-0.059307	-0.008413	33.770455	-74.975355	25.010870
12400	9.484078	1.382907	2.033595	-0.000835	-0.027400	-0.009021	33.823723	-74.984632	24.962047
12401	9.456604	1.408015	2.094592	-0.003405	-0.018739	-0.004733	33.857625	-74.991134	24.930473
12402	9.402707	1.383700	2.088212	-0.016995	-0.018060	-0.011972	33.895870	-74.994978	24.887171
12403	9.457180	1.365042	2.071363	-0.020890	-0.011650	-0.012672	33.925430	-74.995562	24.849721
12404	9.416174	1.377021	2.104805	-0.009348	-0.011412	-0.017663	33.970099	-74.994420	24.803692
12405	9.443581	1.442517	2.082024	-0.019235	-0.005758	-0.016755	34.000800	-74.990884	24.766042
12406	9.477506	1.374412	2.057540	-0.016240	-0.005381	-0.017559	34.034155	-74.986914	24.728276
12407	9.443409	1.400829	2.061358	-0.017145	0.002959	-0.018718	34.059064	-74.978600	24.697860
12408	9.470549	1.444134	2.029899	-0.016722	0.011996	-0.015228	34.067251	-74.967095	24.685618
12409	9.455599	1.417020	2.093056	-0.017466	0.022936	-0.020751	34.071644	-74.948643	24.676253
12410	9.420934	1.443520	2.099263	-0.011649	0.025754	-0.016964	34.069242	-74.930069	24.677690
12411	9.379359	1.411042	2.115649	-0.014817	0.025880	-0.011111	34.054649	-74.913314	24.689558
12412	9.412488	1.409091	2.124472	-0.017178	0.016938	-0.015639	34.057217	-74.899364	24.682638
12413	9.419144	1.424357	2.095536	-0.019723	0.013164	-0.014088	34.060190	-74.887690	24.673402
12414	9.398166	1.419699	2.109076	-0.017171	0.013829	-0.016326	34.067536	-74.874966	24.660280
12415	9.444713	1.409432	2.135787	-0.011791	0.013827	-0.014656	34.075238	-74.862793	24.650851
12416	9.438119	1.433289	2.088109	-0.012851	0.014904	-0.012477	34.077137	-74.850828	24.647518
12417	9.450974	1.403587	2.098355	-0.015700	0.021783	-0.015010	34.073771	-74.834766	24.647235
12418	9.429624	1.421281	2.122985	-0.006716	0.024480	-0.017067	34.076009	-74.816742	24.647002
12419	9.449110	1.450282	2.124263	-0.008870	0.035952	-0.010647	34.052199	-74.795355	24.671958
12420	9.407297	1.439698	2.151320	-0.013777	0.026343	-0.012947	34.040935	-74.777734	24.680019
12421	9.413945	1.432830	2.113051	-0.015713	0.024883	-0.014327	34.032758	-74.760420	24.684714
12422	9.426776	1.381031	2.113890	-0.009302	0.031573	-0.013113	34.018235	-74.740332	24.700597
12423	9.425379	1.448431	2.147907	-0.007362	0.031477	-0.012077	34.003227	-74.720607	24.717334
12424	9.411641	1.413541	2.111903	-0.016810	0.033717	-0.010432	33.977216	-74.700352	24.739917
12425	9.410490	1.436465	2.125930	-0.009787	0.041170	-0.012485	33.950301	-74.675886	24.767562
12426	9.429919	1.443079	2.118197	-0.005928	0.045637	-0.009377	33.915036	-74.650269	24.806023
12427	9.421336	1.451571	2.163469	-0.008928	0.045250	-0.008582	33.877309	-74.625101	24.845397
12428	9.379448	1.418551	2.181199	-0.006975	0.042049	-0.008233	33.843753	-74.601584	24.881793
12429	9.364907	1.471893	2.186605	-0.007094	0.028578	-0.006281	33.822618	-74.585074	24.905055
12430	9.398445	1.425297	2.175224	-0.012002	0.022077	-0.007904	33.809108	-74.571111	24.918034
12431	9.384415	1.456364	2.169180	-0.009630	0.023249	-0.005084	33.790686	-74.557516	24.936977
12432	9.417842	1.431668	2.167833	-0.005743	0.021508	-0.003348	33.773519	-74.545277	24.956979
12433	9.376320	1.420308	2.193471	-0.005280	0.016566	-0.002945	33.761660	-74.535543	24.971702
12434	9.390379	1.471080	2.144289	-0.014267	0.013859	-0.000912	33.744304	-74.527701	24.986563
12435	9.424260	1.423914	2.131964	-0.006339	0.016086	-0.001112	33.729269	-74.518777	25.003953
12436	9.416028	1.453907	2.184900	-0.009168	0.018303	-0.004681	33.716164	-74.507665	25.018126
12437	9.368657	1.465480	2.161207	-0.008720	0.016465	-0.003590	33.703628	-74.497770	25.031507
12438	9.388574	1.493360	2.161321	-0.009339	0.015700	-0.000320	33.685982	-74.489264	25.050042
12439	9.415346	1.409827	2.169204	-0.010211	0.014720	-0.003539	33.674537	-74.480216	25.061407
12440	9.401041	1.484753	2.183134	-0.007841	0.015891	-0.000716	33.658237	-74.471485	25.079238
12441	9.401012	1.462425	2.174149	-0.008436	0.010470	0.001518	33.644014	-74.466068	25.094544
12442	9.380472	1.434315	2.176867	-0.009324	0.012594	-0.001011	33.631165	-74.458809	25.107773
12443	9.393385	1.425451	2.196874	-0.006514	0.013480	0.003250	33.611663	-74.452503	25.129701
12444	9.420841	1.467428	2.165945	-0.005420	0.007752	0.000037	33.604748	-74.447931	25.139907
12445	9.379529	1.455650	2.190681	-0.010384	0.012114	0.000821	33.588773	-74.441504	25.155873
12446	9.392478	1.446708	2.210552	-0.009937	0.010276	0.001912	33.573292	-74.436269	25.171692
12447	9.412850	1.452038	2.199787	-0.006059	0.010089	0.003996	33.556681	-74.431813	25.190893
12448	9.386367	1.468659	2.163428	-0.012488	0.008052	0.003793	33.538950	-74.428220	25.206413
12449	9.379098	1.431683	2.184506	-0.006490	0.008823	0.002214	33.526601	-74.423801	25.220933
12450	9.391840	1.444753	2.214538	-0.009498	0.009989	0.003349	33.509117	-74.419199	25.239202
12451	9.391720	1.444249	2.215377	-0.007533	0.005240	0.003355	33.498295	-74.416851	25.251516
12452	9.391606	1.443911	2.216082	-0.006920	0.007558	0.000432	33.490139	-74.412455	25.261448
12453	9.398886	1.458079	2.186229	-0.006464	0.004169	0.001177	33.484882	-74.409929	25.268622
12454	9.411987	1.449037	2.205453	-0.010534	0.004854	0.004143	33.471415	-74.408025	25.282805
12455	9.398780	1.457144	2.187309	-0.006025	0.003882	0.002614	33.464278	-74.406090	25.292191
12456	9.378175	1.450944	2.199584	-0.007525	0.003688	0.003009	33.455540	-74.404365	25.301234
12457	9.419303	1.462036	2.176258	-0.010508	0.000200	0.003105	33.449164	-74.404344	25.307164
12458	9.378439	1.427804	2.189871	-0.003657	0.005051	0.005440	33.437267	-74.402716	25.323306
12459	9.412169	1.424235	2.197169	-0.007709	0.002633	0.007714	33.421849	-74.402985	25.340288
12460	9.404539	1.431208	2.238353	-0.007078	0.001850	0.004099	33.413983	-74.402460	25.350545
12461	9.385679	1.462141	2.170813	-0.004271	0.002731	0.008362	33.399313	-74.402885	25.368797
12462	9.391713	1.416229	2.209949	-0.006648	0.003113	0.005882	33.387095	-74.402331	25.383479
12463	9.391241	1.459744	2.231006	-0.003201	0.001661	0.006185	33.377978	-74.402580	25.396602
12464	9.419493	1.457144	2.178713	-0.010096	0.004566	0.005580	33.362750	-74.401250	25.413316
12465	9.378635	1.422791	2.192290	-0.006632	0.000011	0.005190	33.355235	-74.401974	25.422734
12466	9.412124	1.441428	2.209847	-0.003657	0.005050	0.005441	33.343378	-74.400355	25.439420
12467	9.391610	1.434906	2.221904	-0.012625	-0.002312	0.006419	33.332942	-74.402577	25.448306
12468	9.378574	1.442588	2.203377	-0.007272	0.002344	0.009150	33.315571	-74.403385	25.466962
12469	9.399206	1.447450	2.191907	-0.006210	0.002824	0.007319	33.301470	-74.403430	25.483468
12470	9.391895	1.432129	2.222490	-0.005309	-0.002405	0.009153	33.290676	-74.406516	25.497200
12471	9.420078	1.451232	2.180131	-0.009818	-0.001432	0.010681	33.273528	-74.409654	25.514724
12472	9.386524	1.453010	2.173291	-0.007256	-0.000759	0.008457	33.260841	-74.411761	25.529305
12473	9.366082	1.446428	2.185074	-0.004686	-0.001636	0.005886	33.255090	-74.413488	25.538049
12474	9.420481	1.448552	2.180170	-0.005764	0.000984	0.008410	33.241461	-74.414752	25.555280
12475	9.372018	1.421739	2.234328	-0.009626	-0.001926	0.005630	33.233641	-74.416537	25.563233
12476	9.400155	1.441105	2.192020	-0.003818	-0.000663	0.009106	33.221764	-74.418804	25.579591
12477	9.400336	1.440121	2.191891	-0.010242	-0.004247	0.008550	33.211178	-74.422617	25.590049
12478	9.393325	1.402707	2.211719	-0.007680	-0.003573	0.006326	33.204841	-74.425430	25.597232
12479	9.421048	1.466249	2.190061	-0.003810	-0.002215	0.008759	33.195287	-74.428333	25.610445
12480	9.380312	1.431720	2.203065	-0.007242	-0.003862	0.007763	33.187149	-74.431683	25.619124
12481	9.380474	1.430834	2.202951	-0.005756	-0.000568	0.008063	33.175815	-74.433578	25.633026
12482	9.380617	1.429967	2.202907	-0.005749	-0.002119	0.007716	33.166560	-74.436084	25.643396
12483	9.414288	1.448274	2.220003	-0.010682	-0.003958	0.007113	33.157847	-74.439306	25.651647
12484	9.401550	1.433922	2.190746	-0.005311	-0.002409	0.009152	33.147024	-74.442393	25.665758
12485	9.388993	1.397585	2.151141	-0.006188	-0.001830	0.006279	33.139923	-74.444332	25.675009
12486	9.381272	1.426627	2.202280	-0.004680	-0.003189	0.005538	33.136495	-74.446663	25.681500
12487	9.422598	1.437294	2.178473	-0.008312	-0.002794	0.009940	33.122944	-74.450210	25.696181
12488	9.389277	1.417269	2.160967	-0.008113	-0.004835	0.004541	33.121255	-74.452969	25.698390
12489	9.402392	1.429840	2.189799	-0.006812	-0.002602	0.009546	33.109019	-74.456299	25.712599
12490	9.415564	1.442348	2.218450	-0.005722	-0.008323	0.006325	33.109389	-74.461355	25.714782
12491	9.416242	1.397474	2.196901	-0.005723	-0.008323	0.006325	33.109769	-74.466423	25.716544
12492	9.408915	1.404134	2.237109	-0.005915	-0.007835	0.011376	33.100669	-74.472844	25.728398
12493	9.382935	1.420440	2.199193	-0.006792	-0.007255	0.008503	33.095464	-74.478081	25.735320
12494	9.424341	1.431036	2.175049	-0.005298	-0.005513	0.008457	33.089148	-74.482387	25.742581
12495	9.383414	1.418613	2.198329	-0.007244	-0.003864	0.007763	33.081136	-74.485763	25.752147
12496	9.417321	1.414822	2.204895	-0.005743	-0.003672	0.007368	33.074337	-74.488896	25.760802
12497	9.383783	1.416899	2.197859	-0.003810	-0.002220	0.008758	33.064710	-74.491794	25.774086
12498	9.404685	1.399877	2.175451	-0.008560	-0.002994	0.003453	33.062519	-74.493403	25.778252
12499	9.370941	1.424202	2.178831	-0.003804	-0.003771	0.008410	33.055240	-74.496937	25.789103
12500	9.417992	1.411695	2.204033	-0.009184	-0.003766	0.006720	33.047852	-74.499912	25.797288
12501	9.371309	1.422600	2.178292	-0.009616	-0.005027	0.004936	33.044668	-74.502962	25.800433
12502	9.397933	1.382491	2.204862	-0.006621	-0.003092	0.004496	33.041772	-74.504938	25.805713
12503	9.425915	1.424250	2.172684	-0.006609	-0.006194	0.003799	33.043594	-74.508194	25.805450
12504	9.405514	1.417968	2.184107	-0.010055	-0.004737	0.003500	33.042273	-74.510630	25.806249
12505	9.385190	1.389862	2.185351	-0.003440	-0.000093	-0.000647	33.046740	-74.509566	25.805126
12506	9.405608	1.417505	2.184004	-0.007504	-0.000961	0.001972	33.045328	-74.509735	25.808503
12507	9.372154	1.397900	2.166674	-0.011562	-0.003379	0.004242	33.040370	-74.511777	25.812331
12508	9.426353	1.422412	2.171987	-0.004935	-0.001836	-0.000602	33.045862	-74.511536	25.809270
12509	9.385251	1.410692	2.195583	-0.007504	-0.000961	0.001972	33.044439	-74.511707	25.811844
12510	9.392705	1.424925	2.165164	-0.006442	-0.000478	0.000141	33.046004	-74.511048	25.810649
12511	9.405676	1.438164	2.194332	-0.010321	-0.000280	-0.001942	33.048982	-74.509669	25.806979
12512	9.406021	1.393909	2.173505	-0.007943	-0.000670	0.000536	33.049383	-74.509261	25.807929
12513	9.364692	1.404334	2.207734	-0.005386	0.001556	-0.001340	33.052075	-74.507189	25.807491
12514	9.418809	1.429179	2.213192	-0.008370	-0.003480	-0.001599	33.059077	-74.507440	25.800648
12515	9.372014	1.440942	2.187401	-0.005357	-0.006197	-0.003085	33.073551	-74.508545	25.788001
12516	9.426538	1.421707	2.171644	-0.009877	-0.002123	-0.000855	33.076922	-74.508367	25.784083
12517	9.392842	1.424527	2.164833	-0.006442	-0.000479	0.000141	33.078734	-74.507735	25.783930
12518	9.398571	1.401120	2.214017	-0.006448	0.001072	0.000491	33.078021	-74.506449	25.785758
12519	9.406012	1.415400	2.183625	-0.009439	-0.002414	0.000581	33.079539	-74.506884	25.784129
12520	9.426652	1.420962	2.171639	-0.007932	-0.003772	-0.000163	33.084575	-74.507716	25.779021
12521	9.378127	1.394806	2.225652	-0.010322	-0.000281	-0.001942	33.087549	-74.506337	25.775356
12522	9.385570	1.409452	2.195017	-0.002356	-0.005811	-0.003875	33.104691	-74.506968	25.761584
12523	9.398819	1.400769	2.213186	-0.009427	-0.005516	-0.000118	33.110929	-74.508672	25.755064
12524	9.406330	1.415302	2.182321	-0.007298	-0.006098	-0.004128	33.125965	-74.509355	25.740238
12525	9.406226	1.437537	2.192384	-0.005364	-0.004646	-0.002737	33.138087	-74.509821	25.730029
12526	9.385953	1.409714	2.193208	-0.009416	-0.008618	-0.000817	33.148962	-74.512787	25.718858
12527	9.427238	1.421083	2.169014	-0.007488	-0.005616	0.000923	33.154629	-74.514864	25.714084
12528	9.406762	1.415118	2.180576	-0.006437	-0.002030	-0.000207	33.158721	-74.514815	25.710646
12529	9.386127	1.431128	2.202626	-0.010490	-0.006002	0.001712	33.161740	-74.517324	25.706834
12530	9.399584	1.399949	2.210458	-0.005559	-0.002614	0.002664	33.161873	-74.518500	25.708292
12531	9.373307	1.417216	2.173199	-0.008383	-0.000381	-0.000899	33.164260	-74.517495	25.706389
12532	9.412661	1.412953	2.239374	-0.008366	-0.005032	-0.001949	33.173672	-74.518321	25.695877
12533	9.407319	1.392076	2.169056	-0.007933	-0.003774	-0.000163	33.178884	-74.519174	25.691310
12534	9.373347	1.439027	2.182945	-0.006426	-0.005132	-0.000908	33.187610	-74.520399	25.682713
12535	9.407339	1.413959	2.178839	-0.006426	-0.005132	-0.000908	33.196514	-74.521669	25.675211
12536	9.407455	1.413728	2.178488	-0.007054	-0.004359	0.002708	33.197845	-74.523708	25.675751
12537	9.407756	1.391357	2.167623	-0.007488	-0.005617	0.000922	33.203524	-74.525784	25.670964
12538	9.407691	1.413029	2.177921	-0.010507	-0.001352	0.002763	33.199565	-74.526347	25.674650
12539	9.387226	1.406898	2.189565	-0.009429	-0.005518	-0.000119	33.205824	-74.528049	25.668108
12540	9.407723	1.434436	2.187986	-0.009001	-0.002710	0.002018	33.205343	-74.529032	25.667969
12541	9.400390	1.419650	2.218315	-0.008379	-0.001932	-0.001248	33.210095	-74.528660	25.663615
12542	9.387557	1.384375	2.178657	-0.007317	-0.001446	-0.003078	33.217997	-74.527453	25.656336
12543	9.387207	1.428604	2.199660	-0.009258	-0.001347	-0.004119	33.226552	-74.525899	25.647512
12544	9.407887	1.412612	2.177345	-0.009698	-0.001054	-0.005555	33.237007	-74.523717	25.636381
12545	9.400339	1.420301	2.218114	-0.005366	-0.004646	-0.002739	33.249143	-74.524177	25.626155
12546	9.387426	1.407011	2.188636	-0.009429	-0.005520	-0.000120	33.255423	-74.525841	25.619580
12547	9.394868	1.421598	2.157956	-0.009253	-0.002897	-0.004470	33.266343	-74.524919	25.608305
12548	9.421177	1.404111	2.195248	-0.006895	0.002912	-0.000589	33.265218	-74.522391	25.610246
12549	9.374062	1.437741	2.180721	-0.009892	0.000974	-0.000151	33.263904	-74.520970	25.611286
12550	9.387249	1.428767	2.199377	-0.007940	-0.002226	0.000187	33.266455	-74.521190	25.608706
12551	9.400455	1.419770	2.217960	-0.011387	-0.000771	-0.000108	33.266188	-74.520619	25.607770
12552	9.420847	1.447353	2.216804	-0.007951	0.000874	0.000890	33.264090	-74.519502	25.608682
12553	9.400607	1.397295	2.207785	-0.008391	0.001167	-0.000546	33.264099	-74.517865	25.609241
12554	9.407813	1.433728	2.188066	-0.011388	-0.000771	-0.000108	33.263782	-74.517275	25.608465
12555	9.408014	1.411567	2.177474	-0.008374	-0.003484	-0.001600	33.270902	-74.517534	25.601656
12556	9.400509	1.418828	2.218335	-0.009447	-0.000871	0.000933	33.269923	-74.517303	25.601863
12557	9.434241	1.415599	2.225235	-0.009892	0.000973	-0.000151	33.268609	-74.515884	25.602903
12558	9.408232	1.388889	2.167138	-0.009447	-0.000871	0.000933	33.267718	-74.515635	25.603028
12559	9.387344	1.426903	2.200181	-0.008391	0.001167	-0.000545	33.267727	-74.513998	25.603587
12560	9.407864	1.432506	2.188645	-0.007957	0.002423	0.001242	33.263337	-74.512291	25.608386
12561	9.374116	1.435092	2.182234	-0.012461	0.001840	0.002426	33.255114	-74.511266	25.615068
12562	9.407820	1.431707	2.189359	-0.011400	0.002328	0.000596	33.250078	-74.509383	25.618570
12563	9.394761	1.418099	2.160723	-0.007529	0.005229	0.003382	33.239191	-74.507033	25.630949
12564	9.387135	1.425118	2.202228	-0.009904	0.004072	0.000553	33.233259	-74.504283	25.636577
12565	9.407625	1.430563	2.190941	-0.014409	0.003489	0.001737	33.223250	-74.502249	25.643953
12566	9.400335	1.393466	2.211358	-0.009470	0.005328	0.002341	33.212778	-74.499509	25.654425
12567	9.373781	1.432711	2.185234	-0.006017	0.002323	0.002282	33.207958	-74.498206	25.661407
12568	9.386951	1.423492	2.204063	-0.012457	0.000289	0.002072	33.202159	-74.497740	25.664918
12569	9.407786	1.384973	2.171580	-0.010350	0.005916	-0.000529	33.195654	-74.493831	25.671072
12570	9.399923	1.414102	2.223829	-0.006474	0.007266	0.001905	33.185608	-74.489992	25.682703
12571	9.407230	1.428429	2.194026	-0.011401	0.002327	0.000594	33.180622	-74.488156	25.686656
12572	9.407366	1.406126	2.183785	-0.014838	0.000683	-0.000405	33.177253	-74.486757	25.686868
12573	9.394146	1.414628	2.165665	-0.007970	0.005521	0.001947	33.168290	-74.483813	25.696988
12574	9.407059	1.427461	2.195390	-0.011407	0.003876	0.000947	33.161008	-74.481307	25.703603
12575	9.386449	1.421281	2.207627	-0.009461	0.002226	0.001635	33.155455	-74.479845	25.709299
12576	9.407138	1.404730	2.185664	-0.009466	0.003776	0.001988	33.147610	-74.477677	25.716778
12577	9.399494	1.411773	2.227119	-0.008404	0.004265	0.000159	33.142914	-74.474774	25.722212
12578	9.414240	1.440892	2.166779	-0.013338	0.000877	-0.000801	33.140812	-74.473114	25.720491
12579	9.386378	1.398256	2.198717	-0.012281	0.002916	-0.002277	33.139625	-74.470095	25.719978
12580	9.393521	1.434878	2.179368	-0.008838	0.003010	-0.001629	33.139093	-74.467188	25.720036
12581	9.393588	1.412825	2.169259	-0.008844	0.004560	-0.001276	33.136296	-74.463694	25.723239
12582	9.385898	1.420035	2.210767	-0.010346	0.004365	-0.000882	33.132149	-74.460359	25.726186
12583	9.380240	1.421452	2.151657	-0.010335	0.001265	-0.001589	33.132751	-74.458348	25.724973
12584	9.385619	1.441826	2.221950	-0.008388	-0.000385	-0.000902	33.135100	-74.457256	25.721486
12585	9.426878	1.431412	2.188020	-0.010341	0.002814	-0.001236	33.133343	-74.454612	25.722718
12586	9.406415	1.403438	2.189602	-0.008400	0.002714	-0.000194	33.130982	-74.452336	25.726309
12587	9.393069	1.434119	2.181817	-0.013327	-0.002225	-0.001511	33.133660	-74.452024	25.721161
12588	9.385669	1.419140	2.212313	-0.007521	0.002123	0.002676	33.127352	-74.450867	25.726823
12589	9.426766	1.430500	2.189102	-0.013345	0.002424	-0.000448	33.122959	-74.448657	25.729006
12590	9.372731	1.383476	2.173429	-0.006910	0.006008	0.000121	33.117261	-74.444813	25.734952
12591	9.418836	1.459378	2.241664	-0.009896	0.000969	-0.000155	33.115976	-74.443393	25.735960
12592	9.364900	1.412310	2.225584	-0.009451	-0.000877	0.000926	33.115153	-74.443102	25.735050
12593	9.406092	1.423592	2.202037	-0.008573	-0.001468	0.003796	33.110556	-74.444088	25.740282
12594	9.393024	1.431707	2.183594	-0.012651	0.000748	0.007120	33.095404	-74.444963	25.752711
12595	9.406107	1.444096	2.212819	-0.008567	-0.003018	0.003441	33.093161	-74.446581	25.755502
12596	9.385959	1.393490	2.203527	-0.010722	0.003746	0.008871	33.072838	-74.446559	25.774935
12597	9.439944	1.439363	2.220218	-0.008151	0.002883	0.006295	33.059281	-74.446236	25.789718
12598	9.413854	1.434256	2.172850	-0.009214	0.002391	0.008123	33.042606	-74.446639	25.806399
12599	9.406641	1.396598	2.193004	-0.011161	0.004041	0.007436	33.024055	-74.446113	25.824575
12600	9.393343	1.426552	2.185594	-0.006216	0.004331	0.007691	33.007531	-74.445460	25.842475
12601	9.372797	1.419853	2.197812	-0.009654	0.002687	0.006688	32.992656	-74.445348	25.857732
12602	9.372963	1.397078	2.187675	-0.013542	0.004438	0.004959	32.976584	-74.443782	25.870823
12603	9.385926	1.409419	2.217434	-0.006655	0.004626	0.006256	32.962002	-74.442602	25.887559
12604	9.385916	1.409001	2.217739	-0.008390	-0.000383	-0.000904	32.964330	-74.441510	25.883941
12605	9.385960	1.408713	2.217737	-0.013955	-0.003011	0.001747	32.961904	-74.442595	25.883717
12606	9.406599	1.414188	2.205929	-0.006009	-0.000782	0.001572	32.961822	-74.442501	25.885308
12607	9.406614	1.413839	2.206088	-0.007523	0.002121	0.002676	32.955732	-74.441409	25.892713
12608	9.427186	1.419276	2.194591	-0.014405	0.000384	0.001023	32.950416	-74.440536	25.892894
12609	9.427325	1.396991	2.184230	-0.006459	0.002613	0.000849	32.947542	-74.438636	25.897593
12610	9.426990	1.440537	2.205858	-0.010528	0.001729	0.003462	32.938823	-74.437914	25.905178
12611	9.385998	1.406486	2.218991	-0.006454	0.001064	0.000493	32.938302	-74.436649	25.907439
12612	9.393456	1.420826	2.188837	-0.010084	-0.000117	0.004541	32.930036	-74.437166	25.915131
12613	9.406531	1.433305	2.218028	-0.008571	-0.003020	0.003437	32.927786	-74.438781	25.917927
12614	9.393652	1.419685	2.188734	-0.010079	-0.001667	0.004185	32.921712	-74.439963	25.923309
12615	9.406885	1.410195	2.207265	-0.008576	-0.001471	0.003792	32.917111	-74.440944	25.928542
12616	9.393989	1.396645	2.177984	-0.010513	-0.002918	0.002394	32.915450	-74.442106	25.928301
12617	9.407075	1.409236	2.207067	-0.010513	-0.002918	0.002394	32.913772	-74.443348	25.929348
12618	9.407172	1.408822	2.206919	-0.005566	-0.002629	0.002650	32.914110	-74.444459	25.930016
12619	9.386554	1.424638	2.229077	-0.009439	-0.005523	-0.000146	32.920351	-74.446162	25.923483
12620	9.394228	1.416957	2.188029	-0.009650	0.001132	0.006333	32.907646	-74.446666	25.935971
12621	9.386872	1.401500	2.218446	-0.008577	-0.001472	0.003792	32.903043	-74.447648	25.941206
12622	9.407453	1.428737	2.217065	-0.002737	-0.006426	0.005848	32.903643	-74.451588	25.943031
12623	9.415262	1.420837	2.175564	-0.014134	-0.007200	0.005730	32.898911	-74.455928	25.945094
12624	9.394855	1.414289	2.187064	-0.005133	-0.001379	0.004441	32.895013	-74.457024	25.951129
12625	9.374514	1.385940	2.188113	-0.008577	-0.001473	0.003793	32.890405	-74.458005	25.956368
12626	9.415498	1.441026	2.185761	-0.006626	-0.004673	0.004121	32.889831	-74.460578	25.957610
12627	9.387895	1.375958	2.206298	-0.010519	-0.001370	0.002751	32.885796	-74.461185	25.961099
12628	9.428967	1.409180	2.193446	-0.005572	-0.001082	0.003007	32.883752	-74.461708	25.965248
12629	9.408499	1.402878	2.205046	-0.008568	-0.004571	0.003079	32.883848	-74.463957	25.965609
12630	9.382366	1.420298	2.167606	-0.008564	-0.006120	0.002722	32.886179	-74.466798	25.962830
12631	9.395650	1.410916	2.185825	-0.007070	-0.002826	0.003043	32.885244	-74.468197	25.965153
12632	9.408926	1.401478	2.204115	-0.010071	-0.004767	0.003472	32.883922	-74.470635	25.965703
12633	9.388516	1.395162	2.215481	-0.003616	-0.005831	0.002977	32.888445	-74.473459	25.964415
12634	9.388561	1.416750	2.225647	-0.010502	-0.007566	0.001323	32.893709	-74.476585	25.958102
12635	9.396136	1.431285	2.194881	-0.009443	-0.005522	-0.000147	32.899960	-74.478288	25.951556
12636	9.388997	1.394136	2.214090	-0.004684	-0.004778	0.005161	32.898793	-74.481274	25.955588
12637	9.396478	1.430324	2.194044	-0.004680	-0.006327	0.004804	32.900100	-74.484905	25.957006
12638	9.430535	1.404692	2.189580	-0.009628	-0.006616	0.004549	32.899231	-74.488572	25.957496
12639	9.397027	1.407154	2.182330	-0.006183	-0.006523	0.005197	32.899214	-74.492419	25.959393
12640	9.410311	1.419678	2.210748	-0.005103	-0.012223	0.001938	32.911777	-74.497973	25.948779
12641	9.390138	1.391352	2.210999	-0.005744	-0.006823	0.006631	32.909861	-74.502412	25.952907
12642	9.418358	1.411489	2.168238	-0.001667	-0.009034	0.003301	32.918450	-74.506861	25.948589
12643	9.390681	1.390236	2.209398	-0.008738	-0.011861	0.006345	32.920977	-74.513634	25.946328
12644	9.418983	1.410160	2.166385	-0.003794	-0.010025	0.006956	32.923094	-74.519700	25.947359
12645	9.411931	1.394552	2.195660	-0.010237	-0.013606	0.006381	32.926666	-74.527323	25.943121
12646	9.399121	1.402740	2.176143	-0.003794	-0.010026	0.006956	32.928805	-74.533387	25.944157
12647	9.399311	1.424039	2.185984	-0.002731	-0.009530	0.005128	32.934274	-74.538659	25.942414
12648	9.433536	1.376633	2.170297	-0.005107	-0.012224	0.001938	32.946877	-74.544216	25.931879
12649	9.392527	1.408291	2.214252	-0.003790	-0.011575	0.006597	32.951495	-74.550930	25.930389
12650	9.420888	1.406335	2.160581	-0.005740	-0.008374	0.006274	32.951840	-74.555987	25.932098
12651	9.393167	1.407047	2.212328	-0.004661	-0.015623	0.002655	32.967395	-74.563418	25.918745
12652	9.400974	1.421299	2.180606	-0.008290	-0.016810	0.006705	32.975061	-74.572666	25.911369
12653	9.414649	1.389665	2.187090	-0.009177	-0.013113	0.004554	32.981905	-74.579482	25.904368
12654	9.435450	1.416815	2.184955	-0.005734	-0.011473	0.005557	32.987017	-74.585808	25.901224
12655	9.402096	1.397391	2.166715	-0.006181	-0.008075	0.004840	32.989389	-74.590291	25.900644
12656	9.394851	1.403815	2.207224	-0.011136	-0.005264	0.005307	32.984810	-74.593555	25.904286
12657	9.395098	1.381502	2.196058	-0.006440	-0.006678	-0.001289	32.996143	-74.595455	25.894257
12658	9.415778	1.408895	2.194304	-0.010687	-0.010212	0.005665	32.996801	-74.601207	25.892699
12659	9.402900	1.395651	2.164345	-0.003432	-0.007836	-0.002438	33.013179	-74.603303	25.879225
12660	9.397275	1.397733	2.104253	-0.005379	-0.006182	-0.003118	33.027651	-74.604377	25.866567
12661	9.416202	1.408921	2.192470	-0.008825	-0.006273	-0.003762	33.041482	-74.605308	25.852529
12662	9.403173	1.396219	2.162792	-0.005820	-0.005882	-0.004551	33.057875	-74.605789	25.837706
12663	9.436917	1.393642	2.169047	-0.007583	-0.004679	-0.010285	33.081986	-74.603913	25.813745
12664	9.410398	1.412478	2.132170	-0.008479	0.003666	-0.011358	33.097860	-74.597676	25.797740
12665	9.402729	1.420362	2.173641	-0.008039	0.003366	-0.009924	33.111924	-74.592048	25.783927
12666	9.436314	1.396000	2.170155	-0.012994	0.006175	-0.009455	33.119017	-74.585203	25.774325
12667	9.381760	1.393922	2.176064	-0.009989	0.006567	-0.010245	33.128868	-74.577937	25.763723
12668	9.401957	1.422394	2.175652	-0.007601	0.004613	-0.008132	33.138514	-74.572257	25.754762
12669	9.394464	1.408040	2.206183	-0.013600	-0.002369	-0.007991	33.152504	-74.569983	25.737720
12670	9.381188	1.417543	2.187754	-0.010598	-0.000427	-0.008421	33.166642	-74.566627	25.722272
12671	9.401751	1.402027	2.165215	-0.010153	-0.002277	-0.007347	33.181373	-74.564508	25.706509
12672	9.422192	1.408374	2.153555	-0.008661	0.002566	-0.006663	33.190152	-74.560270	25.697817
12673	9.401344	1.446581	2.187115	-0.007335	0.000115	-0.002722	33.195746	-74.558453	25.693209
12674	9.401425	1.424694	2.176442	-0.017231	-0.002015	-0.003581	33.199470	-74.557373	25.684582
12675	9.442588	1.414679	2.142123	-0.011219	-0.001227	-0.005159	33.208588	-74.555434	25.674008
12676	9.401427	1.402894	2.166062	-0.004964	0.005904	0.001190	33.202073	-74.552055	25.683347
12677	9.380706	1.418687	2.189078	-0.013350	0.000874	-0.000784	33.199993	-74.550483	25.683124
12678	9.401242	1.424440	2.177402	-0.011840	-0.002026	-0.001899	33.203895	-74.549939	25.677588
12679	9.401291	1.424200	2.177347	-0.012461	-0.002826	0.001362	33.202801	-74.550814	25.676870
12680	9.388145	1.432896	2.158890	-0.011403	-0.000779	-0.000105	33.202421	-74.550234	25.675994
12681	9.407226	1.399649	2.226079	-0.014406	-0.002723	0.000323	33.201898	-74.550734	25.673528
12682	9.401408	1.423369	2.177383	-0.008397	-0.000385	-0.000894	33.204166	-74.549717	25.671720
12683	9.408742	1.438027	2.147365	-0.014417	0.001922	0.001405	33.196489	-74.548329	25.676670
12684	9.401507	1.400745	2.167105	-0.009022	0.000363	0.002727	33.191267	-74.548090	25.682253
12685	9.401432	1.422152	2.178076	-0.013973	0.000072	0.002477	33.184085	-74.547925	25.686953
12686	9.380855	1.437608	2.200704	-0.012021	-0.003130	0.002794	33.180992	-74.549383	25.688557
12687	9.414770	1.411986	2.196643	-0.010088	0.001411	0.004916	33.170285	-74.549340	25.699224
12688	9.388573	1.407489	2.149006	-0.011581	-0.003432	0.004227	33.165293	-74.551391	25.703015
12689	9.394380	1.404826	2.208589	-0.012474	0.001817	0.002444	33.157046	-74.550378	25.709710
12690	9.422241	1.425242	2.166972	-0.009471	0.003761	0.002016	33.148954	-74.548284	25.717993
12691	9.380990	1.434980	2.201845	-0.006464	0.004156	0.001228	33.143613	-74.545767	25.725246
12692	9.381068	1.412724	2.191383	-0.012471	0.000268	0.002082	33.137645	-74.545371	25.729582
12693	9.401726	1.396503	2.168893	-0.013787	-0.001922	-0.002940	33.142229	-74.544464	25.722186
12694	9.401676	1.396426	2.169156	-0.006906	0.004458	-0.000205	33.138679	-74.541341	25.727357
12695	9.414561	1.431105	2.209685	-0.007343	0.003212	-0.002000	33.139506	-74.538266	25.727688
12696	9.401385	1.418021	2.180970	-0.014426	0.005016	0.002127	33.126980	-74.535604	25.737706
12697	9.448200	1.405491	2.206761	-0.010357	0.005913	-0.000488	33.120406	-74.531707	25.743924
12698	9.380585	1.411438	2.194274	-0.011427	0.008508	0.002063	33.105747	-74.527349	25.757832
12699	9.414151	1.407932	2.201894	-0.008420	0.008904	0.001275	33.093856	-74.522566	25.770719
12700	9.400902	1.394804	2.173550	-0.015313	0.007169	-0.000378	33.082734	-74.518085	25.778654
12701	9.421207	1.400693	2.162856	-0.012132	0.011768	-0.005135	33.076605	-74.509922	25.783355
12702	9.413464	1.407603	2.205037	-0.008862	0.009206	-0.000158	33.066507	-74.504534	25.794113
12703	9.400080	1.416566	2.187529	-0.009299	0.007961	-0.001954	33.060797	-74.499194	25.800066
12704	9.379430	1.388683	2.189417	-0.010807	0.009310	-0.001198	33.051277	-74.493429	25.809010
12705	9.420182	1.422323	2.177818	-0.009307	0.011056	-0.001229	33.040833	-74.486827	25.819870
12706	9.399235	1.438274	2.201608	-0.008244	0.011558	-0.003056	33.033502	-74.479399	25.828140
12707	9.378476	1.410577	2.203823	-0.010193	0.013210	-0.003733	33.024478	-74.470980	25.837001
12708	9.411997	1.385599	2.201039	-0.011256	0.012708	-0.001907	33.012142	-74.463361	25.848639
12709	9.377844	1.410737	2.206408	-0.007178	0.010511	-0.005245	33.010505	-74.455766	25.851627
12710	9.384908	1.426177	2.177333	-0.009562	0.010919	-0.007718	33.011194	-74.447191	25.850726
12711	9.411020	1.386631	2.204564	-0.014515	0.010625	-0.007973	33.009938	-74.438690	25.848955
12712	9.376793	1.412074	2.210017	-0.006124	0.014108	-0.006345	33.006667	-74.429011	25.854271
12713	9.376294	1.434481	2.222079	-0.008055	0.009569	-0.008474	33.011156	-74.420861	25.850377
12714	9.396721	1.419094	2.200286	-0.014057	0.004130	-0.007993	33.017347	-74.415465	25.841231
12715	9.396669	1.397888	2.189811	-0.009972	0.000388	-0.011693	33.036546	-74.410720	25.820925
12716	9.396304	1.420652	2.201063	-0.006979	0.005428	-0.011388	33.051158	-74.403629	25.806949
12717	9.375662	1.393728	2.202311	-0.006524	0.000482	-0.011045	33.071087	-74.399038	25.787935
12718	9.395776	1.444245	2.212440	-0.009533	0.000083	-0.010260	33.088269	-74.394865	25.769884
12719	9.408877	1.414103	2.220402	-0.008484	0.005228	-0.010996	33.101654	-74.388008	25.756498
12720	9.395440	1.424028	2.202567	-0.008484	0.005228	-0.010996	33.114910	-74.381142	25.743333
12721	9.374569	1.418853	2.215107	-0.005052	0.009966	-0.009257	33.121951	-74.372554	25.738575
12722	9.408024	1.416526	2.222472	-0.008034	0.001829	-0.010290	33.138040	-74.367534	25.722631
12723	9.394815	1.404590	2.193476	-0.011922	0.002035	-0.012372	33.155343	-74.361774	25.703130
12724	9.394586	1.405481	2.193888	-0.008480	0.003679	-0.011360	33.170900	-74.355530	25.687424
12725	9.407146	1.441078	2.234640	-0.007422	0.005730	-0.012822	33.187387	-74.347854	25.671446
12726	9.380743	1.438382	2.187228	-0.011912	-0.001061	-0.013100	33.209240	-74.343333	25.647153
12727	9.406851	1.421238	2.224425	-0.010865	0.004085	-0.013834	33.227297	-74.336125	25.627495
12728	9.393352	1.431326	2.206737	-0.010883	0.008726	-0.012743	33.238134	-74.327023	25.615266
12729	9.392967	1.432353	2.207710	-0.007876	0.009127	-0.013527	33.251702	-74.317493	25.602048
12730	9.392664	1.433395	2.208322	-0.013862	0.000587	-0.013780	33.271688	-74.311963	25.578564
12731	9.371986	1.406486	2.209835	-0.010891	0.010272	-0.012379	33.280258	-74.302243	25.568741
12732	9.391966	1.435412	2.209981	-0.006367	0.007781	-0.014283	33.297323	-74.293108	25.552845
12733	9.378263	1.467417	2.203184	-0.012377	0.005428	-0.013080	33.311625	-74.285486	25.536182
12734	9.378182	1.446444	2.192890	-0.013435	0.003375	-0.011620	33.325000	-74.279294	25.519833
12735	9.424789	1.435177	2.218722	-0.008936	0.007074	-0.012066	33.337680	-74.271201	25.506903
12736	9.390724	1.439112	2.212853	-0.010447	0.008418	-0.011310	33.346574	-74.262693	25.497016
12737	9.397465	1.476908	2.194949	-0.012867	0.016559	-0.011962	33.346206	-74.250092	25.495301
12738	9.376620	1.449919	2.197269	-0.012847	0.011917	-0.013056	33.352757	-74.239360	25.486393
12739	9.381896	1.426685	2.247304	-0.009853	0.015414	-0.013109	33.357328	-74.226946	25.481340
12740	9.368201	1.436856	2.230388	-0.010287	0.014171	-0.014908	33.365957	-74.214548	25.471796
12741	9.388488	1.422151	2.209193	-0.014792	0.012016	-0.014100	33.373144	-74.203447	25.461084
12742	9.380178	1.451703	2.262405	-0.011337	0.010569	-0.013814	33.383296	-74.193120	25.449339
12743	9.400769	1.415134	2.230041	-0.011337	0.010569	-0.013814	33.393562	-74.182801	25.437483
12744	9.386694	1.468959	2.234608	-0.013282	0.010669	-0.014857	33.404243	-74.172087	25.424002
12745	9.386777	1.426265	2.213810	-0.007001	0.008515	-0.010660	33.413930	-74.163744	25.415329
12746	9.406738	1.455028	2.214019	-0.015843	0.008411	-0.013008	33.422501	-74.154693	25.402448
12747	9.385749	1.449928	2.226852	-0.009843	0.012317	-0.013839	33.431668	-74.143528	25.392622
12748	9.405811	1.457135	2.216573	-0.010292	0.014166	-0.014907	33.440164	-74.131130	25.383098
12749	9.384455	1.473927	2.240730	-0.014815	0.015102	-0.013371	33.442580	-74.118781	25.377328
12750	9.391870	1.446349	2.190361	-0.012871	0.015000	-0.012328	33.444340	-74.106800	25.373404
12751	9.404270	1.460031	2.221202	-0.011349	0.012111	-0.013450	33.452174	-74.095855	25.364063
12752	9.349561	1.457704	2.227329	-0.014984	0.010890	-0.009413	33.452404	-74.086757	25.360565
12753	9.382865	1.455545	2.235325	-0.009837	0.010767	-0.014205	33.463841	-74.076215	25.348379
12754	9.361607	1.472379	2.258910	-0.007874	0.007574	-0.013893	33.479270	-74.067286	25.333103
12755	9.394958	1.470294	2.266656	-0.010023	0.009650	-0.009515	33.483958	-74.058759	25.327823
12756	9.361185	1.452374	2.249710	-0.011304	0.004376	-0.015281	33.503231	-74.050919	25.306428
12757	9.381470	1.459517	2.238588	-0.008481	0.003669	-0.011369	33.518501	-74.044663	25.291061
12758	9.401735	1.466483	2.227673	-0.013904	0.008301	-0.011970	33.526402	-74.035996	25.280154
12759	9.388220	1.476467	2.210181	-0.007446	0.008816	-0.012093	33.537756	-74.027051	25.269475
12760	9.387529	1.499104	2.222249	-0.015429	0.011187	-0.010848	33.539700	-74.017355	25.263738
12761	9.400619	1.468820	2.230839	-0.013025	0.007691	-0.009103	33.544098	-74.009894	25.256969
12762	9.359061	1.457221	2.255407	-0.010947	0.016439	-0.010915	33.542928	-73.997668	25.257222
12763	9.379224	1.464000	2.245066	-0.011082	0.007591	-0.008059	33.546803	-73.990585	25.252155
12764	9.365456	1.495420	2.238548	-0.013037	0.009235	-0.008737	33.548714	-73.982499	25.247922
12765	9.398852	1.493100	2.246293	-0.010006	0.006554	-0.010249	33.557982	-73.975216	25.237886
12766	9.364822	1.496769	2.240295	-0.010017	0.008099	-0.009882	33.564824	-73.967294	25.230310
12767	9.377941	1.466551	2.248754	-0.010028	0.009645	-0.009515	33.569437	-73.958768	25.225102
12768	9.390387	1.479862	2.279335	-0.014993	0.010877	-0.009416	33.569561	-73.949673	25.221539
12769	9.364035	1.476786	2.232756	-0.015005	0.012422	-0.009049	33.567485	-73.939969	25.220324
12770	9.409760	1.508760	2.281692	-0.013105	0.018506	-0.006534	33.555502	-73.928150	25.230504
12771	9.376531	1.446893	2.243640	-0.012886	0.014988	-0.012326	33.557257	-73.916182	25.226566
12772	9.367881	1.476026	2.297346	-0.014403	0.016326	-0.011571	33.555280	-73.903811	25.225621
12773	9.361998	1.479448	2.239526	-0.014831	0.015084	-0.013373	33.557539	-73.891467	25.219998
12774	9.367136	1.456012	2.289665	-0.013327	0.015290	-0.013761	33.560923	-73.878896	25.214055
12775	9.381497	1.487460	2.231256	-0.014405	0.016323	-0.011572	33.559083	-73.866530	25.212952
12776	9.373156	1.494649	2.274052	-0.017416	0.015909	-0.010797	33.554570	-73.854598	25.212827
12777	9.372592	1.495221	2.276000	-0.014004	0.020653	-0.009033	33.544047	-73.840969	25.221003
12778	9.372431	1.473934	2.266828	-0.015022	0.013959	-0.008685	33.539554	-73.830644	25.222378
12779	9.384716	1.486974	2.297984	-0.018057	0.016634	-0.007175	33.528059	-73.819521	25.229149
12780	9.350492	1.490235	2.292980	-0.013555	0.018801	-0.007967	33.517975	-73.807097	25.237001
12781	9.357792	1.484201	2.253915	-0.017005	0.018690	-0.008628	33.507259	-73.794532	25.243590
12782	9.369992	1.497188	2.285392	-0.018072	0.018176	-0.006808	33.493348	-73.782787	25.252812
12783	9.390448	1.482042	2.264676	-0.017419	0.015903	-0.010800	33.489016	-73.770866	25.252506
12784	9.348285	1.492172	2.300706	-0.011863	0.020128	-0.013042	33.486843	-73.756208	25.253312
12785	9.367890	1.520980	2.302102	-0.015915	0.016109	-0.011188	33.483788	-73.744066	25.252573
12786	9.368163	1.478019	2.281760	-0.016983	0.015594	-0.009368	33.477537	-73.732738	25.254312
12787	9.333975	1.481697	2.276327	-0.009855	0.012306	-0.013839	33.486413	-73.721575	25.244760
12788	9.346233	1.495143	2.307107	-0.015001	0.010861	-0.009428	33.486553	-73.712488	25.241237
12789	9.353377	1.510962	2.278262	-0.016055	0.008802	-0.007978	33.486069	-73.704853	25.237735
12790	9.345201	1.517570	2.320247	-0.014728	0.006341	-0.004044	33.482433	-73.699625	25.238115
12791	9.378609	1.514823	2.328263	-0.014140	0.011794	-0.006189	33.476892	-73.691125	25.241025
12792	9.352539	1.511428	2.281389	-0.012799	0.007788	-0.002626	33.470514	-73.685661	25.245789
12793	9.378540	1.493020	2.319182	-0.017302	0.005617	-0.001840	33.462737	-73.681487	25.249141
12794	9.385517	1.529513	2.301161	-0.014717	0.008415	0.007875	33.437439	-73.679039	25.272418
12795	9.365657	1.479016	2.291383	-0.011472	0.005326	0.001307	33.428187	-73.675997	25.280789
12796	9.352494	1.487609	2.273570	-0.015551	0.004393	0.003896	33.413233	-73.674220	25.292818
12797	9.344509	1.493317	2.315256	-0.012540	0.004811	0.003126	33.400960	-73.671998	25.303699
12798	9.344489	1.492708	2.315731	-0.012075	0.001416	0.003820	33.391320	-73.671623	25.312255
12799	9.373048	1.492011	2.263490	-0.010569	0.001625	0.003435	33.383105	-73.671021	25.320084
12800	9.365134	1.497960	2.304718	-0.007967	-0.000739	0.000490	33.383565	-73.670616	25.320266
12801	9.345037	1.469374	2.305124	-0.010734	-0.002592	0.007381	33.373348	-73.673276	25.330083
12802	9.352325	1.505732	2.286029	-0.009639	-0.005165	0.004821	33.370588	-73.676351	25.332900
12803	9.378685	1.486848	2.322556	-0.008557	-0.006194	0.002631	33.373251	-73.679237	25.330594
12804	9.352264	1.526296	2.296474	-0.011172	-0.002286	0.005947	33.364659	-73.681291	25.338519
12805	9.365891	1.494639	2.303796	-0.008160	-0.001868	0.005177	33.358731	-73.682909	25.345403
12806	9.366399	1.472275	2.292689	-0.012048	-0.001673	0.003079	33.353663	-73.683770	25.349241
12807	9.353028	1.502679	2.285162	-0.005121	-0.004539	0.003665	33.354819	-73.686189	25.350556
12808	9.373828	1.508269	2.273298	-0.010708	-0.005682	0.006639	33.349039	-73.690078	25.355834
12809	9.333183	1.473200	2.285072	-0.009680	-0.000534	0.005934	33.339561	-73.691295	25.365508
12810	9.366576	1.491442	2.303081	-0.005573	-0.002688	0.002602	33.340048	-73.692486	25.367119
12811	9.353275	1.521806	2.295336	-0.012626	-0.008673	0.004847	33.339420	-73.697256	25.365814
12812	9.346406	1.483789	2.313725	-0.005328	-0.004126	0.008723	33.331558	-73.701070	25.376345
12813	9.367272	1.489181	2.301714	-0.007232	-0.008661	0.006560	33.331200	-73.706374	25.377979
12814	9.361997	1.512915	2.252667	-0.008314	-0.007633	0.008750	33.325418	-73.711860	25.384641
12815	9.368322	1.465563	2.289130	-0.006331	-0.012364	0.008684	33.326083	-73.719605	25.385746
12816	9.347665	1.480199	2.310937	-0.005740	-0.006908	0.006546	33.324567	-73.724063	25.389578
12817	9.389237	1.491728	2.287044	-0.002005	-0.012870	0.012215	33.322463	-73.733162	25.396151
12818	9.355956	1.493648	2.279088	-0.006783	-0.010513	0.007622	33.322439	-73.739670	25.397297
12819	9.390050	1.489515	2.285149	-0.010000	-0.010520	0.013451	33.311179	-73.748033	25.408635
12820	9.390787	1.466529	2.273350	-0.001426	-0.005870	0.010448	33.304628	-73.753217	25.420415
12821	9.357033	1.490239	2.276896	-0.004852	-0.009069	0.009042	33.301981	-73.759496	25.425853
12822	9.349516	1.495498	2.317192	-0.007865	-0.009487	0.009812	33.296636	-73.766216	25.432342
12823	9.358108	1.466426	2.264212	-0.002908	-0.009169	0.010089	33.293480	-73.772873	25.439471
12824	9.391458	1.505800	2.292543	-0.007427	-0.009795	0.011246	33.286404	-73.780177	25.448053
12825	9.358827	1.464205	2.262680	-0.004865	-0.007526	0.009413	33.281453	-73.785834	25.455881
12826	9.379394	1.491197	2.261569	-0.004854	-0.009070	0.009041	33.278638	-73.792108	25.461481
12827	9.351277	1.490196	2.313500	-0.000988	-0.006182	0.011881	33.270378	-73.797897	25.475068
12828	9.359507	1.482774	2.271596	-0.007405	-0.012884	0.010502	33.267828	-73.806451	25.478840
12829	9.386184	1.463087	2.307302	-0.005022	-0.013294	0.012982	33.263121	-73.815992	25.486320
12830	9.360449	1.480214	2.269384	-0.006979	-0.011650	0.012307	33.256454	-73.824545	25.494972
12831	9.353413	1.463422	2.298330	-0.005035	-0.011751	0.013354	33.249438	-73.833464	25.504848
12832	9.387568	1.459040	2.304232	-0.001595	-0.010099	0.014388	33.240685	-73.841925	25.518621
12833	9.374995	1.466868	2.284536	-0.006059	-0.018445	0.013684	33.239778	-73.854154	25.521525
12834	9.396160	1.471568	2.271622	-0.004158	-0.012370	0.016221	33.229013	-73.864277	25.536175
12835	9.376145	1.463805	2.281778	-0.004116	-0.018548	0.014730	33.227583	-73.876884	25.540781
12836	9.356244	1.455860	2.291599	-0.005813	-0.019893	0.019802	33.218047	-73.891729	25.552849
12837	9.398102	1.466452	2.266891	-0.003700	-0.015771	0.016908	33.210201	-73.903688	25.564381
12838	9.365252	1.446159	2.247649	-0.002653	-0.012165	0.015833	33.200585	-73.913564	25.577699
12839	9.365504	1.466314	2.257520	-0.002195	-0.015564	0.016521	33.193993	-73.925301	25.588822
12840	9.337807	1.464576	2.308646	-0.005827	-0.018352	0.020175	33.182076	-73.939509	25.603010
12841	9.359645	1.425668	2.273082	-0.001100	-0.019682	0.013582	33.185468	-73.952298	25.604396
12842	9.393461	1.464382	2.300496	-0.002385	-0.016704	0.021206	33.171982	-73.966067	25.622986
12843	9.368430	1.437583	2.239896	-0.005201	-0.017527	0.016922	33.165082	-73.978869	25.632634
12844	9.402544	1.454525	2.256130	-0.006690	-0.020824	0.016563	33.161364	-73.993140	25.638236
12845	9.389781	1.483826	2.247389	-0.002216	-0.012481	0.017265	33.150061	-74.003629	25.654242
12846	9.370008	1.454314	2.246566	-0.004145	-0.015467	0.015474	33.143763	-74.014993	25.664227
12847	9.370337	1.474458	2.256320	-0.005652	-0.015675	0.015861	33.136304	-74.026574	25.674186
12848	9.384506	1.420123	2.251165	-0.004163	-0.012380	0.016219	33.125359	-74.036690	25.689140
12849	9.350841	1.465075	2.265497	-0.004155	-0.013925	0.015846	33.116841	-74.047425	25.701093
12850	9.385298	1.438816	2.259941	-0.006981	-0.013200	0.011937	33.112305	-74.056596	25.707521
12851	9.372450	1.468366	2.251508	-0.002210	-0.014031	0.016890	33.103239	-74.067708	25.721201
12852	9.358091	1.435939	2.310208	-0.006542	-0.013512	0.013369	33.096923	-74.077464	25.729794
12853	9.394324	1.449787	2.226254	-0.005656	-0.015679	0.015860	33.089395	-74.089044	25.739820
12854	9.374295	1.442098	2.236535	-0.001144	-0.013516	0.015068	33.083113	-74.099365	25.751202
12855	9.374634	1.462291	2.246366	-0.005657	-0.015680	0.015860	33.075562	-74.110945	25.761250
12856	9.334423	1.405107	2.246000	-0.003532	-0.013101	0.012592	33.071766	-74.120291	25.769584
12857	9.416753	1.471885	2.220869	-0.008945	-0.010008	0.011641	33.063199	-74.127828	25.778728
12858	9.376178	1.436797	2.232050	0.000100	-0.010316	0.008934	33.064500	-74.134674	25.782918
12859	9.368885	1.442231	2.272292	-0.001853	-0.008666	0.008265	33.064217	-74.140512	25.787675
12860	9.389814	1.447325	2.259878	-0.008945	-0.010008	0.011641	33.055444	-74.148039	25.796794
12861	9.377220	1.433829	2.229578	-0.003360	-0.008873	0.008653	33.053860	-74.154097	25.802005
12862	9.377326	1.454543	2.240150	-0.002939	-0.004551	0.011206	33.043215	-74.158882	25.816796
12863	9.390915	1.422468	2.246919	-0.006826	-0.005884	0.008747	33.036186	-74.163533	25.825603
12864	9.378004	1.430741	2.228266	-0.008345	-0.003000	0.009883	33.022970	-74.167186	25.840530
12865	9.398667	1.457604	2.227312	0.000092	-0.008775	0.009306	33.022131	-74.173399	25.847022
12866	9.363698	1.397929	2.287080	-0.008773	-0.005778	0.007704	33.015412	-74.177665	25.854008
12867	9.399376	1.434252	2.214963	-0.002736	-0.008045	0.005399	33.018766	-74.182308	25.854457
12868	9.412825	1.424093	2.232552	-0.007882	-0.009492	0.009820	33.013120	-74.189030	25.861544
12869	9.379394	1.426271	2.225275	-0.001873	-0.004036	0.009384	33.005784	-74.192991	25.873618
12870	9.413045	1.465461	2.253875	-0.004440	-0.006304	0.011221	32.996115	-74.198619	25.886381
12871	9.413680	1.420727	2.231090	-0.010472	-0.005582	0.013152	32.979143	-74.204497	25.903348
12872	9.380137	1.444121	2.235121	-0.003125	-0.005698	0.015889	32.961656	-74.211291	25.925419
12873	9.373155	1.405703	2.253492	-0.001873	-0.004037	0.009384	32.954292	-74.215249	25.937520
12874	9.393774	1.432859	2.252627	-0.008584	-0.006178	0.002646	32.956786	-74.218150	25.936136
12875	9.380854	1.441465	2.233823	-0.004881	-0.005993	0.009789	32.949160	-74.223174	25.946717
12876	9.401827	1.425029	2.210508	-0.007704	-0.006804	0.005509	32.947917	-74.227248	25.948912
12877	9.381423	1.418257	2.221845	-0.006653	-0.001652	0.004811	32.942953	-74.228633	25.955672
12878	9.388778	1.454723	2.203203	-0.006227	0.002669	0.007365	32.928964	-74.228733	25.972178
12879	9.394598	1.429050	2.251610	-0.009226	-0.002376	0.007021	32.919557	-74.231154	25.982023
12880	9.381745	1.415825	2.222035	-0.012680	-0.002473	0.006369	32.909138	-74.233439	25.990948
12881	9.394967	1.405792	2.240463	-0.005596	0.001955	0.003739	32.902624	-74.232755	25.999947
12882	9.402172	1.463979	2.233087	-0.005782	0.000810	0.008422	32.889071	-74.234078	26.015979
12883	9.394938	1.447405	2.262929	-0.005955	-0.004970	0.011982	32.875931	-74.239289	26.031651
12884	9.436693	1.414535	2.216973	-0.008284	-0.004064	0.021057	32.844871	-74.246880	26.065051
12885	9.390061	1.446680	2.203032	-0.006786	-0.000771	0.021417	32.810493	-74.252996	26.102293
12886	9.396001	1.441049	2.262569	-0.003088	0.000953	0.028933	32.763255	-74.260611	26.155067
12887	9.404075	1.431790	2.221225	-0.007781	-0.006987	0.033285	32.714766	-74.273384	26.206374
12888	9.384196	1.422153	2.232167	-0.006019	-0.009791	0.038635	32.660871	-74.289154	26.264049
12889	9.405830	1.381042	2.196953	-0.012032	-0.018333	0.038319	32.613591	-74.308933	26.311561
12890	9.413920	1.435950	2.188400	-0.007098	-0.005682	0.041580	32.549335	-74.323612	26.380089
12891	9.420381	1.385208	2.225134	-0.003212	-0.002818	0.044412	32.479333	-74.337744	26.456443
12892	9.400351	1.439664	2.270001	-0.004468	-0.006033	0.050539	32.401315	-74.355317	26.541577
12893	9.442548	1.403154	2.223867	-0.014145	-0.006546	0.056504	32.307908	-74.374903	26.635716
12894	9.402316	1.363728	2.235627	-0.005737	-0.003079	0.058166	32.212226	-74.393286	26.737461
12895	9.431273	1.379626	2.193761	-0.007247	-0.004831	0.058179	32.117524	-74.412467	26.837031
12896	9.404091	1.352429	2.235027	-0.015668	-0.005214	0.057266	32.019505	-74.431531	26.935055
12897	9.412431	1.383846	2.216214	-0.010711	-0.000298	0.058652	31.916579	-74.448560	27.041084
12898	9.372041	1.366278	2.239481	-0.006631	-0.002470	0.055300	31.823788	-74.465590	27.139071
12899	9.406560	1.357398	2.246002	-0.009650	-0.002877	0.056078	31.728341	-74.483003	27.237951
12900	9.332373	1.300292	2.240016	-0.019826	-0.005068	0.048691	31.642051	-74.499224	27.321548
12901	9.353666	1.302033	2.227994	-0.012346	-0.007619	0.034445	31.587895	-74.512379	27.375962
12902	9.429018	1.307472	2.211303	-0.021686	0.001453	0.021382	31.541249	-74.517199	27.417227
12903	9.374803	1.302875	2.217154	-0.005524	0.013236	0.017919	31.497473	-74.515194	27.464923
12904	9.346885	1.366668	2.304444	0.000057	0.003547	0.012297	31.476994	-74.516219	27.490923
12905	9.408852	1.339777	2.246977	-0.026912	-0.009705	0.011998	31.456181	-74.523642	27.502074
12906	9.416606	1.331948	2.205642	-0.008995	0.000801	0.014259	31.430086	-74.526632	27.530026
12907	9.375559	1.340526	2.240317	-0.002769	0.001213	0.007643	31.418990	-74.527414	27.545448
12908	9.403777	1.339331	2.187594	-0.022189	-0.003317	0.007276	31.402094	-74.530283	27.554913
12909	9.416995	1.350473	2.217411	-0.015076	0.004176	0.005403	31.384707	-74.528945	27.569546
12910	9.388782	1.328302	2.259585	-0.002130	0.006681	0.005523	31.371603	-74.526435	27.587716
12911	9.396418	1.364808	2.241231	-0.013139	-0.002119	0.004936	31.362936	-74.528035	27.594453
12912	9.396394	1.320749	2.218681	-0.018543	-0.003624	0.002868	31.356201	-74.529758	27.595805
12913	9.403977	1.313746	2.177567	-0.010750	0.000529	0.008161	31.340346	-74.531024	27.611421
12914	9.409810	1.352879	2.259618	-0.013578	-0.001800	0.003506	31.333432	-74.532057	27.616575
12915	9.383549	1.328205	2.200686	-0.013380	0.000902	-0.000797	31.331509	-74.530469	27.616171
12916	9.396692	1.340138	2.230341	-0.013386	-0.002185	-0.001552	31.334116	-74.530164	27.611398
12917	9.396617	1.318289	2.219197	-0.013381	0.000902	-0.000797	31.332193	-74.528577	27.610994
12918	9.396624	1.340044	2.230684	-0.006716	0.000999	-0.005983	31.342811	-74.525418	27.601247
12919	9.402104	1.315246	2.278881	-0.010809	-0.003009	-0.004139	31.352476	-74.524749	27.590348
12920	9.396521	1.318894	2.219245	-0.011250	-0.004233	-0.005947	31.366164	-74.524138	27.574825
12921	9.430317	1.337193	2.236897	-0.012320	-0.004754	-0.004127	31.376820	-74.524325	27.561999
