// General information: 
//  MT Manager version: 2022.2.0 
//  XDA version: 2022.2.0 build 7381 rev 124627 built on 2023-07-19
// Device information: 
//  DeviceId: 00B4BB4E
//  ProductCode: MTW2-3A7G6
//  Firmware Version: 4.6.0
//  Hardware Version: 2.0.0
// Device settings: 
//  Filter Profile: human(46.1)
//  Option Flags: Orientation Smoother Disabled, Position/Velocity Smoother Disabled, Continuous Zero Rotation Update Disabled, AHS Disabled, ICC Disabled
// Coordinate system: ENU
PacketCounter	Acc_X	Acc_Y	Acc_Z	Gyr_X	Gyr_Y	Gyr_Z	Roll	Pitch	Yaw
43844	9.745319	0.264067	-0.581192	0.000801	-0.006274	-0.005889	164.519408	-86.391009	166.682303
43845	9.747065	0.284856	-0.531227	-0.011381	-0.009392	-0.007144	164.531680	-86.383930	166.664301
43846	9.770439	0.288790	-0.581497	-0.029965	-0.014115	-0.002163	164.585311	-86.375415	166.594400
43847	9.728857	0.256641	-0.568409	-0.042063	-0.013679	0.000477	164.656236	-86.367133	166.500088
43848	9.717523	0.195749	-0.615712	-0.048828	-0.016629	0.002292	164.743112	-86.357891	166.386045
43849	9.731833	0.184490	-0.683719	-0.044295	-0.013747	0.007358	164.871862	-86.350624	166.233964
43850	9.715498	0.175153	-0.669445	-0.046702	-0.020926	0.006447	165.004816	-86.339594	166.074966
43851	9.745219	0.119826	-0.709216	-0.049736	-0.014133	0.008026	165.135971	-86.332134	165.916820
43852	9.737172	0.071764	-0.633055	-0.032918	-0.017658	0.010806	165.305404	-86.323501	165.729180
43853	9.718583	0.015441	-0.647489	-0.013785	-0.017562	0.010600	165.485556	-86.314460	165.542408
43854	9.720744	0.060739	-0.620571	0.003128	-0.017330	0.013542	165.696706	-86.306322	165.333657
43855	9.661087	0.169145	-0.546000	0.010071	-0.020558	0.015816	165.939781	-86.296261	165.096993
43856	9.647076	0.204980	-0.503626	0.017989	-0.022744	0.016254	166.192085	-86.285376	164.855530
43857	9.697568	0.250104	-0.502933	-0.005062	-0.026813	0.020078	166.473082	-86.272321	164.573329
43858	9.714450	0.309660	-0.566090	-0.034253	-0.034720	0.030666	166.839333	-86.256505	164.187672
43859	9.744796	0.304934	-0.651814	-0.077614	-0.033754	0.032463	167.193543	-86.240956	163.791444
43860	9.719702	0.160898	-0.797801	-0.083339	-0.031722	0.028880	167.504696	-86.226288	163.432806
43861	9.721775	0.060443	-0.891537	-0.054328	-0.031947	0.029146	167.834073	-86.210998	163.072088
43862	9.755510	-0.187840	-0.811596	-0.031005	-0.030108	0.025828	168.141233	-86.196610	162.747490
43863	9.802739	-0.242953	-0.795058	0.038051	-0.012536	0.025158	168.451927	-86.191507	162.460362
43864	9.777270	-0.268969	-0.797421	0.079008	-0.007010	0.018666	168.718957	-86.189056	162.239150
43865	9.734670	-0.125692	-0.759278	0.107014	-0.007689	0.009558	168.929151	-86.184741	162.092626
43866	9.773661	-0.023125	-0.661283	0.117671	-0.001005	0.007853	169.116695	-86.184375	161.973277
43867	9.737845	0.088919	-0.634176	0.105533	-0.000387	0.006785	169.290057	-86.183830	161.862355
43868	9.719948	0.203783	-0.550041	0.085855	0.003974	0.005971	169.435556	-86.186022	161.766875
43869	9.704158	0.220243	-0.556416	0.048386	-0.002823	0.008013	169.590742	-86.184138	161.640763
43870	9.748196	0.298240	-0.542843	0.025433	-0.002696	0.004560	169.700119	-86.182394	161.546789
43871	9.736151	0.210296	-0.566891	-0.018326	-0.006919	0.005545	169.801651	-86.177977	161.436701
43872	9.715345	0.134333	-0.630560	-0.035125	-0.003556	0.006520	169.893929	-86.175923	161.325089
43873	9.742331	0.032616	-0.697668	-0.042264	-0.007635	0.000198	169.937237	-86.170566	161.259999
43874	9.753474	-0.051141	-0.771467	-0.029915	-0.010321	-0.001943	169.970983	-86.163837	161.210041
43875	9.728442	-0.047864	-0.796082	0.003267	-0.009037	-0.001055	170.031882	-86.157477	161.152001
43876	9.720943	-0.068510	-0.741288	0.024346	-0.006897	-0.004969	170.065933	-86.152375	161.132895
43877	9.753358	0.068262	-0.632836	0.035817	-0.006866	-0.005112	170.108043	-86.146929	161.114464
43878	9.765362	0.155917	-0.609781	0.025063	-0.003834	-0.003599	170.149366	-86.143688	161.088481
43879	9.743247	0.232147	-0.627691	0.007182	-0.005073	-0.004673	170.175322	-86.139248	161.067174
43880	9.696122	0.311642	-0.669693	-0.013119	-0.013488	-0.006647	170.183153	-86.130258	161.052833
43881	9.714354	0.340840	-0.636054	-0.016825	-0.010332	0.004762	170.281879	-86.123759	160.945991
43882	9.697349	0.278907	-0.576672	-0.035069	-0.013108	0.003005	170.356588	-86.115911	160.852012
43883	9.677848	0.170542	-0.545676	-0.051514	-0.008219	0.004675	170.430144	-86.110604	160.749482
43884	9.720203	0.024864	-0.584859	-0.064699	-0.012373	0.005289	170.505205	-86.103371	160.638133
43885	9.741167	0.007993	-0.686342	-0.067391	-0.017538	0.007594	170.607207	-86.093077	160.500812
43886	9.745887	-0.017689	-0.772271	-0.057270	-0.019885	0.004864	170.692340	-86.081534	160.383632
43887	9.720753	-0.014622	-0.797715	-0.044458	-0.017275	0.003563	170.771980	-86.070956	160.279491
43888	9.745627	-0.017839	-0.775536	-0.026463	-0.012270	0.004795	170.862982	-86.063691	160.174118
43889	9.712481	0.049954	-0.883809	0.003736	-0.003949	0.003517	170.951177	-86.060620	160.088152
43890	9.719415	0.135831	-0.753550	0.015159	0.005836	0.003177	171.028662	-86.063434	160.020232
43891	9.740405	0.210403	-0.689274	0.012788	0.011751	0.009709	171.153277	-86.069786	159.904403
43892	9.736800	0.314285	-0.670581	-0.009917	0.009444	0.010531	171.272789	-86.075268	159.779956
43893	9.711910	0.316522	-0.693211	-0.053629	0.008939	0.011709	171.380514	-86.080191	159.644714
43894	9.766020	0.231721	-0.684881	-0.094894	0.006469	0.002786	171.391543	-86.083298	159.580203
43895	9.771950	0.147155	-0.650698	-0.112268	0.014238	0.002743	171.385005	-86.090448	159.525942
43896	9.751509	-0.131549	-0.715202	-0.123344	0.019653	0.000018	171.340353	-86.100786	159.500905
43897	9.720771	-0.273177	-0.750982	-0.084641	0.011795	-0.003343	171.302301	-86.105974	159.492822
43898	9.700993	-0.176643	-0.715754	-0.032498	0.015436	-0.003223	171.287997	-86.113644	159.489539
43899	9.713998	-0.035796	-0.734086	0.000032	0.013711	-0.003722	171.292246	-86.119898	159.485915
43900	9.700036	0.205906	-0.685279	0.016513	0.008638	-0.001677	171.327664	-86.123853	159.460942
43901	9.746723	0.330935	-0.640864	0.001280	0.012322	-0.001309	171.355857	-86.129517	159.436246
43902	9.749326	0.377218	-0.610789	-0.025547	0.011980	0.002758	171.400229	-86.135743	159.378145
43903	9.726983	0.426431	-0.604288	-0.055590	0.010920	0.008078	171.475964	-86.141390	159.271884
43904	9.748694	0.323121	-0.564241	-0.084042	0.010203	0.012769	171.573643	-86.147444	159.126763
43905	9.767832	0.173540	-0.553588	-0.123247	0.003160	0.011678	171.650394	-86.148991	158.980062
43906	9.816383	-0.030547	-0.582296	-0.114634	0.004218	0.009751	171.712954	-86.151375	158.852575
43907	9.737738	-0.147300	-0.616231	-0.078252	0.002298	0.012945	171.827189	-86.152531	158.694070
43908	9.719412	-0.176762	-0.651135	-0.028001	0.004105	0.013030	171.967443	-86.155084	158.538462
43909	9.690374	-0.096814	-0.634104	0.008942	-0.002241	0.017246	172.174244	-86.153962	158.338551
43910	9.721270	0.043584	-0.596493	0.021966	-0.005798	0.020027	172.413724	-86.151357	158.112186
43911	9.759255	0.178749	-0.592543	0.005624	-0.006717	0.018314	172.633626	-86.147671	157.900079
43912	9.720657	0.217249	-0.572010	-0.010090	-0.008553	0.021540	172.869735	-86.143488	157.658683
43913	9.679476	0.209783	-0.580654	-0.033490	-0.009985	0.017397	173.060454	-86.137738	157.449695
43914	9.625584	0.088548	-0.592417	-0.047340	-0.013918	0.024240	173.302166	-86.130566	157.181289
43915	9.648295	0.063909	-0.621346	-0.053267	-0.019366	0.020301	173.513689	-86.119619	156.941479
43916	9.711223	-0.008326	-0.599301	-0.060439	-0.023873	0.021416	173.731273	-86.106460	156.689727
43917	9.755705	-0.108758	-0.612807	-0.072968	-0.024552	0.015929	173.896713	-86.092136	156.483489
43918	9.784851	-0.164381	-0.654211	-0.049573	-0.022679	0.012599	174.043120	-86.079022	156.309313
43919	9.669893	-0.194784	-0.640332	-0.024919	-0.022196	0.011676	174.196739	-86.065770	156.144198
43920	9.642049	-0.238263	-0.695465	-0.014126	-0.025192	0.010132	174.342926	-86.051021	155.990595
43921	9.683061	-0.233156	-0.690016	0.002582	-0.022056	0.001333	174.425396	-86.037193	155.912831
43922	9.738766	-0.120923	-0.608081	-0.004647	-0.016120	-0.008873	174.411920	-86.026531	155.924714
43923	9.719238	-0.087154	-0.761416	-0.025217	-0.018588	-0.011215	174.371805	-86.014035	155.953084
43924	9.645533	-0.109222	-0.739298	-0.032300	-0.018641	-0.021104	174.244989	-86.001239	156.062701
43925	9.660349	-0.177752	-0.691861	-0.040480	-0.023516	-0.029353	174.054665	-85.984854	156.234885
43926	9.663701	-0.279038	-0.713364	-0.042731	-0.022954	-0.033660	173.825880	-85.968792	156.440735
43927	9.679429	-0.292686	-0.709811	-0.019442	-0.024344	-0.044666	173.529275	-85.950782	156.731880
43928	9.691291	-0.227954	-0.665176	0.001735	-0.022097	-0.048593	173.209371	-85.934077	157.054628
43929	9.690314	-0.072449	-0.618826	0.014491	-0.022959	-0.053812	172.861862	-85.916074	157.413832
43930	9.645375	0.032009	-0.609559	-0.008973	-0.024203	-0.061649	172.440103	-85.896931	157.832560
43931	9.715448	-0.037246	-0.621799	-0.026349	-0.025995	-0.065232	171.989482	-85.875968	158.272189
43932	9.804319	-0.050997	-0.620623	-0.015095	-0.023688	-0.065901	171.538512	-85.856307	158.716708
43933	9.754847	0.042788	-0.735231	-0.022170	-0.024464	-0.064588	171.102869	-85.835748	159.144159
43934	9.680095	0.140013	-0.873635	-0.026863	-0.031335	-0.066123	170.661681	-85.811250	159.572133
43935	9.774262	0.271956	-0.857547	-0.017363	-0.023622	-0.062744	170.249857	-85.790914	159.977030
43936	9.794805	0.290013	-0.981523	-0.026091	-0.015248	-0.057179	169.864887	-85.775933	160.349100
43937	9.746089	0.241183	-0.913470	-0.023766	-0.011827	-0.056411	169.488039	-85.762464	160.715221
43938	9.747874	0.212124	-0.819470	0.000586	0.000519	-0.054267	169.122657	-85.756312	161.082988
43939	9.807420	0.278446	-0.798404	-0.009063	-0.001699	-0.050490	168.787198	-85.748836	161.414272
43940	9.816367	0.270795	-0.758385	-0.010563	0.015202	-0.049577	168.430364	-85.751132	161.767065
43941	9.770523	0.293533	-0.680064	-0.008040	0.012410	-0.044771	168.118427	-85.751927	162.076727
43942	9.699556	0.319105	-0.625201	-0.021074	0.015439	-0.040042	167.826527	-85.755203	162.358367
43943	9.667267	0.277765	-0.570639	-0.063940	0.005888	-0.040513	167.524602	-85.752674	162.625943
43944	9.742663	0.183246	-0.664671	-0.085164	0.003738	-0.040302	167.213489	-85.749156	162.890028
43945	9.729058	0.135569	-0.784350	-0.096556	-0.002420	-0.039832	166.913268	-85.741850	163.137071
43946	9.692425	0.056519	-0.833402	-0.080826	-0.000716	-0.039357	166.620815	-85.735766	163.384941
43947	9.651312	0.081706	-0.862714	-0.045562	-0.000973	-0.038665	166.357888	-85.729257	163.624657
43948	9.669463	0.087238	-0.805576	-0.029109	0.004057	-0.040515	166.079178	-85.725496	163.888464
43949	9.680683	0.097337	-0.714864	-0.010562	0.001016	-0.038471	165.834948	-85.719929	164.127908
43950	9.671562	0.086604	-0.732349	0.000763	0.002936	-0.031675	165.642019	-85.716628	164.322860
43951	9.705861	0.207992	-0.777336	0.014581	0.002542	-0.027541	165.491258	-85.713370	164.483670
43952	9.708024	0.310139	-0.790931	0.008425	-0.001188	-0.024531	165.364042	-85.708733	164.617129
43953	9.726148	0.367461	-0.777213	-0.011049	0.000300	-0.017286	165.279097	-85.705668	164.697185
43954	9.723920	0.269601	-0.763398	-0.030578	0.002249	-0.017502	165.175108	-85.703927	164.784943
43955	9.705731	0.269905	-0.820103	-0.029918	0.001318	-0.012571	165.112621	-85.702062	164.831704
43956	9.712682	0.158756	-0.766556	-0.025177	0.011961	-0.010810	165.042047	-85.706669	164.889057
43957	9.769887	0.121517	-0.730598	-0.014044	0.006603	-0.008156	165.010757	-85.708372	164.913718
43958	9.753922	0.166685	-0.757094	-0.008474	0.010564	-0.004902	164.995941	-85.713076	164.924752
43959	9.703810	0.254672	-0.867762	-0.005593	0.009550	-0.003130	165.000372	-85.717166	164.917905
43960	9.722028	0.256294	-0.809798	0.000863	0.010821	-0.001910	165.012503	-85.722456	164.907281
43961	9.754183	0.194319	-0.775265	0.004908	0.018167	0.002180	165.045252	-85.732091	164.878152
43962	9.768302	0.184460	-0.840141	0.003494	0.025077	0.006952	165.096626	-85.746580	164.829688
43963	9.763685	0.233989	-0.774246	0.022941	0.032649	0.010824	165.176243	-85.765515	164.764784
43964	9.740925	0.228098	-0.721783	0.029365	0.034148	0.008316	165.235585	-85.785220	164.723196
43965	9.723055	0.171746	-0.732187	0.022377	0.037094	0.009829	165.299885	-85.806439	164.673149
43966	9.741429	0.198991	-0.693305	0.016554	0.035126	0.009805	165.362224	-85.826895	164.621199
43967	9.741685	0.198011	-0.689985	-0.003062	0.033311	0.009360	165.416927	-85.845957	164.566349
43968	9.723787	0.141998	-0.700470	-0.006579	0.035016	0.006383	165.441019	-85.865854	164.539459
43969	9.714980	0.127515	-0.715105	-0.016712	0.027937	0.001767	165.440591	-85.880839	164.531285
43970	9.688216	0.111834	-0.786762	-0.006607	0.035242	0.002654	165.435702	-85.900323	164.533436
43971	9.713582	0.135359	-0.781658	-0.000342	0.029224	-0.000258	165.426925	-85.915723	164.543768
43972	9.740790	0.150927	-0.703587	0.003391	0.039018	-0.000393	165.396247	-85.936860	164.577517
43973	9.764251	0.155454	-0.749105	0.007534	0.036611	0.003788	165.408158	-85.956942	164.571296
43974	9.727249	0.186825	-0.650752	0.017257	0.042613	0.000248	165.382655	-85.980165	164.607819
43975	9.759628	0.178562	-0.656447	0.010542	0.043334	0.002245	165.370286	-86.003732	164.627449
43976	9.753063	0.236887	-0.661983	0.006686	0.043274	0.002291	165.352986	-86.027615	164.649676
43977	9.714112	0.249495	-0.614288	-0.009277	0.047498	0.001473	165.313383	-86.053374	164.684405
43978	9.737526	0.227233	-0.637480	-0.032188	0.041181	0.002028	165.275434	-86.076057	164.705002
43979	9.750172	0.172211	-0.730063	-0.039990	0.037541	-0.001823	165.212093	-86.095820	164.746610
43980	9.756949	0.059941	-0.673112	-0.026667	0.045351	0.001572	165.163768	-86.120744	164.780778
43981	9.731960	0.009478	-0.649193	-0.001335	0.045595	-0.001826	165.104138	-86.144963	164.841090
43982	9.702234	0.090252	-0.627117	0.017852	0.041883	0.001495	165.087265	-86.167951	164.869297
43983	9.706094	0.154619	-0.542442	0.031566	0.037973	0.001751	165.091293	-86.188483	164.883665
43984	9.717127	0.214027	-0.491565	0.034091	0.035191	0.006562	165.140578	-86.208513	164.854891
43985	9.727903	0.246241	-0.419293	0.027015	0.034382	0.007841	165.201845	-86.227971	164.810540
43986	9.746349	0.327630	-0.424221	-0.005625	0.022312	0.008147	165.271210	-86.241092	164.738839
43987	9.769909	0.331782	-0.471447	-0.043659	0.013799	0.005581	165.319346	-86.248780	164.666129
43988	9.732715	0.255938	-0.591841	-0.071734	0.022062	0.007576	165.347284	-86.261672	164.597988
43989	9.702356	0.121476	-0.702397	-0.070207	0.018437	0.010479	165.411628	-86.272672	164.494120
43990	9.709264	0.062240	-0.690975	-0.050678	0.016483	0.010796	165.492246	-86.282924	164.385278
43991	9.670209	0.100828	-0.667836	-0.024051	0.014870	0.017301	165.650503	-86.292875	164.213417
43992	9.720277	0.119396	-0.640651	-0.008083	0.010647	0.018152	165.832724	-86.300888	164.027217
43993	9.697129	0.139788	-0.612222	-0.001710	0.008160	0.019197	166.036256	-86.307301	163.822670
43994	9.724230	0.207129	-0.579584	-0.005912	0.006337	0.022256	166.265854	-86.313393	163.590245
43995	9.685170	0.244648	-0.557309	-0.003318	0.007543	0.023546	166.509526	-86.319953	163.345698
43996	9.726022	0.221454	-0.526907	-0.022589	0.007267	0.023720	166.741949	-86.326633	163.100870
43997	9.699350	0.176806	-0.579744	-0.037727	0.004583	0.028085	167.013087	-86.332003	162.809265
43998	9.675880	0.169648	-0.530397	-0.047136	0.000582	0.024830	167.256030	-86.334952	162.539806
43999	9.644109	0.202531	-0.542209	-0.059415	-0.002885	0.027249	167.523146	-86.335869	162.239437
44000	9.724646	0.193349	-0.577361	-0.070993	-0.003304	0.031083	167.815156	-86.337246	161.907114
44001	9.731626	0.159100	-0.589827	-0.070813	-0.009293	0.031361	168.124055	-86.334855	161.558355
44002	9.714086	0.155399	-0.647711	-0.055044	-0.007562	0.031931	168.440369	-86.333715	161.210834
44003	9.722667	0.139753	-0.609276	-0.066083	-0.011939	0.029289	168.736884	-86.329394	160.876841
44004	9.729203	0.078360	-0.600977	-0.076689	-0.011541	0.035035	169.073994	-86.326117	160.496051
44005	9.760920	0.040435	-0.590186	-0.084982	-0.006971	0.030395	169.361146	-86.324469	160.162510
44006	9.733243	-0.058176	-0.601825	-0.079529	-0.006559	0.029741	169.641153	-86.323193	159.837309
44007	9.731095	-0.106073	-0.632697	-0.072539	-0.009515	0.028247	169.918450	-86.319725	159.519206
44008	9.699677	-0.045816	-0.666451	-0.056750	-0.007525	0.025087	170.171500	-86.317244	159.234095
44009	9.694456	0.002134	-0.603751	-0.050379	-0.009770	0.022390	170.410438	-86.312877	158.968202
44010	9.662700	0.035640	-0.616053	-0.043564	-0.006738	0.020633	170.629980	-86.310269	158.724236
44011	9.695152	0.053143	-0.647870	-0.056510	-0.009259	0.018114	170.825545	-86.305648	158.496773
44012	9.704510	0.092863	-0.651847	-0.054818	-0.005139	0.017725	171.010184	-86.303574	158.281319
44013	9.693745	0.059440	-0.721668	-0.057076	-0.004825	0.017143	171.191162	-86.301266	158.069620
44014	9.733062	0.046012	-0.765326	-0.056100	-0.003488	0.011598	171.318744	-86.299512	157.910605
44015	9.724585	-0.032010	-0.668271	-0.053417	0.001718	0.009396	171.424896	-86.300201	157.776451
44016	9.688581	-0.088006	-0.739956	-0.049200	0.003291	0.010075	171.534109	-86.302118	157.639807
44017	9.745944	-0.073321	-0.747027	-0.023119	0.002871	0.007908	171.642658	-86.303330	157.520099
44018	9.722886	-0.052119	-0.718810	-0.004683	0.005823	0.009777	171.771776	-86.306622	157.389068
44019	9.749950	-0.011332	-0.664137	0.008268	0.008869	0.004841	171.864574	-86.310918	157.303185
44020	9.726928	0.010081	-0.635402	0.004758	0.010334	0.005592	171.957105	-86.316402	157.214238
44021	9.720597	0.068333	-0.643271	0.002508	0.010657	0.005011	172.046383	-86.321679	157.128079
44022	9.761770	0.073632	-0.633913	-0.002262	0.013531	0.003366	172.111822	-86.328785	157.062252
44023	9.736592	0.049821	-0.635137	0.000617	0.012502	0.005146	172.199600	-86.335103	156.976575
44024	9.718676	0.021822	-0.669909	-0.008738	0.012274	0.002103	172.252166	-86.341386	156.919929
44025	9.711930	0.053004	-0.656426	-0.001004	0.012121	0.005763	172.344376	-86.347560	156.827633
44026	9.695764	0.043000	-0.639400	0.005286	0.019617	0.003049	172.405128	-86.358076	156.770837
44027	9.761333	0.017318	-0.584463	0.002679	0.018418	0.001751	172.457435	-86.367518	156.721742
44028	9.736179	-0.006290	-0.585109	-0.000833	0.019882	0.002500	172.510082	-86.378137	156.669556
44029	9.734622	-0.024610	-0.634424	0.006358	0.024447	0.001469	172.555326	-86.390958	156.628955
44030	9.711656	-0.002778	-0.604244	0.013462	0.025262	0.000205	172.589739	-86.404458	156.603247
44031	9.721964	0.001831	-0.511220	0.015351	0.023414	0.000072	172.629317	-86.416594	156.573618
44032	9.711455	-0.030118	-0.578570	-0.000835	0.020144	-0.001232	172.648910	-86.427079	156.554552
44033	9.743208	-0.065285	-0.564991	0.003749	0.023509	-0.003561	172.648994	-86.439021	156.558065
44034	9.743815	-0.037671	-0.584147	0.007174	0.018295	-0.004541	172.645247	-86.448212	156.566982
44035	9.728597	0.007894	-0.609335	0.016176	0.017531	-0.009662	172.603476	-86.456300	156.619079
44036	9.721839	0.039929	-0.595469	0.023541	0.015589	-0.002981	172.626534	-86.464068	156.610536
44037	9.717659	0.144083	-0.572584	0.030993	0.017658	0.000204	172.683754	-86.472971	156.572182
44038	9.729776	0.257598	-0.565335	0.019937	0.013039	0.001261	172.747171	-86.479597	156.521134
44039	9.731940	0.302613	-0.533906	-0.001021	0.012117	0.005753	172.844408	-86.485716	156.424024
44040	9.764664	0.321046	-0.563417	-0.017040	0.016079	0.008631	172.951984	-86.494582	156.307509
44041	9.663715	0.226607	-0.572456	-0.038523	0.006141	0.011940	173.092341	-86.497737	156.145885
44042	9.686442	0.176349	-0.578237	-0.041411	0.006899	0.013884	173.246045	-86.501705	155.969167
44043	9.717060	0.085296	-0.523750	-0.050500	0.004177	0.015039	173.410859	-86.503898	155.776041
44044	9.730784	0.021073	-0.548037	-0.048971	0.000804	0.014191	173.570152	-86.504356	155.589385
44045	9.689187	-0.013050	-0.535239	-0.042589	-0.001695	0.015229	173.747752	-86.503154	155.388208
44046	9.673374	0.003413	-0.541308	-0.034940	-0.005332	0.014936	173.928116	-86.500093	155.188496
44047	9.682291	0.016114	-0.523967	-0.032771	-0.009135	0.011556	174.084006	-86.494362	155.014750
44048	9.664319	-0.012476	-0.561056	-0.030254	-0.011688	0.012622	174.250676	-86.487474	154.831445
44049	9.699039	0.050961	-0.562630	-0.032507	-0.011367	0.012037	174.412200	-86.480439	154.652320
44050	9.658417	0.071601	-0.593567	-0.033675	-0.019949	0.013373	174.589722	-86.468815	154.456174
44051	9.683066	0.066564	-0.571737	-0.041423	-0.020068	0.013432	174.764871	-86.456818	154.258354
44052	9.748788	0.067240	-0.541884	-0.068979	-0.025743	0.012683	174.918116	-86.441781	154.066261
44053	9.773665	-0.104621	-0.624384	-0.082501	-0.023813	0.009181	175.030872	-86.427385	153.907089
44054	9.744423	-0.255566	-0.596737	-0.068284	-0.022182	0.006663	175.124250	-86.414036	153.775372
44055	9.751592	-0.259716	-0.632567	-0.047655	-0.022757	0.001444	175.184195	-86.399846	153.689441
44056	9.741929	-0.300666	-0.631880	-0.021167	-0.021641	0.000026	175.242530	-86.386469	153.619882
44057	9.733309	-0.287009	-0.673034	0.008565	-0.020032	0.001104	175.328669	-86.373803	153.539774
44058	9.744957	-0.200656	-0.646845	0.032359	-0.010105	-0.005336	175.360023	-86.366754	153.527980
44059	9.742165	-0.272841	-0.657335	0.050377	-0.012147	-0.008137	175.380710	-86.358174	153.537430
44060	9.752635	-0.176686	-0.703361	0.077840	-0.010228	-0.007648	175.417334	-86.350948	153.546465
44061	9.748025	-0.099788	-0.661208	0.100782	-0.007674	-0.008325	175.462168	-86.344905	153.560538
44062	9.779467	0.032524	-0.546638	0.112819	-0.001716	-0.014924	175.447671	-86.342211	153.640882
44063	9.779960	0.060683	-0.567719	0.095501	0.003624	-0.014417	175.427184	-86.342339	153.717397
44064	9.762437	0.061220	-0.624899	0.084051	-0.002539	-0.014072	175.404488	-86.339210	153.789441
44065	9.747128	0.106837	-0.651630	0.091665	0.007004	-0.010424	175.414904	-86.341445	153.832402
44066	9.695628	0.264498	-0.646888	0.081027	0.007639	-0.008410	175.433746	-86.344389	153.861086
44067	9.666197	0.345888	-0.628047	0.055668	-0.001827	-0.012501	175.411308	-86.341512	153.917088
44068	9.732536	0.375549	-0.617534	0.017085	0.000855	-0.004479	175.433488	-86.340761	153.905717
44069	9.720879	0.289367	-0.644268	-0.018609	0.003042	-0.002134	175.457239	-86.341123	153.872352
44070	9.685649	0.197874	-0.622075	-0.020948	-0.000646	0.000783	175.505660	-86.339752	153.812850
44071	9.714592	0.089864	-0.619719	-0.020678	-0.002873	0.001267	175.562599	-86.336879	153.745117
44072	9.693158	0.129988	-0.541226	-0.023462	-0.011833	0.003236	175.638959	-86.329217	153.656174
44073	9.669980	0.151855	-0.515048	-0.025616	-0.021233	0.002675	175.717545	-86.315901	153.563907
44074	9.710965	0.157281	-0.508945	-0.037582	-0.023187	0.005790	175.814955	-86.301842	153.445762
44075	9.718119	0.152688	-0.544705	-0.066640	-0.025479	0.005932	175.899753	-86.286234	153.323530
44076	9.723465	0.130326	-0.632429	-0.089414	-0.033762	0.003142	175.949192	-86.266003	153.223692
44077	9.697955	0.107382	-0.638229	-0.102400	-0.036296	0.000617	175.972068	-86.244000	153.143442
44078	9.712184	0.008442	-0.572695	-0.115039	-0.037317	-0.001190	175.969996	-86.221558	153.080509
44079	9.707460	-0.081312	-0.637201	-0.107337	-0.037236	-0.001264	175.973533	-86.198935	153.016932
44080	9.686018	-0.040774	-0.561600	-0.103592	-0.040960	-0.001544	175.976400	-86.174396	152.955618
44081	9.685777	-0.039917	-0.565810	-0.099215	-0.045111	-0.004358	175.961894	-86.147143	152.914064
44082	9.734620	0.017484	-0.637978	-0.101688	-0.052321	-0.005428	175.939105	-86.115955	152.879556
44083	9.720744	0.081923	-0.618133	-0.124458	-0.056635	-0.011697	175.855698	-86.081809	152.892731
44084	9.794326	0.136236	-0.667276	-0.146795	-0.056266	-0.009536	175.775814	-86.048201	152.889543
44085	9.753319	0.020923	-0.827290	-0.161035	-0.054267	-0.006730	175.712246	-86.015642	152.862049
44086	9.744092	-0.249712	-0.820396	-0.123102	-0.046957	-0.008567	175.649189	-85.987395	152.855601
44087	9.715788	-0.344040	-0.837341	-0.060097	-0.035334	-0.007305	175.627324	-85.965634	152.843926
44088	9.757012	-0.310017	-0.853395	-0.004646	-0.029800	-0.005752	175.644552	-85.947311	152.825032
44089	9.746661	-0.119035	-0.862143	0.022621	-0.025267	-0.009535	175.646517	-85.931189	152.837461
44090	9.783521	-0.009077	-0.833985	0.032555	-0.029497	-0.005585	175.685919	-85.913047	152.817706
44091	9.751615	0.026974	-0.846966	0.039321	-0.016388	-0.011015	175.680265	-85.901911	152.846975
44092	9.721519	0.053044	-0.786677	0.048443	-0.013922	-0.008467	175.696239	-85.892542	152.859833
44093	9.723479	0.070965	-0.736317	0.044919	-0.012476	-0.007697	175.717945	-85.883791	152.865152
44094	9.766299	0.066747	-0.657108	0.047815	-0.013803	-0.002205	175.783071	-85.874757	152.828370
44095	9.766508	0.094177	-0.679295	0.030394	-0.012238	-0.001865	175.842707	-85.866381	152.787936
44096	9.707312	0.088809	-0.745678	0.025781	-0.015354	-0.003263	175.887328	-85.856412	152.759054
44097	9.761827	0.031827	-0.764566	0.011882	-0.015238	-0.003692	175.922371	-85.846272	152.731727
44098	9.731955	-0.053884	-0.850830	0.026495	-0.012026	-0.005547	175.947289	-85.838109	152.723009
44099	9.697479	-0.090856	-0.872227	0.038333	-0.004601	-0.001459	176.009755	-85.834087	152.684016
44100	9.708667	-0.059748	-0.803059	0.062491	-0.006861	-0.003816	176.065842	-85.828944	152.664725
44101	9.710737	-0.042188	-0.751915	0.077086	-0.003664	-0.005675	176.116572	-85.825296	152.659486
44102	9.731637	0.057800	-0.706396	0.070666	-0.001191	-0.006670	176.151842	-85.823281	152.665763
44103	9.725142	0.116847	-0.715081	0.047665	-0.003827	-0.005904	176.184191	-85.819539	152.662601
44104	9.737148	0.230796	-0.709026	0.019177	-0.006905	-0.004467	176.210133	-85.814342	152.648652
44105	9.734171	0.131446	-0.698277	-0.008603	-0.006373	-0.009044	176.186470	-85.809041	152.668847
44106	9.722352	0.046145	-0.726392	-0.012749	-0.004207	-0.009468	176.153711	-85.805196	152.695416
44107	9.735564	-0.043153	-0.730948	-0.004997	-0.004077	-0.009567	176.126771	-85.801193	152.720838
44108	9.694402	-0.047909	-0.739096	-0.002647	-0.000642	-0.008748	176.103615	-85.799411	152.743581
44109	9.711275	0.044944	-0.818001	0.004280	-0.007314	-0.010534	176.076374	-85.793493	152.774228
44110	9.761498	0.065247	-0.792634	0.008886	-0.004200	-0.009144	176.058720	-85.789661	152.798080
44111	9.745113	0.028970	-0.756053	-0.000569	0.005023	-0.008402	176.038620	-85.790876	152.818631
44112	9.749323	-0.073942	-0.777637	0.009775	0.006918	-0.014666	175.972601	-85.793177	152.891490
44113	9.724147	-0.096235	-0.779238	0.021509	0.010593	-0.010839	175.943214	-85.797480	152.934297
44114	9.731497	0.067546	-0.707453	0.034753	0.011178	-0.011608	175.912760	-85.802332	152.985845
44115	9.724297	0.045010	-0.651890	0.020519	0.009494	-0.009025	175.897453	-85.806092	153.014250
44116	9.756654	0.065313	-0.681706	0.009064	0.017082	-0.012116	175.844801	-85.814293	153.073296
44117	9.697179	0.005789	-0.702899	0.013301	0.018671	-0.011445	175.801016	-85.823197	153.126119
44118	9.672307	0.010627	-0.724667	0.009075	0.016802	-0.008388	175.777326	-85.831389	153.156132
44119	9.711755	0.026706	-0.787759	0.012585	0.015343	-0.009156	175.752722	-85.838461	153.188774
44120	9.803231	0.052749	-0.752365	0.004834	0.015209	-0.009060	175.722045	-85.845712	153.223355
44121	9.737196	0.051874	-0.782663	0.007891	0.008472	-0.010791	175.685622	-85.848808	153.265483
44122	9.730230	0.057039	-0.747836	0.012295	0.017847	-0.013358	175.623537	-85.857377	153.335840
44123	9.713956	0.020992	-0.709629	0.018072	0.015793	-0.009822	175.596013	-85.864679	153.374760
44124	9.723162	0.035244	-0.689806	0.023406	0.021680	-0.003265	175.617435	-85.875876	153.367772
44125	9.732378	0.049300	-0.669723	0.020152	0.021179	-0.005752	175.619798	-85.886439	153.377725
44126	9.709525	0.071536	-0.639633	0.017895	0.021496	-0.006327	175.613882	-85.897397	153.394981
44127	9.725555	0.054421	-0.632114	0.005912	0.019770	-0.006910	175.600256	-85.907113	153.414089
44128	9.694108	0.117750	-0.662620	0.000603	0.013332	-0.006011	175.591847	-85.913421	153.423912
44129	9.669463	0.149626	-0.706307	-0.012812	0.005237	-0.005742	175.584842	-85.914902	153.424397
44130	9.735309	0.124884	-0.653128	-0.019575	0.006194	-0.007468	175.557588	-85.917067	153.441522
44131	9.701066	0.088123	-0.673253	-0.026755	0.001050	0.001030	175.599672	-85.916411	153.384409
44132	9.716992	0.070739	-0.667378	-0.023441	0.005850	-0.003694	175.600625	-85.918546	153.371034
44133	9.707464	0.002544	-0.642759	-0.019557	0.005642	-0.000010	175.635933	-85.920482	153.325655
44134	9.702830	0.079276	-0.599266	-0.015410	0.003480	0.000421	175.675938	-85.921440	153.277742
44135	9.702839	0.079387	-0.599108	-0.034872	-0.000618	0.000396	175.709142	-85.919829	153.225193
44136	9.733470	0.108533	-0.703008	-0.053071	-0.006133	0.002760	175.752020	-85.915390	153.152767
44137	9.731251	0.063428	-0.733906	-0.062003	-0.001392	0.004434	175.802680	-85.913499	153.067737
44138	9.720013	0.004621	-0.782430	-0.049311	0.003658	0.002736	175.841633	-85.914645	153.001406
44139	9.726890	-0.026651	-0.794700	-0.036426	0.002730	0.001263	175.879425	-85.914973	152.944627
44140	9.710736	-0.036490	-0.779083	-0.026134	0.000040	0.005951	175.959483	-85.914175	152.850398
44141	9.710726	-0.036914	-0.779189	-0.018107	-0.002050	0.006335	176.050639	-85.911954	152.749718
44142	9.754054	0.013480	-0.740371	-0.012794	0.004393	0.005450	176.131882	-85.913604	152.661965
44143	9.721213	-0.061382	-0.667119	-0.016038	0.003614	0.006688	176.223790	-85.914592	152.560895
44144	9.725872	-0.138437	-0.710037	-0.002783	0.004216	0.005937	176.314891	-85.916140	152.469010
44145	9.710548	-0.066363	-0.756952	-0.001161	0.004605	0.005319	176.404304	-85.917659	152.380299
44146	9.680732	-0.013694	-0.715702	0.010824	0.006621	0.002182	176.472049	-85.920429	152.319645
44147	9.722158	0.019239	-0.728146	-0.000898	0.002656	0.002062	176.536665	-85.920691	152.255700
44148	9.729603	0.042765	-0.782062	-0.003350	0.009239	-0.002462	176.557889	-85.924791	152.233543
44149	9.747482	0.042756	-0.724195	0.000811	0.006798	0.001694	176.618558	-85.927413	152.174696
44150	9.722330	0.019113	-0.725849	0.006760	0.012533	0.002005	176.680081	-85.933543	152.117945
44151	9.708150	0.026746	-0.657636	0.014789	0.010443	0.002391	176.752897	-85.938257	152.054775
44152	9.716960	0.012804	-0.617833	0.005948	0.005734	0.000311	176.803705	-85.940434	152.008301
44153	9.740326	0.018550	-0.666083	0.005401	0.010194	-0.000633	176.847042	-85.944891	151.968866
44154	9.683391	0.030521	-0.678658	0.007657	0.009875	-0.000057	176.894166	-85.949420	151.927067
44155	9.676020	0.007048	-0.623217	-0.007854	0.009594	0.000111	176.936750	-85.953551	151.881433
44156	9.692256	0.016952	-0.637873	-0.009211	0.007256	-0.002526	176.955531	-85.956502	151.858360
44157	9.707896	-0.027852	-0.610730	-0.015346	0.007503	-0.003061	176.968564	-85.959357	151.837209
44158	9.689861	-0.054735	-0.646390	-0.020308	0.002865	-0.005185	176.961377	-85.959715	151.833795
44159	9.728794	-0.093658	-0.668998	-0.010735	-0.002868	-0.001937	176.990477	-85.956678	151.799002
44160	9.696996	-0.057904	-0.680231	0.005404	-0.003010	-0.004638	177.004941	-85.953691	151.788652
44161	9.722485	-0.006648	-0.698857	0.011539	-0.003257	-0.004104	177.029700	-85.950363	151.771413
44162	9.717750	0.070287	-0.656290	0.014247	-0.011506	-0.006562	177.037198	-85.942458	151.773125
44163	9.692163	0.019915	-0.639206	0.005142	-0.014268	-0.005389	177.052989	-85.932781	151.762028
44164	9.717027	0.016535	-0.616685	0.003685	-0.006872	-0.007998	177.040948	-85.927485	151.777261
44165	9.710178	-0.145407	-0.688480	0.001067	-0.008077	-0.009296	177.019754	-85.921243	151.799623
44166	9.709852	-0.171902	-0.668504	0.019372	-0.012289	-0.011675	176.989608	-85.912736	151.842019
44167	9.716926	-0.174864	-0.703144	0.038121	-0.011228	-0.013083	176.961388	-85.904602	151.894106
44168	9.703381	-0.083727	-0.700109	0.050655	-0.013957	-0.011546	176.951179	-85.895142	151.934485
44169	9.730914	0.013309	-0.689284	0.051895	-0.014821	-0.016614	176.905205	-85.884808	152.012484
44170	9.730812	0.014697	-0.690693	0.037368	-0.014016	-0.018252	176.834539	-85.875100	152.105845
44171	9.732897	0.061388	-0.661130	0.029785	-0.006655	-0.017672	176.763833	-85.869418	152.195055
44172	9.746367	-0.027145	-0.666010	0.029683	-0.010136	-0.021646	176.660839	-85.861799	152.316414
44173	9.696611	0.009947	-0.734984	0.031659	-0.008228	-0.021546	176.562487	-85.855056	152.435344
44174	9.728609	0.004007	-0.745978	0.037684	-0.011959	-0.024988	176.439437	-85.846246	152.581412
44175	9.664376	0.021742	-0.727001	0.040668	-0.009505	-0.019246	176.364983	-85.838848	152.680500
44176	9.714653	0.070447	-0.722822	0.033622	-0.006330	-0.021447	176.265473	-85.833352	152.800634
44177	9.737412	0.023237	-0.730896	0.022105	-0.016285	-0.021320	176.167792	-85.821999	152.911850
44178	9.778235	0.003492	-0.703154	0.025798	-0.010504	-0.017872	176.094716	-85.814228	153.000987
44179	9.753011	-0.018509	-0.706527	0.039389	-0.008381	-0.017911	176.030210	-85.807454	153.087712
44180	9.737319	0.055108	-0.755290	0.056059	-0.013265	-0.015945	175.991523	-85.798168	153.159755
44181	9.691284	0.126930	-0.721639	0.051917	-0.011384	-0.012649	175.977773	-85.789900	153.204375
44182	9.691324	0.155071	-0.744163	0.035363	-0.016518	-0.010885	175.968636	-85.778954	153.234899
44183	9.727949	0.043877	-0.777412	0.025725	-0.014820	-0.010650	175.957474	-85.768788	153.261672
44184	9.734486	-0.041434	-0.748857	0.026443	-0.011770	-0.009216	175.953703	-85.760623	153.281691
44185	9.732172	-0.113337	-0.759097	0.026164	-0.009543	-0.009696	175.947412	-85.753487	153.303241
44186	9.723211	-0.099252	-0.799086	0.043890	-0.009582	-0.009312	175.951794	-85.746569	153.325109
44187	9.716331	-0.039891	-0.808813	0.049008	-0.010659	-0.010697	175.951229	-85.738784	153.353919
44188	9.668226	-0.013532	-0.805056	0.058139	-0.003894	-0.015390	175.914170	-85.734868	153.425530
44189	9.702489	0.052266	-0.806246	0.055600	-0.001358	-0.016445	175.868026	-85.732187	153.503806
44190	9.722735	0.154050	-0.761362	0.046306	0.002127	-0.019223	175.791651	-85.731543	153.608044
44191	9.747737	0.152144	-0.737608	0.025056	0.003880	-0.022572	175.678459	-85.731563	153.736186
44192	9.740455	0.103916	-0.661246	0.016066	0.004882	-0.021140	175.568502	-85.732381	153.856725
44193	9.722420	0.078242	-0.696693	0.002472	0.003017	-0.024817	175.426273	-85.731756	154.001808
44194	9.713315	0.038936	-0.693102	0.011877	0.002768	-0.014347	175.367162	-85.731644	154.068952
44195	9.695319	0.012433	-0.728439	0.011319	0.007223	-0.015313	175.300099	-85.733830	154.143589
44196	9.704274	0.000629	-0.688817	0.017972	0.002778	-0.017549	175.219935	-85.733560	154.235347
44197	9.691194	-0.129703	-0.745501	0.022174	0.004630	-0.020613	175.120607	-85.733995	154.349535
44198	9.684162	-0.123561	-0.711629	0.036913	0.001852	-0.022230	175.016109	-85.732943	154.476578
44199	9.691297	-0.125968	-0.744803	0.044357	0.004215	-0.022809	174.912785	-85.733020	154.607463
44200	9.709479	-0.041733	-0.751140	0.057196	0.003274	-0.024287	174.803268	-85.732640	154.751191
44201	9.695466	0.023240	-0.726212	0.070106	0.006085	-0.025537	174.692471	-85.733604	154.904110
44202	9.745634	0.072739	-0.721149	0.056231	0.006427	-0.029700	174.538712	-85.734686	155.091649
44203	9.697560	0.127877	-0.737754	0.047781	0.003218	-0.031028	174.374149	-85.733632	155.283022
44204	9.706559	0.171774	-0.740960	0.033938	0.003313	-0.031462	174.196495	-85.732758	155.481715
44205	9.729652	0.125543	-0.746986	0.030147	0.006994	-0.031192	174.018028	-85.733821	155.679469
44206	9.656420	0.075831	-0.701572	0.025642	0.007615	-0.032343	173.825409	-85.735250	155.888401
44207	9.697481	0.030715	-0.650337	0.023669	0.005697	-0.032431	173.634497	-85.735349	156.093049
44208	9.690392	0.038052	-0.616328	0.024303	0.004997	-0.031232	173.451693	-85.735257	156.291369
44209	9.681460	0.081028	-0.676594	0.015891	0.001544	-0.028829	173.288217	-85.733126	156.464937
44210	9.722492	0.117074	-0.690216	0.008378	-0.004585	-0.028467	173.126294	-85.727682	156.633169
44211	9.711679	0.060341	-0.738384	-0.005121	-0.002721	-0.031923	172.931801	-85.722828	156.825536
44212	9.677718	0.025438	-0.758604	0.006835	-0.001215	-0.027624	172.773014	-85.719283	156.989740
44213	9.670686	-0.048812	-0.660909	0.032285	0.002913	-0.030839	172.602469	-85.717695	157.180108
44214	9.672477	-0.000456	-0.630864	0.034458	-0.001159	-0.030484	172.438245	-85.713898	157.365635
44215	9.738354	0.113635	-0.685205	0.023161	-0.003612	-0.029853	172.277379	-85.708604	157.541747
44216	9.714897	0.219736	-0.722143	-0.006812	-0.006892	-0.031518	172.088408	-85.701390	157.728382
44217	9.745110	0.196562	-0.784183	-0.023574	-0.009806	-0.030216	171.905066	-85.692434	157.898103
44218	9.734379	0.140126	-0.832328	-0.028868	0.001239	-0.032617	171.687619	-85.689647	158.100625
44219	9.763150	0.017296	-0.880799	-0.010258	-0.001683	-0.030542	171.500509	-85.685187	158.280195
44220	9.732899	0.019191	-0.797844	0.011163	0.007895	-0.026521	171.344720	-85.686593	158.443886
44221	9.716940	0.011938	-0.781288	0.034026	0.010585	-0.027294	171.194492	-85.689294	158.614149
44222	9.720340	0.105421	-0.720447	0.056203	0.009969	-0.025755	171.067568	-85.691880	158.774772
44223	9.729171	0.148655	-0.723089	0.049471	0.010643	-0.023753	170.953711	-85.694821	158.917746
44224	9.691551	0.208487	-0.648756	0.028281	0.012086	-0.023387	170.825657	-85.698767	159.063456
44225	9.666554	0.213768	-0.671374	0.008314	0.008391	-0.020841	170.711066	-85.700744	159.184407
44226	9.673941	0.157396	-0.661276	-0.011355	0.006698	-0.025048	170.554114	-85.701441	159.336323
44227	9.686641	0.105392	-0.757646	-0.022993	0.002701	-0.025127	170.396319	-85.699690	159.480441
44228	9.645843	0.047546	-0.722656	-0.034020	-0.001756	-0.027737	170.217110	-85.695289	159.641654
44229	9.740882	-0.045091	-0.761290	-0.019039	-0.006491	-0.032580	170.018446	-85.687567	159.830086
44230	9.785946	-0.130787	-0.847039	-0.019301	-0.000279	-0.036582	169.780455	-85.683024	160.058707
44231	9.794852	-0.112923	-0.829162	0.008667	0.001373	-0.038727	169.542219	-85.678934	160.300410
44232	9.749789	-0.019887	-0.743258	0.037013	0.008551	-0.043676	169.272188	-85.678469	160.593523
44233	9.685117	0.053514	-0.765612	0.036943	0.004785	-0.043894	169.008260	-85.675637	160.880353
44234	9.679252	0.134572	-0.723156	0.052712	0.006645	-0.043370	168.752614	-85.673931	161.168060
44235	9.739358	0.219095	-0.649171	0.040486	0.007070	-0.044432	168.483215	-85.672105	161.460705
44236	9.706913	0.257737	-0.659920	0.016786	0.010769	-0.041411	168.215582	-85.672739	161.739792
44237	9.706414	0.315865	-0.702067	-0.006762	0.004960	-0.042061	167.941203	-85.669731	162.009047
44238	9.719747	0.211249	-0.755624	-0.026715	0.001225	-0.039518	167.678136	-85.665050	162.258562
44239	9.734775	0.125263	-0.758008	-0.036335	0.002878	-0.039297	167.411507	-85.661120	162.506898
44240	9.741094	0.025084	-0.778106	-0.032137	0.004494	-0.038634	167.147437	-85.658205	162.754306
44241	9.739281	0.037655	-0.850186	-0.010588	0.008623	-0.041796	166.866621	-85.656998	163.029459
44242	9.723908	-0.022147	-0.790818	0.002583	0.009278	-0.042554	166.585931	-85.656053	163.313485
44243	9.723734	0.009038	-0.811048	0.036048	0.015224	-0.045141	166.296675	-85.657812	163.623313
44244	9.686935	0.116060	-0.706547	0.058251	0.014459	-0.039857	166.058290	-85.659913	163.896899
44245	9.714180	0.235035	-0.643448	0.053386	0.013505	-0.041721	165.806789	-85.661028	164.180493
44246	9.690063	0.314320	-0.657676	0.031225	0.009811	-0.036032	165.589221	-85.660916	164.417673
44247	9.715916	0.387332	-0.624840	-0.004085	0.009435	-0.033105	165.375539	-85.660820	164.629854
44248	9.738163	0.323436	-0.681457	-0.042377	0.006500	-0.035904	165.123176	-85.658752	164.859637
44249	9.751428	0.272710	-0.777076	-0.048401	0.014205	-0.036009	164.852990	-85.660746	165.102838
44250	9.749493	0.157979	-0.813872	-0.057692	0.013388	-0.031570	164.609875	-85.662982	165.314544
44251	9.732499	0.105713	-0.826440	-0.028673	0.019513	-0.027837	164.399213	-85.668955	165.507711
44252	9.715206	0.080103	-0.860431	0.007896	0.014802	-0.028569	164.212003	-85.672317	165.701038
44253	9.709131	0.133186	-0.795645	0.045389	0.015375	-0.038364	163.975000	-85.674293	165.965175
44254	9.744299	0.166595	-0.701445	0.056907	0.015881	-0.042222	163.713693	-85.675956	166.260971
44255	9.770028	0.239780	-0.667811	0.054758	0.019471	-0.035125	163.496708	-85.680520	166.510385
44256	9.737441	0.277076	-0.677634	0.035854	0.020284	-0.030479	163.298480	-85.686348	166.730821
44257	9.729445	0.338262	-0.685502	0.010124	0.014467	-0.028002	163.117930	-85.689200	166.917732
44258	9.704852	0.316785	-0.686135	0.000848	0.017630	-0.027085	162.929301	-85.694033	167.108426
44259	9.712183	0.314856	-0.718068	-0.014573	0.013254	-0.023405	162.770306	-85.696937	167.260230
44260	9.734909	0.249615	-0.774121	-0.009691	0.013987	-0.017806	162.650705	-85.701279	167.375644
44261	9.711708	0.245871	-0.723595	0.004465	0.015534	-0.016638	162.546849	-85.706522	167.483467
44262	9.727739	0.257036	-0.737771	0.016713	0.014934	-0.011825	162.483297	-85.712381	167.557844
44263	9.696447	0.310980	-0.696786	0.010643	0.014903	-0.008635	162.442148	-85.718639	167.606018
44264	9.738358	0.364358	-0.657603	0.004231	0.013337	-0.006154	162.416214	-85.724599	167.635498
44265	9.713460	0.367738	-0.680047	-0.000578	0.012162	-0.004293	162.406380	-85.730122	167.646211
44266	9.706569	0.345441	-0.623924	-0.014355	0.011930	-0.001027	162.410483	-85.736200	167.634891
44267	9.705740	0.299748	-0.652614	-0.023974	0.009579	0.002693	162.444653	-85.741510	167.587972
44268	9.690212	0.262838	-0.614587	-0.038135	0.008026	0.001519	162.462972	-85.745894	167.548735
44269	9.713572	0.268206	-0.662992	-0.049056	0.003059	0.006350	162.524785	-85.748265	167.459396
44270	9.704614	0.280558	-0.702043	-0.052919	-0.001024	0.009903	162.617354	-85.749135	167.337211
44271	9.696934	0.311472	-0.689750	-0.061254	0.003197	0.008994	162.691579	-85.752018	167.228740
44272	9.752988	0.282240	-0.726369	-0.069251	0.008951	0.008796	162.743965	-85.758134	167.137466
44273	9.689540	0.215207	-0.641642	-0.064144	0.007901	0.007429	162.794402	-85.763323	167.051607
44274	9.721705	0.107701	-0.637804	-0.072831	0.006602	0.009322	162.854382	-85.768229	166.950662
44275	9.712232	0.047375	-0.684922	-0.062530	0.008045	0.010540	162.928889	-85.773998	166.841267
44276	9.720562	0.088144	-0.687590	-0.053558	0.007106	0.009136	162.997801	-85.779132	166.742440
44277	9.712568	0.146072	-0.696147	-0.039422	0.004909	0.010095	163.089933	-85.783096	166.628943
44278	9.704579	0.203888	-0.704790	-0.041033	0.004509	0.010713	163.184022	-85.787045	166.512067
44279	9.712985	0.117581	-0.673956	-0.053959	0.001802	0.008197	163.260743	-85.788961	166.405158
44280	9.761043	0.020091	-0.686391	-0.046240	0.005992	0.004620	163.303396	-85.792698	166.336867
44281	9.734899	0.004559	-0.760847	-0.031409	0.006868	0.007006	163.373112	-85.797183	166.249831
44282	9.734651	0.031146	-0.781145	0.003734	0.013115	0.007622	163.451265	-85.805311	166.174656
44283	9.703651	0.183266	-0.752485	0.014603	0.010602	0.002357	163.504881	-85.811077	166.130541
44284	9.722206	0.229497	-0.664231	0.007526	0.009702	0.003628	163.563257	-85.816670	166.077376
44285	9.720412	0.265644	-0.757124	-0.018278	0.012037	-0.004688	163.542159	-85.822091	166.089788
44286	9.720809	0.239286	-0.734498	-0.020875	0.014777	-0.009486	163.474361	-85.828340	166.146817
44287	9.721845	0.158838	-0.669072	-0.017969	0.017786	-0.011207	163.391342	-85.835832	166.221180
44288	9.746589	0.057095	-0.631330	-0.022177	0.016143	-0.011886	163.301173	-85.842425	166.299890
44289	9.714060	0.092677	-0.641222	-0.012812	0.016520	-0.008842	163.241100	-85.849593	166.353652
44290	9.705232	0.106928	-0.679064	-0.013223	0.011469	-0.013515	163.153947	-85.853337	166.434480
44291	9.745259	0.196799	-0.733509	-0.016439	0.010674	-0.012282	163.078630	-85.856738	166.501617
44292	9.704956	0.263996	-0.731561	-0.013533	0.013684	-0.014000	162.982211	-85.861598	166.591557
44293	9.737659	0.230784	-0.718754	-0.020582	0.012544	-0.009004	162.924942	-85.866538	166.638020
44294	9.705727	0.211863	-0.686378	-0.019284	0.015157	-0.010105	162.850929	-85.872846	166.702190
44295	9.706117	0.185630	-0.663774	-0.006735	0.012584	-0.008519	162.804810	-85.877903	166.745965
44296	9.698745	0.190364	-0.629209	-0.000274	0.009954	-0.003753	162.801901	-85.882431	166.749766
44297	9.715330	0.273345	-0.634520	-0.010846	0.014219	-0.001511	162.802623	-85.889558	166.743633
44298	9.731418	0.283596	-0.648696	-0.029863	0.011446	-0.000868	162.801221	-85.895392	166.728927
44299	9.689773	0.231705	-0.686112	-0.042793	0.008729	-0.003403	162.782197	-85.899197	166.724457
44300	9.730210	0.166577	-0.686128	-0.041222	0.005373	-0.004251	162.762815	-85.901134	166.721252
44301	9.705994	0.115850	-0.666607	-0.031513	0.011274	-0.003980	162.739961	-85.906245	166.727717
44302	9.698594	0.120387	-0.632231	-0.017041	0.006888	-0.002524	162.744040	-85.909304	166.714882
44303	9.746972	0.123746	-0.656895	-0.009371	0.003602	-0.006549	162.732564	-85.909762	166.722199
44304	9.731768	0.159817	-0.610664	-0.001947	0.006045	-0.007093	162.712323	-85.911583	166.742415
44305	9.731493	0.187856	-0.631130	-0.008382	0.008435	-0.008129	162.677629	-85.914416	166.773255
44306	9.722683	0.202017	-0.669306	-0.006124	0.012136	-0.011041	162.610108	-85.918892	166.838473
44307	9.729886	0.226309	-0.723010	-0.024191	0.006447	-0.008725	162.566347	-85.920538	166.869395
44308	9.706439	0.221390	-0.673183	-0.023203	0.011279	-0.010304	162.496534	-85.924663	166.927100
44309	9.730904	0.146538	-0.657678	-0.024814	0.006889	-0.006195	162.470805	-85.926992	166.940095
44310	9.705019	0.132441	-0.732158	-0.019989	0.008088	-0.008039	162.427803	-85.929759	166.972767
44311	9.738031	0.071381	-0.698850	0.001298	0.006606	-0.004589	162.429887	-85.932224	166.973064
44312	9.738517	0.144372	-0.688831	0.022924	0.010645	-0.003916	162.436878	-85.937101	166.980266
44313	9.731815	0.194171	-0.624221	0.021254	0.006734	-0.007267	162.429593	-85.939160	167.001131
44314	9.714170	0.221021	-0.701949	0.026109	0.007694	-0.005380	162.434319	-85.942171	167.012433
44315	9.714948	0.266782	-0.670769	0.014535	0.011096	-0.005058	162.429126	-85.946993	167.026651
44316	9.690757	0.215809	-0.651325	0.002905	0.007003	-0.005206	162.423557	-85.949657	167.034945
44317	9.698292	0.212255	-0.684112	0.002905	0.007003	-0.005206	162.420720	-85.952197	167.039878
44318	9.706448	0.154188	-0.674527	0.004513	0.007402	-0.005820	162.410336	-85.954972	167.053922
44319	9.755886	0.175678	-0.647402	0.007110	0.008649	-0.004518	162.411527	-85.958557	167.058514
44320	9.699031	0.159074	-0.639559	0.012895	0.006947	-0.004677	162.415878	-85.961281	167.062601
44321	9.715097	0.169689	-0.654241	0.007080	0.008885	-0.008248	162.387108	-85.964348	167.096458
44322	9.715437	0.142999	-0.632419	0.001606	0.004385	-0.004110	162.395656	-85.965772	167.089854
44323	9.730878	0.208084	-0.689640	-0.001612	0.007570	-0.006379	162.380017	-85.968444	167.106121
44324	9.747569	0.164160	-0.661835	-0.006411	0.010118	-0.004304	162.368353	-85.972965	167.115174
44325	9.681910	0.160855	-0.693115	-0.007088	0.007054	-0.005737	162.355930	-85.975493	167.126075
44326	9.746981	0.119955	-0.690618	0.003523	0.006553	-0.007736	162.332076	-85.977471	167.153055
44327	9.714963	0.100560	-0.659101	0.016730	0.007300	-0.008432	162.311685	-85.979648	167.185001
44328	9.706852	0.159657	-0.667413	0.028018	0.005877	-0.005500	162.320875	-85.981645	167.192923
44329	9.716343	0.192326	-0.597384	0.025758	0.006159	-0.006086	162.326097	-85.983596	167.203161
44330	9.723581	0.216267	-0.651572	0.029875	0.004527	-0.013090	162.280682	-85.983534	167.266890
44331	9.723590	0.217198	-0.651122	0.016386	0.005760	-0.009150	162.258540	-85.984720	167.299969
44332	9.723620	0.217970	-0.650415	0.016410	0.009507	-0.008918	162.225407	-85.988099	167.343651
44333	9.723964	0.191529	-0.628492	0.008655	0.005528	-0.009096	162.199098	-85.989197	167.376464
44334	9.724304	0.165211	-0.606607	0.007692	0.008426	-0.010781	162.149075	-85.991656	167.432071
44335	9.682861	0.113582	-0.644495	0.009640	0.006376	-0.007180	162.136472	-85.993531	167.451692
44336	9.739491	0.058708	-0.659832	0.023148	0.008886	-0.010887	162.093230	-85.996219	167.509378
44337	9.731657	0.090868	-0.646984	0.031500	0.004685	-0.009969	162.075317	-85.996668	167.545951
44338	9.682639	0.143224	-0.663830	0.038261	0.007809	-0.011707	162.036977	-85.998620	167.607403
44339	9.715635	0.182650	-0.642661	0.036284	0.006105	-0.015539	161.975151	-85.998896	167.692393
44340	9.731342	0.221253	-0.678905	0.025961	0.004622	-0.016790	161.898206	-85.998200	167.785480
44341	9.715970	0.158458	-0.620445	0.018540	0.006152	-0.019755	161.793173	-85.997697	167.902359
44342	9.683365	0.094926	-0.619084	0.017858	0.007060	-0.024686	161.644000	-85.996884	168.063197
44343	9.700766	-0.001493	-0.548770	0.038436	0.006499	-0.026143	161.499961	-85.995367	168.230317
44344	9.732854	0.020798	-0.578933	0.061933	0.008718	-0.025582	161.364911	-85.995235	168.402311
44345	9.691151	0.170320	-0.641945	0.062803	0.002516	-0.031580	161.203653	-85.990537	168.601872
44346	9.714984	0.324391	-0.673291	0.042504	0.001074	-0.033368	161.017854	-85.984749	168.813583
44347	9.763811	0.375848	-0.667912	0.014248	0.008889	-0.031416	160.814216	-85.983437	169.027974
44348	9.787250	0.312036	-0.724748	-0.013108	0.006539	-0.031952	160.593608	-85.980767	169.242640
44349	9.771516	0.205578	-0.695691	-0.021162	0.012484	-0.035899	160.324457	-85.980359	169.498896
44350	9.723453	0.106418	-0.656872	-0.021501	0.010945	-0.036612	160.051606	-85.979024	169.761114
44351	9.722669	0.091660	-0.707335	-0.002221	0.007787	-0.036960	159.798808	-85.975774	170.014175
44352	9.715070	0.172071	-0.664416	0.019331	0.008101	-0.036494	159.558825	-85.972771	170.266897
44353	9.731818	0.276748	-0.618778	0.028013	0.013160	-0.038135	159.300527	-85.971979	170.542669
44354	9.747359	0.317301	-0.654668	0.024484	0.006854	-0.034114	159.085816	-85.968642	170.773019
44355	9.714881	0.327622	-0.644263	0.011611	0.011589	-0.036224	158.837659	-85.967219	171.028590
44356	9.698836	0.320919	-0.627805	-0.011849	0.009103	-0.033062	158.604092	-85.965168	171.256975
44357	9.723295	0.275750	-0.633118	-0.020523	0.007778	-0.031200	158.385913	-85.962669	171.463986
44358	9.674093	0.257392	-0.658774	-0.026322	0.005716	-0.031276	158.168221	-85.959070	171.668144
44359	9.731289	0.251014	-0.643826	-0.017037	0.006579	-0.035667	157.924050	-85.954865	171.904859
44360	9.722898	0.240349	-0.661027	-0.022827	0.008261	-0.035521	157.669567	-85.951576	172.147909
44361	9.763666	0.251108	-0.651628	-0.009935	0.011026	-0.032960	157.435768	-85.950154	172.376432
44362	9.690622	0.299524	-0.619431	-0.013477	0.008685	-0.032449	157.208899	-85.947626	172.597171
44363	9.723034	0.295620	-0.628145	-0.020514	0.007532	-0.027470	157.021377	-85.945482	172.774049
44364	9.739284	0.235804	-0.651769	-0.014406	0.003637	-0.027128	156.850044	-85.941382	172.938579
44365	9.731597	0.242457	-0.617863	0.000746	0.006140	-0.023975	156.706168	-85.939197	173.083880
44366	9.682631	0.268626	-0.613720	0.007186	0.003783	-0.022919	156.578447	-85.936071	173.217094
44367	9.690401	0.312012	-0.616720	0.009477	0.003290	-0.018598	156.487846	-85.933569	173.312909
44368	9.698148	0.355085	-0.620003	0.006919	-0.001938	-0.016396	156.426896	-85.928900	173.379030
44369	9.697578	0.383322	-0.641522	0.002511	-0.002047	-0.006383	156.440431	-85.926406	173.367924
44370	9.698163	0.402254	-0.590748	0.001552	-0.010618	-0.005019	156.488243	-85.919781	173.321924
44371	9.682017	0.346890	-0.605962	-0.000984	-0.000860	-0.001916	156.529284	-85.918939	173.282145
44372	9.714961	0.313149	-0.594685	0.005742	-0.008952	-0.004328	156.579046	-85.913342	173.236597
44373	9.731399	0.296224	-0.589663	0.014483	-0.008050	0.001274	156.674650	-85.909381	173.148676
44374	9.730700	0.277559	-0.641824	0.009349	-0.007048	0.002623	156.771265	-85.906350	173.058226
44375	9.730657	0.277257	-0.642608	0.016738	-0.008325	0.001864	156.872664	-85.902432	172.967758
44376	9.722437	0.308149	-0.631353	0.012260	-0.007997	0.004416	156.986795	-85.899281	172.861419
44377	9.738218	0.272229	-0.677670	0.004540	-0.008256	0.004462	157.099207	-85.895946	172.752080
44378	9.697553	0.309778	-0.656831	0.006179	-0.008071	0.007580	157.233025	-85.893428	172.622510
44379	9.730510	0.274876	-0.645847	-0.002159	-0.007871	0.010156	157.383157	-85.891488	172.471861
44380	9.729961	0.301279	-0.667816	-0.010240	-0.005702	0.005983	157.488262	-85.889828	172.361646
44381	9.722143	0.259390	-0.664931	0.002288	-0.004238	0.004096	157.584433	-85.888431	172.266750
44382	9.691248	0.184274	-0.591976	0.003920	-0.007800	0.006990	157.711248	-85.885850	172.142901
44383	9.722087	0.257918	-0.666321	0.002354	-0.008420	0.011335	157.873437	-85.883794	171.982734
44384	9.713897	0.288194	-0.655187	0.003295	-0.011090	0.009295	158.026372	-85.879914	171.832339
44385	9.754110	0.321805	-0.669218	-0.000566	-0.011219	0.009319	158.180723	-85.875869	171.678978
44386	9.729245	0.323880	-0.693936	-0.010572	-0.007236	0.005273	158.284154	-85.873133	171.570248
44387	9.720860	0.309218	-0.712663	-0.024087	-0.009559	0.005247	158.388887	-85.869079	171.452832
44388	9.729475	0.250188	-0.704355	-0.023397	-0.010455	0.010181	158.530202	-85.865628	171.298751
44389	9.705652	0.197786	-0.686429	-0.017604	-0.008391	0.010255	158.671814	-85.863202	171.148131
44390	9.689657	0.186697	-0.671784	-0.009230	-0.008812	0.011406	158.825137	-85.860828	170.990147
44391	9.747127	0.221587	-0.628253	-0.004421	-0.007606	0.009566	158.966849	-85.858642	170.847800
44392	9.746583	0.247752	-0.650246	-0.003435	-0.006747	0.011481	159.117876	-85.857329	170.695447
44393	9.721974	0.295035	-0.644601	-0.009554	-0.006601	0.010919	159.263903	-85.855847	170.544518
44394	9.721969	0.294021	-0.645141	-0.016945	-0.005322	0.011684	159.404531	-85.855284	170.394830
44395	9.714118	0.251670	-0.642263	-0.029185	-0.005030	0.010560	159.531458	-85.854533	170.251367
44396	9.681674	0.139556	-0.671906	-0.024044	-0.002289	0.009433	159.642914	-85.855101	170.126849
44397	9.729538	0.169049	-0.718611	-0.018554	-0.005730	0.012297	159.791207	-85.854300	169.969468
44398	9.696579	0.202034	-0.730798	-0.008573	-0.005751	0.012832	159.946183	-85.853631	169.810204
44399	9.721689	0.243715	-0.677372	-0.008611	-0.005529	0.009101	160.074934	-85.852246	169.676812
44400	9.753597	0.263046	-0.708764	-0.013091	-0.005202	0.011657	160.216992	-85.851588	169.527903
44401	9.714099	0.245846	-0.644797	-0.013413	-0.002990	0.011170	160.352590	-85.851892	169.385332
44402	9.705723	0.230617	-0.663064	-0.018881	-0.003521	0.011811	160.487982	-85.852120	169.239781
44403	9.706518	0.247788	-0.612273	-0.019524	-0.010564	0.013883	160.659668	-85.848852	169.058564
44404	9.705503	0.300976	-0.655570	-0.023376	-0.006946	0.014138	160.818629	-85.847609	168.886799
44405	9.747304	0.252690	-0.605284	-0.026292	-0.005994	0.012350	160.963053	-85.846467	168.729719
44406	9.705166	0.253283	-0.686796	-0.033034	-0.005395	0.014320	161.113687	-85.846033	168.560754
44407	9.688853	0.196637	-0.702044	-0.032421	-0.005851	0.011790	161.249115	-85.844769	168.407027
44408	9.714168	0.165715	-0.657655	-0.033746	-0.008244	0.009157	161.367834	-85.841783	168.269652
44409	9.744737	0.194344	-0.761682	-0.033402	-0.002965	0.010105	161.482981	-85.841763	168.137018
44410	9.729249	0.156126	-0.725418	-0.032431	-0.005861	0.011789	161.615938	-85.840507	167.986122
44411	9.737634	0.169351	-0.707910	-0.024703	-0.005608	0.011735	161.755224	-85.839336	167.836071
44412	9.730074	0.172539	-0.674765	-0.020861	-0.001504	0.008210	161.857181	-85.839763	167.722903
44413	9.713632	0.188924	-0.680662	-0.020209	-0.002186	0.009410	161.973479	-85.839942	167.597312
44414	9.730942	0.189140	-0.623618	-0.017950	-0.002463	0.009997	162.092854	-85.840129	167.468353
44415	9.705618	0.218516	-0.668681	-0.019877	-0.000654	0.010127	162.210366	-85.841258	167.341296
44416	9.706509	0.235811	-0.617125	-0.033405	0.000770	0.010340	162.315783	-85.843232	167.217454
44417	9.729636	0.195999	-0.696402	-0.040541	-0.003687	0.007628	162.409796	-85.842219	167.101413
44418	9.713666	0.185159	-0.681208	-0.044043	-0.002520	0.012103	162.530282	-85.842667	166.956351
44419	9.680856	0.145877	-0.702069	-0.044049	-0.002525	0.012103	162.653460	-85.843028	166.809686
44420	9.705292	0.096845	-0.708913	-0.027344	-0.002907	0.006932	162.745534	-85.842342	166.702703
44421	9.721711	0.078981	-0.703473	-0.013441	-0.003033	0.011166	162.880695	-85.842272	166.563226
44422	9.681305	0.116086	-0.681614	0.002369	-0.000985	0.011776	163.021820	-85.843418	166.424132
44423	9.730543	0.208811	-0.646095	-0.001182	-0.003329	0.012283	163.173310	-85.843262	166.273938
44424	9.730530	0.280585	-0.637034	-0.006394	-0.001858	0.006183	163.269266	-85.842956	166.175099
44425	9.721213	0.320543	-0.697236	-0.023126	0.002504	0.007863	163.361997	-85.845237	166.072261
44426	9.739030	0.220929	-0.627872	-0.029913	0.003332	0.006106	163.432266	-85.847747	165.985667
44427	9.706674	0.154813	-0.627042	-0.024102	0.005397	0.006185	163.504832	-85.851340	165.902025
44428	9.706714	0.081880	-0.635862	-0.025747	0.005228	0.003068	163.550431	-85.854384	165.842559
44429	9.696967	0.076867	-0.726282	-0.006716	0.000353	0.005702	163.640410	-85.855140	165.751165
44430	9.680558	0.166171	-0.722587	0.006167	-0.000387	0.004289	163.726179	-85.855281	165.669758
44431	9.713423	0.203932	-0.701760	0.003622	0.001866	0.006954	163.828216	-85.857023	165.571526
44432	9.705007	0.189471	-0.719676	0.000336	0.001532	0.000720	163.879350	-85.857634	165.521495
44433	9.664625	0.155208	-0.706761	0.001255	0.002860	-0.004822	163.888171	-85.858007	165.513783
44434	9.714774	0.049292	-0.647253	0.015163	0.002730	-0.000586	163.935267	-85.859066	165.476318
44435	9.747654	0.087603	-0.626005	0.030005	0.007673	-0.001652	163.974431	-85.862612	165.455653
44436	9.778767	0.235115	-0.689386	0.029666	-0.001596	0.000878	164.050482	-85.861515	165.397489
44437	9.753498	0.337895	-0.724886	0.017756	0.003982	0.000718	164.109061	-85.863423	165.351629
44438	9.745971	0.341748	-0.691150	-0.004187	0.002087	-0.000453	164.147580	-85.864139	165.311647
44439	9.761534	0.234176	-0.745733	-0.019010	0.008625	-0.002399	164.150067	-85.868092	165.298138
44440	9.737606	0.110384	-0.735822	-0.021609	0.007369	-0.003705	164.142399	-85.871209	165.294457
44441	9.673307	0.024726	-0.703683	0.001961	0.013418	-0.002903	164.143383	-85.877736	165.296261
44442	9.690654	0.025707	-0.645521	0.024188	0.005604	-0.001728	164.180928	-85.880189	165.273558
44443	9.739514	0.074168	-0.639557	0.034521	0.007114	-0.000474	164.232993	-85.883610	165.242413
44444	9.689872	0.225291	-0.667941	0.033563	0.006023	0.001337	164.298598	-85.886768	165.196962
44445	9.722317	0.290813	-0.667751	0.018388	0.007280	-0.001571	164.333611	-85.890092	165.174616
44446	9.722781	0.263632	-0.646047	-0.001290	0.005111	-0.002161	164.354471	-85.892200	165.154006
44447	9.697565	0.221498	-0.699589	-0.012225	0.007794	-0.000647	164.377002	-85.895962	165.125464
44448	9.714033	0.131783	-0.702498	-0.015123	0.004769	0.001058	164.415495	-85.898377	165.079229
44449	9.706511	0.063099	-0.677688	-0.000620	0.008176	-0.000723	164.443569	-85.902294	165.051245
44450	9.706149	0.090352	-0.697958	0.011973	0.009409	0.001120	164.488245	-85.907276	165.014376
44451	9.698622	0.094311	-0.663726	0.022875	0.006961	-0.004123	164.507146	-85.910008	165.010711
44452	9.772306	0.140035	-0.633873	0.017732	0.007960	-0.002767	164.528320	-85.913593	165.000713
44453	9.722287	0.173693	-0.701808	0.004822	0.008942	-0.005092	164.524530	-85.917274	165.008066
44454	9.779982	0.209804	-0.656162	-0.001978	0.013754	-0.010348	164.463291	-85.922897	165.069368
44455	9.722846	0.148383	-0.678235	-0.017484	0.013478	-0.013981	164.368912	-85.927735	165.157175
44456	9.666573	0.032621	-0.658050	-0.014271	0.014286	-0.015205	164.261418	-85.932886	165.257787
44457	9.691090	-0.014058	-0.663549	0.012744	0.007925	-0.019577	164.152295	-85.933775	165.376829
44458	9.715540	0.011845	-0.659970	0.027927	0.010416	-0.016422	164.067702	-85.936576	165.478721
44459	9.747420	0.179023	-0.671374	0.038206	0.008413	-0.019130	163.975405	-85.937816	165.596319
44460	9.747668	0.298536	-0.631164	0.034033	0.006514	-0.016095	163.905368	-85.938499	165.687126
44461	9.730472	0.299072	-0.687836	0.013389	0.007230	-0.018379	163.807813	-85.939155	165.795978
44462	9.723292	0.277433	-0.632426	-0.001414	0.009780	-0.016851	163.704152	-85.941493	165.900132
44463	9.723023	0.233477	-0.661655	-0.002977	0.012888	-0.012274	163.630996	-85.946232	165.975020
44464	9.691083	0.214141	-0.629734	0.002850	0.010977	-0.008695	163.590047	-85.950528	166.018754
44465	9.756874	0.146531	-0.605745	0.008965	0.007085	-0.008364	163.564863	-85.952706	166.048483
44466	9.699507	0.229795	-0.610163	0.011224	0.006809	-0.007775	163.545298	-85.954857	166.075588
44467	9.699103	0.257393	-0.630627	0.009361	0.008155	-0.000186	163.582984	-85.958875	166.043395
44468	9.707058	0.298903	-0.633106	-0.001296	0.005105	-0.002166	163.603775	-85.960999	166.022852
44469	9.706371	0.280832	-0.684220	-0.012542	0.002273	0.002113	163.661134	-85.962203	165.961061
44470	9.722829	0.263651	-0.678181	-0.024143	0.001883	0.002178	163.710095	-85.963252	165.899155
44471	9.714933	0.222035	-0.674839	-0.026373	0.001925	0.005319	163.783521	-85.964761	165.810028
44472	9.731392	0.204775	-0.668805	-0.026407	0.002155	0.001589	163.826040	-85.965856	165.753280
44473	9.731133	0.159287	-0.698972	-0.017366	0.001054	0.003946	163.898277	-85.966649	165.674354
44474	9.723509	0.163021	-0.665256	-0.010607	0.004207	0.002221	163.950235	-85.968966	165.617219
44475	9.748324	0.159822	-0.641103	-0.004157	0.001849	0.003270	164.021767	-85.970036	165.543684
44476	9.740263	0.190495	-0.628675	-0.005079	0.000530	0.008812	164.136777	-85.971352	165.426516
44477	9.748214	0.231139	-0.631656	-0.011208	0.000675	0.008244	164.246467	-85.972560	165.311614
44478	9.706603	0.277705	-0.682195	-0.017627	0.002798	0.010925	164.366023	-85.975422	165.182682
44479	9.731012	0.301085	-0.679261	-0.028913	0.000193	0.011470	164.491294	-85.976842	165.041951
44480	9.747896	0.255633	-0.652263	-0.037275	0.000375	0.014042	164.629640	-85.978801	164.882899
44481	9.715195	0.216073	-0.673004	-0.044366	-0.000572	0.015285	164.776260	-85.980305	164.708021
44482	9.715641	0.187541	-0.651759	-0.033083	0.002028	0.014741	164.919272	-85.983227	164.546699
44483	9.714956	0.168150	-0.703190	-0.038214	-0.000963	0.019582	165.106625	-85.985100	164.338783
44484	9.706947	0.197813	-0.690678	-0.029843	0.002595	0.017250	165.270572	-85.988636	164.158336
44485	9.731774	0.193112	-0.666700	-0.024349	-0.000855	0.020106	165.470575	-85.990588	163.946992
44486	9.731437	0.218568	-0.687571	-0.023352	0.003736	0.022269	165.676284	-85.995389	163.728410
44487	9.723870	0.220332	-0.653672	-0.030112	0.004321	0.024231	165.895475	-86.000628	163.492390
44488	9.723925	0.218136	-0.653584	-0.029492	-0.003855	0.024943	166.134936	-86.001461	163.236450
44489	9.732338	0.157091	-0.645238	-0.034616	-0.003107	0.030025	166.414390	-86.003172	162.939270
44490	9.732713	0.127043	-0.624626	-0.033028	-0.006451	0.029170	166.690718	-86.002955	162.644343
44491	9.715583	0.123662	-0.682256	-0.026548	-0.001328	0.030705	166.975504	-86.005591	162.343909
44492	9.723986	0.134899	-0.664577	-0.026585	-0.008822	0.030214	167.268283	-86.003978	162.036191
44493	9.675514	0.128775	-0.640517	-0.021412	-0.010066	0.032590	167.585745	-86.001752	161.703899
44494	9.716302	0.132795	-0.633140	-0.025309	-0.013943	0.032364	167.904704	-85.997299	161.370668
44495	9.700222	0.119602	-0.619058	-0.027243	-0.012140	0.032498	168.222125	-85.993713	161.039425
44496	9.707499	0.140198	-0.674389	-0.023019	-0.006743	0.033446	168.537974	-85.993169	160.710626
44497	9.723525	0.147421	-0.690572	-0.033393	-0.011998	0.031931	168.847702	-85.989256	160.384130
44498	9.708287	0.151990	-0.624629	-0.038215	-0.009479	0.034009	169.163079	-85.986984	160.047073
44499	9.739837	0.124065	-0.686675	-0.040775	-0.007242	0.036675	169.498542	-85.986077	159.692726
44500	9.698970	0.114114	-0.696054	-0.039556	-0.011865	0.031362	169.794674	-85.981924	159.374190
44501	9.715831	0.039545	-0.649558	-0.041544	-0.009557	0.024040	170.029831	-85.978099	159.116466
44502	9.740564	-0.065947	-0.615148	-0.020504	-0.001033	0.023821	170.260261	-85.979127	158.874735
44503	9.741141	-0.022948	-0.584608	-0.002445	-0.002774	0.021061	170.484303	-85.978758	158.651835
44504	9.725409	0.037331	-0.559796	-0.001796	-0.003463	0.022258	170.716226	-85.978131	158.419353
44505	9.732796	0.159060	-0.626009	-0.025112	-0.011707	0.021890	170.942963	-85.972687	158.176728
44506	9.707713	0.188437	-0.671474	-0.053251	-0.005427	0.013176	171.074437	-85.970019	158.015386
44507	9.723108	0.152771	-0.718048	-0.071379	-0.007186	0.011954	171.190261	-85.966262	157.863194
44508	9.746162	-0.013949	-0.766534	-0.069468	-0.009009	0.011815	171.305489	-85.961400	157.708823
44509	9.745716	-0.087111	-0.777032	-0.045522	-0.001200	0.009656	171.411128	-85.960650	157.581300
44510	9.713367	-0.080696	-0.766960	-0.004089	0.009059	0.007524	171.507304	-85.965620	157.483582
44511	9.698268	-0.074076	-0.699256	0.023672	0.005770	0.004575	171.603468	-85.968362	157.404435
44512	9.740237	0.049626	-0.649485	0.028513	0.002987	0.006218	171.715370	-85.969757	157.309678
44513	9.715891	0.124757	-0.662977	0.023355	0.003979	0.007577	171.838227	-85.971741	157.205398
44514	9.740230	0.175651	-0.680671	0.015881	0.001769	0.004364	171.929502	-85.972270	157.124066
44515	9.757481	0.175184	-0.623045	-0.004741	0.005749	0.009797	172.050740	-85.975371	157.001140
44516	9.740554	0.146652	-0.658911	-0.015755	0.004943	0.007332	172.144405	-85.977914	156.899240
44517	9.699956	0.111553	-0.646271	-0.021253	0.000405	0.011437	172.275282	-85.978144	156.758030
44518	9.707779	0.079350	-0.658872	-0.020604	-0.000287	0.012633	172.414851	-85.978090	156.607328
44519	9.724765	0.105958	-0.622565	-0.016414	-0.002380	0.013081	172.565461	-85.976767	156.449732
44520	9.740610	0.142346	-0.659026	-0.023842	-0.005110	0.017323	172.745977	-85.974259	156.256121
44521	9.756481	0.178515	-0.695277	-0.034782	0.001310	0.019101	172.930244	-85.975415	156.054159
44522	9.765239	0.163360	-0.655954	-0.038352	0.002970	0.016122	173.084540	-85.977335	155.878498
44523	9.698913	0.113778	-0.718805	-0.038357	0.002966	0.016122	173.242100	-85.979068	155.701296
44524	9.731527	0.077888	-0.707253	-0.037057	0.005587	0.015044	173.386260	-85.982339	155.536542
44525	9.683109	0.073227	-0.682052	-0.022193	-0.001243	0.020697	173.592751	-85.981990	155.317858
44526	9.707527	0.122829	-0.699864	-0.022484	0.000707	0.023957	173.822282	-85.982962	155.075893
44527	9.757117	0.113714	-0.652344	-0.025433	-0.002065	0.021914	174.038688	-85.982052	154.847166
44528	9.756375	0.066692	-0.683382	-0.035758	-0.000083	0.024632	174.266833	-85.982481	154.598967
44529	9.731612	0.067797	-0.707111	-0.030869	0.000602	0.030261	174.545948	-85.983459	154.304733
44530	9.714773	0.010234	-0.722512	-0.034429	0.006280	0.023819	174.763646	-85.987322	154.067770
44531	9.739590	0.004511	-0.698239	-0.027974	0.003897	0.024849	174.997855	-85.989747	153.819465
44532	9.763600	-0.046138	-0.704965	-0.028936	0.006805	0.023188	175.214003	-85.993749	153.587213
44533	9.706650	-0.064998	-0.697654	-0.018273	0.006342	0.021199	175.423161	-85.997224	153.368951
44534	9.722787	-0.056781	-0.712296	-0.009855	0.005893	0.022351	175.644823	-86.000546	153.142133
44535	9.730530	-0.089931	-0.724381	0.006006	0.008181	0.019269	175.851729	-86.004936	152.941139
44536	9.747656	-0.064443	-0.686774	0.016416	0.013406	0.020808	176.072360	-86.012371	152.730446
44537	9.732437	-0.031617	-0.639439	0.009870	0.008573	0.015520	176.251254	-86.016672	152.557986
44538	9.740015	-0.009075	-0.692242	0.007054	0.020781	0.014530	176.412420	-86.027999	152.401528
44539	9.707879	-0.030889	-0.660101	0.010223	0.014110	0.012786	176.567655	-86.035356	152.253741
44540	9.691746	-0.014867	-0.664288	0.010869	0.013415	0.013981	176.731599	-86.042391	152.096693
44541	9.690983	-0.061055	-0.694095	0.011158	0.011467	0.010719	176.872575	-86.048043	151.963449
44542	9.749000	-0.027951	-0.647778	0.009862	0.012855	0.008328	176.990331	-86.054531	151.852123
44543	9.715744	-0.011164	-0.709323	0.011464	0.013533	0.003993	177.075341	-86.061173	151.775518
44544	9.708220	-0.007966	-0.674561	0.010476	0.012702	0.002068	177.142104	-86.067369	151.715659
44545	9.700631	0.022611	-0.660441	0.030591	0.016075	0.007160	177.263499	-86.075557	151.612501
44546	9.709262	0.035790	-0.640570	0.019893	0.017087	0.001685	177.331265	-86.084238	151.557047
44547	9.725557	0.017913	-0.633691	0.010794	0.010211	0.006262	177.437151	-86.089016	151.458717
44548	9.750314	0.041316	-0.629314	0.003724	0.017032	0.004289	177.518091	-86.097720	151.380774
44549	9.724826	0.027152	-0.703308	0.003383	0.015508	0.003560	177.596282	-86.105395	151.306766
44550	9.734309	0.057719	-0.631904	0.007587	0.013138	0.007738	177.710504	-86.111933	151.197684
44551	9.693526	0.050368	-0.639239	0.013088	0.013661	0.007114	177.825885	-86.118649	151.092659
44552	9.726827	0.059704	-0.595932	0.015658	0.011154	0.008171	177.949759	-86.124031	150.978539
44553	9.734578	0.027852	-0.607630	0.005920	0.009259	0.004355	178.037913	-86.128129	150.893243
44554	9.719267	0.089404	-0.581370	0.011446	0.009242	0.011188	178.186017	-86.132442	150.752420
44555	9.686956	0.095435	-0.571079	0.012058	0.004806	0.012124	178.346111	-86.134060	150.599685
44556	9.719330	0.114209	-0.601260	-0.003483	0.000058	0.019384	178.557729	-86.133183	150.386630
44557	9.719358	0.112391	-0.601149	-0.011557	0.002041	0.018949	178.762672	-86.133286	150.175803
44558	9.710015	0.079456	-0.671036	-0.013517	0.000112	0.018827	178.963663	-86.132331	149.967637
44559	9.750898	0.056599	-0.641697	-0.007065	-0.002280	0.019868	179.180031	-86.129889	149.750097
44560	9.710010	0.020420	-0.629813	-0.008674	-0.002958	0.024202	179.429276	-86.127104	149.496346
44561	9.734686	0.014449	-0.606356	-0.008371	-0.005177	0.024670	179.685418	-86.122819	149.237268
44562	9.676719	-0.049626	-0.630946	-0.001510	0.001432	0.026962	179.961217	-86.122400	148.961015
44563	9.717589	-0.018075	-0.643452	-0.002265	-0.009097	0.024982	-179.777966	-86.115706	148.700091
44564	9.766965	-0.000392	-0.617190	0.006522	-0.004302	0.027135	-179.497111	-86.111824	148.423381
44565	9.766937	-0.002914	-0.617622	0.001007	-0.004549	0.024030	-179.244397	-86.107617	148.171112
44566	9.758332	-0.046490	-0.615336	-0.009633	-0.000049	0.022539	-179.011957	-86.106046	147.933648
44567	9.724097	-0.103552	-0.688758	-0.010354	-0.006836	0.020820	-178.793685	-86.100439	147.710339
44568	9.707855	-0.115648	-0.673925	-0.002853	-0.000654	0.020580	-178.574567	-86.098422	147.490120
44569	9.715414	-0.148766	-0.686621	0.005890	0.000669	0.018744	-178.363925	-86.097056	147.283880
44570	9.755285	-0.189149	-0.709106	0.017159	-0.004261	0.017703	-178.158875	-86.092913	147.089253
44571	9.731466	-0.169546	-0.681478	0.015219	-0.001900	0.010387	-178.013148	-86.090127	146.954985
44572	9.731521	-0.143084	-0.702185	0.026263	0.002867	0.009400	-177.870877	-86.090163	146.828512
44573	9.690559	-0.177946	-0.689756	0.029794	0.001726	0.004927	-177.761665	-86.089499	146.738803
44574	9.690642	-0.150910	-0.710283	0.043050	0.002727	0.000541	-177.684036	-86.089623	146.686763
44575	9.699081	-0.192450	-0.650056	0.049180	0.002809	-0.002614	-177.626870	-86.089781	146.659838
44576	9.740081	-0.158491	-0.661795	0.063412	0.004627	-0.005076	-177.583946	-86.091120	146.654277
44577	9.701210	-0.074661	-0.608113	0.062114	0.006008	-0.007471	-177.559258	-86.093251	146.667052
44578	9.693721	-0.015481	-0.616211	0.053923	-0.003222	-0.008675	-177.554715	-86.090184	146.694513
44579	9.703251	0.044091	-0.567373	0.027433	-0.000665	-0.010832	-177.580922	-86.088523	146.736350
44580	9.703235	0.045003	-0.567575	0.012216	-0.003314	-0.010293	-177.613778	-86.085441	146.777345
44581	9.693668	-0.013050	-0.617105	-0.005593	-0.007458	-0.007340	-177.631063	-86.079777	146.792976
44582	9.708787	-0.074704	-0.643021	-0.006577	-0.008287	-0.009263	-177.667652	-86.073821	146.826920
44583	9.758238	-0.025927	-0.637975	-0.014678	-0.010027	-0.009954	-177.713181	-86.066817	146.865514
44584	9.701128	-0.013983	-0.653336	-0.013733	-0.012941	-0.008286	-177.747026	-86.058172	146.892599
44585	9.684939	0.032031	-0.681087	-0.017624	-0.012784	-0.011996	-177.810893	-86.049628	146.949265
44586	9.700979	0.015563	-0.676974	-0.014106	-0.018476	-0.005539	-177.823641	-86.037751	146.954988
44587	9.757946	0.032628	-0.685225	-0.018582	-0.014417	-0.002734	-177.813131	-86.028093	146.934207
44588	9.773979	-0.012074	-0.660029	-0.009496	-0.011847	-0.000122	-177.776553	-86.019892	146.893133
44589	9.733012	-0.018419	-0.669641	-0.008181	-0.009227	-0.001200	-177.745243	-86.013106	146.858135
44590	9.732944	-0.018392	-0.670628	-0.008511	-0.011019	0.001801	-177.692355	-86.005331	146.801277
44591	9.749075	0.018950	-0.707688	-0.003304	-0.008557	0.004432	-177.611677	-85.998773	146.720835
44592	9.733821	0.025654	-0.641471	-0.001965	-0.006473	0.010810	-177.480296	-85.993367	146.589051
44593	9.701452	0.032030	-0.632507	-0.004570	-0.007705	0.009494	-177.359387	-85.987156	146.467531
44594	9.709007	0.027389	-0.666655	-0.004228	-0.006181	0.010221	-177.234703	-85.981894	146.341159
44595	9.732714	0.005230	-0.695084	-0.009386	-0.005170	0.011576	-177.100620	-85.977123	146.202291
44596	9.715484	-0.051003	-0.711132	-0.010663	-0.004049	0.012910	-176.957503	-85.972959	146.053743
44597	9.723000	-0.083546	-0.724224	-0.005495	-0.005331	0.015283	-176.791162	-85.967899	145.885685
44598	9.714316	-0.126357	-0.722220	0.002567	-0.007334	0.015713	-176.619985	-85.961705	145.716604
44599	9.689475	-0.151678	-0.725862	0.020341	-0.006926	0.012492	-176.462671	-85.955689	145.572527
44600	9.681919	-0.094212	-0.734549	0.032655	-0.003288	0.010156	-176.318057	-85.951944	145.447355
44601	9.722802	-0.089025	-0.726228	0.025234	-0.001981	0.010923	-176.168853	-85.948769	145.313954
44602	9.707641	-0.055001	-0.680672	0.011235	-0.009226	0.006158	-176.072517	-85.941743	145.224876
44603	9.690340	-0.110568	-0.696940	-0.004255	-0.005642	0.002768	-176.008588	-85.936827	145.160140
44604	9.665541	-0.134464	-0.700139	-0.008404	0.000482	-0.001155	-175.977281	-85.935629	145.124975
44605	9.721483	-0.217635	-0.696003	-0.016519	-0.000987	-0.005568	-175.984662	-85.933707	145.125538
44606	9.688072	-0.281910	-0.696476	-0.015255	-0.001841	-0.010631	-176.034773	-85.931559	145.168060
44607	9.719394	-0.305237	-0.758014	0.000875	-0.001300	-0.020702	-176.153110	-85.929980	145.290284
44608	9.752806	-0.292957	-0.715878	0.016425	0.003141	-0.024257	-176.291794	-85.931184	145.439800
44609	9.811019	-0.228828	-0.691487	0.024459	0.001672	-0.031285	-176.481018	-85.931670	145.644984
44610	9.803572	-0.166953	-0.699267	0.033216	0.006991	-0.036605	-176.707793	-85.935426	145.892458
44611	9.804686	-0.091011	-0.688629	0.025450	0.006767	-0.036564	-176.936643	-85.938861	146.138308
44612	9.722973	-0.073094	-0.725716	0.027101	0.010906	-0.036919	-177.168744	-85.944727	146.387607
44613	9.731623	-0.000841	-0.748223	0.020954	0.011083	-0.037487	-177.408517	-85.950619	146.639960
44614	9.731758	-0.024905	-0.725799	0.025243	0.020198	-0.036275	-177.634774	-85.961643	146.882329
44615	9.707225	-0.073070	-0.705888	0.028143	0.019207	-0.034490	-177.844169	-85.971882	147.109528
44616	9.682685	-0.093918	-0.706930	0.034275	0.019021	-0.033920	-178.048835	-85.982057	147.335433
44617	9.692307	-0.059274	-0.635038	0.046564	0.022658	-0.036258	-178.263598	-85.994229	147.579007
44618	9.643903	-0.031562	-0.629131	0.053946	0.017342	-0.033542	-178.456567	-86.003321	147.804478
44619	9.629516	0.051650	-0.551062	0.047424	0.012242	-0.035088	-178.665822	-86.009353	148.042211
44620	9.695026	0.112812	-0.559750	0.025080	0.004915	-0.033554	-178.879194	-86.011213	148.271553
44621	9.702716	0.084740	-0.571896	-0.000132	0.002310	-0.033560	-179.106393	-86.011481	148.499200
44622	9.726552	0.066912	-0.599641	-0.023420	-0.002113	-0.033699	-179.349730	-86.009189	148.730723
44623	9.734236	0.039261	-0.612458	-0.040253	-0.004935	-0.036272	-179.622831	-86.005181	148.980984
44624	9.716447	-0.030009	-0.680056	-0.046722	-0.006554	-0.033839	-179.880075	-86.000198	149.213068
44625	9.740399	-0.075082	-0.687547	-0.047362	-0.006130	-0.031309	179.885831	-85.995363	149.422642
44626	9.731079	-0.103240	-0.757666	-0.028910	0.001098	-0.032821	179.647919	-85.994631	149.645579
44627	9.763494	-0.107207	-0.767220	-0.004355	0.000422	-0.030536	179.444632	-85.993412	149.847589
44628	9.739515	-0.055929	-0.760055	0.024446	0.005138	-0.027292	179.282283	-85.994920	150.025423
44629	9.764734	0.042922	-0.746567	0.032579	0.010383	-0.022624	179.163164	-85.999418	150.163840
44630	9.740768	0.093105	-0.738477	0.046847	0.015461	-0.017385	179.093110	-86.006876	150.262019
44631	9.757529	0.176965	-0.742382	0.054635	0.019177	-0.013442	179.061500	-86.016415	150.326727
44632	9.742046	0.239957	-0.715581	0.056611	0.020589	-0.005869	179.090663	-86.026911	150.331054
44633	9.710407	0.292439	-0.673839	0.045909	0.013582	-0.004391	179.128590	-86.033285	150.318978
44634	9.719333	0.224169	-0.591505	0.032037	0.013257	-0.001202	179.183347	-86.039619	150.283537
44635	9.679201	0.262144	-0.568447	0.015269	0.009664	0.007408	179.301426	-86.043929	150.174376
44636	9.637900	0.181794	-0.586172	-0.007362	0.000538	0.011943	179.444063	-86.043050	150.028216
44637	9.702588	0.193468	-0.626323	-0.027037	-0.002079	0.018762	179.634011	-86.040618	149.823998
44638	9.759172	0.108581	-0.621766	-0.035421	-0.001880	0.021325	179.838070	-86.038313	149.600155
44639	9.742379	0.051435	-0.637287	-0.039301	-0.002002	0.021341	-179.958686	-86.035787	149.373980
44640	9.700862	-0.002672	-0.676635	-0.027959	0.000050	0.028274	-179.693367	-86.034459	149.093013
44641	9.684801	-0.042745	-0.640568	-0.026376	-0.003292	0.027417	-179.434286	-86.031122	148.818201
44642	9.701029	-0.062565	-0.634817	-0.020834	0.004706	0.027291	-179.172961	-86.032291	148.545330
44643	9.717898	-0.009912	-0.619048	-0.006638	0.002549	0.028307	-178.892855	-86.032031	148.262662
44644	9.710060	0.045807	-0.627704	-0.013144	-0.006804	0.033966	-178.574160	-86.026334	147.936697
44645	9.727001	0.070376	-0.591912	-0.020564	-0.005513	0.034723	-178.253568	-86.021196	147.603116
44646	9.718491	0.053259	-0.610847	-0.037723	-0.010120	0.035147	-177.942055	-86.013328	147.270230
44647	9.709990	0.008813	-0.609239	-0.042285	-0.013293	0.033714	-177.645218	-86.003506	146.950704
44648	9.685189	0.009397	-0.634643	-0.052683	-0.018508	0.032180	-177.372380	-85.990673	146.647988
44649	9.717431	-0.000737	-0.646082	-0.049788	-0.019499	0.033968	-177.083782	-85.977083	146.332226
44650	9.675628	-0.082898	-0.666331	-0.051383	-0.016171	0.034829	-176.791449	-85.965295	146.010703
44651	9.691664	-0.103481	-0.662526	-0.030739	-0.020740	0.036879	-176.473567	-85.950684	145.675729
44652	9.716176	-0.055364	-0.682323	-0.025555	-0.018012	0.035781	-176.163670	-85.937566	145.351422
44653	9.709306	0.017399	-0.640674	-0.031047	-0.018801	0.040136	-175.822640	-85.923542	144.991975
44654	9.725351	0.023897	-0.657836	-0.046921	-0.020784	0.039484	-175.501401	-85.908418	144.644014
44655	9.758522	0.030529	-0.617676	-0.069542	-0.018423	0.041053	-175.180999	-85.894419	144.283049
44656	9.740289	-0.045475	-0.686931	-0.083816	-0.020012	0.039795	-174.882696	-85.879448	143.936875
44657	9.698198	-0.127644	-0.707788	-0.082908	-0.022678	0.037730	-174.602553	-85.862919	143.611308
44658	9.737864	-0.169244	-0.732559	-0.067738	-0.023772	0.036919	-174.325319	-85.845717	143.295482
44659	9.722510	-0.137785	-0.688735	-0.056089	-0.023727	0.040584	-174.012611	-85.828072	142.952000
44660	9.697615	-0.082188	-0.756230	-0.048645	-0.021018	0.036349	-173.731611	-85.812239	142.643352
44661	9.706028	-0.071748	-0.740227	-0.058729	-0.024982	0.039267	-173.436669	-85.793755	142.317563
44662	9.762855	-0.113789	-0.707606	-0.056401	-0.017524	0.036657	-173.159179	-85.779665	142.007966
44663	9.754050	-0.130727	-0.727690	-0.047996	-0.018011	0.037807	-172.869843	-85.765119	141.691051
44664	9.664484	-0.142955	-0.712940	-0.044429	-0.015406	0.033594	-172.610816	-85.752234	141.406834
44665	9.728889	-0.160792	-0.734099	-0.036996	-0.016997	0.036544	-172.326092	-85.738073	141.103131
44666	9.731058	-0.102074	-0.652918	-0.045130	-0.018749	0.035858	-172.057280	-85.722914	140.808690
44667	9.770682	-0.116013	-0.698115	-0.044508	-0.019173	0.033324	-171.807546	-85.707556	140.535710
44668	9.738263	-0.111437	-0.689888	-0.046053	-0.011814	0.030747	-171.573897	-85.696561	140.275990
44669	9.720774	-0.141471	-0.727814	-0.046399	-0.013632	0.033741	-171.319007	-85.684078	139.996531
44670	9.686970	-0.209449	-0.730138	-0.048381	-0.015568	0.033616	-171.072313	-85.670538	139.722381
44671	9.767395	-0.244709	-0.745936	-0.037358	-0.014544	0.032351	-170.827799	-85.657536	139.457236
44672	9.685194	-0.287672	-0.743677	-0.029528	-0.010587	0.032576	-170.575108	-85.646731	139.187896
44673	9.708685	-0.283634	-0.793518	-0.018857	-0.010788	0.026850	-170.356721	-85.636115	138.962752
44674	9.724717	-0.275794	-0.809742	-0.001673	-0.009654	0.022416	-170.164366	-85.626665	138.769923
44675	9.775523	-0.241221	-0.731965	-0.006211	-0.009061	0.021248	-169.981184	-85.617497	138.585022
44676	9.702215	-0.241505	-0.731284	-0.010713	-0.004135	0.012905	-169.858222	-85.612026	138.456591
44677	9.710987	-0.201423	-0.734166	-0.014020	-0.008692	0.013846	-169.734552	-85.603738	138.326725
44678	9.710780	-0.230221	-0.714378	-0.015950	-0.006580	0.010270	-169.637861	-85.597119	138.221631
44679	9.662273	-0.233597	-0.690178	-0.019911	-0.010139	0.006293	-169.575317	-85.588800	138.150366
44680	9.695953	-0.169218	-0.690461	-0.022228	-0.013882	0.009159	-169.500787	-85.578162	138.063889
44681	9.728084	-0.177061	-0.701737	-0.033290	-0.014322	0.002976	-169.476760	-85.567866	138.022379
44682	9.703433	-0.117300	-0.767912	-0.039468	-0.013839	-0.001306	-169.488563	-85.558340	138.012585
44683	9.685852	-0.143962	-0.805869	-0.046564	-0.011023	0.000216	-169.487942	-85.550205	137.987534
44684	9.669575	-0.153958	-0.791909	-0.044641	-0.013145	0.003789	-169.464986	-85.540537	137.939902
44685	9.717868	-0.151271	-0.818396	-0.031039	-0.014637	0.003555	-169.436311	-85.529954	137.895056
44686	9.733819	-0.169128	-0.814323	-0.018300	-0.009751	0.005681	-169.380430	-85.521994	137.829536
44687	9.751136	-0.170285	-0.757923	-0.007547	-0.006490	0.003954	-169.324611	-85.515934	137.771338
44688	9.792189	-0.136782	-0.770490	-0.001673	-0.004453	0.004053	-169.264076	-85.511119	137.710704
44689	9.710098	-0.177225	-0.766860	0.001415	0.005777	0.006670	-169.167866	-85.511724	137.616031
44690	9.727750	-0.123059	-0.750217	0.002983	0.002440	0.005779	-169.083015	-85.510587	137.533682
44691	9.718889	-0.165175	-0.747727	-0.000201	0.005069	0.011004	-168.957163	-85.510255	137.409225
44692	9.702752	-0.176057	-0.731841	-0.004061	0.009304	0.003861	-168.880502	-85.513166	137.331042
44693	9.734787	-0.239383	-0.699870	-0.010229	0.009492	0.003306	-168.809777	-85.516191	137.255186
44694	9.733264	-0.311815	-0.709907	-0.012510	0.010091	-0.001002	-168.771509	-85.520072	137.210660
44695	9.749386	-0.328944	-0.703846	-0.008049	0.006352	-0.007571	-168.781514	-85.522496	137.217507
44696	9.717221	-0.320677	-0.693392	0.001021	0.005460	-0.008969	-168.799223	-85.524661	137.236905
44697	9.717305	-0.319438	-0.692795	0.006524	0.006580	-0.017055	-168.868612	-85.528289	137.311888
44698	9.645733	-0.243885	-0.679969	0.000931	0.002617	-0.020428	-168.972871	-85.530114	137.418050
44699	9.678262	-0.193525	-0.730827	-0.005012	-0.002866	-0.024537	-169.116036	-85.529211	137.560257
44700	9.687127	-0.149777	-0.733330	-0.014785	-0.005018	-0.024613	-169.269989	-85.527149	137.707232
44701	9.712028	-0.123537	-0.730727	-0.019035	-0.006652	-0.025323	-169.432191	-85.524175	137.859999
44702	9.760337	-0.145734	-0.735912	-0.024869	-0.004652	-0.028868	-169.621745	-85.522696	138.036889
44703	9.726644	-0.207678	-0.737462	-0.019993	-0.003427	-0.030694	-169.818339	-85.521967	138.223656
44704	9.703172	-0.183737	-0.709385	-0.017671	0.000018	-0.029828	-170.004535	-85.523126	138.401315
44705	9.653448	-0.228429	-0.716035	-0.005376	-0.004390	-0.025276	-170.154683	-85.521255	138.550515
44706	9.726814	-0.171240	-0.758822	0.014380	-0.005438	-0.032407	-170.347856	-85.519501	138.753593
44707	9.753021	-0.100096	-0.724619	0.005318	-0.004863	-0.027283	-170.507100	-85.517486	138.917095
44708	9.729594	0.006832	-0.758181	-0.002480	-0.005098	-0.027229	-170.671887	-85.515346	139.082012
44709	9.736978	0.005970	-0.792331	-0.008971	-0.007043	-0.021069	-170.796591	-85.511455	139.203061
44710	9.802684	-0.045313	-0.719654	-0.012135	-0.000077	-0.023011	-170.930380	-85.511710	139.331337
44711	9.785273	-0.097922	-0.735843	-0.005269	0.002787	-0.020982	-171.040718	-85.513327	139.440405
44712	9.713354	-0.078135	-0.682286	-0.005603	0.000966	-0.017994	-171.133458	-85.513688	139.531258
44713	9.647588	-0.050742	-0.734922	-0.012457	-0.002201	-0.016297	-171.220158	-85.512055	139.611862
44714	9.679842	-0.000812	-0.786037	-0.024486	-0.004381	-0.013227	-171.295223	-85.508951	139.674134
44715	9.703367	-0.047996	-0.794376	-0.027741	-0.005207	-0.012010	-171.362739	-85.505211	139.726981
44716	9.750500	-0.143963	-0.810258	-0.022747	0.003217	-0.009540	-171.401778	-85.506084	139.754116
44717	9.741863	-0.184180	-0.807799	-0.009723	0.006216	-0.010681	-171.436993	-85.508724	139.785187
44718	9.733260	-0.224393	-0.805031	0.003302	0.009216	-0.011822	-171.471119	-85.513188	139.822364
44719	9.711042	-0.213658	-0.703356	0.022149	0.010525	-0.013145	-171.501340	-85.518459	139.866412
44720	9.728492	-0.157709	-0.686091	0.029895	0.007021	-0.013484	-171.534756	-85.521816	139.918161
44721	9.687605	-0.163008	-0.693881	0.022112	0.006477	-0.009705	-171.544390	-85.524511	139.941983
44722	9.712458	-0.110345	-0.710527	0.010051	0.004890	-0.014090	-171.595954	-85.526707	140.000530
44723	9.679010	-0.118486	-0.752122	-0.005543	0.004403	-0.013985	-171.654583	-85.528561	140.057621
44724	9.686546	-0.147874	-0.764704	-0.015930	0.006971	-0.018693	-171.752353	-85.532307	140.147582
44725	9.726382	-0.184236	-0.787103	-0.021456	0.006434	-0.018059	-171.848117	-85.535638	140.232025
44726	9.733968	-0.213176	-0.799505	-0.013979	0.009200	-0.022289	-171.968938	-85.540913	140.346228
44727	9.741639	-0.269814	-0.791058	-0.008063	0.014999	-0.021900	-172.076338	-85.549386	140.450653
44728	9.724520	-0.294410	-0.826367	0.012042	0.015510	-0.028288	-172.220375	-85.558676	140.603094
44729	9.701093	-0.271219	-0.796435	0.036424	0.017071	-0.026511	-172.334716	-85.568641	140.740295
44730	9.686247	-0.206678	-0.768491	0.047746	0.016213	-0.031049	-172.479076	-85.578484	140.913574
44731	9.728467	-0.153059	-0.726686	0.049058	0.018839	-0.032110	-172.627175	-85.589811	141.091174
44732	9.721078	-0.119103	-0.712031	0.042143	0.012207	-0.034426	-172.804911	-85.597551	141.294703
44733	9.754568	-0.078479	-0.689147	0.033044	0.013351	-0.036761	-173.003356	-85.606006	141.513360
44734	9.737409	-0.074448	-0.744904	0.021391	0.016713	-0.036409	-173.205125	-85.616340	141.729064
44735	9.689050	-0.046287	-0.738821	0.008704	0.015509	-0.038266	-173.428570	-85.626016	141.958997
44736	9.730259	-0.091663	-0.687794	0.009329	0.015095	-0.040801	-173.673362	-85.635582	142.210912
44737	9.754123	-0.108420	-0.714695	0.003116	0.011506	-0.041643	-173.930574	-85.643047	142.471557
44738	9.728546	-0.145169	-0.768310	0.008705	0.019528	-0.041713	-174.181248	-85.655024	142.729006
44739	9.712647	-0.151445	-0.751225	0.024909	0.019627	-0.044337	-174.442176	-85.667070	143.005725
44740	9.721274	-0.106173	-0.751732	0.027463	0.013083	-0.039850	-174.675384	-85.675098	143.256428
44741	9.697638	-0.081742	-0.722106	0.034286	0.016253	-0.041542	-174.914712	-85.684912	143.517070
44742	9.738530	-0.043848	-0.732579	0.030711	0.013609	-0.037338	-175.128581	-85.692962	143.750241
44743	9.747182	-0.026829	-0.712861	0.038491	0.013862	-0.037380	-175.337658	-85.701073	143.982748
44744	9.763544	-0.040939	-0.706053	0.041095	0.015094	-0.036060	-175.536629	-85.709786	144.206939
44745	9.722796	-0.044489	-0.713045	0.048581	0.017284	-0.032833	-175.704896	-85.719543	144.404605
44746	9.731299	-0.000213	-0.713378	0.042438	0.021168	-0.033124	-175.879005	-85.731499	144.604631
44747	9.747875	-0.042415	-0.685369	0.031405	0.020070	-0.031871	-176.050048	-85.742703	144.794931
44748	9.715496	-0.004906	-0.694140	0.032728	0.022416	-0.029210	-176.201007	-85.755134	144.966159
44749	9.698846	-0.057435	-0.708088	0.029481	0.021583	-0.027998	-176.344728	-85.766985	145.127391
44750	9.747488	-0.051449	-0.730930	0.035275	0.020183	-0.031890	-176.517894	-85.778166	145.322344
44751	9.691541	-0.048697	-0.670558	0.036907	0.020312	-0.028770	-176.665372	-85.789240	145.492041
44752	9.699976	-0.004776	-0.670801	0.033349	0.021697	-0.028019	-176.810708	-85.801084	145.657976
44753	9.709358	0.028532	-0.599048	0.026477	0.011032	-0.026870	-176.955215	-85.806781	145.819156
44754	9.684480	0.062126	-0.642444	0.020335	0.010901	-0.023713	-177.080129	-85.812260	145.957136
44755	9.741465	0.081323	-0.648052	0.019027	0.008268	-0.022645	-177.197690	-85.816167	146.086354
44756	9.700864	0.048865	-0.635263	0.008999	0.008005	-0.019471	-177.297570	-85.819832	146.192719
44757	9.725630	0.047104	-0.610907	-0.002039	0.003168	-0.018494	-177.397367	-85.820698	146.291742
44758	9.700535	-0.020028	-0.645060	-0.007233	0.000403	-0.017409	-177.493281	-85.819932	146.384805
44759	9.691883	-0.004418	-0.684131	-0.008538	-0.002228	-0.016341	-177.581312	-85.817616	146.468784
44760	9.692305	-0.058165	-0.643089	-0.011776	-0.003056	-0.015129	-177.662986	-85.814795	146.544959
44761	9.716260	-0.077461	-0.671465	-0.006584	-0.004305	-0.012757	-177.722265	-85.811187	146.601209
44762	9.765195	-0.128085	-0.655356	0.009936	-0.002657	-0.014627	-177.787251	-85.808570	146.673126
44763	9.732024	-0.137105	-0.697662	0.011913	-0.000991	-0.010773	-177.819246	-85.806798	146.712460
44764	9.708050	-0.115205	-0.669849	0.018992	-0.003498	-0.016000	-177.889868	-85.803720	146.795231
44765	9.708326	-0.041378	-0.659722	0.018025	-0.004605	-0.014199	-177.946047	-85.799960	146.862482
44766	9.708268	-0.140228	-0.650058	0.017686	-0.006132	-0.014932	-178.009575	-85.795339	146.937390
44767	9.732500	-0.187161	-0.657747	0.031614	-0.001990	-0.017855	-178.085828	-85.793144	147.032065
44768	9.723334	-0.216673	-0.727945	0.051045	-0.001314	-0.017945	-178.152216	-85.791325	147.129007
44769	9.723319	-0.115180	-0.738510	0.060721	-0.006595	-0.018392	-178.215637	-85.786486	147.229607
44770	9.731670	0.000342	-0.731076	0.065534	-0.005100	-0.023941	-178.320957	-85.782584	147.373910
44771	9.797129	0.105715	-0.709803	0.058383	-0.009816	-0.022974	-178.422535	-85.775964	147.510084
44772	9.756543	0.073086	-0.698041	0.046460	0.003212	-0.022593	-178.526141	-85.776765	147.641712
44773	9.732828	0.067908	-0.649229	0.039680	-0.000233	-0.017166	-178.591591	-85.775517	147.730086
44774	9.732980	0.141725	-0.639075	0.029666	-0.000494	-0.013989	-178.638782	-85.774052	147.795498
44775	9.707876	0.173752	-0.684058	0.016071	-0.006846	-0.010588	-178.668122	-85.768925	147.834076
44776	9.755670	0.232936	-0.751307	0.000255	-0.009440	-0.003784	-178.654678	-85.762195	147.821789
44777	9.739550	0.222668	-0.736926	-0.007776	-0.008019	0.003243	-178.589903	-85.756145	147.752826
44778	9.747277	0.291185	-0.761316	-0.014566	-0.015200	0.008412	-178.492291	-85.745936	147.647625
44779	9.747530	0.262218	-0.741731	-0.017028	-0.010015	0.022532	-178.285899	-85.738411	147.430700
44780	9.731183	0.276935	-0.748097	-0.014038	-0.007766	0.032034	-178.006073	-85.731968	147.143079
44781	9.739353	0.315041	-0.751391	-0.012711	-0.009412	0.038153	-177.679847	-85.724353	146.808447
44782	9.739151	0.338573	-0.772812	-0.013924	-0.005087	0.047209	-177.284877	-85.718814	146.405420
44783	9.774140	0.278583	-0.616987	-0.032293	-0.001713	0.056953	-176.824625	-85.714690	145.926788
44784	9.716547	0.238464	-0.662223	-0.047797	-0.002789	0.064489	-176.318329	-85.709396	145.392655
44785	9.707596	0.173649	-0.711889	-0.074029	-0.006910	0.070016	-175.788105	-85.701168	144.819049
44786	9.747444	0.056653	-0.745255	-0.089898	-0.005519	0.073358	-175.243456	-85.693182	144.222255
44787	9.723048	-0.001868	-0.728395	-0.093810	-0.009975	0.080564	-174.651404	-85.681868	143.575872
44788	9.697838	-0.105563	-0.742867	-0.095447	-0.006685	0.081438	-174.054934	-85.671855	142.923905
44789	9.704666	-0.188564	-0.787943	-0.086463	-0.011320	0.079785	-173.472128	-85.658804	142.290738
44790	9.720688	-0.213035	-0.783527	-0.071558	-0.006399	0.078781	-172.887947	-85.648130	141.664802
44791	9.705200	-0.185602	-0.737736	-0.059592	-0.004237	0.075725	-172.319294	-85.638460	141.063001
44792	9.721158	-0.181968	-0.753377	-0.060286	-0.003280	0.070804	-171.790386	-85.629258	140.498960
44793	9.697310	-0.195216	-0.704967	-0.065810	0.000185	0.067979	-171.282772	-85.621798	139.952750
44794	9.697182	-0.200968	-0.705104	-0.079175	-0.000055	0.061191	-170.836133	-85.614533	139.460354
44795	9.712325	-0.295798	-0.710932	-0.100680	-0.002069	0.053708	-170.459354	-85.606465	139.025896
44796	9.702628	-0.386026	-0.740765	-0.101382	-0.001111	0.048788	-170.120889	-85.599297	138.629221
44797	9.717629	-0.451509	-0.767333	-0.094313	0.000693	0.036376	-169.866676	-85.594163	138.321233
44798	9.707894	-0.539936	-0.797125	-0.074875	0.001893	0.028824	-169.656915	-85.590442	138.068870
44799	9.732542	-0.517902	-0.793824	-0.052817	0.004637	0.018871	-169.502148	-85.589208	137.885476
44800	9.700193	-0.511958	-0.783594	-0.030389	0.008612	0.013385	-169.370910	-85.590784	137.737434
44801	9.749741	-0.437186	-0.796512	-0.014817	0.009715	0.005856	-169.281764	-85.593757	137.643250
44802	9.709940	-0.399004	-0.772576	0.006920	0.010959	-0.004830	-169.258784	-85.598564	137.625227
44803	9.727269	-0.343599	-0.754593	0.010889	0.018866	-0.008000	-169.243301	-85.608031	137.617818
44804	9.711310	-0.297468	-0.778340	0.019666	0.020233	-0.009833	-169.236684	-85.618593	137.623532
44805	9.679166	-0.289185	-0.766714	0.024145	0.016513	-0.016399	-169.279142	-85.627768	137.682663
44806	9.753556	-0.271891	-0.713962	0.040413	0.020351	-0.018718	-169.326169	-85.639340	137.754097
44807	9.738599	-0.180231	-0.705848	0.039785	0.025084	-0.023350	-169.400052	-85.654002	137.851992
44808	9.722644	-0.188460	-0.688254	0.044310	0.024798	-0.025902	-169.492870	-85.668819	137.971587
44809	9.715261	-0.155045	-0.672490	0.044326	0.028824	-0.029344	-169.605245	-85.686247	138.111043
44810	9.674601	-0.131026	-0.699106	0.028996	0.022350	-0.029109	-169.735831	-85.699978	138.259708
44811	9.707135	-0.163374	-0.686244	0.030920	0.020538	-0.029259	-169.867884	-85.712618	138.411380
44812	9.788219	-0.192466	-0.698099	0.032231	0.023164	-0.030318	-170.006418	-85.726878	138.569868
44813	9.755250	-0.254852	-0.696907	0.041969	0.025636	-0.033942	-170.162295	-85.742807	138.752561
44814	9.747839	-0.220644	-0.681244	0.053632	0.026298	-0.037712	-170.342904	-85.759489	138.965528
44815	9.724242	-0.196535	-0.650246	0.054624	0.031135	-0.039230	-170.527875	-85.778966	139.184414
44816	9.732983	-0.151589	-0.649283	0.049727	0.030170	-0.041147	-170.735569	-85.798052	139.422287
44817	9.740950	-0.151333	-0.679707	0.058485	0.031236	-0.039244	-170.922421	-85.817460	139.644528
44818	9.725690	-0.085912	-0.651231	0.043161	0.020730	-0.035563	-171.105932	-85.830587	139.854371
44819	9.725150	-0.099643	-0.700772	0.032814	0.026704	-0.036314	-171.293303	-85.847027	140.062131
44820	9.694292	0.000363	-0.626211	0.033076	0.021023	-0.039857	-171.518543	-85.860583	140.308011
44821	9.653522	0.024958	-0.653846	0.033364	0.014779	-0.035945	-171.720485	-85.870209	140.529899
44822	9.735819	0.113742	-0.624582	0.020023	0.006216	-0.032130	-171.911667	-85.874609	140.734129
44823	9.743531	0.140941	-0.677827	0.006450	0.011084	-0.027954	-172.072053	-85.881341	140.897767
44824	9.726791	0.088657	-0.693029	-0.017235	0.008775	-0.028624	-172.255095	-85.886831	141.072430
44825	9.734731	0.032533	-0.684445	-0.024024	0.009057	-0.022947	-172.396454	-85.892043	141.201139
44826	9.733163	-0.127247	-0.756754	-0.012004	0.010693	-0.018516	-172.495327	-85.897799	141.294419
44827	9.724955	-0.166886	-0.753356	0.004231	0.014265	-0.017087	-172.569150	-85.905447	141.371026
44828	9.717389	-0.189664	-0.697982	0.030798	0.012149	-0.018626	-172.643413	-85.912020	141.464218
44829	9.686230	-0.119504	-0.604014	0.050259	0.012530	-0.014948	-172.676812	-85.918528	141.525716
44830	9.694609	-0.077100	-0.605267	0.044396	0.006440	-0.011616	-172.693657	-85.921336	141.569153
44831	9.767726	-0.021238	-0.646583	0.029816	0.006735	-0.009649	-172.701179	-85.924152	141.595367
44832	9.719086	0.003980	-0.641919	0.008097	0.006352	-0.010196	-172.727658	-85.926805	141.627612
44833	9.784663	-0.019875	-0.587906	-0.007115	0.007068	-0.005698	-172.724839	-85.929546	141.622097
44834	9.710485	-0.108202	-0.648730	-0.029475	0.011389	-0.010897	-172.773407	-85.935111	141.654904
44835	9.718531	-0.165805	-0.640072	-0.013288	0.007490	-0.010009	-172.808578	-85.938390	141.683059
44836	9.702018	-0.247561	-0.635083	-0.009418	0.003886	-0.010290	-172.848516	-85.939643	141.718736
44837	9.718235	-0.236127	-0.649869	0.014874	0.002057	-0.012412	-172.891811	-85.939977	141.771653
44838	9.701829	-0.162358	-0.696301	0.026876	0.003979	-0.011704	-172.922227	-85.941380	141.818630
44839	9.702436	-0.144145	-0.644092	0.032685	0.002584	-0.015580	-172.979702	-85.942253	141.897207
44840	9.710277	-0.146289	-0.677290	0.033330	0.001889	-0.014385	-173.030019	-85.942648	141.967844
44841	9.694019	-0.127688	-0.682912	0.038149	-0.004351	-0.016733	-173.101934	-85.939631	142.060916
44842	9.718653	-0.129994	-0.659243	0.033304	-0.001856	-0.014656	-173.158004	-85.937904	142.137305
44843	9.751558	-0.090660	-0.637499	0.032005	0.003533	-0.020507	-173.255285	-85.939624	142.253757
44844	9.735297	-0.071520	-0.643011	0.020637	-0.002823	-0.020286	-173.364565	-85.937705	142.376214
44845	9.743111	-0.072937	-0.676571	0.011245	0.000504	-0.023125	-173.497205	-85.937822	142.516519
44846	9.735334	-0.067368	-0.642895	0.009641	0.003827	-0.022255	-173.622440	-85.939777	142.648654
44847	9.726891	-0.051414	-0.681535	0.017413	0.004094	-0.022272	-173.741005	-85.941792	142.778616
44848	9.727447	-0.032395	-0.629492	0.010619	0.000649	-0.016866	-173.825398	-85.941568	142.870368
44849	9.719190	0.055633	-0.658170	0.011570	-0.001987	-0.018933	-173.927112	-85.939958	142.979201
44850	9.711042	0.115811	-0.666410	0.003494	-0.004319	-0.012192	-173.982214	-85.936601	143.037496
44851	9.695056	0.178932	-0.641458	-0.009451	-0.007621	-0.007370	-174.007624	-85.931089	143.058509
44852	9.694997	0.179274	-0.642262	-0.014276	-0.009398	0.001895	-173.964277	-85.923991	143.007900
44853	9.702747	0.175467	-0.676626	-0.028175	-0.010068	0.008784	-173.874253	-85.916096	142.901045
44854	9.719157	0.129614	-0.651386	-0.036906	-0.011716	0.014329	-173.747286	-85.906897	142.753602
44855	9.751310	0.048581	-0.672510	-0.039784	-0.011565	0.023723	-173.547013	-85.897186	142.530969
44856	9.743022	0.004885	-0.671613	-0.027809	-0.017386	0.027615	-173.316357	-85.883821	142.284792
44857	9.759363	-0.042986	-0.646875	-0.029703	-0.012397	0.035480	-173.020306	-85.872654	141.971766
44858	9.726973	-0.067170	-0.617855	-0.012519	-0.011721	0.038564	-172.692425	-85.861552	141.636886
44859	9.661726	-0.001660	-0.641514	-0.016437	-0.019611	0.041760	-172.351567	-85.845559	141.284611
44860	9.742588	-0.009498	-0.677831	-0.015464	-0.022800	0.047145	-171.974701	-85.827207	140.898911
44861	9.702148	0.024016	-0.657501	-0.024202	-0.020442	0.049236	-171.585592	-85.809816	140.496601
44862	9.726152	-0.029027	-0.666566	-0.030015	-0.015043	0.049661	-171.195093	-85.795266	140.088856
44863	9.669144	-0.078376	-0.641111	-0.031646	-0.015466	0.050264	-170.803434	-85.780217	139.678357
44864	9.676706	-0.086618	-0.676514	-0.027153	-0.023794	0.054627	-170.390316	-85.759844	139.249558
44865	9.693440	-0.092194	-0.621648	-0.023936	-0.026999	0.056873	-169.965052	-85.737194	138.811257
44866	9.693294	-0.125385	-0.603479	-0.022936	-0.022445	0.059075	-169.522548	-85.716659	138.355389
44867	9.676834	-0.113462	-0.611664	-0.023683	-0.032979	0.057056	-169.113270	-85.690150	137.933786
44868	9.668785	-0.060079	-0.622657	-0.049648	-0.035283	0.059542	-168.710672	-85.661855	137.502561
44869	9.701634	-0.000152	-0.625298	-0.063342	-0.041359	0.059177	-168.332697	-85.629961	137.087046
44870	9.717516	0.004872	-0.644786	-0.095873	-0.048776	0.060084	-167.984500	-85.593610	136.683781
44871	9.741058	-0.048672	-0.656936	-0.124450	-0.044574	0.058087	-167.664374	-85.559564	136.292972
44872	9.779747	-0.080451	-0.756855	-0.143743	-0.050939	0.054615	-167.397805	-85.522344	135.944033
44873	9.680418	-0.152274	-0.795606	-0.146401	-0.048502	0.053570	-167.139511	-85.486477	135.603365
44874	9.677980	-0.273190	-0.843205	-0.135082	-0.045963	0.053059	-166.880669	-85.451990	135.267121
44875	9.645159	-0.325578	-0.797203	-0.120809	-0.040058	0.047162	-166.647421	-85.421410	134.966438
44876	9.612350	-0.405690	-0.730790	-0.096849	-0.043469	0.044214	-166.432078	-85.389275	134.695780
44877	9.724924	-0.420292	-0.779938	-0.075102	-0.042837	0.040969	-166.226698	-85.357847	134.450191
44878	9.789064	-0.354334	-0.864678	-0.072115	-0.036370	0.043330	-165.997768	-85.329622	134.180096
44879	9.805975	-0.218968	-0.912393	-0.087100	-0.033253	0.037451	-165.812883	-85.303855	133.947516
44880	9.763486	-0.271916	-0.956216	-0.104720	-0.031369	0.030250	-165.687416	-85.280114	133.762469
44881	9.784303	-0.466767	-0.990755	-0.099786	-0.022348	0.025307	-165.575204	-85.262002	133.597576
44882	9.699614	-0.652909	-1.013568	-0.079899	-0.015832	0.018787	-165.487864	-85.248464	133.465049
44883	9.721670	-0.775300	-1.035119	-0.016587	-0.007297	0.023928	-165.313486	-85.238731	133.283502
44884	9.690383	-0.781949	-0.953146	0.078840	-0.002812	0.011585	-165.161633	-85.233402	133.177501
44885	9.749873	-0.679211	-0.894952	0.162234	0.002180	0.013761	-164.936939	-85.230350	133.047335
44886	9.772280	-0.421924	-0.769412	0.208755	0.009893	0.009599	-164.701534	-85.232280	132.932185
44887	9.729158	-0.082241	-0.737446	0.199871	0.012464	0.008006	-164.474887	-85.235826	132.822675
44888	9.702008	0.128810	-0.620036	0.150022	0.011909	0.006516	-164.289494	-85.239271	132.723943
44889	9.711996	0.185408	-0.569325	0.078085	0.005542	0.007262	-164.148950	-85.238819	132.631689
44890	9.716907	0.036410	-0.624910	0.006894	0.002261	0.009487	-164.043889	-85.236439	132.531278
44891	9.760349	-0.139407	-0.775979	-0.033398	0.002473	0.007345	-163.973615	-85.234378	132.444210
44892	9.724191	-0.321701	-0.820038	-0.036372	-0.000276	0.005284	-163.926087	-85.231246	132.376655
44893	9.730336	-0.397521	-0.864944	-0.009417	-0.000956	0.004380	-163.868488	-85.227774	132.315890
44894	9.712819	-0.480647	-0.861122	0.040595	-0.002436	0.002594	-163.798891	-85.223871	132.270442
44895	9.715329	-0.392406	-0.797673	0.070560	0.003361	0.004036	-163.689427	-85.222936	132.204626
44896	9.694330	-0.255679	-0.726285	0.086089	0.000077	0.003654	-163.582139	-85.220231	132.147511
44897	9.711895	-0.146194	-0.750478	0.072798	0.003039	0.004617	-163.468545	-85.218958	132.078307
44898	9.745551	-0.054259	-0.769782	0.038600	-0.004694	0.006192	-163.381311	-85.213200	132.014012
44899	9.720696	-0.078584	-0.772997	0.004941	0.004675	0.002186	-163.320042	-85.213241	131.957103
44900	9.669722	-0.170850	-0.810879	-0.016273	-0.003803	0.002348	-163.287894	-85.208594	131.916536
44901	9.731495	-0.358046	-0.832347	-0.016235	0.000238	-0.001095	-163.267964	-85.206588	131.890575
44902	9.707854	-0.364750	-0.783620	-0.009086	0.001175	-0.002334	-163.252615	-85.205442	131.870998
44903	9.716551	-0.350780	-0.765290	-0.001353	-0.002036	-0.006391	-163.264387	-85.203188	131.883659
44904	9.732791	-0.312105	-0.801094	0.002544	-0.001919	-0.006415	-163.275146	-85.201017	131.896969
44905	9.725369	-0.280454	-0.788246	0.012263	-0.003499	-0.006616	-163.283356	-85.197954	131.913862
44906	9.734119	-0.238549	-0.790444	0.006144	0.000421	-0.006893	-163.290565	-85.197146	131.925679
44907	9.726714	-0.206970	-0.777286	0.005511	0.000826	-0.004357	-163.278850	-85.196112	131.919863
44908	9.744068	-0.179706	-0.740683	0.009022	-0.004619	-0.001675	-163.260239	-85.191679	131.907425
44909	9.744095	-0.151824	-0.761558	-0.003948	-0.003860	-0.000258	-163.236862	-85.187418	131.883853
44910	9.735396	-0.165319	-0.780165	-0.005523	-0.000528	0.000632	-163.203588	-85.184847	131.848337
44911	9.735450	-0.137627	-0.800649	-0.004530	0.000288	0.002559	-163.154647	-85.182359	131.797253
44912	9.776351	-0.159679	-0.771489	-0.006093	0.003323	0.007176	-163.071629	-85.180804	131.711488
44913	9.726750	-0.179959	-0.797856	-0.005062	0.008180	0.005660	-162.987296	-85.182061	131.624599
44914	9.742884	-0.198484	-0.791938	-0.004095	0.004654	0.014757	-162.851299	-85.179935	131.486816
44915	9.718116	-0.195823	-0.815100	-0.006020	0.006467	0.014910	-162.710262	-85.178713	131.344359
44916	9.726744	-0.211664	-0.775647	-0.012178	0.006344	0.018076	-162.554173	-85.176885	131.181764
44917	9.734239	-0.216648	-0.808636	-0.011535	0.005638	0.019267	-162.390378	-85.174415	131.012187
44918	9.758926	-0.250249	-0.764040	-0.018054	0.004295	0.017969	-162.242852	-85.171412	130.854807
44919	9.742849	-0.234223	-0.768715	-0.013124	0.009268	0.016432	-162.091142	-85.171387	130.696685
44920	9.734102	-0.277002	-0.765665	-0.007896	0.012016	0.015349	-161.938748	-85.172985	130.540259
44921	9.710578	-0.257257	-0.736347	-0.007621	0.010394	0.008350	-161.833626	-85.174871	130.431292
44922	9.678366	-0.251052	-0.725386	-0.009178	0.013122	0.016693	-161.670745	-85.176770	130.263605
44923	9.686975	-0.266613	-0.685589	-0.014480	0.007233	0.010039	-161.565310	-85.176611	130.150471
44924	9.669626	-0.294582	-0.721624	-0.009242	0.009679	0.012683	-161.435569	-85.177307	130.016006
44925	9.662130	-0.292622	-0.687367	-0.015457	0.005814	0.015561	-161.298010	-85.175347	129.870911
44926	9.653413	-0.307470	-0.705578	-0.023014	-0.000383	0.015772	-161.178354	-85.169962	129.738647
44927	9.685763	-0.288215	-0.736019	-0.018830	-0.002190	0.012477	-161.080836	-85.164136	129.630338
44928	9.726652	-0.283297	-0.727878	-0.023420	-0.005647	0.014748	-160.980122	-85.156050	129.516847
44929	9.701672	-0.308176	-0.731773	-0.027967	-0.005058	0.013580	-160.886958	-85.148431	129.409333
44930	9.709089	-0.312576	-0.765955	-0.028954	-0.006177	0.015376	-160.787282	-85.139907	129.293699
44931	9.691565	-0.340946	-0.803657	-0.013401	-0.009769	0.018724	-160.664735	-85.128726	129.163969
44932	9.725079	-0.305556	-0.782475	-0.002234	-0.001236	0.018043	-160.522688	-85.122323	129.021172
44933	9.716452	-0.292951	-0.821515	0.008133	-0.003529	0.019033	-160.372602	-85.114411	128.877060
44934	9.732584	-0.284697	-0.836826	0.021811	-0.001262	0.019098	-160.211006	-85.107726	128.728466
44935	9.733751	-0.270212	-0.784763	0.028679	0.001586	0.021136	-160.025944	-85.102129	128.559620
44936	9.742609	-0.231435	-0.786361	0.031009	0.004721	0.025732	-159.804566	-85.097275	128.356313
44937	9.692881	-0.253577	-0.812998	0.024777	0.001161	0.024884	-159.598986	-85.090566	128.166946
44938	9.701346	-0.270638	-0.774149	0.017910	-0.001995	0.026572	-159.396522	-85.081813	127.975086
44939	9.733530	-0.280836	-0.783774	0.018022	0.005486	0.027143	-159.172098	-85.076844	127.762056
44940	9.742011	-0.298013	-0.744468	0.014411	0.003150	0.027618	-158.954188	-85.070506	127.552677
44941	9.725512	-0.338661	-0.708556	0.012775	0.003045	0.024499	-158.756316	-85.064634	127.362279
44942	9.699252	-0.381522	-0.763233	0.020629	0.007000	0.024738	-158.544332	-85.060821	127.162420
44943	9.666969	-0.376673	-0.752651	0.029063	0.006504	0.025884	-158.320371	-85.056395	126.956953
44944	9.699146	-0.386764	-0.761940	0.029637	0.002356	0.023066	-158.125627	-85.050339	126.779576
44945	9.700582	-0.344746	-0.729910	0.026785	0.006798	0.025299	-157.907064	-85.046030	126.576835
44946	9.684533	-0.329760	-0.734753	0.014041	0.001624	0.026880	-157.700665	-85.038649	126.378788
44947	9.716965	-0.311642	-0.764892	0.012052	0.000612	0.015573	-157.566108	-85.033085	126.252460
44948	9.699155	-0.368076	-0.781014	0.005598	0.002730	0.018282	-157.415036	-85.028081	126.105090
44949	9.714818	-0.415356	-0.754890	0.011122	0.003238	0.017653	-157.263012	-85.023376	125.958894
44950	9.706310	-0.402614	-0.793275	0.010830	0.005766	0.013473	-157.130911	-85.020978	125.833573
44951	9.690039	-0.413872	-0.777744	0.012044	0.001216	0.008122	-157.040756	-85.017282	125.751962
44952	9.739773	-0.395502	-0.750340	0.022518	0.006376	0.009681	-156.923564	-85.016014	125.648327
44953	9.715330	-0.364492	-0.794085	0.017568	0.001722	0.007494	-156.833763	-85.012747	125.568657
44954	9.666849	-0.367766	-0.768711	0.019895	0.005463	0.004634	-156.751028	-85.012108	125.498102
44955	9.707863	-0.362393	-0.759510	0.015359	0.006068	0.003464	-156.675043	-85.012018	125.432508
44956	9.724151	-0.352830	-0.774073	0.014369	0.004955	0.005262	-156.593043	-85.010953	125.359511
44957	9.723871	-0.381138	-0.753108	0.007854	0.003640	0.003963	-156.524612	-85.009437	125.297272
44958	9.699171	-0.377189	-0.776457	0.003958	0.003842	0.000258	-156.481659	-85.008915	125.257484
44959	9.723942	-0.381322	-0.752097	-0.001155	0.008898	-0.001825	-156.440210	-85.011525	125.215479
44960	9.715545	-0.366888	-0.790340	-0.000577	0.004449	-0.000912	-156.405294	-85.011585	125.181150
44961	9.722829	-0.397601	-0.802717	-0.000516	0.008795	-0.008084	-156.400762	-85.015546	125.177996
44962	9.706349	-0.434988	-0.766237	0.010181	0.007683	-0.002623	-156.361431	-85.017695	125.145423
44963	9.723936	-0.407486	-0.728576	0.008264	0.010107	-0.009925	-156.359800	-85.022772	125.149280
44964	9.706864	-0.405862	-0.784805	0.022216	0.010105	-0.009401	-156.347977	-85.027749	125.151240
44965	9.674732	-0.397722	-0.774025	0.029654	0.008487	-0.006451	-156.317129	-85.031149	125.138640
44966	9.701336	-0.329080	-0.738504	0.029651	0.008484	-0.006451	-156.287488	-85.034595	125.126991
44967	9.735157	-0.291675	-0.716001	0.021221	0.008688	-0.003877	-156.245520	-85.037509	125.097945
44968	9.726502	-0.304916	-0.733407	0.007619	0.010205	-0.003669	-156.207046	-85.041214	125.064760
44969	9.732351	-0.380164	-0.776657	0.000820	0.011414	-0.009154	-156.201490	-85.046806	125.060294
44970	9.699950	-0.399398	-0.744996	0.005761	0.016364	-0.010695	-156.190069	-85.055363	125.053195
44971	9.714611	-0.460793	-0.769351	0.023253	0.014945	-0.010920	-156.172554	-85.063196	125.050179
44972	9.692697	-0.394115	-0.708510	0.028713	0.011707	-0.011822	-156.167247	-85.069573	125.062415
44973	9.726830	-0.328140	-0.706354	0.025108	0.009678	-0.015071	-156.187859	-85.075615	125.099134
44974	9.727238	-0.299195	-0.725969	0.020224	0.008467	-0.013254	-156.204895	-85.080624	125.128914
44975	9.759597	-0.305513	-0.734808	0.007904	0.008869	-0.014391	-156.233666	-85.086092	125.163680
44976	9.719869	-0.293191	-0.690787	-0.008656	0.007356	-0.012519	-156.265866	-85.090347	125.192072
44977	9.702255	-0.346512	-0.706463	-0.018126	0.003305	-0.015879	-156.333945	-85.093233	125.250805
44978	9.701227	-0.361606	-0.757958	-0.018419	0.005823	-0.020064	-156.422153	-85.098409	125.329797
44979	9.717313	-0.377350	-0.752211	-0.010691	0.001989	-0.016650	-156.494009	-85.100766	125.397484
44980	9.735048	-0.320904	-0.735922	-0.013946	0.001180	-0.015439	-156.563905	-85.102429	125.460668
44981	9.742405	-0.350359	-0.748934	-0.013015	-0.001451	-0.017514	-156.651921	-85.103134	125.542355
44982	9.685506	-0.337026	-0.763110	-0.006509	-0.000132	-0.016209	-156.725842	-85.104266	125.613856
44983	9.676888	-0.349059	-0.781285	-0.001573	0.004524	-0.014022	-156.770063	-85.107331	125.658520
44984	9.694317	-0.320702	-0.744340	-0.002615	-0.000326	-0.012501	-156.819533	-85.107513	125.707718
44985	9.701959	-0.322907	-0.777613	-0.000587	0.005335	-0.012095	-156.849404	-85.110577	125.738261
44986	9.710959	-0.280659	-0.779394	-0.000294	0.002816	-0.007910	-156.861035	-85.111375	125.750815
44987	9.703411	-0.276675	-0.745616	0.003600	0.002624	-0.004202	-156.846879	-85.111219	125.739997
44988	9.712381	-0.235033	-0.747432	0.005574	0.004546	-0.004072	-156.826945	-85.112064	125.724247
44989	9.728694	-0.224677	-0.762006	0.003014	0.006772	-0.001392	-156.784730	-85.113442	125.685169
44990	9.719807	-0.266053	-0.759230	-0.004133	0.005560	0.003562	-156.720649	-85.113093	125.619530
44991	9.719833	-0.266438	-0.758766	-0.009014	0.004346	0.005377	-156.650899	-85.111698	125.544266
44992	9.743198	-0.315836	-0.765719	-0.007334	0.008193	0.008775	-156.549629	-85.111532	125.439460
44993	9.759224	-0.334207	-0.759697	-0.009655	0.004753	0.007910	-156.463097	-85.109745	125.348449
44994	9.709639	-0.354502	-0.785984	0.005682	0.011133	0.007662	-156.353352	-85.111348	125.242621
44995	9.718089	-0.369704	-0.745956	0.009574	0.010940	0.011371	-156.218137	-85.111962	125.113270
44996	9.702100	-0.353203	-0.750709	0.013013	0.002048	0.010066	-156.113982	-85.108209	125.017268
44997	9.679837	-0.288486	-0.691025	0.012372	0.002752	0.008873	-156.014181	-85.105047	124.926245
44998	9.729735	-0.242343	-0.684183	0.004930	0.003765	0.013367	-155.890120	-85.101391	124.805616
44999	9.713437	-0.253673	-0.668856	-0.007445	0.000420	0.011946	-155.790786	-85.096316	124.701309
45000	9.704718	-0.268149	-0.687477	-0.024062	-0.004546	0.009807	-155.728170	-85.089122	124.625676
45001	9.720653	-0.286742	-0.682414	-0.031800	-0.001313	0.013842	-155.635432	-85.082605	124.515969
45002	9.694554	-0.328342	-0.737893	-0.039940	-0.003041	0.013140	-155.558026	-85.075388	124.416359
45003	9.669513	-0.352941	-0.741682	-0.038025	-0.004863	0.012992	-155.484506	-85.067184	124.321827
45004	9.668028	-0.398674	-0.773748	-0.036752	-0.006279	0.015377	-155.401259	-85.057724	124.218185
45005	9.684989	-0.400620	-0.717245	-0.035476	-0.007394	0.014036	-155.327759	-85.047978	124.125075
45006	9.717460	-0.381388	-0.748265	-0.034491	-0.006287	0.012239	-155.262748	-85.039243	124.041036
45007	9.732250	-0.416612	-0.795456	-0.036413	-0.004170	0.008662	-155.213464	-85.032481	123.972327
45008	9.740579	-0.431259	-0.757077	-0.037054	-0.003164	0.003744	-155.192496	-85.027399	123.931021
45009	9.756840	-0.421231	-0.772449	-0.033104	0.000676	0.004009	-155.156500	-85.024258	123.876117
45010	9.699898	-0.409495	-0.786636	-0.025017	-0.001035	0.000705	-155.141010	-85.021011	123.847232
45011	9.708871	-0.368268	-0.789142	-0.023158	-0.006898	0.003997	-155.119682	-85.013911	123.814459
45012	9.725122	-0.358208	-0.804622	-0.020774	0.000583	0.001426	-155.093076	-85.011329	123.776856
45013	9.717528	-0.354977	-0.771173	-0.021765	-0.000532	0.003222	-155.058517	-85.007714	123.730498
45014	9.701555	-0.337544	-0.776434	-0.024621	0.003908	0.005453	-155.001055	-85.005881	123.659708
45015	9.676589	-0.361506	-0.779334	-0.026195	0.007238	0.006342	-154.928625	-85.005549	123.573968
45016	9.659226	-0.388800	-0.815542	-0.025849	0.008751	0.007081	-154.848796	-85.005818	123.480019
45017	9.683622	-0.421339	-0.770477	-0.024513	0.011380	0.006024	-154.766073	-85.007669	123.383980
45018	9.714504	-0.473562	-0.811005	-0.017117	0.006645	0.001241	-154.721727	-85.008254	123.330672
45019	9.681977	-0.493984	-0.780040	-0.010542	0.011703	0.002839	-154.649015	-85.011019	123.252250
45020	9.699472	-0.467038	-0.741890	-0.000756	0.014455	-0.004508	-154.607353	-85.017048	123.211046
45021	9.715876	-0.456560	-0.755776	0.008266	0.009512	-0.002443	-154.561143	-85.019971	123.170166
45022	9.765616	-0.437162	-0.727383	0.010940	0.014464	-0.000829	-154.490712	-85.025093	123.106812
45023	9.733811	-0.401734	-0.736487	0.008378	0.016987	-0.001870	-154.419200	-85.031691	123.041363
45024	9.726993	-0.342526	-0.742343	-0.000466	0.012229	-0.004057	-154.380592	-85.036444	123.003393
45025	9.775318	-0.367371	-0.745652	-0.001805	0.009599	-0.003002	-154.342781	-85.039581	122.965777
45026	9.741794	-0.403843	-0.765963	-0.000643	0.022234	-0.007662	-154.296931	-85.050392	122.920436
45027	9.702055	-0.392231	-0.721012	-0.003372	0.013545	-0.009563	-154.287757	-85.057145	122.910121
45028	9.709844	-0.394353	-0.753161	-0.010821	0.015153	-0.012522	-154.296932	-85.065506	122.914158
45029	9.701697	-0.378503	-0.790567	-0.000747	0.015374	-0.015685	-154.317917	-85.074736	122.934947
45030	9.684216	-0.431793	-0.805544	0.008038	0.016394	-0.013780	-154.320310	-85.084049	122.943022
45031	9.687068	-0.341627	-0.740915	0.015138	0.013271	-0.011558	-154.313336	-85.091196	122.945659
45032	9.696843	-0.310459	-0.669150	0.005067	0.013354	-0.012123	-154.316279	-85.098529	122.952578
45033	9.720952	-0.302421	-0.716399	0.007336	0.013054	-0.011533	-154.313447	-85.105464	122.956177
45034	9.704740	-0.311636	-0.700361	-0.000869	0.007279	-0.008810	-154.317445	-85.108837	122.960741
45035	9.704824	-0.310776	-0.699573	-0.002793	0.009093	-0.008661	-154.315350	-85.113090	122.957955
45036	9.690224	-0.247825	-0.672678	-0.007391	0.005648	-0.006402	-154.313287	-85.115023	122.952686
45037	9.639749	-0.283282	-0.751500	-0.017812	0.003908	-0.003984	-154.306061	-85.115440	122.937466
45038	9.648091	-0.297338	-0.712136	-0.023938	0.007526	-0.000551	-154.272649	-85.116888	122.891218
45039	9.669825	-0.418212	-0.730528	-0.025916	0.005602	-0.000689	-154.245759	-85.117358	122.850314
45040	9.734450	-0.433128	-0.749383	-0.010320	0.005730	0.002992	-154.188358	-85.116991	122.787821
45041	9.710827	-0.412589	-0.720523	0.005974	0.009195	0.004428	-154.101811	-85.118065	122.705609
45042	9.719131	-0.427617	-0.681017	0.018557	0.002857	0.005753	-154.019662	-85.115512	122.634882
45043	9.719828	-0.372540	-0.721487	0.023741	0.001858	0.004401	-153.944601	-85.112761	122.574310
45044	9.712137	-0.369986	-0.687602	0.018900	0.004370	0.006492	-153.853507	-85.110783	122.494803
45045	9.696516	-0.325177	-0.713108	0.007147	0.000309	0.006237	-153.781933	-85.106780	122.427673
45046	9.726784	-0.433401	-0.713493	0.003893	-0.000199	0.003715	-153.729786	-85.103141	122.378625
45047	9.710442	-0.443886	-0.698494	0.006808	-0.000899	0.001772	-153.688357	-85.099580	122.342514
45048	9.708759	-0.516487	-0.709856	0.014556	-0.004420	0.001465	-153.656212	-85.094338	122.319673
45049	9.694075	-0.454481	-0.683785	0.019498	0.000537	-0.000054	-153.614883	-85.092043	122.289931
45050	9.710031	-0.472188	-0.678536	0.028182	-0.005607	-0.002441	-153.601885	-85.087185	122.294143
45051	9.727632	-0.417185	-0.662576	0.031394	-0.008226	-0.007655	-153.624765	-85.082303	122.336290
45052	9.686458	-0.383730	-0.764510	0.018515	0.000031	-0.005712	-153.620120	-85.081172	122.343327
45053	9.563698	-0.400523	-0.791178	-0.010784	-0.005461	-0.017232	-153.715826	-85.080123	122.434723
45054	9.747226	-0.529461	-0.879250	-0.009501	-0.006570	-0.018572	-153.823387	-85.078854	122.538270
45055	9.827211	-0.616021	-0.852372	0.027663	0.003793	-0.017968	-153.874034	-85.082750	122.607280
45056	9.815216	-0.463054	-0.762382	0.073505	0.008309	-0.023477	-153.919875	-85.090353	122.696612
45057	9.788761	-0.219826	-0.666788	0.067616	0.006265	-0.023602	-153.975327	-85.096933	122.791181
45058	9.735683	-0.072435	-0.585859	0.027061	0.008513	-0.022608	-154.042388	-85.104408	122.875101
45059	9.660665	-0.102914	-0.688405	-0.022375	0.001366	-0.012907	-154.099705	-85.105778	122.920113
45060	9.639809	-0.262270	-0.819158	-0.045316	0.009703	-0.011542	-154.138406	-85.111085	122.933948
45061	9.562122	-0.476417	-0.850340	-0.050452	0.014734	-0.013635	-154.176757	-85.119527	122.945177
45062	9.560450	-0.574654	-0.840257	-0.032095	0.003559	-0.020193	-154.278274	-85.123818	123.029658
45063	9.689232	-0.657639	-0.837889	-0.015264	-0.000544	-0.025584	-154.414029	-85.127277	123.157427
45064	9.627466	-0.523007	-0.775989	0.008475	0.002239	-0.032359	-154.570352	-85.133852	123.320241
45065	9.679767	-0.383258	-0.706144	0.006456	-0.003122	-0.036505	-154.768036	-85.138589	123.522653
45066	9.805204	-0.244642	-0.637124	-0.010036	0.002786	-0.034102	-154.944918	-85.145785	123.695452
45067	9.830738	-0.162040	-0.674030	-0.029443	0.009389	-0.029758	-155.087192	-85.155270	123.821285
45068	9.764230	-0.205064	-0.737349	-0.050223	0.010523	-0.035819	-155.276822	-85.166819	123.983766
45069	9.737889	-0.325266	-0.730823	-0.058081	0.006245	-0.032360	-155.461373	-85.175296	124.136964
45070	9.718030	-0.521177	-0.768976	-0.047291	0.013242	-0.033749	-155.630417	-85.187685	124.280467
45071	9.755504	-0.701017	-0.813024	-0.004098	0.012002	-0.029673	-155.752798	-85.198372	124.400726
45072	9.747274	-0.711722	-0.830043	0.053756	0.014467	-0.031001	-155.844744	-85.210702	124.524955
45073	9.742379	-0.561376	-0.772458	0.102757	0.011832	-0.030802	-155.914306	-85.221599	124.654400
45074	9.762211	-0.387348	-0.711422	0.115438	0.016999	-0.032340	-155.973217	-85.235540	124.780938
45075	9.757145	-0.236763	-0.653601	0.100534	0.023563	-0.034276	-156.033958	-85.253371	124.900596
45076	9.725437	-0.170893	-0.682798	0.055991	0.018411	-0.037593	-156.157489	-85.269244	125.057792
45077	9.667543	-0.228601	-0.705957	0.033631	0.022545	-0.039062	-156.291454	-85.287601	125.212507
45078	9.706396	-0.363334	-0.716978	0.023151	0.013900	-0.044661	-156.493595	-85.302660	125.429692
45079	9.615868	-0.468536	-0.690230	0.035772	0.011619	-0.046757	-156.708581	-85.316916	125.666448
45080	9.665490	-0.444161	-0.662076	0.050586	0.001866	-0.052540	-156.981561	-85.327269	125.970471
45081	9.674550	-0.370158	-0.684270	0.048640	0.003949	-0.056125	-157.273657	-85.339359	126.291223
45082	9.684226	-0.278774	-0.654546	0.042462	0.004393	-0.060440	-157.598667	-85.352530	126.642768
