// General information: 
//  MT Manager version: 2022.2.0 
//  XDA version: 2022.2.0 build 7381 rev 124627 built on 2023-07-19
// Device information: 
//  DeviceId: 00B4BB52
//  ProductCode: MTW2-3A7G6
//  Firmware Version: 4.6.0
//  Hardware Version: 2.0.0
// Device settings: 
//  Filter Profile: human(46.1)
//  Option Flags: Orientation Smoother Disabled, Position/Velocity Smoother Disabled, Continuous Zero Rotation Update Disabled, AHS Disabled, ICC Disabled
// Coordinate system: ENU
PacketCounter	Acc_X	Acc_Y	Acc_Z	Gyr_X	Gyr_Y	Gyr_Z	Roll	Pitch	Yaw
51245	9.231702	2.606621	2.204184	-0.238424	-0.078699	-0.050275	54.219242	-69.160615	44.078426
51246	8.979426	2.786920	2.082426	-0.188253	-0.042110	-0.056295	54.216256	-69.147885	43.972027
51247	9.224576	2.824998	2.334414	-0.185695	-0.040876	-0.060483	54.216563	-69.132627	43.863621
51248	9.175442	2.849134	2.466029	-0.186580	-0.032061	-0.064137	54.209018	-69.112888	43.763104
51249	8.931935	2.838581	2.062804	-0.178390	-0.045184	-0.067743	54.224882	-69.095685	43.642492
51250	9.086222	2.961303	2.298785	-0.177797	-0.037282	-0.080613	54.242941	-69.070022	43.519926
51251	8.831679	2.877197	2.305483	-0.176763	-0.013720	-0.086857	54.237900	-69.033369	43.422652
51252	9.164761	3.091902	2.484679	-0.217623	-0.047921	-0.110466	54.271662	-68.997368	43.258772
51253	8.828905	3.236511	2.731453	-0.150959	-0.010118	-0.119000	54.304510	-68.944506	43.136688
51254	8.608001	3.623783	3.232835	-0.226120	0.010020	-0.138072	54.286537	-68.876245	43.022923
51255	8.693913	3.531132	3.234800	-0.354153	-0.057745	-0.143779	54.280895	-68.827718	42.817170
51256	8.613621	3.798731	3.156244	-0.331378	-0.017049	-0.155507	54.249553	-68.760428	42.652968
51257	8.547748	3.982030	3.487971	-0.443804	-0.076846	-0.186258	54.250664	-68.698496	42.384665
51258	8.468750	3.635248	3.107417	-0.552530	-0.088015	-0.210650	54.223410	-68.629361	42.079894
51259	8.445318	3.712463	3.051780	-0.569357	-0.113158	-0.223514	54.225747	-68.562215	41.732752
51260	8.681027	3.653723	3.141309	-0.658244	-0.139426	-0.240008	54.221774	-68.496680	41.337598
51261	8.642696	3.521899	2.892168	-0.655172	-0.157939	-0.251083	54.248807	-68.431604	40.910722
51262	8.694197	3.630740	2.956464	-0.717127	-0.156345	-0.273997	54.257060	-68.355853	40.465761
51263	8.694474	3.337215	3.035380	-0.724578	-0.131255	-0.269981	54.225931	-68.272969	40.058230
51264	8.593225	3.390837	2.752419	-0.742120	-0.184512	-0.281629	54.255850	-68.203135	39.574041
51265	9.089663	3.203642	2.590462	-0.771372	-0.197115	-0.286008	54.284782	-68.134701	39.072499
51266	8.778673	3.024475	2.345958	-0.711122	-0.156720	-0.267309	54.285092	-68.062095	38.638891
51267	9.030612	2.800709	2.287447	-0.729679	-0.196961	-0.269989	54.321084	-68.000938	38.155001
51268	9.317551	2.406492	1.789343	-0.678069	-0.198869	-0.239894	54.363595	-67.955010	37.695931
51269	9.385653	2.395226	1.688184	-0.544168	-0.133028	-0.204065	54.375649	-67.903034	37.352206
51270	9.233239	2.347119	1.667534	-0.463083	-0.095380	-0.180388	54.371712	-67.850186	37.075914
51271	9.269227	2.321941	1.227587	-0.443232	-0.136211	-0.164396	54.411178	-67.817760	36.764799
51272	9.776055	1.921404	0.687618	-0.365364	-0.137329	-0.104181	54.447987	-67.814308	36.504851
51273	9.658960	2.038325	0.747954	-0.172954	-0.038791	-0.060812	54.445999	-67.797702	36.405702
51274	9.449044	1.919324	0.380713	-0.159308	-0.099108	-0.035944	54.501367	-67.813268	36.253199
51275	10.120699	1.765043	0.121300	-0.038732	-0.041675	0.009924	54.522009	-67.830703	36.212688
51276	9.693626	1.729490	-0.302247	0.078954	-0.042712	0.044274	54.584110	-67.864892	36.200354
51277	10.339846	1.595713	-0.680881	0.163217	-0.032636	0.106634	54.631452	-67.924642	36.255963
51278	9.635261	1.695453	-0.781472	0.383964	0.053556	0.126238	54.690422	-67.965228	36.435570
51279	10.123564	2.466990	-0.347375	0.459496	0.052343	0.116558	54.801478	-68.001766	36.605568
51280	9.437408	3.373578	0.770924	0.531096	0.144644	0.104910	54.856388	-68.002498	36.880403
51281	9.107889	3.955440	2.179163	0.315641	0.111016	0.108065	54.824121	-68.015898	37.116093
51282	8.852038	3.583616	2.298470	0.099496	0.039988	0.156255	54.710586	-68.075141	37.305835
51283	9.016559	3.308354	2.328194	-0.012708	-0.002878	0.189644	54.554053	-68.164060	37.472534
51284	9.319226	2.691609	1.619378	-0.020792	-0.009483	0.195613	54.394295	-68.257764	37.637613
51285	9.190749	2.811470	1.913943	0.187109	0.103909	0.215083	54.203479	-68.322457	37.964245
51286	8.874948	2.987204	2.488420	0.104566	0.065212	0.216447	54.007818	-68.400343	38.245047
51287	9.000831	2.661898	2.116101	0.038550	0.043128	0.166937	53.840910	-68.462453	38.454121
51288	9.048549	2.593368	2.117541	0.070141	0.087203	0.107036	53.691050	-68.481711	38.664269
51289	9.024574	2.588422	2.124137	0.060199	0.086353	0.065288	53.572225	-68.481857	38.834915
51290	8.984892	2.727572	2.201705	0.107022	0.096570	0.038995	53.491082	-68.466259	38.993906
51291	9.034138	2.719816	2.314950	0.077921	0.069075	0.023533	53.438790	-68.452902	39.103958
51292	9.276333	2.401906	1.889281	0.088135	0.070852	0.029935	53.384900	-68.441796	39.222043
51293	9.242284	2.616142	2.121450	0.230487	0.140064	0.015870	53.344348	-68.400594	39.413495
51294	9.057386	2.826445	2.147890	0.186125	0.127333	0.025087	53.285697	-68.367855	39.597143
51295	9.058333	2.871472	2.132962	0.221287	0.123715	0.054028	53.226573	-68.349653	39.802985
51296	9.034740	3.249843	2.256711	0.239908	0.104182	0.118684	53.144918	-68.367643	40.044565
51297	9.037524	3.254829	2.170571	0.177449	0.065692	0.166159	53.030169	-68.420541	40.283172
51298	9.079940	3.075432	2.166314	0.176487	0.061405	0.201800	52.887776	-68.490954	40.550825
51299	9.131497	3.023771	2.155192	0.158224	0.070792	0.227899	52.699503	-68.569792	40.856384
51300	9.073098	3.141881	2.149642	0.158147	0.082259	0.240281	52.485057	-68.649830	41.189851
51301	8.782036	3.406357	2.191852	0.129235	0.076762	0.256687	52.243521	-68.738789	41.534416
51302	8.573200	2.768799	2.849350	-0.050321	0.007166	0.157944	52.067438	-68.807040	41.698221
51303	9.266387	2.558224	1.861564	-0.099628	-0.019492	0.082595	51.961864	-68.850517	41.756047
51304	9.066380	2.767767	2.174267	0.063979	0.050016	0.086649	51.865020	-68.871221	41.905012
51305	8.780049	2.808713	2.570368	-0.047116	-0.022030	0.068052	51.805316	-68.908993	41.945897
51306	9.010556	2.617300	2.160302	-0.060261	-0.043713	0.043840	51.785586	-68.943526	41.935870
51307	8.974723	2.744418	2.313482	-0.034225	-0.041512	0.025370	51.795136	-68.968965	41.910442
51308	8.972973	2.698084	2.330907	-0.095022	-0.075672	-0.006523	51.839429	-68.992134	41.810495
51309	9.073568	2.724431	2.229028	-0.092832	-0.062346	-0.024875	51.886269	-69.002281	41.709158
51310	9.030102	2.781896	2.282315	-0.113156	-0.063966	-0.036558	51.934297	-69.007710	41.594098
51311	9.128339	2.787751	2.191386	-0.136912	-0.080058	-0.037029	51.988011	-69.018558	41.458355
51312	9.149317	2.744739	2.099560	-0.112288	-0.065603	-0.026059	52.028936	-69.029235	41.351449
51313	9.100479	2.723660	2.216896	-0.115908	-0.060595	-0.029340	52.064844	-69.036626	41.247682
51314	9.004951	2.740442	2.292749	-0.123116	-0.052834	-0.039895	52.097318	-69.036504	41.143191
51315	8.960081	2.787981	2.325333	-0.144223	-0.072525	-0.055416	52.155050	-69.036242	40.998679
51316	9.324783	2.804520	2.001600	-0.191845	-0.113037	-0.074484	52.251013	-69.041521	40.784033
51317	9.380598	2.625435	1.729693	-0.119046	-0.047175	-0.052818	52.290813	-69.033415	40.674172
51318	9.134294	2.849185	2.231351	-0.044528	-0.003562	-0.029985	52.300936	-69.020380	40.641835
51319	9.201514	2.807725	2.032374	-0.133894	-0.053584	-0.030244	52.319112	-69.024740	40.546014
51320	9.165618	2.670649	1.962551	-0.048443	0.001747	-0.015088	52.307086	-69.016597	40.534994
51321	8.893780	2.870749	2.477026	-0.057510	-0.001328	-0.018498	52.296514	-69.007987	40.516835
51322	9.000582	2.719431	2.219495	-0.138429	-0.045809	-0.053578	52.324234	-68.999051	40.408016
51323	9.093109	2.686780	2.097352	-0.111409	-0.016902	-0.065341	52.343798	-68.974629	40.324485
51324	9.196256	2.794604	2.047073	-0.108602	-0.012746	-0.072891	52.366933	-68.945330	40.238857
51325	9.295927	2.859717	1.962342	-0.082112	-0.012406	-0.042699	52.377183	-68.929597	40.183267
51326	9.216818	2.789505	1.972875	-0.052411	0.003473	-0.010129	52.356279	-68.923096	40.179319
51327	9.096503	2.778772	2.172849	-0.027575	0.018815	0.004028	52.318613	-68.917647	40.208568
51328	9.048428	2.778684	2.230156	-0.047597	0.002227	0.007136	52.286259	-68.919411	40.219847
51329	9.094660	2.741780	2.218435	-0.045042	-0.001908	-0.003216	52.269544	-68.917929	40.215916
51330	9.096777	2.788081	2.144785	-0.042532	-0.004961	-0.007726	52.262055	-68.915477	40.203656
51331	9.121089	2.785946	2.145045	-0.037484	-0.005333	-0.002743	52.253260	-68.915410	40.195877
51332	9.120100	2.775487	2.123097	-0.040284	-0.011214	-0.004024	52.251040	-68.916830	40.179350
51333	9.169641	2.795900	2.058244	-0.034855	-0.001964	0.002056	52.235429	-68.917757	40.180492
51334	9.120166	2.773954	2.124819	-0.022689	0.012525	0.002629	52.209348	-68.913860	40.200343
51335	9.098860	2.804790	2.193641	-0.024145	0.007803	0.000831	52.189533	-68.910805	40.212569
51336	9.092727	2.729929	2.147693	-0.025812	-0.001194	0.001404	52.178891	-68.911168	40.213954
51337	9.096245	2.771763	2.182859	-0.011424	0.001890	-0.005384	52.178965	-68.907375	40.212675
51338	9.119824	2.772477	2.128209	-0.022088	-0.006107	-0.003015	52.180247	-68.907464	40.203567
51339	9.166426	2.749026	2.082851	-0.014323	-0.004697	-0.001981	52.183289	-68.907526	40.197326
51340	9.121211	2.794599	2.118658	-0.002206	0.008020	-0.002550	52.178963	-68.902863	40.206439
51341	9.096248	2.784088	2.152203	-0.009917	0.008389	-0.002428	52.169595	-68.898128	40.216207
51342	9.069724	2.751514	2.195916	-0.004524	0.012475	-0.007416	52.163156	-68.889696	40.226161
51343	9.074321	2.816427	2.221510	-0.016541	0.000467	-0.011537	52.167572	-68.883622	40.217086
51344	9.066935	2.733082	2.152390	-0.012913	-0.005151	-0.011269	52.180488	-68.879640	40.201141
51345	9.072762	2.807926	2.199492	-0.014069	-0.001499	-0.010201	52.187393	-68.874858	40.190912
51346	9.141764	2.776151	2.076843	-0.022159	-0.010755	-0.011188	52.201496	-68.872879	40.168015
51347	9.118046	2.775606	2.131750	-0.003763	0.002587	0.000337	52.199942	-68.871432	40.173187
51348	9.095893	2.796794	2.176826	-0.006658	-0.004001	0.003737	52.201447	-68.873838	40.173316
51349	9.094015	2.776486	2.131897	-0.002918	-0.006054	0.006322	52.205063	-68.878135	40.173464
51350	9.094613	2.760922	2.218398	-0.002730	-0.001244	0.006876	52.202734	-68.880994	40.180116
51351	9.096665	2.794805	2.176157	-0.002808	-0.002492	0.008640	52.200125	-68.885088	40.187004
51352	9.045396	2.752917	2.196653	-0.000200	-0.001426	0.009372	52.197186	-68.889141	40.195864
51353	9.095860	2.771077	2.185334	-0.012255	-0.015755	0.001162	52.211514	-68.894505	40.178794
51354	9.118229	2.749352	2.139949	-0.003762	0.002587	0.000338	52.210042	-68.893058	40.183893
51355	9.075175	2.814653	2.220271	-0.006404	-0.000794	-0.004477	52.215301	-68.890617	40.180138
51356	9.119551	2.771717	2.130370	-0.014274	-0.002926	-0.000830	52.215335	-68.890577	40.177165
51357	9.074107	2.804589	2.198200	-0.001287	0.000624	0.001675	52.216267	-68.890421	40.181191
51358	9.096086	2.770356	2.185305	-0.013221	-0.007295	0.002784	52.218742	-68.893551	40.176249
51359	9.095623	2.772361	2.130403	-0.006795	-0.007034	0.004338	52.223076	-68.897287	40.173244
51360	9.099532	2.813623	2.164677	-0.002942	-0.005526	0.009241	52.223494	-68.902720	40.176820
51361	9.145817	2.791766	2.064291	-0.009549	-0.007751	0.014135	52.218182	-68.911143	40.182464
51362	9.096411	2.756858	2.161758	0.009161	0.007736	0.011610	52.207802	-68.912993	40.205046
51363	9.052590	2.811189	2.220080	-0.003851	0.004718	0.012027	52.193030	-68.916085	40.224328
51364	9.121599	2.765197	2.130077	-0.005274	0.002311	0.014304	52.178284	-68.921055	40.242723
51365	9.073910	2.764907	2.185799	0.001310	0.005067	0.012333	52.165768	-68.924157	40.262756
51366	9.075219	2.773841	2.208334	-0.013114	-0.003732	0.005100	52.162009	-68.927084	40.264562
51367	9.097596	2.751597	2.163471	-0.006495	0.001337	0.007211	52.154058	-68.929175	40.274907
51368	9.074060	2.750208	2.218744	-0.003785	0.003119	0.003260	52.149278	-68.928861	40.283536
51369	9.048670	2.741967	2.196863	-0.011838	-0.007200	-0.003578	52.158124	-68.929069	40.272598
51370	9.074455	2.762750	2.186265	-0.011738	-0.006483	-0.008263	52.170575	-68.926917	40.257878
51371	9.048500	2.742942	2.196346	-0.009028	-0.004701	-0.012215	52.185959	-68.922335	40.241658
51372	9.050665	2.776512	2.208445	-0.019380	-0.011095	-0.026840	52.216358	-68.913388	40.203008
51373	9.098533	2.789974	2.120280	-0.015643	-0.013155	-0.024260	52.248807	-68.906308	40.164433
51374	9.121299	2.780406	2.097036	-0.008870	-0.005586	-0.025672	52.277640	-68.895943	40.133911
51375	9.123260	2.814450	2.109280	-0.010181	-0.004435	-0.021077	52.300047	-68.887239	40.109452
51376	9.094209	2.750871	2.139239	-0.006326	-0.002927	-0.016172	52.318551	-68.880241	40.091562
51377	9.120927	2.795111	2.119205	-0.013892	-0.000074	-0.019579	52.332327	-68.870684	40.074074
51378	9.119004	2.774216	2.129457	-0.003529	0.002952	-0.014880	52.344341	-68.862211	40.064858
51379	9.097734	2.819052	2.165170	-0.003417	0.006514	-0.012558	52.350016	-68.853533	40.062487
51380	9.094824	2.788002	2.153149	-0.007560	-0.000528	-0.013340	52.362395	-68.846976	40.050403
51381	9.119217	2.799622	2.120611	-0.002493	-0.000887	-0.008345	52.373461	-68.842796	40.042821
51382	9.070749	2.788476	2.208269	0.000153	0.002498	-0.003525	52.377830	-68.839633	40.044063
51383	9.046578	2.803030	2.176616	-0.002514	-0.000354	-0.005422	52.385612	-68.836592	40.039989
51384	9.094418	2.802795	2.121026	-0.004024	-0.006859	-0.008393	52.402951	-68.834490	40.024757
51385	9.070476	2.789864	2.207634	-0.001511	-0.006505	-0.002972	52.416305	-68.834709	40.015323
51386	9.094208	2.790779	2.152157	-0.009382	-0.008651	0.000672	52.424494	-68.837348	40.006612
51387	9.142358	2.789832	2.096130	-0.004274	-0.010074	-0.000182	52.437932	-68.840077	39.995391
51388	9.095791	2.799987	2.173145	-0.000380	-0.006245	0.008812	52.441114	-68.845571	39.997579
51389	9.071529	2.788387	2.205175	-0.001723	-0.007406	0.009325	52.444309	-68.851687	39.998909
51390	9.098052	2.820459	2.162003	-0.001800	-0.008656	0.011087	52.447454	-68.859057	40.000263
51391	9.119652	2.788128	2.093941	0.004745	-0.004824	0.014966	52.446222	-68.866830	40.010312
51392	9.071912	2.775185	2.181062	0.006144	-0.001883	0.015613	52.441867	-68.873890	40.024587
51393	9.121563	2.782795	2.147117	0.005610	-0.014011	0.018012	52.449171	-68.886257	40.026016
51394	9.074451	2.782047	2.201155	0.005665	-0.012232	0.019172	52.453487	-68.898548	40.030700
51395	9.050985	2.782016	2.200190	0.000287	-0.016874	0.021226	52.458202	-68.913372	40.031634
51396	9.124212	2.777572	2.142622	0.001436	-0.020531	0.020148	52.468995	-68.929004	40.026779
51397	9.125155	2.775931	2.140731	0.005409	-0.018838	0.017442	52.482397	-68.942793	40.021546
51398	9.052680	2.767196	2.172588	0.001644	-0.016255	0.017783	52.490425	-68.955858	40.019782
51399	9.081518	2.805989	2.205252	-0.003621	-0.020707	0.012231	52.505606	-68.967928	40.007102
51400	9.126850	2.774406	2.080764	-0.009121	-0.028915	0.011961	52.527743	-68.982759	39.983615
51401	9.105365	2.781993	2.156096	0.008151	-0.014750	0.017565	52.537810	-68.995175	39.983640
51402	9.133567	2.823086	2.133808	-0.002810	-0.028850	0.021113	52.555233	-69.014142	39.969082
51403	9.156075	2.801924	2.031500	0.004772	-0.028880	0.031508	52.567481	-69.037821	39.964697
51404	9.158452	2.796361	2.083387	0.024383	-0.019728	0.039030	52.573399	-69.061762	39.979145
51405	9.112378	2.793718	2.136235	0.020144	-0.024668	0.049929	52.572703	-69.092358	39.998052
51406	9.115578	2.799268	2.155548	0.026404	-0.026938	0.054982	52.573782	-69.126067	40.018913
51407	9.137419	2.753275	2.062370	0.029949	-0.031007	0.063979	52.573369	-69.165259	40.043520
51408	9.118949	2.766672	2.158346	0.045427	-0.026638	0.074770	52.566777	-69.207867	40.084238
51409	9.169733	2.771994	2.066261	0.029141	-0.045199	0.072774	52.574745	-69.256003	40.099373
51410	9.120958	2.725027	2.082624	0.052907	-0.029092	0.081009	52.569465	-69.302305	40.143244
51411	9.150789	2.748966	2.090717	0.055846	-0.020224	0.081665	52.554337	-69.345788	40.199411
51412	9.152267	2.732723	2.064757	0.052899	-0.027408	0.082110	52.545756	-69.391997	40.246779
51413	9.176252	2.692662	2.048835	0.055221	-0.007336	0.073288	52.522151	-69.427169	40.311588
51414	9.153561	2.677033	2.079958	0.059714	0.004678	0.066991	52.492379	-69.455303	40.385736
51415	9.133721	2.706367	2.091784	0.057313	0.007883	0.063886	52.459984	-69.480874	40.461187
51416	9.112234	2.713684	2.113784	0.058637	0.009000	0.063345	52.427475	-69.505814	40.537573
51417	9.113368	2.697150	2.145328	0.054847	0.008749	0.056693	52.399081	-69.527785	40.607219
51418	9.088804	2.672899	2.155118	0.049515	0.005369	0.056996	52.371469	-69.551086	40.672777
51419	9.091779	2.691255	2.144172	0.044317	0.002199	0.049719	52.351341	-69.572159	40.727140
51420	9.116435	2.687962	2.087913	0.040205	-0.003581	0.047203	52.338324	-69.594134	40.771416
51421	9.120422	2.704518	2.130895	0.037514	-0.006425	0.045322	52.328805	-69.616222	40.810286
51422	9.121828	2.701169	2.129122	0.029511	-0.012607	0.043770	52.323801	-69.639796	40.839463
51423	9.169687	2.685774	2.049011	0.022609	-0.021930	0.044065	52.325781	-69.666736	40.856949
51424	9.145218	2.662124	2.057440	0.034784	-0.008773	0.046333	52.316602	-69.690128	40.893791
51425	9.144663	2.636848	2.066506	0.029216	0.005164	0.035953	52.296787	-69.703900	40.938546
51426	9.147326	2.668903	2.024240	0.016853	0.011062	0.024127	52.273977	-69.710267	40.978962
51427	9.173217	2.675174	2.047075	0.027963	0.026836	0.021638	52.240405	-69.709941	41.037615
51428	9.128754	2.707853	2.116242	0.027607	0.021277	0.025758	52.209666	-69.713448	41.093052
51429	9.149369	2.673738	2.050128	0.022195	0.016683	0.027844	52.179312	-69.719473	41.144749
51430	9.152377	2.691895	2.095589	0.035353	0.022585	0.026739	52.150440	-69.722943	41.202923
51431	9.147862	2.635827	2.094560	0.029964	0.017467	0.025916	52.125375	-69.727803	41.253725
51432	9.126864	2.668526	2.108147	0.030217	0.021749	0.023541	52.097599	-69.730102	41.307591
51433	9.076664	2.649258	2.120276	0.030073	0.018178	0.021240	52.076150	-69.732581	41.354602
51434	9.102370	2.656487	2.142597	0.014460	0.008090	0.004187	52.074507	-69.730931	41.370984
51435	9.153303	2.686010	2.099092	0.003481	-0.004097	0.008987	52.076755	-69.735709	41.376490
51436	9.173494	2.640814	2.064027	0.015332	0.002958	0.012459	52.073999	-69.739606	41.394590
51437	9.128267	2.676472	2.076780	0.012558	-0.001112	0.012359	52.074573	-69.744857	41.407425
51438	9.154316	2.683501	2.097885	0.004570	-0.007245	0.010835	52.079690	-69.751612	41.410560
51439	9.153474	2.672460	2.074751	0.008267	-0.009361	0.013394	52.086921	-69.760235	41.413678
51440	9.180260	2.690893	2.062975	0.014489	-0.008870	0.025383	52.085819	-69.774139	41.429498
51441	9.132142	2.681123	2.094854	0.012898	-0.014835	0.025370	52.090975	-69.790102	41.437654
51442	9.180511	2.664486	2.069682	0.022894	-0.018046	0.031196	52.100382	-69.809865	41.447404
51443	9.155738	2.641923	2.077868	0.014774	-0.024911	0.034337	52.110422	-69.833428	41.451500
51444	9.157213	2.638986	2.075102	0.028891	-0.022926	0.039727	52.121095	-69.858766	41.463559
51445	9.139431	2.692414	2.074520	0.023568	-0.026253	0.040059	52.132346	-69.885390	41.471730
51446	9.159088	2.622352	2.046790	0.025871	-0.029008	0.046035	52.142739	-69.915722	41.482240
51447	9.165535	2.660885	2.077607	0.030975	-0.028229	0.049198	52.151890	-69.947175	41.497162
51448	9.164610	2.636662	2.029975	0.032360	-0.024802	0.052708	52.154339	-69.979049	41.520082
51449	9.145093	2.655025	2.071464	0.037241	-0.029376	0.052432	52.165355	-70.012370	41.536834
51450	9.145296	2.628735	2.078050	0.026840	-0.031189	0.053643	52.171637	-70.046913	41.552301
51451	9.170179	2.612267	2.051518	0.029235	-0.036058	0.048001	52.190668	-70.080575	41.555640
51452	9.151107	2.643095	2.060133	0.026890	-0.032802	0.044913	52.207461	-70.111736	41.559952
51453	9.151549	2.629296	2.034142	0.020204	-0.037262	0.045781	52.225025	-70.144815	41.559346
51454	9.153104	2.613647	2.062647	0.020292	-0.036021	0.044012	52.242993	-70.176698	41.558388
51455	9.175875	2.575617	2.046379	0.016521	-0.035679	0.040314	52.261838	-70.206743	41.554179
51456	9.181342	2.616454	2.022337	0.016690	-0.032652	0.039691	52.277768	-70.235487	41.553194
51457	9.183087	2.613232	2.018578	0.011124	-0.041312	0.036610	52.304313	-70.265826	41.537519
51458	9.204175	2.565378	1.980004	0.019124	-0.035230	0.038086	52.326533	-70.294745	41.531334
51459	9.163753	2.619490	2.033903	0.016767	-0.031434	0.037908	52.342635	-70.322213	41.530189
51460	9.189689	2.613893	2.030018	0.018090	-0.029786	0.040270	52.355279	-70.350215	41.533546
51461	9.212407	2.588063	1.982037	0.019646	-0.026138	0.036221	52.367990	-70.375062	41.537756
51462	9.191114	2.597702	2.002023	0.017214	-0.024119	0.034903	52.378208	-70.398647	41.543154
51463	9.166256	2.575286	2.010361	0.018669	-0.021729	0.032612	52.388301	-70.420316	41.549547
51464	9.193717	2.592441	1.996883	0.012108	-0.025426	0.028846	52.403233	-70.441610	41.546835
51465	9.195286	2.602018	1.961669	0.014548	-0.027988	0.027253	52.424259	-70.463034	41.539119
51466	9.218525	2.563386	2.001206	0.017695	-0.017321	0.029000	52.431903	-70.481565	41.547538
51467	9.174560	2.598352	2.012181	0.009798	-0.022672	0.022873	52.447756	-70.499143	41.542424
51468	9.196597	2.573583	1.965230	0.012762	-0.015049	0.025233	52.453378	-70.515171	41.549987
51469	9.195547	2.549673	1.973841	0.012887	-0.014312	0.020579	52.462552	-70.528787	41.553836
51470	9.152935	2.595405	2.007674	0.014433	-0.010131	0.019432	52.468541	-70.540463	41.562026
51471	9.129347	2.596420	2.007032	0.005346	-0.013042	0.016126	52.476163	-70.551612	41.562938
51472	9.197636	2.545393	1.969630	-0.001214	-0.016724	0.012373	52.488652	-70.562381	41.554725
51473	9.203778	2.598494	1.969795	0.005451	-0.011782	0.014368	52.496459	-70.572291	41.555504
51474	9.206004	2.607562	1.990725	0.000334	-0.012542	0.011226	52.505596	-70.581079	41.551787
51475	9.177082	2.566402	1.956186	0.000119	-0.015071	0.014735	52.514239	-70.592301	41.548442
51476	9.201695	2.550740	1.986798	0.004367	-0.008092	0.015423	52.515799	-70.601446	41.555208
51477	9.181566	2.584210	1.998386	0.000416	-0.010761	0.012365	52.521400	-70.610088	41.555268
51478	9.178470	2.550890	1.985586	-0.000837	-0.010636	0.011141	52.527504	-70.618172	41.554055
51479	9.206896	2.579490	1.995768	-0.003471	-0.011127	0.013344	52.530381	-70.627386	41.554642
51480	9.230032	2.565667	1.971984	-0.003451	-0.011648	0.010447	52.536991	-70.635508	41.551307
51481	9.183739	2.579592	1.994363	0.007947	-0.012053	0.016804	52.544179	-70.646617	41.554256
51482	9.231588	2.574817	1.937050	-0.005136	-0.016583	0.016240	52.550477	-70.659093	41.550229
51483	9.207856	2.563709	1.968631	0.002396	-0.017874	0.020679	52.558190	-70.673993	41.549252
51484	9.184473	2.564195	1.967779	0.003820	-0.014436	0.024182	52.558955	-70.689334	41.556525
51485	9.214924	2.589841	2.031602	0.007073	-0.022194	0.030825	52.564878	-70.710354	41.560285
51486	9.213186	2.578331	1.952234	0.001122	-0.034120	0.035924	52.578008	-70.737892	41.552820
51487	9.278951	2.516431	1.836566	0.007967	-0.025624	0.040189	52.579581	-70.764365	41.561727
51488	9.213957	2.537562	1.989896	0.035759	-0.010111	0.044181	52.573010	-70.787300	41.596146
51489	9.172432	2.581368	2.022828	0.011392	-0.030354	0.046207	52.576684	-70.818163	41.604906
51490	9.262758	2.528011	1.873951	0.006445	-0.027542	0.045350	52.574859	-70.847699	41.616507
51491	9.292267	2.541463	1.914847	0.040278	-0.015251	0.058928	52.562478	-70.879089	41.659777
51492	9.309724	2.652084	1.990747	0.049616	-0.038047	0.099673	52.544439	-70.936995	41.714705
51493	9.343368	2.499675	1.860499	0.033176	-0.046865	0.124512	52.503058	-71.009213	41.784318
51494	9.389845	2.428470	1.853598	0.055340	-0.014499	0.142984	52.412446	-71.078544	41.919404
51495	9.258654	2.541168	1.804380	0.080493	0.006955	0.168658	52.280459	-71.151891	42.113373
51496	9.199263	2.562319	1.978954	0.104957	-0.022646	0.187462	52.181337	-71.244051	42.287355
51497	9.292757	2.435963	2.044578	0.078980	-0.043585	0.192862	52.088181	-71.345886	42.439208
51498	9.363168	2.416764	1.764562	0.053801	-0.027430	0.217986	51.931206	-71.453300	42.643099
51499	9.271213	2.398084	1.797307	0.125595	0.011803	0.211117	51.767657	-71.543518	42.897164
51500	9.249336	2.512070	2.006912	0.117838	0.010637	0.202551	51.608516	-71.630104	43.141786
51501	9.363278	2.406418	1.901498	0.070665	-0.000520	0.209804	51.427516	-71.723658	43.380818
51502	9.354576	2.326910	1.714519	0.090747	0.035523	0.220288	51.195616	-71.808754	43.685448
51503	9.477259	2.385924	2.019749	0.140460	0.043914	0.243435	50.952658	-71.900727	44.031520
51504	9.306274	2.530246	1.985070	0.097455	0.031861	0.280811	50.656745	-72.013178	44.407185
51505	9.261814	2.302722	2.005070	0.059433	0.023817	0.283729	50.342354	-72.129196	44.779116
51506	9.261448	2.247183	1.939848	0.067227	0.023303	0.268310	50.046547	-72.238037	45.135997
51507	9.077588	2.272056	1.990254	0.083140	0.028700	0.254292	49.764659	-72.338155	45.487614
51508	9.311896	2.259992	2.180300	0.054873	-0.006893	0.243889	49.524290	-72.446484	45.778490
51509	9.265369	2.259210	1.984377	0.002844	-0.001848	0.239142	49.249262	-72.550421	46.074261
51510	9.112617	2.173420	1.976371	0.014018	0.001115	0.210700	49.007563	-72.640571	46.341675
51511	9.315330	2.159097	1.981018	0.002750	-0.018855	0.187591	48.812305	-72.727901	46.553531
51512	9.209615	2.236041	1.974571	-0.017142	0.013685	0.171639	48.578116	-72.795877	46.794148
51513	9.194676	2.102672	1.951047	-0.039101	-0.029789	0.142334	48.425813	-72.867480	46.935779
51514	9.502542	2.153663	1.888248	-0.042610	-0.011628	0.138309	48.250180	-72.930384	47.099685
51515	9.306569	2.125735	1.915942	-0.020470	0.011832	0.146138	48.043333	-72.987440	47.309433
51516	9.349037	2.192712	1.982680	-0.030041	-0.007123	0.151801	47.849069	-73.054024	47.500242
51517	9.252342	2.041361	1.841269	-0.060006	-0.003361	0.137814	47.648433	-73.112970	47.679681
51518	9.135139	1.916933	1.745367	-0.042413	0.010420	0.106172	47.478044	-73.153103	47.838021
51519	9.146668	1.961496	1.802223	0.011738	0.015199	0.068846	47.379021	-73.175471	47.954169
51520	9.209570	2.011068	1.933756	0.015046	0.013221	0.042127	47.318943	-73.187356	48.031621
51521	9.240337	2.048028	1.913142	-0.003020	0.016977	0.019548	47.272045	-73.188203	48.084467
51522	9.334378	2.020831	1.889952	0.002566	0.018698	0.010594	47.237683	-73.184653	48.127583
51523	9.298379	2.090852	1.970748	0.008383	0.026621	0.010676	47.195337	-73.177997	48.182500
51524	9.182033	1.987844	1.951778	-0.005043	0.014127	-0.002793	47.180251	-73.170585	48.200926
51525	9.207971	1.995608	1.973925	0.001250	0.003712	-0.025765	47.212576	-73.157520	48.173562
51526	9.346041	2.098226	1.939544	-0.001657	-0.002939	-0.032618	47.261449	-73.144206	48.127189
51527	9.344537	2.089632	1.972082	-0.002708	0.001234	-0.028746	47.298654	-73.130837	48.092352
51528	9.361112	2.057407	1.905689	-0.007650	0.002471	-0.030701	47.333992	-73.116211	48.056529
51529	9.417163	2.106507	1.905707	0.005775	0.009598	-0.030851	47.367019	-73.098696	48.031132
51530	9.375050	2.147900	1.973813	0.000247	0.007409	-0.024749	47.392314	-73.084651	48.010528
51531	9.357618	2.065943	1.853312	-0.017836	0.007253	-0.020368	47.401614	-73.072459	47.995787
51532	9.328724	2.038737	1.898617	0.011922	0.022799	-0.027431	47.415638	-73.051312	47.993955
51533	9.242618	2.108606	2.013157	-0.002377	0.018438	-0.031963	47.433010	-73.029895	47.980033
51534	9.280825	2.062790	1.924959	-0.020153	0.001309	-0.042107	47.476925	-73.010879	47.927731
51535	9.358346	2.098781	1.902775	0.002962	0.016627	-0.043152	47.513892	-72.985429	47.896514
51536	9.313404	2.131074	1.949603	-0.008784	0.013629	-0.044174	47.549699	-72.960752	47.859491
51537	9.303658	2.081280	1.950414	-0.028965	0.013721	-0.052498	47.583962	-72.932462	47.811960
51538	9.332459	2.125553	1.931072	-0.025223	0.026833	-0.054333	47.604732	-72.898374	47.780803
51539	9.357036	2.137139	1.955382	-0.025062	0.025410	-0.062901	47.637934	-72.861153	47.736704
51540	9.350745	2.121752	1.914631	-0.029691	0.031889	-0.061531	47.657968	-72.822057	47.703626
51541	9.303990	2.143693	1.996363	-0.027867	0.037312	-0.064441	47.674899	-72.779582	47.674858
51542	9.296687	2.116922	1.988772	-0.029561	0.033125	-0.063301	47.695279	-72.739253	47.641482
51543	9.295544	2.133954	1.959821	-0.036084	0.029216	-0.069834	47.724960	-72.697605	47.594416
51544	9.346935	2.164597	1.973405	-0.027260	0.028239	-0.068863	47.759882	-72.656790	47.547172
51545	9.297911	2.176266	2.032553	-0.032520	0.029066	-0.063399	47.783517	-72.617914	47.508561
51546	9.319028	2.178887	1.980161	-0.033805	0.015545	-0.059188	47.819659	-72.586077	47.456090
51547	9.339545	2.169521	1.959594	-0.034213	0.013412	-0.052867	47.850310	-72.557678	47.409094
51548	9.318323	2.197626	2.006097	-0.027046	0.011007	-0.043898	47.877483	-72.534064	47.370068
51549	9.285879	2.162286	1.974529	-0.033946	0.004984	-0.044104	47.908749	-72.512613	47.322575
51550	9.336061	2.180389	1.964131	-0.032461	0.007838	-0.043526	47.936463	-72.490362	47.279719
51551	9.308727	2.177106	1.944155	-0.029857	0.008752	-0.042857	47.963288	-72.467982	47.239328
51552	9.281671	2.160927	2.011454	-0.038562	0.010943	-0.045604	47.985671	-72.443644	47.198387
51553	9.252123	2.147869	1.969557	-0.037386	0.005813	-0.055220	48.026914	-72.417114	47.138337
51554	9.229766	2.165024	2.048491	-0.039100	0.013070	-0.063485	48.067495	-72.384327	47.077968
51555	9.251017	2.168373	1.995242	-0.049412	0.007899	-0.074795	48.122253	-72.348622	46.996482
51556	9.276177	2.193093	1.986118	-0.056749	0.008454	-0.084934	48.184201	-72.308410	46.903051
51557	9.219882	2.163640	2.010308	-0.053523	0.011792	-0.098083	48.258591	-72.261215	46.798445
51558	9.243522	2.178897	2.034265	-0.070932	0.012895	-0.113326	48.339434	-72.207093	46.676590
51559	9.238549	2.178553	2.015088	-0.077898	0.015008	-0.132712	48.435458	-72.143747	46.534524
51560	9.265771	2.241966	1.964706	-0.082283	0.020734	-0.144584	48.534734	-72.073118	46.386379
51561	9.292120	2.281029	2.034343	-0.089825	0.022097	-0.149072	48.631865	-71.999907	46.235851
51562	9.362490	2.306241	1.971941	-0.097741	0.024053	-0.140363	48.711088	-71.929691	46.099360
51563	9.336743	2.329898	1.999218	-0.080224	0.029103	-0.116057	48.764559	-71.867927	46.000441
51564	9.331012	2.316715	2.013369	-0.072643	0.015652	-0.105163	48.827293	-71.815963	45.896342
51565	9.277353	2.308868	2.027983	-0.071816	0.016026	-0.090772	48.872804	-71.769978	45.810815
51566	9.271237	2.295389	1.986781	-0.068206	0.015947	-0.084289	48.913039	-71.726860	45.733027
51567	9.297030	2.318452	2.033475	-0.059496	0.016516	-0.074671	48.946038	-71.687609	45.668066
51568	9.268986	2.316927	2.014834	-0.054535	0.018063	-0.065822	48.969889	-71.651648	45.615755
51569	9.267199	2.321734	2.017517	-0.055091	0.012405	-0.061757	48.995768	-71.619506	45.560928
51570	9.263781	2.316205	1.997369	-0.053212	0.004192	-0.059261	49.030712	-71.591579	45.497705
51571	9.291143	2.348896	2.010362	-0.040712	0.006566	-0.041949	49.049820	-71.570185	45.458681
51572	9.265195	2.342789	2.044594	-0.036150	0.001577	-0.034739	49.070100	-71.553837	45.421205
51573	9.240356	2.347873	2.045786	-0.025389	-0.004202	-0.021431	49.088771	-71.545358	45.391893
51574	9.264322	2.345916	2.044963	-0.023673	-0.013197	-0.014310	49.112338	-71.543391	45.358485
51575	9.238185	2.339734	2.022980	-0.022013	-0.006787	-0.011425	49.125025	-71.540208	45.337511
51576	9.283869	2.312179	2.031864	-0.024494	-0.006473	-0.013865	49.138880	-71.535907	45.313844
51577	9.236022	2.331066	2.000755	-0.016681	-0.003090	-0.008894	49.146969	-71.532434	45.300944
51578	9.261152	2.326489	2.054826	-0.021783	-0.003746	-0.012033	49.156768	-71.527902	45.283190
51579	9.257951	2.319391	1.978389	-0.016259	0.000770	-0.014112	49.165931	-71.520719	45.269416
51580	9.261193	2.340426	2.023489	-0.021033	0.004924	-0.016717	49.170147	-71.510908	45.257999
51581	9.259961	2.329365	2.056935	-0.020849	0.008444	-0.014445	49.167095	-71.500708	45.254333
51582	9.284392	2.339235	2.025333	-0.023380	0.009230	-0.014010	49.161349	-71.490456	45.252003
51583	9.234637	2.334368	2.060354	-0.019190	0.012144	-0.018445	49.158928	-71.477136	45.248664
51584	9.256363	2.322730	2.038968	-0.016757	0.009590	-0.020021	49.163228	-71.464145	45.239740
51585	9.235798	2.359487	2.052992	-0.023104	0.009083	-0.024386	49.169143	-71.449396	45.225260
51586	9.233297	2.351133	2.032059	-0.020767	0.007477	-0.020210	49.174066	-71.437114	45.213255
51587	9.256910	2.349376	2.032695	-0.015573	0.009896	-0.015930	49.173792	-71.425726	45.209838
51588	9.255665	2.338250	2.066165	-0.018478	0.006342	-0.013158	49.173615	-71.416926	45.204595
51589	9.252373	2.331308	1.990440	-0.015858	0.007315	-0.012456	49.172627	-71.408010	45.201746
51590	9.255518	2.352031	2.035961	-0.010615	0.009265	-0.011049	49.170838	-71.399030	45.202957
51591	9.255101	2.352749	2.037024	-0.008133	0.008951	-0.008608	49.167891	-71.391172	45.206836
51592	9.252898	2.343522	2.015863	-0.010617	0.009262	-0.011051	49.166110	-71.382191	45.208037
51593	9.225665	2.325258	2.027856	-0.010295	0.014070	-0.010512	49.157466	-71.371592	45.216636
51594	9.251136	2.332977	2.050960	-0.010388	0.012307	-0.011652	49.152576	-71.361209	45.221256
51595	9.277394	2.352871	2.041545	-0.010620	0.009257	-0.011054	49.150543	-71.352180	45.222682
51596	9.227748	2.347526	2.076207	-0.007908	0.011993	-0.009211	49.144776	-71.342973	45.229730
51597	9.228124	2.360169	2.045041	-0.009568	0.008284	-0.005218	49.138115	-71.336836	45.236682
51598	9.227045	2.348427	2.078314	-0.009520	0.007810	-0.008096	49.135563	-71.329680	45.239360
51599	9.229267	2.370953	2.069094	-0.011041	0.005389	-0.005842	49.132470	-71.324357	45.241683
51600	9.253241	2.368291	2.069203	-0.011132	0.003628	-0.006983	49.133123	-71.319251	45.240004
51601	9.228782	2.371734	2.070358	-0.013755	0.002649	-0.007689	49.134033	-71.314155	45.236431
51602	9.248523	2.337079	2.058061	-0.011363	0.000578	-0.006385	49.137797	-71.310451	45.231328
51603	9.226653	2.362499	2.048984	-0.008651	0.003316	-0.004539	49.137280	-71.306469	45.232342
51604	9.248932	2.349911	2.026600	-0.015228	-0.000247	-0.008316	49.142022	-71.302238	45.223869
51605	9.223734	2.341126	2.060010	-0.011045	0.005384	-0.005844	49.138929	-71.296915	45.226137
51606	9.223475	2.341533	2.060706	-0.012378	0.003777	-0.008208	49.140029	-71.291223	45.223232
51607	9.227467	2.374002	2.073618	-0.012289	0.005536	-0.007068	49.137382	-71.285313	45.224308
51608	9.275629	2.368386	2.073274	-0.014912	0.004556	-0.007776	49.135556	-71.279516	45.222958
51609	9.250222	2.373892	2.019958	-0.011326	0.002804	-0.002370	49.131758	-71.276666	45.225833
51610	9.223430	2.354494	2.031180	-0.003555	0.006686	0.005511	49.119021	-71.275826	45.242875
51611	9.202647	2.377017	2.076837	-0.013949	0.001824	-0.003079	49.115768	-71.273039	45.243565
51612	9.249207	2.361076	2.054090	-0.009856	0.005696	-0.001745	49.108717	-71.269426	45.250792
51613	9.246501	2.338996	2.064956	-0.007095	0.007964	-0.002775	49.101211	-71.264465	45.260173
51614	9.223802	2.352072	2.088561	-0.012431	0.004244	-0.005334	49.098513	-71.259843	45.261245
51615	9.251074	2.383644	2.046447	-0.018831	0.004196	-0.006835	49.093579	-71.254537	45.260761
51616	9.272503	2.358678	2.057004	-0.006780	0.012769	-0.002230	49.079817	-71.248059	45.276936
51617	9.227320	2.384486	2.103563	-0.011329	0.002798	-0.002375	49.076046	-71.245212	45.279761
51618	9.270430	2.348744	2.036320	-0.005994	0.006518	0.000185	49.068045	-71.242125	45.290330
51619	9.249534	2.371214	2.082388	-0.003104	0.012775	0.004319	49.048873	-71.238427	45.314442
51620	9.196744	2.344755	2.072212	-0.012672	0.003892	0.002157	49.038217	-71.237178	45.323773
51621	9.247624	2.360567	2.061790	-0.005995	0.006517	0.000185	49.029935	-71.234038	45.334608
51622	9.225020	2.373272	2.085307	-0.007376	0.005382	0.000698	49.022034	-71.231597	45.344234
51623	9.249934	2.382295	2.053157	-0.007376	0.005382	0.000698	49.013841	-71.229104	45.354111
51624	9.200614	2.375938	2.087053	-0.004931	0.002845	-0.000875	49.012314	-71.226935	45.358486
51625	9.224697	2.372897	2.087161	-0.013639	0.006621	-0.002544	49.002547	-71.222573	45.366303
51626	9.222031	2.350835	2.097752	-0.008885	0.000259	-0.003952	49.005447	-71.220045	45.363609
51627	9.251183	2.392174	2.077561	-0.013956	0.001813	-0.003091	49.002213	-71.217253	45.364263
51628	9.222602	2.363329	2.066193	-0.018000	-0.002532	-0.007311	49.007150	-71.214321	45.353902
51629	9.271753	2.369660	2.033134	-0.011473	0.001503	-0.000643	49.003030	-71.212703	45.357040
51630	9.272609	2.367156	2.088133	-0.011334	0.002792	-0.002381	48.999570	-71.209902	45.359581
51631	9.220677	2.353158	2.045175	-0.007657	0.002799	0.004171	48.990673	-71.209880	45.370040
51632	9.199896	2.375500	2.090713	-0.006226	0.003465	0.000779	48.985795	-71.208193	45.377171
51633	9.248407	2.369178	2.089695	-0.017316	-0.007846	0.000857	48.988554	-71.210739	45.369484
51634	9.247597	2.371024	2.035287	-0.006327	0.004401	0.006538	48.976063	-71.211189	45.384595
51635	9.198513	2.364099	2.068696	-0.004423	-0.005987	0.005010	48.979254	-71.214832	45.384219
51636	9.247186	2.357589	2.067156	-0.008291	-0.006815	0.003073	48.983720	-71.218002	45.380231
51637	9.224950	2.369801	2.089562	-0.004474	-0.005520	0.007889	48.983107	-71.222715	45.383881
51638	9.248564	2.368339	2.034018	-0.004614	-0.006810	0.009625	48.982430	-71.228715	45.387550
51639	9.249767	2.365087	2.088309	0.001142	0.000781	0.006982	48.978020	-71.230666	45.398607
51640	9.223194	2.345311	2.098824	-0.005490	-0.002318	0.006070	48.975057	-71.233440	45.404160
51641	9.249203	2.366222	2.033574	-0.004336	-0.004231	0.006151	48.974791	-71.236916	45.407430
51642	9.228710	2.388066	2.078522	0.000952	-0.000044	0.011597	48.966502	-71.241223	45.422507
51643	9.247217	2.342292	2.043179	-0.004477	-0.005522	0.007887	48.965881	-71.245934	45.426183
51644	9.249191	2.351357	2.065281	0.007635	0.002586	0.009630	48.960244	-71.248401	45.442500
51645	9.225183	2.353580	2.065797	-0.000381	-0.001648	0.009230	48.955547	-71.252238	45.452895
51646	9.201183	2.355831	2.066255	-0.002866	-0.001338	0.006781	48.952041	-71.254950	45.460609
51647	9.249865	2.349031	2.064908	-0.004478	-0.005523	0.007886	48.951415	-71.259663	45.464348
51648	9.252683	2.370425	2.054509	0.002065	-0.004184	0.007655	48.953386	-71.263823	45.469261
51649	9.250390	2.347568	2.064220	-0.001624	-0.001494	0.008005	48.949134	-71.267074	45.478437
51650	9.227189	2.362218	2.032282	0.000822	-0.004029	0.006431	48.951551	-71.270647	45.482125
51651	9.228346	2.359227	2.086528	-0.004199	-0.002941	0.004414	48.951646	-71.272890	45.485167
51652	9.228526	2.358683	2.086348	-0.000331	-0.002117	0.006350	48.951055	-71.275708	45.491335
51653	9.251187	2.345216	2.063322	-0.000331	-0.002117	0.006350	48.950159	-71.278475	45.497804
51654	9.251381	2.344628	2.063119	-0.002957	-0.003097	0.005638	48.950102	-71.281354	45.501819
51655	9.253276	2.353957	2.085338	-0.003969	0.000107	0.003821	48.947090	-71.282194	45.508316
51656	9.225660	2.336892	2.041353	-0.002817	-0.001806	0.003902	48.947393	-71.283837	45.512036
51657	9.207572	2.381408	2.076526	-0.009080	-0.000561	0.000662	48.945816	-71.283565	45.513928
51658	9.251744	2.343207	2.063108	-0.006635	-0.003096	-0.000912	48.950924	-71.283614	45.510266
51659	9.251767	2.342982	2.063262	0.001513	0.005116	0.004653	48.943749	-71.282931	45.524459
51660	9.230111	2.367876	2.054103	-0.003919	-0.000359	0.000943	48.944862	-71.282751	45.526657
51661	9.225024	2.323370	2.074287	-0.004982	0.003311	0.002005	48.939205	-71.281602	45.535332
51662	9.234404	2.399435	2.066917	-0.005162	-0.000203	-0.000281	48.940767	-71.280835	45.536305
51663	9.229300	2.354970	2.087120	-0.004982	0.003311	0.002005	48.935108	-71.279684	45.544967
51664	9.229280	2.354687	2.087528	-0.007608	0.002331	0.001293	48.930291	-71.278643	45.551195
51665	9.227467	2.344771	2.065613	-0.014052	0.000061	-0.004235	48.930498	-71.276017	45.548121
51666	9.249824	2.331945	2.043211	-0.008711	0.003778	-0.001667	48.926494	-71.273153	45.552824
51667	9.228953	2.354633	2.089030	-0.008480	0.006826	-0.002258	48.919093	-71.268839	45.561255
51668	9.251971	2.354418	2.034685	-0.016258	0.002955	-0.010155	48.921238	-71.262619	45.554898
51669	9.250931	2.342421	2.067639	-0.013734	0.004863	-0.003685	48.914906	-71.258426	45.558933
51670	9.229072	2.367701	2.058970	-0.008572	0.005067	-0.003403	48.911273	-71.254326	45.563328
51671	9.253132	2.364625	2.059168	-0.011160	0.006306	-0.000094	48.900597	-71.251139	45.573555
51672	9.224402	2.335827	2.048246	-0.010918	0.006670	-0.007587	48.898229	-71.244628	45.575195
51673	9.203209	2.359220	2.094565	-0.010268	0.013594	-0.013383	48.893551	-71.232961	45.579666
51674	9.200947	2.350252	2.073645	-0.026220	0.006874	-0.013056	48.888224	-71.224012	45.575171
51675	9.224700	2.348204	2.074056	-0.016021	0.003310	-0.017656	48.898042	-71.214374	45.560761
51676	9.158433	2.397872	2.165622	-0.025007	0.001806	-0.022763	48.910573	-71.203142	45.538137
51677	9.225324	2.361129	2.097711	-0.036853	-0.003735	-0.027998	48.928796	-71.191683	45.502390
51678	9.247205	2.350242	2.075420	-0.039349	-0.003437	-0.030455	48.948206	-71.179098	45.463814
51679	9.221436	2.343020	2.109083	-0.033596	0.004156	-0.033086	48.963823	-71.162463	45.432617
51680	9.218703	2.335890	2.088282	-0.047258	0.008051	-0.042550	48.977391	-71.140322	45.395418
51681	9.240683	2.338796	2.035452	-0.050417	0.015880	-0.049150	48.986113	-71.112330	45.361456
51682	9.219047	2.377676	2.051120	-0.044892	0.017733	-0.058107	49.005749	-71.079817	45.319263
51683	9.245048	2.398260	2.097755	-0.048001	0.013304	-0.050757	49.020709	-71.052095	45.280110
51684	9.219411	2.404522	2.100700	-0.042995	0.014896	-0.041831	49.027031	-71.027682	45.253129
51685	9.216443	2.397871	2.080511	-0.042022	0.009460	-0.044060	49.042807	-71.004299	45.216612
51686	9.214516	2.388357	2.114325	-0.039898	0.004802	-0.039295	49.060721	-70.984769	45.179240
51687	9.214243	2.403586	2.083659	-0.034564	0.008530	-0.036709	49.073814	-70.964908	45.150202
51688	9.214967	2.415870	2.107166	-0.043124	-0.003611	-0.037134	49.097976	-70.949464	45.104258
51689	9.260997	2.402686	2.084521	-0.039220	-0.000560	-0.031156	49.113676	-70.935410	45.069511
51690	9.211745	2.410575	2.086627	-0.028573	0.004707	-0.030000	49.127915	-70.919929	45.042879
51691	9.186728	2.415565	2.088170	-0.041865	-0.001580	-0.031894	49.144112	-70.905934	45.006179
51692	9.231850	2.389840	2.098430	-0.042033	0.013797	-0.036041	49.145739	-70.884423	44.984728
51693	9.202931	2.376316	2.057061	-0.046209	0.024345	-0.047335	49.143648	-70.854020	44.964638
51694	9.230348	2.405955	2.127186	-0.047128	0.028808	-0.050894	49.139595	-70.820447	44.946102
51695	9.227597	2.412701	2.076665	-0.042920	0.033977	-0.051266	49.131567	-70.784730	44.934270
51696	9.253185	2.432898	2.124819	-0.038105	0.029860	-0.048663	49.128930	-70.751730	44.919701
51697	9.202122	2.444873	2.075153	-0.036885	0.032373	-0.040515	49.114801	-70.721275	44.917995
51698	9.222246	2.423105	2.088286	-0.031410	0.034729	-0.046576	49.107723	-70.687354	44.912190
51699	9.196194	2.413421	2.179568	-0.031359	0.039142	-0.038503	49.086280	-70.655231	44.921587
51700	9.195895	2.442105	2.119615	-0.043002	0.033856	-0.051344	49.078755	-70.619575	44.909214
51701	9.191589	2.423525	2.133563	-0.036429	0.037454	-0.047504	49.066163	-70.584192	44.906155
51702	9.190568	2.439638	2.105440	-0.035739	0.029909	-0.043392	49.059171	-70.553461	44.897625
51703	9.192030	2.461810	2.153665	-0.028324	0.027289	-0.037151	49.052682	-70.526376	44.892984
51704	9.213336	2.452106	2.133937	-0.031142	0.025438	-0.033270	49.043047	-70.501705	44.890047
51705	9.234675	2.442340	2.114258	-0.029645	0.027866	-0.035511	49.033372	-70.475112	44.887957
51706	9.210295	2.457372	2.140997	-0.026206	0.041035	-0.037095	49.011627	-70.442927	44.900871
51707	9.181981	2.440657	2.155292	-0.029130	0.035211	-0.038423	48.996429	-70.412316	44.905071
51708	9.203727	2.444142	2.105017	-0.032063	0.049994	-0.040407	48.964064	-70.375327	44.925702
51709	9.177963	2.446882	2.165322	-0.024087	0.052083	-0.043987	48.937291	-70.335963	44.945240
51710	9.155325	2.484784	2.183650	-0.031071	0.044550	-0.042673	48.914631	-70.300038	44.956177
51711	9.173820	2.453533	2.175330	-0.027079	0.046693	-0.042442	48.891180	-70.263367	44.970404
51712	9.173326	2.466185	2.202260	-0.025186	0.037279	-0.038243	48.876098	-70.232091	44.976877
51713	9.173828	2.491560	2.196633	-0.026523	0.035648	-0.040651	48.864433	-70.200349	44.978901
51714	9.170652	2.485296	2.177976	-0.024050	0.033146	-0.042233	48.859179	-70.168908	44.975621
51715	9.170477	2.497722	2.203620	-0.027508	0.022636	-0.033731	48.855311	-70.145060	44.968760
51716	9.189837	2.465570	2.193094	-0.017247	0.024120	-0.027283	48.849139	-70.123472	44.970600
51717	9.165264	2.483159	2.164052	-0.019882	0.023094	-0.028034	48.843150	-70.101910	44.970585
51718	9.185973	2.460542	2.176134	-0.019447	0.028698	-0.032089	48.835287	-70.076523	44.972883
51719	9.163804	2.497610	2.192661	-0.021768	0.031992	-0.035156	48.825066	-70.048536	44.976356
51720	9.139465	2.512069	2.218588	-0.019832	0.024816	-0.026893	48.816224	-70.026853	44.979462
51721	9.185502	2.499373	2.198125	-0.025220	0.021480	-0.026659	48.807694	-70.006492	44.978869
51722	9.184377	2.501460	2.200453	-0.017611	0.017537	-0.029054	48.811004	-69.986625	44.970397
51723	9.160352	2.515409	2.225504	-0.017590	0.021954	-0.020947	48.800387	-69.968553	44.976721
51724	9.156818	2.498055	2.182580	-0.020737	0.011357	-0.022867	48.802800	-69.953686	44.967296
51725	9.157265	2.509034	2.206893	-0.016535	0.018776	-0.019132	48.794676	-69.937594	44.971582
51726	9.155485	2.497543	2.240824	-0.016794	0.013987	-0.019719	48.792984	-69.923091	44.968931
51727	9.155554	2.511951	2.210672	-0.017862	0.017150	-0.021542	48.788507	-69.906571	44.968604
51728	9.150089	2.469002	2.231967	-0.025323	0.019681	-0.027851	48.783613	-69.886414	44.964160
51729	9.151047	2.493834	2.224858	-0.025043	0.019569	-0.038285	48.789423	-69.861766	44.948461
51730	9.150890	2.506350	2.249744	-0.022367	0.020119	-0.040437	48.798633	-69.836018	44.930794
51731	9.150282	2.522505	2.220459	-0.029827	0.024846	-0.042697	48.799973	-69.807475	44.916751
51732	9.123100	2.519067	2.201104	-0.032543	0.019843	-0.048682	48.812066	-69.778274	44.889794
51733	9.144751	2.507314	2.235570	-0.025859	0.024785	-0.046513	48.819604	-69.748112	44.871609
51734	9.124360	2.567592	2.242192	-0.031248	0.021427	-0.046297	48.828046	-69.719340	44.849323
51735	9.141089	2.518038	2.186906	-0.032271	0.026319	-0.046968	48.830513	-69.688400	44.832759
51736	9.142622	2.553582	2.203271	-0.029420	0.029899	-0.049697	48.833521	-69.654965	44.817377
51737	9.115665	2.543410	2.293501	-0.034576	0.029100	-0.052964	48.837472	-69.620392	44.797786
51738	9.134319	2.517063	2.229261	-0.039679	0.027831	-0.059136	48.846504	-69.583664	44.769699
51739	9.114663	2.587285	2.258933	-0.027080	0.026091	-0.049565	48.854694	-69.551690	44.750148
51740	9.110783	2.568708	2.271085	-0.041963	0.013679	-0.051743	48.871189	-69.523483	44.712687
51741	9.157447	2.571469	2.218642	-0.039060	0.019006	-0.053307	48.884370	-69.492556	44.680540
51742	9.130425	2.564805	2.253495	-0.035249	0.018150	-0.052474	48.900138	-69.462343	44.647947
51743	9.155150	2.588703	2.246189	-0.031665	0.014733	-0.048161	48.917167	-69.435241	44.616164
51744	9.129348	2.594637	2.248435	-0.026705	0.012481	-0.044333	48.936054	-69.410671	44.585457
51745	9.150162	2.573262	2.259411	-0.025456	0.012347	-0.043090	48.954192	-69.386654	44.556253
51746	9.174021	2.587400	2.229012	-0.028095	0.011293	-0.043863	48.973061	-69.362728	44.524705
51747	9.100856	2.606842	2.254250	-0.017526	0.019407	-0.035570	48.980040	-69.339302	44.512381
51748	9.143938	2.560406	2.274757	-0.030513	0.015003	-0.044051	48.993361	-69.313895	44.485272
51749	9.145370	2.599410	2.235828	-0.024986	0.021385	-0.044837	49.002962	-69.285716	44.465560
51750	9.119576	2.601337	2.293158	-0.026310	0.021955	-0.043193	49.009798	-69.258063	44.447950
51751	9.144317	2.624804	2.286146	-0.021229	0.021002	-0.041095	49.018210	-69.231650	44.431665
51752	9.115451	2.598331	2.275601	-0.020142	0.020058	-0.035202	49.022767	-69.208165	44.420266
51753	9.091930	2.621823	2.323266	-0.022833	0.019468	-0.033070	49.024019	-69.185793	44.410981
51754	9.088471	2.605804	2.280538	-0.033247	0.016551	-0.037894	49.027682	-69.162461	44.392500
51755	9.113426	2.628860	2.273136	-0.030792	0.012344	-0.040639	49.039903	-69.139494	44.366346
51756	9.109996	2.609355	2.284812	-0.035626	0.019783	-0.040991	49.041529	-69.113606	44.348582
51757	9.108513	2.612200	2.287473	-0.038376	0.017437	-0.040034	49.042955	-69.088982	44.329266
51758	9.111116	2.655988	2.325770	-0.037180	0.015559	-0.039958	49.047407	-69.065127	44.307517
51759	9.104581	2.608679	2.269945	-0.048704	0.015758	-0.046627	49.051230	-69.038281	44.279270
51760	9.105955	2.643670	2.285866	-0.034308	0.018673	-0.045594	49.059266	-69.010817	44.255437
51761	9.078155	2.626542	2.297775	-0.041161	0.012821	-0.043193	49.067278	-68.986557	44.227471
51762	9.102005	2.636712	2.322382	-0.043750	0.011283	-0.046892	49.079413	-68.961301	44.193443
51763	9.151028	2.662235	2.260449	-0.035925	0.012684	-0.045747	49.092972	-68.935983	44.162672
51764	9.098203	2.633698	2.303795	-0.028570	0.009438	-0.034727	49.103928	-68.916682	44.139218
51765	9.095960	2.627262	2.283036	-0.024266	0.015494	-0.039656	49.115004	-68.892946	44.118305
51766	9.097403	2.662069	2.298530	-0.029381	0.016392	-0.041787	49.124479	-68.867976	44.095933
51767	9.117395	2.635491	2.232662	-0.024334	0.013725	-0.040845	49.138568	-68.844382	44.071569
51768	9.044888	2.659462	2.334770	-0.013664	0.018765	-0.042388	49.154890	-68.818259	44.051504
51769	9.098872	2.735075	2.330731	-0.013276	0.004453	-0.032476	49.177519	-68.801768	44.024825
51770	9.113061	2.630798	2.268159	-0.016676	-0.007314	-0.022253	49.201750	-68.794136	43.994422
51771	9.064885	2.641599	2.345631	0.007195	0.007009	-0.014623	49.215975	-68.784423	43.989368
51772	9.066352	2.665570	2.336330	-0.014301	-0.010563	-0.019170	49.242189	-68.779337	43.958293
51773	9.092288	2.691414	2.271995	-0.003834	-0.005849	-0.013135	49.263001	-68.775072	43.939548
51774	9.089396	2.656459	2.312408	0.001072	-0.009308	-0.007529	49.285395	-68.774563	43.922018
51775	9.094223	2.710970	2.315612	0.003394	-0.009869	0.002562	49.299743	-68.778617	43.914596
51776	9.068635	2.689682	2.323655	0.002630	-0.018358	0.017657	49.308926	-68.792427	43.912197
51777	9.043462	2.667554	2.331058	0.012745	-0.021444	0.023644	49.321301	-68.809959	43.912438
51778	9.095322	2.679547	2.373406	0.001860	-0.029070	0.028656	49.331474	-68.832548	43.908505
51779	9.069412	2.651563	2.303555	-0.005531	-0.021434	0.025795	49.331304	-68.851007	43.911195
51780	9.093837	2.637998	2.279111	-0.003963	-0.017707	0.021832	49.331972	-68.866388	43.913877
51781	9.123898	2.687941	2.281587	-0.002650	-0.016074	0.024264	49.328906	-68.882189	43.921281
51782	9.119071	2.622411	2.253668	-0.006292	-0.012719	0.019921	49.324467	-68.894876	43.928006
51783	9.123676	2.661486	2.288791	0.001808	-0.006978	0.018777	49.319006	-68.904897	43.940651
51784	9.099161	2.648493	2.320117	-0.008773	-0.010756	0.018576	49.312222	-68.916266	43.948364
51785	9.098699	2.641815	2.242435	-0.001988	-0.006650	0.014999	49.307857	-68.924520	43.957587
51786	9.078898	2.679339	2.332576	0.003380	-0.003249	0.014817	49.303207	-68.931451	43.970475
51787	9.100872	2.644099	2.318419	-0.012623	-0.012173	0.013623	49.300304	-68.941168	43.971696
51788	9.077984	2.658230	2.286232	-0.000518	-0.004201	0.012779	49.296459	-68.947569	43.981326
51789	9.100805	2.632535	2.294830	-0.005733	-0.006785	0.008309	49.296581	-68.952967	43.983450
51790	9.125444	2.633447	2.239691	-0.003256	-0.006545	0.013737	49.292876	-68.960660	43.991250
51791	9.102671	2.643453	2.261914	0.000588	-0.007345	0.014598	49.291142	-68.969001	43.999292
51792	9.105239	2.660476	2.306545	0.002008	-0.004429	0.015292	49.286543	-68.976578	44.011279
51793	9.103719	2.640685	2.260931	0.000692	-0.003855	0.016946	49.278628	-68.984632	44.026017
51794	9.079014	2.628164	2.292517	0.000689	-0.006065	0.012858	49.277480	-68.991763	44.033498
51795	9.107643	2.669791	2.273390	-0.004471	-0.004690	0.013652	49.270745	-68.998700	44.043688
51796	9.130444	2.643816	2.282271	-0.000311	0.000567	0.013386	49.260998	-69.003580	44.059765
51797	9.105496	2.635507	2.259812	0.003427	-0.001518	0.015983	49.252912	-69.010339	44.076140
51798	9.131302	2.641135	2.281944	0.000793	-0.002577	0.015205	49.245569	-69.017183	44.090318
51799	9.157063	2.646730	2.304289	0.003638	0.003255	0.016594	49.231603	-69.022423	44.113367
51800	9.105688	2.618151	2.291913	0.000164	0.009654	0.011697	49.213469	-69.023165	44.138715
51801	9.109756	2.662070	2.273977	0.006321	0.003847	0.014458	49.202433	-69.027252	44.160054
51802	9.080982	2.604645	2.324599	0.000948	0.000449	0.014640	49.192278	-69.032713	44.177336
51803	9.108418	2.637292	2.283418	0.001212	0.002555	0.008254	49.185832	-69.034591	44.190883
51804	9.133917	2.643445	2.306154	0.001319	0.006046	0.010602	49.173495	-69.036204	44.210729
51805	9.082591	2.611118	2.347986	-0.000159	0.001384	0.008733	49.167116	-69.038728	44.223241
51806	9.132197	2.623419	2.261483	-0.006635	0.001132	0.007096	49.159206	-69.040659	44.233466
51807	9.110056	2.643331	2.307235	0.002688	0.005007	0.006037	49.152996	-69.040660	44.247575
51808	9.084811	2.635713	2.285185	-0.006636	0.001132	0.007095	49.145084	-69.042591	44.257801
51809	9.083050	2.612320	2.294637	-0.006743	-0.000153	0.008832	49.136565	-69.045731	44.268588
51810	9.131805	2.607249	2.294440	-0.009109	0.000899	0.001670	49.132807	-69.045397	44.272849
51811	9.112590	2.663113	2.298876	-0.009485	-0.004700	0.005705	49.130916	-69.048889	44.274753
51812	9.085449	2.632898	2.285893	-0.009109	0.003104	0.005755	49.120663	-69.049497	44.285968
51813	9.085598	2.632202	2.286100	-0.008115	-0.003531	0.005224	49.118705	-69.052341	44.288869
51814	9.086835	2.640702	2.308685	-0.011959	-0.002727	0.004363	49.114778	-69.054533	44.291562
51815	9.108328	2.606192	2.295051	-0.014648	-0.005528	0.002410	49.114090	-69.056904	44.289093
51816	9.086151	2.630414	2.285960	-0.015912	-0.005415	0.001152	49.114085	-69.058712	44.285161
51817	9.158150	2.614296	2.262638	-0.024973	-0.007183	-0.004177	49.115805	-69.058850	44.273621
51818	9.136880	2.647865	2.276493	-0.011693	0.001584	0.002065	49.109402	-69.058430	44.279128
51819	9.110538	2.631254	2.231880	-0.014436	-0.000759	0.003021	49.102837	-69.059278	44.282899
51820	9.085297	2.619570	2.264551	-0.010107	0.007528	0.002201	49.090483	-69.056686	44.295750
51821	9.133899	2.610612	2.319426	-0.015325	0.004957	-0.002269	49.082142	-69.053104	44.300972
51822	9.087054	2.637562	2.311413	-0.014062	0.002638	-0.005099	49.080214	-69.049185	44.300235
51823	9.107132	2.594699	2.275728	-0.019334	0.000524	-0.006659	49.078890	-69.045363	44.295640
51824	9.109829	2.630794	2.235313	-0.014064	0.002636	-0.005100	49.076965	-69.041445	44.294897
51825	9.085362	2.629029	2.290685	-0.013851	0.005208	-0.008571	49.075372	-69.035044	44.293983
51826	9.135569	2.647710	2.281927	-0.019016	0.004378	-0.011868	49.075271	-69.027541	44.288249
51827	9.107872	2.618653	2.269811	-0.013692	0.010436	-0.005044	49.064407	-69.020701	44.297269
51828	9.109604	2.637002	2.316246	-0.011218	0.008462	-0.003705	49.056175	-69.015199	44.305029
51829	9.108344	2.627943	2.294464	-0.007533	0.004631	-0.002284	49.052698	-69.011731	44.309998
51830	9.084907	2.639201	2.317971	-0.008851	0.005201	-0.000631	49.046496	-69.008784	44.317036
51831	9.110040	2.650301	2.286554	-0.010276	0.002285	-0.001332	49.043169	-69.006613	44.320110
51832	9.084733	2.639015	2.318864	-0.009119	-0.001316	-0.002427	49.045922	-69.005336	44.317392
51833	9.106086	2.604801	2.305501	-0.009120	0.003083	0.005750	49.035429	-69.005928	44.328909
51834	9.084863	2.638230	2.319248	-0.006804	-0.006319	-0.000530	49.043293	-69.007350	44.322137
51835	9.108389	2.622084	2.350824	-0.009227	0.001795	0.007484	49.032477	-69.009172	44.333802
51836	9.109388	2.639296	2.264625	-0.016032	-0.008924	-0.001224	49.038672	-69.011273	44.323155
51837	9.083317	2.614344	2.328303	-0.009174	-0.000862	0.000484	49.037739	-69.011065	44.324346
51838	9.107476	2.616464	2.273922	-0.018135	-0.001348	-0.006592	49.039440	-69.007998	44.317221
51839	9.083969	2.628086	2.297285	-0.010012	0.004401	-0.007713	49.040115	-69.002270	44.316054
51840	9.133265	2.637568	2.265615	-0.020667	-0.001123	-0.009111	49.042575	-68.998028	44.306563
51841	9.108755	2.640125	2.266206	-0.014183	-0.000864	-0.007465	49.046550	-68.994384	44.299390
51842	9.085301	2.647365	2.344127	-0.013810	0.006939	-0.007401	49.042177	-68.987854	44.301426
51843	9.131475	2.629609	2.244759	-0.016661	0.001104	-0.008807	49.043831	-68.982892	44.295262
51844	9.108029	2.636731	2.322737	-0.010016	0.006595	-0.003625	49.038330	-68.978125	44.300835
51845	9.082491	2.629929	2.301015	-0.015451	0.001443	-0.004638	49.036224	-68.974843	44.299438
51846	9.131906	2.634795	2.323951	-0.015186	0.005760	-0.006928	49.031932	-68.968960	44.300543
51847	9.056604	2.619271	2.334786	-0.016240	0.008448	-0.011657	49.028348	-68.960009	44.300249
51848	9.105612	2.629225	2.303820	-0.025314	0.006664	-0.017007	49.027079	-68.949427	44.291897
51849	9.079630	2.623478	2.282685	-0.021254	0.008441	-0.019611	49.028381	-68.937031	44.283415
51850	9.054647	2.622556	2.338687	-0.021151	0.009725	-0.021348	49.030283	-68.923420	44.274219
51851	9.055822	2.646807	2.330632	-0.037193	-0.003625	-0.030788	49.046856	-68.910716	44.239570
51852	9.104597	2.657953	2.299314	-0.023852	0.004712	-0.027414	49.058711	-68.896362	44.218046
51853	9.154435	2.678000	2.290587	-0.029500	-0.003029	-0.024971	49.073307	-68.885944	44.190237
51854	9.099392	2.620625	2.264381	-0.020323	0.000047	-0.021352	49.086482	-68.875961	44.169462
51855	9.103730	2.671598	2.323998	-0.013677	0.005546	-0.016156	49.091944	-68.866140	44.161198
51856	9.123503	2.634537	2.234067	-0.020172	0.005266	-0.017814	49.095901	-68.855729	44.150397
51857	9.123919	2.640274	2.312267	-0.013421	0.009860	-0.018445	49.098899	-68.843302	44.145133
51858	9.100667	2.666521	2.304943	-0.023565	0.012939	-0.024442	49.098736	-68.827141	44.136663
51859	9.096840	2.636592	2.293162	-0.018292	0.015067	-0.022867	49.097403	-68.810854	44.132668
51860	9.097841	2.660771	2.285818	-0.014543	0.012989	-0.020266	49.098302	-68.796483	44.128602
51861	9.098944	2.680331	2.332669	-0.011957	0.012311	-0.020660	49.101524	-68.782181	44.123512
51862	9.072039	2.661011	2.343297	-0.009632	0.011709	-0.010572	49.097293	-68.772489	44.127967
51863	9.068679	2.630118	2.330863	-0.007148	0.009746	-0.009230	49.095093	-68.764100	44.131755
51864	9.097232	2.682867	2.336431	-0.008367	0.011596	-0.009311	49.090502	-68.754996	44.137374
51865	9.042447	2.624619	2.310515	-0.011259	0.004015	-0.011916	49.094930	-68.747598	44.131546
51866	9.096233	2.684616	2.338308	-0.013541	0.008548	-0.016728	49.097924	-68.736426	44.125847
51867	9.093643	2.667874	2.294225	-0.013391	0.011574	-0.017282	49.097887	-68.723873	44.123311
51868	9.093765	2.678320	2.318466	-0.011818	0.015324	-0.021223	49.098655	-68.708212	44.121059
51869	9.116286	2.668799	2.297205	-0.015932	0.011785	-0.019813	49.099345	-68.694469	44.116534
51870	9.091196	2.667566	2.353274	-0.005482	0.014776	-0.014909	49.098278	-68.681748	44.120147
51871	9.089577	2.659611	2.332090	-0.017412	0.011507	-0.013513	49.092372	-68.670844	44.121494
51872	9.087077	2.637967	2.342496	-0.016141	0.009201	-0.016351	49.092770	-68.659590	44.116978
51873	9.064841	2.672746	2.357751	-0.013355	0.013298	-0.016111	49.089701	-68.646891	44.117828
51874	9.087468	2.662903	2.336551	-0.021124	0.013107	-0.019047	49.085503	-68.633004	44.115181
51875	9.064032	2.689230	2.329561	-0.015541	0.016912	-0.026765	49.087395	-68.614332	44.109547
51876	9.086355	2.680157	2.308739	-0.024736	0.015990	-0.026318	49.084902	-68.596216	44.102845
51877	9.059860	2.670720	2.342868	-0.021748	0.020460	-0.033649	49.085906	-68.573239	44.093995
51878	9.059267	2.682509	2.368066	-0.026779	0.020420	-0.041637	49.091978	-68.546827	44.076832
51879	9.079525	2.656587	2.301913	-0.023419	0.011011	-0.036196	49.104820	-68.526288	44.054171
51880	9.058370	2.710847	2.363006	-0.016634	0.017360	-0.035626	49.114283	-68.503625	44.039605
51881	9.057136	2.713462	2.364733	-0.020991	0.009497	-0.031940	49.126073	-68.485495	44.019918
51882	9.080412	2.713730	2.366028	-0.023688	0.008868	-0.029824	49.135261	-68.468527	44.001299
51883	9.052387	2.686166	2.354068	-0.031475	0.010848	-0.028670	49.136408	-68.451303	43.986577
51884	9.103673	2.729145	2.337718	-0.027625	0.012269	-0.023688	49.133756	-68.435719	43.978261
51885	9.101943	2.721616	2.316809	-0.023818	0.011952	-0.019890	49.129740	-68.421891	43.973597
51886	9.050659	2.704119	2.327862	-0.018500	0.015845	-0.017106	49.122156	-68.407818	43.976204
51887	9.075937	2.721025	2.374804	-0.024064	0.007631	-0.017613	49.120569	-68.396590	43.968912
51888	9.073527	2.704264	2.330974	-0.019875	0.014654	-0.016643	49.113070	-68.383164	43.970580
51889	9.049968	2.725204	2.378636	-0.018272	0.020143	-0.019396	49.102832	-68.366482	43.976162
51890	9.046437	2.694886	2.366941	-0.023792	0.013666	-0.018721	49.096145	-68.352527	43.974544
51891	9.047397	2.718827	2.359677	-0.021286	0.009525	-0.021482	49.097733	-68.338914	43.965572
51892	9.071644	2.722158	2.438134	-0.018704	0.011056	-0.017760	49.095899	-68.326354	43.961869
51893	9.044153	2.698618	2.371411	-0.024124	0.005863	-0.018822	49.097318	-68.315265	43.950995
51894	9.046015	2.726340	2.440552	-0.023038	0.000994	-0.018196	49.104362	-68.306291	43.935064
51895	9.068425	2.712548	2.341180	-0.028513	-0.003748	-0.016338	49.111372	-68.299883	43.915500
51896	9.068888	2.722102	2.364459	-0.016642	0.002220	-0.010663	49.113632	-68.293711	43.908660
51897	9.042496	2.701873	2.374023	-0.024659	-0.002320	-0.011345	49.116581	-68.288929	43.895886
51898	9.043842	2.720293	2.419730	-0.019456	-0.005824	-0.016225	49.131211	-68.283362	43.873995
51899	9.068895	2.733036	2.387877	-0.019649	-0.008399	-0.012758	49.144973	-68.280249	43.853010
51900	9.067091	2.716183	2.342132	-0.022239	-0.009941	-0.016490	49.162721	-68.276106	43.826046
51901	9.067701	2.725934	2.364597	-0.013046	-0.006787	-0.012803	49.178537	-68.272367	43.806505
51902	9.041516	2.705867	2.373207	-0.015879	-0.010448	-0.010142	49.194502	-68.271161	43.785382
51903	9.093602	2.748085	2.354666	-0.018469	-0.011989	-0.013875	49.213867	-68.268898	43.758832
51904	9.064914	2.696468	2.349280	-0.005316	-0.006105	-0.006918	49.228123	-68.267461	43.746063
51905	9.022333	2.777347	2.345138	-0.014850	-0.012674	-0.002483	49.239593	-68.270383	43.730060
51906	9.069507	2.750707	2.353026	-0.006926	-0.009414	-0.000063	49.250098	-68.273157	43.720336
51907	9.092414	2.725787	2.360992	-0.001831	-0.009814	0.005018	49.258903	-68.278272	43.715370
51908	9.068461	2.732317	2.306079	-0.005610	-0.007775	0.002397	49.266073	-68.281500	43.710048
51909	9.069525	2.735462	2.382704	-0.000429	-0.004697	0.009859	49.265561	-68.286797	43.716307
51910	9.095240	2.746261	2.350466	-0.001943	-0.006720	0.014980	49.261867	-68.295094	43.724940
51911	9.069762	2.723882	2.359051	0.005974	-0.001270	0.021514	49.250335	-68.304176	43.746625
51912	9.022662	2.734562	2.381542	0.000360	-0.009048	0.023909	49.242090	-68.317218	43.761575
51913	9.047140	2.721411	2.357684	0.007998	-0.009657	0.031525	49.231416	-68.333777	43.783715
51914	9.026597	2.751940	2.370488	0.012991	-0.011357	0.038332	49.219303	-68.353938	43.810610
51915	9.074956	2.721989	2.377449	0.004770	-0.018486	0.041108	49.207326	-68.377951	43.832004
51916	9.122573	2.693125	2.252900	0.002358	-0.015263	0.038022	49.193612	-68.399436	43.854061
51917	9.052479	2.708468	2.352086	0.022511	-0.002632	0.037989	49.177324	-68.416162	43.891232
51918	9.100442	2.684212	2.305338	-0.001129	-0.011545	0.026090	49.168775	-68.431078	43.905579
51919	9.076003	2.670321	2.336295	0.022952	-0.000126	0.024018	49.163175	-68.440806	43.931570
51920	9.055913	2.705978	2.426467	0.009448	-0.011596	0.021081	49.165472	-68.453568	43.940770
51921	9.101763	2.670222	2.279904	0.008658	-0.002859	0.015261	49.162963	-68.460520	43.954952
51922	9.058025	2.717278	2.393200	0.016349	-0.006123	0.015835	49.168174	-68.468958	43.965268
51923	9.080287	2.687730	2.323761	0.005776	-0.010448	0.012621	49.174837	-68.477604	43.967414
51924	9.058271	2.706475	2.368390	0.011159	-0.006999	0.012494	49.181209	-68.484922	43.973286
51925	9.033555	2.698771	2.344877	0.008515	-0.008081	0.011690	49.187745	-68.492293	43.977255
51926	9.106198	2.682930	2.320635	0.000534	-0.010873	0.012202	49.192571	-68.500936	43.978244
51927	9.083181	2.692938	2.342893	0.008904	-0.000735	0.008870	49.193928	-68.504338	43.987913
51928	9.060833	2.712234	2.388284	-0.004113	-0.003555	0.001395	49.198308	-68.505553	43.986519
51929	9.057281	2.676715	2.297345	0.001418	0.002924	0.000724	49.199074	-68.504040	43.992380
51930	9.035506	2.700530	2.420295	0.004165	0.003106	-0.004315	49.206289	-68.500286	43.993037
51931	9.081310	2.675313	2.297650	-0.019481	-0.001397	-0.007970	49.208091	-68.496614	43.984911
51932	9.084634	2.716057	2.334856	0.001859	0.009823	-0.005015	49.207255	-68.490041	43.992802
51933	9.011294	2.722713	2.335986	-0.014092	-0.000137	-0.012209	49.214783	-68.484062	43.981863
51934	9.056929	2.687952	2.322191	-0.006164	0.003104	-0.009801	49.221287	-68.477928	43.976923
51935	9.058439	2.706323	2.367921	-0.012966	-0.003273	-0.010400	49.231189	-68.473909	43.963855
51936	9.057311	2.698255	2.345213	-0.012916	-0.003723	-0.013322	49.244667	-68.468801	43.947260
51937	9.081462	2.696909	2.344990	-0.011794	-0.004670	-0.007402	49.253936	-68.466608	43.935775
51938	9.082222	2.711061	2.313572	-0.008914	0.002917	-0.004763	49.254281	-68.462730	43.935761
51939	9.083028	2.719871	2.336664	-0.006565	0.000128	0.001236	49.253073	-68.462484	43.939047
51940	9.057810	2.712665	2.314517	-0.012985	0.003285	0.001930	49.244341	-68.461373	43.946285
51941	9.079338	2.673817	2.355612	-0.007502	0.008028	0.000074	49.235023	-68.457675	43.957488
51942	9.054807	2.675685	2.356697	-0.016706	0.004886	-0.003607	49.227649	-68.453561	43.960973
51943	9.055505	2.689520	2.325926	-0.011466	0.005311	-0.003189	49.222130	-68.449454	43.965920
51944	9.055282	2.684656	2.380838	-0.011606	0.000095	-0.006760	49.225931	-68.445765	43.960532
51945	9.056832	2.712783	2.318202	-0.013962	0.005069	-0.008648	49.224437	-68.439395	43.959609
51946	9.055492	2.699525	2.350772	-0.011123	0.008731	-0.011307	49.223335	-68.430502	43.959790
51947	9.077577	2.675615	2.360353	-0.021844	0.001369	-0.013988	49.226434	-68.423200	43.948595
51948	9.006666	2.714090	2.375776	-0.008235	0.011945	-0.016888	49.228739	-68.410683	43.946892
51949	9.056512	2.734060	2.367468	-0.029774	-0.004076	-0.020524	49.239414	-68.402573	43.922732
51950	9.028971	2.705684	2.354546	-0.021514	0.006967	-0.017999	49.240608	-68.391435	43.914041
51951	9.003967	2.703739	2.410107	-0.040076	-0.002370	-0.024842	49.247571	-68.380815	43.887743
51952	9.025041	2.671921	2.396529	-0.040214	-0.009781	-0.032539	49.270088	-68.369627	43.844588
51953	9.077452	2.729562	2.347008	-0.037619	-0.012631	-0.037048	49.301137	-68.357529	43.794089
51954	9.075860	2.723085	2.324390	-0.045385	-0.008956	-0.034712	49.321758	-68.345074	43.749779
51955	9.073291	2.697487	2.388015	-0.024128	-0.001154	-0.034097	49.345099	-68.329953	43.715209
51956	9.051715	2.747088	2.370733	-0.044454	-0.016885	-0.033580	49.373784	-68.320935	43.662788
51957	9.048621	2.717519	2.356490	-0.040497	-0.014172	-0.030315	49.398357	-68.312287	43.617409
51958	9.050794	2.745573	2.424297	-0.034212	-0.020347	-0.030481	49.433731	-68.305889	43.564098
51959	9.001178	2.747306	2.346171	-0.049485	-0.036060	-0.021973	49.469267	-68.309017	43.501363
51960	9.024842	2.732231	2.375950	-0.035979	-0.024548	-0.018995	49.497461	-68.309163	43.454690
51961	9.000777	2.729558	2.428832	-0.057551	-0.040673	-0.022703	49.534136	-68.313668	43.385345
51962	9.071387	2.704103	2.303141	-0.060269	-0.045720	-0.028855	49.580861	-68.317361	43.303754
51963	9.026495	2.743716	2.392627	-0.041550	-0.033298	-0.022517	49.618469	-68.319167	43.243488
51964	8.979054	2.751882	2.468141	-0.060217	-0.044480	-0.030619	49.665540	-68.321585	43.161559
51965	8.977639	2.730843	2.474071	-0.069676	-0.056858	-0.043283	49.732301	-68.323006	43.052408
51966	9.075722	2.750651	2.329008	-0.086189	-0.075661	-0.046097	49.813262	-68.330122	42.918002
51967	9.246524	2.770845	2.127946	-0.071696	-0.072498	-0.044930	49.897701	-68.336479	42.789180
51968	9.243813	2.747108	2.056270	-0.052045	-0.033514	-0.028111	49.935112	-68.335807	42.722693
51969	9.007395	2.790342	2.466714	-0.004113	-0.010599	-0.013968	49.961260	-68.332861	42.697816
51970	9.007204	2.796754	2.411071	-0.065598	-0.040784	-0.022891	49.994088	-68.337131	42.627904
51971	9.071622	2.694677	2.288761	-0.054752	-0.029862	-0.017755	50.016006	-68.339598	42.576311
51972	9.002416	2.735344	2.380049	-0.054398	-0.027313	-0.031741	50.048577	-68.334999	42.513581
51973	9.026066	2.741284	2.324312	-0.071549	-0.035226	-0.046730	50.093602	-68.326690	42.426465
51974	9.049875	2.742305	2.322717	-0.066191	-0.033929	-0.050986	50.144455	-68.316025	42.336783
51975	9.075111	2.766641	2.312390	-0.058309	-0.034556	-0.053907	50.202817	-68.304249	42.243658
51976	9.100393	2.790852	2.301969	-0.063755	-0.035495	-0.046767	50.252771	-68.295954	42.156433
51977	9.096375	2.753872	2.263544	-0.051626	-0.026815	-0.044475	50.297593	-68.285446	42.081931
51978	9.125158	2.817246	2.290859	-0.041140	-0.022791	-0.033614	50.334253	-68.278253	42.022953
51979	9.146930	2.805542	2.189621	-0.052044	-0.023749	-0.013423	50.346891	-68.280298	41.983225
51980	9.095800	2.757316	2.261659	-0.024997	-0.001261	-0.002602	50.340480	-68.278902	41.980566
51981	9.077011	2.814936	2.345516	-0.034586	-0.007556	0.004700	50.328570	-68.283019	41.978613
51982	9.147054	2.788657	2.221600	-0.029487	-0.007051	0.015657	50.309225	-68.291792	41.987107
51983	9.073044	2.748618	2.317373	-0.017327	0.001676	0.017984	50.284745	-68.298383	42.008482
51984	9.072560	2.738211	2.294827	-0.030839	-0.008709	0.013164	50.268733	-68.306663	42.012554
51985	9.074043	2.745033	2.317710	-0.020176	-0.006855	0.009368	50.259976	-68.312570	42.015763
51986	9.076525	2.780726	2.277829	-0.022904	-0.007102	0.014414	50.245568	-68.320811	42.023000
51987	9.098286	2.731856	2.294441	-0.017349	-0.003132	0.006744	50.236727	-68.324207	42.027927
51988	9.055777	2.805465	2.347332	-0.019850	-0.001643	0.002477	50.229017	-68.325189	42.029839
51989	9.071760	2.700701	2.281099	-0.025213	-0.003448	0.003763	50.218761	-68.327386	42.031192
51990	9.003809	2.747503	2.397153	-0.014515	-0.002021	-0.002964	50.219545	-68.326111	42.027254
51991	9.052509	2.764433	2.310699	-0.030650	-0.011786	-0.007405	50.225718	-68.326455	42.007664
51992	9.076882	2.762710	2.310137	-0.025237	-0.008246	-0.007479	50.231419	-68.325472	41.991823
51993	9.075424	2.739995	2.318266	-0.033431	-0.016399	-0.010668	50.244099	-68.326060	41.963007
51994	9.052557	2.764718	2.310169	-0.025054	-0.003467	-0.006773	50.243957	-68.323636	41.953567
51995	9.075270	2.760997	2.232588	-0.035943	-0.014920	-0.014943	50.257536	-68.321816	41.922953
51996	9.100536	2.767968	2.255018	-0.019779	-0.002973	-0.006342	50.259468	-68.319400	41.914534
51997	9.052224	2.765623	2.310393	-0.026381	-0.005561	-0.012206	50.265614	-68.315345	41.897837
51998	9.098592	2.746143	2.264023	-0.030183	-0.003983	-0.017749	50.273203	-68.308272	41.876914
51999	9.025532	2.746274	2.320490	-0.021746	0.008091	-0.019715	50.273785	-68.295915	41.868602
52000	9.002417	2.766109	2.368126	-0.033638	0.004989	-0.026022	50.277049	-68.281910	41.850199
52001	9.051519	2.787392	2.360743	-0.042381	0.013453	-0.034732	50.273664	-68.260970	41.833781
52002	9.046901	2.749794	2.325450	-0.034679	0.011154	-0.028314	50.271596	-68.243698	41.820472
52003	8.975659	2.781697	2.397891	-0.039626	0.018032	-0.031483	50.261733	-68.222514	41.812696
52004	9.046020	2.776243	2.321926	-0.050556	0.009588	-0.029656	50.253511	-68.205225	41.796214
52005	9.045911	2.785794	2.347604	-0.040922	0.022872	-0.021518	50.228466	-68.186668	41.803668
52006	9.070113	2.814078	2.287902	-0.055583	0.019908	-0.019867	50.197058	-68.169910	41.809055
52007	9.138277	2.776171	2.198653	-0.047327	0.031973	-0.011276	50.149017	-68.152493	41.837667
52008	9.043610	2.794992	2.381974	-0.035203	0.039002	-0.010111	50.099497	-68.133008	41.875153
52009	9.039551	2.770346	2.317578	-0.063166	0.029513	-0.018531	50.051862	-68.113306	41.893269
52010	9.062516	2.769460	2.321661	-0.046962	0.035861	-0.027008	50.014655	-68.087535	41.910234
52011	9.037123	2.765740	2.380682	-0.052507	0.031392	-0.022319	49.974630	-68.065457	41.926524
52012	9.060606	2.780023	2.352867	-0.052788	0.020522	-0.032606	49.956019	-68.042876	41.919846
52013	9.034004	2.775042	2.333533	-0.048914	0.020240	-0.028782	49.936174	-68.022073	41.916850
52014	9.108150	2.802838	2.350087	-0.045103	0.016060	-0.030342	49.924763	-68.002131	41.907154
52015	9.055110	2.768184	2.315743	-0.042629	0.014992	-0.023132	49.909057	-67.985732	41.903346
52016	9.104307	2.788974	2.309083	-0.041515	0.010113	-0.022589	49.899081	-67.971385	41.894317
52017	9.079899	2.799687	2.335033	-0.034488	0.023583	-0.016945	49.873133	-67.954531	41.907152
52018	9.007059	2.806921	2.416235	-0.037262	0.018966	-0.020244	49.853895	-67.937944	41.910743
52019	9.051683	2.765358	2.380140	-0.034892	0.012271	-0.019645	49.842448	-67.924095	41.907258
52020	9.051318	2.781397	2.350892	-0.033587	0.009589	-0.025480	49.840225	-67.908679	41.894760
52021	9.052590	2.813963	2.367772	-0.025404	0.017773	-0.022215	49.830611	-67.891660	41.895506
52022	9.002460	2.803642	2.401490	-0.035173	0.003996	-0.022847	49.831100	-67.879465	41.879097
52023	9.048743	2.785487	2.355957	-0.031299	0.001574	-0.023175	49.836425	-67.868017	41.859490
52024	9.050334	2.817816	2.371814	-0.036683	-0.000288	-0.021932	49.839808	-67.857806	41.839020
52025	9.073161	2.809303	2.349629	-0.035193	0.003971	-0.022863	49.840024	-67.845615	41.822320
52026	9.049374	2.834861	2.343688	-0.040198	0.013394	-0.018922	49.823934	-67.831666	41.820698
52027	9.117657	2.783711	2.284177	-0.045434	0.014141	-0.021119	49.805769	-67.816466	41.818229
52028	9.023298	2.831346	2.403957	-0.034144	0.033914	-0.020172	49.772297	-67.794379	41.839127
52029	9.018024	2.785245	2.347007	-0.047453	0.029493	-0.026157	49.741156	-67.771310	41.849353
52030	9.016674	2.780075	2.405466	-0.032388	0.041233	-0.032154	49.711824	-67.741266	41.866872
52031	9.019183	2.844324	2.439645	-0.047312	0.029490	-0.036743	49.690417	-67.713569	41.866367
52032	9.035747	2.766938	2.367702	-0.048321	0.036941	-0.040738	49.664398	-67.681361	41.870446
52033	9.012942	2.818466	2.433831	-0.038805	0.042043	-0.046231	49.643163	-67.644874	41.875401
52034	9.080757	2.785275	2.344827	-0.044728	0.021943	-0.052649	49.645905	-67.613029	41.850606
52035	9.028509	2.769851	2.356514	-0.028592	0.022804	-0.067669	49.670190	-67.574320	41.812224
52036	9.029498	2.822633	2.420744	-0.020303	0.031455	-0.071986	49.694083	-67.530495	41.779672
52037	9.051531	2.842625	2.392587	-0.026997	0.024884	-0.083378	49.730902	-67.484133	41.729072
52038	9.027662	2.897428	2.457622	-0.032091	0.036820	-0.072324	49.742455	-67.438162	41.702547
52039	9.043146	2.815752	2.361576	-0.031364	0.019361	-0.072804	49.772883	-67.398458	41.655953
52040	8.968543	2.819389	2.496777	-0.017826	0.033767	-0.062352	49.786777	-67.357971	41.635729
52041	8.986295	2.769835	2.413991	-0.018622	-0.007384	-0.099583	49.875938	-67.316394	41.533309
52042	8.937154	2.821224	2.452530	0.000421	-0.000149	-0.120647	49.986854	-67.262835	41.419229
52043	8.983550	2.853233	2.443440	-0.013078	-0.016420	-0.143011	50.125844	-67.205353	41.266158
52044	9.027125	2.847861	2.395487	0.008227	-0.014151	-0.151699	50.281735	-67.143051	41.108039
52045	9.022870	2.862715	2.393811	0.018966	-0.014387	-0.170267	50.458932	-67.072471	40.933668
52046	8.967994	2.843664	2.431088	0.030728	-0.022101	-0.184876	50.662613	-66.998001	40.737485
52047	9.065128	2.964361	2.363103	0.043605	-0.036434	-0.200209	50.900099	-66.921649	40.512400
52048	9.129600	2.925336	2.273576	0.050222	-0.032210	-0.203750	51.138690	-66.841805	40.290180
52049	9.026566	2.927956	2.355948	0.090358	-0.010930	-0.206765	51.378748	-66.752642	40.091429
52050	8.973078	2.967629	2.398431	0.105985	-0.017674	-0.219341	51.643739	-66.659876	39.874958
52051	8.939652	2.907828	2.449337	0.108555	-0.018711	-0.241213	51.927015	-66.557267	39.640140
52052	8.982366	2.954984	2.434551	0.129189	-0.039063	-0.273974	52.267642	-66.446460	39.355356
52053	9.024523	3.035014	2.355813	0.151454	-0.037789	-0.295393	52.633539	-66.324823	39.056449
52054	9.015993	3.081145	2.316886	0.183165	-0.020484	-0.312068	53.009567	-66.188767	38.766244
52055	8.958364	3.148183	2.324500	0.205281	-0.018091	-0.353845	53.423938	-66.031962	38.447693
52056	8.970996	3.201787	2.284152	0.262841	-0.012179	-0.407568	53.901205	-65.847308	38.095898
52057	9.082737	3.425647	2.338120	0.320432	0.023236	-0.488085	54.427915	-65.612175	37.725584
52058	9.058964	3.258194	2.283506	0.385336	0.076280	-0.608990	55.016056	-65.301415	37.327720
52059	9.229726	3.067685	2.209685	0.503247	-0.000723	-0.670690	55.780152	-64.984746	36.809503
52060	9.552018	3.202000	2.400515	0.624279	-0.032388	-0.775795	56.699860	-64.624858	36.194408
52061	9.843781	3.128520	2.197061	0.749043	-0.125581	-0.863016	57.818577	-64.247289	35.436225
52062	9.227211	3.433196	2.169033	0.958487	0.031145	-0.913892	58.904395	-63.791496	34.845312
52063	8.998245	3.835384	2.676008	0.908653	-0.039078	-1.003585	60.054738	-63.307034	34.148342
52064	9.183523	3.631354	2.163031	0.838816	-0.074459	-1.098777	61.219610	-62.778663	33.386784
52065	9.215099	3.723473	1.979283	0.981911	-0.029847	-1.183804	62.429947	-62.188414	32.662573
52066	9.301896	4.174654	2.337299	1.053905	0.066856	-1.287749	63.599920	-61.512953	32.026691
52067	9.045879	4.356968	2.420774	0.941574	0.185608	-1.364860	64.589855	-60.762699	31.519277
52068	8.996755	4.636492	2.800009	0.748098	0.258644	-1.442982	65.400823	-59.950224	31.085640
52069	8.965255	4.823783	2.749698	0.443743	0.215174	-1.507421	66.071482	-59.111809	30.609504
52070	8.757011	4.547173	2.242143	0.253849	0.182600	-1.559370	66.652473	-58.250825	30.106057
52071	8.930158	4.455014	1.966134	0.358620	0.214310	-1.616368	67.258270	-57.350173	29.639376
52072	8.544136	4.683037	2.160199	0.488910	0.334330	-1.676078	67.833506	-56.388967	29.293492
52073	8.315474	5.090938	2.274235	0.511290	0.292965	-1.725977	68.444326	-55.408328	28.916084
52074	8.465664	5.258119	2.369358	0.457168	0.251624	-1.752563	69.037732	-54.419727	28.517682
52075	8.490470	5.296524	2.189901	0.431641	0.187087	-1.769497	69.642542	-53.432940	28.081999
52076	8.201414	5.181914	2.325551	0.476557	0.191274	-1.809850	70.254389	-52.420755	27.664212
52077	8.291334	5.800510	2.025196	0.567770	0.219914	-1.845376	70.881003	-51.381466	27.288117
52078	7.990546	6.386751	2.350761	0.594308	0.263234	-1.874354	71.476271	-50.315826	26.966649
52079	9.680607	6.678341	2.582615	0.413363	0.035633	-1.850827	72.086885	-49.301894	26.484332
52080	8.440022	6.154075	1.799430	0.335120	0.399870	-1.877708	72.408741	-48.206954	26.318889
52081	7.741000	6.672936	1.412438	0.466498	0.305223	-1.946310	72.862371	-47.090231	26.073940
52082	7.699742	6.997436	1.531884	0.404818	0.265092	-2.026248	73.301939	-45.934865	25.795293
52083	8.358460	7.003642	2.019265	0.305693	0.221352	-2.099556	73.704178	-44.745234	25.483543
52084	8.402257	6.948267	1.794381	0.273884	0.289064	-2.175377	74.047224	-43.501425	25.224045
52085	8.037374	7.181619	1.758411	0.326968	0.333475	-2.264707	74.395863	-42.200662	24.994736
52086	8.282202	7.627240	1.925500	0.332855	0.292082	-2.348886	74.765381	-40.858361	24.733284
52087	8.137935	7.610753	2.136698	0.253901	0.307908	-2.440220	75.078670	-39.462404	24.481384
52088	7.760163	7.693787	1.842131	0.273901	0.251142	-2.565050	75.428883	-38.004092	24.181216
52089	7.603831	7.904740	1.851049	0.297382	0.220739	-2.688120	75.801740	-36.480793	23.855526
52090	8.166075	8.063338	2.166314	0.302879	0.137689	-2.795526	76.203518	-34.907133	23.473719
52091	8.118830	8.034708	2.237875	0.240078	0.227241	-2.875281	76.523116	-33.275572	23.158516
52092	6.956831	7.953569	1.708047	0.285515	0.222564	-2.996288	76.863841	-31.575157	22.838365
52093	6.116849	8.170804	1.307928	0.323794	0.079580	-3.115437	77.265113	-29.825454	22.426309
52094	5.074885	8.437891	0.863973	0.361018	-0.158749	-3.251499	77.748785	-28.025861	21.865333
52095	4.595016	8.462299	0.837604	0.314390	-0.505046	-3.417152	78.286781	-26.170960	21.091696
52096	4.813666	8.474888	0.713338	0.224113	-0.794505	-3.576000	78.821801	-24.252717	20.150087
52097	5.217625	8.275916	0.679799	0.168656	-0.963515	-3.701979	79.329477	-22.274961	19.123408
52098	6.756589	6.376362	2.354171	-0.117006	-1.181753	-3.710917	79.678007	-20.307255	17.994085
52099	12.783084	0.568753	3.609208	-1.704187	-2.142822	-2.951956	79.246341	-18.869364	16.385438
52100	20.028576	-0.248983	-1.044999	-1.192149	-1.511000	-1.188676	78.898290	-18.364388	15.353078
52101	19.729939	0.680092	2.411854	-0.574070	-0.501214	0.463525	78.651613	-18.682154	15.111314
52102	16.094122	1.794916	3.563888	-1.066536	-0.392444	1.555194	78.059699	-19.599874	15.069417
52103	12.388263	1.334008	2.326486	-1.380696	0.117575	2.244257	77.147642	-20.843586	15.434511
52104	8.936875	2.210370	1.602830	-1.241445	0.561681	2.573266	76.183818	-22.203596	16.137477
52105	6.724931	3.391310	1.614652	-1.333919	0.711578	2.701138	75.095179	-23.604557	16.983801
52106	5.595656	3.556862	1.191148	-1.616279	0.419078	2.795407	73.875622	-25.083192	17.708786
52107	5.357311	3.227683	0.309917	-1.744640	0.026841	2.949796	72.637026	-26.700176	18.267308
52108	5.719258	3.217031	0.093882	-1.600533	-0.367056	3.136079	71.540772	-28.474135	18.665838
52109	6.373761	3.657021	0.748362	-1.528771	-0.777316	3.331153	70.557125	-30.427036	18.894894
52110	6.989788	3.823564	1.290566	-1.539081	-1.021563	3.482961	69.600840	-32.502136	19.047752
52111	7.208928	4.069143	1.696189	-1.436184	-0.972542	3.518759	68.651194	-34.587744	19.286003
52112	7.315622	4.474030	2.238060	-1.328128	-0.760180	3.454694	67.657284	-36.586549	19.695449
52113	7.416779	4.841670	2.418242	-1.280611	-0.493474	3.323416	66.558907	-38.454187	20.302084
52114	7.306276	4.670470	2.079895	-1.249770	-0.295845	3.192870	65.363968	-40.193433	21.066153
52115	6.979339	4.209934	1.408868	-1.103929	-0.180816	3.086642	64.160994	-41.840869	21.942635
52116	6.928697	4.088820	1.065287	-0.889131	-0.273911	3.019683	63.077645	-43.460039	22.797591
52117	7.105418	4.073653	1.052312	-0.725397	-0.515931	3.003841	62.149419	-45.127823	23.538410
52118	7.603888	4.139650	1.297720	-0.568836	-0.780554	2.991931	61.396831	-46.849165	24.139123
52119	8.387449	4.325285	1.821154	-0.457481	-0.981812	2.975481	60.773091	-48.617146	24.634226
52120	9.147303	4.474974	2.309025	-0.380068	-1.057426	2.957218	60.199954	-50.389516	25.108623
52121	9.822541	4.545455	2.649013	-0.312333	-1.056222	2.945067	59.622343	-52.156709	25.625736
52122	10.231828	4.729252	2.990456	-0.209438	-1.001910	2.939802	59.021133	-53.897649	26.234786
52123	10.375362	4.982431	3.287958	-0.137341	-0.906241	2.929373	58.338461	-55.605230	26.980149
52124	10.227847	5.211574	3.505401	-0.108444	-0.820360	2.889685	57.557059	-57.257366	27.849813
52125	9.874650	5.320007	3.609820	-0.125633	-0.755986	2.815228	56.666162	-58.850905	28.820396
52126	9.708438	5.187677	3.371705	-0.178569	-0.748729	2.698902	55.708591	-60.373839	29.818063
52127	9.818958	4.867242	2.994099	-0.153482	-0.734822	2.569992	54.727222	-61.827168	30.843895
52128	10.136315	4.464205	2.686474	-0.114586	-0.755563	2.480128	53.744055	-63.232608	31.884046
52129	10.550939	4.110347	2.253279	-0.046834	-0.805622	2.423440	52.776839	-64.625100	32.936132
52130	10.930000	3.857863	2.056411	0.094472	-0.823473	2.398036	51.819323	-66.000103	34.055446
52131	11.137051	3.709376	2.002786	0.236114	-0.834446	2.384749	50.840236	-67.369258	35.273979
52132	11.205871	3.729025	2.007546	0.347692	-0.837325	2.368441	49.810395	-68.719392	36.604919
52133	11.157012	3.688801	2.032677	0.426864	-0.831979	2.348895	48.678616	-70.053629	38.080397
52134	11.070776	3.739506	2.066182	0.502680	-0.800548	2.312178	47.415694	-71.344896	39.729353
52135	11.131982	3.873262	2.219647	0.546630	-0.792418	2.264921	46.008230	-72.604307	41.543723
52136	11.518246	3.785437	2.315671	0.549058	-0.813075	2.243589	44.419365	-73.844273	43.537347
52137	11.967883	3.772066	2.375260	0.579921	-0.783356	2.233033	42.520859	-75.053579	45.857718
52138	12.087271	3.735962	2.584421	0.588892	-0.724835	2.234902	40.180295	-76.210868	48.627611
52139	12.029140	3.626426	2.616682	0.587326	-0.675303	2.224467	37.314126	-77.313581	51.922459
52140	11.772427	3.702290	2.768924	0.602746	-0.631078	2.207931	33.868667	-78.343637	55.805796
52141	11.562013	3.810510	2.992265	0.572666	-0.631155	2.165048	29.817126	-79.308344	60.274751
52142	11.441405	3.787136	3.139559	0.485666	-0.668256	2.125015	25.094976	-80.209491	65.361398
52143	13.975770	4.764853	3.062384	0.735536	-0.822909	1.863256	20.647610	-81.061276	70.300657
52144	14.940745	9.381178	8.009810	1.296343	1.112624	1.678007	14.466415	-80.742032	77.318115
52145	-11.756202	-0.778707	-4.422421	-0.141433	0.787448	1.109571	10.044661	-80.436583	81.722867
52146	20.031145	13.160142	7.096701	2.416515	-4.740684	0.162484	14.857878	-83.109242	78.265279
52147	13.090419	3.033913	4.267516	-1.895205	2.216545	1.476947	5.643068	-82.007772	86.467608
52148	16.112666	1.295226	2.493696	0.410152	-2.205744	2.578511	-5.571128	-83.278049	98.016007
52149	14.645372	3.683778	0.954568	0.266579	0.469974	2.165793	-15.043307	-82.788729	107.717120
52150	7.929427	6.015396	4.220061	1.556635	0.449248	1.606026	-20.235110	-82.263096	113.858284
52151	3.890283	1.115941	5.604086	-0.824330	0.158799	2.275132	-28.840767	-81.636156	122.077213
52152	11.528373	6.318954	0.677024	-0.563695	-1.847345	1.913946	-39.547421	-81.895838	132.573898
52153	9.455751	2.698807	0.983234	-0.658668	-0.019675	1.621362	-44.642077	-81.279260	137.347461
52154	7.626920	3.386990	2.878951	0.271972	-0.500271	1.602561	-49.767885	-80.799280	142.699724
52155	8.618406	5.211911	3.607508	-0.400938	-0.313108	1.435213	-53.890396	-80.261641	146.651383
52156	7.719080	3.833795	2.357729	-0.673988	-0.474137	1.188726	-57.731721	-79.850404	150.164702
52157	7.750479	3.344473	1.794644	-0.566205	-0.205229	1.005188	-60.226005	-79.415807	152.375819
52158	7.887398	3.428208	2.119600	-0.489819	-0.190745	0.821217	-62.192577	-79.055813	154.097465
52159	8.110563	2.867166	2.088539	-0.672719	-0.183365	0.679565	-63.949744	-78.754881	155.500633
52160	8.247664	2.158914	1.717444	-0.764935	-0.175600	0.615769	-65.577470	-78.478450	156.719493
52161	8.013391	1.584563	1.329842	-0.765157	-0.202437	0.572246	-67.162454	-78.223402	157.895559
52162	7.866438	1.085080	1.306373	-0.741349	-0.270878	0.518276	-68.790353	-78.006180	159.130607
52163	7.937851	0.726859	1.246701	-0.738077	-0.335633	0.461124	-70.477753	-77.824430	160.429190
52164	8.172496	0.388054	1.221241	-0.736840	-0.360555	0.404724	-72.133809	-77.670901	161.697388
52165	8.293716	0.195004	1.100311	-0.692023	-0.339687	0.354890	-73.641132	-77.532997	162.840183
52166	8.216352	0.119956	1.084087	-0.645529	-0.316480	0.314086	-75.006015	-77.408693	163.865049
52167	8.287295	0.012405	0.940580	-0.622983	-0.315410	0.261840	-76.301374	-77.307424	164.832256
52168	8.599235	0.000329	0.930285	-0.554341	-0.285186	0.215897	-77.438138	-77.224083	165.677638
52169	8.699391	0.084583	1.121222	-0.475624	-0.190988	0.180642	-78.268477	-77.145353	166.255216
52170	8.509894	0.159247	1.168247	-0.447638	-0.101378	0.137925	-78.833035	-77.079464	166.576838
52171	7.972761	0.247805	1.037747	-0.394485	-0.020757	0.083493	-79.141115	-77.034335	166.666559
52172	7.485176	0.718652	1.082888	-0.346803	-0.000773	0.015368	-79.339579	-77.025813	166.671895
52173	7.137140	1.107076	1.089015	-0.332678	-0.030358	-0.079256	-79.559589	-77.073327	166.707606
52174	7.201202	1.615581	1.241006	-0.308682	-0.067874	-0.177722	-79.814808	-77.180523	166.793563
52175	7.201218	1.899417	1.470258	-0.318508	-0.087953	-0.250540	-80.096762	-77.330522	166.901104
52176	7.256214	2.147028	1.577636	-0.298321	-0.110520	-0.305997	-80.404953	-77.514097	167.047317
52177	7.970938	1.979746	2.269979	-0.261294	-0.085661	-0.400927	-80.592624	-77.748833	167.091768
52178	17.297794	4.531390	6.170608	0.309148	0.466109	-1.323097	-78.507425	-78.446048	165.147378
52179	-2.256516	-6.924444	-3.389951	-3.210033	2.800216	-0.920515	-72.043534	-78.548885	156.680221
52180	8.055937	-7.147780	-8.093956	0.632393	-1.149125	-1.940300	-73.222540	-79.806500	158.254926
52181	11.221715	-0.145221	1.068214	1.841509	1.889869	-1.897111	-64.091091	-80.426250	150.063020
52182	7.047857	1.119275	3.721318	0.545169	1.162014	-1.835334	-57.052287	-81.015806	143.253214
52183	9.433434	-0.379769	1.265605	-0.462288	0.379988	-1.854669	-52.065160	-81.755798	137.947001
52184	10.141235	-2.089980	-0.492648	0.429732	0.899173	-1.798033	-44.211306	-82.179770	130.269770
52185	9.028536	0.683059	2.804323	0.890643	1.014305	-1.833543	-34.964615	-82.401520	121.459544
52186	7.948893	0.260008	2.597272	0.093272	0.709189	-1.865941	-26.334056	-82.596881	112.814178
52187	7.346604	-1.313543	0.075579	0.048871	0.530112	-1.989646	-17.182981	-82.737025	103.621713
52188	15.101382	-0.051679	0.682861	0.961651	-0.234474	-2.520282	-5.375044	-83.152424	92.285016
52189	16.889403	4.294947	5.054767	0.911340	1.590544	-2.030886	4.314691	-82.248061	83.048674
52190	8.480954	1.266973	2.259961	-0.282857	1.075503	-1.843683	10.921639	-81.495034	76.216763
52191	12.686811	1.131194	1.774077	-0.091737	0.185641	-1.774111	17.169040	-81.143467	69.849522
52192	12.033826	1.176319	1.494221	0.278700	1.233872	-1.691348	21.467916	-80.154196	65.660306
52193	9.785341	1.330327	2.343094	0.014581	0.999637	-1.524140	24.674593	-79.283525	62.415495
52194	10.189557	0.985294	1.306795	0.136534	0.645670	-1.440830	27.710591	-78.586089	59.407323
52195	10.821837	2.105498	2.392890	0.364839	0.828289	-1.353016	30.074680	-77.794687	57.211351
52196	10.137985	1.948088	2.791219	0.124214	0.650891	-1.230605	32.000726	-77.110670	55.316705
52197	9.831751	1.569498	2.297069	0.109999	0.550448	-1.180060	33.759129	-76.477433	53.580961
52198	9.308253	1.494585	2.057546	0.140262	0.503312	-1.156932	35.395959	-75.862918	51.983657
52199	9.138223	1.584865	2.225194	0.157839	0.454244	-1.157930	36.974313	-75.259845	50.452920
52200	8.833756	1.472610	2.122789	0.167356	0.398150	-1.183996	38.550520	-74.663211	48.925765
52201	8.868329	1.735514	2.286269	0.204039	0.371678	-1.215149	40.113606	-74.055892	47.429716
52202	8.943881	1.941851	2.532451	0.151124	0.345016	-1.233401	41.594492	-73.443271	45.983087
52203	8.519822	1.918345	2.232328	0.121334	0.320909	-1.306634	43.084348	-72.801796	44.504590
52204	10.371454	2.012395	2.445753	0.101906	0.245366	-1.459067	44.743813	-72.119868	42.831198
52205	20.694232	8.148692	5.126671	0.654887	-0.295048	-1.268612	47.044528	-71.714268	40.811466
52206	8.339329	3.667748	3.880010	-1.266687	1.235375	-0.464745	45.353933	-71.031397	41.835345
52207	10.848909	2.063908	0.338634	-0.888778	-0.838870	-0.309246	46.219014	-71.238155	40.388837
52208	10.695976	0.943741	0.152087	0.059018	0.765789	-0.174530	45.542291	-70.860164	41.145841
52209	7.619462	3.296948	4.237407	0.445820	0.400352	-0.189644	45.551580	-70.620679	41.412425
52210	8.906836	2.938875	3.583467	-0.673133	-0.043186	-0.226920	45.478557	-70.544510	41.086682
52211	9.523946	1.352777	0.777095	-0.281018	0.038983	-0.195305	45.498646	-70.447652	40.900401
52212	9.050023	2.701456	2.928266	0.075000	0.199514	-0.180674	45.520513	-70.292946	40.928583
52213	9.026543	2.628026	2.784017	-0.283624	-0.034442	-0.170685	45.592756	-70.235578	40.685039
52214	9.383350	2.088017	1.757247	-0.183452	0.008714	-0.140108	45.637881	-70.173966	40.531149
52215	9.177484	2.445658	2.424998	-0.025455	0.024626	-0.121230	45.734304	-70.113047	40.418981
52216	9.228275	2.503228	2.436836	-0.108125	-0.015030	-0.103392	45.807654	-70.075858	40.280868
52217	9.220692	2.305855	2.209679	-0.094812	0.000714	-0.097730	45.864614	-70.034037	40.168342
52218	9.211122	2.460463	2.304043	-0.061570	0.004046	-0.089446	45.926979	-69.994876	40.070231
52219	9.159369	2.391956	2.402542	-0.069407	0.012313	-0.080131	45.965479	-69.955613	39.992790
52220	9.227730	2.441066	2.289345	-0.083904	0.002233	-0.074382	46.000131	-69.923330	39.910512
52221	9.125612	2.387659	2.338425	-0.067135	0.028685	-0.068459	46.008395	-69.882336	39.866616
52222	9.059144	2.425114	2.465652	-0.085300	0.025666	-0.080572	46.022242	-69.838161	39.805604
52223	9.027365	2.397812	2.428780	-0.112855	0.005173	-0.090063	46.053797	-69.797598	39.708959
52224	9.223375	2.496881	2.346106	-0.108840	0.004290	-0.092138	46.090208	-69.757126	39.609495
52225	9.141985	2.431121	2.346164	-0.105665	0.012631	-0.079927	46.106119	-69.717747	39.533866
52226	9.072620	2.420593	2.483336	-0.117432	0.002042	-0.093942	46.141555	-69.677392	39.430142
52227	9.143827	2.500142	2.389024	-0.132190	-0.011786	-0.093952	46.184070	-69.641875	39.309891
52228	9.208471	2.460286	2.320205	-0.117856	-0.025462	-0.075837	46.230060	-69.619861	39.194605
52229	9.181565	2.442196	2.327505	-0.098156	-0.019164	-0.065237	46.269232	-69.599090	39.098684
52230	9.161025	2.481735	2.371578	-0.092978	-0.024495	-0.063980	46.315462	-69.581545	38.998321
52231	9.130901	2.452698	2.330874	-0.101262	-0.023019	-0.060005	46.351328	-69.564420	38.904006
52232	9.223240	2.457548	2.249232	-0.088214	-0.012493	-0.055701	46.377920	-69.545518	38.827490
52233	9.104739	2.442022	2.363514	-0.073565	0.001689	-0.058163	46.400008	-69.519366	38.764795
52234	9.037166	2.471076	2.465256	-0.101526	-0.000536	-0.071000	46.421632	-69.489370	38.685415
52235	9.101338	2.450427	2.367911	-0.116035	-0.009523	-0.086550	46.461488	-69.455836	38.577738
52236	9.145612	2.466474	2.314866	-0.105464	0.007097	-0.091190	46.493272	-69.414409	38.485061
52237	9.123787	2.507464	2.361629	-0.089164	0.000971	-0.079522	46.529030	-69.379616	38.398155
52238	9.170454	2.509441	2.361003	-0.094969	-0.002344	-0.079404	46.564458	-69.346771	38.307966
52239	9.187730	2.497769	2.290257	-0.077987	0.003225	-0.069388	46.593160	-69.315274	38.235408
52240	9.213301	2.529198	2.309760	-0.056897	0.006769	-0.054078	46.613615	-69.289354	38.184507
52241	9.208553	2.522259	2.264091	-0.039926	0.010541	-0.034392	46.619429	-69.269539	38.159711
52242	9.162274	2.537090	2.316721	-0.019998	0.017931	-0.022911	46.616236	-69.252201	38.156689
52243	9.142013	2.554750	2.392331	-0.025051	0.027082	-0.018233	46.595599	-69.232610	38.169291
52244	9.112573	2.504257	2.383367	-0.024637	0.034148	-0.009707	46.558281	-69.214380	38.199924
52245	9.066156	2.517581	2.437693	-0.018928	0.037152	-0.012856	46.524625	-69.193052	38.230208
52246	9.113641	2.515392	2.438448	-0.036256	0.026204	-0.018903	46.498989	-69.174120	38.241230
52247	9.127365	2.466518	2.325786	-0.021051	0.024324	-0.019103	46.484697	-69.155246	38.249500
52248	9.111506	2.517676	2.444061	-0.009927	0.023962	-0.016658	46.474313	-69.138129	38.260346
52249	9.110140	2.537866	2.417147	-0.014763	0.011678	-0.016889	46.475138	-69.125167	38.256296
52250	9.177016	2.538606	2.314085	-0.011806	0.014358	-0.009151	46.466392	-69.114958	38.264238
52251	9.130110	2.527291	2.371311	-0.000263	0.020557	0.009774	46.438296	-69.109567	38.300035
52252	9.113349	2.571195	2.464913	0.008100	0.020358	0.015149	46.409313	-69.107072	38.341847
52253	9.133395	2.534319	2.422003	-0.003706	0.007213	0.023987	46.379053	-69.112839	38.377850
52254	9.107177	2.485782	2.434047	0.011787	0.010322	0.027855	46.349915	-69.119565	38.422087
52255	9.087305	2.537679	2.449819	0.001728	0.004734	0.024733	46.324645	-69.126611	38.456077
52256	9.083869	2.482717	2.436238	0.005875	0.004000	0.028300	46.298479	-69.136009	38.493504
52257	9.020813	2.533575	2.554740	-0.001385	-0.000880	0.017389	46.285109	-69.142225	38.512847
52258	9.083281	2.474470	2.411836	-0.027562	-0.020842	0.004008	46.292003	-69.151393	38.494391
52259	9.110939	2.501144	2.428101	-0.013482	-0.017566	-0.001725	46.309698	-69.156295	38.473073
52260	9.065585	2.532524	2.448398	-0.024896	-0.022669	-0.000272	46.324583	-69.164409	38.447703
52261	9.110273	2.495482	2.401298	-0.026505	-0.026304	-0.004619	46.347360	-69.171562	38.412965
52262	9.089176	2.525778	2.420081	-0.024845	-0.020900	-0.009973	46.370460	-69.174947	38.378839
52263	9.113845	2.524484	2.417196	-0.039255	-0.029547	-0.011392	46.396536	-69.180564	38.332757
52264	9.134118	2.489307	2.371292	-0.035014	-0.028613	-0.006468	46.418614	-69.188441	38.293494
52265	9.089250	2.501864	2.420384	-0.027628	-0.020707	-0.007018	46.437188	-69.192371	38.262566
52266	9.137570	2.518275	2.387679	-0.041677	-0.021706	-0.018921	46.460866	-69.192340	38.217509
52267	9.133052	2.485253	2.344181	-0.035700	-0.014600	-0.013149	46.474512	-69.191308	38.186906
52268	9.060112	2.471971	2.377734	-0.048861	0.002141	-0.038455	46.488263	-69.173743	38.148063
52269	9.039544	2.490909	2.452623	-0.055515	0.009954	-0.055743	46.507827	-69.145323	38.098973
52270	9.085812	2.511330	2.423489	-0.080888	0.007360	-0.074471	46.534641	-69.110717	38.026496
52271	9.128348	2.523178	2.347036	-0.077897	0.012750	-0.081235	46.564385	-69.070576	37.952757
52272	9.107869	2.567877	2.418549	-0.072031	0.017709	-0.068833	46.578875	-69.034217	37.898873
52273	9.051842	2.499241	2.415893	-0.092923	0.021574	-0.086481	46.595466	-68.988402	37.829961
52274	8.930513	2.459682	2.537846	-0.089572	0.035982	-0.105404	46.617250	-68.929613	37.757461
52275	9.170533	2.621775	2.370514	-0.116338	0.008362	-0.122306	46.670707	-68.874044	37.634599
52276	9.066374	2.476960	2.460178	-0.083314	-0.002103	-0.105968	46.737072	-68.829940	37.518091
52277	9.051783	2.648324	2.530524	-0.093559	-0.008286	-0.115166	46.813384	-68.783787	37.384635
52278	9.179726	2.582622	2.312585	-0.118467	-0.030084	-0.109131	46.892126	-68.749216	37.233174
52279	9.177444	2.589810	2.313602	-0.079373	-0.003508	-0.097353	46.952717	-68.708524	37.125238
52280	9.157244	2.615930	2.412754	-0.083258	0.002075	-0.085713	46.992888	-68.671073	37.036752
52281	9.126483	2.589945	2.373220	-0.069249	0.003242	-0.084877	47.039011	-68.632915	36.950523
52282	9.055063	2.589007	2.456611	-0.065746	0.017638	-0.078621	47.065023	-68.592319	36.887974
52283	9.078677	2.597888	2.481990	-0.077635	0.004692	-0.080795	47.100292	-68.555275	36.808196
52284	9.049636	2.576352	2.466235	-0.065273	0.001933	-0.087403	47.151691	-68.517084	36.718626
52285	9.004210	2.622562	2.538043	-0.076906	-0.004162	-0.095123	47.210521	-68.477417	36.613929
52286	9.093674	2.630989	2.433288	-0.081660	-0.013760	-0.098810	47.279968	-68.440464	36.494814
52287	9.089789	2.633658	2.410146	-0.071890	-0.013079	-0.099756	47.355092	-68.402216	36.375630
52288	9.092307	2.697408	2.449520	-0.069138	-0.016024	-0.088203	47.423093	-68.370504	36.265728
52289	9.110829	2.669733	2.405015	-0.064969	-0.016770	-0.084661	47.490765	-68.339954	36.158773
52290	9.129470	2.641577	2.360796	-0.053044	-0.004036	-0.071431	47.538419	-68.310600	36.080641
52291	9.104875	2.652070	2.387564	-0.058407	0.001779	-0.069335	47.574826	-68.279295	36.011338
52292	9.081766	2.667028	2.438520	-0.032933	0.006754	-0.068350	47.619232	-68.247034	35.949075
52293	9.056141	2.697071	2.436983	-0.044303	0.003277	-0.065467	47.658074	-68.216755	35.885820
52294	9.051484	2.649485	2.423409	-0.034335	0.005881	-0.062035	47.696219	-68.187475	35.829409
52295	9.054136	2.710871	2.463827	-0.025774	0.007220	-0.055424	47.731564	-68.159905	35.781332
52296	9.071525	2.677177	2.396225	-0.032992	0.003574	-0.056948	47.767793	-68.133643	35.727792
52297	9.072418	2.666392	2.449911	-0.015781	0.011147	-0.053705	47.802859	-68.105271	35.686167
52298	9.077191	2.755949	2.509755	-0.015941	0.006904	-0.051616	47.840024	-68.079968	35.642128
52299	9.112326	2.680018	2.348705	-0.024890	-0.003231	-0.057112	47.888094	-68.055654	35.580842
52300	9.064932	2.695246	2.400915	0.015974	0.031670	-0.051144	47.916785	-68.021015	35.565640
52301	9.019314	2.739071	2.473369	-0.002905	0.019270	-0.056966	47.953370	-67.988105	35.530299
52302	9.012592	2.663508	2.440526	0.011302	0.023368	-0.056582	47.993118	-67.954329	35.500273
52303	9.016113	2.730450	2.504973	0.006501	0.013097	-0.066466	48.050325	-67.919719	35.448479
52304	9.056465	2.650624	2.444417	-0.002465	0.007599	-0.084951	48.125217	-67.879861	35.371995
52305	9.243546	2.751087	2.291596	0.016978	0.006673	-0.094465	48.221034	-67.835703	35.284967
52306	9.138744	2.682481	2.263401	0.025969	0.023476	-0.097477	48.306669	-67.784345	35.214425
52307	9.052662	2.740189	2.510400	0.068478	0.042867	-0.115758	48.413165	-67.717199	35.147676
52308	8.997114	2.678309	2.503108	0.059585	0.006973	-0.141248	48.574899	-67.653219	35.015633
52309	8.989322	2.751863	2.417719	0.064216	0.028343	-0.155846	48.729693	-67.574202	34.893939
52310	8.988501	2.757019	2.494302	0.087802	0.023164	-0.153553	48.900171	-67.498527	34.769786
52311	8.987976	2.787527	2.564877	0.092175	0.003648	-0.175437	49.112418	-67.420038	34.603094
52312	9.019693	2.721512	2.376204	0.107755	-0.017464	-0.193235	49.370045	-67.341989	34.396776
52313	9.090247	2.726620	2.419906	0.159481	-0.004016	-0.209758	49.656449	-67.250837	34.191299
52314	9.234802	3.044952	2.400287	0.167876	0.017575	-0.228487	49.939541	-67.143635	33.994447
52315	9.323372	2.727965	2.035827	0.085169	0.025236	-0.293125	50.221265	-67.004322	33.747487
52316	9.047684	2.993992	2.481100	0.305696	0.148343	-0.265192	50.474582	-66.832389	33.668431
52317	8.965677	3.013266	2.539760	0.196462	0.065610	-0.329244	50.802274	-66.661492	33.440241
52318	9.011372	2.801264	2.288281	0.299360	0.118781	-0.369056	51.163062	-66.453653	33.239876
52319	9.046354	3.090604	2.762258	0.367551	0.156511	-0.417951	51.559315	-66.209422	33.043137
52320	8.988778	3.074760	2.455913	0.338692	0.147465	-0.450988	51.968526	-65.953472	32.813721
52321	9.002083	3.154481	2.601152	0.383776	0.175548	-0.444664	52.363846	-65.689375	32.627410
52322	9.124625	3.210221	2.497235	0.331049	0.154616	-0.479525	52.770357	-65.416671	32.395197
52323	9.047311	3.296882	2.320444	0.396319	0.179098	-0.478292	53.182160	-65.134917	32.197841
52324	9.141862	3.307728	2.677225	0.405161	0.142339	-0.485884	53.633981	-64.862101	31.961450
52325	8.885469	3.341895	2.290044	0.403162	0.158023	-0.498147	54.070932	-64.577061	31.739720
52326	8.555461	3.400055	2.473900	0.488251	0.157167	-0.454662	54.519940	-64.312299	31.558135
52327	8.862359	3.558875	2.759382	0.413366	0.094278	-0.462036	54.985725	-64.063784	31.309885
52328	8.785592	3.475440	2.412310	0.394848	0.124260	-0.473513	55.413207	-63.799710	31.091898
52329	8.607515	3.524096	2.741900	0.428061	0.150815	-0.455244	55.816284	-63.534512	30.921898
52330	8.625843	3.660154	2.565020	0.362800	0.096215	-0.487300	56.248653	-63.271499	30.676913
52331	8.434769	3.610849	2.413014	0.327265	0.089837	-0.452642	56.638838	-63.025783	30.455853
52332	8.393371	3.667485	2.455157	0.352909	0.061803	-0.438519	57.055972	-62.795420	30.220547
52333	8.656055	3.709206	2.745229	0.311375	0.029510	-0.437248	57.473378	-62.574405	29.957683
52334	8.321050	3.947523	2.415044	0.244033	0.071152	-0.409201	57.792163	-62.353915	29.761991
52335	8.335867	3.928717	2.473373	0.198284	-0.025195	-0.361424	58.142202	-62.184880	29.501029
52336	8.699438	3.861611	2.537021	0.148393	-0.017863	-0.364476	58.455185	-62.011957	29.249239
52337	8.332703	3.880776	2.210810	0.178124	0.011443	-0.340732	58.741663	-61.840770	29.046388
52338	8.796932	4.157007	2.382317	0.187282	-0.032570	-0.331309	59.065570	-61.687237	28.806705
52339	8.952050	4.185362	2.298798	0.124423	0.025199	-0.352131	59.309248	-61.505431	28.616906
52340	8.694110	4.149482	2.218725	0.127656	0.068409	-0.360153	59.517403	-61.307229	28.469334
52341	8.860078	4.116230	2.362651	0.144912	0.056002	-0.389479	59.759504	-61.097339	28.294024
52342	8.843662	4.145670	2.418815	0.112344	0.123043	-0.437290	59.945057	-60.844662	28.161649
52343	8.601518	3.934041	2.421508	0.115550	0.117716	-0.465935	60.148970	-60.578575	28.009997
52344	9.083933	4.127098	2.559520	0.171024	0.091199	-0.540560	60.441777	-60.283055	27.792262
52345	8.936947	4.313068	2.351209	0.141690	0.190432	-0.626555	60.668865	-59.915715	27.630224
52346	8.673414	4.267289	2.440917	0.167728	0.157953	-0.685130	60.961830	-59.528265	27.408564
52347	8.695738	4.289761	2.537300	0.158694	0.169429	-0.746444	61.261993	-59.105841	27.171584
52348	8.757441	4.357995	2.572460	0.166989	0.166054	-0.815921	61.593951	-58.649186	26.901932
52349	8.476239	4.361454	2.445601	0.186168	0.186578	-0.874966	61.937327	-58.155898	26.630393
52350	8.671178	4.513392	2.562806	0.219582	0.163258	-0.934064	62.334415	-57.638461	26.316576
52351	8.485901	4.663876	2.419400	0.225584	0.201438	-0.990047	62.716663	-57.080917	26.022564
52352	8.259624	4.763320	2.468705	0.237781	0.199669	-1.027726	63.111326	-56.503986	25.720206
52353	8.250938	4.750189	2.608101	0.237513	0.175065	-1.070709	63.529376	-55.909793	25.387437
52354	8.392234	4.845782	2.567895	0.230110	0.166326	-1.114890	63.953626	-55.294194	25.039661
52355	8.116950	4.890450	2.451787	0.249575	0.213432	-1.157785	64.356464	-54.642896	24.728930
52356	8.274919	5.021174	2.636315	0.301997	0.194670	-1.210403	64.808092	-53.968082	24.392597
52357	8.108410	5.222277	2.502689	0.296637	0.236655	-1.274244	65.233928	-53.248075	24.081433
52358	7.868118	5.288115	2.407268	0.299258	0.227281	-1.330787	65.671893	-52.499854	23.754013
52359	8.175574	5.379648	2.597404	0.293511	0.228915	-1.397475	66.110844	-51.714500	23.417719
52360	8.119120	5.488717	2.454515	0.313571	0.278954	-1.470751	66.534741	-50.878033	23.111738
52361	7.915236	5.657819	2.437658	0.345038	0.310906	-1.533181	66.958527	-49.999725	22.825451
52362	8.330874	5.786096	2.748982	0.366279	0.319131	-1.609386	67.394775	-49.078358	22.535073
52363	8.034227	5.806678	2.804765	0.398638	0.427869	-1.677012	67.785964	-48.095758	22.325175
52364	7.759447	6.201917	2.740335	0.485900	0.443965	-1.760243	68.224286	-47.064833	22.115931
52365	7.850874	6.326940	2.833705	0.402288	0.435694	-1.857147	68.627061	-45.982712	21.885896
52366	8.170000	6.536774	2.445159	0.401903	0.424004	-1.988450	69.049435	-44.832034	21.623799
52367	7.777757	6.800514	2.284494	0.468777	0.492809	-2.123791	69.484724	-43.593279	21.392410
52368	7.001686	7.305714	1.915428	0.610344	0.341019	-2.243568	70.082099	-42.318986	21.036980
52369	9.046772	7.701255	3.768504	0.724096	0.030376	-2.290514	70.877660	-41.075507	20.472788
52370	8.038209	7.161865	3.911293	0.373562	0.340587	-2.256164	71.296233	-39.788879	20.165831
52371	6.031231	6.473085	2.022265	0.503872	0.132937	-2.309815	71.871041	-38.508533	19.721051
52372	6.280952	6.995897	2.647805	0.744166	0.058804	-2.338815	72.595282	-37.221654	19.244699
52373	6.187415	7.032775	3.077910	0.732139	-0.036635	-2.328292	73.324469	-35.951770	18.733986
52374	6.102616	7.256397	2.724279	0.794127	-0.105457	-2.307765	74.088412	-34.699127	18.209165
52375	5.905982	7.331851	2.650515	0.913019	-0.167703	-2.274153	74.914389	-33.468664	17.678112
52376	5.726197	7.688305	2.545115	0.984668	-0.203602	-2.228146	75.765197	-32.262691	17.160019
52377	5.608241	7.986101	2.542771	1.039260	-0.263433	-2.175820	76.639154	-31.087550	16.639554
52378	5.615127	8.302674	2.340497	1.012131	-0.299828	-2.096948	77.481382	-29.954664	16.133812
52379	5.233744	8.389812	2.100579	0.958187	-0.257186	-2.011742	78.252733	-28.858339	15.691474
52380	4.636969	8.538517	1.371252	0.987275	-0.321880	-1.959808	79.040052	-27.793355	15.235856
52381	4.192057	8.860283	1.218108	0.972343	-0.398843	-1.912337	79.821264	-26.757811	14.758095
52382	3.738825	9.140198	0.801340	0.874665	-0.546714	-1.878183	80.570103	-25.750390	14.210509
52383	2.349126	9.411440	-0.515101	0.812616	-0.772790	-1.874208	81.326402	-24.759202	13.541300
52384	2.766481	9.845371	-0.072390	0.736095	-1.198581	-1.901490	82.130337	-23.779508	12.624801
52385	2.774682	9.800517	-0.620561	0.509755	-1.394719	-1.943402	82.830871	-22.779686	11.604712
52386	2.735014	9.975113	-0.853385	0.451555	-1.596643	-2.002128	83.522403	-21.749018	10.476844
52387	2.959597	10.212872	-0.581649	0.288197	-1.790420	-2.038258	84.137436	-20.697643	9.249028
52388	2.991318	10.318050	-0.428458	0.132356	-1.872554	-2.069677	84.652969	-19.621921	7.989105
52389	2.228764	11.647150	-0.233997	0.191339	-1.720673	-2.156573	85.144843	-18.478247	6.834905
52390	0.147549	13.915384	1.278320	0.348377	-1.308319	-2.413932	85.625583	-17.159654	5.934089
52391	-2.121010	15.765877	4.095257	-0.179636	-1.117128	-2.814069	85.751166	-15.599213	5.143375
52392	4.208515	16.091183	3.376056	-1.123922	-1.661926	-2.692840	85.396019	-14.134107	4.038823
52393	7.796646	10.805374	1.531473	-1.578184	-1.148455	-1.778898	84.677536	-13.174618	3.274389
52394	8.130497	9.262484	0.156811	-0.672466	-0.426629	-0.577386	84.361066	-12.868368	2.993070
52395	5.651047	11.582116	1.650379	0.243556	0.582255	0.414503	84.423915	-13.071507	3.358482
52396	1.567768	15.294025	3.839744	0.264203	0.941953	0.896048	84.441776	-13.529837	3.962474
52397	-1.812448	17.331319	3.418926	-0.393507	0.780086	0.807018	84.101310	-13.944710	4.468729
52398	-3.063163	18.000861	2.489357	-0.649745	0.672803	0.308847	83.633898	-14.079173	4.884104
52399	-4.270461	18.340926	2.674007	-0.831101	0.597837	-0.411987	83.084956	-13.804005	5.207490
52400	-3.840792	17.737047	2.172866	-1.173018	0.257191	-1.148451	82.402995	-13.132335	5.273191
52401	-2.363908	16.690833	1.527362	-1.249360	0.059230	-1.734618	81.715342	-12.141619	5.167872
52402	-0.370448	15.951987	1.479778	-1.282685	-0.172765	-2.134351	81.043096	-10.947049	4.881734
52403	1.922094	15.169427	1.388641	-1.229933	-0.275370	-2.311496	80.410520	-9.663338	4.507478
52404	4.093896	14.469308	1.975695	-1.083134	-0.242523	-2.287390	79.852664	-8.395614	4.142256
52405	6.225616	13.953742	2.970826	-0.965438	-0.058828	-2.111652	79.339087	-7.209677	3.889147
52406	7.900813	13.436549	3.672576	-0.893068	0.369252	-1.826983	78.831612	-6.141403	3.899553
52407	8.406132	12.894580	3.981149	-0.812468	0.931711	-1.482707	78.335914	-5.201356	4.257275
52408	8.190266	12.407241	3.850124	-0.774093	1.374465	-1.124800	77.844162	-4.407855	4.897873
52409	8.234431	11.710024	3.701963	-0.763994	1.686648	-0.773877	77.350816	-3.766068	5.749466
52410	8.725719	11.101233	3.566689	-0.797128	1.851609	-0.388315	76.838589	-3.311852	6.736538
52411	9.040347	10.296085	3.147171	-0.850462	1.932059	0.123647	76.294826	-3.122949	7.832243
52412	8.852667	9.418198	3.116415	-0.862345	2.010458	0.778463	75.737595	-3.276995	9.060486
52413	9.006076	8.997711	3.067493	-0.883496	1.993553	1.507278	75.154189	-3.825816	10.386418
52414	8.825736	9.945408	2.932735	-0.870911	2.037172	2.291605	74.549841	-4.787803	11.861093
52415	6.715887	10.774999	3.851230	-1.001119	2.031088	2.924303	73.830994	-6.083449	13.445167
52416	5.363074	10.028136	3.504029	-1.444273	1.591972	3.049309	72.845065	-7.495296	14.830375
52417	3.944057	9.145919	2.626006	-1.480201	1.452976	2.961650	71.813533	-8.860271	16.152908
52418	2.369277	8.742051	3.159431	-1.626477	1.153547	2.823738	70.694708	-10.179481	17.315440
52419	2.033930	7.592562	2.753511	-1.931053	0.546990	2.733089	69.433800	-11.545587	18.159940
52420	2.661879	6.216500	2.366014	-2.161087	-0.034853	2.788930	68.078667	-13.041654	18.734184
52421	3.319441	4.604151	2.041140	-2.294051	-0.479969	2.879577	66.674746	-14.671200	19.127282
52422	4.017782	3.498114	1.598981	-2.214717	-0.586770	2.840051	65.312653	-16.293883	19.496254
52423	4.585930	2.658403	1.046515	-1.933301	-0.316267	2.671986	64.059028	-17.756280	20.010438
52424	4.613801	1.563154	0.477877	-1.650557	0.011451	2.531740	62.901026	-19.050730	20.699922
52425	4.173048	0.253731	-0.850229	-1.453168	0.057552	2.522482	61.822443	-20.317028	21.443928
52426	3.100568	-1.007720	-2.551472	-0.898426	0.064339	2.544259	61.033536	-21.579042	22.225806
52427	1.502319	-1.096704	-3.140680	0.113769	0.181851	2.382332	60.795897	-22.722733	23.041464
52428	0.895144	0.292076	-1.790851	0.713304	0.027240	2.167570	60.944019	-23.799389	23.715049
52429	1.834989	0.816647	-0.588588	0.859209	-0.328131	2.066592	61.256151	-24.928446	24.163495
52430	3.192833	1.098517	0.622508	0.901857	-0.542434	2.082192	61.636071	-26.124304	24.493616
52431	3.772591	1.454193	1.695684	0.842366	-0.485112	2.104793	61.959517	-27.320174	24.858435
52432	3.460695	1.839854	2.249485	0.615799	-0.327632	2.103422	62.106009	-28.472052	25.311074
52433	3.613934	1.839374	2.230108	0.212607	-0.400050	2.123463	62.027832	-29.656209	25.732536
52434	4.356598	1.155439	1.448437	-0.216109	-0.585085	2.275410	61.722619	-30.963424	26.102700
52435	4.872356	0.372707	0.622646	-0.323617	-0.767042	2.494042	61.359298	-32.431184	26.450148
52436	4.306452	0.321770	0.116893	-0.222987	-0.616333	2.597429	60.969593	-33.904600	26.938823
52437	3.323126	0.297489	-0.012344	-0.199780	-0.589181	2.585295	60.562778	-35.364352	27.461346
52438	4.111103	0.127403	-0.532105	-0.273291	-0.811707	2.602203	60.168083	-36.889648	27.874386
52439	5.867050	-0.228051	-0.677960	-0.227586	-1.153549	2.797697	59.864426	-38.610867	28.164953
52440	6.423974	0.131094	0.064292	0.020376	-1.192286	3.007513	59.651843	-40.442985	28.525817
52441	5.784910	1.200685	1.125510	0.110384	-1.079385	3.063560	59.404308	-42.272295	29.003171
52442	5.683358	1.965307	2.030376	-0.069984	-1.107930	3.039405	59.044633	-44.092716	29.478049
52443	6.949294	2.291229	2.529317	-0.389004	-1.277861	3.084861	58.534940	-45.986815	29.889843
52444	8.150418	2.312876	2.926716	-0.667703	-1.388764	3.245291	57.831063	-47.985708	30.336595
52445	7.936468	2.238758	2.952027	-0.882061	-1.316080	3.354853	56.865823	-50.014166	30.951813
52446	7.831626	2.377125	2.730359	-1.039512	-1.271934	3.361698	55.702764	-52.020203	31.688621
52447	8.142736	2.078890	2.019492	-1.181023	-1.360338	3.393153	54.397169	-54.063549	32.481126
52448	8.571501	1.734740	1.463907	-1.110043	-1.514546	3.476011	53.079447	-56.182058	33.318490
52449	8.425074	2.186026	1.489000	-0.817993	-1.472654	3.470134	51.767694	-58.275877	34.326294
52450	7.876918	3.033616	2.022930	-0.606702	-1.376336	3.339145	50.436037	-60.259410	35.477212
52451	8.644242	3.690270	2.624808	-0.568631	-1.518585	3.248546	49.131484	-62.246061	36.598521
52452	9.614447	3.921424	2.934005	-0.576833	-1.615581	3.191865	47.773864	-64.228051	37.754740
52453	10.201553	4.115568	2.915358	-0.501460	-1.582570	3.148941	46.259950	-66.169640	39.110779
52454	10.268959	4.678076	3.120403	-0.295510	-1.533939	3.097389	44.629052	-68.050265	40.702951
52455	10.139334	5.669330	3.832058	-0.053708	-1.426988	2.995665	42.844136	-69.831040	42.587362
52456	10.222252	6.961795	5.115011	-0.040142	-1.353037	2.864104	40.813473	-71.502600	44.720513
52457	10.243491	7.757128	5.953821	-0.411068	-1.337985	2.726190	38.332953	-73.091646	47.081772
52458	9.977591	7.669011	5.156251	-0.661902	-1.250900	2.529833	35.445950	-74.534511	49.698445
52459	10.042209	7.946561	4.787356	-0.546373	-1.073024	2.279468	32.331141	-75.775512	52.601693
52460	10.072370	7.942151	4.611719	-0.512438	-0.972008	2.053589	29.053577	-76.854535	55.678246
52461	9.790021	7.341775	3.760059	-0.420981	-0.891860	1.872353	25.611597	-77.802785	58.963796
52462	8.703145	7.055564	3.038654	-0.095722	-0.750741	1.668313	22.214818	-78.582944	62.383401
52463	7.741329	7.685640	3.619066	0.279714	-0.650057	1.390704	19.243440	-79.214346	65.579795
52464	7.734796	8.043162	4.354215	0.337124	-0.617071	1.101923	16.797374	-79.745136	68.269632
52465	7.788660	7.989548	4.641460	0.376967	-0.505148	0.861245	14.774174	-80.158212	70.548885
52466	8.037362	8.016239	4.889537	0.312921	-0.343758	0.655101	13.105461	-80.438946	72.429209
52467	7.639095	7.518071	4.251047	0.205437	-0.281567	0.508589	11.720875	-80.658907	73.957477
52468	6.883625	8.062812	4.638784	0.303051	-0.104252	0.327033	10.848722	-80.753272	75.022687
52469	6.039189	8.251691	5.013791	0.073041	0.008781	0.053715	10.701424	-80.753434	75.219735
52470	5.078481	7.380044	3.940200	-0.191112	0.154391	-0.272611	11.429536	-80.635756	74.376467
52471	0.425004	8.697864	0.032089	0.842575	0.430786	-1.176585	15.469232	-80.237674	70.774983
52472	20.350883	7.513936	9.539953	1.138848	-1.817057	-4.033023	30.933626	-80.283738	55.754588
52473	24.897058	8.710491	6.174308	-0.670869	-0.309624	-2.194942	37.037759	-79.725424	49.171947
52474	16.496969	1.024523	-2.891785	-1.650583	0.658399	-1.021547	37.367652	-79.070217	47.879729
52475	4.878718	-1.480411	-0.360213	0.701865	1.613717	-1.110989	37.497896	-77.947554	48.162856
52476	3.660803	0.261156	1.846361	0.545894	0.650301	-1.658468	40.102703	-77.060774	45.820876
52477	9.861515	0.519911	0.732747	0.205045	0.055880	-1.867147	43.506969	-76.321971	42.449207
52478	11.767869	2.812152	2.695571	1.054241	0.833437	-1.710760	45.553590	-75.293320	40.966898
52479	9.808820	4.594541	4.982045	0.798973	1.002807	-1.629057	46.864651	-74.220429	40.088298
52480	13.975584	4.949494	5.157687	-0.247540	-0.081612	-1.774608	49.196144	-73.494820	37.519202
52481	16.877006	8.049931	3.530889	-0.560507	-0.130209	-0.581798	49.795571	-73.288069	36.564320
52482	7.405433	-0.161656	0.351550	-1.101562	0.475513	-0.216013	48.753007	-73.015799	36.999867
52483	10.227041	2.779252	1.661485	0.424111	-0.271269	-0.295796	49.747880	-72.987072	36.219451
52484	9.413621	2.701868	2.507546	-0.253071	0.183701	-0.144918	49.520648	-72.854924	36.311168
52485	9.159943	2.041354	1.755479	-0.204063	-0.106458	-0.131721	49.717484	-72.835131	35.988619
52486	9.195129	1.886513	1.811112	-0.152320	0.068869	-0.198804	49.774280	-72.721988	35.843482
52487	9.468680	2.395645	1.883965	-0.115599	0.001979	-0.204942	49.952711	-72.629681	35.593008
52488	9.389992	2.332186	1.964806	-0.181477	0.044097	-0.180802	50.003173	-72.533391	35.436845
52489	9.529236	2.227668	1.576094	-0.200542	0.019413	-0.164360	50.057800	-72.452264	35.264905
52490	9.358903	2.155354	1.722368	-0.098618	0.095253	-0.151225	50.048569	-72.350085	35.221016
52491	9.147573	2.371018	2.169667	-0.082950	0.084578	-0.151807	50.064418	-72.250498	35.160323
52492	9.287254	2.430757	2.100094	-0.178501	0.016050	-0.136636	50.100585	-72.183843	35.020647
52493	9.429248	2.281204	1.741615	-0.161814	-0.004944	-0.105136	50.139414	-72.137624	34.888294
52494	9.284230	2.218498	1.850684	-0.066664	0.021488	-0.076492	50.162769	-72.095377	34.829333
52495	9.147133	2.337980	2.125610	-0.116839	0.033806	-0.118758	50.189263	-72.028918	34.736958
52496	9.292822	2.177485	1.822405	-0.219839	0.056322	-0.174124	50.187288	-71.930911	34.612299
52497	9.352996	2.195715	1.749799	-0.128215	0.100646	-0.188149	50.194077	-71.809385	34.533696
52498	9.058819	2.361255	2.193648	-0.101439	0.119576	-0.178538	50.178836	-71.686231	34.494273
52499	9.175022	2.433038	2.154830	-0.166146	0.056218	-0.193359	50.227412	-71.578701	34.348630
52500	9.114107	2.374436	2.157563	-0.158311	0.033067	-0.186002	50.300924	-71.483927	34.181230
52501	9.280025	2.486073	2.075810	-0.190653	0.001056	-0.185258	50.396738	-71.400009	33.970781
52502	9.333249	2.320041	1.806145	-0.189698	-0.006388	-0.164718	50.478537	-71.328875	33.775493
52503	9.232576	2.422945	2.005066	-0.105555	0.025687	-0.156585	50.557615	-71.248470	33.634002
52504	9.170369	2.485418	2.132581	-0.157564	0.014421	-0.167679	50.631692	-71.168286	33.466139
52505	9.241474	2.413732	1.969217	-0.179849	0.005176	-0.176307	50.713855	-71.086460	33.276263
52506	9.357279	2.506083	1.897571	-0.158317	0.029452	-0.167715	50.766044	-71.000673	33.130920
52507	9.348875	2.489736	1.885085	-0.148682	0.041248	-0.146730	50.786492	-70.918802	33.025031
52508	9.229176	2.471610	1.985754	-0.118428	0.063130	-0.123398	50.770668	-70.840452	32.975720
52509	9.067880	2.443571	2.167522	-0.121947	0.057958	-0.130479	50.767367	-70.759750	32.911098
52510	9.111739	2.451001	2.170445	-0.149621	0.040168	-0.161734	50.802044	-70.672699	32.789299
52511	9.306272	2.534389	1.920485	-0.163609	0.048859	-0.170997	50.827249	-70.577273	32.669082
52512	9.340966	2.507874	1.856559	-0.102670	0.063879	-0.145705	50.841237	-70.488728	32.597622
52513	9.259242	2.599460	2.034044	-0.073303	0.068914	-0.113889	50.833724	-70.411413	32.566905
52514	9.276279	2.577723	2.019335	-0.088129	0.049185	-0.084886	50.812085	-70.355204	32.542046
52515	9.219672	2.509713	2.018605	-0.047897	0.050629	-0.064892	50.792159	-70.306276	32.539948
52516	9.162899	2.637803	2.159239	-0.031623	0.055904	-0.050931	50.760245	-70.262710	32.560381
52517	9.249684	2.599851	2.086602	-0.054759	0.020057	-0.031130	50.740194	-70.239846	32.554238
52518	9.190873	2.543542	2.030783	-0.023699	0.031267	-0.009684	50.701765	-70.223504	32.586425
52519	9.175827	2.560689	2.132125	-0.021257	0.024367	-0.007102	50.671413	-70.209732	32.611627
52520	9.119709	2.507739	2.100128	-0.038116	0.031105	-0.017945	50.633365	-70.189776	32.634636
52521	9.151801	2.567838	2.165583	-0.034132	0.032879	-0.032137	50.610509	-70.161815	32.644035
52522	9.173108	2.588585	2.138781	-0.049044	0.019481	-0.026113	50.588794	-70.142462	32.643029
52523	9.173163	2.613306	2.137328	-0.040715	0.009958	-0.008901	50.566913	-70.133121	32.647382
52524	9.146197	2.542056	2.152757	-0.047493	-0.007742	-0.006752	50.559957	-70.132244	32.631629
52525	9.212254	2.550720	2.070963	-0.048264	0.003613	-0.009839	50.542466	-70.124795	32.626714
52526	9.160922	2.481030	2.088678	-0.028456	0.003198	-0.010715	50.537015	-70.118184	32.620957
52527	9.124888	2.596248	2.174800	-0.037269	0.006671	-0.030230	50.542603	-70.100609	32.598198
52528	9.253390	2.588016	1.990101	-0.055353	-0.011392	-0.025263	50.554188	-70.092873	32.557932
52529	9.145660	2.593687	2.149934	-0.015867	0.000921	-0.011567	50.560275	-70.085649	32.547682
