// General information: 
//  MT Manager version: 2022.2.0 
//  XDA version: 2022.2.0 build 7381 rev 124627 built on 2023-07-19
// Device information: 
//  DeviceId: 00B4BB4E
//  ProductCode: MTW2-3A7G6
//  Firmware Version: 4.6.0
//  Hardware Version: 2.0.0
// Device settings: 
//  Filter Profile: human(46.1)
//  Option Flags: Orientation Smoother Disabled, Position/Velocity Smoother Disabled, Continuous Zero Rotation Update Disabled, AHS Disabled, ICC Disabled
// Coordinate system: ENU
PacketCounter	Acc_X	Acc_Y	Acc_Z	Gyr_X	Gyr_Y	Gyr_Z	Roll	Pitch	Yaw
02471	9.683166	-0.101020	-0.525613	-0.088683	-0.001606	-0.037121	-165.081459	-86.727123	-133.352916
02472	9.568970	0.021091	-0.467933	-0.110635	-0.009677	-0.034276	-165.449052	-86.724658	-133.047700
02473	9.714850	0.128152	-0.476494	-0.113462	-0.034576	-0.017135	-165.719102	-86.705545	-132.841454
02474	9.839186	0.371120	-0.518137	-0.142333	-0.024162	-0.010602	-165.909193	-86.691543	-132.732218
02475	9.824225	0.386074	-0.453455	-0.171743	-0.016936	-0.006547	-166.064873	-86.680691	-132.673958
02476	9.824349	0.354568	-0.519646	-0.203634	-0.011365	-0.000823	-166.164131	-86.672429	-132.690888
02477	9.768465	0.211710	-0.594385	-0.227593	-0.012567	0.012642	-166.157706	-86.661377	-132.827036
02478	9.644427	0.120107	-0.623672	-0.221917	-0.023774	0.026534	-166.036727	-86.642448	-133.075074
02479	9.685357	0.026653	-0.617262	-0.206048	-0.030304	0.041944	-165.785995	-86.617420	-133.443578
02480	9.664062	0.095835	-0.782127	-0.160097	-0.018900	0.059490	-165.315794	-86.596346	-134.005980
02481	9.615585	0.220721	-0.693117	-0.153036	-0.016209	0.069680	-164.753869	-86.574685	-134.655812
02482	9.568845	0.193515	-0.484179	-0.190292	-0.000496	0.073376	-164.139296	-86.560998	-135.380199
02483	9.599269	-0.079862	-0.499758	-0.242924	-0.008572	0.071340	-163.607595	-86.542501	-136.051356
02484	9.817944	-0.098793	-0.575493	-0.176261	-0.005091	0.070092	-163.038819	-86.525984	-136.721834
02485	9.812828	-0.068459	-0.421927	-0.223086	0.003761	0.082089	-162.377300	-86.511589	-137.511681
02486	9.659344	-0.270256	-0.779003	-0.220995	0.018010	0.085323	-161.642607	-86.504041	-138.374083
02487	9.548600	-0.194108	-0.924599	-0.242786	0.017546	0.079168	-160.987086	-86.496502	-139.169248
02488	9.506506	-0.258383	-0.869757	-0.271579	-0.009476	0.067023	-160.535256	-86.476397	-139.777311
02489	9.716712	-0.391193	-0.982045	-0.308277	-0.010219	0.053863	-160.234592	-86.457942	-140.254569
02490	9.701366	-0.656911	-0.871322	-0.304837	-0.011217	0.037062	-160.077244	-86.442334	-140.586700
02491	9.804677	-0.920764	-0.646588	-0.229770	-0.012296	0.028529	-159.963194	-86.427515	-140.831948
02492	9.835696	-0.730904	-0.709445	-0.119510	-0.006239	0.019197	-159.841403	-86.418012	-141.022070
02493	9.781533	-0.292230	-0.562060	-0.080753	-0.012487	0.008943	-159.812535	-86.406897	-141.096462
02494	9.841551	-0.123373	-0.559853	-0.094491	-0.010962	0.004066	-159.821979	-86.397828	-141.140730
02495	9.888422	-0.096520	-0.769044	-0.135239	0.004714	0.008213	-159.776918	-86.396106	-141.262629
02496	9.762169	-0.122035	-0.917471	-0.168522	0.005877	0.014537	-159.686698	-86.394004	-141.449260
02497	9.662317	-0.108927	-0.726446	-0.180913	0.006317	0.016177	-159.595236	-86.391527	-141.643870
02498	9.799543	-0.243531	-0.836208	-0.198399	0.000818	0.023908	-159.458990	-86.384790	-141.893773
02499	9.881953	-0.275516	-0.884014	-0.184425	0.024755	0.019676	-159.281382	-86.391429	-142.176717
02500	9.785877	-0.202477	-0.896005	-0.164551	0.035348	0.023465	-159.017746	-86.403167	-142.534828
02501	9.710051	-0.053922	-0.861085	-0.167045	0.027398	0.028604	-158.743265	-86.409211	-142.904855
02502	9.756830	-0.029511	-0.869572	-0.167487	0.037333	0.036590	-158.359365	-86.419023	-143.385144
02503	9.635679	-0.031156	-0.837986	-0.231314	0.062359	0.035461	-157.940228	-86.441893	-143.936986
02504	9.439305	-0.220306	-0.812582	-0.260099	0.061880	0.029930	-157.572944	-86.465749	-144.453771
02505	9.604336	-0.537880	-0.547597	-0.295476	0.055779	0.020062	-157.334798	-86.488093	-144.861079
02506	9.908671	-0.977381	-0.789087	-0.308988	0.073246	-0.003699	-157.234459	-86.525132	-145.138457
02507	10.073667	-0.968946	-0.997328	-0.257970	0.096195	-0.026698	-157.225433	-86.579088	-145.294697
02508	9.981022	-0.920681	-1.016021	-0.249825	0.110649	-0.045036	-157.311503	-86.645041	-145.351352
02509	9.888502	-1.056010	-0.991500	-0.267698	0.118308	-0.072785	-157.642626	-86.720826	-145.172470
02510	9.840272	-1.249666	-1.038281	-0.241336	0.132663	-0.102155	-158.187049	-86.810805	-144.765160
02511	9.766711	-1.459244	-0.909878	-0.179237	0.137365	-0.140172	-159.088063	-86.910567	-143.964850
02512	9.618770	-1.522617	-0.690738	-0.110507	0.153639	-0.163211	-160.175225	-87.023263	-142.939053
02513	9.655542	-1.434940	-0.749086	-0.029426	0.160675	-0.181385	-161.475883	-87.141623	-141.652864
02514	9.970740	-1.224950	-0.683549	0.014925	0.180164	-0.202403	-163.027461	-87.273048	-140.090365
02515	10.230913	-1.125473	-0.577340	0.018242	0.209899	-0.226497	-164.935066	-87.421854	-138.169585
02516	10.273535	-1.228475	-0.420943	0.023294	0.263014	-0.254936	-167.282547	-87.601193	-135.806019
02517	9.748167	-1.320526	-0.487789	0.015799	0.293453	-0.276064	-170.244747	-87.794593	-132.831757
02518	9.405590	-1.248780	-0.461303	0.050005	0.261039	-0.307184	-174.297337	-87.964856	-128.747213
02519	9.361455	-1.039477	-0.292169	0.057829	0.232600	-0.350221	-179.812987	-88.106466	-123.194621
02520	9.357068	-0.913812	-0.175769	0.028058	0.229724	-0.389109	173.119949	-88.224001	-116.107346
02521	9.405492	-0.906967	-0.157231	-0.024151	0.227506	-0.434356	164.331400	-88.302335	-107.328113
02522	9.503793	-0.900050	-0.161799	-0.058409	0.225564	-0.460288	154.463866	-88.330619	-97.489305
02523	9.456444	-0.969710	-0.105308	-0.078919	0.221816	-0.499066	143.993111	-88.293627	-87.058806
02524	9.444993	-1.051906	-0.182676	-0.080983	0.212320	-0.527318	134.022154	-88.188141	-77.129083
02525	9.490611	-1.050787	-0.255784	-0.067349	0.195345	-0.563044	125.280800	-88.012265	-68.421157
02526	9.719035	-0.870977	-0.372499	-0.040898	0.179508	-0.591008	118.106550	-87.779954	-61.265029
02527	9.847020	-0.689610	-0.336022	-0.036767	0.169739	-0.613171	112.382896	-87.505820	-55.557291
02528	10.028088	-0.550803	-0.172031	-0.025702	0.161827	-0.628474	107.854813	-87.202121	-51.038623
02529	10.035075	-0.407543	-0.072591	-0.030555	0.175347	-0.648800	104.047488	-86.875145	-47.243457
02530	9.954970	-0.281405	-0.138558	-0.059553	0.168787	-0.677610	100.955179	-86.519965	-44.179685
02531	9.968969	0.018296	-0.213692	-0.067839	0.165646	-0.697048	98.444189	-86.145532	-41.702247
02532	9.948198	0.314969	-0.332836	-0.118987	0.166078	-0.725450	96.315093	-85.748696	-39.635657
02533	9.864235	0.547268	-0.588360	-0.160898	0.164105	-0.746670	94.531469	-85.335165	-37.938857
02534	9.802206	0.805084	-0.622670	-0.172435	0.157676	-0.761706	93.056073	-84.908959	-36.556751
02535	9.674287	1.041695	-0.637237	-0.126275	0.156173	-0.772658	91.839778	-84.474094	-35.407640
02536	9.710081	1.144053	-0.574536	-0.028334	0.163529	-0.764898	90.805392	-84.041479	-34.383845
02537	9.774538	1.546940	-0.617496	0.041846	0.177510	-0.726523	89.882361	-83.629510	-33.431067
02538	9.666975	2.296539	-0.720255	0.085271	0.182450	-0.632402	89.061295	-83.269630	-32.554916
02539	9.568545	3.225001	-0.549045	0.188129	0.151067	-0.515865	88.518747	-82.976000	-31.899540
02540	9.577025	4.192623	-0.089525	0.345682	0.084439	-0.383486	88.387691	-82.758493	-31.567338
02541	9.655799	5.066905	0.545719	0.422332	0.048349	-0.237138	88.457397	-82.625512	-31.393188
02542	9.496362	5.282408	1.210843	0.329400	0.039103	-0.146784	88.500805	-82.544286	-31.246120
02543	9.427947	5.036366	1.422606	0.152861	0.015004	-0.127713	88.551276	-82.474326	-31.208016
02544	9.601479	4.750577	1.141931	-0.123926	0.010168	-0.126578	88.460089	-82.405115	-31.187138
02545	9.753964	4.259767	0.742001	-0.523192	0.028228	-0.057690	88.060031	-82.374826	-31.085103
02546	9.593237	3.496361	0.242621	-1.009854	0.002918	0.073638	87.465635	-82.420375	-31.068652
02547	9.479540	2.506349	-0.214510	-1.477675	-0.072907	0.217558	86.901573	-82.550064	-31.352699
02548	9.572163	1.495696	-0.741069	-1.937109	-0.165061	0.326904	86.448081	-82.746013	-32.014012
02549	9.810800	0.545967	-1.640872	-2.364204	-0.223826	0.397096	86.009330	-82.984586	-32.935976
02550	9.721569	-0.334362	-2.374068	-2.535627	-0.234565	0.442862	85.520674	-83.251054	-33.906607
02551	9.433480	-1.041808	-2.104431	-2.350099	-0.228738	0.485695	85.120753	-83.542271	-34.858554
02552	9.322805	-1.296284	-1.198932	-2.106747	-0.235427	0.531512	84.900539	-83.860895	-35.850892
02553	9.426691	-1.285625	-0.691856	-2.068449	-0.254980	0.569076	84.844640	-84.201981	-36.985446
02554	9.536046	-1.074154	-0.636765	-2.098599	-0.284774	0.590847	84.999600	-84.557151	-38.348852
02555	9.546894	-0.485317	-0.675883	-2.180232	-0.314052	0.592293	85.407153	-84.913735	-40.011891
02556	9.389449	-0.026337	-0.684172	-2.268389	-0.337147	0.602061	86.065637	-85.275636	-41.976742
02557	9.157613	0.440197	-0.440396	-2.309158	-0.365490	0.616925	87.134249	-85.644298	-44.375286
02558	9.089974	0.734428	-0.266669	-2.417680	-0.406665	0.627809	88.783671	-86.015649	-47.417464
02559	9.178431	0.865964	-0.266294	-2.539022	-0.428567	0.616092	91.042780	-86.372377	-51.138900
02560	9.403693	1.031160	-0.105010	-2.654370	-0.427206	0.583136	93.820859	-86.699375	-55.445157
02561	9.310909	0.889732	-0.038584	-2.763633	-0.440107	0.533296	97.367034	-86.982088	-60.581943
02562	9.137307	0.513077	-0.174397	-2.805022	-0.467067	0.456026	101.848140	-87.198490	-66.677534
02563	9.353326	0.336086	-0.168789	-2.772463	-0.462821	0.388773	106.877398	-87.351243	-73.302149
02564	9.784827	0.165555	0.075421	-2.574802	-0.406142	0.357962	111.815618	-87.470646	-79.721647
02565	9.904116	0.054248	0.800620	-2.232955	-0.370010	0.360179	117.041878	-87.573004	-86.232766
02566	9.865089	0.175053	0.701777	-2.077619	-0.398420	0.335225	122.932306	-87.627687	-93.319268
02567	10.054745	0.143019	0.165459	-1.952640	-0.411770	0.292830	128.884172	-87.626572	-100.395363
02568	10.392800	0.673652	0.526312	-1.822534	-0.375230	0.283128	134.371257	-87.606680	-106.931813
02569	10.521160	0.931367	1.032060	-1.812332	-0.314534	0.316527	139.523848	-87.599509	-113.127590
02570	10.704237	0.916067	1.374619	-1.765878	-0.268289	0.373510	144.894219	-87.610268	-119.514790
02571	9.829834	0.547050	0.655718	-1.866677	-0.159725	0.393970	149.701738	-87.655411	-125.396172
02572	9.245949	-0.204332	-0.530286	-1.891518	-0.188233	0.394271	154.832409	-87.665545	-131.615265
02573	9.484442	-0.957207	-0.843698	-1.585296	-0.245095	0.390883	160.340975	-87.620600	-138.036883
02574	9.708573	-1.486091	-0.662861	-1.177983	-0.224363	0.378138	165.574227	-87.560892	-143.949774
02575	9.545749	-1.960295	-0.395921	-0.770946	-0.180802	0.350234	170.264169	-87.500492	-149.085594
02576	9.388211	-2.052732	-0.215455	-0.397734	-0.150617	0.316681	174.446825	-87.438241	-153.499921
02577	9.229019	-1.862703	-0.074940	-0.092746	-0.140866	0.279320	178.101402	-87.366571	-157.210929
02578	9.129185	-1.590047	0.151777	0.247123	-0.135836	0.220849	-178.959719	-87.288419	-160.010746
02579	9.047575	-0.978515	0.689083	0.622131	-0.129278	0.156681	-176.728628	-87.209219	-161.887088
02580	9.181118	-0.003895	1.023329	0.869262	-0.109976	0.057441	-175.582817	-87.142640	-162.535120
02581	9.577564	1.062046	1.172068	1.037728	-0.073793	-0.048651	-175.544009	-87.100786	-161.978176
02582	9.703285	2.478161	1.559285	1.093741	-0.022571	-0.180131	-176.899106	-87.093184	-159.993351
02583	9.724153	3.397630	1.760869	0.885429	0.016430	-0.301166	-179.729593	-87.106060	-156.650667
02584	9.706597	3.913814	2.090998	0.547446	0.117262	-0.326115	176.884624	-87.167428	-152.946085
02585	9.478672	4.644697	1.416863	-0.128098	0.208367	-0.200214	174.328786	-87.276527	-150.459899
02586	9.025402	4.518590	-1.041690	-0.893408	0.079008	0.023736	174.081981	-87.322011	-150.724759
02587	9.178673	3.483459	-3.055093	-1.359577	-0.204154	0.158063	175.475398	-87.212636	-152.898596
02588	10.009401	2.259284	-2.800775	-1.325205	-0.219765	0.142079	176.594364	-87.091597	-154.778656
02589	10.408065	0.984882	-1.746544	-1.294183	-0.034557	0.074787	176.767074	-87.072990	-155.692991
02590	10.209856	-0.611288	-1.465345	-1.289762	0.077391	0.028052	176.360970	-87.117146	-156.025780
02591	9.923777	-2.176629	-1.343485	-1.035318	0.092488	-0.022344	175.490164	-87.167771	-155.746775
02592	9.822433	-3.035226	-0.781995	-0.496479	0.024377	-0.046533	174.715091	-87.178431	-155.255051
02593	10.195656	-3.228170	-0.284545	0.099644	0.034679	-0.008909	174.689259	-87.196470	-155.171106
02594	10.146166	-2.687706	-0.049268	0.443670	0.059534	0.086118	175.969805	-87.233492	-156.198148
02595	9.921808	-1.678488	-0.263676	0.567004	0.003247	0.149721	178.128283	-87.238401	-158.033080
02596	9.842943	-0.334879	-0.158753	0.675321	-0.031312	0.138134	-179.772829	-87.220369	-159.746527
02597	9.751468	0.978159	0.228172	0.620547	-0.048510	0.103449	-178.154169	-87.189947	-161.010369
02598	9.672911	1.578350	0.348829	0.312511	-0.071087	0.091744	-176.881002	-87.145554	-162.105304
02599	9.653725	1.520742	-0.159673	-0.086044	-0.106737	0.099614	-175.823414	-87.079240	-163.212751
02600	9.700308	1.084033	-0.674209	-0.365977	-0.125756	0.111100	-174.855111	-87.000699	-164.391802
02601	9.814138	0.444805	-0.880419	-0.515512	-0.126427	0.109256	-174.059072	-86.920828	-165.483847
02602	9.757005	-0.199488	-0.878088	-0.521684	-0.116471	0.098331	-173.402965	-86.846698	-166.439755
02603	9.660473	-0.661988	-0.809676	-0.436526	-0.121642	0.082984	-172.909047	-86.770039	-167.184049
02604	9.747300	-0.928413	-0.767331	-0.300402	-0.146531	0.068038	-172.534481	-86.680121	-167.731112
02605	10.008597	-0.912831	-0.598676	-0.136764	-0.143909	0.051255	-172.258951	-86.592666	-168.084763
02606	10.154407	-0.670455	-0.267062	-0.032450	-0.121840	0.048222	-171.928738	-86.517986	-168.433684
02607	9.684450	-0.751677	-0.242854	-0.090056	-0.082421	0.073539	-171.369738	-86.463273	-169.044604
02608	9.180448	-0.942521	-0.575775	-0.141985	-0.104751	0.091868	-170.716448	-86.393999	-169.780161
02609	9.487799	-0.360706	-1.028021	-0.283272	-0.186712	0.055228	-170.620881	-86.281397	-170.037760
02610	9.684432	0.021188	-1.488608	-0.483487	-0.163488	0.004422	-171.038155	-86.186715	-169.896686
02611	9.441920	-0.308824	-1.108189	-0.492953	-0.123665	-0.031193	-171.701981	-86.117436	-169.513668
02612	9.661990	-0.924411	-0.489071	-0.405088	-0.154478	-0.070282	-172.644086	-86.033503	-168.801478
02613	10.050915	-1.424180	-0.444339	-0.413133	-0.143891	-0.115663	-173.919596	-85.957550	-167.759390
02614	10.030995	-1.657022	-0.723302	-0.403523	-0.119637	-0.142044	-175.332228	-85.895333	-166.574452
02615	9.844855	-1.521244	-0.696889	-0.263322	-0.135548	-0.152811	-176.723653	-85.822227	-165.329961
02616	9.925059	-1.001281	-0.528196	-0.143803	-0.140982	-0.157406	-178.032213	-85.744225	-164.099952
02617	9.908484	-0.470972	-0.582606	-0.096215	-0.129704	-0.163105	-179.314374	-85.670541	-162.868818
02618	9.985877	0.122425	-0.820437	-0.065287	-0.119866	-0.154252	179.533615	-85.600745	-161.750457
02619	9.891875	0.569433	-1.064554	-0.098162	-0.096996	-0.146348	178.447718	-85.542279	-160.717078
02620	9.818721	0.793663	-1.126668	-0.166401	-0.068772	-0.157626	177.263823	-85.498373	-159.624673
02621	9.810619	0.804823	-1.303940	-0.226000	-0.062827	-0.165601	176.003354	-85.455551	-158.489504
02622	9.820308	0.461167	-1.429294	-0.217188	-0.053186	-0.168797	174.746443	-85.416378	-157.352915
02623	9.830362	-0.102778	-1.401416	-0.134940	-0.028870	-0.146344	173.691574	-85.390258	-156.371548
02624	9.788350	-0.612375	-1.328794	0.002962	-0.028362	-0.114565	172.954444	-85.365613	-155.629795
02625	9.735120	-0.752567	-1.332937	0.205469	-0.008923	-0.090360	172.487200	-85.352819	-155.042279
02626	9.662041	-0.333728	-1.337747	0.432746	0.004567	-0.077840	172.231464	-85.348670	-154.536420
02627	9.711614	0.445078	-0.963531	0.528362	0.020193	-0.063832	172.109533	-85.353990	-154.109775
02628	9.837068	1.208764	-0.856598	0.424448	0.034647	-0.053784	171.987034	-85.368594	-153.742367
02629	9.756116	1.583171	-0.669646	0.231665	0.038980	-0.051250	171.761397	-85.385393	-153.382222
02630	9.740206	1.755985	-0.465555	0.054678	0.041980	-0.048417	171.453121	-85.404373	-153.041002
02631	9.594284	1.456443	-0.598725	-0.113556	0.039864	-0.034084	171.143850	-85.422865	-152.795342
02632	9.590117	0.951439	-0.946694	-0.260315	0.025601	-0.016955	170.891159	-85.435108	-152.690954
02633	9.672134	0.479837	-1.153562	-0.332348	0.004488	-0.000827	170.728763	-85.436457	-152.718364
02634	9.711569	0.192590	-1.053253	-0.336566	0.000149	0.001759	170.593462	-85.435997	-152.775568
02635	9.736558	-0.105139	-1.067681	-0.269231	0.012445	0.005835	170.504853	-85.442462	-152.840724
02636	9.645207	-0.469066	-1.152226	-0.186525	0.017488	0.003695	170.448772	-85.451999	-152.891159
02637	9.702466	-0.750131	-1.273714	-0.044979	0.008332	0.003339	170.476236	-85.455897	-152.943887
02638	9.793640	-0.577114	-1.202972	0.104864	0.012199	0.015034	170.674412	-85.463500	-153.081900
02639	9.798957	-0.251641	-1.158750	0.205814	0.024011	0.027364	171.000230	-85.478411	-153.289815
02640	9.787638	0.151471	-0.903447	0.225799	0.024909	0.031133	171.370874	-85.494507	-153.531321
02641	9.788932	0.421228	-0.792487	0.168415	0.030331	0.025281	171.657376	-85.512614	-153.721298
02642	9.766687	0.489658	-0.751278	0.090718	0.028035	0.019065	171.863895	-85.529300	-153.875797
02643	9.747552	0.417619	-0.692717	0.071240	0.036278	0.017543	172.035386	-85.550040	-154.006240
02644	9.708013	0.297184	-0.647359	0.023266	0.046264	0.021881	172.208247	-85.577217	-154.165734
02645	9.673732	0.237235	-0.770714	-0.040901	0.039239	0.013116	172.282567	-85.599245	-154.263141
02646	9.673646	0.153738	-0.860443	-0.068890	0.023620	0.008653	172.330161	-85.612511	-154.349947
02647	9.683968	0.029965	-0.869719	-0.056504	0.027393	0.007891	172.369766	-85.627395	-154.421498
02648	9.653463	-0.191106	-0.907906	-0.042726	0.024959	0.011134	172.450366	-85.641596	-154.526369
02649	9.647960	-0.309079	-1.000129	0.024623	0.027202	0.014661	172.588399	-85.656853	-154.650026
02650	9.681914	-0.231644	-0.939628	0.095824	0.030672	0.010939	172.742994	-85.674251	-154.749488
02651	9.740008	-0.055941	-0.832254	0.116813	0.036434	0.020441	172.971214	-85.695100	-154.910631
02652	9.717266	0.116436	-0.767381	0.116252	0.036456	0.028721	173.269721	-85.716948	-155.142669
02653	9.806886	0.220785	-0.758150	0.095499	0.036153	0.029317	173.557995	-85.738097	-155.376276
02654	9.780308	0.259614	-0.818303	0.059016	0.037953	0.028406	173.825308	-85.760603	-155.609904
02655	9.768096	0.204472	-0.786900	0.076112	0.050968	0.030315	174.103357	-85.790079	-155.844379
02656	9.653434	0.093610	-0.711146	0.086065	0.048129	0.030946	174.404005	-85.818362	-156.095876
02657	9.659599	0.020196	-0.727413	0.088478	0.044476	0.026386	174.670381	-85.843743	-156.311524
02658	9.710346	0.094502	-0.684155	0.101778	0.035772	0.029307	174.982867	-85.864704	-156.565848
02659	9.747882	0.137902	-0.684021	0.085760	0.042120	0.024487	175.240162	-85.888488	-156.773942
02660	9.725226	0.227319	-0.712360	0.076408	0.039902	0.028574	175.535311	-85.911593	-157.025441
02661	9.704666	0.195980	-0.793302	0.043116	0.032999	0.027933	175.806729	-85.930166	-157.272176
02662	9.744054	0.222904	-0.824201	0.016238	0.028872	0.031720	176.104605	-85.946915	-157.560959
02663	9.714732	0.169989	-0.776212	-0.002096	0.031252	0.036446	176.424597	-85.964616	-157.882344
02664	9.705778	0.081947	-0.805960	-0.017258	0.035944	0.034674	176.729031	-85.985287	-158.196929
02665	9.747437	-0.032381	-0.818386	-0.024694	0.027491	0.034493	177.027398	-86.000525	-158.509602
02666	9.736517	-0.103806	-0.818627	-0.004918	0.025481	0.036354	177.362647	-86.015016	-158.847976
02667	9.748164	-0.163991	-0.764491	0.030736	0.031847	0.036783	177.715134	-86.032543	-159.183061
02668	9.632276	-0.149711	-0.738962	0.051532	0.028411	0.035630	178.081188	-86.048407	-159.519880
02669	9.640163	-0.176728	-0.624507	0.077415	0.023662	0.031787	178.426945	-86.060862	-159.821408
02670	9.685090	-0.116357	-0.654812	0.078656	0.018010	0.032020	178.785565	-86.070429	-160.135187
02671	9.726275	-0.002369	-0.695613	0.053684	0.014780	0.030275	179.110291	-86.077529	-160.429262
02672	9.782539	0.126302	-0.724045	0.030646	0.015041	0.031107	179.436943	-86.085137	-160.738565
02673	9.739668	0.147095	-0.698737	0.005461	0.016046	0.026108	179.701230	-86.092723	-160.999748
02674	9.730336	0.059789	-0.730086	-0.014065	0.013848	0.027506	179.974316	-86.099433	-161.281032
02675	9.743460	0.004064	-0.777599	-0.012785	0.017934	0.034594	-179.698427	-86.107909	-161.615805
02676	9.762347	-0.037766	-0.752490	-0.006470	0.032793	0.024661	-179.441309	-86.125287	-161.876715
02677	9.691386	-0.061839	-0.780865	0.008908	0.035407	0.019153	-179.227001	-86.143659	-162.085816
02678	9.712150	-0.119400	-0.784892	0.041651	0.036487	0.015734	-179.013377	-86.163093	-162.275489
02679	9.712367	-0.141688	-0.710828	0.055181	0.037722	0.019509	-178.764817	-86.182669	-162.492344
02680	9.712596	-0.144181	-0.707195	0.068854	0.035257	0.022771	-178.470824	-86.201188	-162.746935
02681	9.690263	-0.178488	-0.687279	0.080147	0.037757	0.016919	-178.225246	-86.220685	-162.946463
02682	9.715154	-0.061418	-0.708945	0.081062	0.032405	0.019429	-177.949020	-86.237478	-163.176227
02683	9.728647	-0.012555	-0.733696	0.056914	0.027552	0.020720	-177.682363	-86.250921	-163.410218
02684	9.755482	0.087869	-0.786281	0.040444	0.031357	0.016116	-177.454650	-86.267057	-163.614680
02685	9.695812	0.112085	-0.742273	0.026665	0.029905	0.018370	-177.221465	-86.281773	-163.832490
02686	9.737195	0.103173	-0.732981	0.010193	0.026613	0.015034	-177.019172	-86.295120	-164.028840
02687	9.716439	0.032861	-0.673433	0.006287	0.032565	0.020997	-176.769812	-86.311160	-164.274551
02688	9.658323	0.020267	-0.589009	0.003333	0.030507	0.021442	-176.509096	-86.326412	-164.533376
02689	9.654992	0.071294	-0.596605	-0.016595	0.024727	0.030631	-176.187128	-86.337466	-164.864971
02690	9.717378	0.130085	-0.644398	-0.036798	0.021034	0.024695	-175.922074	-86.347005	-165.151178
02691	9.732896	0.162477	-0.700128	-0.044921	0.020831	0.024024	-175.674829	-86.355908	-165.424149
02692	9.710417	0.128537	-0.681515	-0.052574	0.026380	0.027383	-175.387999	-86.368213	-165.741227
02693	9.723672	0.073170	-0.727842	-0.074099	0.023913	0.030459	-175.094400	-86.378397	-166.077386
02694	9.719573	-0.000222	-0.686415	-0.072780	0.024832	0.033235	-174.763591	-86.389310	-166.450123
02695	9.713948	-0.037063	-0.685142	-0.074958	0.028223	0.035434	-174.417971	-86.401436	-166.838891
02696	9.689408	-0.139110	-0.728037	-0.074266	0.027096	0.034672	-174.068405	-86.413276	-167.231265
02697	9.691446	-0.158518	-0.756164	-0.049514	0.017107	0.031408	-173.751075	-86.419017	-167.577076
02698	9.724869	-0.186245	-0.719083	-0.025088	0.017155	0.037217	-173.356544	-86.424736	-167.986265
02699	9.726926	-0.122402	-0.655749	-0.020314	0.016122	0.036811	-172.972019	-86.429258	-168.382644
02700	9.714558	-0.052589	-0.675419	-0.021817	0.018913	0.034510	-172.595848	-86.435827	-168.771556
02701	9.726383	0.012449	-0.671297	-0.023814	0.008860	0.029419	-172.287616	-86.436465	-169.093502
02702	9.726376	0.010027	-0.671434	-0.111027	-0.011845	0.029695	-172.043936	-86.425690	-169.400877
02703	9.979082	0.096430	-0.883105	-0.286942	-0.030176	0.031590	-171.918571	-86.403844	-169.690663
02704	10.249006	0.041838	-1.096091	-0.442537	-0.051973	0.032024	-171.899681	-86.370033	-169.963135
02705	10.647725	-0.327132	-1.383522	-0.375322	0.030868	0.024055	-171.818277	-86.383366	-170.259628
02706	9.574282	0.839809	-0.950657	-0.616476	0.020286	0.039962	-171.735253	-86.389840	-170.696221
02707	9.788242	-0.228856	-3.593061	-1.276577	-0.184890	-0.002010	-172.668318	-86.282811	-170.493626
02708	9.913490	0.433458	-1.974355	-0.531330	0.058897	-0.003333	-172.886121	-86.314831	-170.579919
02709	9.920891	0.617856	-0.855662	-0.495993	0.026747	-0.007876	-173.170607	-86.328264	-170.579132
02710	10.143497	-0.297420	-1.440208	-0.552119	0.062764	-0.008000	-173.441386	-86.362846	-170.624272
02711	10.021124	-0.764152	-1.208592	-0.271026	0.108989	-0.008042	-173.515653	-86.423079	-170.704977
02712	9.515118	-0.932602	-0.281714	-0.071848	0.106560	-0.005714	-173.444631	-86.482451	-170.816866
02713	9.562607	-1.134851	-0.075783	0.108013	0.061789	0.004105	-173.234344	-86.514991	-170.965097
02714	9.623273	-0.590605	0.015235	0.260026	0.050200	0.006369	-172.914707	-86.541421	-171.135548
02715	9.683140	-0.160404	-0.400640	0.178668	0.016739	0.008464	-172.668419	-86.547980	-171.279291
02716	9.627053	-0.089246	-0.324018	0.231864	-0.004637	0.026655	-172.236867	-86.541624	-171.578024
02717	9.539307	-0.173166	-0.232587	0.305163	-0.019466	0.032273	-171.741626	-86.525631	-171.898564
02718	9.662685	-0.421937	-0.295691	0.375967	-0.007722	0.025331	-171.247946	-86.517338	-172.176830
02719	9.478682	-0.319342	-0.107287	0.409875	0.012093	0.023120	-170.736959	-86.519705	-172.453040
02720	9.138030	-0.105483	-0.083010	0.384506	-0.009085	0.019988	-170.292949	-86.510859	-172.676645
02721	9.008981	-0.136894	-1.130392	0.184059	-0.071068	0.030383	-169.979103	-86.465346	-172.884969
02722	9.338853	-0.279259	-1.007234	0.207154	-0.103616	0.033786	-169.672220	-86.401631	-173.073012
02723	9.787303	-0.598170	-0.377107	0.326118	-0.114345	0.030874	-169.358345	-86.331511	-173.199856
02724	9.721962	-0.931842	-0.546319	0.413900	-0.074719	0.013246	-169.081015	-86.286141	-173.239607
02725	9.548271	-1.026226	-0.568975	0.529895	-0.059563	0.000714	-168.831285	-86.250062	-173.185198
02726	9.881184	-0.612874	-0.263817	0.595548	-0.058897	0.019508	-168.377504	-86.212845	-173.297484
02727	9.777589	-0.065381	-0.435751	0.596631	-0.044337	0.041183	-167.727794	-86.180561	-173.605629
02728	9.451805	0.325106	-0.126194	0.586456	-0.057457	0.042703	-167.096890	-86.141107	-173.900666
02729	9.581508	0.306697	-0.416089	0.483525	-0.072351	0.030911	-166.666274	-86.094139	-174.054177
02730	9.757276	-0.034194	-0.819790	0.298244	-0.076877	0.029819	-166.358665	-86.045281	-174.190712
02731	9.618954	-0.564569	-1.290779	0.244416	-0.069434	0.027199	-166.100620	-86.000330	-174.308574
02732	9.377965	-0.848355	-1.110841	0.389467	-0.093955	0.033417	-165.756558	-85.941387	-174.429272
02733	9.394991	-1.253095	-1.683868	0.509968	-0.103144	0.017365	-165.499133	-85.878992	-174.394024
02734	9.465817	-1.314382	-1.472125	0.681197	-0.105845	0.001900	-165.263655	-85.817936	-174.238282
02735	9.570620	-1.309943	-1.032409	0.791307	-0.103726	-0.012583	-165.076256	-85.759546	-173.971245
02736	9.588186	-1.354893	-1.006223	0.908105	-0.089822	-0.029809	-164.915637	-85.712138	-173.610044
02737	9.530510	-1.201713	-0.471947	0.985985	-0.076595	-0.052311	-164.851483	-85.674742	-173.107568
02738	9.483805	-0.887365	-0.197376	1.033072	-0.061118	-0.065221	-164.816270	-85.648592	-172.548759
02739	9.436855	-0.083543	0.314647	1.024229	-0.046698	-0.085532	-164.905587	-85.632722	-171.870373
02740	9.866146	0.872733	1.137648	0.982408	-0.017955	-0.085666	-164.959085	-85.633425	-171.251687
02741	10.032560	1.975230	1.907105	0.822614	0.042411	-0.077368	-164.931345	-85.665672	-170.806495
02742	9.542913	2.710342	1.883554	0.378995	0.051860	-0.067187	-165.065186	-85.702219	-170.453992
02743	9.191473	2.569987	1.061288	-0.147339	-0.033778	-0.047944	-165.532786	-85.687976	-170.069244
02744	9.375688	1.946821	0.558653	-0.540635	-0.100223	-0.040730	-166.285202	-85.635890	-169.624803
02745	9.569402	0.596464	-0.122998	-0.766456	-0.139565	-0.036278	-167.192342	-85.560544	-169.154821
02746	9.688199	-0.878976	-0.593972	-0.630597	-0.137327	-0.037669	-167.999219	-85.486351	-168.707371
02747	9.766768	-2.018490	-0.842910	-0.269178	-0.080751	-0.029422	-168.447607	-85.442316	-168.411674
02748	9.518923	-2.469779	-0.583917	0.085134	-0.023650	-0.028375	-168.593019	-85.430338	-168.216351
02749	9.423199	-2.498406	-0.463546	0.302426	-0.050317	-0.044108	-168.764863	-85.404845	-167.869580
02750	9.561714	-1.664727	-0.196096	0.459185	-0.070462	-0.064275	-169.007207	-85.370414	-167.361985
02751	9.620989	-0.497715	-0.287587	0.374931	-0.112595	-0.092511	-169.542839	-85.314738	-166.608558
02752	9.699530	0.485324	-0.535635	0.160256	-0.150957	-0.123808	-170.440107	-85.240034	-165.615586
02753	9.878223	1.169510	-1.203116	-0.136465	-0.150923	-0.156564	-171.698451	-85.166498	-164.430780
02754	9.978357	1.642982	-2.264801	-0.442034	-0.173037	-0.159523	-173.128675	-85.078566	-163.249031
02755	9.982996	1.602531	-2.993543	-0.686105	-0.191450	-0.179262	-174.794250	-84.978347	-161.971230
02756	10.003282	0.749904	-2.870337	-0.749810	-0.171675	-0.182012	-176.443446	-84.886696	-160.746343
02757	10.125805	-0.213124	-2.847977	-0.582067	-0.125847	-0.156662	-177.779123	-84.817294	-159.739586
02758	9.987984	-0.931927	-2.718390	-0.236414	-0.063518	-0.107956	-178.569034	-84.781501	-159.081909
02759	9.846116	-1.143357	-2.076687	0.125608	-0.020488	-0.064789	-178.872057	-84.768633	-158.704896
02760	9.882183	-0.831538	-1.391549	0.392191	-0.005866	-0.025289	-178.768796	-84.764221	-158.582423
02761	10.034711	-0.079228	-1.048839	0.505596	-0.021885	0.003244	-178.427822	-84.749611	-158.633520
02762	10.090269	0.647955	-0.866568	0.470712	-0.019550	0.015337	-178.029284	-84.736758	-158.762388
02763	10.072798	0.963344	-0.812767	0.308195	0.001740	0.012624	-177.740052	-84.735416	-158.875097
02764	9.900325	0.966312	-0.907964	0.114264	0.022645	0.001236	-177.624212	-84.746934	-158.925166
02765	9.711439	0.571662	-1.005545	-0.056566	0.024785	-0.007479	-177.663866	-84.759222	-158.917441
02766	9.576794	0.010110	-1.154610	-0.106273	0.023225	-0.005654	-177.717074	-84.771232	-158.924639
02767	9.568412	-0.580315	-1.114263	-0.061263	0.022094	-0.001279	-177.721744	-84.781824	-158.954740
02768	9.595589	-0.813487	-1.143551	0.060092	0.018384	0.003311	-177.624555	-84.790854	-159.017244
02769	9.640752	-0.662782	-1.095016	0.170321	0.009385	0.006170	-177.452173	-84.793960	-159.091919
02770	9.632985	-0.363649	-1.024507	0.258161	0.000567	0.004436	-177.238970	-84.792730	-159.156961
02771	9.674696	-0.074761	-1.008484	0.288488	0.003966	-0.004993	-177.070008	-84.792992	-159.160235
02772	9.762149	0.156300	-0.973163	0.262787	0.002840	-0.010549	-176.947580	-84.793476	-159.131465
02773	9.768866	0.281195	-0.890734	0.191462	0.014396	-0.010857	-176.867522	-84.799877	-159.101289
02774	9.723583	0.233930	-0.922532	0.114966	0.014354	-0.016596	-176.863906	-84.807144	-159.038262
02775	9.748949	0.126730	-0.909253	0.041267	0.013038	-0.021004	-176.934573	-84.813084	-158.943140
02776	9.693103	-0.098301	-1.049628	-0.000613	-0.001606	-0.023195	-177.044335	-84.811405	-158.832763
02777	9.677987	-0.111105	-1.060853	-0.004520	-0.004813	-0.037418	-177.250555	-84.807554	-158.627871
02778	9.664509	-0.137121	-1.000283	0.023873	-0.005308	-0.033131	-177.409682	-84.803962	-158.453838
02779	9.676547	-0.085092	-1.033335	0.018448	-0.006155	-0.039832	-177.617637	-84.799275	-158.233993
02780	9.694661	0.087633	-1.085537	0.018299	-0.009470	-0.037935	-177.810613	-84.793305	-158.029175
02781	9.638323	0.087638	-1.002873	0.004174	-0.005740	-0.043889	-178.051331	-84.788782	-157.784642
02782	9.722697	0.066239	-0.919089	-0.002085	-0.005384	-0.043789	-178.291015	-84.785110	-157.544646
02783	9.770463	0.073141	-1.044240	-0.036897	-0.001146	-0.037726	-178.515131	-84.782933	-157.340408
02784	9.726175	0.121883	-0.993252	-0.035008	0.002470	-0.035379	-178.719231	-84.783475	-157.155084
02785	9.648198	0.091244	-0.889937	-0.033109	0.002722	-0.037204	-178.937292	-84.783362	-156.954746
02786	9.775286	0.038201	-0.928316	-0.038154	0.000812	-0.032486	-179.125252	-84.782803	-156.787439
02787	9.792421	0.124411	-0.962352	-0.069727	0.006327	-0.025535	-179.290821	-84.784543	-156.660876
02788	9.756305	0.167331	-0.969300	-0.065002	0.015367	-0.019649	-179.412634	-84.792154	-156.575439
02789	9.704638	0.107644	-0.969744	-0.072783	0.021741	-0.017738	-179.530548	-84.802628	-156.498484
02790	9.740824	0.064498	-1.060163	-0.071030	0.018678	-0.017672	-179.643857	-84.812097	-156.425058
02791	9.735861	0.032391	-1.056049	-0.063861	0.026853	-0.008239	-179.697252	-84.825436	-156.407755
02792	9.674146	-0.091376	-0.951379	-0.046333	0.034794	-0.004792	-179.714856	-84.844087	-156.416219
02793	9.718372	-0.221645	-0.982409	-0.012590	0.039233	-0.003253	-179.706953	-84.864496	-156.430972
02794	9.789566	-0.288080	-1.034449	0.018018	0.038324	0.006903	-179.612610	-84.885129	-156.514812
02795	9.763207	-0.075270	-1.029948	0.053388	0.043416	0.008907	-179.487695	-84.907868	-156.609099
02796	9.708407	0.092136	-0.975403	0.060325	0.045595	0.002365	-179.396272	-84.932663	-156.665667
02797	9.722297	0.126602	-0.931494	0.035006	0.044026	0.000800	-179.332614	-84.955767	-156.709025
02798	9.716663	0.192364	-1.013785	-0.012645	0.045950	0.005041	-179.264313	-84.980734	-156.784347
02799	9.659165	0.201458	-0.998108	-0.033885	0.044176	0.007466	-179.195633	-85.003857	-156.872364
02800	9.643761	0.104640	-0.887995	-0.068983	0.038691	0.003148	-179.171451	-85.024667	-156.935796
02801	9.719644	-0.013323	-0.925113	-0.101393	0.038987	-0.001459	-179.199981	-85.044879	-156.965052
02802	9.659768	-0.070047	-0.865131	-0.105380	0.038836	-0.001683	-179.228231	-85.065814	-156.996786
02803	9.666263	-0.140378	-0.875940	-0.096657	0.030921	-0.006613	-179.289051	-85.081444	-156.990907
02804	9.696212	-0.198667	-0.935168	-0.098848	0.031395	-0.012456	-179.386274	-85.098193	-156.949654
02805	9.668488	-0.155582	-0.898870	-0.094647	0.031156	-0.014560	-179.499591	-85.113998	-156.889937
02806	9.716595	-0.139168	-0.819637	-0.089723	0.026421	-0.021574	-179.654113	-85.127921	-156.785932
02807	9.785660	-0.081818	-0.932088	-0.114009	0.026640	-0.028148	-179.871372	-85.141142	-156.633037
02808	9.795102	0.004713	-1.004130	-0.118034	0.033531	-0.029905	179.899843	-85.159076	-156.470786
02809	9.760947	0.030319	-1.037440	-0.126935	0.035128	-0.037253	179.610874	-85.177022	-156.253367
02810	9.763043	0.016070	-1.062550	-0.127721	0.039617	-0.032387	179.356043	-85.198302	-156.070558
02811	9.739996	-0.082300	-1.095744	-0.123978	0.043488	-0.031850	179.101063	-85.220895	-155.885563
02812	9.757170	-0.081607	-1.109101	-0.090174	0.044232	-0.024398	178.918240	-85.244770	-155.753436
02813	9.767504	-0.097135	-1.091719	-0.051181	0.053594	-0.019266	178.786871	-85.273175	-155.650646
02814	9.797944	-0.063967	-1.063445	-0.013691	0.061921	-0.010766	178.737126	-85.307304	-155.608088
02815	9.808889	0.004886	-1.059734	0.029150	0.068110	-0.003497	178.758045	-85.344188	-155.611931
02816	9.738134	0.069886	-0.996910	0.057515	0.071382	0.001459	178.833625	-85.383886	-155.654183
02817	9.723049	0.057154	-0.900554	0.080914	0.076030	0.009189	178.974869	-85.425429	-155.748989
02818	9.724595	0.040369	-0.821384	0.106084	0.077619	0.016997	179.192621	-85.468824	-155.905941
02819	9.780905	-0.039437	-0.779846	0.128858	0.086753	0.023529	179.470422	-85.516545	-156.110160
02820	9.768035	0.013366	-0.726596	0.130921	0.086267	0.029283	179.800911	-85.564818	-156.365897
02821	9.707307	0.066526	-0.822448	0.131643	0.084745	0.032297	-179.843119	-85.611208	-156.646891
02822	9.686705	0.118097	-0.811639	0.121371	0.077895	0.033578	-179.473076	-85.654421	-156.947754
02823	9.731160	0.074573	-0.754478	0.107693	0.073457	0.034303	-179.103331	-85.694046	-157.256288
02824	9.716909	0.054604	-0.758544	0.101595	0.076761	0.036194	-178.711465	-85.736277	-157.590365
02825	9.690640	-0.028559	-0.658873	0.100480	0.071635	0.036864	-178.313397	-85.774501	-157.931409
02826	9.651841	-0.045905	-0.687173	0.107355	0.077177	0.034508	-177.916951	-85.816653	-158.266734
02827	9.631425	-0.007712	-0.605526	0.087811	0.069348	0.028856	-177.576237	-85.853413	-158.557515
02828	9.643418	-0.048547	-0.614964	0.072198	0.057988	0.029164	-177.236026	-85.884412	-158.856624
02829	9.634377	-0.047039	-0.550874	0.045206	0.049099	0.024657	-176.951174	-85.909473	-159.115847
02830	9.677930	-0.074858	-0.568003	0.025116	0.042064	0.023575	-176.681633	-85.931318	-159.371132
02831	9.753170	-0.090035	-0.591643	0.011734	0.037602	0.018287	-176.466804	-85.949866	-159.579365
02832	9.721641	-0.103893	-0.582320	0.001770	0.030728	0.013588	-176.292542	-85.965450	-159.752530
02833	9.714367	-0.105492	-0.620781	-0.007875	0.034171	-0.000672	-176.241560	-85.982675	-159.807765
02834	9.663770	-0.081080	-0.638117	-0.013938	0.023769	0.000577	-176.184145	-85.994737	-159.872812
02835	9.653267	-0.135227	-0.704586	-0.024202	0.017293	-0.001861	-176.160646	-86.002358	-159.909872
02836	9.712585	-0.058004	-0.729827	-0.029905	0.013171	-0.000636	-176.127679	-86.008404	-159.959581
02837	9.678867	-0.050708	-0.693949	-0.027058	0.015232	-0.001253	-176.101674	-86.014820	-160.000794
02838	9.669446	-0.032059	-0.705620	-0.040122	0.013375	-0.000844	-176.075912	-86.020987	-160.049147
02839	9.761539	-0.048153	-0.748902	-0.041221	0.015287	-0.001685	-176.061341	-86.027449	-160.087033
02840	9.733109	-0.006759	-0.714560	-0.043856	0.016185	0.000817	-176.022198	-86.035154	-160.150944
02841	9.664483	-0.065183	-0.699513	-0.039918	0.016335	0.001036	-175.983594	-86.042103	-160.212169
02842	9.728033	-0.040372	-0.709985	-0.042998	0.011315	-0.000259	-175.955326	-86.047061	-160.264684
02843	9.761986	-0.047404	-0.743109	-0.030633	0.017315	0.008025	-175.852595	-86.054278	-160.384858
02844	9.735692	-0.026099	-0.736970	-0.031203	0.021792	0.006822	-175.752043	-86.064916	-160.503054
02845	9.696689	-0.053684	-0.698720	-0.021382	0.022347	0.005483	-175.661061	-86.075084	-160.606136
02846	9.725393	-0.095197	-0.729733	-0.011831	0.016255	0.007972	-175.542249	-86.082480	-160.731507
02847	9.665187	-0.067390	-0.689497	-0.003151	0.015033	0.011527	-175.394152	-86.088168	-160.881363
02848	9.730876	-0.063292	-0.728712	-0.001100	0.007883	0.015108	-175.214428	-86.090403	-161.061624
02849	9.751051	-0.015261	-0.717961	0.014600	0.011826	0.020187	-174.985269	-86.093769	-161.282539
02850	9.726724	-0.028817	-0.669398	0.013367	0.010416	0.021262	-174.743373	-86.097040	-161.516807
02851	9.687695	-0.043858	-0.704295	0.008805	0.008071	0.017584	-174.541571	-86.098283	-161.713628
02852	9.706675	-0.082645	-0.677632	0.010371	0.005032	0.023777	-174.284230	-86.098218	-161.965097
02853	9.699354	-0.085644	-0.718827	-0.005108	0.004052	0.020594	-174.068513	-86.096886	-162.183851
02854	9.621053	-0.127659	-0.718016	-0.008917	0.007229	0.018450	-173.864835	-86.098261	-162.392609
02855	9.688684	-0.157306	-0.714603	-0.008047	0.002358	0.017387	-173.679234	-86.096057	-162.582870
02856	9.688678	-0.158907	-0.714331	-0.000546	0.003409	0.016299	-173.492261	-86.095299	-162.770077
02857	9.700101	-0.211813	-0.657650	0.008808	0.005080	0.009612	-173.359403	-86.095073	-162.897798
02858	9.690661	-0.194403	-0.670208	0.009508	0.003926	0.008899	-173.227937	-86.095040	-163.023596
02859	9.671748	-0.158474	-0.696231	0.016428	-0.004264	0.005930	-173.130614	-86.089713	-163.111321
02860	9.658030	-0.102208	-0.652231	0.014554	-0.000831	0.001997	-173.058676	-86.087420	-163.174554
02861	9.629648	-0.047503	-0.691775	0.009404	-0.009425	0.004409	-172.983605	-86.079248	-163.244017
02862	9.700437	-0.022612	-0.662830	-0.003357	-0.011662	0.002536	-172.928856	-86.070748	-163.300307
02863	9.713221	0.026117	-0.695879	-0.021076	-0.012494	0.003406	-172.883275	-86.060894	-163.357714
02864	9.763812	0.001482	-0.676753	-0.037035	-0.009354	0.002834	-172.843430	-86.053678	-163.418409
02865	9.753104	-0.052783	-0.746667	-0.053422	-0.016183	0.007992	-172.783084	-86.041396	-163.509191
02866	9.775974	-0.142377	-0.707458	-0.048419	-0.010912	0.007488	-172.713717	-86.032949	-163.606017
02867	9.702916	-0.148476	-0.709802	-0.045342	-0.008878	0.000809	-172.700629	-86.025328	-163.644789
02868	9.699558	-0.201479	-0.737882	-0.030475	-0.010106	0.000542	-172.677405	-86.017839	-163.685057
02869	9.685947	-0.130509	-0.766487	-0.025436	-0.011877	0.001603	-172.649705	-86.008450	-163.727048
02870	9.724983	-0.117719	-0.731914	-0.023032	-0.012752	0.005168	-172.587690	-85.999113	-163.801928
02871	9.726971	-0.137016	-0.761784	-0.023817	-0.011228	0.002072	-172.554951	-85.990053	-163.848047
02872	9.693035	-0.130075	-0.728501	-0.022418	-0.013535	0.000641	-172.530574	-85.980602	-163.884845
02873	9.655883	-0.161953	-0.794050	-0.023679	-0.007902	0.000162	-172.509891	-85.973566	-163.918787
02874	9.653724	-0.142652	-0.766476	-0.009560	-0.014649	-0.001645	-172.497998	-85.963651	-163.935687
02875	9.685390	-0.130331	-0.773525	-0.012362	-0.010036	0.001214	-172.464784	-85.955316	-163.975707
02876	9.709608	-0.133283	-0.750309	0.001675	-0.013438	0.003569	-172.403577	-85.945693	-164.035590
02877	9.702064	-0.148488	-0.721346	0.007168	-0.012275	0.000465	-172.367888	-85.936137	-164.066871
02878	9.685065	-0.145090	-0.705296	0.001591	-0.013066	-0.000239	-172.337207	-85.927009	-164.096202
02879	9.716722	-0.132854	-0.712551	-0.002895	-0.015773	-0.000112	-172.315833	-85.915508	-164.118915
02880	9.663853	-0.089073	-0.705558	-0.009007	-0.019128	-0.000457	-172.299713	-85.902954	-164.139736
02881	9.692140	-0.129710	-0.740389	-0.020022	-0.017384	-0.003767	-172.318952	-85.890818	-164.131575
02882	9.691994	-0.129064	-0.742409	-0.026363	-0.023693	-0.006019	-172.361534	-85.876097	-164.103512
02883	9.718219	-0.149972	-0.748874	-0.031270	-0.018593	-0.008985	-172.429174	-85.863669	-164.053275
02884	9.722202	-0.201412	-0.736338	-0.021043	-0.018811	-0.008773	-172.484649	-85.851925	-164.009229
02885	9.699761	-0.216686	-0.791175	-0.009580	-0.017618	-0.009632	-172.543178	-85.840090	-163.955687
02886	9.751602	-0.153644	-0.789056	0.001122	-0.021941	-0.012041	-172.614025	-85.826802	-163.883494
02887	9.744080	-0.167585	-0.760802	0.015140	-0.018297	-0.011240	-172.670780	-85.814687	-163.817521
02888	9.720928	-0.091446	-0.730889	0.012724	-0.017419	-0.014806	-172.751100	-85.804158	-163.729161
02889	9.720810	-0.090366	-0.732602	0.010878	-0.018051	-0.009209	-172.793552	-85.792024	-163.679982
02890	9.743740	-0.164189	-0.765877	0.009999	-0.016152	-0.016110	-172.883486	-85.782294	-163.583545
02891	9.748981	-0.128692	-0.769001	0.012717	-0.017419	-0.014812	-172.966659	-85.770906	-163.492466
02892	9.734012	-0.142969	-0.781979	0.011622	-0.015504	-0.015642	-173.050586	-85.761491	-163.401118
02893	9.692853	-0.149648	-0.718506	0.004250	-0.013231	-0.016452	-173.146351	-85.752576	-163.302280
02894	9.679939	-0.182581	-0.759793	0.001437	-0.011592	-0.021562	-173.277049	-85.745764	-163.169880
02895	9.684100	-0.232921	-0.746627	0.005157	-0.014400	-0.023245	-173.424252	-85.736602	-163.018942
02896	9.699835	-0.320571	-0.749371	0.000807	-0.013784	-0.025018	-173.582606	-85.728716	-162.859169
02897	9.709384	-0.336203	-0.737681	0.016031	-0.011688	-0.033287	-173.796275	-85.721665	-162.635330
02898	9.737809	-0.373809	-0.772331	0.023636	-0.021017	-0.037019	-174.037298	-85.710301	-162.379536
02899	9.750634	-0.335791	-0.733911	0.046471	-0.015256	-0.034606	-174.244231	-85.701161	-162.144958
02900	9.736743	-0.261304	-0.762898	0.056335	-0.021017	-0.048121	-174.548149	-85.690259	-161.807298
02901	9.742857	-0.136508	-0.782372	0.061194	-0.019062	-0.046729	-174.838391	-85.679421	-161.480722
02902	9.712813	0.028534	-0.810272	0.051385	-0.015931	-0.051110	-175.161221	-85.671305	-161.126930
02903	9.721070	0.120541	-0.786297	0.033779	-0.013477	-0.052115	-175.501390	-85.663633	-160.766017
02904	9.714065	0.211190	-0.845459	-0.006018	-0.014621	-0.052052	-175.860883	-85.655989	-160.408433
02905	9.711430	0.249447	-0.889872	-0.022590	-0.010738	-0.048046	-176.199088	-85.649387	-160.081872
02906	9.752907	0.234017	-0.812143	-0.042145	-0.012251	-0.041523	-176.496742	-85.642400	-159.807058
02907	9.743426	0.078686	-0.894433	-0.056630	-0.011830	-0.039678	-176.790477	-85.634623	-159.544641
02908	9.721740	0.037664	-0.804713	-0.043361	-0.010683	-0.032478	-177.018634	-85.628050	-159.340222
02909	9.696159	-0.029044	-0.885920	-0.031837	-0.013515	-0.023836	-177.178750	-85.618688	-159.197566
02910	9.758866	0.012127	-0.971107	-0.016126	-0.013234	-0.013059	-177.246070	-85.610030	-159.138800
02911	9.768978	0.081348	-0.975345	0.003963	-0.009858	-0.006232	-177.252388	-85.602236	-159.129814
02912	9.745432	0.156649	-0.944557	0.008144	-0.006744	-0.004101	-177.236603	-85.597044	-159.140452
02913	9.714242	0.130241	-0.866895	0.010649	0.002757	-0.003983	-177.218023	-85.596394	-159.152600
02914	9.725929	-0.007891	-0.794489	0.001454	0.004371	0.000833	-177.165416	-85.597423	-159.204012
02915	9.694328	-0.020253	-0.788102	-0.007778	0.003009	-0.002345	-177.145232	-85.596867	-159.228353
02916	9.699906	-0.000292	-0.717719	-0.025930	-0.000827	0.002744	-177.096052	-85.594862	-159.292065
02917	9.725406	-0.094234	-0.778302	-0.035989	-0.004364	0.002187	-177.061228	-85.589956	-159.347297
02918	9.751433	-0.101512	-0.854982	-0.045296	-0.002380	0.003181	-177.020638	-85.587042	-159.413523
02919	9.726418	-0.185336	-0.863344	-0.033720	0.002184	0.000390	-176.995374	-85.585928	-159.457854
02920	9.716218	-0.253202	-0.860165	-0.017315	0.002040	-0.003261	-176.984856	-85.585733	-159.477839
02921	9.708634	-0.253423	-0.901429	0.017758	0.004600	-0.006627	-176.980994	-85.586209	-159.471138
02922	9.713793	-0.219180	-0.902443	0.046229	0.004187	-0.001983	-176.923741	-85.587202	-159.501482
02923	9.744932	-0.029006	-0.839342	0.060700	0.003778	-0.003845	-176.874747	-85.587111	-159.515394
02924	9.762811	0.040090	-0.800285	0.046232	0.007885	-0.007719	-176.858491	-85.590396	-159.504615
02925	9.789940	0.105516	-0.819806	0.031474	0.012381	-0.009320	-176.863377	-85.595396	-159.481259
02926	9.738542	0.043835	-0.822136	0.018746	0.016770	-0.008902	-176.868077	-85.603801	-159.465259
02927	9.680006	-0.032829	-0.793907	0.011770	0.018257	-0.008155	-176.873387	-85.612125	-159.452806
02928	9.711264	-0.106197	-0.782176	0.004968	0.016027	-0.007768	-176.877899	-85.620069	-159.444911
02929	9.679741	-0.117923	-0.774942	0.002992	0.009090	-0.008240	-176.892625	-85.623151	-159.428058
02930	9.737572	-0.112101	-0.856522	0.003167	0.005374	-0.008601	-176.908769	-85.625026	-159.409534
02931	9.720771	-0.107866	-0.838607	0.014912	0.006224	-0.011756	-176.944058	-85.626572	-159.365208
02932	9.711137	-0.088491	-0.851123	0.013461	0.001852	-0.012586	-176.985555	-85.626551	-159.315340
02933	9.682515	-0.046655	-0.817820	0.015085	0.002508	-0.012118	-177.024867	-85.625975	-159.266876
02934	9.669900	-0.080503	-0.857446	0.011658	0.004912	-0.012699	-177.067060	-85.627703	-159.217346
02935	9.716329	-0.051125	-0.851651	0.021880	0.004740	-0.012509	-177.104534	-85.628406	-159.166847
02936	9.733641	-0.067605	-0.796607	0.027451	0.005558	-0.011821	-177.130918	-85.630473	-159.124098
02937	9.716855	-0.063325	-0.778332	0.032965	0.013417	-0.012687	-177.160143	-85.636140	-159.075460
02938	9.727059	0.005585	-0.780559	0.030098	0.007655	-0.006351	-177.143290	-85.639250	-159.074554
02939	9.722484	0.058598	-0.794398	0.003683	0.007934	-0.008972	-177.163547	-85.641672	-159.051766
02940	9.744075	0.003661	-0.796119	0.002805	0.012801	-0.007897	-177.172049	-85.647771	-159.041114
02941	9.712153	-0.094508	-0.772573	-0.003869	0.013891	-0.009419	-177.197920	-85.653616	-159.017024
02942	9.714015	-0.199218	-0.783572	0.003623	0.014975	-0.010529	-177.225079	-85.661031	-158.987191
02943	9.716291	-0.217479	-0.810880	0.019591	0.011910	-0.010003	-177.242649	-85.665758	-158.957950
02944	9.702066	-0.145993	-0.837284	0.040323	0.011183	-0.011890	-177.260588	-85.671039	-158.916275
02945	9.710105	-0.057719	-0.810647	0.046005	0.015328	-0.013121	-177.285309	-85.677800	-158.864682
02946	9.672102	-0.011790	-0.717485	0.044256	0.011348	-0.011682	-177.299525	-85.683167	-158.824483
02947	9.696620	-0.013133	-0.691779	0.036595	0.017665	-0.015959	-177.350591	-85.691340	-158.751916
02948	9.691396	-0.031994	-0.760513	0.021392	0.012534	-0.015643	-177.407842	-85.697486	-158.681697
02949	9.696508	0.003529	-0.761078	0.002067	0.010953	-0.015192	-177.475529	-85.701792	-158.612252
02950	9.720968	0.002803	-0.736056	-0.009808	0.003781	-0.018107	-177.572641	-85.702974	-158.519988
02951	9.696586	0.007109	-0.760052	-0.023267	0.002626	-0.019237	-177.688573	-85.702594	-158.416739
02952	9.693798	-0.044169	-0.786842	-0.027735	-0.000106	-0.019095	-177.804708	-85.701547	-158.315699
02953	9.701010	-0.027050	-0.817075	-0.024598	0.001574	-0.021981	-177.942533	-85.700592	-158.191246
02954	9.701014	-0.024833	-0.817105	-0.018447	-0.002074	-0.020094	-178.061352	-85.698404	-158.082176
02955	9.703780	0.030458	-0.790185	-0.016607	0.001544	-0.017722	-178.162045	-85.697309	-157.990386
02956	9.747843	0.079742	-0.756233	-0.014698	-0.001877	-0.013786	-178.230482	-85.695092	-157.929687
02957	9.718671	0.135849	-0.795208	-0.030565	0.000805	-0.010500	-178.284375	-85.693433	-157.892833
02958	9.728395	0.118844	-0.781987	-0.042191	0.003261	-0.009265	-178.332931	-85.694073	-157.867867
02959	9.689312	0.106415	-0.817360	-0.051208	0.001144	-0.004815	-178.355454	-85.692508	-157.874324
02960	9.725661	0.067266	-0.808721	-0.047680	-0.001622	-0.000415	-178.340939	-85.690205	-157.915761
02961	9.727897	0.048245	-0.837217	-0.041272	0.004361	0.005643	-178.277737	-85.690305	-158.002499
02962	9.740189	-0.003424	-0.780637	-0.043305	0.004462	0.003614	-178.228740	-85.691410	-158.076003
02963	9.727759	-0.038760	-0.820284	-0.043101	0.003724	0.011251	-178.124113	-85.691026	-158.205298
02964	9.734987	-0.024253	-0.850076	-0.038041	0.005679	0.006572	-178.049249	-85.692755	-158.301717
02965	9.746979	-0.062143	-0.865209	-0.031145	0.007551	0.010009	-177.946145	-85.694553	-158.422638
02966	9.747333	-0.077444	-0.792522	-0.026873	0.010302	0.015965	-177.791911	-85.698702	-158.592234
02967	9.725247	-0.095526	-0.844337	-0.004975	0.014358	0.017214	-177.616456	-85.704182	-158.770658
02968	9.723118	-0.078270	-0.814335	0.002108	0.012511	0.020296	-177.411115	-85.709409	-158.974851
02969	9.728226	-0.045862	-0.814348	0.008917	0.018451	0.014189	-177.248304	-85.717220	-159.132627
02970	9.718885	-0.043455	-0.753969	0.004731	0.011632	0.017778	-177.060001	-85.721919	-159.318224
02971	9.767490	-0.035875	-0.776172	-0.003692	0.008735	0.017679	-176.880613	-85.723992	-159.499878
02972	9.674948	-0.094024	-0.786072	-0.016938	0.014239	0.012699	-176.741800	-85.730261	-159.648296
02973	9.701632	-0.116778	-0.789289	-0.012403	0.009927	0.014118	-176.593632	-85.733063	-159.803655
02974	9.708579	-0.189537	-0.802531	-0.007230	0.011508	0.013269	-176.445445	-85.737694	-159.955894
02975	9.682053	-0.169029	-0.797050	-0.001052	0.011552	0.009435	-176.325306	-85.741539	-160.076574
02976	9.723983	-0.103503	-0.733086	0.000052	0.009642	0.010267	-176.196384	-85.745164	-160.205309
02977	9.714390	-0.086032	-0.744950	-0.005407	0.012150	0.007653	-176.091594	-85.749379	-160.313144
02978	9.723978	-0.090707	-0.802691	-0.009359	0.011986	0.007422	-175.988261	-85.754420	-160.421625
02979	9.699866	-0.103006	-0.753976	-0.010163	0.013509	0.004320	-175.910629	-85.759519	-160.504964
02980	9.690306	-0.084886	-0.765624	-0.013813	0.012957	0.001819	-175.852060	-85.765323	-160.571116
02981	9.716989	-0.106371	-0.768847	-0.014433	0.010764	-0.001642	-175.824061	-85.769092	-160.607120
02982	9.731768	-0.090201	-0.756380	-0.016459	0.010870	-0.003669	-175.810372	-85.773927	-160.629789
02983	9.707506	-0.087283	-0.779715	-0.012107	0.010271	-0.001887	-175.783033	-85.777426	-160.663759
02984	9.722268	-0.071146	-0.767423	-0.008372	0.007480	-0.003565	-175.765758	-85.780319	-160.685377
02985	9.717295	-0.104784	-0.765194	-0.008773	0.008241	-0.005116	-175.762604	-85.782790	-160.693245
02986	9.681110	-0.064196	-0.772996	-0.006142	0.007361	-0.007627	-175.775576	-85.785786	-160.683254
02987	9.690817	-0.082030	-0.759443	0.000638	0.005895	-0.002266	-175.746192	-85.786798	-160.711964
02988	9.681222	-0.063334	-0.771665	-0.004822	0.008404	-0.004884	-175.736509	-85.790274	-160.723929
02989	9.685896	-0.115374	-0.756662	-0.002611	0.004583	-0.003217	-175.717069	-85.790572	-160.744565
02990	9.707917	-0.084290	-0.774924	0.001038	0.005134	-0.000715	-175.673530	-85.791999	-160.787112
02991	9.693266	-0.099873	-0.786018	0.009031	0.002119	-0.004426	-175.658189	-85.790945	-160.796945
02992	9.700661	-0.098592	-0.744275	-0.001820	0.000093	-0.008114	-175.676681	-85.789811	-160.778934
02993	9.766298	-0.106224	-0.712630	0.000020	0.003703	-0.005728	-175.675592	-85.789716	-160.779603
02994	9.749300	-0.088061	-0.766806	0.003973	0.003867	-0.005494	-175.668211	-85.790624	-160.784208
02995	9.719991	-0.118998	-0.789252	0.003170	0.005390	-0.008597	-175.686594	-85.791620	-160.763631
02996	9.695788	-0.130072	-0.741266	0.007122	0.005554	-0.008363	-175.698701	-85.793616	-160.746886
02997	9.710522	-0.113390	-0.729140	0.005615	0.008226	-0.010748	-175.730694	-85.796325	-160.711274
02998	9.700866	-0.079787	-0.813144	-0.003817	0.006866	-0.007873	-175.744543	-85.799049	-160.699066
02999	9.700578	-0.165396	-0.796534	0.007541	0.008496	-0.012542	-175.789226	-85.801981	-160.649631
03000	9.756682	-0.168501	-0.705170	0.020218	0.011170	-0.014467	-175.838284	-85.807439	-160.588312
03001	9.691170	-0.158811	-0.735722	0.026585	0.007501	-0.018655	-175.920300	-85.810056	-160.490384
03002	9.696249	-0.123013	-0.736420	0.032460	0.007937	-0.020218	-176.009314	-85.813886	-160.381971
03003	9.679638	-0.031532	-0.734681	0.030905	0.000236	-0.019143	-176.096688	-85.812347	-160.276258
03004	9.698996	-0.066441	-0.708622	0.021188	0.002961	-0.019732	-176.191170	-85.813289	-160.168836
03005	9.706320	-0.049534	-0.738620	0.016317	0.000988	-0.021160	-176.302121	-85.812231	-160.047789
03006	9.716019	-0.065924	-0.725505	0.015610	0.002137	-0.020445	-176.405815	-85.812699	-159.934336
03007	9.745030	-0.104601	-0.758322	0.012362	0.000820	-0.021397	-176.520877	-85.811525	-159.811454
03008	9.716061	-0.062000	-0.725288	0.014688	0.000330	-0.021641	-176.635268	-85.810968	-159.687804
03009	9.708722	-0.060807	-0.766994	0.007894	-0.001916	-0.021272	-176.753027	-85.808189	-159.564931
03010	9.735392	-0.080396	-0.771385	0.015086	-0.000429	-0.020091	-176.855293	-85.807113	-159.453210
03011	9.713658	-0.022776	-0.768730	0.013765	-0.001477	-0.022838	-176.981358	-85.804601	-159.318511
03012	9.716010	-0.039795	-0.797481	0.013057	-0.000328	-0.022123	-177.100436	-85.803608	-159.191098
03013	9.667419	-0.047030	-0.774786	0.011414	-0.007660	-0.024862	-177.245709	-85.797570	-159.038523
03014	9.730557	-0.019574	-0.787107	0.014353	-0.005951	-0.021645	-177.362059	-85.793304	-158.913100
03015	9.771838	-0.023256	-0.780278	0.015075	-0.000427	-0.020102	-177.464960	-85.791235	-158.800854
03016	9.725655	-0.050004	-0.785760	0.007386	0.002187	-0.018659	-177.558989	-85.791520	-158.701814
03017	9.730579	-0.014144	-0.786948	0.013467	0.005587	-0.018318	-177.646902	-85.792825	-158.605576
03018	9.715988	-0.028246	-0.798243	0.006661	-0.003338	-0.020206	-177.755118	-85.789957	-158.492727
03019	9.711105	-0.060678	-0.796872	0.011223	-0.000966	-0.016514	-177.832222	-85.787442	-158.408608
03020	9.740309	-0.027311	-0.774061	0.010112	0.000941	-0.017353	-177.914818	-85.786940	-158.319465
03021	9.708743	-0.038705	-0.768159	0.018514	0.000163	-0.011512	-177.948379	-85.784952	-158.274811
03022	9.696531	0.013797	-0.824222	0.031168	0.002862	-0.013457	-177.988062	-85.785460	-158.216602
03023	9.718483	0.031920	-0.771006	0.014055	0.001112	-0.017127	-178.067487	-85.784120	-158.128475
03024	9.737975	-0.003201	-0.744819	0.008799	0.002868	-0.012099	-178.109432	-85.784596	-158.080847
03025	9.737994	-0.001927	-0.744576	0.001204	0.002127	-0.014832	-178.178142	-85.783786	-158.010882
03026	9.718527	0.035491	-0.770285	0.003948	0.003866	-0.005516	-178.171483	-85.784709	-158.014777
03027	9.708892	-0.032152	-0.766572	-0.001515	0.006354	-0.008140	-178.188770	-85.786197	-157.997951
03028	9.730749	-0.000483	-0.784973	-0.005567	0.002854	-0.006451	-178.195079	-85.786557	-157.994310
03029	9.713787	0.003293	-0.767436	-0.005869	0.003245	-0.004179	-178.184854	-85.786190	-158.007586
03030	9.730804	0.000580	-0.784291	-0.004653	0.004664	-0.005261	-178.180943	-85.787565	-158.013667
03031	9.735684	0.035313	-0.785249	-0.015072	0.008515	-0.005129	-178.182045	-85.790229	-158.020859
03032	9.745512	0.017686	-0.771213	-0.017597	0.012717	-0.004536	-178.177900	-85.796201	-158.034610
03033	9.728597	0.021354	-0.752998	-0.020539	0.007310	-0.002011	-178.158214	-85.798125	-158.065807
03034	9.718938	-0.032498	-0.820840	-0.030557	0.010402	-0.000328	-178.129186	-85.802693	-158.111954
03035	9.704443	-0.048283	-0.831378	-0.025094	0.007914	0.002296	-178.078234	-85.804879	-158.177013
03036	9.721561	-0.065421	-0.776071	-0.026114	0.006473	-0.002724	-178.066269	-85.807239	-158.203499
03037	9.733790	-0.102458	-0.791058	-0.023176	0.008186	0.000496	-178.028092	-85.809606	-158.254716
03038	9.690068	-0.063507	-0.840600	-0.009406	0.008986	-0.000599	-177.989185	-85.813361	-158.298618
03039	9.743588	-0.034081	-0.792360	-0.002517	0.010874	0.002857	-177.919724	-85.817208	-158.369332
03040	9.736406	-0.035084	-0.832570	0.007210	0.018541	-0.000034	-177.863896	-85.826415	-158.420653
03041	9.748690	0.000065	-0.790517	0.007615	0.021479	-0.004225	-177.840789	-85.836476	-158.439066
03042	9.727003	-0.030692	-0.769912	0.008622	0.016246	-0.001469	-177.795745	-85.844396	-158.478763
03043	9.734441	-0.015757	-0.798153	-0.000281	0.024104	0.003307	-177.716603	-85.855787	-158.557926
03044	9.678731	-0.040731	-0.742885	0.004978	0.018658	0.004029	-177.628916	-85.864952	-158.642469
03045	9.664310	-0.057121	-0.752570	0.001432	0.017723	0.005347	-177.533916	-85.872625	-158.736512
03046	9.700838	-0.010894	-0.758288	0.002947	0.015059	0.007741	-177.418417	-85.879615	-158.850104
03047	9.734945	-0.032194	-0.719292	0.001834	0.016965	0.006900	-177.310338	-85.886786	-158.957006
03048	9.744785	-0.050944	-0.704554	-0.005252	0.018793	0.003790	-177.228826	-85.895992	-159.041231
03049	9.698781	-0.080064	-0.708470	-0.009102	0.018249	0.007378	-177.121910	-85.903860	-159.153303
03050	9.698887	-0.080474	-0.706970	-0.003637	0.012782	0.002007	-177.055453	-85.909659	-159.221506
03051	9.682038	-0.063337	-0.760573	-0.001414	0.008969	0.003688	-176.976904	-85.912315	-159.300671
03052	9.720910	-0.050338	-0.723674	0.009419	0.011031	0.007388	-176.860241	-85.916932	-159.411708
03053	9.720984	-0.051121	-0.722620	0.011747	0.010544	0.007149	-176.745364	-85.920353	-159.519809
03054	9.701518	-0.029624	-0.675826	0.006581	0.008949	0.007989	-176.626009	-85.923728	-159.635174
03055	9.691858	-0.012255	-0.688290	0.000398	0.002219	0.009559	-176.502047	-85.922285	-159.758917
03056	9.699188	0.001788	-0.718697	-0.008621	-0.006592	0.011730	-176.369041	-85.916603	-159.896700
03057	9.720911	0.017396	-0.666077	-0.012368	-0.003808	0.013397	-176.225094	-85.911532	-160.047620
03058	9.725854	-0.021997	-0.723723	-0.020975	-0.003008	0.013633	-176.082755	-85.907778	-160.201857
03059	9.703921	-0.053771	-0.705345	-0.026338	-0.003861	0.006819	-176.000091	-85.902889	-160.299450
03060	9.733093	-0.095106	-0.738526	-0.011154	-0.002390	0.012314	-175.862810	-85.899499	-160.442977
03061	9.716034	-0.092869	-0.721524	-0.009631	-0.001359	0.008965	-175.752399	-85.895933	-160.558782
03062	9.733044	-0.097047	-0.738923	-0.004877	-0.002705	0.012315	-175.612164	-85.892318	-160.701666
03063	9.698941	-0.091698	-0.704865	0.000086	-0.004069	0.009568	-175.493528	-85.887139	-160.820272
03064	9.696569	-0.059368	-0.748490	0.002818	-0.005316	0.010885	-175.362441	-85.882052	-160.949566
03065	9.691625	-0.094552	-0.747590	0.008183	-0.007440	0.009694	-175.240921	-85.874916	-161.066225
03066	9.728055	-0.048709	-0.755558	0.004233	-0.007612	0.009455	-175.122579	-85.868548	-161.181929
03067	9.735212	-0.048865	-0.714719	-0.000936	-0.009203	0.010293	-175.003478	-85.860335	-161.301251
03068	9.752168	-0.053364	-0.732773	0.012629	-0.008399	0.015309	-174.835572	-85.853182	-161.461828
03069	9.703480	-0.064225	-0.710513	0.000889	-0.005586	0.012676	-174.695192	-85.846861	-161.601876
03070	9.730130	-0.087033	-0.715237	-0.005695	-0.004880	0.014945	-174.539044	-85.841675	-161.761195
03071	9.722848	-0.089131	-0.757355	-0.013997	-0.004462	0.012914	-174.405250	-85.835941	-161.902936
03072	9.695947	-0.155487	-0.737492	-0.015012	-0.002924	0.015897	-174.246232	-85.831756	-162.070486
03073	9.729916	-0.163403	-0.772493	-0.007430	-0.008867	0.016382	-174.085717	-85.823250	-162.235086
03074	9.683646	-0.193338	-0.778695	-0.000017	-0.000725	0.013740	-173.933937	-85.820381	-162.386768
03075	9.688534	-0.160239	-0.780510	0.011322	-0.005757	0.006816	-173.835776	-85.814180	-162.478708
03076	9.695832	-0.145987	-0.811217	0.019221	-0.005418	0.007291	-173.727636	-85.808994	-162.575582
03077	9.703034	-0.145935	-0.769988	0.028643	-0.004049	0.004417	-173.636949	-85.803881	-162.649799
03078	9.720103	-0.077593	-0.732048	0.028017	-0.009943	0.006694	-173.532848	-85.796132	-162.737571
03079	9.705554	-0.021948	-0.688612	0.017082	-0.008643	0.007174	-173.432057	-85.788222	-162.828466
03080	9.666607	-0.036164	-0.725459	0.002394	-0.011227	0.007067	-173.341604	-85.779695	-162.917275
03081	9.722396	-0.026668	-0.708086	-0.007237	-0.015551	0.008037	-173.255033	-85.767775	-163.007731
03082	9.739308	-0.030541	-0.726545	-0.022713	-0.009943	0.007081	-173.178449	-85.759959	-163.097061
03083	9.702721	-0.063698	-0.792154	-0.029812	-0.011799	0.009715	-173.089528	-85.750035	-163.203148
03084	9.709894	-0.063509	-0.751791	-0.032352	-0.014265	0.008044	-173.015831	-85.739675	-163.295124
03085	9.692568	-0.133256	-0.791930	-0.026897	-0.016765	0.010668	-172.923643	-85.726849	-163.402950
03086	9.692427	-0.133894	-0.793551	-0.029326	-0.015903	0.007082	-172.857975	-85.715607	-163.485138
03087	9.709261	-0.151910	-0.740477	-0.030036	-0.014754	0.007795	-172.788263	-85.704105	-163.571847
03088	9.726125	-0.155605	-0.759231	-0.017175	-0.015788	0.005515	-172.728142	-85.693027	-163.641492
03089	9.696754	-0.187536	-0.783458	-0.018171	-0.010551	0.002765	-172.686103	-85.684267	-163.693455
03090	9.723298	-0.209353	-0.789005	0.000556	-0.014848	0.004664	-172.621899	-85.673776	-163.757009
03091	9.742789	-0.159751	-0.780335	0.002998	-0.012011	0.002510	-172.571332	-85.664205	-163.805385
03092	9.701398	-0.154420	-0.788719	0.012008	-0.013586	0.003816	-172.506236	-85.654485	-163.863255
03093	9.708625	-0.153999	-0.748340	0.019811	-0.012879	0.000464	-172.462706	-85.644561	-163.895257
03094	9.750084	-0.073190	-0.758348	0.011505	-0.012452	-0.001559	-172.437279	-85.635882	-163.913634
03095	9.742647	-0.074030	-0.801159	-0.003284	-0.011687	0.002517	-172.390904	-85.626483	-163.961783
03096	9.747543	-0.040114	-0.803535	-0.016738	-0.006175	0.003605	-172.337334	-85.620974	-164.024615
03097	9.715552	-0.125042	-0.854266	-0.020388	-0.006730	0.001100	-172.306230	-85.614490	-164.066326
03098	9.691222	-0.136826	-0.807637	-0.024857	-0.009464	0.001224	-172.278491	-85.607290	-164.107916
03099	9.746773	-0.198790	-0.845668	-0.013996	-0.003726	-0.000820	-172.255299	-85.602665	-164.138436
03100	9.737052	-0.180485	-0.859100	0.001699	-0.006386	0.002028	-172.203519	-85.597147	-164.188879
03101	9.705720	-0.121109	-0.797981	0.007979	-0.006710	0.002021	-172.150019	-85.590589	-164.237474
03102	9.730247	-0.037099	-0.790296	0.012020	-0.009885	-0.001925	-172.125217	-85.583389	-164.254928
03103	9.754429	-0.025376	-0.838503	-0.004885	-0.005675	0.004305	-172.061609	-85.577230	-164.321214
03104	9.744729	-0.007420	-0.851663	-0.010838	0.000932	0.004313	-171.993254	-85.575669	-164.395487
03105	9.705823	-0.035372	-0.815766	-0.018555	-0.003117	0.003486	-171.941401	-85.571015	-164.458238
03106	9.739477	-0.128367	-0.834384	-0.026938	0.004355	-0.000087	-171.911062	-85.571740	-164.503634
03107	9.690934	-0.137741	-0.810929	-0.022888	0.004148	0.003967	-171.850513	-85.571134	-164.577380
03108	9.722572	-0.125329	-0.816431	-0.015902	0.002675	0.003241	-171.791239	-85.570628	-164.645456
03109	9.722578	-0.125555	-0.816328	-0.010137	-0.000217	0.003592	-171.730869	-85.567591	-164.711598
03110	9.698329	-0.137824	-0.768826	-0.005264	0.001755	0.005021	-171.653541	-85.566404	-164.791670
03111	9.720276	-0.107285	-0.787415	-0.010842	0.000931	0.004309	-171.587394	-85.563949	-164.864386
03112	9.710605	-0.089235	-0.800261	-0.018750	0.000599	0.003837	-171.527797	-85.562192	-164.934423
03113	9.717579	-0.161205	-0.814822	-0.016438	-0.003597	0.009324	-171.433317	-85.556749	-165.038626
03114	9.741858	-0.164615	-0.790878	-0.009753	-0.004685	0.010869	-171.323382	-85.551378	-165.153984
03115	9.712896	-0.124811	-0.758027	-0.008113	-0.000322	0.005618	-171.247829	-85.548073	-165.234468
03116	9.712889	-0.125542	-0.757999	-0.007095	0.001106	0.010632	-171.131978	-85.545972	-165.354234
03117	9.727540	-0.110532	-0.746544	-0.011666	-0.001249	0.006932	-171.049969	-85.542014	-165.442468
03118	9.686161	-0.090845	-0.825556	-0.017951	-0.000923	0.006936	-170.969750	-85.539067	-165.532734
03119	9.710469	-0.093948	-0.801376	-0.023131	-0.002506	0.007772	-170.890106	-85.534289	-165.625734
03120	9.717734	-0.079412	-0.831818	-0.029016	-0.002942	0.009325	-170.801568	-85.529962	-165.730704
03121	9.739336	-0.135591	-0.834890	-0.033966	0.002135	0.006346	-170.733174	-85.527919	-165.818264
03122	9.714678	-0.219825	-0.843257	-0.030298	0.006394	0.003125	-170.679370	-85.529424	-165.889131
03123	9.724384	-0.238210	-0.829838	-0.015797	0.006010	0.001327	-170.632383	-85.530042	-165.944784
03124	9.770697	-0.210231	-0.823811	-0.006797	0.000716	0.008359	-170.534038	-85.527835	-166.046822
03125	9.727134	-0.186315	-0.801789	0.006109	0.006342	0.008366	-170.422875	-85.527949	-166.153849
03126	9.712925	-0.130763	-0.756652	-0.002019	0.003063	0.005974	-170.336273	-85.527269	-166.241362
03127	9.712943	-0.131275	-0.756333	0.003867	0.003499	0.004422	-170.258324	-85.526118	-166.316401
03128	9.693672	-0.095012	-0.781608	-0.007788	0.005960	0.005621	-170.174014	-85.527088	-166.404930
03129	9.698715	-0.061394	-0.782649	-0.008826	0.000825	0.006329	-170.093370	-85.524239	-166.490710
03130	9.698715	-0.061670	-0.782624	-0.034594	-0.000046	0.002865	-170.051898	-85.522075	-166.551676
03131	9.759268	-0.089636	-0.821323	-0.040153	0.005802	0.004424	-169.996375	-85.522222	-166.629205
03132	9.734586	-0.173946	-0.829612	-0.047058	0.006897	0.008954	-169.909370	-85.523356	-166.743007
03133	9.719502	-0.261920	-0.896929	-0.035500	0.004818	0.003935	-169.856390	-85.522963	-166.816357
03134	9.714491	-0.296139	-0.895384	-0.015219	0.001534	0.002503	-169.804516	-85.521706	-166.876623
03135	9.746166	-0.298800	-0.829075	0.019398	0.004526	0.007660	-169.694073	-85.520769	-166.976996
03136	9.736997	-0.209398	-0.785114	0.023355	0.004688	0.007899	-169.577195	-85.520718	-167.080296
03137	9.688846	-0.133171	-0.777143	0.026086	0.003430	0.009209	-169.452634	-85.518955	-167.189916
03138	9.725533	-0.087393	-0.783997	0.030131	0.000260	0.005262	-169.356841	-85.516655	-167.268173
03139	9.711294	-0.017524	-0.811144	0.009308	-0.002733	0.012767	-169.225154	-85.511019	-167.394838
03140	9.723225	-0.070603	-0.755255	-0.012878	0.003998	0.010267	-169.113252	-85.510258	-167.513972
03141	9.732882	-0.075319	-0.813614	-0.014996	0.007441	0.012420	-168.984419	-85.510350	-167.651939
03142	9.737503	-0.128793	-0.798733	-0.020981	0.007391	0.010149	-168.873287	-85.511471	-167.774958
03143	9.768689	-0.203865	-0.788414	-0.015519	0.004874	0.012770	-168.745574	-85.510040	-167.911207
03144	9.739352	-0.236441	-0.810816	-0.005857	0.009182	0.011830	-168.611120	-85.511936	-168.048929
03145	9.724718	-0.253278	-0.821418	0.007948	0.009936	0.010765	-168.476804	-85.513555	-168.178042
03146	9.698183	-0.232879	-0.816069	0.029148	0.008442	0.010536	-168.332418	-85.515133	-168.305606
03147	9.623016	-0.222102	-0.787762	0.028533	0.009208	0.015068	-168.156625	-85.515735	-168.465595
03148	9.679553	-0.127037	-0.783880	0.026996	0.005220	0.010404	-168.019130	-85.515468	-168.587485
03149	9.776817	-0.124393	-0.757271	0.019508	0.010802	0.013747	-167.855348	-85.517080	-168.740245
03150	9.701674	-0.113592	-0.728768	0.012512	0.012286	0.014460	-167.686170	-85.520223	-168.902238
03151	9.676916	-0.184257	-0.808485	-0.001719	0.005636	0.011698	-167.556876	-85.519135	-169.031862
03152	9.684241	-0.184623	-0.766414	-0.006289	0.003290	0.007993	-167.458667	-85.517990	-169.133474
03153	9.705712	-0.241269	-0.769153	-0.006197	0.002910	0.011809	-167.336014	-85.515316	-169.260216
03154	9.737373	-0.229831	-0.774660	-0.005492	0.001761	0.011092	-167.217893	-85.512893	-169.381344
03155	9.739649	-0.249652	-0.803247	-0.001627	0.002300	0.007517	-167.124413	-85.510391	-169.476486
03156	9.715309	-0.262004	-0.755390	-0.002700	0.007926	0.000964	-167.066868	-85.512678	-169.535247
03157	9.664518	-0.237741	-0.774775	0.005000	0.005292	-0.000466	-167.021094	-85.512865	-169.577640
03158	9.696222	-0.225274	-0.780099	0.010766	0.002388	-0.000108	-166.972492	-85.512190	-169.619691
03159	9.696247	-0.225246	-0.779798	0.004080	0.003490	-0.001662	-166.938914	-85.511534	-169.651133
03160	9.671894	-0.237003	-0.732176	0.003160	0.001688	-0.002858	-166.915401	-85.510820	-169.672390
03161	9.693977	-0.205823	-0.750935	0.001198	-0.005248	-0.003346	-166.910199	-85.505460	-169.678060
03162	9.682091	-0.168107	-0.735308	-0.001716	-0.000273	-0.004296	-166.902955	-85.503838	-169.685799
03163	9.686671	-0.205653	-0.792896	-0.003649	-0.000543	-0.002508	-166.886184	-85.501037	-169.703939
03164	9.708673	-0.188847	-0.739681	-0.008801	0.001592	-0.007400	-166.901945	-85.500859	-169.692675
03165	9.764133	-0.250270	-0.776960	-0.014170	0.003731	-0.006209	-166.910385	-85.500864	-169.692339
03166	9.742191	-0.265649	-0.829922	-0.014783	0.001545	-0.009673	-166.945768	-85.500954	-169.664829
03167	9.693582	-0.273920	-0.806812	0.005308	0.001956	-0.010729	-166.977593	-85.500590	-169.628827
03168	9.708302	-0.257101	-0.795217	0.005094	-0.000994	-0.012643	-167.026809	-85.499642	-169.576018
03169	9.693625	-0.271622	-0.807076	0.012273	-0.006193	-0.013719	-167.089474	-85.495135	-169.505947
03170	9.689128	-0.217722	-0.821526	0.016471	0.000630	-0.017286	-167.162381	-85.495679	-169.422834
03171	9.742790	-0.187577	-0.774102	0.019998	-0.002157	-0.012875	-167.208401	-85.493284	-169.366026
03172	9.689622	-0.143291	-0.765574	0.022327	-0.002651	-0.013114	-167.253609	-85.491453	-169.307333
03173	9.708939	-0.164368	-0.811476	0.020327	0.004125	-0.012871	-167.288942	-85.492611	-169.260024
03174	9.747944	-0.150234	-0.775110	0.016064	0.004349	-0.010846	-167.310452	-85.494402	-169.228703
03175	9.740707	-0.149825	-0.816251	0.013332	0.005606	-0.012160	-167.342135	-85.496248	-169.189039
03176	9.716399	-0.160544	-0.768457	0.002877	0.002825	-0.014316	-167.398312	-85.497619	-169.130521
03177	9.704112	-0.193946	-0.808327	-0.004822	0.005453	-0.012887	-167.445611	-85.499429	-169.084753
03178	9.701450	-0.245658	-0.835350	-0.002704	0.002008	-0.015037	-167.511468	-85.500423	-169.019733
03179	9.711119	-0.262594	-0.822283	0.009868	0.001347	-0.015031	-167.572477	-85.500278	-168.952628
03180	9.723498	-0.226428	-0.781788	0.011091	0.002766	-0.016105	-167.636883	-85.501817	-168.881135
03181	9.728587	-0.190846	-0.782867	0.015045	0.002929	-0.015865	-167.698497	-85.502602	-168.811081
03182	9.716684	-0.151937	-0.766592	0.009582	0.005441	-0.018494	-167.776736	-85.505915	-168.726581
03183	9.699852	-0.132443	-0.820535	0.010804	0.006860	-0.019568	-167.860837	-85.509357	-168.635063
03184	9.697163	-0.198319	-0.775701	-0.000071	0.001126	-0.017548	-167.944683	-85.510121	-168.550487
03185	9.745862	-0.187194	-0.798292	0.000962	0.006261	-0.018262	-168.026454	-85.513039	-168.467737
03186	9.728950	-0.182175	-0.780423	0.006845	0.006697	-0.019812	-168.114237	-85.517175	-168.375237
03187	9.704771	-0.177810	-0.804116	0.010091	0.008010	-0.018856	-168.192347	-85.521094	-168.290545
03188	9.678215	-0.154600	-0.799105	0.035934	0.005560	-0.019563	-168.263675	-85.524543	-168.197834
03189	9.734180	-0.143123	-0.779859	0.026188	0.004580	-0.014437	-168.306592	-85.526051	-168.139679
03190	9.739212	-0.107730	-0.780821	0.018278	0.004247	-0.014920	-168.356847	-85.528212	-168.078253
03191	9.746519	-0.105651	-0.738788	0.008747	0.003257	-0.015880	-168.422578	-85.529144	-168.007884
03192	9.785269	-0.162896	-0.758463	-0.006552	0.005156	-0.017201	-168.502222	-85.532066	-167.931250
03193	9.688175	-0.165513	-0.783858	-0.006955	0.005918	-0.018755	-168.593215	-85.534754	-167.843943
03194	9.700295	-0.201223	-0.799213	0.000533	0.003310	-0.014094	-168.649308	-85.536271	-167.786861
03195	9.709995	-0.218274	-0.786102	-0.001911	0.000470	-0.011946	-168.696314	-85.535173	-167.739766
03196	9.780520	-0.191189	-0.755739	0.017453	0.002073	-0.012295	-168.731574	-85.535786	-167.693855
03197	9.712621	-0.162832	-0.758262	0.011280	0.005724	-0.014211	-168.779313	-85.537880	-167.637979
03198	9.685993	-0.139997	-0.753620	0.009851	0.001350	-0.015048	-168.839825	-85.538387	-167.571107
03199	9.686020	-0.138664	-0.753523	0.006299	0.000420	-0.013736	-168.895255	-85.537466	-167.511684
03200	9.705645	-0.073159	-0.815376	0.001930	-0.002693	-0.009795	-168.928160	-85.535111	-167.477058
03201	9.737076	-0.146062	-0.805420	0.006700	-0.000342	-0.012184	-168.972826	-85.533594	-167.427396
03202	9.729762	-0.159745	-0.775189	-0.008696	0.001922	-0.017328	-169.059551	-85.534652	-167.344891
03203	9.715066	-0.260507	-0.770721	-0.010625	0.001649	-0.015538	-169.135534	-85.534593	-167.273619
03204	9.715088	-0.259094	-0.770919	0.009933	-0.005691	-0.013496	-169.194486	-85.530938	-167.208266
03205	9.678714	-0.218054	-0.779896	0.015616	-0.001531	-0.014692	-169.253905	-85.528996	-167.139659
03206	9.666608	-0.179373	-0.764348	0.017030	-0.003826	-0.016126	-169.325005	-85.526659	-167.058041
03207	9.705514	-0.150199	-0.800771	0.015298	-0.007815	-0.014692	-169.392373	-85.521129	-166.980830
03208	9.720093	-0.132784	-0.789570	0.005789	0.001555	-0.019122	-169.484052	-85.522122	-166.885031
03209	9.778435	-0.139427	-0.799483	-0.005460	0.000266	-0.024383	-169.622677	-85.522158	-166.749225
03210	9.732308	-0.165676	-0.805230	-0.003436	0.000165	-0.022352	-169.744790	-85.522666	-166.628201
03211	9.681311	-0.226210	-0.809737	0.005373	-0.004351	-0.022947	-169.871966	-85.519924	-166.495766
03212	9.712924	-0.211219	-0.815737	0.007807	-0.001509	-0.025102	-170.009531	-85.519721	-166.352780
03213	9.703193	-0.205009	-0.757117	0.017529	-0.004216	-0.024504	-170.140796	-85.517139	-166.210352
03214	9.693523	-0.184363	-0.770072	0.023308	0.003277	-0.027621	-170.281616	-85.519832	-166.055192
03215	9.715440	-0.150907	-0.788476	0.022087	0.001856	-0.026547	-170.417380	-85.520804	-165.905528
03216	9.649873	-0.154942	-0.748203	0.015294	-0.000402	-0.026189	-170.557163	-85.521223	-165.756013
03217	9.703302	-0.108676	-0.772764	0.010427	-0.002387	-0.027624	-170.712526	-85.519871	-165.593566
03218	9.691222	-0.155200	-0.741459	-0.000011	-0.005211	-0.029775	-170.892534	-85.517834	-165.412500
03219	9.715520	-0.140360	-0.789443	-0.005181	-0.006810	-0.028938	-171.071543	-85.514062	-165.235584
03220	9.730046	-0.121548	-0.778548	-0.006298	-0.004903	-0.029780	-171.254443	-85.512111	-165.055229
03221	9.744791	-0.174851	-0.823475	-0.020485	-0.004955	-0.030259	-171.448604	-85.509388	-164.870857
03222	9.722771	-0.116393	-0.821214	-0.001947	-0.005482	-0.027992	-171.616367	-85.506867	-164.703182
03223	9.730294	-0.185005	-0.835874	0.000480	-0.002636	-0.030151	-171.794782	-85.505370	-164.522496
03224	9.727806	-0.163104	-0.807599	0.014864	-0.006293	-0.030034	-171.968126	-85.502474	-164.339561
03225	9.722782	-0.107962	-0.822236	0.016074	0.001801	-0.028848	-172.123649	-85.503268	-164.173568
03226	9.710517	-0.068118	-0.806364	0.022758	0.000741	-0.027297	-172.265534	-85.504074	-164.017652
03227	9.681187	-0.025363	-0.773521	0.024988	-0.003069	-0.025622	-172.397545	-85.501856	-163.869648
03228	9.695662	-0.007225	-0.762422	0.015570	-0.004470	-0.022746	-172.515620	-85.499303	-163.741746
03229	9.734369	0.022860	-0.798860	-0.002154	-0.005480	-0.021899	-172.638143	-85.495358	-163.618873
03230	9.722362	-0.009930	-0.839486	-0.020996	-0.004587	-0.021892	-172.770790	-85.492634	-163.497369
03231	9.737283	-0.078248	-0.812329	-0.039639	-0.000739	-0.019976	-172.896444	-85.491226	-163.392854
03232	9.708309	-0.107967	-0.835472	-0.032245	-0.002940	-0.019144	-173.013998	-85.489203	-163.292955
03233	9.727887	-0.127977	-0.881528	-0.028505	0.000960	-0.018553	-173.121832	-85.488617	-163.201257
03234	9.762036	-0.146623	-0.844150	-0.001348	-0.000316	-0.016525	-173.200396	-85.487881	-163.122709
03235	9.727490	-0.052300	-0.825611	-0.001349	-0.000315	-0.016525	-173.278367	-85.486385	-163.043835
03236	9.724957	-0.031650	-0.796792	-0.003178	0.002734	-0.016647	-173.356239	-85.487375	-162.967035
03237	9.674295	-0.078759	-0.872539	0.000063	0.004065	-0.015691	-173.424096	-85.488301	-162.898407
03238	9.679054	-0.057608	-0.801812	0.000172	0.003691	-0.011859	-173.464772	-85.489509	-162.856993
03239	9.725617	-0.114231	-0.779881	0.000581	0.002932	-0.010302	-173.493572	-85.489464	-162.824830
03240	9.715811	-0.095177	-0.792592	-0.000930	0.001892	-0.006948	-173.500936	-85.489326	-162.817465
03241	9.744785	-0.062392	-0.769186	-0.008242	0.007418	-0.009705	-173.527156	-85.491780	-162.793952
03242	9.744813	-0.061643	-0.768897	-0.019460	-0.001320	-0.003472	-173.522677	-85.489589	-162.809116
03243	9.757229	-0.098207	-0.784609	-0.019781	0.002769	-0.006949	-173.539354	-85.489214	-162.801686
03244	9.723123	-0.076688	-0.821712	-0.023845	0.002957	-0.011024	-173.588392	-85.489944	-162.765687
03245	9.696888	-0.140826	-0.801273	-0.020605	0.004289	-0.010067	-173.627455	-85.490650	-162.737596
03246	9.655583	-0.134356	-0.808342	-0.017354	-0.001049	-0.011385	-173.678613	-85.489117	-162.695739
03247	9.687095	-0.120347	-0.813995	-0.007627	0.002947	-0.008508	-173.699632	-85.488993	-162.677190
03248	9.755334	-0.145931	-0.810938	0.000079	0.000368	-0.009944	-173.729240	-85.488174	-162.646931
03249	9.733064	-0.089745	-0.808126	0.013470	-0.001733	-0.006825	-173.730087	-85.485210	-162.637828
03250	9.740334	-0.088303	-0.766458	0.007273	0.001888	-0.008744	-173.745693	-85.485179	-162.617479
03251	9.708229	-0.014148	-0.776238	0.009916	0.003989	-0.003233	-173.717784	-85.485289	-162.638338
03252	9.708260	-0.013726	-0.775850	-0.006307	0.003995	-0.005753	-173.717924	-85.486272	-162.641309
03253	9.703679	-0.047453	-0.774215	-0.012270	0.000195	-0.002280	-173.699411	-85.484122	-162.666775
03254	9.679374	-0.044959	-0.798756	-0.020976	-0.002368	-0.000127	-173.672470	-85.481126	-162.705343
03255	9.747585	-0.071085	-0.796032	-0.025753	-0.001037	-0.003485	-173.671297	-85.478370	-162.720625
03256	9.718685	-0.102472	-0.819167	-0.025755	-0.001036	-0.003487	-173.670277	-85.476345	-162.735938
03257	9.721283	-0.120785	-0.847914	-0.021004	0.001339	-0.005882	-173.681873	-85.475131	-162.735836
03258	9.704234	-0.117448	-0.830863	-0.003332	-0.004663	0.000955	-173.638974	-85.470759	-162.780270
03259	9.699033	-0.079572	-0.773587	-0.002333	0.000478	0.000238	-173.596270	-85.468585	-162.823646
03260	9.669453	-0.025236	-0.812580	0.007432	-0.005902	0.006592	-173.507913	-85.463138	-162.907494
03261	9.639932	0.014166	-0.780059	0.000845	-0.005230	0.008865	-173.406966	-85.457183	-163.008437
03262	9.671463	0.011678	-0.714459	-0.005742	-0.004557	0.011138	-173.292941	-85.452177	-163.125608
03263	9.683856	-0.026628	-0.730789	-0.021450	-0.005687	0.014004	-173.169561	-85.445585	-163.263113
03264	9.746692	0.012707	-0.814683	-0.042438	-0.008052	0.013867	-173.060682	-85.438365	-163.396217
03265	9.773511	-0.009377	-0.819727	-0.061723	-0.006417	0.012290	-172.973640	-85.431431	-163.519499
03266	9.759536	-0.097964	-0.887805	-0.069358	-0.000506	0.011798	-172.888886	-85.428613	-163.643877
03267	9.735841	-0.182616	-0.896543	-0.064525	0.005204	0.007485	-172.827266	-85.428650	-163.742099
03268	9.739027	-0.288384	-0.909512	-0.045659	0.004328	0.007496	-172.755291	-85.428866	-163.840035
03269	9.697724	-0.283619	-0.916194	-0.023337	0.007731	0.010404	-172.646835	-85.430068	-163.961710
03270	9.665770	-0.225382	-0.853475	-0.002945	0.007902	0.007079	-172.549993	-85.432318	-164.060040
03271	9.704022	-0.125961	-0.832089	0.010554	0.009123	0.008299	-172.434914	-85.434428	-164.167325
03272	9.706159	-0.073909	-0.803616	0.005583	0.010460	0.011048	-172.302290	-85.437798	-164.296648
03273	9.708296	-0.021796	-0.775213	-0.011163	0.007912	0.008860	-172.196627	-85.439109	-164.407507
03274	9.725393	-0.025667	-0.791673	-0.023643	0.008115	0.012671	-172.071216	-85.440979	-164.546392
03275	9.713570	-0.061318	-0.831110	-0.033807	0.011559	0.010502	-171.963371	-85.444231	-164.672556
03276	9.767364	-0.104521	-0.838890	-0.028429	0.009458	0.009306	-171.863046	-85.447091	-164.789024
03277	9.745754	-0.136504	-0.819310	-0.020722	0.013541	0.010167	-171.748110	-85.451469	-164.915757
03278	9.702450	-0.184872	-0.852774	-0.025094	0.014121	0.008360	-171.647414	-85.457016	-165.030680
03279	9.741797	-0.243698	-0.871829	-0.018908	0.014212	0.004541	-171.570059	-85.462186	-165.117930
03280	9.732098	-0.225910	-0.883334	-0.008545	0.013713	0.008635	-171.457862	-85.467449	-165.234877
03281	9.722378	-0.223290	-0.822987	0.006173	0.016356	0.008797	-171.332619	-85.473391	-165.355523
03282	9.748841	-0.173567	-0.769313	0.012059	0.016824	0.007256	-171.214477	-85.480497	-165.466590
03283	9.802228	-0.130232	-0.791437	0.020982	0.022333	0.007050	-171.085718	-85.489989	-165.581751
03284	9.751294	-0.107177	-0.809347	0.021586	0.021576	0.002497	-170.990096	-85.500174	-165.664749
03285	9.664190	-0.130788	-0.820280	0.011013	0.025789	-0.001238	-170.922364	-85.512343	-165.725645
03286	9.661774	-0.112029	-0.789159	0.001071	0.021803	0.001958	-170.841356	-85.522687	-165.805772
03287	9.718247	-0.173557	-0.824739	-0.002678	0.017906	0.001340	-170.771416	-85.530119	-165.877069
03288	9.762342	-0.197752	-0.844304	-0.001371	0.022669	-0.001642	-170.716217	-85.541269	-165.932710
03289	9.757862	-0.231603	-0.840882	0.009491	0.021798	-0.005922	-170.688577	-85.551555	-165.958377
03290	9.695020	-0.257003	-0.827344	0.027040	0.026530	-0.006340	-170.646196	-85.565319	-165.984833
03291	9.643972	-0.247658	-0.773427	0.032633	0.020713	-0.007890	-170.618772	-85.575189	-165.992884
03292	9.665921	-0.215808	-0.789710	0.035769	0.022425	-0.010757	-170.608362	-85.587043	-165.982256
03293	9.677878	-0.180363	-0.747247	0.038006	0.018612	-0.009082	-170.588717	-85.595880	-165.978580
03294	9.728666	-0.116573	-0.740515	0.028557	0.020913	-0.011991	-170.593333	-85.606995	-165.957026
03295	9.738600	-0.133836	-0.725583	0.022975	0.020065	-0.012732	-170.608532	-85.616988	-165.929676
03296	9.707242	-0.145599	-0.717956	0.011602	0.022081	-0.013850	-170.635353	-85.628935	-165.895595
03297	9.685648	-0.175365	-0.697555	0.004209	0.017615	-0.016991	-170.696282	-85.637972	-165.833266
03298	9.693143	-0.158296	-0.725979	-0.001063	0.016384	-0.020006	-170.783417	-85.647261	-165.745976
03299	9.681582	-0.191400	-0.764906	0.002494	0.013618	-0.015563	-170.839122	-85.653913	-165.687874
03300	9.693687	-0.140396	-0.795058	0.007878	0.011517	-0.016743	-170.903222	-85.660136	-165.618549
03301	9.717969	-0.141214	-0.769459	0.006664	0.010090	-0.015670	-170.961731	-85.664792	-165.555189
03302	9.749599	-0.126573	-0.773897	0.011729	0.012086	-0.020325	-171.050092	-85.671646	-165.459322
03303	9.754327	-0.090568	-0.774056	0.012135	0.011324	-0.018768	-171.127552	-85.677253	-165.373894
03304	9.783223	-0.057024	-0.749460	0.015154	0.016369	-0.017443	-171.187885	-85.686259	-165.304167
03305	9.727686	-0.065927	-0.766799	0.008045	0.018183	-0.020589	-171.274513	-85.695856	-165.213456
03306	9.693544	-0.058326	-0.731004	0.015062	0.013037	-0.015528	-171.324899	-85.702796	-165.153761
03307	9.674671	-0.107199	-0.740196	0.002802	0.009520	-0.012099	-171.359821	-85.706794	-165.114538
03308	9.714241	-0.164228	-0.759219	0.000364	0.010377	-0.015705	-171.423295	-85.712235	-165.050163
03309	9.731516	-0.165587	-0.775017	0.002564	0.016947	-0.017501	-171.491529	-85.720813	-164.979734
03310	9.712737	-0.213946	-0.783739	0.009875	0.015136	-0.020468	-171.580712	-85.729340	-164.884116
03311	9.725505	-0.248964	-0.797850	0.020100	0.018752	-0.025946	-171.702529	-85.739616	-164.751868
03312	9.688602	-0.221837	-0.732982	0.034292	0.018849	-0.025414	-171.812213	-85.750627	-164.621666
03313	9.734636	-0.190806	-0.724963	0.052842	0.018378	-0.023069	-171.893427	-85.760377	-164.509841
03314	9.702212	-0.129594	-0.661435	0.049985	0.019992	-0.028249	-172.015767	-85.772231	-164.357935
03315	9.701639	-0.040739	-0.675275	0.050791	0.018473	-0.025136	-172.115673	-85.782354	-164.227362
03316	9.718943	-0.041489	-0.690590	0.028690	0.017983	-0.026189	-172.237862	-85.792863	-164.087847
03317	9.736235	-0.042045	-0.706172	0.007230	0.013015	-0.026025	-172.376630	-85.799908	-163.943464
03318	9.693409	-0.087606	-0.739608	-0.008395	0.015194	-0.025136	-172.516006	-85.808705	-163.808023
03319	9.723427	-0.125089	-0.770690	-0.007110	0.019953	-0.028145	-172.673958	-85.819755	-163.654114
03320	9.670445	-0.166386	-0.745011	-0.006271	0.015471	-0.033051	-172.874809	-85.829223	-163.455818
03321	9.666139	-0.197513	-0.742084	0.001320	0.016247	-0.030266	-173.049393	-85.838236	-163.280304
03322	9.669233	-0.213442	-0.769163	0.009116	0.017016	-0.033597	-173.245992	-85.848526	-163.077436
03323	9.686638	-0.213017	-0.784543	0.027455	0.017324	-0.038921	-173.474915	-85.858526	-162.835064
03324	9.663787	-0.168674	-0.708389	0.038092	0.016489	-0.037080	-173.684867	-85.868628	-162.602169
03325	9.693956	-0.080063	-0.656493	0.034775	0.011818	-0.036129	-173.893237	-85.875354	-162.371320
03326	9.699940	0.010589	-0.629548	0.028894	0.011332	-0.034600	-174.095001	-85.882247	-162.151923
03327	9.668544	0.000671	-0.623073	0.009553	0.009573	-0.034322	-174.307357	-85.887439	-161.934016
03328	9.688775	-0.018141	-0.668051	-0.002680	0.006025	-0.030885	-174.503101	-85.890985	-161.738794
03329	9.734499	0.014250	-0.661417	-0.017761	0.004077	-0.032628	-174.722103	-85.892872	-161.527759
03330	9.730638	-0.002337	-0.731357	-0.040876	0.005063	-0.030700	-174.939557	-85.895756	-161.332713
03331	9.709070	-0.030072	-0.712758	-0.052369	-0.002599	-0.036020	-175.210270	-85.893768	-161.091617
03332	9.730462	-0.134762	-0.742793	-0.050590	0.001030	-0.033633	-175.459576	-85.894362	-160.870217
03333	9.727505	-0.111959	-0.714147	-0.039029	-0.000937	-0.038625	-175.742233	-85.893245	-160.610036
03334	9.719379	-0.161969	-0.783077	-0.017593	0.004090	-0.038778	-176.011928	-85.895650	-160.349240
03335	9.709110	-0.154320	-0.724066	-0.017774	0.001136	-0.040699	-176.298700	-85.895677	-160.074052
03336	9.724643	-0.080980	-0.684933	-0.004001	0.002046	-0.041717	-176.585481	-85.896833	-159.788319
03337	9.704877	-0.040489	-0.710798	-0.005316	0.000991	-0.044491	-176.895650	-85.896782	-159.480752
03338	9.743164	-0.022476	-0.674516	-0.006306	-0.001197	-0.035723	-177.137443	-85.895699	-159.241447
03339	9.713404	0.035697	-0.713649	-0.018277	-0.001444	-0.040357	-177.420685	-85.893942	-158.964877
03340	9.685048	0.007384	-0.737032	-0.016973	-0.000388	-0.037594	-177.682921	-85.893207	-158.711204
03341	9.740522	0.022463	-0.717905	-0.028422	-0.001777	-0.036816	-177.944207	-85.891044	-158.462945
03342	9.729432	-0.008808	-0.758268	-0.024719	0.002147	-0.036209	-178.198921	-85.891570	-158.221262
03343	9.725249	-0.039614	-0.756701	-0.015090	0.002866	-0.031353	-178.407657	-85.891671	-158.021035
03344	9.735230	-0.054812	-0.743485	-0.002399	0.001983	-0.027436	-178.579728	-85.891843	-157.849387
03345	9.695043	0.005722	-0.723174	0.010412	0.007768	-0.027378	-178.742557	-85.894793	-157.679338
03346	9.695089	0.008258	-0.722536	0.013887	0.005407	-0.026755	-178.899484	-85.896849	-157.513517
03347	9.723392	0.042802	-0.698609	0.008599	0.007092	-0.021739	-179.017915	-85.899246	-157.388349
03348	9.696627	0.080198	-0.765900	0.001773	0.001433	-0.019481	-179.124426	-85.898905	-157.280033
03349	9.717593	0.098668	-0.712498	0.005059	-0.000926	-0.012722	-179.173702	-85.896541	-157.226723
03350	9.733365	0.029403	-0.685293	-0.011059	-0.001404	-0.011488	-179.223962	-85.894494	-157.182174
03351	9.740606	0.046100	-0.715624	-0.021475	-0.004326	-0.013706	-179.297208	-85.890180	-157.120952
03352	9.742694	-0.024436	-0.771859	-0.023589	0.002423	-0.013493	-179.370161	-85.890332	-157.060849
03353	9.735449	-0.038307	-0.741645	-0.016576	0.001039	-0.014174	-179.442938	-85.889118	-156.995468
03354	9.727223	-0.105367	-0.738608	-0.008444	0.007757	-0.013659	-179.508161	-85.892316	-156.934416
03355	9.717308	-0.086132	-0.750865	0.008209	0.007101	-0.009471	-179.529815	-85.894567	-156.907332
03356	9.717364	-0.085267	-0.750233	0.015224	0.005718	-0.010150	-179.553713	-85.896576	-156.874115
03357	9.691162	-0.010415	-0.718254	0.024576	0.003874	-0.011057	-179.577179	-85.896979	-156.833632
03358	9.678047	0.027300	-0.702359	0.027275	-0.000679	-0.007785	-179.575681	-85.895310	-156.818953
03359	9.710770	0.108758	-0.752335	0.028529	-0.002955	-0.003082	-179.534988	-85.891740	-156.843172
03360	9.710351	0.094334	-0.680611	0.011020	0.002167	-0.002351	-179.499274	-85.891677	-156.872135
03361	9.731702	0.126124	-0.699093	-0.015979	-0.003822	-0.002968	-179.481489	-85.887582	-156.896285
03362	9.786138	0.084649	-0.707630	-0.025691	-0.004932	0.002153	-179.431517	-85.883425	-156.960631
03363	9.749689	-0.016042	-0.728481	-0.035411	0.001003	-0.000445	-179.406514	-85.882133	-157.005580
03364	9.755570	-0.068099	-0.714094	-0.035415	0.001003	-0.000448	-179.382437	-85.881387	-157.049550
03365	9.734629	-0.084739	-0.767407	-0.031465	0.001220	-0.000188	-179.352881	-85.880141	-157.097190
03366	9.703293	-0.098022	-0.761880	-0.015649	0.002087	0.000865	-179.306958	-85.880004	-157.151709
03367	9.671944	-0.111454	-0.756506	-0.002812	-0.002114	0.000588	-179.254442	-85.876839	-157.204855
03368	9.696019	-0.113399	-0.732073	0.007740	-0.002520	-0.001394	-179.213619	-85.874073	-157.240825
03369	9.742809	-0.016362	-0.770618	0.021529	-0.008621	0.005317	-179.111771	-85.867110	-157.332006
03370	9.740605	0.054874	-0.715024	0.024508	-0.003554	0.006648	-178.997957	-85.863668	-157.431526
03371	9.720631	0.090633	-0.740997	0.006043	0.003468	0.000390	-178.942658	-85.863746	-157.483150
03372	9.720643	0.090243	-0.740877	-0.003725	-0.000977	0.007441	-178.838541	-85.861751	-157.589166
03373	9.786069	0.082718	-0.708816	-0.015054	-0.002766	0.012071	-178.703395	-85.858045	-157.732683
03374	9.767846	0.031051	-0.719115	-0.019394	0.004063	0.016364	-178.536951	-85.858777	-157.910191
03375	9.735532	-0.036818	-0.740627	-0.023295	0.007182	0.014168	-178.387821	-85.860710	-158.071837
03376	9.734578	-0.091033	-0.767329	-0.013886	0.008671	0.011333	-178.256764	-85.864098	-158.210700
03377	9.730476	-0.126319	-0.765414	-0.001050	0.004465	0.011056	-178.120892	-85.864438	-158.348523
03378	9.705971	-0.140428	-0.717903	0.017639	0.003721	0.017306	-177.925502	-85.864822	-158.533778
03379	9.710142	-0.107915	-0.718601	0.037770	0.007750	0.014411	-177.738313	-85.866937	-158.698204
03380	9.711207	-0.056284	-0.690483	0.037177	0.005557	0.010918	-177.581586	-85.868437	-158.833470
03381	9.681334	-0.003267	-0.729201	0.018489	-0.000746	0.012381	-177.425455	-85.865681	-158.979872
03382	9.746746	-0.011322	-0.696896	0.006797	0.001566	0.013509	-177.267053	-85.864775	-159.134270
03383	9.750930	0.021446	-0.698001	0.001815	0.002871	0.016243	-177.088983	-85.863949	-159.311937
03384	9.704367	-0.062844	-0.731764	-0.001950	-0.004389	0.017559	-176.906249	-85.859446	-159.495757
03385	9.704342	-0.064527	-0.731952	0.005291	0.000510	0.016868	-176.722181	-85.857162	-159.676999
03386	9.715824	-0.016558	-0.763207	0.006489	0.001945	0.015788	-176.546268	-85.856258	-159.849133
03387	9.738820	-0.073430	-0.765871	0.011997	-0.000500	0.018470	-176.346049	-85.853208	-160.042478
03388	9.728881	-0.056950	-0.778695	0.013560	0.003888	0.013177	-176.185903	-85.853431	-160.194742
03389	9.721605	-0.073981	-0.748135	0.020129	0.006212	0.018979	-175.973129	-85.854075	-160.395098
03390	9.724723	-0.095011	-0.776405	0.026355	0.002626	0.020945	-175.745106	-85.853178	-160.608066
03391	9.735774	-0.062122	-0.735740	0.028273	0.002921	0.019148	-175.528797	-85.851794	-160.808820
03392	9.732696	-0.045406	-0.706636	0.024904	0.004907	0.022366	-175.289162	-85.852013	-161.034265
03393	9.712885	-0.011430	-0.732141	0.018197	0.005920	0.020760	-175.064125	-85.852239	-161.248164
03394	9.708672	-0.047832	-0.730360	0.003942	0.002423	0.022133	-174.840063	-85.850922	-161.470038
03395	9.756838	-0.053752	-0.680518	0.000836	0.007737	0.017290	-174.651080	-85.852165	-161.659478
03396	9.700239	-0.119973	-0.726392	-0.005038	0.007234	0.018821	-174.454670	-85.853661	-161.858784
03397	9.700262	-0.121807	-0.725788	-0.003903	0.005336	0.019673	-174.252037	-85.853396	-162.064576
03398	9.724343	-0.125730	-0.700542	-0.004626	0.006476	0.020385	-174.043517	-85.854266	-162.275787
03399	9.738520	-0.111611	-0.688397	0.001182	0.003645	0.020786	-173.829268	-85.852826	-162.488793
03400	9.724360	-0.129487	-0.699620	-0.001676	0.005247	0.015596	-173.657696	-85.853187	-162.661266
03401	9.678787	-0.160194	-0.705391	0.006842	0.004898	0.011560	-173.512560	-85.852895	-162.803755
03402	9.686154	-0.145872	-0.735193	-0.006799	0.000647	0.008370	-173.404799	-85.851047	-162.915192
03403	9.744688	-0.154364	-0.744671	-0.007278	-0.001926	0.008735	-173.295895	-85.847111	-163.027686
03404	9.778607	-0.175309	-0.707060	-0.004463	0.000180	0.008144	-173.189254	-85.844982	-163.136659
03405	9.754554	-0.173725	-0.731585	-0.006117	0.003215	0.001877	-173.128760	-85.844464	-163.198688
03406	9.726225	-0.206005	-0.754573	-0.000242	0.003714	0.000348	-173.077502	-85.844863	-163.249708
03407	9.691754	-0.200237	-0.720185	0.004740	0.002398	-0.002383	-173.046031	-85.844038	-163.280913
03408	9.696076	-0.165785	-0.721245	0.012229	0.003570	-0.003424	-173.017289	-85.844612	-163.302194
03409	9.690494	-0.113173	-0.735645	0.019001	-0.004118	-0.004083	-172.995741	-85.840221	-163.312449
03410	9.721915	-0.099965	-0.741041	0.012024	0.003576	0.002701	-172.919232	-85.840367	-163.381740
03411	9.708982	-0.063096	-0.725073	0.010718	0.002520	-0.000067	-172.865152	-85.839503	-163.430077
03412	9.699100	-0.044912	-0.738125	-0.000171	-0.002956	-0.001914	-172.838113	-85.836255	-163.456774
03413	9.716335	-0.047720	-0.755357	-0.003537	-0.000965	0.001305	-172.786308	-85.833339	-163.513111
03414	9.687984	-0.079982	-0.778687	-0.002336	0.000467	0.000225	-172.740536	-85.831879	-163.559834
03415	9.763221	-0.105058	-0.733330	-0.005874	-0.000498	0.001530	-172.686600	-85.829238	-163.615771
03416	9.770600	-0.089958	-0.763253	0.001786	0.003629	0.002401	-172.618408	-85.829409	-163.682606
03417	9.728749	-0.099826	-0.698834	0.002921	0.001730	0.003255	-172.543755	-85.827808	-163.755907
03418	9.693621	-0.132915	-0.763538	0.005218	0.004971	-0.002750	-172.512360	-85.829115	-163.783876
03419	9.693668	-0.133050	-0.762919	0.001235	0.007726	0.005027	-172.417721	-85.830736	-163.877159
03420	9.720845	-0.154579	-0.766185	0.013808	0.007205	0.005101	-172.317818	-85.832708	-163.968882
03421	9.723394	-0.188441	-0.722281	0.019268	0.008461	0.002003	-172.236330	-85.835053	-164.038487
03422	9.699423	-0.186724	-0.745908	0.024897	0.012673	0.000817	-172.157433	-85.840442	-164.102778
03423	9.726638	-0.207912	-0.748699	0.024002	0.010858	-0.000385	-172.090565	-85.844383	-164.156643
03424	9.699577	-0.186830	-0.743880	0.029532	0.005443	-0.005741	-172.067839	-85.846177	-164.161952
03425	9.707630	-0.132548	-0.674048	0.025920	0.011149	-0.002183	-172.012622	-85.850286	-164.203983
03426	9.735438	-0.139166	-0.748972	0.021011	0.005797	-0.001709	-171.962805	-85.851958	-164.241349
03427	9.722529	-0.101677	-0.732714	0.016132	0.007477	-0.008954	-171.969173	-85.854550	-164.225740
03428	9.732452	-0.119066	-0.719029	0.021936	0.004644	-0.008550	-171.973613	-85.856115	-164.208175
03429	9.691203	-0.113439	-0.726199	0.015238	0.005661	-0.010156	-171.991571	-85.857819	-164.179625
03430	9.749821	-0.120215	-0.734939	0.017159	0.005951	-0.011950	-172.023983	-85.860395	-164.136759
03431	9.759755	-0.137186	-0.721235	0.019079	0.006241	-0.013745	-172.068465	-85.862716	-164.081154
03432	9.719688	-0.078088	-0.701031	0.025941	0.008184	-0.010234	-172.080037	-85.866420	-164.054138
03433	9.692589	-0.056228	-0.696548	0.022958	0.003120	-0.011549	-172.107913	-85.866796	-164.012195
03434	9.730785	-0.040909	-0.659992	0.007891	0.001143	-0.013304	-172.161642	-85.866742	-163.953281
03435	9.728310	-0.006569	-0.703075	-0.000621	0.001496	-0.009266	-172.186880	-85.865976	-163.928067
03436	9.733927	-0.057855	-0.688530	-0.020833	-0.002123	-0.010197	-172.236153	-85.863822	-163.890121
03437	9.746930	-0.093938	-0.704294	-0.018809	-0.002203	-0.008144	-172.267483	-85.861006	-163.867703
03438	9.732762	-0.109171	-0.716395	-0.026046	-0.007093	-0.007440	-172.303303	-85.855815	-163.846239
03439	9.697069	-0.155651	-0.710071	-0.016168	-0.003054	-0.010652	-172.352679	-85.852611	-163.804590
03440	9.693936	-0.135604	-0.681683	-0.021149	-0.001738	-0.007923	-172.383716	-85.850495	-163.785108
03441	9.678656	-0.204132	-0.721023	-0.011149	-0.008070	-0.007598	-172.411887	-85.844176	-163.762982
03442	9.655719	-0.147972	-0.719032	-0.002406	-0.002132	-0.011664	-172.461755	-85.842117	-163.713852
03443	9.714299	-0.154620	-0.728473	-0.005772	-0.000141	-0.008447	-172.484849	-85.840367	-163.693581
03444	9.738946	-0.141480	-0.775675	0.003261	-0.001618	-0.007067	-172.494974	-85.838252	-163.681043
03445	9.708632	-0.100893	-0.743335	0.000449	-0.003726	-0.006472	-172.502772	-85.834293	-163.672815
03446	9.701835	-0.101261	-0.785528	0.007869	-0.005878	-0.005580	-172.503005	-85.829647	-163.667548
03447	9.722719	-0.083779	-0.732459	0.008513	-0.000347	-0.004039	-172.482791	-85.827417	-163.681208
03448	9.725866	-0.102444	-0.760990	0.006653	0.002691	-0.004184	-172.464059	-85.827533	-163.695655
03449	9.735788	-0.119996	-0.747748	0.006071	0.000490	-0.007663	-172.473203	-85.826129	-163.681201
03450	9.728456	-0.134513	-0.717327	0.010970	0.005848	-0.008143	-172.479578	-85.828335	-163.667994
03451	9.727416	-0.186844	-0.744136	0.015780	0.001576	-0.012786	-172.522887	-85.827994	-163.614437
03452	9.700258	-0.165186	-0.740109	0.026944	-0.000349	-0.005504	-172.505924	-85.826482	-163.615455
03453	9.690370	-0.146691	-0.753031	0.027002	0.002980	-0.007447	-172.500291	-85.826453	-163.606888
03454	9.697137	-0.145382	-0.711316	0.029213	-0.004142	-0.003794	-172.472623	-85.822659	-163.617335
03455	9.732733	-0.097660	-0.718449	0.029685	-0.001568	-0.004168	-172.443745	-85.819809	-163.629015
03456	9.715459	-0.094300	-0.701537	0.027549	-0.001121	-0.010076	-172.462778	-85.818203	-163.593593
03457	9.751066	-0.046055	-0.708495	0.018625	-0.000018	-0.007604	-172.466652	-85.816466	-163.581405
03458	9.733791	-0.042566	-0.691567	0.009536	-0.001875	-0.007037	-172.473151	-85.814203	-163.568898
03459	9.685707	-0.038323	-0.741146	0.002949	-0.001237	-0.004789	-172.463889	-85.811649	-163.575033
03460	9.719192	-0.096990	-0.802369	-0.007583	-0.000813	-0.002798	-172.446227	-85.809670	-163.596587
03461	9.747443	-0.064210	-0.779083	-0.003578	0.002728	-0.004482	-172.434328	-85.809200	-163.611321
03462	9.708722	-0.092483	-0.743248	0.002086	0.003250	0.000112	-172.384398	-85.809307	-163.659674
03463	9.670570	-0.106985	-0.779499	0.003164	-0.001974	0.002913	-172.316608	-85.805653	-163.726397
03464	9.744291	-0.045444	-0.750442	0.008968	-0.004798	0.003318	-172.246437	-85.800936	-163.791093
03465	9.737960	-0.007839	-0.693610	0.007938	-0.003270	0.006310	-172.150752	-85.796423	-163.879588
03466	9.697685	0.049440	-0.674552	-0.012404	-0.003561	0.009580	-172.043517	-85.791899	-163.993726
03467	9.708165	0.044589	-0.733636	-0.028803	-0.003638	0.013107	-171.918104	-85.786444	-164.137096
03468	9.694006	0.027463	-0.745707	-0.053681	-0.006344	0.012633	-171.814638	-85.780061	-164.271171
03469	9.738409	0.002517	-0.767220	-0.070712	-0.005648	0.020707	-171.658049	-85.772872	-164.468960
03470	9.798406	-0.092929	-0.760976	-0.070360	-0.002703	0.016470	-171.531421	-85.768184	-164.635845
03471	9.755379	-0.156868	-0.724350	-0.058529	-0.002069	0.017239	-171.390526	-85.763212	-164.809910
03472	9.725648	-0.103912	-0.763570	-0.055560	0.002996	0.018546	-171.233528	-85.761512	-164.998747
03473	9.723100	-0.071896	-0.806686	-0.050652	-0.001647	0.017741	-171.084983	-85.756660	-165.177049
03474	9.715685	-0.088771	-0.777058	-0.043608	-0.006750	0.022842	-170.900729	-85.748981	-165.386353
03475	9.742792	-0.111574	-0.781418	-0.052010	0.000260	0.022999	-170.711335	-85.744649	-165.605668
03476	9.707075	-0.161162	-0.774835	-0.053116	-0.001550	0.027916	-170.488718	-85.739328	-165.858906
03477	9.705838	-0.216524	-0.802488	-0.046528	-0.002189	0.025666	-170.281027	-85.733338	-166.094089
03478	9.695295	-0.215134	-0.743984	-0.040968	-0.001307	0.026413	-170.063706	-85.728161	-166.335042
03479	9.763666	-0.243118	-0.740520	-0.035510	-0.000047	0.023315	-169.864812	-85.723485	-166.552895
03480	9.763630	-0.244989	-0.740377	-0.034247	0.004721	0.020304	-169.682430	-85.722204	-166.754951
03481	9.763628	-0.246562	-0.739886	-0.018950	0.006686	0.015955	-169.521344	-85.721880	-166.928684
03482	9.760568	-0.229127	-0.710349	-0.019195	0.010399	0.016304	-169.352581	-85.724130	-167.108435
03483	9.700818	-0.275585	-0.727577	-0.019883	0.008590	0.008973	-169.239959	-85.725513	-167.231037
03484	9.696548	-0.310308	-0.725451	-0.018784	0.010407	0.004051	-169.162954	-85.729027	-167.318537
03485	9.696602	-0.310662	-0.724577	-0.007400	0.008447	0.005217	-169.072505	-85.730749	-167.413328
03486	9.699732	-0.329768	-0.752665	-0.011939	0.006052	0.001463	-169.017215	-85.732077	-167.475119
03487	9.773740	-0.268398	-0.722226	0.002577	0.005819	-0.000232	-168.965986	-85.732882	-167.525515
03488	9.774457	-0.253453	-0.793245	0.017471	0.008544	-0.006134	-168.947385	-85.736438	-167.533617
03489	9.775101	-0.214617	-0.693143	0.026103	0.007813	-0.006311	-168.924476	-85.739059	-167.540226
03490	9.769681	-0.161442	-0.706040	0.029845	0.018784	-0.013397	-168.938492	-85.749171	-167.508512
03491	9.691571	-0.116310	-0.720820	0.015328	0.019015	-0.011705	-168.946746	-85.758686	-167.491184
03492	9.688088	-0.134937	-0.789636	0.013644	0.015008	-0.010268	-168.952074	-85.766330	-167.477490
03493	9.729505	-0.138816	-0.780507	0.012338	0.013956	-0.013040	-168.980324	-85.773190	-167.442318
03494	9.742628	-0.174871	-0.794634	0.019687	0.018461	-0.009875	-168.974174	-85.782733	-167.436662
03495	9.683495	-0.180966	-0.711770	0.022023	0.017994	-0.010099	-168.967999	-85.791541	-167.429173
03496	9.715066	-0.166892	-0.715421	0.023881	0.014954	-0.009959	-168.965319	-85.799121	-167.417629
03497	9.743483	-0.133959	-0.690364	0.034599	0.017474	-0.010011	-168.951467	-85.807601	-167.410114
03498	9.712173	-0.146480	-0.683468	0.030164	0.014694	-0.009919	-168.945275	-85.815031	-167.398482
03499	9.730703	-0.095362	-0.671722	0.017104	0.012639	-0.009651	-168.946962	-85.820697	-167.387890
03500	9.719856	-0.129402	-0.710586	0.005065	0.019064	-0.012049	-168.965049	-85.830817	-167.366333
03501	9.771924	-0.136770	-0.759639	0.004338	0.020204	-0.011340	-168.975761	-85.840892	-167.354828
03502	9.743056	-0.182122	-0.709286	0.002211	0.020667	-0.017248	-169.033566	-85.852481	-167.295090
03503	9.729119	-0.196622	-0.718919	0.005435	0.022016	-0.016269	-169.078390	-85.864138	-167.246408
03504	9.705333	-0.193096	-0.741715	0.015922	0.018254	-0.016295	-169.125128	-85.874258	-167.189889
03505	9.701252	-0.225881	-0.738433	0.020346	0.021036	-0.016395	-169.165204	-85.885465	-167.137182
03506	9.650292	-0.201692	-0.757492	0.033994	0.015293	-0.013502	-169.184606	-85.893613	-167.097690
03507	9.734014	-0.157089	-0.712938	0.029314	0.016224	-0.013066	-169.200838	-85.901626	-167.065838
03508	9.772178	-0.141993	-0.674976	0.035535	0.012637	-0.011081	-169.204516	-85.908018	-167.041227
03509	9.772290	-0.140999	-0.673576	0.030030	0.015083	-0.013786	-169.227383	-85.915563	-166.999872
03510	9.741001	-0.153069	-0.666626	0.027750	0.018880	-0.015510	-169.261276	-85.925941	-166.949441
03511	9.712993	-0.183960	-0.688040	0.038766	0.021027	-0.017845	-169.304243	-85.937342	-166.884396
03512	9.662048	-0.159699	-0.706839	0.041980	0.022380	-0.016873	-169.336043	-85.949831	-166.827893
03513	9.715697	-0.214429	-0.640709	0.043677	0.016384	-0.018636	-169.388658	-85.958549	-166.750793
03514	9.696155	-0.176487	-0.665049	0.036621	0.021479	-0.023780	-169.480667	-85.971249	-166.637009
03515	9.700513	-0.140396	-0.664759	0.031352	0.013175	-0.019084	-169.549793	-85.978247	-166.549606
03516	9.745197	-0.162233	-0.684257	0.028755	0.011051	-0.024627	-169.669472	-85.985132	-166.412605
03517	9.732142	-0.123158	-0.667638	0.028123	0.011822	-0.020071	-169.751742	-85.991506	-166.314811
03518	9.756164	-0.123088	-0.641520	0.024957	0.013796	-0.023000	-169.857324	-85.999741	-166.194125
03519	9.677057	-0.130597	-0.684647	0.015455	0.012689	-0.024030	-169.976757	-86.006940	-166.064780
03520	9.722608	-0.098860	-0.677053	0.016591	0.010794	-0.023169	-170.093685	-86.013464	-165.937527
03521	9.721881	-0.150212	-0.703083	0.014352	0.010888	-0.019099	-170.178395	-86.019137	-165.845199
03522	9.767396	-0.118901	-0.695805	0.031838	0.005757	-0.019772	-170.266704	-86.022457	-165.737880
03523	9.729568	-0.131487	-0.731337	0.035159	0.013770	-0.022700	-170.364886	-86.030080	-165.619441
03524	9.742725	-0.127597	-0.646485	0.046200	0.012235	-0.019242	-170.432212	-86.036987	-165.524908
03525	9.691669	-0.103328	-0.666502	0.047646	0.009953	-0.020665	-170.512631	-86.042314	-165.415987
03526	9.723148	-0.088451	-0.670713	0.043068	0.010512	-0.016379	-170.561214	-86.047961	-165.342042
03527	9.727358	-0.052909	-0.671181	0.038393	0.011435	-0.015946	-170.606689	-86.053575	-165.275274
03528	9.717563	-0.033640	-0.683210	0.031385	0.012819	-0.015292	-170.650283	-86.060417	-165.213041
03529	9.710126	-0.047691	-0.652187	0.021476	0.005438	-0.010125	-170.665626	-86.062138	-165.184878
03530	9.723452	-0.083733	-0.666908	0.008826	0.006284	-0.014077	-170.721178	-86.065167	-165.123614
03531	9.795455	-0.127202	-0.690491	0.012865	0.006141	-0.009955	-170.739346	-86.067262	-165.097793
03532	9.736857	-0.118584	-0.680836	0.017483	0.008907	-0.016208	-170.804125	-86.071965	-165.022310
03533	9.714769	-0.201875	-0.688260	0.020279	0.011020	-0.016812	-170.869233	-86.077425	-164.946939
03534	9.618342	-0.207387	-0.714971	0.029046	0.006967	-0.021168	-170.971261	-86.081465	-164.827481
03535	9.646374	-0.173258	-0.691139	0.026758	0.003742	-0.015137	-171.028188	-86.082630	-164.756293
03536	9.663820	-0.174773	-0.707716	0.021939	0.001698	-0.016598	-171.103616	-86.083260	-164.667577
03537	9.750492	-0.148135	-0.692982	0.024005	0.004953	-0.016498	-171.171448	-86.085127	-164.588683
03538	9.698351	-0.137923	-0.641740	0.027112	0.006676	-0.019387	-171.260745	-86.088804	-164.483096
03539	9.712369	-0.119586	-0.629739	0.020853	0.000592	-0.025513	-171.410727	-86.089045	-164.322109
03540	9.709998	-0.084385	-0.672894	0.020271	0.004699	-0.022913	-171.535973	-86.091869	-164.184419
03541	9.703133	-0.043822	-0.615675	0.014992	0.000078	-0.023988	-171.677356	-86.091618	-164.035805
03542	9.714691	0.007780	-0.647114	0.010105	0.008033	-0.025191	-171.823654	-86.096474	-163.882852
03543	9.655480	-0.036094	-0.664442	-0.004400	0.004886	-0.021524	-171.950954	-86.098804	-163.757456
03544	9.697809	-0.024872	-0.728111	-0.013824	0.000072	-0.016720	-172.050285	-86.098422	-163.665323
03545	9.794305	-0.015999	-0.700561	-0.020767	-0.002236	-0.010240	-172.100266	-86.095731	-163.627584
03546	9.815186	-0.037048	-0.745959	-0.015078	0.001638	-0.007592	-172.122517	-86.095508	-163.613429
03547	9.787870	-0.015454	-0.742057	-0.006743	0.004664	-0.007445	-172.134100	-86.096535	-163.606518
03548	9.717732	-0.056600	-0.700870	0.002634	0.006157	-0.010286	-172.163445	-86.099088	-163.575081
03549	9.731717	-0.039637	-0.688603	0.007965	0.007099	-0.003391	-172.129670	-86.101163	-163.604664
03550	9.717843	-0.055899	-0.699387	0.010131	0.009998	0.000570	-172.059841	-86.105042	-163.668326
03551	9.728354	-0.020491	-0.658395	0.001067	0.008113	0.001127	-171.990886	-86.107386	-163.735740
03552	9.687133	-0.016073	-0.665597	-0.005618	0.009094	-0.000498	-171.939819	-86.110827	-163.789641
03553	9.710514	-0.071095	-0.666959	-0.007728	0.002513	0.001364	-171.881237	-86.109892	-163.853576
03554	9.722900	-0.122314	-0.609788	-0.008624	0.007010	0.006250	-171.777961	-86.111593	-163.961533
03555	9.702565	-0.140270	-0.662642	-0.013124	0.004569	0.002507	-171.709747	-86.111784	-164.036262
03556	9.716516	-0.124093	-0.650683	-0.022190	0.002684	0.003061	-171.646026	-86.111277	-164.112363
03557	9.747877	-0.110655	-0.655774	-0.033277	0.000866	0.001549	-171.603183	-86.109461	-164.174140
03558	9.744939	-0.130952	-0.726024	-0.037219	0.000641	0.001277	-171.565527	-86.107938	-164.232746
03559	9.758368	-0.167963	-0.741076	-0.027280	0.004349	0.001915	-171.511706	-86.108024	-164.302895
03560	9.760816	-0.200939	-0.697324	-0.016755	0.003953	-0.000049	-171.469286	-86.108484	-164.354526
03561	9.719591	-0.196326	-0.704725	0.000237	0.009614	-0.002020	-171.425515	-86.111918	-164.397876
03562	9.695811	-0.194390	-0.728783	0.007554	0.007852	-0.004957	-171.405113	-86.115002	-164.413477
03563	9.696383	-0.140830	-0.701073	0.019471	0.008168	-0.000289	-171.337075	-86.117416	-164.470385
03564	9.692948	-0.121634	-0.671627	0.013971	0.010584	-0.003008	-171.293130	-86.121877	-164.505897
03565	9.724359	-0.108118	-0.676030	0.019009	0.005594	0.000093	-171.225609	-86.122741	-164.564146
03566	9.818475	-0.067598	-0.690903	0.014699	0.009443	-0.003716	-171.188471	-86.126613	-164.592417
03567	9.796629	-0.152111	-0.698096	0.009345	0.014823	-0.004538	-171.152971	-86.133194	-164.621797
03568	9.765870	-0.111657	-0.664611	0.008055	0.013750	-0.007309	-171.143991	-86.139819	-164.625661
03569	9.692857	-0.173517	-0.693142	0.013866	0.010944	-0.006873	-171.130036	-86.144344	-164.631351
03570	9.687021	-0.121033	-0.707057	0.016714	0.009378	-0.001654	-171.074233	-86.147992	-164.677172
03571	9.683574	-0.101718	-0.677455	0.014423	0.013159	-0.003401	-171.027271	-86.153401	-164.717063
03572	9.715019	-0.087967	-0.681394	0.012818	0.012475	-0.003889	-170.988189	-86.158997	-164.748363
03573	9.660384	-0.046166	-0.673214	0.012358	0.009901	-0.003504	-170.947564	-86.162628	-164.781926
03574	9.711628	-0.068331	-0.650834	0.008105	0.010066	-0.001492	-170.894007	-86.166641	-164.830439
03575	9.680792	-0.028477	-0.617811	0.003537	0.010622	0.002802	-170.805140	-86.170122	-164.918115
03576	9.708669	0.003823	-0.593456	-0.003049	0.011243	0.005031	-170.700946	-86.174191	-165.023782
03577	9.712285	-0.015769	-0.620836	-0.019528	0.011478	0.004652	-170.607590	-86.178007	-165.127659
03578	9.747255	-0.021866	-0.653537	-0.025845	0.008385	0.006560	-170.507140	-86.180293	-165.242664
03579	9.733401	-0.038663	-0.664431	-0.021180	0.007471	0.006125	-170.407679	-86.181666	-165.353680
03580	9.721880	-0.088623	-0.631970	-0.027356	0.007342	0.009928	-170.280867	-86.183011	-165.495972
03581	9.735369	-0.126434	-0.646436	-0.030107	0.008550	0.008563	-170.164182	-86.184704	-165.630109
03582	9.715175	-0.144722	-0.698994	-0.021360	0.010825	0.010299	-170.025407	-86.187936	-165.780948
03583	9.742584	-0.166287	-0.701548	-0.008498	0.009971	0.008132	-169.897789	-86.190430	-165.913949
03584	9.794698	-0.082736	-0.625514	-0.002271	0.006414	0.010152	-169.755624	-86.191142	-166.057221
03585	9.812213	-0.086332	-0.641420	-0.003784	0.012381	0.005738	-169.640969	-86.195253	-166.172838
03586	9.732058	-0.111066	-0.613441	-0.005894	0.005799	0.007595	-169.523281	-86.195843	-166.293659
03587	9.687276	-0.088238	-0.592497	-0.012485	0.006422	0.009817	-169.389318	-86.196097	-166.436168
03588	9.684540	-0.109340	-0.662288	-0.023573	0.004608	0.008287	-169.277747	-86.195908	-166.561012
03589	9.684560	-0.110067	-0.661883	-0.025497	0.004315	0.010077	-169.152111	-86.194914	-166.702052
03590	9.721780	-0.149639	-0.651875	-0.028294	0.002199	0.010672	-169.027079	-86.193076	-166.843098
03591	9.690400	-0.163959	-0.646570	-0.030633	0.002657	0.010884	-168.899805	-86.191073	-166.986883
03592	9.735213	-0.188222	-0.666622	-0.027935	0.005137	0.006425	-168.805762	-86.191318	-167.096665
03593	9.724877	-0.224293	-0.706339	-0.008552	0.006642	0.010089	-168.667059	-86.191597	-167.241105
03594	9.731738	-0.170539	-0.636490	0.000615	0.015176	0.005636	-168.546125	-86.197539	-167.361443
03595	9.690571	-0.166369	-0.643381	0.005463	0.010908	0.001029	-168.467414	-86.201186	-167.436618
03596	9.698234	-0.151633	-0.672633	0.012517	0.005841	0.006207	-168.350495	-86.201795	-167.546097
03597	9.719788	-0.120780	-0.690524	0.003763	0.003573	0.004457	-168.256675	-86.200869	-167.638788
03598	9.726107	-0.120135	-0.648275	-0.001641	0.005631	0.005587	-168.153450	-86.201407	-167.742674
03599	9.767380	-0.125080	-0.639552	-0.003658	0.005702	0.003519	-168.068175	-86.201831	-167.829615
03600	9.767427	-0.125421	-0.638776	-0.008601	0.010335	0.004266	-167.971580	-86.205140	-167.930851
03601	9.698909	-0.100358	-0.642602	-0.004071	0.006455	0.001941	-167.898862	-86.206165	-168.006142
03602	9.687251	-0.149836	-0.610450	-0.011220	0.004869	0.000681	-167.843767	-86.206827	-168.067291
03603	9.716452	-0.103556	-0.658386	-0.013784	0.005351	0.007032	-167.734243	-86.206591	-168.183419
03604	9.757709	-0.108610	-0.649846	-0.007648	0.002153	0.005199	-167.643942	-86.205168	-168.277799
03605	9.754166	-0.090131	-0.620825	-0.011308	0.007855	0.008717	-167.514914	-86.206077	-168.413399
03606	9.768107	-0.074769	-0.608533	-0.021164	0.003790	0.011906	-167.372833	-86.204707	-168.567435
03607	9.785097	-0.131888	-0.651966	-0.023915	0.005002	0.010539	-167.241029	-86.203757	-168.712908
03608	9.736246	-0.143348	-0.629468	-0.034409	0.008734	0.010510	-167.108948	-86.205279	-168.864528
03609	9.721847	-0.213970	-0.667483	-0.026437	0.008810	0.014925	-166.934268	-86.205858	-169.054142
03610	9.670818	-0.192485	-0.688104	-0.026531	0.009177	0.011065	-166.791928	-86.207501	-169.211520
03611	9.715650	-0.217131	-0.707704	-0.011224	0.007485	0.012569	-166.630853	-86.207579	-169.378861
03612	9.714278	-0.232297	-0.635046	-0.010443	0.009673	0.009908	-166.487820	-86.209596	-169.527694
03613	9.700938	-0.196115	-0.618649	-0.012320	0.012708	0.009737	-166.340524	-86.212877	-169.682529
03614	9.691174	-0.178876	-0.630820	-0.012462	0.009747	0.007836	-166.215559	-86.215169	-169.814413
03615	9.708702	-0.182354	-0.646876	-0.012192	0.006033	0.007512	-166.100515	-86.215031	-169.936792
03616	9.760316	-0.152350	-0.597516	-0.017139	0.010668	0.008255	-165.972559	-86.217740	-170.074360
03617	9.750031	-0.188336	-0.636667	-0.019750	0.014843	0.008786	-165.832656	-86.222313	-170.226011
03618	9.744416	-0.136840	-0.649993	-0.020947	0.013409	0.009867	-165.686973	-86.226273	-170.383529
03619	9.726448	-0.188221	-0.659058	-0.027554	0.014036	0.012069	-165.523787	-86.229852	-170.561549
03620	9.712584	-0.205550	-0.669696	-0.023665	0.010925	0.014306	-165.347118	-86.231736	-170.751680
03621	9.706959	-0.154730	-0.683343	-0.011013	0.010069	0.018314	-165.131107	-86.232131	-170.974508
03622	9.703417	-0.137632	-0.653810	-0.004645	0.009454	0.022245	-164.879863	-86.231931	-171.228454
03623	9.707587	-0.105778	-0.654361	-0.004151	0.008327	0.027675	-164.585298	-86.229827	-171.525897
03624	9.704607	-0.036501	-0.597992	-0.007657	0.003653	0.034770	-164.244877	-86.224325	-171.870945
03625	9.727857	0.005616	-0.687136	-0.020543	0.014162	0.041013	-163.835260	-86.223051	-172.293403
03626	9.721778	0.000671	-0.727345	-0.019538	0.018939	0.044103	-163.388009	-86.224125	-172.752337
03627	9.745611	-0.005452	-0.700432	-0.026157	0.019573	0.046292	-162.924520	-86.224559	-173.231140
03628	9.690618	-0.021500	-0.718302	-0.010105	0.026343	0.051236	-162.393020	-86.227961	-173.769088
03629	9.725777	-0.032435	-0.749837	0.010902	0.015131	0.057123	-161.831293	-86.223526	-174.325708
03630	9.746018	-0.021213	-0.694444	0.019794	0.020329	0.060785	-161.220243	-86.221226	-174.926214
03631	9.781933	0.019642	-0.698487	0.040267	0.026168	0.071435	-160.494626	-86.219236	-175.629359
03632	9.761075	0.034285	-0.650576	0.003355	0.026203	0.074066	-159.769170	-86.216553	-176.353961
03633	9.866476	-0.038067	-0.633276	-0.018042	0.030795	0.078171	-159.010809	-86.214459	-177.124664
03634	9.799302	-0.106416	-0.617914	-0.020379	0.054233	0.080777	-158.157142	-86.224032	-177.991384
03635	9.776701	-0.338237	-0.633784	-0.041093	0.038435	0.075935	-157.404571	-86.225134	-178.768893
03636	9.880838	-0.463766	-0.642518	-0.036635	0.044544	0.073871	-156.642833	-86.229582	-179.552812
03637	9.745698	-0.591611	-0.615751	-0.008967	0.052988	0.068155	-155.880319	-86.238741	179.678444
03638	9.636243	-0.566796	-0.624129	0.008054	0.048918	0.062176	-155.165297	-86.246894	178.967016
03639	9.708333	-0.477974	-0.631726	0.027891	0.046943	0.055626	-154.496070	-86.254680	178.313247
03640	9.819687	-0.407877	-0.558582	0.021751	0.057585	0.045813	-153.862808	-86.270291	177.691634
03641	9.728593	-0.470395	-0.566775	0.015938	0.064139	0.039523	-153.252790	-86.290026	177.089270
03642	9.699335	-0.472206	-0.627556	0.000638	0.063702	0.022245	-152.781787	-86.314062	176.618160
03643	9.676111	-0.471871	-0.646950	-0.008803	0.056339	0.015088	-152.398645	-86.335606	176.229300
03644	9.736464	-0.514762	-0.606212	-0.007471	0.060726	0.015890	-151.983956	-86.359392	175.809987
03645	9.751149	-0.586454	-0.572548	0.002894	0.057670	0.008284	-151.633282	-86.383058	175.459338
03646	9.737428	-0.603394	-0.578675	0.023811	0.060072	0.008710	-151.250375	-86.408130	175.089851
03647	9.741934	-0.483551	-0.590030	0.057496	0.058567	0.005195	-150.879007	-86.432884	174.750800
03648	9.734302	-0.273187	-0.559157	0.073111	0.056388	0.004501	-150.507961	-86.456990	174.421519
03649	9.758274	-0.050083	-0.533541	0.063230	0.052020	0.011441	-150.103158	-86.476407	174.052461
03650	9.780483	0.065913	-0.562308	0.030522	0.058308	0.017984	-149.629122	-86.497288	173.595563
03651	9.743467	0.049673	-0.593570	-0.000188	0.064513	0.026595	-149.068847	-86.518086	173.034960
03652	9.691668	-0.036527	-0.663237	-0.009650	0.072729	0.033377	-148.410514	-86.540900	172.370388
03653	9.695840	-0.059579	-0.684729	0.008218	0.072312	0.048188	-147.618789	-86.558126	171.581050
03654	9.656295	-0.092978	-0.643145	0.041396	0.073785	0.058814	-146.704576	-86.572429	170.689462
03655	9.676239	0.003759	-0.598313	0.068705	0.074415	0.074730	-145.640187	-86.580658	169.662873
03656	9.763436	0.191356	-0.607570	0.087396	0.071387	0.104183	-144.344703	-86.576889	168.415749
03657	9.715101	0.428537	-0.629213	0.080925	0.065477	0.142768	-142.799560	-86.555078	166.914622
03658	9.672093	0.609591	-0.637007	0.085368	0.057971	0.184892	-141.003979	-86.512716	165.165262
03659	9.688743	0.777586	-0.653278	0.097379	0.053848	0.235525	-138.920541	-86.445997	163.133942
03660	9.729348	0.970930	-0.687965	0.111596	0.058551	0.293702	-136.492051	-86.354290	160.765228
03661	9.734186	1.237980	-0.634036	0.112327	0.075434	0.348498	-133.750876	-86.240418	158.083132
03662	9.696953	1.464486	-0.730108	0.071170	0.057496	0.405509	-130.990949	-86.087521	155.358390
03663	9.835671	1.572908	-0.434035	-0.024595	0.042650	0.463301	-128.307759	-85.895044	152.654839
03664	10.345042	1.647017	-0.236354	-0.114155	0.127978	0.486390	-125.283164	-85.712216	149.557050
03665	10.250975	1.294725	-0.296899	-0.127815	0.192634	0.492609	-122.105180	-85.534954	146.296730
03666	9.937868	0.762184	-0.111712	-0.118881	0.177361	0.512992	-119.194478	-85.330221	143.308944
03667	9.763008	0.218445	0.009314	-0.141330	0.160469	0.564491	-116.503910	-85.083620	140.528092
03668	9.905568	-0.003684	-0.331197	-0.180137	0.134013	0.638788	-114.057420	-84.781739	137.968909
03669	10.181970	0.248756	-0.753784	-0.244932	0.136513	0.690547	-111.802251	-84.444302	135.563193
03670	10.193149	0.628631	-0.916095	-0.300026	0.134379	0.723584	-109.792055	-84.080340	133.370631
03671	10.258191	0.740915	-0.810228	-0.331576	0.122786	0.752144	-108.061110	-83.692105	131.439120
03672	10.192862	0.475853	-0.530443	-0.421608	0.124578	0.785878	-106.534620	-83.279713	129.660102
03673	10.138881	-0.528754	-0.555245	-0.482847	0.097116	0.813229	-105.327062	-82.843667	128.165314
03674	10.329689	-1.501042	-0.277211	-0.186867	0.108008	0.843851	-104.029275	-82.387959	126.749235
03675	10.791002	-1.618052	-0.478010	-0.105575	0.120691	0.874956	-102.765918	-81.913099	125.413233
03676	11.199185	-1.877594	-0.837630	-0.010152	0.189840	0.884774	-101.325060	-81.436361	123.951678
03677	11.002427	-1.949589	0.090523	0.396315	0.255812	0.873844	-99.586644	-80.967413	122.422706
03678	10.660553	-1.443486	0.803395	0.501469	0.242743	0.889522	-97.985146	-80.481363	121.091649
03679	10.402046	-1.352219	0.505612	0.447179	0.198173	0.928844	-96.688003	-79.964932	120.035746
03680	10.328401	-0.848323	0.182080	0.403402	0.169496	0.955122	-95.607907	-79.427675	119.173395
03681	10.315665	-0.421760	-0.366693	0.274353	0.144256	0.923484	-94.777098	-78.905207	118.487910
03682	10.142779	-0.101229	-0.391105	0.245629	0.168375	0.834811	-93.978754	-78.432132	117.817753
03683	9.655557	-0.431554	0.429616	0.345969	0.227559	0.723393	-93.040996	-78.023540	117.062661
03684	9.290691	-1.085939	1.272375	0.449007	0.212033	0.571456	-92.155279	-77.698477	116.420357
03685	9.309865	-1.341923	1.113428	0.347206	0.223428	0.371761	-91.351597	-77.486723	115.801468
03686	8.895780	-1.162073	0.635315	0.275888	0.243360	0.196679	-90.564868	-77.372933	115.157894
03687	8.477617	-0.522357	0.637771	0.287308	0.140264	0.032868	-90.047845	-77.351839	114.797060
03688	8.665471	0.032105	0.814694	0.215733	0.007347	-0.163018	-89.910544	-77.441814	114.783548
03689	9.034501	0.052302	0.965277	0.128805	-0.022941	-0.377446	-89.901156	-77.655495	114.849826
03690	9.110365	-0.305219	1.066786	0.061820	0.001765	-0.562541	-89.863504	-77.974381	114.848062
