// General information: 
//  MT Manager version: 2022.2.0 
//  XDA version: 2022.2.0 build 7381 rev 124627 built on 2023-07-19
// Device information: 
//  DeviceId: 00B4BB4E
//  ProductCode: MTW2-3A7G6
//  Firmware Version: 4.6.0
//  Hardware Version: 2.0.0
// Device settings: 
//  Filter Profile: human(46.1)
//  Option Flags: Orientation Smoother Disabled, Position/Velocity Smoother Disabled, Continuous Zero Rotation Update Disabled, AHS Disabled, ICC Disabled
// Coordinate system: ENU
PacketCounter	Acc_X	Acc_Y	Acc_Z	Gyr_X	Gyr_Y	Gyr_Z	Roll	Pitch	Yaw
59431	9.672806	-0.615347	-0.699871	-0.010149	-0.044021	-0.062460	-136.281696	-85.117294	-148.441240
59432	9.723249	-0.478268	-0.724164	-0.027177	-0.041334	-0.047781	-136.700975	-85.115484	-148.035693
59433	9.603450	-0.420829	-0.739677	-0.039762	-0.035065	-0.037139	-137.046514	-85.112156	-147.711265
59434	9.608971	-0.328773	-0.655875	-0.045639	-0.043490	-0.038300	-137.438720	-85.105297	-147.343499
59435	9.763858	-0.275973	-0.548161	-0.063280	-0.028059	-0.048518	-137.821415	-85.108964	-146.995300
59436	9.838365	-0.160634	-0.557943	-0.047985	-0.020987	-0.038332	-138.113394	-85.111307	-146.729469
59437	9.741248	-0.019585	-0.521997	-0.066841	-0.018783	-0.024877	-138.339323	-85.109604	-146.540658
59438	9.600636	-0.100984	-0.532983	-0.121101	-0.019878	-0.010977	-138.531484	-85.101857	-146.417040
59439	9.584249	-0.291498	-0.681222	-0.164602	-0.020489	0.000175	-138.694743	-85.089823	-146.347344
59440	9.543749	-0.425296	-0.783302	-0.243827	-0.012275	0.006636	-138.834702	-85.078652	-146.346684
59441	9.601803	-0.801677	-0.962684	-0.209161	-0.024642	0.009372	-138.994474	-85.061330	-146.306109
59442	9.758726	-0.805330	-0.803768	-0.113923	-0.030291	-0.002664	-139.183981	-85.045834	-146.181011
59443	9.891236	-0.806261	-0.685730	-0.050646	-0.011790	0.001611	-139.235023	-85.036974	-146.158410
59444	9.933912	-0.656611	-0.756332	0.017614	-0.005445	0.009745	-139.179261	-85.027576	-146.203859
59445	9.871080	-0.212329	-0.741379	0.050752	-0.014616	0.023330	-139.076449	-85.009352	-146.277378
59446	9.924155	-0.046873	-0.562283	0.003549	-0.020469	0.026468	-139.011242	-84.987162	-146.340397
59447	9.937826	-0.156339	-0.580608	-0.087118	-0.011993	0.027663	-138.956007	-84.968426	-146.445458
59448	9.719532	-0.371656	-0.754899	-0.163828	-0.002707	0.045296	-138.820125	-84.946815	-146.675689
59449	9.603644	-0.637854	-0.880999	-0.151273	-0.016750	0.056870	-138.681898	-84.914960	-146.900978
59450	9.563789	-0.670399	-0.806179	-0.079221	-0.020355	0.047782	-138.564290	-84.884721	-147.064214
59451	9.590012	-0.730366	-0.715045	-0.073997	-0.008271	0.044643	-138.408555	-84.861055	-147.262648
59452	9.524877	-0.811578	-0.769928	-0.065278	-0.000281	0.043413	-138.222162	-84.840984	-147.486943
59453	9.470279	-0.824635	-0.824557	-0.054660	0.000987	0.047489	-138.006116	-84.820063	-147.734822
59454	9.460136	-0.844054	-0.735849	-0.040852	-0.008230	0.037742	-137.869092	-84.798640	-147.895516
59455	9.472110	-0.848591	-0.716051	-0.060503	-0.008148	0.026163	-137.797302	-84.781933	-148.001918
59456	9.530554	-0.859045	-0.752888	-0.136392	-0.008247	0.015707	-137.818877	-84.768937	-148.058337
59457	9.590257	-0.972238	-0.828283	-0.162523	0.004979	-0.010829	-137.922442	-84.772032	-148.047353
59458	9.596973	-1.092226	-0.618712	-0.226508	-0.009066	-0.037915	-138.248343	-84.779218	-147.850034
59459	9.648777	-1.548505	-0.555131	-0.251180	-0.013974	-0.062298	-138.723987	-84.793716	-147.516433
59460	9.817987	-1.827633	-0.714133	-0.128628	-0.003486	-0.077409	-139.160370	-84.817883	-147.151893
59461	10.007481	-1.690645	-0.670980	0.028180	-0.000761	-0.098948	-139.603337	-84.851323	-146.690414
59462	9.958829	-1.358614	-0.495361	0.114734	0.002407	-0.134087	-140.161662	-84.898411	-146.063518
59463	9.709853	-0.973770	-0.766024	0.065697	-0.000407	-0.146908	-140.835716	-84.948671	-145.348526
59464	9.591489	-0.784233	-0.907401	0.063595	-0.029460	-0.146945	-141.641973	-84.984777	-144.502257
59465	9.671463	-0.747457	-0.784037	0.042311	-0.034950	-0.158906	-142.557741	-85.021856	-143.558167
59466	9.713512	-0.947303	-0.801793	0.009112	-0.020166	-0.165107	-143.479813	-85.066136	-142.627089
59467	9.604817	-0.967288	-0.741425	0.041483	-0.010512	-0.182250	-144.456936	-85.119706	-141.622023
59468	9.641132	-0.867205	-0.670264	0.055617	-0.018262	-0.202006	-145.586235	-85.174143	-140.456387
59469	9.691647	-0.662544	-0.599276	0.037901	-0.018648	-0.219243	-146.853666	-85.232206	-139.162215
59470	9.643419	-0.651227	-0.715101	0.028499	-0.028823	-0.229911	-148.255579	-85.285697	-137.738818
59471	9.756049	-0.574132	-0.948910	0.023243	-0.017445	-0.228821	-149.647276	-85.341958	-136.328598
59472	9.801663	-0.366137	-1.018125	0.008625	-0.009063	-0.229028	-151.050752	-85.399225	-134.915289
59473	9.759277	-0.372632	-0.882310	-0.026536	-0.011460	-0.238661	-152.581243	-85.455344	-133.394670
59474	9.633338	-0.593025	-0.940967	-0.042600	0.001350	-0.251308	-154.197655	-85.517521	-131.797432
59475	9.542451	-0.608543	-0.917455	0.004367	0.009205	-0.266006	-155.909344	-85.584051	-130.077566
59476	9.559562	-0.447005	-0.716323	0.023593	0.007982	-0.257916	-157.604774	-85.643703	-128.363324
59477	9.647628	-0.329076	-0.589262	0.026370	0.010379	-0.256774	-159.333135	-85.700850	-126.614377
59478	9.735969	-0.350141	-0.500753	0.025857	0.017510	-0.249134	-161.029609	-85.755993	-124.898048
59479	9.843770	-0.408008	-0.708801	0.066998	0.040661	-0.240297	-162.629690	-85.818846	-123.254649
59480	9.857904	-0.264749	-0.874275	0.127290	0.041387	-0.239367	-164.230169	-85.878176	-121.576563
59481	9.905508	0.065104	-0.849047	0.169467	0.039463	-0.240759	-165.871851	-85.933550	-119.832842
59482	9.945404	0.343709	-0.994605	0.119388	0.042104	-0.242511	-167.592361	-85.986589	-118.039196
59483	9.921136	0.282139	-0.981484	0.070002	0.046834	-0.232414	-169.302120	-86.037671	-116.284590
59484	9.855223	0.173044	-0.860200	0.050256	0.058459	-0.234282	-171.062608	-86.091425	-114.490789
59485	9.654355	0.007409	-0.888120	0.009291	0.067772	-0.224141	-172.803880	-86.146207	-112.739686
59486	9.609482	-0.052913	-0.774720	-0.025735	0.059878	-0.221033	-174.588884	-86.192277	-110.965168
59487	9.702979	-0.022979	-0.851130	-0.061285	0.066194	-0.226136	-176.482139	-86.238691	-109.102473
59488	9.789213	0.008695	-1.006944	-0.083293	0.082242	-0.230269	-178.460170	-86.289881	-107.167759
59489	9.795058	-0.019835	-0.947916	-0.101202	0.083486	-0.238995	179.415455	-86.337605	-105.096593
59490	9.779589	-0.063025	-0.820518	-0.139670	0.085002	-0.242331	177.191445	-86.380724	-102.947975
59491	9.689727	-0.220280	-0.768578	-0.177890	0.094194	-0.253251	174.782875	-86.423426	-100.636282
59492	9.576172	-0.374792	-0.758889	-0.180474	0.099266	-0.262248	172.237633	-86.461814	-98.189437
59493	9.575248	-0.434921	-0.640013	-0.171482	0.100186	-0.271418	169.555103	-86.493219	-95.599776
59494	9.606889	-0.531025	-0.598126	-0.159540	0.107879	-0.285575	166.698777	-86.519271	-92.829433
59495	9.655138	-0.557178	-0.674046	-0.120895	0.117701	-0.291222	163.744095	-86.541597	-89.938229
59496	9.673440	-0.458914	-0.781358	-0.055310	0.122562	-0.297684	160.732185	-86.556091	-86.952334
59497	9.727620	-0.174534	-0.673916	-0.009206	0.120349	-0.305014	157.664226	-86.558543	-83.883623
59498	9.782226	0.145304	-0.565904	-0.005719	0.121204	-0.316144	154.513133	-86.548695	-80.729856
59499	9.697127	0.250692	-0.501752	-0.056756	0.119163	-0.320342	151.325153	-86.526367	-77.568134
59500	9.745982	0.316189	-0.685527	-0.108294	0.114956	-0.323030	148.166709	-86.490548	-74.465732
59501	9.815319	0.414952	-0.766532	-0.132990	0.120765	-0.324677	145.013745	-86.446700	-71.382623
59502	9.796961	0.448258	-0.715372	-0.165730	0.128027	-0.322427	141.911756	-86.396624	-68.369465
59503	9.804908	0.411164	-0.681730	-0.185857	0.131874	-0.322174	138.860057	-86.338326	-65.417835
59504	9.789183	0.375546	-0.689969	-0.194287	0.142417	-0.312253	135.912785	-86.278625	-62.575730
59505	9.745473	0.511546	-0.617534	-0.176125	0.151908	-0.305832	133.042989	-86.216114	-59.800406
59506	9.654616	0.767404	-0.456747	-0.209894	0.151218	-0.299346	130.301268	-86.147358	-57.172858
59507	9.685156	0.920017	-0.565249	-0.280130	0.138068	-0.295432	127.717187	-86.067461	-54.743185
59508	9.801456	1.080542	-0.412909	-0.315207	0.140837	-0.295121	125.208834	-85.981491	-52.409548
59509	9.809523	1.075497	-0.374970	-0.366935	0.144198	-0.299147	122.728440	-85.887610	-50.133175
59510	9.876975	1.035234	-0.371552	-0.415151	0.137199	-0.291915	120.413702	-85.788600	-48.050523
59511	9.933113	0.876298	-0.423940	-0.453468	0.140568	-0.282541	118.184972	-85.689177	-46.075661
59512	9.864441	0.721473	-0.491009	-0.477605	0.145576	-0.281663	116.016445	-85.586082	-44.174977
59513	9.732890	0.639573	-0.603364	-0.477562	0.150081	-0.280045	113.911178	-85.479449	-42.337260
59514	9.611546	0.606672	-0.662654	-0.465061	0.157899	-0.277607	111.867869	-85.370893	-40.554430
59515	9.660815	0.615555	-0.589712	-0.437937	0.159906	-0.287980	109.885354	-85.252087	-38.816529
59516	9.777532	0.629610	-0.608743	-0.441509	0.163312	-0.288982	107.976033	-85.128809	-37.154022
59517	9.792494	0.619884	-0.490031	-0.471553	0.164480	-0.304461	106.097370	-84.992497	-35.539052
59518	9.878304	0.404735	-0.398040	-0.485815	0.155395	-0.321867	104.339172	-84.841080	-34.053065
59519	10.000212	-0.046460	-0.151125	-0.426300	0.156370	-0.334890	102.678490	-84.678433	-32.630198
59520	10.020897	-0.302017	0.025346	-0.328424	0.166410	-0.343508	101.102539	-84.508830	-31.235940
59521	9.926536	-0.376123	-0.111054	-0.246234	0.163629	-0.355198	99.661545	-84.328643	-29.929345
59522	9.827522	-0.186294	-0.085615	-0.154390	0.146946	-0.359022	98.452026	-84.142297	-28.802344
59523	9.750735	0.261360	-0.026370	-0.124426	0.114013	-0.386661	97.483727	-83.935128	-27.899966
59524	9.781891	0.658495	0.050581	-0.140505	0.086829	-0.402729	96.704151	-83.715971	-27.196597
59525	9.840708	1.031905	0.219705	-0.192779	0.078903	-0.412754	95.974779	-83.489146	-26.573308
59526	9.792895	1.271134	0.323503	-0.272774	0.068084	-0.428906	95.295212	-83.252166	-26.046291
59527	9.677908	1.643386	0.473169	-0.380681	0.044957	-0.447496	94.692131	-83.002252	-25.658043
59528	9.676909	2.039855	0.592076	-0.529852	0.011525	-0.477417	94.183011	-82.733814	-25.450674
59529	9.828394	2.324833	0.845050	-0.742391	-0.010287	-0.503754	93.662719	-82.448754	-25.354445
59530	9.979032	2.211706	1.069264	-1.012556	-0.004883	-0.513859	92.990984	-82.158416	-25.261764
59531	9.909293	1.733048	1.018669	-1.318130	0.000637	-0.484774	92.154532	-81.884289	-25.179256
59532	9.846456	1.042351	0.572424	-1.518365	-0.027043	-0.443876	91.349944	-81.633364	-25.245022
59533	9.966251	0.542563	0.227279	-1.463536	-0.056270	-0.383351	90.710379	-81.416543	-25.445700
59534	10.104749	0.544987	0.038444	-1.194896	-0.037722	-0.304683	90.169597	-81.245632	-25.590933
59535	9.972081	1.630465	-0.037492	-1.021825	0.000185	-0.185039	89.593246	-81.143003	-25.599655
59536	9.789158	3.392923	-0.570663	-1.219627	-0.035928	-0.034606	89.038174	-81.127293	-25.744853
59537	9.665318	4.795570	-0.837660	-1.583328	-0.092039	0.120824	88.468381	-81.201064	-26.085794
59538	9.765424	5.636721	-0.478134	-2.057084	-0.126781	0.281589	87.738807	-81.368448	-26.539746
59539	9.823658	5.509855	-0.086749	-2.721707	-0.117021	0.444681	86.550045	-81.629694	-26.914030
59540	9.689581	4.472137	-0.402759	-3.552072	-0.096482	0.594179	84.727911	-81.976853	-27.128822
59541	9.492904	2.586983	-1.277941	-4.181703	-0.139007	0.694250	82.595246	-82.384465	-27.394080
59542	9.347683	0.821700	-1.799755	-4.408798	-0.220589	0.734345	80.567554	-82.822598	-27.896112
59543	9.250945	-0.660202	-2.041147	-4.336172	-0.295332	0.730770	78.839844	-83.268329	-28.657966
59544	9.168622	-1.602915	-1.767491	-3.984346	-0.318031	0.690803	77.415257	-83.696693	-29.521368
59545	8.964971	-2.161255	-1.193867	-3.568482	-0.315187	0.633115	76.246520	-84.094614	-30.401723
59546	8.814348	-2.565189	-0.923946	-3.184234	-0.299866	0.591793	75.262651	-84.469287	-31.246141
59547	8.883978	-2.576393	-0.915099	-2.808811	-0.334727	0.590536	74.700675	-84.849374	-32.297569
59548	9.103739	-2.472667	-1.315511	-2.499678	-0.400323	0.585321	74.815503	-85.237226	-33.850178
59549	9.305515	-1.693076	-1.577198	-2.103261	-0.449704	0.520145	75.780123	-85.594529	-36.026340
59550	9.796015	-0.887254	-0.640109	-1.575531	-0.412699	0.409764	77.244867	-85.882134	-38.400228
59551	9.984908	-0.819255	1.469165	-0.976912	-0.258619	0.313730	78.212012	-86.092866	-39.930359
59552	9.420291	-1.098694	2.339796	-0.692624	-0.160914	0.287364	78.695565	-86.276767	-40.812623
59553	8.965255	-1.084374	1.336620	-0.735152	-0.227933	0.314100	79.780396	-86.481530	-42.321182
59554	9.220428	-0.567651	0.189145	-0.720071	-0.331519	0.333247	82.034951	-86.704287	-44.992946
59555	9.862089	0.521600	0.755368	-0.356888	-0.313875	0.322664	84.665498	-86.912313	-47.831881
59556	10.100366	1.538281	1.845707	-0.030283	-0.204897	0.267318	86.690809	-87.077958	-49.877281
59557	9.868677	2.411779	2.186478	0.091197	-0.108627	0.177198	87.910348	-87.185751	-51.045538
59558	9.600163	3.043400	1.817561	0.043695	-0.049631	0.084491	88.524089	-87.238890	-51.634794
59559	9.466428	3.543168	1.709981	-0.018187	-0.013502	-0.005983	88.700012	-87.239068	-51.820862
59560	9.397431	3.676576	1.860990	-0.045583	-0.000913	-0.120882	88.750521	-87.173501	-51.897329
59561	9.464801	3.481724	2.102537	0.005748	0.001310	-0.253940	88.823200	-87.031435	-51.966311
59562	9.783828	2.839143	2.046198	0.041536	0.073840	-0.335741	88.179607	-86.841490	-51.297599
59563	9.885686	2.117939	1.553721	-0.014382	0.207251	-0.251922	86.215076	-86.694939	-49.337702
59564	9.652478	1.813815	-0.086911	-0.238923	0.272877	-0.027261	83.437569	-86.668695	-46.692207
59565	9.522182	1.605359	-2.632759	-0.418250	0.158137	0.173894	81.418858	-86.759054	-44.909713
59566	9.713490	1.367840	-3.542801	-0.291764	0.018488	0.221070	80.728862	-86.885968	-44.385632
59567	9.991911	1.107700	-2.429242	-0.087141	0.014156	0.126365	80.321082	-86.959592	-44.026771
59568	10.074712	0.546675	-1.250653	-0.032974	0.094729	0.024405	79.271556	-86.967180	-42.994287
59569	9.588502	-0.553371	-0.873332	-0.003704	0.179358	-0.002176	77.390584	-86.948740	-41.112294
59570	9.214142	-1.543176	-0.695464	0.262482	0.136081	-0.004759	76.153331	-86.931795	-39.722301
59571	9.354993	-1.657880	-0.261135	0.605950	0.080372	-0.029745	75.754579	-86.907670	-38.974793
59572	9.866910	-1.002654	0.465343	0.831167	0.088010	-0.042235	75.461156	-86.875420	-38.203704
59573	10.072213	0.050795	1.237853	0.857318	0.135012	-0.032810	74.685052	-86.840919	-36.933993
59574	10.033453	1.152851	1.698965	0.708624	0.152523	-0.018172	73.641936	-86.810860	-35.482341
59575	9.985658	2.112102	1.731413	0.377218	0.133253	-0.010598	72.587321	-86.786472	-34.209117
59576	9.775225	2.661833	1.356697	-0.083671	0.095664	-0.013543	71.667179	-86.766002	-33.335177
59577	9.755959	2.421710	0.647471	-0.520690	0.053739	-0.018012	70.914291	-86.749955	-32.879401
59578	9.837009	1.669159	0.138305	-0.805702	0.042280	-0.018776	70.124048	-86.735337	-32.549836
59579	9.870536	0.605039	-0.212387	-0.921586	0.060805	-0.032170	69.137740	-86.709535	-32.090315
59580	9.831229	-0.406689	-0.494702	-0.839003	0.059321	-0.029258	68.221960	-86.685139	-31.654089
59581	9.820320	-1.174533	-0.652033	-0.590479	0.055139	-0.037658	67.518379	-86.656853	-31.287717
59582	9.832226	-1.471797	-0.657793	-0.225458	0.063363	-0.038685	66.971370	-86.626054	-30.868780
59583	9.860719	-1.360119	-0.510457	0.140915	0.081989	-0.036115	66.458848	-86.592075	-30.273986
59584	9.767041	-0.838419	-0.259852	0.417339	0.101738	-0.032787	65.939020	-86.555195	-29.513356
59585	9.700296	-0.098242	-0.066285	0.580892	0.098143	-0.025027	65.517724	-86.522602	-28.757363
59586	9.798531	0.676070	0.210119	0.617722	0.087286	-0.018320	65.202243	-86.496126	-28.086416
59587	9.845413	1.287974	0.381893	0.537502	0.090203	-0.003429	64.756351	-86.476077	-27.330645
59588	9.769477	1.599080	0.465613	0.386994	0.091907	0.002409	64.201863	-86.458529	-26.552642
59589	9.736406	1.642730	0.558113	0.212969	0.084086	-0.000470	63.622671	-86.440686	-25.849586
59590	9.704222	1.447723	0.538444	0.042912	0.081228	0.002362	62.972705	-86.424808	-25.173385
59591	9.766823	1.095499	0.408737	-0.067953	0.082603	0.007905	62.222317	-86.410621	-24.460046
59592	9.824330	0.683194	0.272413	-0.106510	0.084451	0.018507	61.403310	-86.400889	-23.700208
59593	9.719877	0.346834	0.126297	-0.104045	0.083355	0.019541	60.585807	-86.391083	-22.940324
59594	9.688408	0.174379	-0.011491	-0.031344	0.074780	0.020619	59.884997	-86.383848	-22.255753
59595	9.680746	0.164491	0.063864	0.052113	0.074005	0.020409	59.233481	-86.375991	-21.572523
59596	9.720910	0.237290	0.171582	0.131627	0.076581	0.016605	58.636797	-86.365308	-20.898725
59597	9.662941	0.356729	0.308396	0.164353	0.082663	0.006503	58.056149	-86.347155	-20.222049
59598	9.737451	0.444188	0.368535	0.154306	0.069053	0.005084	57.593451	-86.332374	-19.669474
59599	9.765405	0.504969	0.437007	0.108161	0.067550	-0.001719	57.144608	-86.314192	-19.157114
59600	9.797904	0.597717	0.492012	0.038525	0.065244	-0.008157	56.716854	-86.293698	-18.706009
59601	9.827644	0.579851	0.464658	-0.006308	0.062256	-0.010199	56.292453	-86.272644	-18.283842
59602	9.774828	0.466928	0.451828	-0.056065	0.053950	-0.014103	55.931254	-86.252507	-17.953720
59603	9.703406	0.356534	0.348735	-0.084497	0.044077	-0.015490	55.627753	-86.234460	-17.697589
59604	9.721067	0.297005	0.261516	-0.060908	0.051592	-0.018354	55.308307	-86.212845	-17.412078
59605	9.605809	0.271282	0.249606	-0.016106	0.047953	-0.030302	55.095153	-86.186394	-17.207209
59606	9.678824	0.306624	0.266250	0.014867	0.040721	-0.033151	54.974207	-86.161277	-17.077120
59607	9.683264	0.341459	0.256997	0.024632	0.046552	-0.035276	54.823358	-86.132884	-16.911291
59608	9.711015	0.374993	0.162934	0.056811	0.043481	-0.041924	54.753546	-86.102728	-16.808362
59609	9.718743	0.417480	0.259700	0.090814	0.046187	-0.038812	54.664119	-86.072766	-16.666079
59610	9.729993	0.435752	0.301874	0.105133	0.048452	-0.031977	54.543353	-86.045600	-16.484322
59611	9.758326	0.555230	0.409887	0.119704	0.052899	-0.029740	54.385681	-86.017591	-16.257028
59612	9.720775	0.594209	0.395858	0.126383	0.046899	-0.029478	54.279787	-85.992054	-16.077963
59613	9.730347	0.588204	0.556962	0.117579	0.039285	-0.026434	54.199658	-85.970078	-15.929610
59614	9.787017	0.577368	0.548084	0.105238	0.036386	-0.017225	54.095573	-85.953714	-15.764490
59615	9.732190	0.672399	0.484113	0.102967	0.037752	-0.014568	53.963192	-85.937720	-15.572141
59616	9.665158	0.696683	0.340794	0.096588	0.027985	-0.016386	53.906910	-85.924527	-15.459903
59617	9.702545	0.691133	0.381316	0.089227	0.019987	-0.019151	53.905367	-85.912377	-15.406609
59618	9.693080	0.630537	0.410201	0.061563	0.020309	-0.017906	53.886738	-85.901061	-15.352232
59619	9.630451	0.558932	0.396382	0.035110	0.014334	-0.017709	53.884221	-85.891487	-15.329047
59620	9.645116	0.523590	0.360905	0.028709	0.018737	-0.022456	53.878583	-85.878593	-15.306565
59621	9.686729	0.522073	0.367458	0.036155	0.021109	-0.027740	53.880323	-85.862088	-15.287046
59622	9.702819	0.599121	0.413733	0.021943	0.019884	-0.028601	53.892269	-85.845967	-15.286080
59623	9.705050	0.582224	0.500955	0.010861	0.012566	-0.028788	53.938748	-85.831860	-15.325949
59624	9.693512	0.569896	0.464122	-0.025416	0.008224	-0.026805	53.988972	-85.820499	-15.390566
59625	9.705430	0.526997	0.322451	-0.021779	0.015020	-0.029738	54.005062	-85.805121	-15.418719
59626	9.595006	0.532779	0.292756	0.012017	0.011870	-0.038433	54.106224	-85.787134	-15.512909
59627	9.669588	0.494015	0.350425	0.026414	-0.006690	-0.042610	54.344086	-85.773036	-15.735749
59628	9.749361	0.542739	0.434192	0.024842	-0.003647	-0.042953	54.568278	-85.758069	-15.945944
59629	9.718619	0.565755	0.466793	0.032113	-0.002326	-0.037637	54.756803	-85.744726	-16.116045
59630	9.702886	0.550915	0.462593	0.027264	-0.002829	-0.033656	54.933350	-85.733740	-16.277077
59631	9.731300	0.610803	0.383601	0.020200	-0.010535	-0.032594	55.142451	-85.725377	-16.474660
59632	9.726883	0.610522	0.416921	0.023920	-0.002636	-0.029536	55.296190	-85.716190	-16.614744
59633	9.704949	0.666814	0.401229	0.010928	-0.012027	-0.023039	55.466494	-85.712731	-16.778753
59634	9.671750	0.707545	0.347345	-0.004010	-0.011207	-0.021060	55.620606	-85.710265	-16.935259
59635	9.724540	0.692505	0.368539	-0.012540	-0.014771	-0.014330	55.756888	-85.711747	-17.078636
59636	9.697442	0.632485	0.305207	-0.013888	-0.016261	-0.016681	55.918463	-85.712919	-17.248297
59637	9.650811	0.579000	0.292628	0.001241	-0.011186	-0.023471	56.079094	-85.708852	-17.408173
59638	9.657302	0.537164	0.322721	0.015663	-0.014463	-0.024638	56.279968	-85.705591	-17.600267
59639	9.701469	0.487946	0.391319	0.032682	-0.017702	-0.018705	56.479317	-85.705786	-17.780906
59640	9.670887	0.508730	0.422937	0.021207	-0.009295	-0.017452	56.619844	-85.704244	-17.909300
59641	9.683934	0.576492	0.359712	0.013224	-0.018983	-0.017145	56.809665	-85.705510	-18.091564
59642	9.734835	0.664929	0.355122	-0.000559	-0.020730	-0.016403	57.006352	-85.707992	-18.288783
59643	9.776415	0.634755	0.337642	-0.033125	-0.022096	-0.017120	57.189758	-85.710147	-18.491243
59644	9.756678	0.614493	0.366642	-0.040919	-0.010630	-0.018609	57.307928	-85.708346	-18.632912
59645	9.713842	0.508377	0.280190	-0.040319	-0.005224	-0.021837	57.398191	-85.702944	-18.746102
59646	9.735492	0.429080	0.274050	-0.039367	-0.011829	-0.026693	57.557703	-85.697571	-18.928341
59647	9.678063	0.417012	0.264769	-0.025495	-0.007128	-0.029842	57.700626	-85.688838	-19.085825
59648	9.673804	0.416387	0.297773	-0.003915	-0.016835	-0.029110	57.921393	-85.683758	-19.309131
59649	9.731260	0.461986	0.324828	0.020705	-0.018455	-0.030689	58.165803	-85.677963	-19.541848
59650	9.740072	0.555662	0.315709	0.040000	-0.016359	-0.030055	58.411235	-85.672154	-19.764664
59651	9.683409	0.655545	0.386592	0.022623	-0.018245	-0.028970	58.647337	-85.666987	-19.987950
59652	9.684966	0.737333	0.304955	0.014646	-0.027946	-0.028669	58.946593	-85.665150	-20.279316
59653	9.696731	0.839257	0.400304	-0.012315	-0.041340	-0.033419	59.328779	-85.664405	-20.669181
59654	9.753566	0.801273	0.364368	-0.063419	-0.042094	-0.031772	59.687024	-85.664866	-21.064558
59655	9.779139	0.670096	0.281067	-0.062443	-0.028592	-0.027794	59.935629	-85.662888	-21.349264
59656	9.679490	0.605390	0.225283	-0.064916	-0.022695	-0.023086	60.133218	-85.661829	-21.584381
59657	9.685956	0.507469	0.214064	-0.045620	-0.020580	-0.022467	60.318580	-85.660064	-21.795996
59658	9.701143	0.500199	0.195617	-0.019643	-0.020673	-0.021716	60.523557	-85.659006	-22.012512
59659	9.738873	0.495294	0.232709	0.018632	-0.012994	-0.024443	60.702809	-85.654014	-22.181081
59660	9.719815	0.559333	0.322688	0.043103	-0.013783	-0.023838	60.905774	-85.649874	-22.359532
59661	9.697336	0.587349	0.285842	0.053278	-0.018817	-0.021668	61.132342	-85.647799	-22.555647
59662	9.655886	0.677104	0.339650	0.050128	-0.028010	-0.025382	61.438181	-85.646693	-22.833235
59663	9.781620	0.696919	0.370736	0.029819	-0.028381	-0.026961	61.733125	-85.644412	-23.111406
59664	9.792759	0.686734	0.385576	0.000030	-0.023901	-0.025321	61.982377	-85.642013	-23.361030
59665	9.758809	0.699524	0.311029	-0.028901	-0.013705	-0.023096	62.132019	-85.637574	-23.527220
59666	9.693707	0.619259	0.188392	-0.040235	-0.028084	-0.024473	62.382475	-85.636586	-23.801188
59667	9.704834	0.608984	0.203686	-0.040084	-0.022190	-0.029283	62.602956	-85.631152	-24.044851
59668	9.715655	0.542968	0.178774	-0.022090	-0.016703	-0.025207	62.790006	-85.626647	-24.244806
59669	9.696312	0.551189	0.228353	0.005249	-0.008577	-0.024716	62.929126	-85.619866	-24.380824
59670	9.688363	0.574746	0.315981	0.025429	-0.009288	-0.029172	63.106584	-85.611335	-24.543860
59671	9.765011	0.642539	0.313107	0.027208	-0.008278	-0.025235	63.257065	-85.604152	-24.678656
59672	9.742058	0.614823	0.236854	0.018372	-0.001765	-0.025049	63.365464	-85.595737	-24.776489
59673	9.746012	0.648660	0.222595	0.014856	-0.005637	-0.024514	63.488035	-85.588203	-24.890393
59674	9.715229	0.642023	0.234895	0.009055	-0.006300	-0.029692	63.635770	-85.578536	-25.033037
59675	9.703666	0.629610	0.196492	0.015930	-0.004449	-0.025965	63.754919	-85.569914	-25.142894
59676	9.692208	0.645066	0.178696	0.027695	0.000877	-0.028657	63.861318	-85.558923	-25.233370
59677	9.714698	0.650446	0.233681	0.036600	-0.002685	-0.031255	63.996785	-85.547100	-25.347719
59678	9.737181	0.656019	0.288531	0.026909	-0.001901	-0.031651	64.129692	-85.535238	-25.465239
59679	9.710352	0.653050	0.266943	0.028189	-0.003348	-0.026896	64.249537	-85.525788	-25.568757
59680	9.740883	0.692766	0.273563	0.034062	-0.006419	-0.021536	64.383130	-85.520234	-25.682856
59681	9.729513	0.735507	0.275695	0.030243	-0.002020	-0.019160	64.470185	-85.514421	-25.752304
59682	9.748730	0.787453	0.264992	0.023645	-0.003567	-0.019085	64.570829	-85.509400	-25.839341
59683	9.714002	0.748367	0.291431	0.008997	-0.002519	-0.013238	64.630104	-85.506758	-25.893136
59684	9.733065	0.715877	0.220186	-0.006206	-0.002100	-0.014996	64.690998	-85.503473	-25.957454
59685	9.728832	0.630297	0.193551	-0.012085	0.000964	-0.020361	64.737249	-85.496281	-26.010301
59686	9.698023	0.566891	0.166212	0.007630	0.002667	-0.018192	64.784476	-85.490171	-26.052961
59687	9.693967	0.565272	0.200394	0.029079	0.000542	-0.017911	64.849211	-85.484344	-26.100691
59688	9.728433	0.607856	0.173464	0.064208	0.003981	-0.018617	64.921307	-85.477701	-26.135783
59689	9.713083	0.675221	0.230520	0.078111	0.005006	-0.021639	64.995952	-85.468848	-26.165275
59690	9.739594	0.739622	0.292021	0.063478	0.004136	-0.024034	65.082829	-85.459354	-26.215618
59691	9.758689	0.791912	0.281622	0.052995	0.004042	-0.019171	65.141491	-85.452009	-26.243511
59692	9.723995	0.753052	0.308645	0.038503	0.004289	-0.015535	65.186978	-85.446886	-26.266686
59693	9.754447	0.763970	0.295883	0.019574	0.005356	-0.014712	65.204254	-85.441541	-26.272273
59694	9.701070	0.781273	0.274369	0.005155	0.008545	-0.013482	65.196635	-85.436457	-26.261339
59695	9.700973	0.698348	0.214649	-0.010254	0.006808	-0.010602	65.174988	-85.432901	-26.245023
59696	9.746761	0.671465	0.165774	-0.013773	0.009610	-0.012659	65.147254	-85.427988	-26.224788
59697	9.731403	0.625772	0.143278	-0.012077	0.014378	-0.008918	65.070400	-85.423480	-26.154138
59698	9.716081	0.552039	0.100803	0.000327	0.014703	-0.012068	65.016215	-85.417649	-26.099265
59699	9.723353	0.537289	0.154100	0.016508	0.019227	-0.011967	64.933880	-85.410369	-26.006684
59700	9.707940	0.547964	0.172432	0.045174	0.020338	-0.014817	64.877756	-85.401750	-25.924092
59701	9.703833	0.546277	0.208227	0.052914	0.019337	-0.016164	64.828800	-85.392251	-25.844069
59702	9.714967	0.563580	0.247507	0.065307	0.019660	-0.019324	64.802725	-85.381466	-25.780054
59703	9.741322	0.599951	0.290396	0.062358	0.021178	-0.022024	64.765583	-85.368473	-25.706453
59704	9.725866	0.583679	0.288466	0.048323	0.019015	-0.025038	64.751558	-85.354890	-25.664291
59705	9.725906	0.502115	0.230174	0.051293	0.027106	-0.027403	64.687156	-85.337653	-25.569697
59706	9.710344	0.514614	0.248986	0.044149	0.024890	-0.034935	64.663710	-85.317516	-25.520483
59707	9.748197	0.456001	0.249827	0.050749	0.024510	-0.043271	64.663772	-85.292690	-25.490877
59708	9.751830	0.491779	0.237926	0.066129	0.026254	-0.046172	64.678199	-85.266418	-25.467032
59709	9.720783	0.515509	0.273150	0.092391	0.027616	-0.052370	64.709758	-85.236120	-25.445088
59710	9.689310	0.596300	0.348167	0.103559	0.025618	-0.060124	64.790164	-85.202796	-25.465934
59711	9.669659	0.715083	0.340291	0.100684	0.023381	-0.062641	64.881666	-85.168208	-25.499376
59712	9.706971	0.849627	0.340147	0.087938	0.019773	-0.060892	64.989460	-85.135905	-25.556692
59713	9.690516	0.921516	0.397441	0.070129	0.015308	-0.058903	65.100068	-85.105201	-25.626882
59714	9.686190	1.002248	0.352175	0.037071	0.014938	-0.058866	65.200184	-85.075086	-25.705743
59715	9.720241	1.019959	0.306233	0.009007	0.014453	-0.048376	65.249723	-85.050045	-25.749794
59716	9.746744	0.974981	0.289157	-0.009529	0.016771	-0.054421	65.298385	-85.021770	-25.803805
59717	9.697349	0.864080	0.274916	-0.025489	0.016276	-0.050906	65.323319	-84.994970	-25.843001
59718	9.701376	0.737614	0.283230	-0.019083	0.018659	-0.048796	65.339193	-84.969157	-25.869593
59719	9.713390	0.645018	0.242979	0.010602	0.016332	-0.042238	65.360393	-84.946855	-25.884284
59720	9.717174	0.652035	0.210609	0.042209	0.023850	-0.039045	65.354238	-84.924889	-25.853509
59721	9.719478	0.771705	0.257730	0.065046	0.019613	-0.036204	65.371057	-84.904945	-25.832485
59722	9.714279	0.828672	0.332960	0.067819	0.018924	-0.031302	65.387807	-84.888198	-25.809975
59723	9.733542	0.825594	0.283708	0.049662	0.017818	-0.033329	65.398621	-84.870181	-25.791771
59724	9.687606	0.800391	0.294520	0.052007	0.017599	-0.030017	65.410677	-84.854419	-25.773639
59725	9.725546	0.769450	0.314865	0.047948	0.014987	-0.028821	65.424979	-84.839427	-25.759921
59726	9.725278	0.772350	0.316023	0.043782	0.016110	-0.027849	65.435233	-84.825151	-25.744712
59727	9.721782	0.715695	0.311753	0.032152	0.013657	-0.027523	65.444730	-84.811153	-25.735257
59728	9.710632	0.702537	0.274995	0.029428	0.007674	-0.029774	65.500129	-84.797887	-25.773636
59729	9.710847	0.677388	0.256188	0.046045	0.017654	-0.033021	65.508937	-84.780073	-25.755496
59730	9.660849	0.649315	0.301530	0.054405	0.023227	-0.031639	65.494569	-84.762150	-25.709451
59731	9.652825	0.696448	0.270888	0.063338	0.017711	-0.042475	65.537485	-84.739393	-25.715611
59732	9.720277	0.733140	0.318079	0.081924	0.021293	-0.041339	65.574916	-84.716885	-25.705750
59733	9.737996	0.816048	0.328294	0.076457	0.023794	-0.045176	65.597656	-84.691278	-25.684099
59734	9.690371	0.877204	0.398502	0.059769	0.020454	-0.044618	65.635254	-84.667263	-25.687153
59735	9.712669	0.934557	0.354830	0.047443	0.023000	-0.043909	65.642553	-84.642507	-25.666688
59736	9.711599	0.967410	0.376071	0.022887	0.016525	-0.045573	65.683013	-84.618913	-25.693838
59737	9.737429	0.978859	0.398975	-0.004998	0.019814	-0.048207	65.688587	-84.592666	-25.701820
59738	9.726082	0.967479	0.363547	-0.040177	0.018683	-0.053698	65.700850	-84.564307	-25.736938
59739	9.739438	0.846744	0.304996	-0.056112	0.018142	-0.050176	65.691031	-84.537426	-25.758877
59740	9.718222	0.713615	0.293130	-0.048116	0.012628	-0.053507	65.730875	-84.510587	-25.826271
59741	9.688616	0.652354	0.268007	-0.021096	0.010283	-0.054073	65.792715	-84.483516	-25.900047
59742	9.679827	0.651964	0.337365	0.024516	0.011576	-0.053469	65.878500	-84.456945	-25.971797
59743	9.670143	0.757010	0.345297	0.047059	0.011997	-0.048619	65.955611	-84.432308	-26.021688
59744	9.656171	0.858972	0.387274	0.046890	0.012813	-0.046413	66.029320	-84.409135	-26.068433
59745	9.695949	0.995088	0.351014	0.039997	0.005012	-0.045222	66.130514	-84.387886	-26.146592
59746	9.721047	1.034732	0.392230	0.029432	0.008610	-0.040569	66.201794	-84.368729	-26.200948
59747	9.682846	1.044138	0.353711	0.004961	0.007898	-0.047163	66.270971	-84.345775	-26.267110
59748	9.705226	1.024150	0.390081	-0.019182	0.002900	-0.038977	66.340094	-84.328742	-26.347287
59749	9.698753	0.937160	0.399881	-0.043410	-0.000373	-0.039294	66.406060	-84.311803	-26.438079
59750	9.720242	0.800176	0.391714	-0.050412	0.003384	-0.035002	66.444798	-84.296720	-26.505701
59751	9.626275	0.763345	0.324860	-0.035882	-0.003408	-0.035969	66.522607	-84.282204	-26.604066
59752	9.639904	0.669673	0.283372	-0.003202	-0.006070	-0.037368	66.642557	-84.268018	-26.726125
59753	9.641432	0.760866	0.307297	0.042786	-0.010958	-0.030232	66.791015	-84.258192	-26.850199
59754	9.683201	0.906428	0.375081	0.063593	-0.008657	-0.031787	66.949097	-84.247484	-26.972129
59755	9.707050	1.050208	0.353129	0.059513	-0.009285	-0.022317	67.079901	-84.241394	-27.068830
59756	9.664917	1.199318	0.410563	0.041211	-0.012603	-0.019656	67.218271	-84.237903	-27.183836
59757	9.704992	1.255876	0.453142	0.009266	-0.014972	-0.018617	67.341534	-84.234982	-27.301896
59758	9.716339	1.245316	0.469668	-0.044237	-0.017555	-0.013177	67.442569	-84.235932	-27.428573
59759	9.726999	1.117615	0.441905	-0.080992	-0.023378	-0.005623	67.529906	-84.241690	-27.562500
59760	9.704131	0.996997	0.340945	-0.108358	-0.019489	-0.000641	67.577411	-84.249638	-27.672291
59761	9.658127	0.851363	0.304997	-0.100968	-0.018787	0.002431	67.612123	-84.258634	-27.764827
59762	9.648400	0.806142	0.246433	-0.083188	-0.023757	0.005517	67.683737	-84.270754	-27.884348
59763	9.729049	0.770023	0.269095	-0.054184	-0.019909	0.001766	67.753163	-84.279621	-27.984829
59764	9.701986	0.790986	0.266151	-0.038578	-0.017673	0.002670	67.824989	-84.288894	-28.078875
59765	9.674113	0.840153	0.283009	-0.021938	-0.017170	0.004560	67.892851	-84.298629	-28.159213
59766	9.730156	0.884819	0.309438	-0.021806	-0.020906	0.004789	67.987521	-84.309705	-28.266557
59767	9.707219	0.859199	0.372334	-0.021831	-0.023826	0.007240	68.085826	-84.322265	-28.377425
59768	9.685164	0.854293	0.314786	-0.026457	-0.025186	0.009069	68.192405	-84.336495	-28.499409
59769	9.685317	0.853436	0.312396	-0.037322	-0.029800	0.006551	68.316421	-84.349914	-28.645027
59770	9.740512	0.781656	0.292762	-0.032881	-0.030548	0.009387	68.448770	-84.365397	-28.796600
59771	9.726597	0.733491	0.267080	-0.039983	-0.025055	0.005203	68.549777	-84.377040	-28.920623
59772	9.734912	0.689662	0.296842	-0.022434	-0.027459	0.002018	68.688312	-84.387894	-29.072394
59773	9.715997	0.716948	0.224714	-0.007534	-0.025114	-0.002502	68.825504	-84.395380	-29.214089
59774	9.707910	0.711342	0.290611	0.017468	-0.023893	-0.005036	68.983259	-84.401672	-29.362200
59775	9.698927	0.783637	0.276014	0.028641	-0.020910	-0.006973	69.128266	-84.405832	-29.490919
59776	9.658754	0.874360	0.294136	0.030259	-0.023921	-0.006622	69.297383	-84.411213	-29.643082
59777	9.695724	0.947532	0.250211	0.019433	-0.017788	-0.008209	69.422986	-84.414013	-29.757605
59778	9.725374	0.986364	0.254838	0.010319	-0.024245	-0.004313	69.578269	-84.420623	-29.907345
59779	9.722856	0.927356	0.247259	-0.005566	-0.019011	-0.005661	69.691419	-84.424982	-30.023745
59780	9.693927	0.861502	0.219173	-0.017880	-0.013603	-0.007372	69.778712	-84.427771	-30.121399
59781	9.680568	0.786499	0.174688	-0.000507	-0.018112	-0.005900	69.890585	-84.431785	-30.233601
59782	9.673307	0.752728	0.221334	0.013603	-0.019519	-0.002690	70.019489	-84.438226	-30.354940
59783	9.718545	0.782062	0.209837	0.028193	-0.015544	-0.002780	70.127730	-84.443374	-30.446970
59784	9.675121	0.841104	0.242912	0.046920	-0.015591	-0.001415	70.251948	-84.449704	-30.544424
59785	9.658852	0.878902	0.276891	0.051797	-0.021705	-0.002810	70.408435	-84.455984	-30.671335
59786	9.695752	0.951660	0.232861	0.035322	-0.015198	-0.003526	70.528517	-84.461057	-30.771305
59787	9.755795	1.000158	0.224693	0.028180	-0.015548	-0.002791	70.637645	-84.466120	-30.864230
59788	9.754013	0.912628	0.198225	0.001003	-0.009564	-0.002391	70.704817	-84.470696	-30.930794
59789	9.748999	0.793691	0.186658	-0.006286	-0.009097	0.000571	70.751862	-84.476334	-30.981185
59790	9.720084	0.727182	0.159421	0.010970	-0.006948	-0.000654	70.806983	-84.481352	-31.029905
59791	9.717569	0.667846	0.153501	0.025114	-0.002514	-0.002362	70.841036	-84.484156	-31.049168
59792	9.690401	0.689606	0.151647	0.054251	-0.002396	-0.005950	70.905907	-84.485461	-31.082772
59793	9.703029	0.794146	0.213498	0.078311	-0.001185	-0.001034	70.960478	-84.488732	-31.092025
59794	9.705502	0.854214	0.218141	0.075949	0.001919	-0.006831	71.015338	-84.488763	-31.103089
59795	9.704718	0.883313	0.237386	0.061669	0.001221	-0.005354	71.055264	-84.489244	-31.107209
59796	9.718747	0.931562	0.260048	0.040432	0.002272	-0.007803	71.089662	-84.488683	-31.118154
59797	9.707081	0.944402	0.242032	0.025265	-0.000425	-0.007059	71.121261	-84.488545	-31.134863
59798	9.761299	0.902689	0.244920	0.003904	0.004362	-0.009733	71.126742	-84.486545	-31.137786
59799	9.678729	0.851210	0.197044	-0.011065	0.011594	-0.010310	71.076288	-84.482414	-31.092974
59800	9.664557	0.804643	0.175083	-0.004849	0.007024	-0.009345	71.061116	-84.480132	-31.080184
59801	9.725935	0.797299	0.130120	0.013608	0.012448	-0.016747	71.032505	-84.472350	-31.043113
59802	9.707007	0.777032	0.162049	0.039448	0.012757	-0.016158	71.023857	-84.465318	-31.011379
59803	9.671729	0.794675	0.229688	0.053550	0.009353	-0.021247	71.044189	-84.455673	-31.000487
59804	9.727533	0.842226	0.257992	0.061876	0.014983	-0.019895	71.043252	-84.446212	-30.963594
59805	9.696187	0.862748	0.291411	0.057389	0.009890	-0.017815	71.056239	-84.438328	-30.943112
59806	9.726374	0.874552	0.278798	0.049813	0.009992	-0.018677	71.073843	-84.430460	-30.931783
59807	9.710596	0.885757	0.295816	0.039571	0.011923	-0.018419	71.066513	-84.421871	-30.901145
59808	9.699613	0.871050	0.259330	0.026208	0.013225	-0.016181	71.047957	-84.414753	-30.867079
59809	9.729814	0.882657	0.246838	0.025142	0.004203	-0.018045	71.074497	-84.407802	-30.878778
59810	9.673702	0.838981	0.219755	0.022487	0.008941	-0.019395	71.083649	-84.399741	-30.874690
59811	9.666346	0.807141	0.269260	0.035100	0.009742	-0.018800	71.086666	-84.391351	-30.857020
59812	9.656917	0.880545	0.256626	0.046952	0.004804	-0.018704	71.131323	-84.384439	-30.874527
59813	9.659907	0.913545	0.242007	0.061043	0.006333	-0.017995	71.166430	-84.377119	-30.874165
59814	9.656374	1.029218	0.319941	0.058944	0.003974	-0.015040	71.215534	-84.372347	-30.889235
59815	9.712089	1.076482	0.347241	0.042175	0.004269	-0.014646	71.244823	-84.367224	-30.893890
59816	9.689604	1.072936	0.291928	0.022124	0.001858	-0.007574	71.270420	-84.366875	-30.906528
59817	9.735513	1.074107	0.262469	0.004758	0.000526	-0.004083	71.279119	-84.368173	-30.912037
59818	9.695217	1.019374	0.218981	-0.004139	0.004008	-0.001474	71.266508	-84.370724	-30.901400
59819	9.688889	0.957387	0.248754	-0.010078	0.001098	-0.001955	71.259582	-84.373070	-30.899750
59820	9.700483	0.945501	0.267024	-0.011414	0.004483	0.001502	71.234665	-84.377141	-30.880934
59821	9.702195	0.888386	0.228541	-0.007261	0.003381	0.000507	71.212141	-84.380402	-30.861988
59822	9.714654	0.847870	0.227436	0.002679	0.006017	0.002215	71.185452	-84.384572	-30.833276
59823	9.710659	0.845019	0.261880	0.014972	0.000633	0.003921	71.184361	-84.390191	-30.823067
59824	9.710683	0.844751	0.261868	0.016017	0.001811	0.002437	71.188068	-84.395263	-30.817222
59825	9.663869	0.872494	0.310556	0.013185	-0.003378	0.002444	71.210911	-84.400822	-30.832090
59826	9.691115	0.851022	0.311857	0.008441	-0.000998	0.004056	71.222738	-84.407293	-30.838758
59827	9.694312	0.881787	0.296765	0.006655	-0.005009	0.002581	71.250691	-84.413226	-30.862520
59828	9.672007	0.876697	0.241042	-0.004620	-0.004259	0.004332	71.272663	-84.420447	-30.886909
59829	9.709167	0.900213	0.299071	-0.006105	-0.004986	0.004211	71.290213	-84.427259	-30.907563
59830	9.682858	0.892495	0.277536	-0.021682	-0.007246	0.003380	71.320910	-84.434510	-30.950528
59831	9.660542	0.887457	0.221761	-0.023608	-0.007523	0.001655	71.347498	-84.440398	-30.990338
59832	9.710124	0.870997	0.278060	-0.016774	-0.007549	-0.002927	71.394743	-84.444273	-31.047107
59833	9.725733	0.861796	0.261213	-0.020488	-0.006897	-0.000328	71.423494	-84.448965	-31.087295
59834	9.692213	0.821002	0.288542	-0.020777	-0.007274	-0.004155	71.469329	-84.452119	-31.144946
59835	9.750599	0.781832	0.256607	-0.012623	-0.013589	-0.009727	71.557734	-84.452912	-31.240539
59836	9.703783	0.810279	0.304450	-0.004028	-0.010478	-0.002092	71.627374	-84.457758	-31.312467
59837	9.683714	0.865438	0.252817	-0.002255	-0.014312	-0.003949	71.715192	-84.461799	-31.401502
59838	9.698476	0.885013	0.254541	-0.006711	-0.016495	-0.004311	71.821384	-84.466494	-31.511704
59839	9.697661	0.913701	0.272576	-0.003451	-0.014664	-0.000245	71.903969	-84.472585	-31.596169
59840	9.659683	0.918438	0.232200	-0.004786	-0.016219	-0.002589	72.006976	-84.478141	-31.702058
59841	9.700862	0.945020	0.254674	-0.012818	-0.021486	-0.000105	72.122842	-84.485483	-31.825349
59842	9.682214	0.923010	0.283888	-0.019199	-0.019008	0.003612	72.222579	-84.494860	-31.936247
59843	9.683088	0.894513	0.262618	-0.022754	-0.021214	-0.004282	72.339405	-84.499831	-32.066218
59844	9.705774	0.919009	0.195657	-0.019642	-0.018559	0.002005	72.439835	-84.508213	-32.178051
59845	9.686315	0.925455	0.244599	-0.028696	-0.019190	0.001038	72.532728	-84.515696	-32.287396
59846	9.701955	0.915958	0.226350	-0.029016	-0.025383	0.002138	72.667139	-84.525271	-32.438779
59847	9.716815	0.934681	0.227351	-0.028726	-0.025011	0.005960	72.785235	-84.536394	-32.573455
59848	9.744150	0.912771	0.226567	-0.031260	-0.026919	0.007317	72.919065	-84.548997	-32.725518
59849	9.725597	0.890231	0.255290	-0.026656	-0.025562	0.005451	73.043516	-84.559877	-32.865382
59850	9.668222	0.900433	0.264671	-0.027569	-0.028459	0.015440	73.175410	-84.577126	-33.013354
59851	9.729068	0.918863	0.235617	-0.024758	-0.031112	0.012089	73.322822	-84.592502	-33.175183
59852	9.710612	0.895635	0.263823	-0.031447	-0.031921	0.014446	73.476160	-84.609700	-33.346922
59853	9.720181	0.987331	0.217210	-0.034720	-0.031730	0.018646	73.612045	-84.628700	-33.502897
59854	9.690128	0.975436	0.227756	-0.047495	-0.031712	0.020281	73.747103	-84.648981	-33.665530
59855	9.691116	0.944999	0.205670	-0.063237	-0.030236	0.019213	73.858955	-84.667988	-33.813767
59856	9.716164	0.862092	0.199476	-0.065339	-0.032603	0.022157	73.988021	-84.689364	-33.980645
59857	9.687521	0.793055	0.170717	-0.053767	-0.032988	0.024204	74.115239	-84.711494	-34.138854
59858	9.714952	0.769366	0.169278	-0.034603	-0.030561	0.024639	74.247927	-84.733865	-34.291623
59859	9.699694	0.776295	0.182830	-0.022146	-0.033865	0.021617	74.405347	-84.754633	-34.461957
59860	9.744411	0.831229	0.189386	-0.014419	-0.032788	0.028499	74.559079	-84.779399	-34.624238
59861	9.716891	0.878077	0.204819	-0.020510	-0.031957	0.027779	74.698349	-84.803199	-34.775392
59862	9.706772	0.830640	0.144711	-0.035684	-0.034662	0.028550	74.854263	-84.828195	-34.952146
59863	9.726272	0.821442	0.090886	-0.038671	-0.036116	0.028297	75.010589	-84.852828	-35.130862
59864	9.728203	0.741330	0.168897	-0.034921	-0.028927	0.029057	75.133765	-84.877182	-35.274231
59865	9.701904	0.731546	0.145157	-0.016378	-0.033073	0.026737	75.289603	-84.900427	-35.439619
59866	9.693587	0.772265	0.109890	-0.005680	-0.032554	0.025584	75.460652	-84.923319	-35.614268
59867	9.713536	0.742521	0.176564	-0.012641	-0.028804	0.029947	75.589679	-84.947653	-35.750579
59868	9.729210	0.730663	0.156975	-0.018648	-0.036619	0.023627	75.785073	-84.969970	-35.957038
59869	9.729954	0.700244	0.133905	-0.018495	-0.034518	0.018951	75.967276	-84.988919	-36.150088
59870	9.728011	0.610546	0.105785	-0.007473	-0.030725	0.019171	76.142123	-85.007815	-36.329620
59871	9.704711	0.632971	0.067379	0.013468	-0.032156	0.017708	76.332318	-85.025644	-36.512297
59872	9.677735	0.652541	0.062815	0.032313	-0.035958	0.019189	76.565940	-85.045169	-36.727763
59873	9.709844	0.776961	0.090748	0.035911	-0.029948	0.013907	76.763438	-85.060468	-36.904855
59874	9.738825	0.870463	0.133163	0.036026	-0.033688	0.014121	76.995453	-85.076765	-37.116569
59875	9.685257	0.883351	0.107852	0.023571	-0.030366	0.017163	77.186243	-85.093822	-37.294015
59876	9.669639	0.919172	0.140946	0.025949	-0.030561	0.020471	77.385372	-85.113110	-37.478514
59877	9.715051	0.946056	0.127627	0.012144	-0.028779	0.021176	77.556047	-85.132113	-37.642334
59878	9.738777	0.919849	0.160057	-0.000495	-0.029551	0.020627	77.736455	-85.151253	-37.823357
59879	9.705594	0.876687	0.185271	-0.011915	-0.027960	0.024648	77.885618	-85.172019	-37.979412
59880	9.736952	0.827193	0.129679	-0.019071	-0.031217	0.027870	78.058931	-85.195321	-38.163926
59881	9.672096	0.822657	0.067502	-0.010915	-0.032620	0.028048	78.237990	-85.218463	-38.349397
59882	9.683743	0.835993	0.101617	-0.006927	-0.035834	0.031689	78.447744	-85.244362	-38.563457
59883	9.701837	0.911320	0.106483	-0.006041	-0.036754	0.034873	78.652178	-85.271698	-38.771573
59884	9.683351	0.914446	0.153784	-0.016612	-0.038074	0.033820	78.873451	-85.298894	-39.002768
59885	9.764560	0.875014	0.173213	-0.034120	-0.035625	0.037155	79.055849	-85.327265	-39.204900
59886	9.696199	0.866782	0.145235	-0.043337	-0.035401	0.038443	79.242353	-85.356614	-39.416603
59887	9.711849	0.853741	0.125532	-0.053917	-0.036716	0.037386	79.425475	-85.385124	-39.630825
59888	9.697773	0.774362	0.079594	-0.060956	-0.040788	0.038371	79.644627	-85.414877	-39.885284
59889	9.709626	0.786589	0.113671	-0.066276	-0.037122	0.040640	79.824636	-85.445140	-40.103469
59890	9.680210	0.716280	0.084188	-0.059517	-0.043001	0.040886	80.063320	-85.476389	-40.376721
59891	9.737786	0.700468	0.067922	-0.053548	-0.040123	0.041345	80.277144	-85.507211	-40.621493
59892	9.681254	0.651625	0.037273	-0.041381	-0.041845	0.042700	80.522779	-85.539205	-40.891280
59893	9.719794	0.698454	0.111389	-0.028738	-0.041107	0.043216	80.762483	-85.571017	-41.147730
59894	9.726825	0.728369	0.058899	-0.027724	-0.042853	0.044162	81.028974	-85.603750	-41.430555
59895	9.700080	0.773739	0.073914	-0.037423	-0.045081	0.046291	81.297148	-85.637471	-41.720526
59896	9.691965	0.812733	0.037828	-0.048495	-0.048841	0.046074	81.602597	-85.671571	-42.054301
59897	9.715941	0.783553	0.068463	-0.055206	-0.049630	0.048436	81.901658	-85.706653	-42.385439
59898	9.731538	0.741621	0.027594	-0.070249	-0.047219	0.042170	82.196724	-85.738153	-42.721238
59899	9.728635	0.677579	0.017939	-0.071255	-0.046446	0.051879	82.468702	-85.774692	-43.034410
59900	9.710579	0.594331	0.005022	-0.060430	-0.046789	0.048442	82.769730	-85.809461	-43.370610
59901	9.683957	0.611283	0.000171	-0.037059	-0.045601	0.047756	83.069081	-85.843357	-43.691554
59902	9.753200	0.610446	0.020378	-0.020829	-0.044731	0.047864	83.387732	-85.877410	-44.022620
59903	9.711525	0.636671	0.032604	-0.020004	-0.038996	0.048418	83.654118	-85.911008	-44.300690
59904	9.688321	0.684800	0.013698	-0.019384	-0.046955	0.050376	83.999633	-85.946375	-44.657800
59905	9.730780	0.705430	0.033399	-0.025545	-0.039402	0.047087	84.277058	-85.979023	-44.950096
59906	9.731151	0.700461	0.029721	-0.031484	-0.040316	0.054855	84.569458	-86.016307	-45.260892
59907	9.727729	0.579648	-0.019951	-0.037258	-0.044796	0.049912	84.892487	-86.050636	-45.605604
59908	9.701177	0.596457	-0.024535	-0.023664	-0.042107	0.051165	85.218482	-86.085661	-45.945594
59909	9.724904	0.538357	-0.013950	-0.014042	-0.045780	0.053829	85.572468	-86.121994	-46.307972
59910	9.752209	0.539490	0.002285	-0.009545	-0.043640	0.054175	85.930285	-86.158527	-46.671714
59911	9.722273	0.524864	0.011730	-0.000212	-0.044716	0.050617	86.298557	-86.192670	-47.040437
59912	9.722543	0.519909	0.007568	0.008799	-0.040437	0.051321	86.654335	-86.227154	-47.391567
59913	9.702610	0.571364	-0.045821	0.014834	-0.049959	0.046307	87.092426	-86.258666	-47.821592
59914	9.661422	0.626243	-0.014393	0.029690	-0.050656	0.044040	87.566846	-86.288915	-48.279611
59915	9.734574	0.684766	0.010423	0.017492	-0.048871	0.042715	88.012835	-86.317893	-48.715994
59916	9.750480	0.727732	0.028771	-0.005757	-0.047853	0.038806	88.457859	-86.344617	-49.164863
59917	9.807729	0.711440	0.011045	-0.036956	-0.044225	0.040802	88.844615	-86.372009	-49.573127
59918	9.744647	0.682314	-0.105341	-0.055857	-0.043194	0.041879	89.230827	-86.400033	-49.991807
59919	9.710810	0.609355	-0.101241	-0.052905	-0.044714	0.044501	89.624885	-86.429193	-50.416518
59920	9.707979	0.601918	-0.071299	-0.041108	-0.049790	0.044383	90.093602	-86.458275	-50.909369
59921	9.696828	0.638253	-0.073030	-0.036603	-0.047661	0.044720	90.538682	-86.487137	-51.375814
59922	9.748427	0.642720	-0.002624	-0.033361	-0.051796	0.053545	91.048055	-86.520946	-51.904921
59923	9.733907	0.647090	0.009675	-0.026624	-0.048102	0.048734	91.520431	-86.551613	-52.392953
59924	9.695721	0.676656	-0.012370	-0.044073	-0.049281	0.052342	92.018564	-86.584219	-52.916896
59925	9.726809	0.708932	-0.010684	-0.064993	-0.051401	0.054132	92.520902	-86.617389	-53.456932
59926	9.748484	0.728886	-0.080432	-0.086435	-0.049296	0.054165	93.015533	-86.650474	-54.001650
59927	9.759484	0.654963	-0.107741	-0.118004	-0.052630	0.054940	93.520586	-86.683504	-54.574793
59928	9.772054	0.528397	-0.209819	-0.127728	-0.051868	0.054655	94.038299	-86.716189	-55.166292
59929	9.767358	0.436237	-0.240373	-0.112899	-0.045917	0.049771	94.496506	-86.745965	-55.689546
59930	9.741993	0.346825	-0.185361	-0.086965	-0.045933	0.050028	94.994826	-86.775713	-56.238197
59931	9.742079	0.342204	-0.189342	-0.049262	-0.040604	0.047458	95.451658	-86.803945	-56.723525
59932	9.732465	0.434189	-0.149427	-0.036567	-0.039977	0.047914	95.934420	-86.832326	-57.227645
59933	9.736941	0.489137	-0.146756	-0.034344	-0.038395	0.042767	96.388543	-86.857572	-57.701673
59934	9.740127	0.596733	-0.069089	-0.044041	-0.037611	0.042527	96.852656	-86.882591	-58.191381
59935	9.728499	0.605322	-0.089742	-0.074634	-0.042656	0.044243	97.345522	-86.907945	-58.727305
59936	9.796502	0.547585	-0.110718	-0.085408	-0.043063	0.045445	97.863505	-86.933737	-59.294673
59937	9.773948	0.461740	-0.089569	-0.088668	-0.036192	0.047097	98.301093	-86.960729	-59.783266
59938	9.717706	0.390137	-0.174344	-0.096113	-0.044267	0.044384	98.842012	-86.985299	-60.379715
59939	9.740652	0.332970	-0.164278	-0.068231	-0.036327	0.033199	99.285305	-87.003965	-60.862274
59940	9.751681	0.289418	-0.171034	-0.055758	-0.036810	0.027628	99.753714	-87.019258	-61.362943
59941	9.721546	0.277285	-0.160347	-0.034561	-0.033656	0.031842	100.195772	-87.037019	-61.824934
59942	9.696898	0.352097	-0.122395	-0.031431	-0.033038	0.029853	100.651815	-87.053561	-62.299252
59943	9.737193	0.425162	-0.201393	-0.026741	-0.035464	0.028129	101.120981	-87.068654	-62.783886
59944	9.740964	0.534171	-0.122936	-0.038551	-0.036753	0.017959	101.597298	-87.077701	-63.282577
59945	9.755598	0.523513	-0.143589	-0.078623	-0.039573	0.012633	102.054238	-87.083212	-63.784726
59946	9.698028	0.507443	-0.153136	-0.099110	-0.039167	0.013618	102.516976	-87.089116	-64.304557
59947	9.723529	0.456537	-0.177306	-0.103076	-0.039600	0.010201	102.957635	-87.092857	-64.804428
59948	9.726111	0.324251	-0.177396	-0.102693	-0.036350	0.011607	103.385523	-87.097595	-65.291415
59949	9.680470	0.430582	-0.207352	-0.090447	-0.041977	0.012967	103.869537	-87.102161	-65.827446
59950	9.697652	0.424034	-0.262852	-0.072632	-0.047261	0.015616	104.448808	-87.107177	-66.448761
59951	9.733435	0.518663	-0.253407	-0.062173	-0.044527	0.021056	105.004123	-87.115332	-67.039959
59952	9.734484	0.544155	-0.236733	-0.058342	-0.043333	0.026657	105.587068	-87.126418	-67.656745
59953	9.732973	0.565492	-0.185372	-0.069664	-0.035733	0.026051	106.064250	-87.138128	-68.173999
59954	9.735672	0.566760	-0.222522	-0.070431	-0.032903	0.031150	106.548864	-87.152804	-68.699252
59955	9.776735	0.532458	-0.243014	-0.065465	-0.027544	0.032958	106.969886	-87.169233	-69.157855
59956	9.720328	0.541887	-0.230564	-0.071444	-0.024772	0.040572	107.406849	-87.190028	-69.635964
59957	9.719365	0.510632	-0.253471	-0.084644	-0.028625	0.038633	107.860461	-87.209020	-70.138182
59958	9.770872	0.486131	-0.202120	-0.095457	-0.029021	0.039830	108.342055	-87.228269	-70.674733
59959	9.800747	0.356431	-0.182546	-0.106601	-0.033444	0.037340	108.845704	-87.245264	-71.239626
59960	9.777751	0.271255	-0.161875	-0.097489	-0.029241	0.038076	109.335526	-87.263069	-71.785564
59961	9.703476	0.156490	-0.270689	-0.075273	-0.030521	0.032718	109.818412	-87.277661	-72.311684
59962	9.724750	0.123046	-0.206002	-0.050612	-0.032102	0.030630	110.349224	-87.290457	-72.871759
59963	9.715217	0.188323	-0.184319	-0.027537	-0.037366	0.030753	110.939488	-87.302144	-73.477984
59964	9.727652	0.307772	-0.207107	-0.002412	-0.039454	0.030234	111.590102	-87.312674	-74.130338
59965	9.738885	0.450657	-0.174829	-0.002349	-0.036474	0.027893	112.181699	-87.322408	-74.723439
59966	9.720089	0.533552	-0.204296	-0.023310	-0.039282	0.027440	112.814617	-87.330839	-75.370055
59967	9.746495	0.508648	-0.208851	-0.046351	-0.041515	0.027524	113.444498	-87.338639	-76.026713
59968	9.729574	0.459977	-0.236916	-0.056805	-0.041631	0.032531	114.118001	-87.348510	-76.733157
59969	9.724558	0.397850	-0.248126	-0.055315	-0.037182	0.032544	114.727965	-87.359265	-77.375008
59970	9.710216	0.403787	-0.234108	-0.046668	-0.039218	0.034172	115.398935	-87.369835	-78.073090
59971	9.729485	0.399876	-0.323682	-0.038566	-0.039982	0.036468	116.081843	-87.381234	-78.778344
59972	9.701837	0.391123	-0.347607	-0.032609	-0.043158	0.041629	116.858538	-87.393829	-79.574184
59973	9.730912	0.419773	-0.310561	-0.032548	-0.040175	0.039291	117.576174	-87.405780	-80.310737
59974	9.719573	0.321090	-0.274583	-0.033558	-0.038397	0.038388	118.294074	-87.417076	-81.048251
59975	9.728698	0.249194	-0.303523	-0.022394	-0.037771	0.040938	119.013886	-87.429674	-81.781145
59976	9.718180	0.285806	-0.302842	-0.013832	-0.039051	0.044790	119.804147	-87.443127	-82.579766
59977	9.706806	0.345437	-0.247038	-0.007089	-0.038302	0.042397	120.562800	-87.455410	-83.342746
59978	9.740738	0.382558	-0.278295	-0.019168	-0.041663	0.036807	121.341021	-87.463208	-84.132363
59979	9.772339	0.415416	-0.275569	-0.039889	-0.043405	0.042392	122.150042	-87.473021	-84.964560
59980	9.751230	0.334353	-0.290703	-0.056592	-0.041344	0.036231	122.909132	-87.479669	-85.756479
59981	9.745850	0.271995	-0.302204	-0.045803	-0.037236	0.034889	123.604483	-87.486852	-86.478278
59982	9.715769	0.259455	-0.291516	-0.039680	-0.038207	0.035481	124.341708	-87.493270	-87.238604
59983	9.732277	0.251231	-0.346984	-0.025978	-0.038688	0.039036	125.103012	-87.501119	-88.015043
59984	9.741558	0.338230	-0.356083	-0.024448	-0.041749	0.039241	125.923669	-87.507220	-88.850137
59985	9.762861	0.412016	-0.348490	-0.024296	-0.035769	0.034602	126.629008	-87.513088	-89.569585
59986	9.765136	0.413104	-0.385808	-0.041261	-0.031394	0.035154	127.305724	-87.519955	-90.270237
59987	9.733458	0.373466	-0.395423	-0.042181	-0.030374	0.032029	127.930099	-87.525809	-90.918895
59988	9.757958	0.320810	-0.420371	-0.050854	-0.028311	0.030408	128.536903	-87.530952	-91.555065
59989	9.759620	0.345251	-0.401697	-0.052485	-0.024492	0.032417	129.103455	-87.538503	-92.151750
59990	9.750674	0.228620	-0.454034	-0.049513	-0.022345	0.034896	129.693664	-87.547237	-92.770534
59991	9.751852	0.275704	-0.379378	-0.031401	-0.015023	0.030425	130.165371	-87.556896	-93.260189
59992	9.774088	0.218743	-0.368880	-0.030782	-0.013302	0.027438	130.616927	-87.565271	-93.729445
59993	9.746265	0.211322	-0.389741	-0.014448	-0.008152	0.029614	131.028270	-87.576825	-94.148953
59994	9.735596	0.272131	-0.330475	-0.006154	-0.006717	0.027356	131.433114	-87.587361	-94.557327
59995	9.729498	0.233303	-0.283976	-0.009226	-0.008104	0.027094	131.831732	-87.597601	-94.961096
59996	9.739645	0.298628	-0.344886	-0.021047	-0.006656	0.027455	132.235339	-87.607965	-95.376767
59997	9.731705	0.341272	-0.375181	-0.031341	-0.012023	0.028096	132.677175	-87.616869	-95.836467
59998	9.743701	0.325196	-0.359784	-0.031800	-0.011509	0.026537	133.121871	-87.624687	-96.299423
59999	9.728248	0.281993	-0.419340	-0.030636	-0.007305	0.022803	133.472654	-87.632955	-96.667583
60000	9.736249	0.234787	-0.390376	-0.034616	-0.003904	0.019354	133.776031	-87.640553	-96.990709
60001	9.772501	0.169453	-0.397010	-0.029651	-0.009097	0.023674	134.158537	-87.648289	-97.390050
60002	9.726520	0.140041	-0.386732	-0.017737	-0.003801	0.020933	134.490533	-87.656413	-97.732136
60003	9.752608	0.115541	-0.388211	0.000319	0.000508	0.018791	134.751174	-87.665835	-97.992321
60004	9.766377	0.127310	-0.350547	0.016750	0.001125	0.018820	135.037672	-87.674960	-98.269093
60005	9.732038	0.216057	-0.323294	0.015750	-0.000841	0.018012	135.317064	-87.683416	-98.539192
60006	9.720139	0.227860	-0.339956	0.009604	-0.003608	0.017488	135.637422	-87.689965	-98.853947
60007	9.736115	0.244216	-0.336925	0.010057	-0.004125	0.019042	135.960575	-87.697364	-99.171104
60008	9.726053	0.283170	-0.332547	0.007528	-0.003026	0.018031	136.283335	-87.704228	-99.489450
60009	9.711977	0.290314	-0.315238	0.005362	-0.005442	0.020877	136.639928	-87.711657	-99.842763
60010	9.734204	0.342864	-0.359405	-0.001683	-0.003417	0.017174	136.956145	-87.717870	-100.159838
60011	9.750215	0.359387	-0.356188	-0.001138	-0.000936	0.016425	137.222013	-87.725297	-100.426079
60012	9.758151	0.312425	-0.326676	-0.015570	0.002389	0.018008	137.485733	-87.734152	-100.698574
60013	9.726273	0.274522	-0.333353	-0.025782	0.000035	0.016345	137.730760	-87.741863	-100.958084
60014	9.690317	0.204898	-0.327313	-0.022267	-0.002857	0.018231	138.048060	-87.748470	-101.288038
60015	9.718555	0.184978	-0.363152	-0.017215	-0.005059	0.020246	138.393687	-87.755384	-101.643311
60016	9.718251	0.205780	-0.308360	-0.014606	-0.006917	0.019025	138.767339	-87.760395	-102.025263
60017	9.726105	0.158362	-0.279766	-0.007110	-0.009465	0.024278	139.210001	-87.766732	-102.471848
60018	9.752121	0.133550	-0.281853	-0.003859	-0.005843	0.020010	139.594324	-87.772369	-102.858314
60019	9.712321	0.140869	-0.318902	0.005507	-0.010727	0.016479	139.972697	-87.775027	-103.233324
60020	9.748387	0.207096	-0.326098	0.010023	-0.011658	0.019169	140.413597	-87.777597	-103.668448
60021	9.722397	0.227825	-0.325988	0.007400	-0.013555	0.020459	140.866884	-87.780230	-104.117343
60022	9.724324	0.253019	-0.305987	0.005874	-0.010490	0.020256	141.309093	-87.783451	-104.556154
60023	9.706406	0.205739	-0.331694	0.002797	-0.011868	0.019994	141.741018	-87.786406	-104.986307
60024	9.732369	0.181306	-0.334502	0.001410	-0.017826	0.015477	142.193716	-87.784372	-105.438172
60025	9.724121	0.116294	-0.310192	0.002411	-0.015863	0.016282	142.618924	-87.783960	-105.861826
60026	9.737945	0.128240	-0.274214	0.008546	-0.016864	0.016871	143.082317	-87.782584	-106.320303
60027	9.734451	0.180917	-0.373439	0.007475	-0.014315	0.018221	143.519301	-87.783292	-106.752837
60028	9.718212	0.183698	-0.323181	0.022886	-0.019454	0.017501	144.020212	-87.780654	-107.240638
60029	9.720334	0.186504	-0.359070	0.018837	-0.015283	0.016292	144.448660	-87.779993	-107.658116
60030	9.722278	0.212120	-0.339834	0.008052	-0.023857	0.015457	144.951780	-87.774318	-108.156634
60031	9.746045	0.183256	-0.309413	0.004893	-0.024477	0.017425	145.461261	-87.769426	-108.663204
60032	9.710157	0.245054	-0.305591	-0.002863	-0.023405	0.018935	145.991613	-87.764746	-109.195236
60033	9.714260	0.274960	-0.320987	-0.012629	-0.026258	0.018836	146.518140	-87.759096	-109.728916
60034	9.720474	0.309388	-0.370668	-0.016242	-0.026359	0.019252	147.063197	-87.752716	-110.283339
60035	9.754633	0.348290	-0.400768	-0.032699	-0.030686	0.019315	147.612988	-87.744685	-110.851813
60036	9.762360	0.301314	-0.373972	-0.049020	-0.024501	0.016942	148.089559	-87.738096	-111.356495
60037	9.765987	0.199952	-0.389152	-0.048100	-0.021785	0.019967	148.564086	-87.734217	-111.858483
60038	9.717738	0.166616	-0.345912	-0.052706	-0.020093	0.019505	149.032223	-87.730219	-112.356839
60039	9.713544	0.110477	-0.390299	-0.046123	-0.021623	0.021630	149.523926	-87.726579	-112.874884
60040	9.705722	0.153960	-0.421538	-0.046662	-0.020350	0.022300	150.028828	-87.722927	-113.406572
60041	9.779790	0.183439	-0.415069	-0.047170	-0.027344	0.020870	150.547494	-87.715861	-113.952205
60042	9.741906	0.218428	-0.432090	-0.058721	-0.020594	0.014438	150.944386	-87.709529	-114.382715
60043	9.713905	0.235448	-0.398390	-0.064895	-0.023344	0.013907	151.332169	-87.702224	-114.807531
60044	9.701266	0.116765	-0.417253	-0.081259	-0.020903	0.011599	151.677782	-87.694729	-115.199648
60045	9.736877	0.052337	-0.425697	-0.071493	-0.018062	0.011689	151.993761	-87.689286	-115.556388
60046	9.708899	0.069648	-0.391595	-0.066802	-0.016756	0.009841	152.294111	-87.683249	-115.894919
60047	9.743056	0.110002	-0.420309	-0.064560	-0.015087	0.004767	152.504662	-87.677338	-116.142172
60048	9.726897	0.091907	-0.425213	-0.060876	-0.015738	0.002110	152.702051	-87.669674	-116.374262
60049	9.780741	0.073517	-0.408688	-0.057192	-0.016388	-0.000546	152.856268	-87.661641	-116.560912
60050	9.762576	0.051075	-0.379425	-0.055554	-0.012694	-0.002703	152.974824	-87.654227	-116.711053
60051	9.696648	0.083902	-0.415369	-0.039170	-0.023404	-0.002545	153.156472	-87.642053	-116.914826
60052	9.730913	0.147451	-0.389047	-0.039073	-0.020394	-0.004829	153.304018	-87.630123	-117.084533
60053	9.721225	0.211007	-0.330181	-0.039077	-0.020396	-0.004834	153.435244	-87.618859	-117.237790
60054	9.714832	0.152683	-0.340869	-0.045865	-0.021126	-0.002459	153.609336	-87.607127	-117.437963
60055	9.732822	0.175869	-0.373612	-0.045973	-0.024141	-0.000188	153.813166	-87.595080	-117.667844
60056	9.758618	0.153198	-0.377542	-0.050661	-0.021701	0.001590	154.033456	-87.584019	-117.917009
60057	9.736787	0.208041	-0.390582	-0.053153	-0.025092	-0.001602	154.217259	-87.571059	-118.130967
60058	9.730369	0.149679	-0.401611	-0.058756	-0.021597	-0.002919	154.373264	-87.558867	-118.320433
60059	9.740048	0.109445	-0.409199	-0.075280	-0.025926	-0.002906	154.529487	-87.545102	-118.519479
60060	9.753840	0.101200	-0.429686	-0.067521	-0.026995	-0.004438	154.689340	-87.529702	-118.717827
60061	9.761575	0.056141	-0.403690	-0.057225	-0.029176	-0.004973	154.845306	-87.513702	-118.906266
60062	9.697693	0.116437	-0.418966	-0.044776	-0.032678	-0.008290	154.999512	-87.494376	-119.085922
60063	9.743637	0.144605	-0.433048	-0.044254	-0.033950	-0.008985	155.137015	-87.474884	-119.248447
60064	9.715711	0.163292	-0.400172	-0.035540	-0.032317	-0.007455	155.299391	-87.455909	-119.430988
60065	9.733890	0.209167	-0.378053	-0.036463	-0.031256	-0.010552	155.404042	-87.437410	-119.556164
60066	9.741546	0.252222	-0.462142	-0.046481	-0.040153	-0.006154	155.611608	-87.414623	-119.790219
60067	9.755614	0.265790	-0.428024	-0.055857	-0.035287	-0.002573	155.813485	-87.395864	-120.023849
60068	9.741190	0.253711	-0.468790	-0.069568	-0.031678	-0.008371	155.932013	-87.376920	-120.182021
60069	9.750797	0.214124	-0.477536	-0.067534	-0.036021	-0.008910	156.053381	-87.356249	-120.341762
60070	9.730453	0.164981	-0.472010	-0.065220	-0.034932	-0.001227	156.266894	-87.337215	-120.592530
60071	9.710125	0.115386	-0.466507	-0.061146	-0.035362	-0.000113	156.482376	-87.318861	-120.842827
60072	9.754209	0.137603	-0.446921	-0.042134	-0.039656	0.000904	156.749013	-87.297738	-121.133544
60073	9.811633	0.129386	-0.501402	-0.039044	-0.038282	0.001171	156.998218	-87.278033	-121.404933
60074	9.795348	0.111204	-0.508501	-0.036617	-0.034173	0.006604	157.297309	-87.260949	-121.724985
60075	9.784882	0.129817	-0.561575	-0.018589	-0.028411	0.008962	157.591556	-87.248053	-122.029742
60076	9.750828	0.197451	-0.590549	0.010656	-0.029648	0.013886	157.970436	-87.234778	-122.402565
60077	9.731760	0.298898	-0.525821	0.022522	-0.022879	0.015673	158.331667	-87.226075	-122.750808
60078	9.726577	0.391559	-0.478888	0.023607	-0.021658	0.014263	158.681283	-87.216907	-123.086910
60079	9.787599	0.451439	-0.398352	0.006526	-0.016475	0.017171	159.018374	-87.211732	-123.420165
60080	9.759413	0.445691	-0.419481	-0.035381	-0.017795	0.020114	159.378035	-87.205625	-123.800161
60081	9.715088	0.421863	-0.444272	-0.079411	-0.022292	0.023625	159.757774	-87.198415	-124.225417
60082	9.736221	0.343497	-0.491986	-0.117367	-0.027071	0.029915	160.210920	-87.188980	-124.746043
60083	9.729070	0.260891	-0.559610	-0.138260	-0.028792	0.035472	160.707383	-87.180209	-125.321929
60084	9.730547	0.153726	-0.543028	-0.147349	-0.019346	0.030064	161.109171	-87.174569	-125.808339
60085	9.705421	0.048226	-0.580200	-0.139819	-0.026479	0.032972	161.563034	-87.166162	-126.342473
60086	9.684299	-0.025357	-0.629916	-0.103099	-0.021486	0.032537	162.020798	-87.159429	-126.859552
60087	9.661514	0.042383	-0.552059	-0.078988	-0.028049	0.035484	162.536830	-87.150171	-127.421042
60088	9.654189	0.106534	-0.526835	-0.060476	-0.031104	0.037169	163.096855	-87.138498	-128.016068
60089	9.695472	0.223963	-0.490941	-0.054524	-0.038199	0.042200	163.725285	-87.124217	-128.676074
60090	9.722847	0.239283	-0.384958	-0.067989	-0.037393	0.042449	164.347583	-87.109283	-129.337775
60091	9.685834	0.293471	-0.345625	-0.090753	-0.036937	0.041843	164.934702	-87.094939	-129.977218
60092	9.689969	0.321655	-0.361229	-0.126216	-0.043555	0.046796	165.574838	-87.076531	-130.690200
60093	9.683927	0.243840	-0.465227	-0.169875	-0.045534	0.049475	166.208949	-87.057773	-131.422111
60094	9.748953	0.185719	-0.493123	-0.189647	-0.051954	0.046824	166.816789	-87.033905	-132.139169
60095	9.716419	0.021038	-0.544047	-0.204102	-0.046304	0.043922	167.355147	-87.013229	-132.794863
60096	9.644343	-0.111778	-0.574399	-0.189165	-0.050942	0.041445	167.883686	-86.988560	-133.432263
60097	9.635620	-0.178586	-0.556274	-0.161992	-0.056160	0.029640	168.299101	-86.960076	-133.940712
60098	9.746005	-0.193314	-0.506587	-0.133988	-0.056583	0.027676	168.707941	-86.930159	-134.426618
60099	9.733231	-0.166558	-0.437553	-0.114702	-0.054839	0.024190	169.073801	-86.901444	-134.858332
60100	9.679065	-0.023138	-0.419995	-0.103156	-0.061678	0.015454	169.367876	-86.867040	-135.211640
60101	9.694071	0.098729	-0.438599	-0.125615	-0.065519	0.016308	169.652248	-86.831238	-135.568033
60102	9.682127	0.223563	-0.510669	-0.152794	-0.071413	0.016693	169.933881	-86.791293	-135.937387
60103	9.680774	0.328233	-0.533523	-0.198629	-0.078684	0.013074	170.152484	-86.747560	-136.269835
60104	9.743865	0.254227	-0.621866	-0.231070	-0.081626	0.013679	170.361035	-86.701394	-136.610939
60105	9.784955	0.124457	-0.669043	-0.252363	-0.073671	0.010924	170.505647	-86.660161	-136.900139
60106	9.766350	-0.023738	-0.687207	-0.246678	-0.071115	0.007599	170.616912	-86.619257	-137.152776
60107	9.734235	-0.163277	-0.687167	-0.228373	-0.068235	0.000981	170.662731	-86.580111	-137.329264
60108	9.725471	-0.226424	-0.671748	-0.198576	-0.065579	-0.005293	170.664881	-86.541109	-137.445001
60109	9.718566	-0.158240	-0.648375	-0.174199	-0.069848	-0.006928	170.666363	-86.500313	-137.545987
60110	9.703613	-0.043094	-0.651192	-0.156119	-0.071706	-0.004609	170.705766	-86.457909	-137.674686
60111	9.702088	0.064073	-0.672309	-0.145032	-0.068993	-0.010314	170.689219	-86.417278	-137.740873
60112	9.733063	0.094621	-0.636727	-0.157098	-0.067522	-0.009969	170.670961	-86.376744	-137.812370
60113	9.711083	0.152151	-0.650267	-0.167511	-0.066732	-0.013974	170.604920	-86.337055	-137.841876
60114	9.722853	0.140318	-0.641524	-0.203984	-0.068205	-0.023453	170.442493	-86.294877	-137.795829
60115	9.717675	-0.012622	-0.680579	-0.216147	-0.071194	-0.025507	170.257551	-86.251569	-137.734110
60116	9.718416	-0.114280	-0.674074	-0.193686	-0.067337	-0.026418	170.079329	-86.209575	-137.666315
60117	9.709134	-0.186812	-0.750188	-0.161802	-0.067558	-0.028769	169.897931	-86.167969	-137.576934
60118	9.624497	-0.168918	-0.632980	-0.103734	-0.066166	-0.027864	169.762794	-86.126465	-137.500660
60119	9.653339	-0.039004	-0.576556	-0.078674	-0.071609	-0.030197	169.628363	-86.082400	-137.410607
60120	9.624863	0.085622	-0.558841	-0.091423	-0.080862	-0.031667	169.496078	-86.032208	-137.330113
60121	9.612094	0.108145	-0.456587	-0.120038	-0.074477	-0.037913	169.285521	-85.985683	-137.187496
60122	9.598741	0.003912	-0.523470	-0.158006	-0.087187	-0.041855	169.050391	-85.930814	-137.042131
60123	9.708022	-0.143411	-0.739093	-0.182334	-0.091828	-0.041336	168.812833	-85.874077	-136.908210
60124	9.717323	-0.173734	-0.914871	-0.141293	-0.088603	-0.048742	168.546727	-85.817564	-136.722164
60125	9.587605	-0.177481	-0.946921	-0.116438	-0.088533	-0.061463	168.199485	-85.760261	-136.440386
60126	9.477733	-0.134528	-0.826934	-0.093747	-0.096734	-0.078395	167.765852	-85.695484	-136.059001
60127	9.571914	-0.166091	-0.754983	-0.078139	-0.106900	-0.084091	167.322963	-85.624816	-135.659246
60128	9.795534	-0.053970	-0.931122	-0.045542	-0.093652	-0.075467	166.957421	-85.561727	-135.318384
60129	9.779790	0.190135	-0.887303	-0.033021	-0.090597	-0.069766	166.638654	-85.501639	-135.017130
60130	9.733668	0.416158	-0.794837	-0.024140	-0.094065	-0.072856	166.323001	-85.438366	-134.713954
60131	9.720588	0.433331	-0.660241	-0.006259	-0.092141	-0.074200	166.007925	-85.376556	-134.400969
60132	9.623728	0.459774	-0.524903	-0.025850	-0.093469	-0.068553	165.735770	-85.313967	-134.142360
60133	9.686031	0.650220	-0.562172	-0.062488	-0.100379	-0.054147	165.552680	-85.250209	-133.994081
60134	9.743520	0.791434	-0.522299	-0.130809	-0.111661	-0.035991	165.478588	-85.182079	-133.994521
60135	9.825814	0.676276	-0.770635	-0.192014	-0.114084	-0.031120	165.401755	-85.113993	-134.027331
60136	9.791192	0.535942	-1.026622	-0.230528	-0.108730	-0.026963	165.325267	-85.048799	-134.082709
60137	9.715234	0.387130	-1.090885	-0.256212	-0.117927	-0.023030	165.270506	-84.979768	-134.174604
60138	9.681188	0.233623	-1.156856	-0.260741	-0.119362	-0.017681	165.251969	-84.910024	-134.305548
60139	9.789930	0.100087	-1.288826	-0.251525	-0.124074	-0.021741	165.216200	-84.837784	-134.413835
60140	9.787351	0.072181	-1.165644	-0.182373	-0.106749	-0.011991	165.253929	-84.775838	-134.556219
60141	9.693407	-0.046793	-0.885331	-0.083889	-0.085096	-0.011350	165.311926	-84.726703	-134.662235
60142	9.772588	-0.006182	-0.670260	0.012609	-0.084163	-0.002838	165.476424	-84.678563	-134.819761
60143	9.845496	0.415741	-0.753330	0.021889	-0.086831	0.013555	165.740518	-84.631957	-135.071919
60144	9.779407	0.857133	-0.814678	-0.044434	-0.094517	0.033602	166.094668	-84.583032	-135.452791
60145	9.805941	0.995169	-0.947959	-0.152032	-0.083264	0.044972	166.427822	-84.542421	-135.874459
60146	9.868913	0.712251	-1.147317	-0.243564	-0.083302	0.049657	166.733128	-84.501462	-136.320931
60147	9.888463	0.287707	-1.293179	-0.259708	-0.061411	0.054428	167.019509	-84.473848	-136.757644
60148	9.833875	-0.044978	-1.398735	-0.214645	-0.047668	0.055919	167.321382	-84.453133	-137.184064
60149	9.722430	-0.164145	-1.343459	-0.122007	-0.038863	0.063634	167.704431	-84.438809	-137.638662
60150	9.641961	-0.072849	-1.038006	-0.021003	-0.039769	0.068634	168.175549	-84.423466	-138.123682
60151	9.584332	0.029509	-0.996210	0.048901	-0.036319	0.072649	168.700532	-84.410898	-138.622523
60152	9.662532	0.443627	-0.946545	0.052905	-0.041812	0.082408	169.290092	-84.395050	-139.184029
60153	9.810423	0.943027	-0.822766	-0.020116	-0.056633	0.099211	169.943403	-84.372780	-139.851579
60154	9.887212	1.086270	-0.770639	-0.147503	-0.047831	0.098347	170.507282	-84.353914	-140.502700
60155	9.837036	0.955121	-1.036359	-0.308272	-0.052846	0.099728	170.985552	-84.332549	-141.160309
60156	9.779059	0.515401	-1.257462	-0.399079	-0.044497	0.100969	171.408658	-84.314718	-141.814859
60157	9.740242	0.057948	-1.218515	-0.398464	-0.042691	0.101502	171.829242	-84.298273	-142.466471
60158	9.744586	-0.257311	-1.233958	-0.332542	-0.042830	0.107733	172.320682	-84.280913	-143.151424
60159	9.670507	-0.481508	-0.939765	-0.213082	-0.039651	0.107119	172.870390	-84.265511	-143.826096
60160	9.673547	-0.520652	-0.719790	-0.110337	-0.033957	0.104574	173.458503	-84.251692	-144.480293
60161	9.719693	-0.256709	-0.756847	-0.085326	-0.048775	0.108064	174.085282	-84.229773	-145.158895
60162	9.732009	0.087941	-0.843850	-0.128706	-0.055355	0.105971	174.675085	-84.202475	-145.825417
60163	9.777176	0.162439	-1.059135	-0.207165	-0.058122	0.100955	175.186185	-84.173488	-146.457976
60164	9.866779	-0.038291	-1.423520	-0.277668	-0.059261	0.089959	175.591490	-84.142051	-147.024901
60165	9.871213	-0.146495	-1.691351	-0.308789	-0.043270	0.076090	175.889784	-84.119590	-147.502129
60166	9.763479	-0.386594	-1.834885	-0.273756	-0.027502	0.065195	176.140156	-84.104654	-147.911097
60167	9.616739	-0.450687	-1.369962	-0.124254	-0.010964	0.059611	176.436949	-84.099588	-148.280548
60168	9.633225	-0.476174	-0.873691	0.044177	-0.005921	0.066255	176.866136	-84.096527	-148.686165
60169	9.960627	0.048058	-0.811382	0.099513	-0.007513	0.085302	177.431114	-84.093598	-149.196344
60170	10.044977	0.822855	-0.927836	0.026919	0.002112	0.113686	178.110520	-84.095400	-149.863457
60171	9.889381	1.290449	-1.094896	-0.095415	0.004288	0.116920	178.736572	-84.098562	-150.547314
60172	9.803310	1.094856	-1.236144	-0.234358	0.003205	0.098956	179.184442	-84.099417	-151.132153
60173	9.826325	0.413890	-1.267509	-0.320501	0.010334	0.104097	179.611072	-84.104769	-151.745171
60174	9.889852	-0.283124	-1.270929	-0.314595	0.010669	0.124544	-179.844852	-84.108949	-152.472937
60175	9.884931	-0.781185	-1.145093	-0.168108	0.026234	0.136842	-179.145812	-84.122027	-153.272016
60176	9.666389	-0.727816	-0.762938	0.022810	0.032006	0.140069	-178.315366	-84.136415	-154.093297
60177	9.465763	-0.386255	-0.583261	0.127589	-0.001221	0.138382	-177.438198	-84.131422	-154.901101
60178	9.392938	0.200423	-0.586353	0.087901	-0.028624	0.132621	-176.626364	-84.108871	-155.666192
60179	9.401529	0.868958	-0.659855	-0.039764	-0.084930	0.130038	-175.929968	-84.054025	-156.388733
60180	9.753037	1.284626	-0.559171	-0.200627	-0.132432	0.144344	-175.282914	-83.969748	-157.154510
60181	10.061945	1.103330	-0.798441	-0.347578	-0.112096	0.146950	-174.714194	-83.896901	-157.926210
60182	9.806285	0.235781	-0.865796	-0.469231	-0.061680	0.129478	-174.297248	-83.852316	-158.615533
60183	9.741658	-0.631240	-0.758765	-0.477179	-0.081228	0.120002	-173.951946	-83.797408	-159.237357
60184	10.000785	-1.109520	-1.026032	-0.388488	-0.078770	0.131786	-173.503697	-83.741975	-159.911768
60185	10.201384	-1.575828	-1.037330	-0.301417	-0.051461	0.130059	-173.005309	-83.702319	-160.586411
60186	10.225347	-1.862240	-0.825049	-0.121048	-0.023771	0.112139	-172.485188	-83.678322	-161.179068
60187	10.039309	-1.831489	-0.922124	0.051845	0.009097	0.082962	-171.994691	-83.675389	-161.642187
60188	9.912776	-1.354922	-0.907554	0.172206	0.037003	0.049121	-171.587631	-83.689938	-161.952049
60189	9.877433	-0.707672	-1.036987	0.185806	0.050229	0.038069	-171.217501	-83.713407	-162.216828
60190	9.755421	-0.321887	-0.960680	0.118397	0.070386	0.025149	-170.933107	-83.748559	-162.434270
60191	9.681665	-0.426028	-1.293684	-0.017514	0.074696	0.006699	-170.816821	-83.788451	-162.560848
60192	9.752785	-0.707270	-1.303406	-0.007314	0.068120	-0.015911	-170.816115	-83.825966	-162.565357
60193	9.756969	-1.040917	-1.039163	0.078246	0.095189	-0.034539	-170.842135	-83.881204	-162.493602
60194	9.681748	-0.904641	-0.641161	0.159890	0.128263	-0.027825	-170.756472	-83.953813	-162.487203
60195	9.635354	-0.263165	-0.353016	0.188587	0.156762	0.005339	-170.449777	-84.040156	-162.686448
60196	9.306595	0.539187	-0.233221	0.061306	0.174275	0.032267	-170.042911	-84.132958	-163.059754
60197	9.253159	1.025127	-0.227513	-0.187757	0.174442	0.019908	-169.837774	-84.227571	-163.373594
60198	9.352478	1.132543	-0.298777	-0.475390	0.189917	0.008875	-169.835772	-84.331352	-163.648921
60199	9.175324	0.836516	-0.771438	-0.780507	0.185012	0.007439	-170.019483	-84.433169	-163.913187
60200	9.041305	0.280857	-1.320174	-1.001106	0.144449	-0.018892	-170.525694	-84.514212	-163.980451
60201	9.280714	-0.529356	-1.897089	-1.065665	0.106682	-0.053635	-171.319466	-84.577666	-163.795934
60202	9.437896	-1.383627	-2.589285	-0.969932	0.069780	-0.083149	-172.279362	-84.621708	-163.389540
60203	9.096738	-2.268087	-3.542826	-0.722107	0.039899	-0.138416	-173.466370	-84.652588	-162.612377
60204	8.981776	-2.725518	-4.031250	-0.285470	-0.007036	-0.198436	-174.806471	-84.657823	-161.430288
60205	9.349676	-3.016974	-3.071298	0.321253	0.010881	-0.196156	-175.780660	-84.671752	-160.266504
60206	9.444198	-2.359713	-2.075524	0.792456	0.047132	-0.148535	-176.179092	-84.702188	-159.409953
60207	9.019733	-0.697410	-1.590855	1.083855	0.096081	-0.122273	-176.240256	-84.760297	-158.724399
60208	8.686719	1.450808	-1.154276	1.047659	0.082522	-0.123935	-176.340493	-84.809561	-158.020592
60209	8.899815	2.803956	-0.854037	0.638701	0.036720	-0.143563	-176.829623	-84.834031	-157.161517
60210	9.282628	3.073198	-0.571088	0.083934	0.006130	-0.149457	-177.684767	-84.839191	-156.254208
60211	9.670857	2.064457	-0.789185	-0.402086	-0.004033	-0.149703	-178.827371	-84.838158	-155.337776
60212	9.949737	0.412732	-0.861582	-0.609388	0.018149	-0.153305	179.891613	-84.847089	-154.401725
60213	10.228216	-1.263843	-0.559426	-0.557228	0.003685	-0.160950	178.587918	-84.846790	-153.412811
60214	10.574439	-2.473098	-0.270756	-0.233847	0.035562	-0.150801	177.528904	-84.862123	-152.483633
60215	10.416826	-2.502058	-0.684471	0.227131	0.075138	-0.126559	176.866083	-84.900514	-151.687008
60216	9.984361	-1.429745	-0.855433	0.613258	0.088237	-0.113434	176.499098	-84.945268	-150.965409
60217	9.848208	0.121594	-0.741587	0.787381	0.058368	-0.110997	176.246517	-84.973607	-150.258468
60218	9.883891	1.409392	-0.789823	0.703585	0.061452	-0.114960	175.919333	-85.002345	-149.524939
60219	9.825820	2.107134	-0.915556	0.490071	0.075673	-0.102854	175.528900	-85.040214	-148.850682
60220	9.612890	2.225744	-0.847263	0.240222	0.081315	-0.096915	175.027827	-85.080240	-148.209170
60221	9.393126	2.182858	-0.789647	0.004594	0.074938	-0.091628	174.416086	-85.117253	-147.592050
60222	9.285596	2.159877	-0.901123	-0.251283	0.059972	-0.079499	173.743760	-85.144968	-147.061364
60223	9.382705	1.715826	-0.960323	-0.527336	0.018270	-0.066160	173.025831	-85.150168	-146.643589
60224	9.731116	0.837194	-0.761903	-0.681473	-0.003473	-0.049405	172.351715	-85.142893	-146.358482
60225	10.036966	-0.285841	-0.564225	-0.634217	0.023362	-0.035408	171.772048	-85.152599	-146.140925
60226	10.015035	-1.014289	-0.703340	-0.464811	0.041933	-0.021694	171.363038	-85.172931	-145.997296
60227	9.863185	-1.162428	-0.941186	-0.274034	0.033065	-0.018722	171.088594	-85.189320	-145.878954
60228	9.833632	-0.745420	-0.742749	-0.051757	0.024432	-0.018564	170.953692	-85.199933	-145.772906
60229	9.817566	0.028279	-0.601067	0.041469	0.025169	-0.006489	170.949483	-85.212909	-145.744347
60230	9.727054	0.604387	-0.784892	-0.011145	0.016092	0.009218	171.034513	-85.221313	-145.835652
60231	9.727398	1.085252	-0.853862	-0.092454	0.008530	0.021061	171.158179	-85.227319	-146.012414
60232	9.797086	1.269423	-0.675654	-0.234219	0.012829	0.021082	171.199263	-85.234888	-146.187874
60233	9.709542	1.116485	-0.598072	-0.398998	0.004675	0.025322	171.180899	-85.239062	-146.398356
60234	9.694181	0.769632	-0.662218	-0.493668	-0.005940	0.034003	171.180133	-85.237143	-146.680986
60235	9.759115	0.390588	-0.758919	-0.546916	-0.020204	0.047595	171.254210	-85.229169	-147.069275
60236	9.840175	0.027848	-0.852929	-0.534651	-0.003350	0.068090	171.457631	-85.231587	-147.580368
60237	9.802970	-0.173025	-0.798872	-0.472148	-0.001498	0.078103	171.762617	-85.236545	-148.157380
60238	9.792846	-0.360496	-0.850911	-0.386051	0.002650	0.075636	172.098113	-85.242554	-148.715562
60239	9.855916	-0.426042	-0.855586	-0.294868	0.001854	0.075725	172.487416	-85.248661	-149.275248
60240	9.877641	-0.475257	-0.890518	-0.194901	0.017151	0.085559	172.991017	-85.262983	-149.892203
60241	9.776399	-0.382058	-0.889312	-0.120578	0.026926	0.086570	173.538874	-85.283297	-150.510759
60242	9.718082	-0.163223	-0.948823	-0.062601	0.017987	0.085097	174.122618	-85.297097	-151.132039
60243	9.768846	0.087697	-0.827041	-0.030967	0.010423	0.085094	174.731436	-85.306880	-151.760220
60244	9.838763	0.167652	-0.770996	-0.048628	0.024500	0.079983	175.290334	-85.323089	-152.348516
60245	9.742191	0.175817	-0.746170	-0.067429	0.022493	0.080438	175.845294	-85.338535	-152.943595
60246	9.697757	0.165467	-0.802414	-0.102503	0.009313	0.079141	176.381636	-85.345110	-153.540209
60247	9.760901	0.097453	-0.805228	-0.122735	0.013170	0.075547	176.880209	-85.354158	-154.110491
60248	9.706948	0.007789	-0.819546	-0.128304	0.011850	0.073169	177.362053	-85.361165	-154.667246
60249	9.732332	-0.019942	-0.826634	-0.131614	0.009068	0.065657	177.790481	-85.366860	-155.172245
60250	9.764766	-0.111232	-0.784443	-0.136330	0.017800	0.063768	178.202704	-85.376399	-155.663755
60251	9.756838	-0.171280	-0.805140	-0.143084	0.015110	0.062572	178.604281	-85.384916	-156.148398
60252	9.727993	-0.175133	-0.822970	-0.142102	0.012736	0.060873	178.996864	-85.390968	-156.623509
60253	9.678057	-0.228909	-0.843131	-0.134363	0.012097	0.055727	179.357866	-85.397174	-157.062423
60254	9.674382	-0.254018	-0.869921	-0.119764	0.002198	0.051877	179.701865	-85.396662	-157.475948
60255	9.718923	-0.255749	-0.811900	-0.088800	0.003427	0.049894	-179.951213	-85.397463	-157.874544
60256	9.712009	-0.195647	-0.860353	-0.066777	0.003431	0.051902	-179.576499	-85.397250	-158.288425
60257	9.746157	-0.154451	-0.877977	-0.044174	0.001786	0.050804	-179.197568	-85.396694	-158.693482
60258	9.688976	-0.050260	-0.909750	-0.030841	0.002442	0.048063	-178.829734	-85.395516	-159.079805
60259	9.685048	0.017703	-0.898666	-0.014684	0.005606	0.046726	-178.462464	-85.396783	-159.456213
60260	9.713048	-0.001156	-0.847208	-0.006475	0.005654	0.050012	-178.066287	-85.397002	-159.856965
60261	9.764363	-0.036974	-0.894719	-0.000462	0.016295	0.044529	-177.703163	-85.404034	-160.221036
60262	9.800701	-0.000700	-0.819443	-0.003011	0.020802	0.041735	-177.358343	-85.412716	-160.568269
60263	9.773072	-0.114891	-0.751200	-0.006898	0.020653	0.041969	-177.013272	-85.421958	-160.917920
60264	9.722054	-0.180743	-0.738802	-0.019159	0.017187	0.040751	-176.683609	-85.428277	-161.259220
60265	9.664435	-0.182155	-0.775491	-0.020669	0.009254	0.045613	-176.323070	-85.430539	-161.632297
60266	9.640242	-0.151309	-0.798521	-0.012053	0.004371	0.047627	-175.944933	-85.428933	-162.018140
60267	9.715529	-0.128952	-0.785221	-0.015985	-0.000440	0.042816	-175.606660	-85.425395	-162.366190
60268	9.770397	-0.143244	-0.806101	-0.019386	0.009245	0.037529	-175.302558	-85.426671	-162.681976
60269	9.741634	-0.145187	-0.823885	-0.009095	0.015566	0.032843	-175.022199	-85.432457	-162.967966
60270	9.666326	-0.174859	-0.835797	-0.010409	0.010447	0.033569	-174.739758	-85.434371	-163.256859
60271	9.645869	-0.214780	-0.869262	0.009118	0.009769	0.025503	-174.504259	-85.437029	-163.487375
60272	9.636575	-0.191991	-0.821033	0.016714	0.006775	0.026867	-174.256208	-85.437023	-163.726177
60273	9.670180	-0.161895	-0.805402	0.017374	0.019881	0.019507	-174.050890	-85.445645	-163.921669
60274	9.724182	-0.187102	-0.792753	-0.001216	0.019886	0.011148	-173.915010	-85.453924	-164.058247
60275	9.749376	-0.210435	-0.799246	-0.009637	0.017047	0.011983	-173.780026	-85.461310	-164.198704
60276	9.728178	-0.168000	-0.761692	-0.014123	0.024433	0.003295	-173.703315	-85.472626	-164.283342
60277	9.670597	-0.258376	-0.835704	-0.017559	0.018911	-0.000037	-173.657035	-85.481800	-164.339366
60278	9.704253	-0.225729	-0.820049	0.001478	0.008394	-0.002569	-173.625873	-85.484345	-164.369344
60279	9.705522	-0.119062	-0.813256	-0.005182	0.005291	-0.006030	-173.626486	-85.486140	-164.371216
60280	9.704503	-0.131383	-0.781103	0.005728	-0.001048	-0.009114	-173.647590	-85.483726	-164.346321
60281	9.732391	-0.051963	-0.692095	0.011242	0.000215	-0.006763	-173.648158	-85.482676	-164.338798
60282	9.774817	0.066796	-0.810523	0.003592	-0.006875	0.001153	-173.601204	-85.476299	-164.383400
60283	9.753428	0.109555	-0.775227	0.005472	0.001726	0.004644	-173.521782	-85.475377	-164.459433
60284	9.639911	0.109665	-0.760251	-0.029016	-0.004919	0.003187	-173.477692	-85.469979	-164.519903
60285	9.701169	0.127180	-0.695253	-0.033560	-0.002493	0.011116	-173.377806	-85.466218	-164.638899
60286	9.676957	0.068314	-0.757407	-0.078699	-0.006332	0.018335	-173.255295	-85.458999	-164.806593
60287	9.699126	-0.056181	-0.863625	-0.067683	-0.003813	0.023026	-173.091349	-85.453634	-165.009465
60288	9.697779	-0.164056	-0.870829	-0.069138	-0.012672	0.023279	-172.934718	-85.442399	-165.205894
60289	9.805322	-0.213152	-0.850770	-0.050214	-0.011256	0.020635	-172.785641	-85.432885	-165.383816
60290	9.740775	-0.271728	-0.821186	-0.053115	-0.002278	0.016831	-172.657650	-85.427944	-165.542308
60291	9.721240	-0.296573	-0.887861	-0.035197	0.001038	0.013543	-172.539963	-85.425874	-165.680110
60292	9.675654	-0.311941	-0.913922	-0.015508	0.004097	0.005970	-172.461839	-85.425316	-165.766960
60293	9.684520	-0.369603	-0.806186	-0.004993	0.002676	0.004163	-172.392011	-85.424852	-165.839390
60294	9.662925	-0.420124	-0.808786	0.012597	-0.000569	0.004549	-172.312168	-85.421731	-165.911810
60295	9.662161	-0.340780	-0.738297	0.037109	0.001643	0.001986	-172.234724	-85.420833	-165.967680
60296	9.669094	-0.280807	-0.806108	0.044070	0.006641	-0.003259	-172.185077	-85.422400	-165.991716
60297	9.617431	-0.230631	-0.879897	0.044638	0.005003	-0.006377	-172.159337	-85.424053	-165.991389
60298	9.579636	-0.110372	-0.813038	0.033784	-0.005249	-0.008242	-172.162362	-85.419258	-165.968496
60299	9.630715	-0.141456	-0.862350	0.029025	-0.010766	-0.003525	-172.140759	-85.411738	-165.972993
60300	9.678643	-0.211915	-0.816030	0.025349	-0.008086	-0.007422	-172.145529	-85.405269	-165.953196
60301	9.717277	-0.256856	-0.722452	0.025050	-0.015103	-0.006046	-172.148235	-85.395484	-165.935591
60302	9.682238	-0.189985	-0.790805	0.024408	-0.007108	-0.012668	-172.189326	-85.389984	-165.879894
60303	9.705194	-0.237057	-0.735992	0.016764	-0.008767	-0.019081	-172.282182	-85.384803	-165.776609
60304	9.708665	-0.307560	-0.747848	0.018353	-0.012308	-0.021540	-172.393576	-85.377019	-165.653859
60305	9.720671	-0.323395	-0.736969	0.028408	-0.008350	-0.019790	-172.483831	-85.372100	-165.546487
60306	9.703890	-0.337697	-0.745017	0.031712	-0.011692	-0.024251	-172.605155	-85.364839	-165.406091
60307	9.702309	-0.237278	-0.799562	0.050658	-0.021286	-0.022216	-172.710713	-85.352713	-165.270573
60308	9.709665	-0.193632	-0.747149	0.052277	-0.025291	-0.026975	-172.850065	-85.337876	-165.100262
60309	9.727280	-0.162122	-0.774331	0.062229	-0.025531	-0.027991	-172.991372	-85.323694	-164.922219
60310	9.662148	-0.105656	-0.831171	0.087693	-0.025206	-0.029971	-173.129143	-85.309051	-164.733124
60311	9.641704	0.045663	-0.792380	0.092357	-0.029777	-0.025444	-173.237140	-85.292214	-164.571177
60312	9.680729	0.220073	-0.780306	0.064531	-0.033331	-0.023403	-173.347449	-85.272450	-164.422943
60313	9.709364	0.313694	-0.727176	0.017791	-0.037845	-0.016358	-173.440105	-85.250374	-164.319249
60314	9.747151	0.288015	-0.759038	-0.033093	-0.033840	-0.007336	-173.495167	-85.229247	-164.282571
60315	9.793136	0.130265	-0.843884	-0.061428	-0.036216	-0.004447	-173.549366	-85.207308	-164.263010
60316	9.719107	0.036900	-0.961921	-0.058204	-0.033497	0.002998	-173.548127	-85.185715	-164.297268
60317	9.707659	-0.056677	-0.891830	-0.056706	-0.036112	0.005115	-173.534793	-85.163219	-164.342764
60318	9.655083	-0.224968	-0.890644	-0.035845	-0.037548	0.008305	-173.488794	-85.138971	-164.409087
60319	9.687223	-0.299615	-0.886047	0.009416	-0.035821	0.013430	-173.382752	-85.116089	-164.509608
60320	9.700659	-0.292943	-0.941681	0.038536	-0.037690	0.017599	-173.234029	-85.091119	-164.636263
60321	9.723693	-0.125805	-0.968754	0.058014	-0.032776	0.019105	-173.062524	-85.069539	-164.774547
60322	9.776503	0.052750	-1.009182	0.045050	-0.038321	0.020570	-172.893832	-85.043936	-164.917508
60323	9.744205	0.043718	-1.090712	0.018684	-0.033011	0.022393	-172.726333	-85.021917	-165.074401
60324	9.727044	0.024998	-1.100984	0.019170	-0.033727	0.023861	-172.550404	-84.998602	-165.239522
60325	9.726982	-0.101608	-0.986412	0.008491	-0.024574	0.022856	-172.381380	-84.981259	-165.403818
60326	9.711762	-0.218749	-0.942347	0.022745	-0.024460	0.027621	-172.174036	-84.962817	-165.598429
60327	9.726682	-0.231319	-0.873724	0.039262	-0.025803	0.027259	-171.962737	-84.944330	-165.787475
60328	9.769531	-0.134109	-0.871692	0.045464	-0.022447	0.026914	-171.747914	-84.926963	-165.976536
60329	9.782749	-0.048304	-0.856057	0.014263	-0.015820	0.026078	-171.551883	-84.914112	-166.164644
60330	9.702365	-0.110789	-0.865103	-0.008068	-0.012214	0.018514	-171.413716	-84.903153	-166.307547
60331	9.642215	-0.228609	-0.877432	-0.013388	-0.010673	0.012058	-171.319049	-84.894342	-166.409799
60332	9.686466	-0.321453	-0.858668	-0.009918	-0.016149	0.020067	-171.177006	-84.880970	-166.557661
60333	9.658084	-0.309033	-0.911294	-0.001292	-0.021517	0.019755	-171.038509	-84.865298	-166.696965
60334	9.684983	-0.213721	-0.948365	0.008614	-0.026911	0.011375	-170.952647	-84.846560	-166.777764
60335	9.740126	-0.212743	-1.004999	0.024358	-0.035034	0.008622	-170.884258	-84.824205	-166.831927
60336	9.752555	-0.137924	-0.958722	0.024032	-0.031046	0.005307	-170.832629	-84.803660	-166.869487
60337	9.746780	-0.185274	-0.924298	0.022314	-0.020233	0.002616	-170.788705	-84.790217	-166.900262
60338	9.698507	-0.239387	-0.855757	0.027832	-0.018971	0.004929	-170.725677	-84.776529	-166.947084
60339	9.675943	-0.303012	-0.827625	0.016726	-0.020560	0.004882	-170.671740	-84.762686	-166.991131
60340	9.713515	-0.330906	-0.858415	0.043499	-0.026163	0.006744	-170.596350	-84.744761	-167.041353
60341	9.704090	-0.182384	-0.931330	0.054447	-0.028319	0.006325	-170.520512	-84.726387	-167.085692
60342	9.718862	0.011459	-0.911676	0.059697	-0.035011	0.005432	-170.453691	-84.703578	-167.117990
60343	9.710480	0.049089	-0.899960	0.027548	-0.037929	0.006424	-170.403337	-84.679756	-167.152217
60344	9.681814	0.062643	-0.954636	-0.001848	-0.043025	0.003772	-170.390841	-84.652580	-167.165371
60345	9.764230	-0.043271	-0.999058	-0.020377	-0.037865	0.002876	-170.389741	-84.629131	-167.177711
60346	9.703004	-0.172543	-0.980955	-0.026653	-0.029276	0.003110	-170.381765	-84.609786	-167.200601
60347	9.649168	-0.353120	-0.945899	-0.028973	-0.032964	0.000906	-170.392510	-84.589295	-167.205991
60348	9.636486	-0.416425	-1.030531	0.016580	-0.035779	0.006802	-170.344528	-84.565921	-167.244186
60349	9.698269	-0.399218	-0.969560	0.057295	-0.037771	0.007719	-170.270687	-84.542057	-167.284893
60350	9.701679	-0.311729	-0.844141	0.076266	-0.032179	0.007640	-170.180665	-84.520621	-167.330969
60351	9.737338	-0.161391	-0.860706	0.056620	-0.040804	0.005778	-170.122716	-84.495225	-167.356102
60352	9.712411	-0.059337	-0.786980	0.016719	-0.043505	0.009667	-170.067385	-84.467196	-167.401604
60353	9.723390	-0.239045	-0.918729	-0.028433	-0.057084	0.004967	-170.080046	-84.432688	-167.404758
60354	9.723042	-0.307375	-1.025332	-0.002749	-0.048859	0.005972	-170.063261	-84.402011	-167.422742
60355	9.683466	-0.454497	-1.107901	0.017872	-0.048714	-0.005761	-170.102578	-84.373286	-167.372454
60356	9.568082	-0.491598	-0.999241	0.065331	-0.049498	-0.010707	-170.142506	-84.343883	-167.294252
60357	9.623673	-0.681159	-1.041614	0.127912	-0.068241	-0.012998	-170.178171	-84.304836	-167.184270
60358	9.873747	-0.502266	-1.138647	0.241470	-0.060443	-0.004861	-170.093585	-84.268674	-167.129768
60359	9.836543	-0.167522	-1.158998	0.266136	-0.040951	0.005312	-169.920096	-84.243235	-167.150386
60360	9.750978	0.089095	-1.044481	0.234407	-0.045545	0.003235	-169.780605	-84.214678	-167.155128
60361	9.784404	0.119376	-1.035849	0.167371	-0.042390	0.001772	-169.686196	-84.188779	-167.153140
60362	9.744275	-0.042796	-1.083274	0.119483	-0.028921	0.005207	-169.586107	-84.169391	-167.184466
60363	9.661951	-0.210941	-1.095512	0.092653	-0.027054	0.003080	-169.512515	-84.151999	-167.204586
60364	9.673435	-0.241978	-1.053600	0.095472	-0.025035	0.002110	-169.439985	-84.135113	-167.222040
60365	9.659672	-0.262613	-0.971154	0.088759	-0.027679	0.001042	-169.380946	-84.117578	-167.229774
60366	9.651156	-0.293930	-1.059412	0.099664	-0.031324	-0.006348	-169.358965	-84.098043	-167.193994
60367	9.642585	-0.267630	-1.014934	0.110346	-0.025796	-0.009792	-169.344791	-84.082714	-167.144191
60368	9.596977	-0.201039	-0.974340	0.112849	-0.031769	-0.013912	-169.356527	-84.063732	-167.066914
60369	9.640024	-0.100562	-0.976028	0.093418	-0.036159	-0.012851	-169.378754	-84.042890	-166.990261
60370	9.714929	-0.143373	-1.068766	0.076862	-0.039021	-0.015018	-169.423688	-84.019939	-166.900331
60371	9.727178	-0.148241	-1.092239	0.072774	-0.029469	-0.008501	-169.426945	-84.002399	-166.854637
60372	9.706745	-0.091617	-1.092509	0.047722	-0.027439	-0.012557	-169.463151	-83.985706	-166.790265
60373	9.692689	-0.179839	-1.110180	0.022494	-0.028166	-0.012442	-169.514527	-83.969308	-166.725152
60374	9.699467	-0.300218	-1.194622	0.023796	-0.022064	-0.008671	-169.537925	-83.955228	-166.687439
60375	9.765591	-0.340661	-1.174010	0.061851	-0.015351	-0.008249	-169.531462	-83.945608	-166.657810
60376	9.715147	-0.319456	-1.094171	0.072372	-0.013576	-0.012135	-169.536876	-83.936663	-166.610191
60377	9.733775	-0.184350	-1.118513	0.096552	-0.010960	-0.012952	-169.531078	-83.930006	-166.559897
60378	9.701759	-0.040185	-1.029804	0.073331	-0.015476	-0.011508	-169.534324	-83.919924	-166.513906
60379	9.726463	-0.062146	-1.039306	0.046631	-0.013620	-0.013489	-169.562403	-83.911823	-166.458306
60380	9.705586	-0.075704	-1.137996	0.024746	-0.012025	-0.008255	-169.572852	-83.903351	-166.433063
60381	9.666927	-0.141820	-1.145392	0.018387	-0.006671	-0.006152	-169.571505	-83.898403	-166.423329
60382	9.654275	-0.136127	-1.125920	0.016055	-0.009886	-0.005997	-169.572970	-83.890899	-166.412128
60383	9.669736	-0.225411	-1.122890	0.003723	-0.005631	-0.009875	-169.598583	-83.886922	-166.383731
60384	9.638825	-0.341902	-1.111547	0.020411	-0.000516	-0.014239	-169.631832	-83.885547	-166.338054
60385	9.734758	-0.370153	-1.103232	0.036766	-0.002399	-0.017135	-169.673542	-83.884135	-166.274426
60386	9.740528	-0.240531	-1.074564	0.020933	-0.002720	-0.019634	-169.736843	-83.882061	-166.198224
60387	9.686973	-0.191794	-1.149838	0.026926	-0.002624	-0.018230	-169.790105	-83.880620	-166.128649
60388	9.679310	-0.139150	-1.168156	0.018272	-0.001997	-0.022832	-169.870985	-83.879258	-166.036309
60389	9.603371	-0.175992	-1.146578	0.016437	-0.005908	-0.021202	-169.948882	-83.876244	-165.948001
60390	9.622850	-0.266203	-1.051893	0.025758	-0.004483	-0.019302	-170.009125	-83.873098	-165.872074
60391	9.701820	-0.310793	-1.050339	0.037411	-0.010777	-0.012733	-170.034839	-83.866478	-165.824161
60392	9.748632	-0.259019	-1.124050	0.066215	-0.012138	-0.006788	-170.013080	-83.857767	-165.807417
60393	9.758776	-0.097179	-1.102019	0.076008	-0.000470	-0.008267	-169.983663	-83.856520	-165.792710
60394	9.721351	-0.068956	-1.073522	0.047846	0.003942	-0.012343	-169.986693	-83.857434	-165.761604
60395	9.729110	-0.118978	-1.055051	0.022534	-0.000559	-0.012547	-170.010435	-83.856563	-165.724247
60396	9.706697	-0.262598	-1.089219	0.010862	0.006738	-0.014546	-170.043706	-83.859275	-165.684051
60397	9.669353	-0.233375	-1.060179	0.017522	0.008887	-0.015848	-170.078972	-83.864057	-165.637991
60398	9.644816	-0.197542	-1.083809	0.014204	0.007051	-0.018630	-170.131561	-83.867345	-165.576450
60399	9.699555	-0.195356	-1.137710	0.012550	0.005878	-0.021166	-170.200508	-83.870939	-165.499382
60400	9.657602	-0.199303	-1.102826	0.013044	0.005188	-0.019694	-170.261154	-83.873267	-165.430351
60401	9.654234	-0.124805	-1.094311	0.011380	0.004523	-0.019942	-170.325689	-83.875959	-165.358394
60402	9.612732	-0.105239	-1.124421	-0.004450	0.005195	-0.017846	-170.386759	-83.878093	-165.299069
60403	9.649836	-0.154783	-1.087318	-0.013765	0.003758	-0.019741	-170.465434	-83.880317	-165.227383
60404	9.670300	-0.209135	-1.088823	-0.000125	0.004638	-0.016694	-170.518559	-83.882013	-165.173523
60405	9.695076	-0.241983	-1.063951	0.002530	0.003922	-0.013498	-170.554917	-83.883726	-165.135006
60406	9.712013	-0.224246	-1.057604	0.008367	0.000279	-0.012497	-170.584895	-83.882557	-165.099570
60407	9.730194	-0.088424	-1.081622	0.010838	0.007249	-0.012266	-170.607111	-83.886032	-165.070489
60408	9.680156	-0.053945	-1.032494	-0.014802	0.007164	-0.013541	-170.649899	-83.888850	-165.035523
60409	9.721533	-0.141329	-1.100813	-0.017283	0.000701	-0.011486	-170.689849	-83.888546	-165.004811
60410	9.750607	-0.152149	-1.049488	-0.030466	0.010563	-0.015627	-170.749810	-83.893478	-164.961547
60411	9.737924	-0.216159	-1.127556	-0.030489	0.011577	-0.011053	-170.785722	-83.899279	-164.942507
60412	9.674878	-0.258842	-1.124737	-0.015147	0.011100	-0.016909	-170.843389	-83.904619	-164.892778
60413	9.657930	-0.285785	-1.097398	0.007155	0.010876	-0.011541	-170.861031	-83.910064	-164.870420
60414	9.650221	-0.234009	-1.114618	0.019146	0.010591	-0.011022	-170.868322	-83.914583	-164.851500
60415	9.646484	-0.172345	-1.073210	0.015155	0.007211	-0.008816	-170.870094	-83.917707	-164.840493
60416	9.646310	-0.183452	-1.040210	0.009005	0.003856	-0.008332	-170.874692	-83.918168	-164.830183
60417	9.692930	-0.143109	-1.080265	-0.001981	0.002252	-0.008191	-170.887199	-83.918429	-164.818255
60418	9.641931	-0.215106	-1.033474	-0.024124	0.005713	-0.015452	-170.947081	-83.920585	-164.771547
60419	9.687753	-0.280394	-1.075228	-0.008821	0.007271	-0.012147	-170.980302	-83.924041	-164.742728
60420	9.688349	-0.255403	-1.139567	-0.015469	0.004604	-0.013140	-171.023863	-83.925365	-164.707301
60421	9.729780	-0.283639	-1.076001	0.001508	0.006324	-0.011874	-171.050570	-83.928257	-164.679082
60422	9.730980	-0.164151	-1.105403	0.008976	0.014283	-0.015474	-171.084421	-83.935250	-164.639366
60423	9.676463	-0.163260	-1.049411	0.007469	0.016859	-0.017613	-171.129617	-83.944610	-164.589120
60424	9.659580	-0.189852	-1.021468	-0.008855	0.017689	-0.019298	-171.191516	-83.953870	-164.531422
60425	9.692717	-0.260891	-1.009559	-0.008328	0.015477	-0.024694	-171.285143	-83.963053	-164.441578
60426	9.642189	-0.320025	-0.994214	-0.001830	0.014396	-0.024101	-171.371864	-83.970834	-164.355023
60427	9.696373	-0.352245	-0.949966	0.005851	0.013658	-0.029316	-171.484187	-83.979350	-164.238212
60428	9.697663	-0.302306	-1.078346	-0.000165	0.014554	-0.026147	-171.581218	-83.987375	-164.140285
60429	9.686078	-0.258770	-1.153844	0.004989	0.018788	-0.031874	-171.704413	-83.998965	-164.013043
60430	9.724360	-0.271676	-1.212492	0.019799	0.020545	-0.032327	-171.819289	-84.010856	-163.885629
60431	9.711817	-0.275076	-1.157386	0.032749	0.028811	-0.038290	-171.954616	-84.028593	-163.730202
60432	9.661660	-0.333435	-1.140184	0.048338	0.036877	-0.038764	-172.076861	-84.050188	-163.579011
60433	9.691049	-0.342597	-1.085936	0.060531	0.028421	-0.037561	-172.194356	-84.067577	-163.425520
60434	9.683733	-0.276998	-1.133996	0.069702	0.025111	-0.040646	-172.325026	-84.082570	-163.253452
60435	9.708753	-0.225144	-1.039851	0.087282	0.029413	-0.039807	-172.440363	-84.100624	-163.086731
60436	9.691843	-0.167067	-0.943890	0.072639	0.029344	-0.048150	-172.609268	-84.118512	-162.874489
60437	9.692811	-0.139679	-1.005835	0.063950	0.030934	-0.048206	-172.785313	-84.137948	-162.660189
60438	9.689185	-0.157311	-1.029013	0.053133	0.031511	-0.054570	-173.002068	-84.157376	-162.411330
60439	9.676876	-0.147319	-1.005585	0.057567	0.034721	-0.053035	-173.208938	-84.179142	-162.169735
60440	9.656290	-0.193055	-1.002203	0.049267	0.031356	-0.054288	-173.429707	-84.198285	-161.919169
60441	9.673734	-0.160019	-1.025383	0.056380	0.032845	-0.054127	-173.647878	-84.218867	-161.666916
60442	9.695378	-0.093499	-1.055158	0.056591	0.025170	-0.051139	-173.853492	-84.234105	-161.427235
60443	9.708135	-0.105984	-1.040237	0.058237	0.025324	-0.053201	-174.072839	-84.250157	-161.172747
60444	9.678581	-0.018140	-0.989903	0.060995	0.028384	-0.049625	-174.267755	-84.266944	-160.941173
60445	9.741292	0.019309	-0.956438	0.054337	0.026718	-0.046042	-174.450403	-84.283210	-160.725829
60446	9.679464	0.001355	-1.017178	0.040695	0.026786	-0.044542	-174.631587	-84.298674	-160.520175
60447	9.692451	-0.118000	-1.003184	0.047181	0.025213	-0.046241	-174.822496	-84.313953	-160.300660
60448	9.663342	-0.125555	-0.986463	0.052741	0.030311	-0.043656	-174.992025	-84.331260	-160.099686
60449	9.688609	-0.155610	-0.958731	0.061256	0.024983	-0.044003	-175.164295	-84.346165	-159.890810
60450	9.700997	-0.062446	-0.942771	0.064021	0.027531	-0.042722	-175.325439	-84.361742	-159.691620
60451	9.709875	0.019764	-0.985660	0.054074	0.024511	-0.039621	-175.478638	-84.376059	-159.506054
60452	9.702086	0.085428	-1.034947	0.026893	0.022535	-0.045775	-175.682822	-84.388774	-159.285033
60453	9.668759	0.044590	-1.012235	0.011751	0.025142	-0.046436	-175.901583	-84.403614	-159.057964
60454	9.664523	0.003718	-0.970977	-0.012937	0.020817	-0.040573	-176.101143	-84.414988	-158.864661
60455	9.737070	-0.081209	-1.017589	-0.020589	0.021024	-0.037653	-176.290706	-84.426983	-158.685556
60456	9.678856	-0.088766	-1.019972	-0.016027	0.026965	-0.040332	-176.489950	-84.441732	-158.494238
60457	9.708534	-0.073536	-1.031828	-0.000126	0.016032	-0.035150	-176.656446	-84.450672	-158.326538
60458	9.691080	0.007934	-1.002841	-0.004355	0.020824	-0.033662	-176.813413	-84.461588	-158.170865
60459	9.721067	0.034090	-1.047471	0.012945	0.017714	-0.033561	-176.963614	-84.471350	-158.012017
60460	9.708756	0.053667	-1.058066	0.018985	0.022676	-0.027187	-177.069397	-84.483042	-157.894235
60461	9.677568	0.116737	-0.943524	0.001554	0.022549	-0.025374	-177.177198	-84.495273	-157.784547
60462	9.702375	0.074125	-0.883857	-0.015478	0.017992	-0.022445	-177.276961	-84.504124	-157.692592
60463	9.648579	-0.019556	-0.861347	-0.027982	0.020425	-0.017603	-177.356841	-84.514896	-157.627959
60464	9.659332	-0.140245	-0.939250	-0.026044	0.012924	-0.016612	-177.430057	-84.520684	-157.569011
60465	9.697804	-0.166079	-0.965624	-0.014735	0.010704	-0.013332	-177.479859	-84.525768	-157.526970
60466	9.713492	-0.041292	-0.957730	-0.014217	0.009505	-0.014139	-177.532560	-84.529531	-157.481737
60467	9.709041	0.044117	-0.982192	-0.019210	0.009029	-0.007998	-177.553611	-84.533519	-157.471154
60468	9.699022	0.050061	-0.869633	-0.035248	0.016187	-0.013582	-177.613412	-84.541064	-157.431070
60469	9.742097	-0.059582	-0.870078	-0.065017	0.019616	-0.018055	-177.718542	-84.551345	-157.362390
60470	9.726778	-0.180325	-0.875456	-0.074284	0.017561	-0.022290	-177.853212	-84.559883	-157.269392
60471	9.732330	-0.238721	-0.914316	-0.064817	0.006636	-0.022306	-177.987294	-84.562791	-157.171516
60472	9.746191	-0.218278	-0.998960	-0.046373	0.005427	-0.021124	-178.101872	-84.564336	-157.082438
60473	9.754607	-0.136937	-1.043650	-0.012641	0.004889	-0.021162	-178.199707	-84.566185	-156.990944
60474	9.720302	-0.073291	-1.021225	-0.003394	0.019517	-0.030694	-178.344849	-84.575926	-156.846393
60475	9.727568	-0.025627	-0.966911	-0.009340	0.018307	-0.036724	-178.532898	-84.585660	-156.662383
60476	9.698764	-0.022361	-0.983723	-0.008252	0.021221	-0.031077	-178.683976	-84.596279	-156.514908
60477	9.689513	0.007892	-0.935485	-0.012730	0.019532	-0.025751	-178.808544	-84.606483	-156.396620
60478	9.651624	0.049557	-0.938805	-0.014968	0.015256	-0.030168	-178.959856	-84.613610	-156.252971
60479	9.734836	0.019218	-0.874721	-0.031300	0.016966	-0.027340	-179.105898	-84.622304	-156.123803
60480	9.764811	0.045576	-0.919404	-0.060207	0.015764	-0.026964	-179.264387	-84.629635	-155.998827
60481	9.737713	-0.046001	-0.970369	-0.065057	0.016946	-0.029653	-179.444784	-84.638264	-155.854583
60482	9.701588	-0.098470	-1.007567	-0.053607	0.017460	-0.030571	-179.622276	-84.646531	-155.706361
60483	9.700186	-0.212170	-1.066032	-0.024738	0.019706	-0.026345	-179.760251	-84.656653	-155.581526
60484	9.703462	-0.198701	-1.005205	0.002668	0.022447	-0.033477	-179.924195	-84.667699	-155.414636
60485	9.698477	-0.122891	-0.995124	0.023515	0.027753	-0.034347	179.915142	-84.682367	-155.239253
60486	9.735432	-0.052309	-0.986052	0.026171	0.027080	-0.031118	179.777787	-84.695971	-155.085629
60487	9.675387	0.033442	-0.954454	0.027937	0.030482	-0.035089	179.613193	-84.712115	-154.903763
60488	9.717166	0.020024	-0.920417	0.022370	0.025868	-0.035429	179.445007	-84.724937	-154.721804
60489	9.704844	0.039903	-0.930235	0.001153	0.029762	-0.030709	179.290343	-84.740599	-154.565329
60490	9.731161	0.032784	-0.967522	-0.010893	0.025639	-0.033987	179.110456	-84.753202	-154.390608
60491	9.728081	0.014036	-0.991268	-0.015247	0.026654	-0.032887	178.931281	-84.766975	-154.218962
60492	9.729575	-0.100554	-0.957496	-0.005944	0.027179	-0.035531	178.742724	-84.780351	-154.032166
60493	9.693889	-0.153209	-0.993694	0.008808	0.029088	-0.035916	178.556054	-84.795375	-153.839161
60494	9.690953	-0.172121	-1.017162	0.028923	0.028632	-0.034420	178.392243	-84.809481	-153.657570
60495	9.705296	-0.057381	-0.974494	0.047833	0.022546	-0.034362	178.236980	-84.820682	-153.473658
60496	9.745209	0.035333	-0.939292	0.058304	0.029225	-0.033275	178.095491	-84.835060	-153.297522
60497	9.729976	0.138101	-0.882973	0.050061	0.025784	-0.034562	177.937940	-84.848025	-153.110039
60498	9.688174	0.145752	-0.879317	0.033188	0.028638	-0.030967	177.795016	-84.862030	-152.947070
60499	9.704683	0.165170	-0.870366	0.030867	0.026949	-0.023894	177.692500	-84.875822	-152.825894
60500	9.747398	0.173995	-0.901306	-0.002896	0.027863	-0.021667	177.587015	-84.889556	-152.721081
60501	9.737687	0.203422	-0.852304	-0.023050	0.029336	-0.018582	177.485772	-84.904806	-152.632203
60502	9.731029	0.149485	-0.869409	-0.055781	0.028374	-0.015680	177.386931	-84.918957	-152.564618
60503	9.740093	-0.004316	-0.940337	-0.056909	0.026489	-0.016753	177.277825	-84.932598	-152.487324
60504	9.749770	-0.041414	-0.951593	-0.039096	0.023848	-0.010456	177.222947	-84.944276	-152.454147
60505	9.662881	-0.052796	-0.973296	-0.004667	0.029778	-0.010413	177.183052	-84.959961	-152.416289
60506	9.689951	0.054663	-0.950291	0.016467	0.028000	-0.005891	177.187890	-84.974142	-152.411340
60507	9.729564	0.145130	-0.914833	0.028454	0.027361	-0.007572	177.185988	-84.988523	-152.392572
60508	9.739163	0.211901	-0.833158	0.030650	0.031643	-0.003152	177.215668	-85.004870	-152.404305
60509	9.723118	0.194944	-0.836902	0.007586	0.023031	-0.002154	177.238709	-85.016924	-152.422580
60510	9.765916	0.202005	-0.867994	-0.007598	0.025523	-0.002925	177.249970	-85.029771	-152.437884
60511	9.740392	0.224144	-0.858142	-0.015772	0.026346	-0.001544	177.262766	-85.043738	-152.459308
60512	9.720671	0.173460	-0.855604	-0.033788	0.027821	0.003260	177.299322	-85.058075	-152.514811
60513	9.714132	0.117214	-0.873062	-0.035583	0.024934	0.009527	177.374936	-85.071526	-152.610678
60514	9.710675	0.082818	-0.864214	-0.035519	0.028684	0.009893	177.454866	-85.086515	-152.710955
60515	9.731691	0.003426	-0.797488	-0.033856	0.028854	0.007846	177.520099	-85.102147	-152.795405
60516	9.694279	0.052903	-0.832454	-0.027916	0.029568	0.011612	177.616816	-85.117672	-152.907885
60517	9.712774	0.103891	-0.920653	-0.037237	0.029025	0.014216	177.723955	-85.133526	-153.036335
60518	9.657813	0.112804	-0.897338	-0.046070	0.023023	0.013339	177.824876	-85.145301	-153.163585
60519	9.728823	0.107479	-0.876958	-0.054836	0.020771	0.012831	177.915975	-85.156362	-153.286050
60520	9.710415	0.079191	-0.940021	-0.056451	0.024345	0.015234	178.024418	-85.168893	-153.426945
60521	9.708577	0.043261	-0.839980	-0.059053	0.028760	0.012344	178.109072	-85.184484	-153.545363
60522	9.655552	-0.054203	-0.818364	-0.052145	0.023847	0.016429	178.229590	-85.196719	-153.695644
60523	9.676984	-0.122467	-0.785143	-0.055994	0.018886	0.011721	178.315058	-85.206607	-153.813116
60524	9.724333	-0.070763	-0.855120	-0.050026	0.019077	0.013194	178.416730	-85.216016	-153.943424
60525	9.757016	-0.037694	-0.840285	-0.047348	0.017892	0.014142	178.524798	-85.225339	-154.078600
60526	9.745409	-0.009909	-0.883506	-0.046187	0.018747	0.010603	178.612021	-85.234486	-154.191995
60527	9.691094	0.011295	-0.893270	-0.044419	0.022161	0.006640	178.670352	-85.246118	-154.275575
60528	9.712493	-0.056404	-0.860036	-0.042780	0.022847	0.006899	178.733932	-85.257547	-154.363502
60529	9.708895	-0.090448	-0.851978	-0.043898	0.020969	0.005822	178.787779	-85.268472	-154.442279
60530	9.709110	-0.090439	-0.849532	-0.039271	0.030189	0.001281	178.814244	-85.284021	-154.490781
60531	9.734289	-0.124183	-0.821883	-0.033495	0.023898	0.006605	178.879744	-85.296623	-154.575268
60532	9.738283	-0.090544	-0.825369	-0.029537	0.026813	0.002111	178.918736	-85.310233	-154.630830
60533	9.730633	-0.027825	-0.873554	-0.030552	0.028176	-0.000885	178.933684	-85.325195	-154.662900
60534	9.705953	0.006372	-0.895800	-0.031568	0.029540	-0.003881	178.929474	-85.340304	-154.676431
60535	9.676652	-0.004806	-0.879974	-0.038735	0.023726	-0.006840	178.898575	-85.352653	-154.667205
60536	9.714258	-0.054157	-0.840018	-0.046275	0.026090	-0.010532	178.839426	-85.365724	-154.633777
60537	9.745946	-0.146880	-0.853095	-0.052237	0.025393	-0.014341	178.747085	-85.378936	-154.570671
60538	9.781474	-0.205789	-0.871824	-0.017204	0.030631	-0.012548	178.688970	-85.394567	-154.521680
60539	9.766548	-0.092973	-0.846173	0.021328	0.038972	-0.019026	178.602232	-85.415481	-154.421911
60540	9.702021	-0.042597	-0.808008	0.028993	0.034585	-0.024546	178.482997	-85.433197	-154.285160
60541	9.719480	0.104662	-0.768611	0.018178	0.044584	-0.021117	178.376445	-85.457261	-154.167330
60542	9.695750	0.152145	-0.822013	-0.000553	0.039219	-0.018695	178.279501	-85.477691	-154.069753
60543	9.722738	0.144134	-0.857759	-0.023498	0.041842	-0.016748	178.179190	-85.500229	-153.982144
60544	9.730854	0.083479	-0.802945	-0.034971	0.040772	-0.018274	178.062992	-85.521527	-153.885435
60545	9.686319	0.068155	-0.824802	-0.037784	0.043469	-0.012344	177.984462	-85.545060	-153.827888
60546	9.669516	0.040910	-0.795232	-0.042755	0.037151	-0.015856	177.880860	-85.564303	-153.748087
60547	9.641167	0.042565	-0.810899	-0.036780	0.037343	-0.014350	177.788237	-85.584270	-153.675832
60548	9.669146	0.032119	-0.755682	-0.043489	0.036101	-0.008548	177.737601	-85.603041	-153.649487
60549	9.698989	0.045432	-0.765303	-0.050629	0.034533	-0.008851	177.677713	-85.621513	-153.618025
60550	9.725100	0.025003	-0.768989	-0.053281	0.039459	-0.009446	177.612935	-85.642204	-153.582847
60551	9.723593	0.016571	-0.824269	-0.055541	0.036210	-0.009315	177.545373	-85.661618	-153.546513
60552	9.694297	0.005900	-0.807764	-0.055515	0.035706	-0.011629	177.462866	-85.680085	-153.495251
60553	9.683907	0.033982	-0.757859	-0.055025	0.035019	-0.010142	177.388717	-85.698789	-153.452016
60554	9.693850	-0.003421	-0.768666	-0.050190	0.033837	-0.007405	177.340582	-85.716290	-153.432816
60555	9.670971	0.040996	-0.731513	-0.044807	0.031470	-0.005468	177.308544	-85.733082	-153.425942
60556	9.655032	0.024667	-0.735410	-0.035622	0.029794	-0.001472	177.316035	-85.748450	-153.453047
60557	9.684853	0.037202	-0.745514	-0.036772	0.028418	-0.000258	177.329828	-85.763635	-153.487513
60558	9.674290	0.063983	-0.696548	-0.041269	0.021920	0.000006	177.348625	-85.774524	-153.529347
60559	9.720205	0.093197	-0.700508	-0.047448	0.019474	0.004983	177.400515	-85.784725	-153.608147
60560	9.688017	0.059197	-0.712649	-0.060684	0.014463	0.005031	177.450298	-85.791469	-153.692253
60561	9.701611	0.054579	-0.730689	-0.066549	0.021260	0.001962	177.467627	-85.802607	-153.747370
60562	9.684497	0.025539	-0.703902	-0.075089	0.008071	0.006270	177.521102	-85.805745	-153.843399
60563	9.735232	-0.030066	-0.685269	-0.058529	0.013960	0.004477	177.565499	-85.812760	-153.921049
60564	9.700295	-0.085638	-0.725169	-0.064778	0.003523	0.006345	177.627170	-85.813252	-154.019904
60565	9.689001	-0.056813	-0.769546	-0.040745	0.003792	0.010209	177.730129	-85.814566	-154.146055
60566	9.708927	-0.006501	-0.767938	-0.038012	-0.002124	0.006176	177.807962	-85.811808	-154.245274
60567	9.778423	-0.024131	-0.716536	-0.027562	0.005056	0.009775	177.914736	-85.813807	-154.367677
60568	9.784946	0.030536	-0.694272	-0.023616	0.012736	0.010333	178.029243	-85.819623	-154.495310
60569	9.712858	0.025446	-0.771391	-0.017030	0.007014	0.006065	178.112804	-85.822638	-154.588387
60570	9.698356	0.017064	-0.718531	-0.009972	0.009565	0.011006	178.241256	-85.826629	-154.722508
60571	9.702209	0.050060	-0.723030	-0.023672	0.008992	0.009929	178.351220	-85.830816	-154.845873
60572	9.711948	0.010401	-0.736828	-0.022260	0.003666	0.016325	178.516467	-85.831461	-155.023646
60573	9.713562	0.018298	-0.677417	-0.018368	0.003366	0.013784	178.661251	-85.832435	-155.178874
60574	9.710904	-0.004458	-0.703802	-0.027669	0.006039	0.014366	178.808252	-85.834333	-155.341033
60575	9.692079	-0.043965	-0.737136	-0.031477	0.005357	0.012293	178.933680	-85.836375	-155.484385
60576	9.697016	0.001409	-0.774458	-0.024934	0.000126	0.010330	179.050557	-85.834798	-155.615839
60577	9.698595	0.009598	-0.715435	-0.023930	-0.001258	0.013323	179.189275	-85.833013	-155.768180
60578	9.751369	-0.022525	-0.762700	-0.025081	-0.002638	0.014531	179.339614	-85.829867	-155.932430
60579	9.777203	-0.045232	-0.770084	-0.024889	0.003869	0.010727	179.456712	-85.830951	-156.063645
60580	9.762623	-0.054060	-0.717814	-0.021183	0.001295	0.014697	179.609331	-85.830045	-156.228441
60581	9.690956	-0.062763	-0.704545	-0.021185	0.001294	0.014695	179.759898	-85.829618	-156.391087
60582	9.731368	-0.078154	-0.764010	-0.019680	-0.000786	0.019184	179.948891	-85.827424	-156.591449
60583	9.748660	-0.050572	-0.789271	-0.011429	-0.001588	0.017912	-179.869885	-85.825272	-156.779229
60584	9.739023	-0.013660	-0.774815	-0.012481	0.000287	0.017221	-179.691892	-85.823572	-156.964099
60585	9.735169	-0.049143	-0.769481	-0.008629	0.000476	0.016988	-179.516534	-85.822521	-157.144389
60586	9.720586	-0.058440	-0.717080	0.001430	0.007355	0.014511	-179.351474	-85.824884	-157.307402
60587	9.747591	-0.069061	-0.755813	0.007034	0.011484	0.012668	-179.199868	-85.830095	-157.454879
60588	9.708374	-0.043878	-0.727638	-0.000680	0.006876	0.010423	-179.067842	-85.832075	-157.586986
60589	9.713442	0.001213	-0.764426	-0.004626	0.007664	0.015259	-178.902498	-85.835017	-157.754934
60590	9.703893	0.038305	-0.749312	-0.006882	0.004418	0.015373	-178.735171	-85.835471	-157.926074
60591	9.733608	0.048819	-0.761711	-0.011433	0.002645	0.020610	-178.532256	-85.835390	-158.135604
60592	9.702394	0.025718	-0.807568	-0.017935	0.007391	0.020265	-178.332409	-85.837424	-158.345754
60593	9.687797	0.015910	-0.755133	-0.010436	0.001255	0.023599	-178.105684	-85.836384	-158.578582
60594	9.713587	-0.008261	-0.762537	-0.007283	-0.000145	0.028373	-177.837975	-85.833832	-158.850401
60595	9.757909	0.008885	-0.827416	-0.001883	-0.002531	0.030327	-177.555102	-85.830315	-159.134615
60596	9.748383	0.044240	-0.812736	-0.003522	0.005244	0.035450	-177.227595	-85.830494	-159.462938
60597	9.763517	0.044919	-0.772695	0.007997	0.010514	0.039765	-176.860214	-85.833928	-159.826207
60598	9.733925	0.028676	-0.758684	0.003599	0.015741	0.043502	-176.461223	-85.839554	-160.223350
60599	9.758194	-0.006522	-0.824073	0.003925	0.008047	0.046484	-176.043304	-85.840961	-160.639626
60600	9.750408	0.036322	-0.748933	0.002451	0.022820	0.050107	-175.587262	-85.849868	-161.095363
60601	9.729060	-0.031317	-0.716910	-0.015752	0.011089	0.044224	-175.195136	-85.852662	-161.497076
60602	9.761676	-0.236407	-0.736322	0.002316	0.015329	0.049287	-174.748001	-85.856803	-161.944240
60603	9.760417	-0.254084	-0.702643	0.041132	0.014144	0.054988	-174.234913	-85.860291	-162.434551
60604	9.709961	-0.200574	-0.809474	0.061995	0.020431	0.059121	-173.669325	-85.866198	-162.965302
60605	9.663974	-0.116890	-0.830306	0.072309	0.015840	0.059219	-173.101533	-85.869687	-163.492544
60606	9.733344	-0.022279	-0.805741	0.080035	0.015699	0.056438	-172.549009	-85.872353	-163.999880
60607	9.770457	0.035578	-0.703997	0.082708	0.018726	0.060086	-171.963656	-85.876665	-164.538752
60608	9.731281	0.059098	-0.766049	0.059263	0.025374	0.058442	-171.394532	-85.883858	-165.075312
60609	9.738327	0.111365	-0.833470	0.060890	0.026049	0.058708	-170.820678	-85.891658	-165.615178
60610	9.701024	0.140954	-0.744735	0.048117	0.028889	0.065575	-170.192877	-85.899361	-166.216481
60611	9.739065	0.095351	-0.736835	0.013020	0.027566	0.063839	-169.599717	-85.906682	-166.803191
60612	9.717378	0.026123	-0.703333	0.001469	0.031296	0.067202	-168.978292	-85.914687	-167.425012
60613	9.669996	-0.021287	-0.662551	-0.012418	0.028054	0.070293	-168.343955	-85.920649	-168.067605
60614	9.714920	-0.008931	-0.724673	-0.018611	0.025146	0.072924	-167.695759	-85.923574	-168.728101
60615	9.710774	-0.049973	-0.716853	-0.031460	0.024266	0.079385	-167.004858	-85.925230	-169.438332
60616	9.784637	-0.148337	-0.671945	-0.039862	0.021873	0.082519	-166.298794	-85.923969	-170.168940
60617	9.809124	-0.297187	-0.647908	-0.017305	0.032487	0.087309	-165.521234	-85.927819	-170.957919
60618	9.770343	-0.385082	-0.621279	0.000210	0.033097	0.088166	-164.724023	-85.930505	-171.756038
60619	9.692364	-0.333339	-0.747010	0.021550	0.025393	0.083435	-163.967673	-85.929508	-172.501431
60620	9.684665	-0.184120	-0.758822	0.030941	0.025882	0.080961	-163.224473	-85.927857	-173.228316
60621	9.725090	-0.103420	-0.720344	0.015306	0.032459	0.076542	-162.508731	-85.930528	-173.936586
60622	9.746207	-0.166729	-0.718461	-0.006295	0.043149	0.073245	-161.803145	-85.938381	-174.646998
60623	9.756802	-0.306529	-0.764417	-0.013410	0.041164	0.070585	-161.124171	-85.945634	-175.334889
60624	9.758062	-0.410416	-0.704690	0.006450	0.044465	0.069051	-160.435082	-85.953775	-176.021931
60625	9.758098	-0.417255	-0.700161	0.032841	0.046691	0.068283	-159.726800	-85.963278	-176.712625
60626	9.681896	-0.357506	-0.674580	0.059319	0.033736	0.069749	-159.027569	-85.964319	-177.379293
60627	9.703483	-0.104451	-0.571768	0.071224	0.025498	0.067497	-158.361951	-85.961492	-178.005166
60628	9.758249	0.078107	-0.550468	0.030749	0.016887	0.073199	-157.705129	-85.951777	-178.645539
60629	9.742872	0.162993	-0.643690	-0.020055	0.021930	0.086369	-156.965720	-85.941851	-179.397831
60630	9.701441	0.059944	-0.827647	-0.037765	0.018144	0.087349	-156.246976	-85.928493	179.860108
60631	9.731273	0.060034	-0.747183	-0.034715	0.016713	0.092087	-155.499761	-85.913147	179.091546
60632	9.731001	0.047901	-0.654053	-0.055381	0.020364	0.103876	-154.674308	-85.895562	178.232872
60633	9.676265	0.051885	-0.723923	-0.073974	0.015521	0.112087	-153.823444	-85.873078	177.337805
60634	9.723859	-0.025480	-0.763337	-0.082722	0.019375	0.126965	-152.871378	-85.847191	176.335866
60635	9.697524	-0.121808	-0.757572	-0.068272	0.027758	0.140927	-151.793224	-85.821107	175.216125
60636	9.722743	-0.158100	-0.762009	-0.052832	0.030005	0.152911	-150.632999	-85.790726	174.023032
60637	9.740656	-0.147670	-0.692948	-0.033565	0.028136	0.162008	-149.423168	-85.755546	172.791109
60638	9.763658	-0.104845	-0.629133	-0.023735	0.030058	0.176182	-148.131521	-85.714612	171.482873
60639	9.693541	-0.020773	-0.610190	-0.029301	0.026773	0.186234	-146.815017	-85.667297	170.146294
60640	9.668772	0.077156	-0.564710	-0.046345	0.020155	0.204829	-145.454776	-85.608096	168.755958
60641	9.634505	0.109038	-0.600918	-0.076672	0.005827	0.231255	-144.049962	-85.531376	167.303364
60642	9.620595	0.176243	-0.603487	-0.079540	0.006747	0.255453	-142.557462	-85.443545	165.761008
60643	9.605787	0.232110	-0.665217	-0.091136	0.002127	0.284570	-140.986904	-85.340523	164.133464
60644	9.660250	0.183409	-0.743721	-0.098044	-0.001300	0.306197	-139.397539	-85.224111	162.482835
60645	9.877882	0.168205	-0.871446	-0.072516	0.008575	0.326140	-137.724353	-85.100930	160.762464
60646	10.037312	0.061142	-0.831663	-0.055941	0.035541	0.339854	-135.944744	-84.978979	158.944503
60647	9.955358	-0.036003	-0.744709	0.002571	0.070927	0.369862	-133.919498	-84.854354	156.913234
60648	9.764619	-0.102839	-0.799512	0.025732	0.070958	0.403264	-131.846044	-84.709065	154.846439
60649	9.732640	-0.086784	-0.921502	0.040181	0.064525	0.436974	-129.772322	-84.540314	152.787178
60650	9.728928	0.001654	-0.863349	0.083448	0.081966	0.464367	-127.628305	-84.358335	150.681573
60651	9.729914	0.180576	-0.766891	0.083961	0.108169	0.503617	-125.366597	-84.159727	148.457311
60652	9.720904	0.292644	-0.749633	0.076993	0.124661	0.537032	-123.091135	-83.941781	146.214344
60653	9.833720	0.354348	-0.757518	0.091568	0.129775	0.583357	-120.815595	-83.693948	143.978767
60654	9.921106	0.420873	-0.725909	0.125952	0.131214	0.647494	-118.540439	-83.405154	141.762197
60655	10.098584	0.485960	-0.758088	0.167088	0.125574	0.712446	-116.315442	-83.072330	139.618529
60656	10.321059	0.487073	-0.621906	0.200819	0.121867	0.774811	-114.179584	-82.696960	137.582490
60657	10.378010	0.329998	-0.428178	0.183739	0.126325	0.832630	-112.144004	-82.283143	135.635994
60658	10.196041	0.131519	-0.475598	0.175697	0.118746	0.891896	-110.268040	-81.827825	133.843921
60659	9.976009	-0.104999	-0.692099	0.162347	0.043787	0.928981	-108.812340	-81.330946	132.466899
60660	10.306286	-0.326757	-0.696343	0.278655	0.019756	0.965455	-107.492393	-80.805454	131.292772
60661	11.083428	-0.380191	-0.301930	0.496409	0.099982	0.991070	-105.900285	-80.274358	129.967571
60662	11.414305	-0.422753	0.041627	0.617321	0.216710	1.016683	-104.017618	-79.740338	128.415447
60663	11.355537	-0.540655	-0.118447	0.600922	0.272913	1.043663	-102.128752	-79.189584	126.844924
60664	11.297834	-0.408440	-0.189511	0.509821	0.279356	1.082324	-100.424239	-78.609580	125.405973
60665	11.369844	-0.154775	-0.170052	0.411237	0.232293	1.121364	-99.033232	-77.995219	124.226604
60666	11.699159	-0.192242	-0.614879	0.303299	0.220921	1.132370	-97.855560	-77.369072	123.199415
60667	12.099461	-0.423079	-0.645082	0.278193	0.295596	1.111370	-96.618558	-76.755150	122.094259
60668	12.178272	-0.615349	-0.551468	0.202770	0.404831	1.095633	-95.280655	-76.152018	120.837916
60669	11.801929	-0.574788	-0.798639	0.040938	0.471405	1.075919	-93.994559	-75.555886	119.536317
60670	11.073229	-0.185008	-1.006190	-0.099635	0.447019	1.042714	-92.947998	-74.972444	118.395453
