// General information: 
//  MT Manager version: 2022.2.0 
//  XDA version: 2022.2.0 build 7381 rev 124627 built on 2023-07-19
// Device information: 
//  DeviceId: 00B4BAF3
//  ProductCode: MTW2-3A7G6
//  Firmware Version: 4.6.0
//  Hardware Version: 2.0.0
// Device settings: 
//  Filter Profile: human(46.1)
//  Option Flags: Orientation Smoother Disabled, Position/Velocity Smoother Disabled, Continuous Zero Rotation Update Disabled, AHS Disabled, ICC Disabled
// Coordinate system: ENU
PacketCounter	Acc_X	Acc_Y	Acc_Z	Gyr_X	Gyr_Y	Gyr_Z	Roll	Pitch	Yaw
61147	9.634051	1.506032	-0.006222	-0.017368	-0.000343	0.007433	91.093401	-81.096399	1.429549
61148	9.612488	1.478540	-0.002306	-0.015909	-0.001401	0.011356	91.109248	-81.102727	1.403902
61149	9.627761	1.467546	0.014036	-0.014661	-0.002690	0.008206	91.130852	-81.107091	1.374032
61150	9.611667	1.483549	0.039381	-0.013259	-0.003046	0.008785	91.154624	-81.111922	1.344290
61151	9.649733	1.492428	0.010124	-0.008283	-0.002307	0.009522	91.178633	-81.117040	1.315686
61152	9.620713	1.504848	-0.064216	-0.004611	0.000424	0.010065	91.193270	-81.122459	1.296094
61153	9.626383	1.547191	-0.042454	-0.003881	-0.000106	0.012026	91.211974	-81.129036	1.275411
61154	9.571334	1.559891	0.053778	-0.011129	-0.003930	0.011325	91.239649	-81.135204	1.240554
61155	9.562167	1.500387	0.062925	-0.027211	-0.003214	0.012651	91.256522	-81.142097	1.208197
61156	9.610948	1.448889	-0.013442	-0.019009	-0.005586	0.009048	91.286613	-81.146999	1.169214
61157	9.612188	1.441087	-0.055445	-0.010400	-0.004459	0.013287	91.317836	-81.154235	1.132082
61158	9.603883	1.486416	-0.092179	-0.003389	-0.006247	0.016178	91.359141	-81.163068	1.089573
61159	9.640975	1.501363	-0.079971	0.001056	-0.001710	0.015723	91.387137	-81.171730	1.062351
61160	9.650601	1.558219	-0.089129	-0.005128	0.001185	0.015179	91.400443	-81.180147	1.047425
61161	9.643127	1.526925	-0.027151	-0.005858	0.001716	0.013218	91.411683	-81.187420	1.033154
61162	9.656765	1.486972	-0.063018	-0.014060	0.004093	0.016824	91.408728	-81.196882	1.026086
61163	9.654836	1.499033	0.021018	-0.013542	0.003335	0.011712	91.409464	-81.203315	1.017989
61164	9.625541	1.441386	0.087044	-0.017020	0.003881	0.011939	91.405278	-81.209962	1.010496
61165	9.603320	1.378522	-0.003006	-0.010640	0.004255	0.013254	91.404419	-81.217291	1.005695
61166	9.634796	1.350315	-0.011730	-0.002283	0.002807	0.013378	91.413103	-81.224823	0.993859
61167	9.623742	1.374076	-0.058692	0.003998	0.001545	0.014307	91.430811	-81.232716	0.978758
61168	9.647408	1.427780	-0.009523	0.016845	0.006968	0.011019	91.434296	-81.238750	0.985926
61169	9.642980	1.488624	-0.076229	0.006159	0.006038	0.007585	91.435945	-81.242857	0.988326
61170	9.625871	1.511222	-0.008391	0.002936	0.009151	0.011927	91.423323	-81.249723	0.997285
61171	9.588052	1.500631	0.021493	-0.003698	0.006212	0.006496	91.418566	-81.253209	1.000453
61172	9.587052	1.506793	0.063861	-0.017231	0.003662	0.004862	91.415302	-81.255854	0.995152
61173	9.573116	1.397967	0.009902	-0.013953	-0.000154	0.003865	91.428135	-81.257742	0.974578
61174	9.626248	1.397053	-0.002807	-0.001193	0.000587	0.006496	91.444677	-81.261396	0.951616
61175	9.631947	1.439760	0.018963	0.007263	0.000771	0.007007	91.466538	-81.265096	0.934206
61176	9.601885	1.459161	-0.013779	0.012197	-0.000838	0.010704	91.496822	-81.271012	0.909961
61177	9.642808	1.489542	-0.032197	0.016546	0.002059	0.009866	91.519518	-81.276367	0.897088
61178	9.637416	1.556773	-0.057411	0.011347	0.006998	0.015398	91.520063	-81.285037	0.900557
61179	9.599642	1.545889	-0.028077	0.002338	-0.000660	0.009615	91.544790	-81.290205	0.877394
61180	9.620541	1.577995	0.010029	-0.000885	0.002456	0.013957	91.555502	-81.297952	0.865650
61181	9.627397	1.501484	-0.005875	-0.009240	0.003911	0.013831	91.556965	-81.305605	0.859311
61182	9.604720	1.480308	0.039993	-0.010015	0.002104	0.014829	91.564305	-81.313805	0.847855
61183	9.640109	1.466768	0.000314	-0.009287	0.001574	0.016790	91.574834	-81.323116	0.832319
61184	9.634702	1.421805	-0.021324	-0.008086	-0.002056	0.016598	91.599275	-81.332411	0.801424
61185	9.633196	1.391783	-0.073857	0.002745	0.002841	0.017463	91.612079	-81.342125	0.790561
61186	9.654168	1.423418	-0.035648	0.008971	0.002275	0.015049	91.629915	-81.350432	0.780889
61187	9.657216	1.443658	-0.024476	0.006369	0.006267	0.014663	91.631639	-81.358599	0.783334
61188	9.632746	1.394149	-0.031316	0.008243	0.002807	0.013088	91.646116	-81.365840	0.771190
61189	9.638593	1.436364	-0.009238	0.008391	0.006781	0.010514	91.646620	-81.371639	0.776040
61190	9.653799	1.425294	0.007502	0.005387	0.004230	0.008586	91.654400	-81.376503	0.770066
61191	9.631423	1.362781	-0.082776	0.008290	0.005146	0.010129	91.660982	-81.382054	0.768710
61192	9.633304	1.390322	-0.029736	0.016793	0.007659	0.007683	91.661014	-81.386260	0.774625
61193	9.621196	1.421398	-0.034687	0.027424	0.009283	0.007778	91.662660	-81.390534	0.789349
61194	9.605148	1.437568	-0.008905	0.020167	0.005476	0.007073	91.673536	-81.394354	0.790411
61195	9.637578	1.402996	-0.059379	0.023170	0.008030	0.009002	91.677615	-81.399308	0.800208
61196	9.599681	1.392663	-0.029860	0.022342	0.006925	0.006656	91.683501	-81.402955	0.803366
61197	9.630149	1.483741	-0.000787	0.029242	0.006526	0.002862	91.696071	-81.404368	0.808095
61198	9.614881	1.381538	-0.013112	0.026442	0.004214	0.008011	91.716013	-81.408704	0.805908
61199	9.643645	1.443907	-0.036689	0.031569	0.008914	0.006174	91.721240	-81.412055	0.819411
61200	9.628709	1.453271	-0.052844	0.032818	0.004587	0.009333	91.743104	-81.417190	0.815608
61201	9.641022	1.420684	-0.047127	0.031567	0.008919	0.006176	91.748309	-81.420543	0.829133
61202	9.642857	1.448585	0.005827	0.029491	0.009112	0.006980	91.750045	-81.424453	0.839578
61203	9.608889	1.453340	0.004225	0.036238	0.004742	0.005769	91.773737	-81.427500	0.837113
61204	9.588255	1.419249	-0.033561	0.029540	0.008422	0.010327	91.778780	-81.433190	0.847455
61205	9.607409	1.423065	-0.047831	0.037163	0.007495	0.008501	91.792870	-81.437851	0.855235
61206	9.607566	1.422014	-0.047596	0.042290	0.009171	0.012974	91.803120	-81.445197	0.867173
61207	9.620290	1.500889	-0.045918	0.042238	0.009869	0.009629	91.811210	-81.450546	0.883960
61208	9.610731	1.441689	-0.036283	0.032907	0.006250	0.009728	91.826293	-81.455954	0.884513
61209	9.613726	1.462532	-0.025218	0.032384	0.010052	0.008528	91.827898	-81.460677	0.902150
61210	9.642202	1.412733	-0.044628	0.035704	0.005540	0.010893	91.847656	-81.466873	0.898058
61211	9.626208	1.428626	-0.019041	0.033932	0.010648	0.012839	91.848390	-81.474077	0.917471
61212	9.673041	1.502015	-0.015350	0.034708	0.012455	0.011839	91.841460	-81.480873	0.941406
61213	9.633450	1.462684	-0.037855	0.027083	0.013390	0.013661	91.827839	-81.488597	0.971365
61214	9.599586	1.466871	-0.038833	0.019207	0.011736	0.011373	91.814813	-81.495072	0.993717
61215	9.595715	1.451165	-0.006937	0.010034	0.012077	0.008882	91.795802	-81.500034	1.019247
61216	9.573950	1.423816	-0.002271	0.004904	0.007382	0.010725	91.789428	-81.506006	1.019804
61217	9.621449	1.378558	-0.035567	0.009358	0.011913	0.010265	91.770775	-81.511756	1.044580
61218	9.662541	1.408697	-0.052966	0.006458	0.010990	0.008720	91.753176	-81.516744	1.065316
61219	9.629775	1.406348	-0.095594	0.005633	0.009874	0.006375	91.739712	-81.520228	1.082688
61220	9.649460	1.446105	-0.014784	-0.000907	0.017528	0.008330	91.692373	-81.525041	1.126782
61221	9.659358	1.503666	-0.022644	-0.013756	0.015142	0.005292	91.647380	-81.527989	1.164798
61222	9.635121	1.490932	0.066431	-0.031274	0.016943	0.002648	91.584586	-81.529659	1.209677
61223	9.613216	1.464308	0.072420	-0.041122	0.017124	0.001536	91.515841	-81.530475	1.255853
61224	9.638665	1.393507	0.044274	-0.041226	0.015490	0.001157	91.452053	-81.531117	1.295168
61225	9.641735	1.260704	-0.074656	-0.036660	0.009670	0.000381	91.414412	-81.531151	1.312482
61226	9.608693	1.413623	0.015089	-0.032622	0.019642	-0.000893	91.339221	-81.530697	1.364927
61227	9.600083	1.348559	-0.015000	-0.032827	0.016369	-0.001655	91.277829	-81.529647	1.408473
61228	9.564082	1.480040	0.064239	-0.025145	0.017764	-0.006435	91.213796	-81.526103	1.452639
61229	9.564586	1.592045	0.062145	-0.019879	0.020387	0.001775	91.144679	-81.527051	1.511498
61230	9.476474	1.680686	0.018074	-0.002948	0.017025	0.012503	91.096419	-81.534211	1.547607
61231	9.470019	1.718729	-0.058620	0.011387	0.017657	0.022831	91.057146	-81.547176	1.594401
61232	9.451421	1.711445	-0.042899	0.011313	0.012307	0.032109	91.038122	-81.565504	1.617705
61233	9.448778	1.650947	-0.146862	0.004304	0.011086	0.035505	91.020820	-81.585656	1.638182
61234	9.558181	1.591403	-0.061715	-0.006902	0.010946	0.037151	90.996515	-81.606872	1.655376
61235	9.678029	1.470834	-0.023879	-0.010968	-0.002039	0.044732	91.021978	-81.632177	1.623779
61236	9.801213	1.406328	0.118636	0.006095	0.007538	0.059914	91.019878	-81.666435	1.623763
61237	9.768911	1.517596	0.112840	0.019351	0.004467	0.063788	91.038863	-81.702722	1.616275
61238	9.706093	1.691658	0.209530	0.017638	-0.000079	0.062060	91.072709	-81.738279	1.580414
61239	9.685412	1.540202	0.175537	-0.021906	-0.006940	0.069825	91.113970	-81.777898	1.526532
61240	9.621201	1.293538	0.012891	-0.018007	-0.009914	0.064118	91.167733	-81.814345	1.456958
61241	9.560508	1.258927	0.086887	-0.021210	-0.003738	0.062137	91.196896	-81.849586	1.415711
61242	9.564229	1.037660	0.022141	-0.017056	-0.013111	0.053512	91.264215	-81.879876	1.331988
61243	9.627992	0.971256	-0.038857	-0.012185	-0.023012	0.046852	91.375542	-81.906093	1.212976
61244	9.673648	0.894510	-0.127493	-0.006835	-0.020333	0.029092	91.475491	-81.922257	1.092145
61245	9.706645	0.893543	-0.085614	0.008618	-0.015287	0.016564	91.565445	-81.931185	1.006768
61246	9.733047	0.933456	-0.121769	0.019025	-0.013280	0.006250	91.649995	-81.934439	0.919906
61247	9.742278	1.117019	-0.053352	0.030257	-0.010160	-0.001716	91.729708	-81.932949	0.857395
61248	9.727485	1.246422	-0.033521	0.030283	-0.007146	-0.008031	91.796407	-81.927905	0.810752
61249	9.685155	1.342173	0.063134	0.023618	-0.000414	-0.009800	91.831853	-81.921943	0.789109
61250	9.647448	1.410512	-0.006936	0.023827	-0.006120	-0.016061	91.888047	-81.912405	0.741151
61251	9.634211	1.450502	0.028299	0.019970	-0.003810	-0.006997	91.935348	-81.907978	0.705421
61252	9.615031	1.446554	0.041950	0.021872	-0.007972	-0.005210	91.999626	-81.904456	0.650410
61253	9.592863	1.420777	0.044646	0.016216	-0.008846	-0.004576	92.065292	-81.901302	0.593957
61254	9.634001	1.451954	0.025225	0.022590	-0.008493	-0.003243	92.131868	-81.899062	0.535352
61255	9.610012	1.397261	-0.024655	0.007594	-0.012958	-0.002519	92.209357	-81.896977	0.461965
61256	9.648131	1.406686	-0.055011	0.016108	-0.010482	-0.004956	92.279117	-81.893600	0.392496
61257	9.602680	1.361894	-0.006791	-0.002229	-0.009742	-0.009951	92.336750	-81.887310	0.333481
61258	9.612636	1.301956	-0.054612	0.006874	-0.012433	-0.004485	92.410414	-81.884271	0.263421
61259	9.621433	1.249119	-0.061023	0.006577	-0.014342	-0.011947	92.491025	-81.876706	0.186288
61260	9.656544	1.356329	-0.064742	0.010583	-0.006710	-0.010259	92.542512	-81.870363	0.140052
61261	9.644460	1.389273	-0.071515	0.013734	-0.012186	-0.011619	92.618397	-81.863016	0.071834
61262	9.641297	1.368571	-0.083502	0.006112	-0.011225	-0.009800	92.685587	-81.856756	0.008535
61263	9.632241	1.423000	-0.079546	0.014097	-0.007952	-0.007126	92.745376	-81.852072	-0.043216
61264	9.631003	1.430745	-0.038830	0.009120	-0.008669	-0.007872	92.804248	-81.847066	-0.098252
61265	9.592013	1.386441	-0.104696	0.002219	-0.008231	-0.004086	92.858823	-81.844100	-0.151611
61266	9.634975	1.446409	-0.071387	0.004506	-0.005153	-0.004126	92.901862	-81.841197	-0.189988
61267	9.612838	1.420550	-0.068157	-0.002651	-0.007310	-0.004451	92.949823	-81.838036	-0.239486
61268	9.634860	1.447122	-0.072409	0.000570	-0.001477	-0.001764	92.975980	-81.836564	-0.264523
61269	9.645670	1.422417	-0.025204	-0.008662	-0.003435	-0.001287	93.005653	-81.835321	-0.299026
61270	9.699869	1.414279	-0.079831	-0.008618	-0.004118	0.002063	93.037953	-81.836047	-0.337214
61271	9.665913	1.419474	-0.081865	-0.006964	-0.001885	0.006756	93.064125	-81.839449	-0.367197
61272	9.621931	1.485177	-0.036876	-0.008869	0.002275	0.004968	93.071529	-81.842025	-0.380133
61273	9.612976	1.419595	-0.068552	-0.016534	0.003919	0.003439	93.068371	-81.843706	-0.386024
61274	9.608941	1.404335	-0.037171	-0.012404	0.000514	0.008156	93.081177	-81.848005	-0.407459
61275	9.638942	1.383269	-0.004081	-0.015200	0.001237	0.006991	93.090269	-81.851635	-0.424953
61276	9.618093	1.349168	-0.041696	-0.001053	0.001586	0.010229	93.106129	-81.857179	-0.440795
61277	9.610452	1.394602	-0.078330	0.001678	-0.001459	0.014363	93.137325	-81.864941	-0.470848
61278	9.635621	1.322378	-0.108691	0.008944	0.002334	0.015069	93.156725	-81.873301	-0.486150
61279	9.622772	1.359949	-0.072834	0.016350	-0.001904	0.012487	93.197806	-81.879971	-0.517695
61280	9.627083	1.373357	-0.104129	0.015780	-0.000426	0.014252	93.232642	-81.887783	-0.542111
61281	9.651268	1.427141	-0.055815	0.012157	-0.000819	0.010740	93.266677	-81.893483	-0.568965
61282	9.651465	1.425813	-0.055843	0.004794	0.002740	0.016672	93.282314	-81.902763	-0.584502
61283	9.648669	1.402493	-0.066416	-0.002366	0.000588	0.016347	93.303752	-81.911714	-0.607035
61284	9.657778	1.347181	-0.071328	-0.005118	0.000630	0.018533	93.323559	-81.921913	-0.627862
61285	9.629823	1.275805	-0.088789	0.001214	0.001665	0.016510	93.342843	-81.930991	-0.646147
61286	9.658235	1.343924	-0.070886	0.002107	0.005102	0.015888	93.347767	-81.939863	-0.650051
61287	9.669198	1.317732	-0.023005	0.002742	0.005945	0.011154	93.349419	-81.946020	-0.649644
61288	9.623953	1.109669	-0.145967	-0.014156	0.005647	0.010099	93.341085	-81.951599	-0.650800
61289	9.679112	1.136156	-0.105303	0.026512	0.015467	0.012092	93.318025	-81.958609	-0.611681
61290	9.648581	1.281573	-0.058605	0.035624	0.006788	0.004220	93.332613	-81.960901	-0.606540
61291	9.658880	1.339451	-0.067502	0.017721	0.014089	0.000749	93.307395	-81.961377	-0.570329
61292	9.653237	1.213335	-0.031115	0.010046	0.006746	-0.007799	93.304132	-81.956683	-0.561702
61293	9.687425	1.327386	0.008455	0.006533	0.007991	-0.010933	93.294488	-81.950273	-0.547693
61294	9.658571	1.341780	-0.065426	-0.002023	0.006202	-0.011843	93.286837	-81.943432	-0.539394
61295	9.639315	1.338535	-0.050122	-0.004031	0.008724	-0.014014	93.267509	-81.935284	-0.521718
61296	9.651038	1.307821	-0.043551	0.003060	0.008556	-0.010715	93.252670	-81.929110	-0.506981
61297	9.674143	1.328166	-0.088325	0.007888	0.008314	-0.013698	93.241957	-81.921127	-0.491108
61298	9.589935	1.357771	-0.065852	0.009863	0.015468	-0.007863	93.203860	-81.916754	-0.447555
61299	9.598861	1.424010	-0.032607	0.010177	0.011392	-0.013737	93.182135	-81.908845	-0.419234
61300	9.593312	1.417854	0.040945	-0.001279	0.008682	-0.016198	93.163305	-81.899528	-0.402040
61301	9.575163	1.407747	0.014597	-0.014769	0.005492	-0.014509	93.150915	-81.890990	-0.397584
61302	9.608257	1.367867	-0.077034	-0.002426	0.002649	-0.019684	93.155451	-81.879495	-0.402016
61303	9.627678	1.291034	-0.034150	-0.009901	0.004570	-0.014139	93.149640	-81.871138	-0.401388
61304	9.619749	1.338996	-0.070596	0.005277	0.000327	-0.014796	93.168470	-81.862377	-0.417942
61305	9.622577	1.361965	-0.059728	0.011291	0.005441	-0.010939	93.172010	-81.855878	-0.414494
61306	9.618309	1.467227	0.008642	0.013366	0.005242	-0.011738	93.176285	-81.848953	-0.411200
61307	9.681409	1.525321	-0.013297	-0.000122	0.002045	-0.010051	93.187040	-81.842855	-0.421648
61308	9.635336	1.444610	-0.057769	-0.006985	0.001802	-0.002921	93.195872	-81.840811	-0.432052
61309	9.620357	1.455166	-0.073883	-0.009101	0.002683	-0.005472	93.199934	-81.837353	-0.440935
61310	9.588049	1.371289	-0.060127	-0.012679	0.001605	-0.005637	93.205691	-81.833827	-0.452967
61311	9.622002	1.366095	-0.057937	-0.010564	0.000723	-0.003086	93.217249	-81.831670	-0.470270
61312	9.621947	1.366482	-0.057931	-0.012279	-0.003834	-0.004810	93.244527	-81.828498	-0.507143
61313	9.612927	1.301729	-0.090051	-0.009886	0.000885	-0.004468	93.255495	-81.825554	-0.523458
61314	9.671915	1.344748	-0.081140	0.000490	-0.000112	-0.008464	93.274544	-81.820310	-0.542333
61315	9.659865	1.377435	-0.086630	-0.011218	0.003567	-0.008022	93.273240	-81.815420	-0.547022
61316	9.666922	1.414543	-0.106252	-0.004634	0.007204	-0.005927	93.260834	-81.811941	-0.538031
61317	9.624496	1.391310	-0.045328	-0.015052	0.008884	-0.005282	93.236831	-81.808792	-0.522005
61318	9.650650	1.432918	-0.079204	-0.018164	0.004689	-0.007592	93.226243	-81.804284	-0.523396
61319	9.616550	1.439146	-0.080313	-0.020812	0.006366	-0.005029	93.209021	-81.801198	-0.517555
61320	9.653502	1.455554	-0.066679	-0.022742	0.007521	-0.000498	93.186533	-81.800819	-0.506960
61321	9.656469	1.477361	-0.054779	-0.034664	0.007925	-0.000818	93.156129	-81.800190	-0.495821
61322	9.637381	1.472799	-0.038706	-0.043476	0.012527	0.001176	93.101757	-81.800885	-0.466771
61323	9.637448	1.354096	-0.074561	-0.039749	0.005577	-0.001948	93.077528	-81.799534	-0.464813
61324	9.611222	1.312925	-0.038405	-0.032703	0.015082	0.005030	93.020399	-81.802497	-0.425081
61325	9.631593	1.310264	-0.093022	-0.026793	0.009570	0.001487	92.988462	-81.803232	-0.407837
61326	9.639293	1.382222	-0.017591	-0.018851	0.013528	0.000823	92.944144	-81.803810	-0.376109
61327	9.646547	1.299925	-0.073817	-0.017665	0.009889	0.000641	92.915988	-81.804067	-0.357400
61328	9.640539	1.375267	-0.056654	-0.014805	0.011493	-0.001157	92.882496	-81.803510	-0.331852
61329	9.644763	1.389978	-0.086289	-0.009789	0.011519	0.002944	92.852831	-81.805129	-0.307060
61330	9.610789	1.395410	-0.086800	-0.015274	0.014609	0.000993	92.806863	-81.805860	-0.269242
61331	9.641862	1.368035	-0.094128	-0.008326	0.013486	0.000564	92.769740	-81.806167	-0.236067
61332	9.624481	1.391922	-0.025588	-0.013772	0.015887	0.001960	92.719838	-81.807320	-0.190732
61333	9.621534	1.370173	-0.034792	-0.014701	0.013136	-0.000773	92.680193	-81.806845	-0.158700
61334	9.651310	1.349848	-0.000386	-0.019573	0.014063	-0.001143	92.632784	-81.806183	-0.122696
61335	9.670420	1.354520	-0.013340	-0.023937	0.011185	-0.000314	92.595694	-81.805912	-0.098591
61336	9.633441	1.338564	-0.024811	-0.016309	0.010225	-0.002124	92.565940	-81.804734	-0.078803
61337	9.637641	1.353678	-0.054413	-0.009868	0.012905	-0.003748	92.529479	-81.802538	-0.047190
61338	9.628653	1.407356	-0.047766	-0.012484	0.013889	0.002165	92.488251	-81.803796	-0.010745
61339	9.641883	1.368639	-0.082548	-0.007179	0.010540	-0.002964	92.462883	-81.801984	0.011216
61340	9.632884	1.422403	-0.075990	-0.007545	0.015294	-0.000427	92.417184	-81.801751	0.050549
61341	9.644826	1.390512	-0.068802	-0.013202	0.014419	0.000199	92.373502	-81.801838	0.087528
61342	9.628628	1.407720	-0.041894	-0.009660	0.016187	-0.002977	92.323651	-81.800204	0.132999
61343	9.637603	1.354286	-0.045274	-0.015788	0.018426	-0.000200	92.262507	-81.800146	0.186123
61344	9.652459	1.344223	-0.026889	-0.010953	0.018193	-0.003175	92.203945	-81.798440	0.239277
61345	9.668639	1.327372	-0.050259	-0.006657	0.018741	-0.001036	92.146669	-81.797895	0.293779
61346	9.636184	1.361814	0.002059	-0.001245	0.017033	-0.005778	92.098285	-81.794641	0.344180
61347	9.631838	1.347399	0.034792	-0.005192	0.020711	-0.003413	92.033724	-81.792760	0.406891
61348	9.628833	1.326218	0.025866	-0.004039	0.017762	-0.006947	91.980739	-81.788831	0.460215
61349	9.613880	1.337111	0.011052	0.004308	0.016273	-0.006784	91.938850	-81.784917	0.505520
61350	9.613815	1.337566	0.012527	0.009318	0.016293	-0.002675	91.899857	-81.783436	0.550987
61351	9.644437	1.393964	-0.051311	0.014259	0.017699	-0.005262	91.858275	-81.780410	0.601743
61352	9.628135	1.411492	-0.024558	0.008602	0.016823	-0.004642	91.815708	-81.777807	0.647167
61353	9.660576	1.377746	-0.073655	0.009213	0.014656	-0.003060	91.783631	-81.775978	0.685398
61354	9.632331	1.427188	-0.052831	0.005497	0.012632	-0.006969	91.756295	-81.771908	0.717468
61355	9.632240	1.427858	-0.051271	0.005299	0.021361	-0.007009	91.695004	-81.767926	0.782953
61356	9.647020	1.418124	-0.032851	-0.000326	0.019791	-0.003042	91.636734	-81.766232	0.843053
61357	9.632125	1.428767	-0.047407	0.001038	0.020121	-0.005803	91.578141	-81.762901	0.903345
61358	9.646901	1.419025	-0.028797	0.002743	0.024679	-0.004060	91.502415	-81.760712	0.983195
61359	9.646861	1.419340	-0.026564	0.003354	0.022512	-0.002478	91.436118	-81.759300	1.052614
61360	9.634893	1.451488	-0.029987	0.002060	0.024517	-0.002679	91.359844	-81.757835	1.129245
61361	9.630502	1.436921	0.003161	-0.005097	0.022362	-0.003035	91.289297	-81.756076	1.198065
61362	9.600825	1.457565	-0.027681	-0.011541	0.019678	-0.001426	91.225329	-81.755360	1.255319
61363	9.595050	1.414299	-0.047149	-0.011336	0.022961	-0.000654	91.149080	-81.754949	1.326290
61364	9.624661	1.394072	-0.011812	-0.013549	0.022214	-0.003593	91.073655	-81.752934	1.394243
61365	9.608314	1.411341	0.015820	-0.016210	0.023891	-0.001034	90.990942	-81.752288	1.468923
61366	9.623115	1.401136	0.034761	-0.022654	0.021207	0.000573	90.913939	-81.752446	1.534501
61367	9.618721	1.386191	0.068019	-0.026131	0.021772	0.000779	90.834035	-81.752790	1.600600
61368	9.597984	1.388231	0.126446	-0.031893	0.019256	0.001004	90.760134	-81.753355	1.656072
61369	9.614312	1.371095	0.103160	-0.029510	0.011966	0.000632	90.717039	-81.753520	1.683020
61370	9.614343	1.370762	0.104732	-0.023010	0.013261	0.005725	90.672113	-81.756631	1.716550
61371	9.586373	1.383906	0.031509	-0.011083	0.012847	0.006086	90.636322	-81.759921	1.746787
61372	9.611392	1.431352	0.040261	-0.005526	0.012084	0.005090	90.606530	-81.762724	1.776187
61373	9.617460	1.438906	-0.031018	-0.008291	0.012118	0.007262	90.575222	-81.766678	1.803510
61374	9.632368	1.427853	-0.013209	-0.011056	0.012152	0.009434	90.541808	-81.772017	1.830570
61375	9.630911	1.433871	0.029816	-0.018241	0.010697	0.005719	90.510312	-81.775075	1.852322
61376	9.610470	1.400278	-0.007110	-0.023114	0.011629	0.005336	90.473436	-81.778010	1.883753
61377	9.623750	1.396210	0.052496	-0.025298	0.010189	0.005740	90.439871	-81.781074	1.903510
61378	9.640217	1.378391	0.028573	-0.020982	0.010037	0.011239	90.409797	-81.787451	1.923541
61379	9.641639	1.405797	0.082313	-0.014842	0.007797	0.008476	90.391752	-81.792071	1.933669
61380	9.637621	1.354768	0.019686	-0.009841	0.007809	0.012596	90.376051	-81.799111	1.944932
61381	9.612422	1.424069	0.051155	-0.001287	0.009592	0.013554	90.358729	-81.806646	1.962177
61382	9.599439	1.426326	-0.006313	-0.005756	0.005070	0.013971	90.356572	-81.814524	1.961765
61383	9.655756	1.445562	-0.006797	-0.009816	0.007113	0.015943	90.344251	-81.823418	1.969019
61384	9.609839	1.516446	0.080851	-0.021516	0.010126	0.019702	90.312547	-81.834574	1.988245
61385	9.612027	1.389565	0.002132	-0.035963	0.004894	0.015224	90.294027	-81.843048	1.986626
61386	9.601663	1.448344	0.050236	-0.043022	0.004394	0.015243	90.272207	-81.851637	1.981208
61387	9.633275	1.384724	-0.051764	-0.043632	0.006574	0.013667	90.242496	-81.859225	1.986456
61388	9.609494	1.481914	0.032849	-0.048458	0.006116	0.019979	90.209761	-81.870422	1.987978
61389	9.640852	1.452865	0.025556	-0.067476	0.006765	0.016287	90.165578	-81.879510	1.994043
61390	9.663244	1.477458	0.023919	-0.070249	0.006812	0.018463	90.118439	-81.890000	1.997666
61391	9.682870	1.563818	-0.044460	-0.077084	0.008908	0.022615	90.060042	-81.902714	2.012529
61392	9.631348	1.590454	0.022846	-0.094939	0.014202	0.029158	89.968096	-81.919315	2.044824
61393	9.581944	1.659434	-0.101466	-0.104093	0.013939	0.029977	89.873534	-81.936237	2.080582
61394	9.536871	1.778123	-0.161105	-0.124669	0.022347	0.032408	89.732173	-81.954570	2.152019
61395	9.539942	1.949387	-0.011406	-0.177425	0.023570	0.030200	89.555773	-81.971561	2.227991
61396	9.583769	2.055785	-0.119852	-0.249177	0.015911	0.020566	89.368877	-81.983159	2.272631
61397	9.613262	2.066892	0.015365	-0.326489	0.019777	0.019482	89.122003	-81.993964	2.333517
61398	9.699377	1.828372	-0.023693	-0.398690	0.015042	0.022538	88.852235	-82.006636	2.376020
61399	9.706962	1.661204	-0.019821	-0.439953	0.013757	0.016713	88.564286	-82.015852	2.412734
61400	9.774855	1.328352	-0.034915	-0.470001	0.011911	0.012653	88.267026	-82.022869	2.443074
61401	9.824666	0.900099	-0.027162	-0.461850	0.010111	0.016338	87.980745	-82.031887	2.465433
61402	9.766536	0.681614	0.031756	-0.403787	0.022339	0.001474	87.680216	-82.032241	2.537212
61403	9.749843	0.377590	0.030195	-0.361404	0.023769	0.008134	87.396380	-82.036194	2.615214
61404	9.746935	0.239369	-0.020667	-0.262359	0.033024	-0.005455	87.134950	-82.032390	2.727925
61405	9.683129	0.299412	0.045084	-0.179500	0.041490	-0.018234	86.888392	-82.020628	2.873526
61406	9.674084	0.471820	0.100894	-0.110292	0.045959	-0.033208	86.667413	-82.000293	3.032482
61407	9.711316	0.459796	0.023907	-0.055191	0.047241	-0.038145	86.474894	-81.976791	3.195452
61408	9.721274	0.639271	0.066256	0.014971	0.054358	-0.050301	86.297968	-81.946340	3.381031
61409	9.724564	1.010780	0.171880	0.043198	0.055977	-0.057462	86.133994	-81.911324	3.572130
61410	9.649818	1.102496	0.192255	0.061661	0.058065	-0.058660	85.973646	-81.875603	3.770234
61411	9.661526	1.248293	0.096600	0.080190	0.063351	-0.066082	85.807017	-81.835206	3.985462
61412	9.608946	1.509445	0.211868	0.081705	0.063077	-0.058404	85.641061	-81.799185	4.200922
61413	9.631265	1.653421	0.215445	0.082703	0.055407	-0.056185	85.507741	-81.764625	4.383989
61414	9.607679	1.834686	0.211987	0.062258	0.053627	-0.047111	85.367477	-81.735359	4.562268
61415	9.567285	1.802282	0.190060	0.043812	0.049994	-0.039267	85.230112	-81.710588	4.726932
61416	9.591417	1.853201	0.203753	0.025382	0.045578	-0.028100	85.095789	-81.692406	4.877830
61417	9.548713	1.797619	0.169807	0.009742	0.041141	-0.019108	84.968166	-81.679472	5.012937
61418	9.557553	1.745782	0.165925	-0.003901	0.034861	-0.011338	84.854142	-81.671301	5.126503
61419	9.578415	1.661268	0.166468	-0.019271	0.036865	-0.007741	84.723182	-81.664992	5.248188
61420	9.619440	1.607524	0.206978	-0.037106	0.030988	0.001609	84.600811	-81.664320	5.350959
61421	9.599053	1.490089	0.223109	-0.043783	0.025059	0.002289	84.498275	-81.664301	5.429724
61422	9.588856	1.431114	0.232683	-0.038599	0.028983	0.003939	84.382050	-81.665033	5.525188
61423	9.576984	1.462581	0.231347	-0.041771	0.021686	0.007733	84.291675	-81.668266	5.592826
61424	9.627736	1.440006	0.210726	-0.040170	0.023795	0.012499	84.191289	-81.674125	5.671398
61425	9.658562	1.385657	0.149909	-0.045441	0.016699	0.017083	84.114344	-81.682947	5.723337
61426	9.705069	1.431930	0.106679	-0.028585	0.027195	0.018867	84.004482	-81.692206	5.818102
61427	9.696785	1.509039	0.171402	-0.050352	0.028190	0.024406	83.876472	-81.704477	5.918799
61428	9.690075	1.555009	0.140738	-0.060847	0.029998	0.025039	83.733908	-81.716980	6.028247
61429	9.632193	1.536559	0.186415	-0.086133	0.033167	0.024130	83.565307	-81.728705	6.149240
61430	9.581258	1.529741	0.160584	-0.106626	0.033721	0.023167	83.382029	-81.739822	6.273194
61431	9.593948	1.521007	0.223396	-0.134005	0.025099	0.022002	83.217804	-81.750769	6.362043
61432	9.568707	1.385041	0.269782	-0.153916	0.024254	0.019244	83.045712	-81.760202	6.447270
61433	9.588336	1.388197	0.260174	-0.156434	0.017980	0.018329	82.897742	-81.769486	6.506705
61434	9.610012	1.326084	0.313837	-0.146156	0.012160	0.020176	82.776537	-81.780240	6.544857
61435	9.638806	1.275552	0.294917	-0.134176	0.010037	0.027226	82.667681	-81.795120	6.577654
61436	9.648946	1.305787	0.237791	-0.123598	0.009884	0.027040	82.564512	-81.809925	6.610802
61437	9.622958	1.346409	0.220206	-0.105215	0.010324	0.025487	82.471533	-81.823779	6.644320
61438	9.608736	1.355163	0.206535	-0.103130	0.010938	0.021380	82.378457	-81.835287	6.679001
61439	9.603517	1.311050	0.184502	-0.113245	0.008105	0.019346	82.292535	-81.845808	6.700741
61440	9.629463	1.240477	0.152446	-0.116863	0.007918	0.015810	82.206221	-81.854346	6.720950
61441	9.688511	1.280438	0.167800	-0.108375	0.008744	0.013086	82.123705	-81.861255	6.742067
61442	9.683681	1.262441	0.199832	-0.112694	0.009165	0.007599	82.039184	-81.865046	6.762705
61443	9.654765	1.284121	0.170062	-0.107705	0.009801	0.008414	81.955297	-81.869211	6.785594
61444	9.666596	1.250965	0.176131	-0.108420	0.010437	0.006475	81.868629	-81.872247	6.810824
61445	9.732303	1.242688	0.225297	-0.098424	0.013283	0.001449	81.780103	-81.872169	6.843770
61446	9.714557	1.207866	0.145125	-0.085422	0.016950	0.005110	81.681547	-81.873903	6.894270
61447	9.700581	1.243633	0.186678	-0.067113	0.028533	0.000949	81.550719	-81.872250	6.988070
61448	9.666573	1.249444	0.187784	-0.065914	0.025682	-0.002684	81.433275	-81.868801	7.068904
61449	9.649271	1.240222	0.162687	-0.065218	0.025895	-0.004051	81.317118	-81.864487	7.148982
61450	9.612944	1.250334	0.205884	-0.059317	0.030781	-0.007037	81.186006	-81.858059	7.247504
61451	9.644451	1.248900	0.253906	-0.057316	0.028949	-0.008276	81.065157	-81.851034	7.336897
61452	9.675474	1.223116	0.247226	-0.051805	0.027309	-0.013054	80.956313	-81.841471	7.417348
61453	9.646700	1.271902	0.273057	-0.044695	0.028518	-0.016357	80.849898	-81.829863	7.499469
61454	9.616509	1.209011	0.294592	-0.043296	0.028112	-0.015778	80.744949	-81.818650	7.580841
61455	9.608478	1.172798	0.314866	-0.029867	0.028688	-0.021463	80.650180	-81.804098	7.659785
61456	9.630653	1.225817	0.371241	-0.017240	0.026611	-0.022907	80.571181	-81.788954	7.730120
61457	9.593657	1.212905	0.359031	-0.002316	0.026766	-0.020926	80.499939	-81.774855	7.801248
61458	9.614052	1.332598	0.352007	0.012832	0.019787	-0.025884	80.467188	-81.758660	7.842127
61459	9.604205	1.363747	0.308279	0.012228	0.022039	-0.027380	80.427356	-81.741348	7.889942
61460	9.630732	1.385089	0.225057	0.015918	0.023043	-0.020057	80.380241	-81.728119	7.947325
61461	9.657827	1.455288	0.250940	0.017323	0.023453	-0.022796	80.335171	-81.713250	8.003387
61462	9.611669	1.495594	0.246980	0.001599	0.021458	-0.023865	80.288813	-81.698016	8.051527
61463	9.625492	1.461863	0.210836	-0.013744	0.025989	-0.023134	80.216757	-81.682695	8.116877
61464	9.588716	1.473580	0.253000	-0.021048	0.022337	-0.024056	80.154569	-81.667247	8.167926
61465	9.612168	1.435720	0.317100	-0.025966	0.022552	-0.021101	80.087857	-81.653390	8.220802
61466	9.613353	1.346733	0.327444	-0.028452	0.016234	-0.022111	80.043986	-81.639625	8.249109
61467	9.618075	1.365762	0.299928	-0.020454	0.019277	-0.019236	79.992079	-81.627133	8.290215
61468	9.593188	1.344706	0.345104	-0.008336	0.020271	-0.018393	79.941996	-81.615055	8.336475
61469	9.573373	1.340700	0.360492	0.002890	0.017796	-0.017084	79.907921	-81.603915	8.373079
61470	9.600160	1.361411	0.276733	0.009716	0.012470	-0.015094	79.895918	-81.594473	8.391283
61471	9.568549	1.389385	0.287787	0.014721	0.013072	-0.014276	79.884865	-81.585389	8.411470
61472	9.624357	1.411619	0.290358	0.013318	0.013486	-0.014854	79.870941	-81.575982	8.433634
61473	9.568043	1.392418	0.289954	0.011123	0.012885	-0.017831	79.861031	-81.564910	8.450582
61474	9.604223	1.384742	0.251423	0.016035	0.011856	-0.017463	79.856729	-81.554196	8.464643
61475	9.635448	1.384096	0.297155	0.011387	0.016138	-0.009843	79.829256	-81.547299	8.499501
61476	9.613117	1.334302	0.244626	0.025154	0.009596	-0.015355	79.837375	-81.537998	8.506322
61477	9.610409	1.364006	0.342049	0.023323	0.014702	-0.013212	79.824549	-81.529345	8.533287
61478	9.629704	1.371079	0.329336	0.036564	0.010400	-0.013133	79.834673	-81.521218	8.544686
61479	9.576015	1.372387	0.340867	0.041657	0.012644	-0.011860	79.839263	-81.513537	8.564666
61480	9.561385	1.409597	0.379768	0.056481	0.011206	-0.010296	79.855767	-81.506927	8.581049
61481	9.629150	1.399331	0.384920	0.064799	0.007121	-0.007261	79.891367	-81.502398	8.583081
61482	9.613829	1.299676	0.364145	0.082937	0.000995	-0.003477	79.957035	-81.500658	8.565332
61483	9.611278	1.279219	0.350623	0.108543	0.001825	0.002141	80.031370	-81.501962	8.553540
61484	9.582454	1.301838	0.316907	0.144662	0.000844	0.007147	80.125906	-81.506231	8.542319
61485	9.560520	1.274896	0.315876	0.178473	-0.003163	0.012064	80.252723	-81.513618	8.517974
61486	9.565805	1.315987	0.337600	0.207354	-0.006108	0.016623	80.403465	-81.523910	8.486002
61487	9.549089	1.330531	0.359380	0.249260	-0.015735	0.017108	80.615683	-81.535315	8.416322
61488	9.588485	1.340658	0.326094	0.270573	-0.040025	0.021657	80.929119	-81.551536	8.256353
61489	9.725507	1.352040	0.169150	0.287554	-0.039747	0.030059	81.248193	-81.572298	8.100834
61490	9.693085	1.518443	0.269544	0.285734	-0.031203	0.026019	81.536077	-81.589978	7.975910
61491	9.749583	1.537632	0.263613	0.258254	-0.026851	0.022550	81.795159	-81.605181	7.864078
61492	9.722571	1.441580	0.181272	0.227997	-0.022545	0.021212	82.020698	-81.619249	7.768688
61493	9.703248	1.408715	0.136007	0.199866	-0.018491	0.019070	82.217141	-81.631691	7.686365
61494	9.671277	1.348552	0.193127	0.178193	-0.024730	0.010621	82.429013	-81.639810	7.575828
61495	9.717231	1.310274	0.196080	0.153880	-0.015653	0.006207	82.595417	-81.644651	7.497237
61496	9.629667	1.290410	0.147290	0.131727	-0.017328	-0.006686	82.761052	-81.642308	7.406296
61497	9.665291	1.221593	0.211706	0.109954	-0.013242	-0.014555	82.903210	-81.635110	7.326774
61498	9.686207	1.138086	0.206784	0.103052	-0.008850	-0.020396	83.025990	-81.624303	7.262741
61499	9.739213	1.113809	0.140200	0.107429	-0.004415	-0.027766	83.138397	-81.608931	7.211823
61500	9.741882	1.170580	-0.009929	0.114083	0.002336	-0.031743	83.229178	-81.590899	7.186408
61501	9.734138	1.477569	0.050496	0.108159	0.011824	-0.037699	83.283556	-81.568760	7.194571
61502	9.706561	1.780118	0.124862	0.064275	0.010976	-0.045178	83.318379	-81.542499	7.196928
61503	9.688616	1.774445	0.097379	-0.004845	0.013142	-0.053717	83.310051	-81.511158	7.203029
61504	9.638887	1.396454	0.145099	-0.043976	0.020939	-0.056918	83.250215	-81.477531	7.238186
61505	9.606045	1.343372	0.209593	-0.035357	0.010613	-0.056842	83.235698	-81.444581	7.232868
61506	9.600404	1.385768	0.348154	-0.022874	0.006265	-0.055276	83.243113	-81.412879	7.212444
61507	9.551152	1.407180	0.329834	-0.022271	0.004057	-0.053733	83.259297	-81.382140	7.183658
61508	9.593813	1.300444	0.218540	-0.000787	-0.003294	-0.053750	83.314143	-81.351921	7.128340
61509	9.586582	1.518254	0.290711	0.024122	-0.000691	-0.046312	83.370894	-81.325714	7.085403
61510	9.585912	1.469451	0.182662	0.027255	-0.009361	-0.041519	83.458445	-81.302854	7.013270
61511	9.617204	1.584977	0.226163	0.035907	-0.006743	-0.036715	83.539680	-81.282485	6.952389
61512	9.541281	1.535324	0.184477	0.038789	-0.006630	-0.031781	83.618958	-81.264970	6.895432
61513	9.562756	1.564936	0.180698	0.036158	-0.017040	-0.030185	83.735124	-81.248940	6.799349
61514	9.632772	1.551773	0.141865	0.033881	-0.020122	-0.030241	83.859932	-81.233056	6.693416
61515	9.663893	1.554524	0.184161	0.034843	-0.015767	-0.027022	83.968628	-81.218692	6.604121
61516	9.668250	1.514524	0.259001	0.037725	-0.014886	-0.025421	84.073985	-81.205186	6.520889
61517	9.648463	1.485041	0.217239	0.037025	-0.015071	-0.024049	84.179624	-81.192424	6.435945
61518	9.696731	1.444506	0.180777	0.054062	-0.013968	-0.019040	84.287779	-81.182490	6.357626
61519	9.669820	1.515659	0.211215	0.055895	-0.006136	-0.016360	84.368110	-81.173561	6.309231
61520	9.635566	1.469230	0.100091	0.054406	-0.007387	-0.017364	84.451674	-81.164152	6.257895
61521	9.579408	1.503395	0.205411	0.048371	-0.000361	-0.020436	84.507707	-81.152560	6.229724
61522	9.603439	1.526438	0.160604	0.044878	-0.000543	-0.016913	84.560175	-81.143033	6.203339
61523	9.542433	1.576166	0.135994	0.036486	0.001744	-0.020456	84.601506	-81.131308	6.183154
61524	9.576147	1.572680	0.138186	0.023651	-0.002033	-0.017024	84.647298	-81.121795	6.151703
61525	9.583151	1.526647	0.173086	0.013252	0.002078	-0.019375	84.673574	-81.110665	6.133280
61526	9.587734	1.459396	0.196469	0.017970	-0.002152	-0.019802	84.717394	-81.099572	6.100605
61527	9.585043	1.439937	0.184272	0.027753	-0.004047	-0.018995	84.774003	-81.088975	6.059888
61528	9.601756	1.452678	0.211666	0.041369	0.000817	-0.020049	84.819788	-81.077551	6.037469
61529	9.594224	1.417388	0.229888	0.056300	0.002909	-0.017594	84.866810	-81.067386	6.023012
61530	9.552803	1.359928	0.192183	0.075685	0.008045	-0.008788	84.902536	-81.062035	6.031514
61531	9.567195	1.377484	0.261437	0.110776	0.005686	-0.009822	84.968072	-81.056161	6.029910
61532	9.564568	1.468809	0.247664	0.140979	0.002037	-0.001252	85.060445	-81.055426	6.018382
61533	9.559585	1.565281	0.274822	0.154230	-0.001106	0.002730	85.171507	-81.057048	5.995896
61534	9.569292	1.623916	0.264593	0.158309	-0.003815	0.004121	85.293319	-81.059632	5.964765
61535	9.542630	1.666103	0.239810	0.161776	-0.005060	0.007294	85.421775	-81.064030	5.929049
61536	9.564679	1.664814	0.180858	0.146754	-0.010260	0.011122	85.558567	-81.070865	5.876670
61537	9.596347	1.749295	0.167256	0.138351	-0.007977	0.007574	85.684307	-81.075524	5.830117
61538	9.613668	1.620237	0.140865	0.112179	-0.011705	0.013315	85.806237	-81.083639	5.772614
61539	9.650350	1.607734	0.099051	0.112338	-0.008385	0.014134	85.917028	-81.092034	5.726109
61540	9.640918	1.547927	0.104567	0.104653	-0.007421	0.015876	86.018512	-81.101419	5.684034
61541	9.648425	1.583490	0.083034	0.104027	-0.005199	0.014321	86.113141	-81.109770	5.649070
61542	9.607364	1.522805	0.044631	0.092072	-0.004780	0.013871	86.198633	-81.117897	5.615968
61543	9.648871	1.469254	0.081767	0.087263	-0.001462	0.010523	86.271112	-81.123919	5.593702
61544	9.602866	1.393634	0.074642	0.095009	-0.000728	0.009202	86.344710	-81.129194	5.574586
61545	9.646724	1.445950	0.067685	0.096394	-0.001073	0.009806	86.421291	-81.134784	5.553464
61546	9.627414	1.412137	0.027439	0.100825	0.003512	0.009461	86.482816	-81.140046	5.550378
61547	9.673691	1.486169	0.032092	0.101766	0.009375	0.005951	86.525098	-81.143059	5.567085
61548	9.654292	1.481011	0.045509	0.084062	0.008666	-0.001033	86.560461	-81.142169	5.580124
61549	9.659142	1.496218	0.014767	0.073776	0.013634	0.000291	86.572344	-81.141802	5.611368
61550	9.654261	1.481202	0.045752	0.068193	0.015105	-0.002098	86.575092	-81.140065	5.647987
61551	9.673647	1.486451	0.032464	0.062697	0.018219	-0.004094	86.564781	-81.137033	5.695267
61552	9.642018	1.485555	-0.011123	0.061386	0.020241	-0.004294	86.545559	-81.133866	5.750996
61553	9.605469	1.497949	0.028760	0.059202	0.019505	-0.007255	86.529284	-81.128977	5.802287
61554	9.588263	1.543802	0.107712	0.048918	0.025174	-0.009290	86.486016	-81.122774	5.874970
61555	9.588082	1.544820	0.109217	0.043778	0.021149	-0.010896	86.455815	-81.115736	5.931414
61556	9.570947	1.534233	0.082797	0.042385	0.020805	-0.008152	86.424631	-81.110316	5.988081
61557	9.519658	1.585414	0.158840	0.035330	0.020260	-0.008203	86.392346	-81.104841	6.041736
61558	9.577887	1.600778	0.118433	0.030368	0.018814	-0.005682	86.361067	-81.100895	6.091447
61559	9.543764	1.606600	0.116781	0.030281	0.017169	-0.006073	86.336767	-81.096741	6.134092
61560	9.572703	1.587217	0.151718	0.027577	0.020253	-0.010225	86.299737	-81.090130	6.187931
61561	9.558061	1.597743	0.136647	0.015213	0.023253	0.001861	86.242805	-81.090277	6.254869
61562	9.567843	1.543965	0.133462	0.018696	0.021998	0.005036	86.190711	-81.092340	6.318128
61563	9.633255	1.651978	0.178670	0.014002	0.013897	-0.002460	86.168251	-81.090357	6.349471
61564	9.587137	1.577085	0.175057	0.000939	0.018141	0.004306	86.120079	-81.092149	6.397760
61565	9.582246	1.561594	0.207606	-0.001762	0.019804	0.006837	86.064733	-81.095242	6.453248
61566	9.545774	1.572735	0.247934	0.000767	0.013426	0.010209	86.032246	-81.100597	6.485685
61567	9.580292	1.621294	0.143009	-0.003584	0.009793	0.014305	86.010427	-81.108347	6.506179
61568	9.570767	1.561598	0.152755	-0.003670	0.008144	0.013914	85.993585	-81.115955	6.521149
61569	9.588128	1.654980	0.124853	-0.008719	0.004338	0.019380	85.987416	-81.126822	6.522824
61570	9.568777	1.676684	0.191903	-0.022908	0.001586	0.018868	85.982428	-81.137544	6.514994
61571	9.537667	1.673345	0.148095	-0.034664	0.005248	0.019157	85.958082	-81.148247	6.520021
61572	9.542877	1.714327	0.171034	-0.061572	-0.001082	0.029156	85.937949	-81.164975	6.504427
61573	9.565180	1.626026	0.172521	-0.068804	-0.005626	0.031658	85.930736	-81.183264	6.472320
61574	9.565755	1.622576	0.173117	-0.073691	-0.006118	0.037913	85.919789	-81.205128	6.440830
61575	9.534831	1.645689	0.181918	-0.081363	-0.005167	0.039624	85.901684	-81.227953	6.412467
61576	9.586574	1.619447	0.160749	-0.082072	-0.006034	0.044344	85.884140	-81.253576	6.382134
61577	9.555817	1.641729	0.169518	-0.089230	-0.009624	0.050582	85.875262	-81.282849	6.339880
61578	9.539711	1.625357	0.142253	-0.096298	-0.010130	0.050534	85.863378	-81.312175	6.295702
61579	9.562130	1.534842	0.143145	-0.101890	-0.010064	0.054827	85.847954	-81.343895	6.252738
61580	9.626041	1.447234	0.074193	-0.097906	-0.015149	0.059185	85.851915	-81.378331	6.192154
61581	9.643853	1.480840	0.154990	-0.087194	-0.011146	0.056534	85.848841	-81.411072	6.145222
61582	9.647240	1.496678	0.166563	-0.096876	-0.008321	0.059431	85.828127	-81.445440	6.109960
61583	9.708471	1.415346	0.139240	-0.099249	-0.012314	0.055673	85.823108	-81.477741	6.058019
61584	9.718719	1.384074	0.186562	-0.102236	-0.015554	0.057027	85.827802	-81.511040	5.993648
61585	9.670244	1.254524	0.116409	-0.097888	-0.013345	0.059637	85.826825	-81.545648	5.938418
61586	9.729494	1.263508	0.074639	-0.089625	-0.015753	0.056152	85.839788	-81.578454	5.871249
61587	9.671671	1.243510	0.116061	-0.077314	-0.008140	0.051565	85.833212	-81.608232	5.833604
61588	9.635756	1.222582	0.102259	-0.077925	-0.005922	0.050007	85.816912	-81.637142	5.802369
61589	9.642969	1.142981	0.085145	-0.065564	-0.010397	0.044559	85.828054	-81.663012	5.753626
61590	9.670840	1.208030	0.104991	-0.050646	-0.007581	0.043695	85.836337	-81.688374	5.715418
61591	9.647732	1.267871	0.094123	-0.037305	-0.007687	0.041422	85.854312	-81.712336	5.676138
61592	9.617129	1.318670	0.155480	-0.035210	-0.007153	0.037309	85.872028	-81.734016	5.638576
61593	9.668234	1.265222	0.079943	-0.030049	-0.003169	0.038946	85.877367	-81.756374	5.616270
61594	9.659586	1.315071	0.085818	-0.023963	-0.007064	0.035809	85.901331	-81.777180	5.576798
61595	9.636775	1.403055	0.128252	-0.030747	-0.002603	0.036983	85.904780	-81.798391	5.556000
61596	9.629533	1.362576	0.147522	-0.028656	-0.002802	0.036209	85.909597	-81.819276	5.533860
61597	9.649258	1.336657	0.080548	-0.034519	-0.006214	0.032607	85.926642	-81.838133	5.497146
61598	9.678525	1.312405	0.113576	-0.035310	-0.007299	0.030234	85.947392	-81.855783	5.455178
61599	9.688242	1.283396	0.160590	-0.032230	-0.002389	0.029310	85.951622	-81.872597	5.432736
61600	9.685924	1.259070	0.149249	-0.027449	-0.004997	0.029318	85.968107	-81.889601	5.399651
61601	9.669169	1.245429	0.121454	-0.007940	0.003935	0.028524	85.961212	-81.905711	5.402506
61602	9.627759	1.211570	0.138045	-0.006042	0.000441	0.026932	85.968751	-81.921097	5.391085
61603	9.611276	1.225564	0.163377	0.010287	0.002818	0.026655	85.977338	-81.936184	5.388850
61604	9.638965	1.264811	0.130422	0.018553	-0.000384	0.026481	86.002500	-81.951351	5.373792
61605	9.579277	1.310953	0.105452	0.032601	-0.000362	0.022826	86.037906	-81.964375	5.357384
61606	9.582332	1.330080	0.116310	0.032591	-0.001086	0.026168	86.074325	-81.979445	5.338430
61607	9.593279	1.386028	0.107975	0.036775	-0.001498	0.024616	86.116420	-81.993534	5.317683
61608	9.596357	1.405228	0.118507	0.031600	-0.005459	0.022982	86.171158	-82.006903	5.280343
61609	9.622730	1.360319	0.139328	0.037868	-0.006806	0.023995	86.235940	-82.020833	5.237321
61610	9.625809	1.379587	0.149618	0.030205	-0.005069	0.022389	86.288959	-82.033896	5.200998
61611	9.646057	1.409635	0.187963	0.028802	-0.005409	0.025135	86.342878	-82.048414	5.163703
61612	9.697111	1.384678	0.164563	0.011673	-0.009590	0.026382	86.403041	-82.063870	5.109733
61613	9.694678	1.360973	0.152071	0.021443	-0.010083	0.020532	86.473465	-82.075911	5.051519
61614	9.673091	1.360225	0.206673	0.016064	-0.005990	0.022300	86.522698	-82.088869	5.011378
61615	9.670174	1.309261	0.141416	0.006713	-0.008810	0.018880	86.580199	-82.099906	4.957693
61616	9.664848	1.264561	0.118007	0.004029	-0.006401	0.018093	86.625368	-82.110444	4.914274
61617	9.634345	1.172517	0.085731	0.014990	-0.010573	0.012026	86.696829	-82.117606	4.851286
61618	9.620116	1.181936	0.068151	0.015290	-0.005635	0.013243	86.746715	-82.125347	4.809586
61619	9.654158	1.175045	0.069992	0.020674	-0.009006	0.008133	86.816073	-82.130213	4.752011
61620	9.635188	1.197201	0.135823	0.027049	-0.007991	0.006209	86.884305	-82.133990	4.698950
61621	9.643200	1.233604	0.115471	0.031932	-0.008240	0.003283	86.958163	-82.136038	4.643345
61622	9.626986	1.277839	0.192482	0.028356	-0.008572	-0.000283	87.031191	-82.136109	4.586677
61623	9.628855	1.244093	0.096323	0.032429	-0.011356	0.001103	87.118755	-82.136980	4.517524
61624	9.673067	1.268670	0.036578	0.040287	-0.009793	0.003521	87.202689	-82.139224	4.456190
61625	9.630915	1.355521	0.091467	0.049053	-0.004047	0.002030	87.269341	-82.140397	4.417763
61626	9.652761	1.354033	0.034580	0.040991	-0.008897	-0.001191	87.351030	-82.139898	4.359454
61627	9.663520	1.412262	0.025403	0.035018	-0.003323	0.002349	87.406601	-82.141222	4.324094
61628	9.627847	1.451775	0.116577	0.028643	-0.004335	0.004277	87.461334	-82.143713	4.286053
61629	9.627918	1.451352	0.115987	0.007648	-0.002442	0.004954	87.497129	-82.146498	4.254827
61630	9.591278	1.435194	0.101406	0.002362	-0.008773	0.006272	87.554879	-82.150244	4.198048
61631	9.608086	1.417710	0.075465	-0.001820	-0.008351	0.007826	87.609354	-82.154808	4.142491
61632	9.622623	1.406222	0.091194	-0.011186	-0.012613	0.011100	87.674607	-82.161379	4.070549
61633	9.645115	1.431425	0.087649	-0.016651	-0.009450	0.009116	87.725089	-82.166691	4.010446
61634	9.625784	1.425533	0.101050	-0.026313	-0.007294	0.015374	87.759019	-82.175575	3.961246
61635	9.620912	1.408631	0.131040	-0.030108	-0.012354	0.017692	87.812700	-82.185849	3.890133
61636	9.637847	1.390132	0.105005	-0.037380	-0.016104	0.016848	87.876979	-82.195729	3.804089
61637	9.627314	1.330069	0.111999	-0.038781	-0.016435	0.019597	87.942817	-82.207158	3.715695
61638	9.655812	1.279161	0.091129	-0.034507	-0.015926	0.021790	88.007707	-82.219850	3.630536
61639	9.658363	1.270837	0.048078	-0.017693	-0.017412	0.022655	88.089774	-82.233020	3.537962
61640	9.673058	1.257999	0.063545	-0.016585	-0.010660	0.022897	88.143141	-82.246226	3.474538
61641	9.630781	1.315369	0.065779	-0.014700	-0.014161	0.021311	88.213951	-82.258539	3.395060
61642	9.625963	1.297975	0.095144	-0.021769	-0.014615	0.021276	88.281745	-82.270879	3.314146
61643	9.631350	1.311299	0.063724	-0.029324	-0.011226	0.020080	88.332389	-82.282413	3.246568
61644	9.659712	1.260739	0.042837	-0.027642	-0.017298	0.014341	88.409378	-82.290776	3.153394
61645	9.672107	1.254644	0.100032	-0.033812	-0.015008	0.017086	88.474171	-82.300632	3.068946
61646	9.655014	1.242359	0.071091	-0.033911	-0.015929	0.013340	88.542284	-82.308377	2.981161
61647	9.666677	1.209027	0.075227	-0.031122	-0.015972	0.011186	88.613680	-82.314841	2.891609
61648	9.646606	1.175742	0.034806	-0.031228	-0.017613	0.010782	88.691041	-82.321127	2.795828
61649	9.666930	1.207153	0.072756	-0.022651	-0.014461	0.005128	88.761694	-82.324070	2.711925
61650	9.655527	1.238621	0.066462	-0.023945	-0.013152	0.008284	88.824737	-82.328839	2.634979
61651	9.678773	1.291581	0.115957	-0.013387	-0.012582	0.004784	88.892867	-82.331538	2.558980
61652	9.647671	1.200780	0.083532	-0.021256	-0.014118	0.002381	88.962249	-82.332912	2.477472
61653	9.691765	1.225362	0.023931	-0.016486	-0.016743	0.002380	89.046577	-82.334249	2.383338
61654	9.664299	1.183724	0.055654	-0.012894	-0.014976	-0.000745	89.124686	-82.333814	2.297890
61655	9.683755	1.188718	0.040491	-0.008603	-0.013040	-0.005245	89.198259	-82.330718	2.219165
61656	9.667123	1.206070	0.064608	-0.007206	-0.012702	-0.007995	89.270137	-82.326089	2.142663
61657	9.657669	1.232964	0.016783	-0.006089	-0.005959	-0.007745	89.315040	-82.321487	2.094319
61658	9.646637	1.175755	0.023867	-0.003610	-0.010212	-0.014463	89.378574	-82.313112	2.028581
61659	9.680546	1.288982	0.065594	-0.005806	-0.011640	-0.014087	89.447850	-82.304896	1.955804
61660	9.623278	1.242774	0.011331	0.001160	-0.012836	-0.014467	89.524852	-82.296511	1.878968
61661	9.652122	1.340533	0.083667	-0.003298	-0.005280	-0.013243	89.568318	-82.288727	1.833684
61662	9.630883	1.282291	-0.009340	-0.000024	-0.009164	-0.014246	89.628894	-82.280438	1.772881
61663	9.622879	1.364628	0.049090	0.003564	-0.008118	-0.014030	89.688089	-82.272200	1.715689
61664	9.639263	1.349183	0.022996	0.000775	-0.008073	-0.011872	89.744273	-82.265226	1.660508
61665	9.636208	1.328814	0.010817	-0.002117	-0.009672	-0.010120	89.806473	-82.259217	1.596997
61666	9.669190	1.296394	-0.040427	-0.006785	-0.005405	-0.009708	89.846806	-82.253484	1.552769
61667	9.671957	1.318838	-0.029575	-0.002605	-0.005831	-0.011275	89.892397	-82.246794	1.505736
61668	9.655256	1.336563	-0.004603	-0.005880	-0.001949	-0.010271	89.918772	-82.240720	1.476830
61669	9.653007	1.343585	0.037203	-0.012149	-0.000585	-0.011263	89.936716	-82.234027	1.452180
61670	9.649931	1.323434	0.025767	-0.018137	-0.005622	-0.015255	89.971277	-82.225086	1.407708
61671	9.663391	1.168851	-0.050942	-0.016122	0.003853	-0.012224	89.968248	-82.217838	1.401927
61672	9.604078	1.246315	-0.021516	-0.004173	0.004049	-0.015143	89.970017	-82.208985	1.397446
61673	9.570761	1.163296	-0.010738	-0.018419	0.001505	-0.015596	89.975486	-82.199806	1.381759
61674	9.718507	1.489821	0.178466	0.000186	-0.005141	-0.016776	90.018299	-82.190004	1.339277
61675	9.633642	1.314379	-0.043527	-0.018549	-0.010739	-0.023565	90.074638	-82.176251	1.272167
61676	9.689170	1.162035	0.024226	-0.034343	0.007921	-0.023658	90.042899	-82.162512	1.284458
61677	9.727077	1.352458	0.185714	-0.024795	0.003410	-0.027014	90.036585	-82.146790	1.276976
61678	9.607767	1.038345	-0.131512	-0.006678	-0.000844	-0.022667	90.057141	-82.133620	1.252431
61679	9.610932	1.412578	0.215808	-0.010736	0.013275	-0.019806	90.018002	-82.122031	1.286218
61680	9.673119	1.329462	-0.110737	0.038231	-0.003079	-0.025907	90.073423	-82.106991	1.252722
61681	9.578459	1.417039	0.171634	-0.006270	0.005725	-0.021037	90.068081	-82.094694	1.254973
61682	9.689335	1.580160	-0.001656	0.009368	0.008627	-0.023332	90.058646	-82.081144	1.270247
61683	9.603338	1.526343	0.073305	-0.024117	-0.009206	-0.025931	90.104483	-82.066030	1.210500
61684	9.659899	1.576364	0.126073	-0.048817	-0.010711	-0.022467	90.141381	-82.052975	1.145737
61685	9.671220	1.458554	-0.070615	-0.069542	-0.015915	-0.021381	90.188399	-82.040446	1.058515
61686	9.651130	1.398320	0.050907	-0.076912	-0.009964	-0.018390	90.205468	-82.029688	0.996672
61687	9.654068	1.303772	0.021961	-0.074625	-0.006874	-0.018351	90.212333	-82.018904	0.947050
61688	9.630505	1.369530	0.012042	-0.071942	-0.010003	-0.014235	90.232470	-82.010521	0.885626
61689	9.638769	1.435085	0.046433	-0.067663	-0.008767	-0.015390	90.250938	-82.001425	0.828312
61690	9.638557	1.436497	0.046643	-0.083910	-0.009453	-0.014638	90.261748	-81.992784	0.769771
61691	9.634824	1.389422	-0.017923	-0.102455	-0.013203	-0.013919	90.278214	-81.984516	0.694348
61692	9.637230	1.354114	0.101494	-0.106348	-0.007837	-0.011101	90.269609	-81.977949	0.641612
61693	9.648790	1.322952	0.106955	-0.105066	-0.009836	-0.010915	90.270820	-81.971411	0.580080
61694	9.627799	1.265081	0.014358	-0.097402	-0.011566	-0.009340	90.282382	-81.965792	0.513149
61695	9.664617	1.339733	-0.078682	-0.087343	-0.007847	-0.010650	90.285578	-81.959409	0.459866
61696	9.643149	1.399509	-0.129434	-0.096221	-0.003146	-0.008624	90.263808	-81.954215	0.428208
61697	9.652886	1.517921	0.013691	-0.106603	0.001057	-0.010932	90.219845	-81.947697	0.411406
61698	9.617330	1.471456	-0.094083	-0.120879	-0.001439	-0.011365	90.176858	-81.940952	0.386150
61699	9.606863	1.558076	0.010428	-0.131069	0.006062	-0.012826	90.098670	-81.933361	0.389757
61700	9.613545	1.510855	0.047899	-0.145248	0.003718	-0.006164	90.021219	-81.929583	0.386397
61701	9.594566	1.389105	0.021993	-0.148164	0.002158	-0.004401	89.949147	-81.926818	0.373934
61702	9.622328	1.458235	0.045737	-0.144496	0.004884	-0.003743	89.867348	-81.924467	0.374039
61703	9.586253	1.469282	0.087510	-0.142021	-0.001526	-0.000489	89.813671	-81.923953	0.346552
61704	9.552326	1.474842	0.087130	-0.149028	-0.001034	0.003276	89.753003	-81.925661	0.321873
61705	9.611327	1.516197	0.101404	-0.149855	-0.002036	0.000914	89.696881	-81.925961	0.292322
61706	9.594555	1.388986	0.031938	-0.153775	-0.008690	0.002772	89.664620	-81.927405	0.236719
61707	9.613515	1.510500	0.062829	-0.150803	-0.006155	0.004813	89.624508	-81.929959	0.190449
61708	9.643363	1.513692	0.150720	-0.175907	-0.011652	0.003741	89.590998	-81.931948	0.122773
61709	9.733301	1.385563	0.057587	-0.195033	-0.010619	0.000062	89.543725	-81.931808	0.058141
61710	9.676896	1.222821	-0.039121	-0.190680	-0.007680	-0.000627	89.486407	-81.931315	0.006816
61711	9.639274	1.121582	-0.000172	-0.168833	-0.007813	-0.002392	89.442887	-81.929770	-0.046445
61712	9.639959	1.147519	0.055228	-0.148074	-0.001879	-0.006773	89.386626	-81.925730	-0.074437
61713	9.620981	1.026411	0.025332	-0.142501	-0.015471	-0.005532	89.389223	-81.922443	-0.159040
61714	9.659779	1.037399	-0.001727	-0.091205	0.001489	0.000367	89.351619	-81.922456	-0.172488
61715	9.658520	1.128386	-0.010799	-0.049414	-0.009149	-0.003124	89.381905	-81.920513	-0.231187
61716	9.573513	1.271896	0.055298	-0.027703	-0.002203	0.001953	89.395466	-81.921494	-0.260353
61717	9.625659	1.362067	0.034517	-0.026303	-0.002607	0.002531	89.412344	-81.922747	-0.292136
61718	9.591744	1.367678	0.032332	-0.019202	-0.002205	0.002531	89.430609	-81.924070	-0.321714
61719	9.594607	1.388288	0.044480	-0.020699	-0.004226	0.004841	89.457163	-81.926652	-0.360027
61720	9.630170	1.493996	0.049462	-0.025809	-0.005672	0.000282	89.485776	-81.926675	-0.403283
61721	9.636309	1.419589	0.028650	-0.037309	-0.009706	0.004327	89.525002	-81.928984	-0.464006
61722	9.664705	1.371278	0.006157	-0.027202	-0.006853	0.006358	89.557350	-81.932494	-0.512220
61723	9.691051	1.327187	0.025996	-0.032606	-0.001962	0.004930	89.568003	-81.935106	-0.541364
61724	9.670968	1.295869	-0.014154	-0.023895	0.000498	0.009708	89.572613	-81.940494	-0.559159
61725	9.668281	1.273918	-0.026045	-0.017490	0.000700	0.011080	89.581009	-81.946617	-0.577275
61726	9.629592	1.262113	0.001871	-0.008889	0.003118	0.008769	89.583474	-81.951452	-0.584603
61727	9.650653	1.317099	0.097006	-0.002488	0.004115	0.006816	89.586779	-81.955118	-0.588895
61728	9.627735	1.264861	0.044688	0.000314	0.003301	0.007969	89.593896	-81.959508	-0.595623
61729	9.663810	1.254139	0.005046	0.002909	0.000021	0.004918	89.616969	-81.962102	-0.616756
61730	9.661053	1.232651	-0.006866	0.012621	0.008363	0.006316	89.610666	-81.965514	-0.602542
61731	9.627169	1.238071	-0.008612	0.018818	0.006096	0.003485	89.618249	-81.967263	-0.598827
61732	9.627164	1.238106	-0.008388	0.022106	0.003807	-0.004265	89.636230	-81.964644	-0.603689
61733	9.641660	1.227083	0.007944	0.028815	0.008905	-0.001573	89.638277	-81.963485	-0.588598
61734	9.623115	1.308437	-0.029050	0.039519	0.010317	-0.001354	89.639631	-81.962502	-0.566670
61735	9.631567	1.371443	0.008004	0.039517	0.010321	-0.001352	89.642062	-81.961465	-0.545774
61736	9.635107	1.417875	0.074824	0.036612	0.009504	-0.002944	89.645164	-81.959581	-0.527263
61737	9.642076	1.430220	0.003346	0.033117	0.008537	0.003927	89.651035	-81.961575	-0.513543
61738	9.634432	1.392090	0.021542	0.036222	0.012628	0.006398	89.640964	-81.965027	-0.481953
61739	9.622814	1.423754	0.018140	0.033816	0.007944	0.005882	89.649584	-81.968143	-0.470605
61740	9.642381	1.428155	0.004772	0.035526	0.010857	0.014426	89.646080	-81.976208	-0.446216
61741	9.620317	1.400553	0.007088	0.028522	0.012886	0.011535	89.631405	-81.982546	-0.414408
61742	9.637094	1.383748	-0.017998	0.027822	0.012696	0.012910	89.615948	-81.989726	-0.382355
61743	9.635183	1.386828	0.024788	0.030621	0.011889	0.014069	89.606390	-81.997516	-0.354500
61744	9.599338	1.395743	0.065280	0.014320	0.011305	0.014856	89.588735	-82.005815	-0.328044
61745	9.636314	1.409328	0.080633	0.027922	0.013546	0.016677	89.570695	-82.015091	-0.293188
61746	9.591256	1.329870	0.030600	0.017015	0.009655	0.012252	89.561319	-82.021894	-0.273398
61747	9.606347	1.458690	0.146170	0.013022	0.011773	0.021368	89.541737	-82.033864	-0.245606
61748	9.586430	1.426280	0.106496	0.014011	0.006410	0.013549	89.543845	-82.041423	-0.239058
61749	9.578144	1.361737	0.070621	0.006314	0.006668	0.018680	89.541364	-82.051875	-0.232414
61750	9.651254	1.364400	0.045824	0.017612	0.005065	0.023754	89.550734	-82.065294	-0.231218
61751	9.614063	1.321747	-0.022382	0.017713	0.007488	0.020863	89.551331	-82.076993	-0.221088
61752	9.625751	1.403619	0.026719	0.015118	0.010782	0.023903	89.535675	-82.090476	-0.196254
61753	9.615368	1.342979	0.033053	0.007711	0.006271	0.019261	89.535562	-82.101263	-0.191194
61754	9.635088	1.346363	0.019757	0.003409	0.005067	0.020413	89.536892	-82.112761	-0.189915
61755	9.660534	1.391711	0.030861	0.000816	0.009147	0.020125	89.520871	-82.124028	-0.172784
61756	9.633512	1.346779	0.063275	-0.016986	0.006562	0.023213	89.504031	-82.137136	-0.165696
61757	9.667702	1.338817	0.066595	-0.008382	0.009757	0.017583	89.480202	-82.146943	-0.146003
61758	9.639884	1.268676	0.045005	-0.011986	0.007959	0.020689	89.460519	-82.158587	-0.132652
61759	9.662472	1.293019	0.044262	-0.004186	0.008541	0.019325	89.443978	-82.169397	-0.117891
61760	9.690831	1.359270	0.067644	-0.000691	0.007135	0.022440	89.434075	-82.182054	-0.107940
61761	9.684630	1.289762	-0.009727	-0.011080	0.011424	0.020188	89.401417	-82.193340	-0.080899
61762	9.718082	1.372343	-0.015526	-0.002171	0.017161	0.025853	89.348337	-82.207893	-0.028582
61763	9.679469	1.359406	0.013728	-0.009969	0.017372	0.023888	89.290973	-82.221252	0.024035
61764	9.689900	1.390212	-0.043931	-0.016058	0.022081	0.023813	89.209110	-82.234573	0.097856
61765	9.667891	1.361485	-0.039699	-0.034954	0.024831	0.027623	89.105364	-82.249989	0.182833
61766	9.653802	1.254011	-0.097536	-0.032155	0.024808	0.025459	89.001869	-82.264191	0.268631
61767	9.618730	1.287538	-0.000754	-0.035443	0.029496	0.023220	88.877754	-82.276991	0.373876
61768	9.635030	0.535382	-0.131069	-0.034061	0.035632	0.048209	88.724702	-82.304035	0.509268
61769	9.729442	1.729571	0.333584	0.085579	0.031185	0.013715	88.662771	-82.311308	0.621724
61770	9.585949	1.285260	0.005535	-0.027971	0.023614	0.027192	88.565221	-82.326431	0.704455
61771	9.642790	1.293019	0.223458	-0.039728	0.030693	0.014367	88.433000	-82.334033	0.815387
61772	9.686195	1.060846	0.025193	-0.004687	0.013209	0.014928	88.394001	-82.342263	0.852592
61773	9.656182	1.227813	0.135759	0.004858	0.029533	0.019912	88.291176	-82.353020	0.959634
61774	9.653604	1.321483	0.170595	0.026352	0.023461	0.013083	88.226123	-82.359998	1.041006
61775	9.604259	1.286889	0.045654	-0.001362	0.021362	0.014953	88.154863	-82.368025	1.112600
61776	9.674642	1.385224	0.055381	0.002956	0.023344	0.010482	88.076930	-82.373481	1.193478
61777	9.666533	1.230196	0.030365	-0.008087	0.015485	0.015572	88.026600	-82.381954	1.240067
61778	9.654242	1.326673	-0.035327	0.011663	0.026583	0.011968	87.939236	-82.388177	1.335107
61779	9.751465	1.315605	0.058968	-0.014941	0.030439	0.017534	87.820278	-82.397438	1.446969
61780	9.648850	1.281843	-0.054098	0.016661	0.027181	0.012788	87.732853	-82.404078	1.545201
61781	9.664717	1.435880	0.118134	-0.018024	0.037624	0.019491	87.580405	-82.414234	1.689063
61782	9.667088	1.313487	0.035359	-0.018823	0.036591	0.017099	87.430896	-82.423039	1.829433
61783	9.636642	1.248209	0.058136	-0.014725	0.034514	0.015085	87.293876	-82.430657	1.959632
61784	9.586262	1.268660	0.084958	-0.014623	0.036154	0.015525	87.148424	-82.438505	2.098005
61785	9.639864	1.266333	0.077232	-0.007234	0.030168	0.012429	87.034493	-82.444648	2.209238
61786	9.615095	1.243415	0.123637	-0.010132	0.029355	0.010823	86.921505	-82.449922	2.317562
61787	9.617609	1.238007	0.084808	-0.012717	0.033454	0.010534	86.790344	-82.454818	2.443004
61788	9.603656	1.157885	0.081194	-0.008100	0.029073	0.002942	86.681452	-82.455515	2.548912
61789	9.615041	1.125235	0.088129	-0.004498	0.030078	0.003180	86.571249	-82.456253	2.657963
61790	9.668498	1.124122	0.080152	0.001226	0.031646	-0.000695	86.457324	-82.454724	2.773896
61791	9.680624	1.142768	0.195630	0.002660	0.032811	-0.006765	86.342160	-82.449619	2.892088
61792	9.652234	1.075373	0.175840	0.004866	0.034228	-0.007110	86.221111	-82.444272	3.017127
61793	9.691307	1.086689	0.152034	0.019901	0.037581	-0.011287	86.096931	-82.436334	3.154382
61794	9.640484	1.109953	0.178420	0.030417	0.036471	-0.015209	85.983850	-82.426223	3.286171
61795	9.648157	1.123797	0.109780	0.046034	0.037595	-0.017861	85.877196	-82.414456	3.420858
61796	9.650444	1.237598	0.115321	0.060047	0.035859	-0.021974	85.786412	-82.400423	3.547370
61797	9.633034	1.346333	0.134161	0.066535	0.037699	-0.020112	85.692542	-82.387305	3.681018
61798	9.624153	1.401618	0.144899	0.055118	0.036141	-0.019028	85.597453	-82.374911	3.808260
61799	9.629248	1.420077	0.117776	0.050117	0.035553	-0.019856	85.504008	-82.361977	3.931996
61800	9.623288	1.380104	0.096308	0.036624	0.034991	-0.021325	85.405066	-82.348232	4.054102
61801	9.592291	1.318343	0.118301	0.029498	0.033834	-0.018047	85.307234	-82.336355	4.170352
61802	9.617774	1.302200	0.195530	0.035605	0.029897	-0.021261	85.229926	-82.322853	4.269401
61803	9.611498	1.352846	0.163801	0.025565	0.027131	-0.016273	85.158206	-82.312267	4.357035
61804	9.667626	1.400332	0.221370	0.032485	0.025021	-0.020418	85.100098	-82.299431	4.435738
61805	9.639441	1.359416	0.254465	0.021636	0.020423	-0.014500	85.054203	-82.290163	4.495045
61806	9.630447	1.388573	0.210010	0.021735	0.022067	-0.014062	84.999959	-82.281088	4.562129
61807	9.605401	1.226249	0.157049	0.028120	0.022270	-0.012632	84.949575	-82.272779	4.629717
61808	9.619355	1.190667	0.121074	0.040817	0.021817	-0.013537	84.907669	-82.264010	4.696089
61809	9.632888	1.271642	0.129092	0.054422	0.024838	-0.014936	84.862692	-82.254241	4.773433
61810	9.621697	1.214650	0.136419	0.052115	0.021784	-0.015026	84.828108	-82.244630	4.838176
61811	9.649368	1.258876	0.106550	0.058522	0.022778	-0.016919	84.795151	-82.233823	4.905762
61812	9.680222	1.259403	0.152883	0.053553	0.022953	-0.021086	84.759314	-82.220719	4.972660
61813	9.676648	1.331411	0.132162	0.046383	0.021701	-0.024912	84.727285	-82.205397	5.032295
61814	9.665405	1.249602	0.085937	0.028306	0.027051	-0.025518	84.661865	-82.189437	5.115994
61815	9.668315	1.182587	0.110433	0.035326	0.026591	-0.029211	84.605330	-82.171385	5.193975
61816	9.636765	1.212567	0.121662	0.051710	0.028826	-0.029412	84.547790	-82.153128	5.281248
61817	9.624920	1.247397	0.119296	0.051650	0.027285	-0.022749	84.495772	-82.138704	5.364116
61818	9.615739	1.303334	0.128905	0.060994	0.030678	-0.029674	84.436993	-82.120156	5.459569
61819	9.631356	1.432880	0.202635	0.061380	0.025173	-0.029005	84.402308	-82.102261	5.530574
61820	9.602346	1.483937	0.225257	0.041592	0.025199	-0.028196	84.354665	-82.084823	5.602948
61821	9.602080	1.460735	0.173239	0.018117	0.022545	-0.028077	84.306096	-82.067591	5.662950
61822	9.647028	1.425381	0.182608	0.008047	0.019651	-0.030204	84.263611	-82.049316	5.711828
61823	9.646594	1.428088	0.184355	-0.003377	0.017253	-0.025836	84.223833	-82.033654	5.750524
61824	9.638055	1.393137	0.203876	-0.013569	0.011938	-0.025067	84.198026	-82.018784	5.767149
61825	9.668690	1.394288	0.250243	-0.011305	0.014239	-0.021645	84.164476	-82.005679	5.794972
61826	9.637919	1.332546	0.271005	-0.008026	0.009565	-0.019355	84.149675	-81.994160	5.806004
61827	9.660248	1.334682	0.216612	-0.005240	0.008765	-0.018165	84.140467	-81.983356	5.812756
61828	9.651587	1.324826	0.289181	0.010210	0.006779	-0.014515	84.145026	-81.974784	5.812987
61829	9.659812	1.337648	0.217738	0.016495	0.005366	-0.013500	84.160079	-81.966837	5.807814
61830	9.622267	1.414528	0.192448	0.018599	0.005154	-0.014271	84.176143	-81.958554	5.801171
61831	9.599766	1.389547	0.194235	0.003707	0.004130	-0.013063	84.188631	-81.950928	5.791189
61832	9.594393	1.348519	0.170534	0.006400	0.001687	-0.012303	84.210899	-81.943868	5.773472
61833	9.630714	1.364909	0.185388	0.013985	-0.001768	-0.011124	84.252170	-81.937686	5.740367
61834	9.616363	1.377170	0.168562	0.013302	-0.001180	-0.013086	84.289807	-81.930414	5.708189
61835	9.666887	1.382375	0.199900	0.005660	0.000726	-0.007606	84.314767	-81.926090	5.686738
61836	9.630306	1.367848	0.184926	0.009251	0.001759	-0.007351	84.336247	-81.921814	5.671994
61837	9.643811	1.422147	0.137018	0.012131	0.002605	-0.005728	84.356576	-81.918453	5.658966
61838	9.620773	1.448351	0.246457	0.006622	0.005072	-0.004350	84.362073	-81.915805	5.656762
61839	9.623950	1.418002	0.151066	-0.004834	0.002558	-0.007079	84.373382	-81.911675	5.643025
61840	9.570277	1.419225	0.161729	-0.013439	0.000117	-0.004857	84.387026	-81.908944	5.621118
61841	9.607953	1.318333	0.133727	-0.008426	0.001526	-0.007335	84.400494	-81.904725	5.603124
61842	9.627541	1.324331	0.120246	0.000489	-0.003195	-0.009319	84.437398	-81.899642	5.566377
61843	9.596106	1.352213	0.128992	-0.004310	-0.000541	-0.009308	84.462218	-81.894410	5.539296
61844	9.617908	1.405358	0.181419	-0.004928	0.000916	-0.007510	84.478551	-81.890147	5.518904
61845	9.615203	1.385116	0.169614	-0.012082	-0.000376	-0.011350	84.498990	-81.883738	5.491750
61846	9.643446	1.364031	0.202767	-0.014187	-0.000165	-0.010579	84.515645	-81.877774	5.466539
61847	9.651350	1.402537	0.184932	-0.011372	-0.000187	-0.012717	84.536183	-81.870574	5.439695
61848	9.648647	1.382333	0.173180	-0.024804	-0.000753	-0.007153	84.547516	-81.866535	5.413825
61849	9.634730	1.367968	0.103076	-0.009850	0.001151	-0.004599	84.560445	-81.863890	5.395548
61850	9.636808	1.415823	0.169420	-0.005307	0.007216	-0.011504	84.552830	-81.856963	5.399713
61851	9.658958	1.442854	0.168152	-0.013746	-0.005591	-0.002822	84.589703	-81.855696	5.354994
61852	9.658929	1.443024	0.168366	-0.012388	0.006105	-0.001165	84.578164	-81.854681	5.358666
61853	9.616973	1.411419	0.183942	-0.017494	0.003050	0.000881	84.577040	-81.855057	5.350160
61854	9.639604	1.411768	0.129104	-0.015390	0.002840	0.000110	84.577235	-81.855021	5.342108
61855	9.634107	1.395424	0.159524	-0.015390	0.002841	0.000110	84.578442	-81.854970	5.332465
61856	9.637703	1.325681	0.182373	-0.011208	0.001642	0.001896	84.585347	-81.855984	5.321529
61857	9.649338	1.293485	0.187192	-0.009075	0.002210	-0.002204	84.593560	-81.854646	5.308464
61858	9.635128	1.304633	0.170845	0.001394	-0.000400	0.000595	84.615133	-81.855006	5.286076
61859	9.629636	1.288276	0.200768	0.003591	0.001033	0.000256	84.634366	-81.855134	5.269211
61860	9.637689	1.325746	0.182670	0.006906	-0.002865	-0.000785	84.670197	-81.854877	5.237599
61861	9.640226	1.347043	0.194452	0.008512	0.000801	-0.002653	84.694251	-81.853355	5.218712
61862	9.620875	1.316152	0.153965	0.008512	0.000802	-0.002653	84.715980	-81.851797	5.198856
61863	9.625936	1.358776	0.177815	0.014827	0.000171	-0.004967	84.746997	-81.848985	5.176589
61864	9.628804	1.354494	0.135751	0.013433	0.000571	-0.005562	84.773381	-81.845748	5.155136
61865	9.665162	1.370439	0.150677	0.012750	0.001160	-0.007524	84.800159	-81.841423	5.135947
61866	9.650867	1.382170	0.134142	0.015629	0.002006	-0.005901	84.822966	-81.837924	5.122062
61867	9.670490	1.387901	0.120775	0.018601	0.004496	-0.003846	84.838463	-81.835523	5.117657
61868	9.619384	1.410046	0.143280	0.020706	0.004287	-0.004617	84.854482	-81.832725	5.111347
61869	9.639033	1.415596	0.129786	0.018388	0.000433	-0.001380	84.885117	-81.831939	5.091525
61870	9.644113	1.457979	0.153634	0.018572	0.003722	-0.000516	84.901144	-81.831514	5.085509
61871	9.649619	1.474180	0.123709	0.014953	0.001911	0.002556	84.922535	-81.832897	5.073037
61872	9.610270	1.463440	0.150670	0.012940	0.003765	0.003759	84.933861	-81.834920	5.069227
61873	9.604837	1.446708	0.180898	0.010216	0.005432	0.006327	84.937213	-81.838277	5.072238
61874	9.604912	1.446176	0.181199	0.005140	0.003150	0.005044	84.945822	-81.840955	5.067613
61875	9.628679	1.355282	0.136718	0.010124	0.003788	0.005896	84.955821	-81.844149	5.063856
61876	9.611652	1.370311	0.162439	0.019536	0.007388	0.013160	84.953002	-81.851354	5.077359
61877	9.600178	1.401312	0.158090	0.022849	0.003492	0.012125	84.969289	-81.858117	5.074615
61878	9.656900	1.394613	0.105864	0.020744	0.003704	0.012895	84.982240	-81.865350	5.073966
61879	9.625757	1.420265	0.114934	0.020216	0.006807	0.015124	84.982745	-81.873660	5.085640
61880	9.625970	1.418798	0.115166	0.022910	0.004368	0.015887	84.992994	-81.882546	5.088493
61881	9.603909	1.391031	0.116797	0.012942	0.003094	0.014181	85.004519	-81.890502	5.084825
61882	9.657307	1.415072	0.160388	0.010837	0.003306	0.014951	85.012435	-81.898860	5.083854
61883	9.610374	1.339915	0.151869	0.012445	0.006971	0.013078	85.008527	-81.905994	5.095486
61884	9.637583	1.433299	0.228432	0.007431	0.005563	0.015555	85.005015	-81.914646	5.102086
61885	9.590624	1.358184	0.220004	0.000281	0.004265	0.011710	85.005469	-81.921134	5.102274
61886	9.627603	1.346405	0.181650	0.000311	0.005037	0.008380	85.002591	-81.925679	5.105226
61887	9.622534	1.303438	0.158397	-0.003156	0.006419	0.005223	84.994687	-81.928357	5.111867
61888	9.605870	1.292665	0.130517	0.000311	0.005037	0.008380	84.991916	-81.932940	5.114476
61889	9.577238	1.340090	0.151671	-0.001175	0.003791	0.007353	84.994972	-81.936965	5.111192
61890	9.616749	1.349825	0.125260	0.000341	0.005809	0.005050	84.990435	-81.939582	5.116853
61891	9.667447	1.353485	0.157203	-0.001269	0.002146	0.006923	85.000224	-81.943444	5.106716
61892	9.619450	1.370058	0.137726	-0.003497	0.000611	0.000172	85.016050	-81.943544	5.088955
61893	9.596797	1.369505	0.193326	-0.002568	0.004190	0.006757	85.016924	-81.947208	5.087069
61894	9.611443	1.331701	0.156391	-0.001269	0.002146	0.006924	85.025546	-81.951092	5.077965
61895	9.617114	1.347097	0.126629	0.007985	0.003230	0.010001	85.035209	-81.956655	5.073310
61896	9.641720	1.419841	0.190923	0.010709	0.001559	0.007435	85.052923	-81.960868	5.061869
61897	9.597245	1.366283	0.193879	0.007767	-0.000830	0.012471	85.078047	-81.968042	5.041474
61898	9.617491	1.344421	0.126398	0.010522	-0.001731	0.006575	85.109299	-81.971925	5.016176
61899	9.617224	1.369695	0.179975	0.012069	0.000391	0.011363	85.132402	-81.978403	5.000311
61900	9.629330	1.310256	0.130725	0.009964	0.000605	0.012132	85.152030	-81.985331	4.986765
61901	9.614945	1.346369	0.167659	0.015378	-0.003510	0.010332	85.193274	-81.991407	4.954495
61902	9.637790	1.345543	0.111841	0.011881	-0.002897	0.010504	85.228791	-81.997571	4.925769
61903	9.634984	1.349371	0.153251	0.011849	-0.003666	0.013835	85.267575	-82.005649	4.893943
61904	9.655271	1.326997	0.085623	0.015533	-0.000986	0.014523	85.296215	-82.014013	4.874439
61905	9.663283	1.389094	0.121253	0.020117	0.005170	0.014702	85.303580	-82.022167	4.879124
61906	9.641123	1.361592	0.122750	0.019060	-0.000828	0.011022	85.334854	-82.028526	4.858945
61907	9.666253	1.407764	0.133143	0.011019	0.006611	0.015814	85.330779	-82.037248	4.869918
61908	9.692143	1.362970	0.154625	0.004329	0.000672	0.016406	85.345752	-82.046607	4.857745
61909	9.672958	1.330305	0.114542	0.003870	0.005314	0.011968	85.344156	-82.053193	4.862078
61910	9.645157	1.286805	0.146602	-0.002504	0.005079	0.010514	85.339144	-82.058985	4.866001
61911	9.659393	1.274941	0.163723	-0.007454	0.005213	0.006327	85.333346	-82.062354	4.868026
61912	9.654214	1.232072	0.140484	-0.006836	0.003751	0.004531	85.333289	-82.064792	4.864463
61913	9.654248	1.231759	0.140916	0.001676	0.004538	0.001885	85.336967	-82.065657	4.862202
61914	9.656868	1.252903	0.152987	0.007799	0.000603	-0.001279	85.360140	-82.064924	4.843698
61915	9.628259	1.301053	0.173672	0.014330	0.003362	0.004365	85.375068	-82.067259	4.837398
61916	9.628321	1.300595	0.173646	0.018410	0.000521	0.005730	85.402337	-82.070533	4.820904
61917	9.648135	1.305140	0.159963	0.026887	0.000543	0.006417	85.435370	-82.074168	4.803589
61918	9.650849	1.325683	0.171580	0.039049	0.003245	0.007791	85.462652	-82.078493	4.799028
61919	9.675959	1.372264	0.181661	0.035518	0.003096	0.011294	85.488604	-82.084796	4.793856
61920	9.636331	1.425679	0.143568	0.028370	0.001798	0.007447	85.515853	-82.088988	4.783150
61921	9.620305	1.324176	0.125966	0.024779	0.000766	0.007189	85.546601	-82.093050	4.766923
61922	9.628312	1.386908	0.161406	0.016458	0.003274	0.010689	85.559948	-82.099027	4.763348
61923	9.615611	1.253934	0.048363	0.031089	0.000123	0.004887	85.597735	-82.101800	4.743665
61924	9.614971	1.306082	0.155586	0.017108	0.002577	0.005563	85.616006	-82.104877	4.735546
61925	9.657151	1.336908	0.140490	0.026296	0.002783	0.004885	85.640119	-82.107531	4.726897
61926	9.623334	1.342561	0.137214	0.014848	0.000263	0.002145	85.667711	-82.108757	4.707996
61927	9.654241	1.341532	0.182053	0.009154	-0.000555	0.002655	85.696482	-82.110279	4.684728
61928	9.671388	1.325105	0.156582	0.010545	-0.000953	0.003254	85.726296	-82.112187	4.661131
61929	9.654689	1.314502	0.128090	0.010022	0.002159	0.005474	85.743522	-82.115201	4.650020
61930	9.645898	1.367509	0.135275	0.011543	0.004170	0.003167	85.752814	-82.116840	4.647704
61931	9.654785	1.313772	0.128343	0.021313	0.002151	0.004030	85.777001	-82.119029	4.636097
61932	9.629250	1.356540	0.106910	0.017106	0.002583	0.005565	85.795315	-82.122103	4.627909
61933	9.600737	1.404438	0.127399	0.015715	0.002981	0.004966	85.812603	-82.124791	4.620029
61934	9.640315	1.413894	0.100344	0.006206	-0.002926	0.007698	85.846814	-82.129312	4.589454
61935	9.649244	1.359811	0.093235	0.007918	0.002378	0.006242	85.861769	-82.132753	4.579419
61936	9.632229	1.375383	0.118472	-0.000070	-0.001519	0.006667	85.886934	-82.136622	4.554364
61937	9.612554	1.369858	0.132054	-0.004729	0.003544	0.003753	85.890580	-82.138592	4.548432
61938	9.607361	1.326710	0.108975	-0.011692	0.004898	0.011181	85.881198	-82.144775	4.551529
61939	9.643963	1.341194	0.124264	-0.009223	-0.000964	0.004010	85.900877	-82.147077	4.526812
61940	9.607536	1.325401	0.109482	-0.010457	0.001968	0.007596	85.905427	-82.151331	4.516564
61941	9.616110	1.297568	0.156418	-0.007676	0.001173	0.008795	85.915739	-82.156279	4.502198
61942	9.647423	1.269543	0.147987	-0.001983	0.001990	0.008286	85.924868	-82.160927	4.492237
61943	9.636065	1.301026	0.143247	0.003519	-0.000486	0.006925	85.949071	-82.164873	4.470325
61944	9.638824	1.321463	0.154980	0.000703	-0.000451	0.009059	85.969678	-82.170061	4.450313
61945	9.653327	1.283601	0.118001	0.003686	0.002680	0.000685	85.982681	-82.170310	4.439803
61946	9.633619	1.278241	0.131722	0.000930	0.003603	0.006578	85.987312	-82.173917	4.436037
61947	9.647770	1.266846	0.148470	0.006371	0.000238	0.001458	86.011790	-82.174705	4.415496
61948	9.653447	1.282660	0.118377	0.009248	0.001090	0.003083	86.032673	-82.176414	4.400163
61949	9.639048	1.319779	0.155411	0.009248	0.001090	0.003084	86.054798	-82.178097	4.383662
61950	9.624974	1.330602	0.138680	0.006275	-0.001409	0.001032	86.084974	-82.178730	4.357221
61951	9.636427	1.298343	0.143227	0.004789	-0.002659	0.000007	86.121031	-82.178797	4.324077
61952	9.602557	1.304502	0.139807	0.008414	-0.000867	-0.003069	86.151329	-82.177060	4.298768
61953	9.621996	1.335823	0.179526	0.010219	-0.006653	0.005314	86.205647	-82.180308	4.250333
61954	9.647474	1.356334	0.135363	0.012514	-0.003575	0.005398	86.247224	-82.183509	4.215963
61955	9.647511	1.356160	0.134495	0.012782	-0.010871	-0.001430	86.322475	-82.183045	4.147881
61956	9.630489	1.372015	0.158803	0.013869	-0.004729	0.009332	86.368657	-82.188526	4.109692
61957	9.645054	1.333637	0.120838	0.015648	-0.010644	0.010623	86.441509	-82.194926	4.045691
61958	9.636443	1.386033	0.126808	0.014546	-0.005304	0.011299	86.490109	-82.201541	4.005428
61959	9.633637	1.390222	0.167740	0.012153	-0.010028	0.010791	86.558547	-82.207999	3.943863
61960	9.673602	1.372579	0.086013	0.007137	-0.011419	0.013269	86.628161	-82.215934	3.878118
61961	9.634275	1.361524	0.111998	0.004585	-0.006574	0.009585	86.678320	-82.221567	3.830627
61962	9.651246	1.370524	0.139593	-0.009749	-0.010570	0.015651	86.734358	-82.230819	3.768813
61963	9.623616	1.300752	0.116826	-0.007673	-0.010921	0.007790	86.796318	-82.235553	3.702325
61964	9.660539	1.288619	0.077175	-0.010489	-0.010882	0.009925	86.854815	-82.241521	3.637617
61965	9.646330	1.325044	0.113283	-0.011202	-0.011061	0.011293	86.914713	-82.248245	3.571172
61966	9.663550	1.307595	0.087103	-0.006934	-0.010605	0.013516	86.973480	-82.256241	3.508236
61967	9.677846	1.295269	0.102637	-0.009232	-0.013680	0.013435	87.045300	-82.264250	3.430900
61968	9.661003	1.310181	0.126747	-0.002051	-0.011617	0.013947	87.111305	-82.272502	3.363485
61969	9.658500	1.287533	0.113946	-0.002666	-0.010149	0.015740	87.171809	-82.281704	3.301369
61970	9.641860	1.276053	0.084504	0.002866	-0.011874	0.011042	87.242596	-82.288281	3.231985
61971	9.642023	1.274894	0.083424	0.005842	-0.009376	0.013091	87.305516	-82.295927	3.172352
61972	9.645096	1.268439	0.040637	-0.002632	-0.009390	0.012407	87.362605	-82.303199	3.113599
61973	9.639438	1.277864	0.123473	0.000894	-0.009251	0.008902	87.423193	-82.308428	3.053460
61974	9.662182	1.276814	0.067059	-0.004284	-0.013175	0.007199	87.496566	-82.312798	2.977324
61975	9.634214	1.233833	0.097741	0.003675	-0.010046	0.010100	87.562073	-82.318713	2.913832
61976	9.665160	1.296301	0.076626	0.004288	-0.011514	0.008307	87.633292	-82.323653	2.844847
61977	9.634164	1.322832	0.084283	0.001606	-0.009071	0.007535	87.694098	-82.328057	2.784903
61978	9.640165	1.247424	0.064723	0.001705	-0.007424	0.007960	87.746663	-82.332685	2.733233
61979	9.642868	1.294468	0.129038	0.005513	-0.014448	0.004721	87.833180	-82.335579	2.649606
61980	9.628867	1.304765	0.111186	0.005065	-0.010442	0.010699	87.900229	-82.341823	2.585271
61981	9.629028	1.303699	0.109713	0.013820	-0.017590	0.011647	88.004019	-82.348716	2.489020
61982	9.668661	1.312365	0.080940	0.009715	-0.015502	0.013612	88.095148	-82.356699	2.403071
61983	9.651961	1.300960	0.050840	0.024494	-0.016149	0.011981	88.199218	-82.363712	2.312711
61984	9.629642	1.273638	0.050934	0.010525	-0.013675	0.012670	88.283492	-82.371086	2.234148
61985	9.621175	1.352295	0.109927	0.011103	-0.015895	0.014213	88.378871	-82.379335	2.144819
61986	9.615860	1.282191	0.031474	-0.009104	-0.011253	0.010544	88.442092	-82.385420	2.076159
61987	9.675069	1.322752	0.043083	-0.001878	-0.019789	0.003374	88.548248	-82.387485	1.968456
61988	9.641513	1.237646	0.049918	-0.001409	-0.012312	0.008831	88.620811	-82.392576	1.894818
61989	9.658528	1.247078	0.076924	-0.000899	-0.015425	0.006614	88.708643	-82.396397	1.806169
61990	9.666990	1.283606	0.057095	-0.000899	-0.015425	0.006614	88.795258	-82.400229	1.718653
61991	9.644571	1.256919	0.057593	0.004316	-0.010751	0.004975	88.866316	-82.403022	1.649942
61992	9.627714	1.272791	0.081883	0.005127	-0.008928	0.004030	88.928829	-82.405273	1.590229
61993	9.647465	1.250879	0.013345	0.007404	-0.017953	0.003105	89.032839	-82.407045	1.490062
61994	9.625043	1.224141	0.013861	0.011671	-0.006157	0.009658	89.086885	-82.412472	1.442667
61995	9.636316	1.308412	0.059765	0.011908	-0.013456	0.002834	89.174282	-82.414015	1.361864
61996	9.636376	1.308020	0.058572	0.004416	-0.009103	0.005400	89.237240	-82.417011	1.301292
61997	9.616736	1.302699	0.071093	0.001433	-0.011598	0.003358	89.310686	-82.418813	1.228508
61998	9.613983	1.281158	0.058214	0.001433	-0.011598	0.003359	89.382861	-82.420636	1.156906
61999	9.630933	1.264468	0.031667	0.007705	-0.013012	0.004378	89.466020	-82.423006	1.077950
62000	9.650690	1.268958	0.016725	0.004112	-0.014038	0.004130	89.550291	-82.425255	0.995694
62001	9.653528	1.289996	0.027125	0.008445	-0.012084	-0.000327	89.630103	-82.424895	0.920543
62002	9.645204	1.252595	0.044301	0.005705	-0.011144	0.005574	89.702856	-82.427932	0.850845
62003	9.695976	1.229798	0.020789	0.011326	-0.011233	0.001290	89.780645	-82.428471	0.779401
62004	9.656453	1.310485	0.035331	0.015020	-0.008561	0.001961	89.847731	-82.429410	0.720786
62005	9.684786	1.288242	0.067579	0.010240	-0.005898	0.001963	89.901914	-82.430305	0.672527
62006	9.650859	1.267743	0.010152	0.005054	-0.009817	0.000273	89.968737	-82.430262	0.608424
62007	9.665017	1.256698	0.025802	0.003765	-0.007774	0.000099	90.027316	-82.430076	0.551989
62008	9.645210	1.225349	-0.015078	0.004373	-0.009243	-0.001693	90.091259	-82.428888	0.490394
62009	9.664904	1.230175	-0.029407	0.004649	-0.005057	0.002912	90.138646	-82.430302	0.445760
62010	9.650863	1.267732	0.006963	0.005184	-0.007421	-0.002640	90.195181	-82.428560	0.392116
62011	9.653639	1.289325	0.017963	0.013788	-0.005016	-0.004887	90.247502	-82.425494	0.347787
62012	9.670454	1.273343	-0.008227	0.009963	-0.010082	-0.002642	90.318175	-82.423730	0.282631
62013	9.656254	1.284629	-0.025694	0.014468	-0.005588	-0.002921	90.373326	-82.421776	0.235840
62014	9.673229	1.294936	0.001943	0.011051	-0.004073	0.001015	90.418812	-82.422114	0.196728
62015	9.645034	1.343512	0.021738	0.009457	-0.006966	-0.000426	90.477078	-82.421572	0.143896
62016	9.670540	1.300273	0.042579	0.004779	-0.002660	-0.000002	90.512852	-82.421324	0.110972
62017	9.633896	1.284957	0.027528	0.000449	-0.004612	0.004459	90.556013	-82.423584	0.068174
62018	9.636590	1.279564	-0.014947	0.000200	-0.008051	-0.003480	90.612225	-82.421305	0.011976
62019	9.642401	1.231570	0.019367	-0.003217	-0.006536	0.000456	90.661401	-82.421248	-0.039010
62020	9.670427	1.273507	-0.013215	0.003968	-0.004481	0.000946	90.704587	-82.421517	-0.079913
62021	9.656405	1.311106	0.023349	0.003286	-0.003908	-0.001021	90.746094	-82.420623	-0.119403
62022	9.659233	1.332359	0.034577	0.000376	-0.005508	0.000701	90.791634	-82.420735	-0.164723
62023	9.625389	1.338463	0.031229	-0.002304	-0.003069	-0.000070	90.826370	-82.420384	-0.200614
62024	9.642413	1.348555	0.058975	-0.004737	-0.008532	0.002775	90.882134	-82.421649	-0.259223
62025	9.636793	1.305795	0.034905	-0.011718	-0.007296	0.003130	90.929897	-82.423086	-0.313698
62026	9.693002	1.299070	-0.018301	-0.017587	-0.010642	-0.000521	90.987166	-82.422427	-0.381269
62027	9.650812	1.268139	-0.003440	-0.005999	-0.005740	-0.000737	91.031233	-82.421651	-0.428709
62028	9.622465	1.290119	-0.036848	-0.012196	-0.003432	0.002008	91.060736	-82.422503	-0.465125
62029	9.636671	1.278878	-0.020510	-0.010805	-0.003828	0.002604	91.094085	-82.423654	-0.504531
62030	9.650877	1.267642	-0.004228	-0.008706	-0.004049	0.001830	91.128251	-82.424392	-0.543666
62031	9.614406	1.278837	0.034349	-0.004533	-0.005241	0.003618	91.171389	-82.426101	-0.589322
62032	9.667983	1.277172	0.023160	-0.001752	-0.006036	0.004810	91.218388	-82.428514	-0.637380
62033	9.639694	1.298706	-0.010525	0.001030	-0.006831	0.006002	91.271837	-82.431559	-0.690222
62034	9.636915	1.276996	-0.022886	0.000348	-0.006257	0.004036	91.320988	-82.433515	-0.739208
62035	9.662353	1.323734	-0.013624	-0.005269	-0.006166	0.008326	91.368275	-82.437888	-0.789472
62036	9.620281	1.291916	0.001330	-0.003879	-0.006563	0.008922	91.416908	-82.442625	-0.840363
62037	9.659730	1.300828	-0.026511	-0.007472	-0.007588	0.008678	91.469230	-82.447168	-0.896979
62038	9.629043	1.354076	0.035274	-0.011039	-0.007863	0.005099	91.519069	-82.449685	-0.953253
62039	9.665755	1.251255	0.007333	-0.012959	-0.005101	0.010056	91.557769	-82.455043	-0.999299
62040	9.682918	1.260491	0.034989	-0.011878	-0.010432	0.009384	91.618848	-82.459960	-1.067396
62041	9.649189	1.265759	0.031577	-0.012148	-0.003279	0.009109	91.650140	-82.464796	-1.105499
62042	9.660368	1.206201	-0.017536	-0.008052	-0.005368	0.007136	91.691321	-82.468497	-1.151314
62043	9.665920	1.221576	-0.048086	-0.006635	-0.005016	0.004394	91.732771	-82.470596	-1.196476
62044	9.637872	1.269655	-0.027889	-0.009443	-0.004969	0.006541	91.771436	-82.473958	-1.240552
62045	9.649242	1.236948	-0.023410	-0.010808	-0.003820	0.002609	91.805121	-82.475048	-1.280293
62046	9.655008	1.279160	-0.000186	-0.008709	-0.004042	0.001833	91.839579	-82.475723	-1.319712
62047	9.638233	1.295353	0.024903	-0.013694	-0.004666	0.000996	91.875070	-82.475868	-1.362943
62048	9.657921	1.300050	0.011083	-0.014299	-0.003198	0.002790	91.902813	-82.477100	-1.398792
62049	9.635433	1.273613	0.012722	-0.013720	-0.005416	0.004333	91.942039	-82.479134	-1.445805
62050	9.658033	1.299224	0.010580	-0.008632	-0.003148	0.005594	91.973252	-82.481967	-1.481885
62051	9.672012	1.261199	-0.026740	-0.013617	-0.003771	0.004757	92.005510	-82.484270	-1.521811
62052	9.624031	1.278078	-0.046198	-0.014196	-0.001551	0.003215	92.026285	-82.485768	-1.550576
62053	9.655061	1.250220	-0.055112	-0.007138	-0.001902	0.006612	92.054469	-82.489166	-1.582647
62054	9.635478	1.244719	-0.041662	-0.007241	-0.003546	0.006188	92.088397	-82.492323	-1.620692
62055	9.630005	1.318869	-0.022960	-0.011311	-0.000704	0.004829	92.108750	-82.494721	-1.647276
62056	9.621702	1.281280	-0.004524	-0.016297	-0.001325	0.003992	92.127538	-82.496663	-1.675250
62057	9.635938	1.269794	0.011836	-0.013723	-0.005411	0.004333	92.166924	-82.498673	-1.722426
62058	9.624693	1.301678	0.006692	-0.013827	-0.007055	0.003909	92.212057	-82.500438	-1.775568
62059	9.630224	1.317250	-0.023866	-0.023013	-0.007228	0.004627	92.254117	-82.502566	-1.830808
62060	9.661256	1.289299	-0.033000	-0.019919	-0.003095	0.007089	92.279119	-82.506229	-1.867145
62061	9.663923	1.283484	-0.075113	-0.023723	-0.007401	0.005999	92.321831	-82.509131	-1.923451
62062	9.653053	1.250875	-0.015165	-0.023515	-0.004112	0.006849	92.349237	-82.512627	-1.964281
62063	9.636050	1.240223	-0.043424	-0.024095	-0.001890	0.005310	92.367674	-82.515256	-1.996318
62064	9.667376	1.238691	0.001220	-0.026508	-0.006595	0.004812	92.403871	-82.517523	-2.047745
62065	9.633565	1.244660	-0.001841	-0.029266	-0.005037	0.000290	92.432171	-82.517199	-2.092718
62066	9.641987	1.190939	-0.009004	-0.034780	-0.003297	0.005014	92.449299	-82.519656	-2.129748
62067	9.664239	1.190531	-0.064666	-0.020185	-0.006507	-0.000855	92.489004	-82.518634	-2.180976
62068	9.647475	1.206830	-0.039538	-0.025777	-0.005656	0.000108	92.520670	-82.518219	-2.227400
62069	9.661309	1.260093	-0.088064	-0.022182	-0.004637	0.000350	92.551297	-82.517927	-2.270626
62070	9.664196	1.281354	-0.076289	-0.027749	-0.003029	-0.002022	92.569978	-82.516354	-2.305047
62071	9.644502	1.276740	-0.062414	-0.033212	0.000223	-0.003966	92.572247	-82.513713	-2.326046
62072	9.621894	1.251093	-0.060300	-0.036915	-0.002433	-0.004633	92.582541	-82.510663	-2.357413
62073	9.676001	1.302678	0.036755	-0.038204	-0.000385	-0.004797	92.584411	-82.507530	-2.380894
62074	9.664013	1.192392	-0.064289	-0.035735	-0.006114	-0.004893	92.611311	-82.504235	-2.428344
62075	9.658795	1.293561	0.008711	-0.028333	-0.000795	-0.003554	92.620835	-82.501801	-2.453841
62076	9.641687	1.283721	-0.019390	-0.025575	-0.002358	0.000966	92.638349	-82.501953	-2.485924
62077	9.622407	1.304655	0.048024	-0.022108	-0.003744	0.004114	92.665800	-82.503827	-2.525906
62078	9.638880	1.261894	-0.031502	-0.018037	-0.006595	0.005462	92.707019	-82.506431	-2.577359
62079	9.624771	1.272417	-0.048227	-0.010054	-0.003505	0.008337	92.741257	-82.510722	-2.617219
62080	9.650359	1.318641	-0.038501	-0.003907	-0.007342	0.012239	92.795260	-82.517176	-2.673706
62081	9.630527	1.286263	-0.079221	-0.003014	-0.004639	0.015059	92.840040	-82.525274	-2.720130
62082	9.653663	1.336869	-0.027533	-0.011522	-0.005381	0.017749	92.882573	-82.534920	-2.769224
62083	9.681854	1.287065	-0.049022	-0.002491	-0.006983	0.009497	92.936856	-82.539757	-2.824928
62084	9.665296	1.301917	-0.024102	-0.017327	-0.007808	0.017860	92.986944	-82.549385	-2.884993
62085	9.637484	1.258048	0.007225	-0.017905	-0.005582	0.016327	93.028020	-82.558159	-2.936282
62086	9.676977	1.266460	-0.020371	-0.024394	-0.007426	0.014475	93.071840	-82.565854	-2.994261
62087	9.648715	1.196765	-0.042848	-0.020797	-0.006413	0.014716	93.114732	-82.573672	-3.049051
62088	9.671472	1.221413	-0.045087	-0.016018	-0.009088	0.014690	93.170948	-82.581437	-3.114880
62089	9.657438	1.231386	-0.062126	-0.015994	-0.008325	0.011356	93.224390	-82.587259	-3.177532
62090	9.646789	1.288417	-0.013201	-0.014309	-0.004566	0.016570	93.262276	-82.596211	-3.223682
62091	9.646555	1.260878	-0.067452	-0.019513	-0.008453	0.014880	93.315358	-82.604032	-3.288002
62092	9.658400	1.253251	-0.009653	-0.021590	-0.007462	0.012328	93.361030	-82.610457	-3.346156
62093	9.653132	1.235576	0.019853	-0.023033	-0.008579	0.018406	93.413812	-82.620275	-3.412204
62094	9.655839	1.229070	-0.022634	-0.019516	-0.008448	0.014882	93.465944	-82.628118	-3.475693
62095	9.656033	1.227538	-0.023109	-0.016519	-0.005975	0.016925	93.510830	-82.637165	-3.530015
62096	9.636139	1.194811	-0.063685	-0.016437	-0.005095	0.020690	93.551695	-82.648430	-3.580337
62097	9.625142	1.225433	-0.068363	-0.010003	-0.003374	0.015442	93.588616	-82.656713	-3.622861
62098	9.647957	1.249943	-0.070383	-0.007327	-0.005827	0.016193	93.637033	-82.665371	-3.675238
62099	9.620325	1.296626	-0.049565	-0.014940	-0.003856	0.021713	93.675254	-82.677212	-3.721923
62100	9.646202	1.341813	-0.039652	-0.006645	-0.006411	0.018155	93.727399	-82.686961	-3.777915
62101	9.649216	1.270054	-0.017642	-0.017175	-0.006027	0.025400	93.775397	-82.700819	-3.835745
62102	9.692393	1.324219	0.020510	-0.016518	-0.007372	0.030698	93.830234	-82.717685	-3.900137
62103	9.681615	1.353740	0.015351	-0.009042	-0.011748	0.028080	93.909797	-82.732839	-3.985086
62104	9.611034	1.251671	0.007702	-0.027133	-0.007855	0.034181	93.962393	-82.751665	-4.053558
62105	9.640149	1.316715	0.029343	-0.016740	-0.010645	0.029839	94.033807	-82.767845	-4.134732
62106	9.602744	1.182327	-0.029715	-0.024680	-0.013584	0.034070	94.114290	-82.786338	-4.229539
62107	9.574825	1.201584	-0.063464	-0.011910	-0.013213	0.036907	94.203179	-82.806421	-4.325532
62108	9.665591	1.211123	-0.060820	-0.014013	-0.012977	0.037692	94.289204	-82.826990	-4.420130
62109	9.637214	1.139416	-0.084527	0.002629	-0.017997	0.037664	94.409511	-82.847257	-4.539384
62110	9.623472	1.147085	-0.102489	0.009943	-0.014355	0.038572	94.516886	-82.868227	-4.642099
62111	9.670689	1.246972	0.000533	0.017147	-0.012355	0.039049	94.621548	-82.889485	-4.737192
62112	9.617729	1.244736	0.009844	0.015393	-0.017623	0.040502	94.749091	-82.911333	-4.856332
62113	9.697532	1.286184	0.007443	0.003524	-0.015277	0.040499	94.861234	-82.933231	-4.966820
62114	9.676936	1.225776	-0.088566	0.000179	-0.022655	0.037166	95.003417	-82.952865	-5.109566
62115	9.689144	1.215706	-0.032279	-0.007376	-0.019135	0.036028	95.126751	-82.971954	-5.237613
62116	9.703828	1.053540	-0.157066	0.000426	-0.018607	0.034695	95.250786	-82.990305	-5.361726
62117	9.666456	1.092140	-0.023504	0.010754	-0.012516	0.037639	95.355790	-83.010598	-5.460829
62118	9.681003	1.141974	-0.073058	0.019012	-0.015856	0.037406	95.480240	-83.030593	-5.574663
62119	9.664098	1.128786	-0.103199	0.028800	-0.017209	0.034856	95.617514	-83.048987	-5.695850
62120	9.642530	1.190137	-0.113951	0.027380	-0.017550	0.037606	95.756080	-83.068933	-5.819225
62121	9.726986	1.222166	-0.200789	0.021497	-0.020066	0.030625	95.901942	-83.084677	-5.953270
62122	9.681670	1.167453	-0.199198	0.019058	-0.014320	0.030740	96.018412	-83.100836	-6.059694
62123	9.709373	1.116023	-0.221541	0.002598	-0.006109	0.024538	96.085720	-83.113892	-6.125512
62124	9.668053	1.108916	-0.152796	-0.001601	-0.005630	0.026110	96.147883	-83.127914	-6.189101
62125	9.626713	1.102063	-0.083983	-0.003764	-0.005520	0.019792	96.206814	-83.138286	-6.250149
62126	9.674822	1.082364	-0.065229	-0.009069	0.000161	0.014961	96.232049	-83.146295	-6.280311
62127	9.701419	1.006257	-0.140647	-0.003261	-0.007872	0.014219	96.299803	-83.153334	-6.349953
62128	9.687424	1.016223	-0.157524	0.007671	-0.003263	0.015349	96.351293	-83.161359	-6.397264
62129	9.685374	1.084574	-0.180002	0.007479	0.004635	0.011769	96.364734	-83.167784	-6.406004
62130	9.663523	1.083981	-0.124065	-0.004791	0.001948	0.003377	96.378071	-83.169307	-6.421795
62131	9.699617	1.072259	-0.163245	-0.012800	-0.001086	0.000518	96.401135	-83.168959	-6.451928
62132	9.722478	1.098187	-0.164456	-0.016364	0.009104	-0.002433	96.370807	-83.167635	-6.430399
62133	9.689930	1.009642	-0.197660	-0.017394	0.004768	-0.005687	96.360122	-83.164127	-6.429193
62134	9.700808	0.977690	-0.192500	0.000634	0.009711	-0.004521	96.335481	-83.161651	-6.403780
62135	9.667541	1.132243	-0.055010	0.007729	0.010049	-0.004485	96.314771	-83.159162	-6.377980
62136	9.612780	1.230185	-0.011666	0.004123	0.009060	-0.004719	96.295258	-83.156530	-6.355431
62137	9.674751	1.201245	0.024247	-0.010415	0.003464	-0.006084	96.294585	-83.152715	-6.360281
62138	9.642331	1.177560	-0.073997	-0.007184	-0.001222	-0.003805	96.317785	-83.149957	-6.387456
62139	9.680188	1.218091	-0.005420	-0.008370	0.001714	-0.000195	96.329654	-83.149385	-6.403759
62140	9.684791	1.208535	-0.089371	-0.011730	-0.005663	-0.003526	96.371391	-83.146493	-6.452002
62141	9.695690	1.176260	-0.085156	-0.014191	-0.000675	-0.000073	96.391293	-83.145837	-6.479756
62142	9.676026	1.171601	-0.071557	-0.023025	-0.005520	-0.001991	96.426692	-83.143835	-6.528397
62143	9.683714	1.118333	-0.079241	-0.029182	-0.002403	-0.002538	96.444850	-83.141660	-6.563045
62144	9.690485	1.039373	-0.140854	-0.026606	-0.005748	-0.005560	96.477343	-83.137601	-6.610583
62145	9.688128	1.044638	-0.099202	-0.004519	-0.003683	-0.003059	96.515353	-83.135042	-6.650994
62146	9.668446	1.040147	-0.085852	0.002577	-0.003346	-0.003024	96.554478	-83.132579	-6.688475
62147	9.685816	1.115158	-0.122375	0.015174	-0.004783	-0.007742	96.606347	-83.127275	-6.731482
62148	9.702166	1.099614	-0.148573	0.015289	-0.003142	-0.007310	96.649225	-83.122377	-6.765598
62149	9.713024	1.067808	-0.144507	0.024831	0.001877	-0.006767	96.675630	-83.118064	-6.777383
62150	9.652676	1.149806	-0.071894	0.028578	0.005264	-0.009438	96.685302	-83.112528	-6.770670
62151	9.654803	1.081058	-0.049325	0.019975	0.003699	-0.010492	96.698249	-83.106216	-6.771702
62152	9.643722	1.114725	-0.053570	0.018495	0.003228	-0.014848	96.708834	-83.097459	-6.771257
62153	9.611203	1.091939	-0.151864	0.015005	0.003879	-0.014651	96.715768	-83.088793	-6.769101
62154	9.708662	1.174353	-0.070560	0.019707	0.001051	-0.021794	96.733246	-83.075914	-6.774587
62155	9.644575	1.088968	-0.149418	0.013861	-0.002096	-0.018334	96.765415	-83.064750	-6.798511
62156	9.701011	1.174722	-0.212939	0.011538	0.005287	-0.017790	96.760539	-83.054464	-6.786955
62157	9.671032	1.230232	-0.149343	0.010172	0.006454	-0.021715	96.748741	-83.041952	-6.768716
62158	9.680901	1.174001	-0.198062	0.001233	0.010384	-0.023443	96.711342	-83.028769	-6.729517
62159	9.658684	1.176323	-0.141400	0.002737	0.011616	-0.022423	96.671076	-83.016196	-6.686890
62160	9.671777	1.141055	-0.177792	0.009236	0.013432	-0.020581	96.625908	-83.004833	-6.635275
62161	9.674699	1.164286	-0.164394	0.016014	0.020043	-0.024551	96.553389	-82.991594	-6.552485
62162	9.652446	1.166750	-0.107166	0.013687	0.017001	-0.024625	96.492577	-82.978155	-6.482599
62163	9.679731	1.120191	-0.126758	0.015276	0.019119	-0.019838	96.426908	-82.967517	-6.407134
62164	9.659843	1.117632	-0.111465	0.018705	0.018349	-0.027135	96.361959	-82.952710	-6.330013
62165	9.671302	1.178535	-0.116046	0.015213	0.018996	-0.026940	96.293689	-82.937999	-6.251958
62166	9.656868	1.192372	-0.130563	0.013337	0.022516	-0.025296	96.207818	-82.924465	-6.157032
62167	9.645562	1.227150	-0.132740	0.006579	0.027088	-0.024049	96.099587	-82.911868	-6.043689
62168	9.610790	1.210110	-0.186927	0.004169	0.023158	-0.027889	96.005340	-82.896884	-5.945670
62169	9.675667	1.269299	-0.201577	0.003904	0.029553	-0.024797	95.884770	-82.883956	-5.821430
62170	9.644738	1.234418	-0.125018	0.002595	0.030849	-0.021620	95.758092	-82.872933	-5.691877
62171	9.650025	1.252703	-0.152034	-0.000188	0.031669	-0.022800	95.627309	-82.861197	-5.559701
62172	9.664539	1.269488	-0.078821	-0.003819	0.029915	-0.019702	95.502874	-82.851129	-5.435708
62173	9.582546	1.295760	-0.097699	-0.007284	0.031316	-0.022846	95.370431	-82.839274	-5.305950
62174	9.635795	1.231440	-0.041054	-0.020929	0.027616	-0.018075	95.248217	-82.829971	-5.194445
62175	9.689056	1.231668	-0.049151	-0.008355	0.025466	-0.019423	95.143855	-82.819697	-5.093603
62176	9.638412	1.255941	-0.023641	-0.019461	0.028097	-0.013717	95.022244	-82.812859	-4.983025
62177	9.656932	1.210159	-0.141990	-0.013760	0.028870	-0.014254	94.901966	-82.805654	-4.869258
62178	9.660289	1.258686	-0.073379	-0.004676	0.027361	-0.015410	94.792388	-82.797723	-4.760325
62179	9.617312	1.203012	-0.109097	-0.016496	0.029813	-0.008336	94.668936	-82.793884	-4.644937
62180	9.623688	1.272074	-0.028422	-0.012403	0.027710	-0.010325	94.555458	-82.788811	-4.536723
62181	9.640251	1.256910	-0.051138	-0.010303	0.027481	-0.011103	94.445377	-82.783229	-4.431233
62182	9.665378	1.214038	-0.027318	-0.025017	0.029105	-0.005648	94.320207	-82.780871	-4.319814
62183	9.637083	1.237398	-0.057193	-0.011016	0.027310	-0.009728	94.211240	-82.776013	-4.215857
62184	9.671180	1.257695	0.002269	-0.016752	0.025780	-0.005859	94.106350	-82.773348	-4.119073
62185	9.645079	1.185221	-0.059223	-0.015255	0.027017	-0.004834	93.998073	-82.771226	-4.018257
62186	9.695900	1.189178	-0.025203	-0.006738	0.027736	-0.007513	93.889372	-82.767647	-3.912824
62187	9.638991	1.144478	-0.077670	-0.002534	0.027275	-0.009068	93.786101	-82.763067	-3.809705
62188	9.665173	1.244292	0.043076	-0.002643	0.025634	-0.009499	93.688834	-82.758215	-3.713160
62189	9.642359	1.219235	0.046884	-0.007277	0.019526	-0.009673	93.617781	-82.752965	-3.645258
62190	9.641952	1.194245	-0.004769	-0.013339	0.024271	-0.009811	93.520689	-82.747824	-3.554261
62191	9.602121	1.159449	-0.029513	0.006802	0.018615	-0.009973	93.461932	-82.742347	-3.490620
62192	9.636083	1.179799	0.029045	0.001883	0.018900	-0.007049	93.398901	-82.738580	-3.424595
62193	9.624629	1.186918	-0.027643	0.010260	0.017214	-0.006820	93.349406	-82.734842	-3.368292
62194	9.652896	1.229701	-0.057740	0.017924	0.015352	-0.005220	93.311828	-82.731995	-3.319479
62195	9.610439	1.199247	-0.041267	0.018136	0.018640	-0.004355	93.261176	-82.729703	-3.257460
62196	9.611240	1.342183	0.057632	0.015425	0.020338	-0.001777	93.200887	-82.728970	-3.186663
62197	9.588325	1.290478	0.006715	0.005698	0.011985	-0.003231	93.173280	-82.727095	-3.155059
62198	9.647514	1.305426	-0.032745	0.006375	0.011400	-0.001266	93.148008	-82.726343	-3.124350
62199	9.650468	1.326373	-0.019841	0.007015	0.010052	0.004033	93.131620	-82.728560	-3.103295
62200	9.644653	1.283849	-0.043139	0.008088	0.004713	0.003331	93.138182	-82.730256	-3.105282
62201	9.636521	1.336869	-0.035058	0.009901	0.010881	0.005654	93.120110	-82.733427	-3.080864
62202	9.656368	1.341055	-0.047781	0.011148	0.008068	0.009152	93.114736	-82.738603	-3.070522
62203	9.661945	1.291432	-0.012523	0.009933	0.011003	0.012755	93.097823	-82.745838	-3.047254
62204	9.667827	1.306257	-0.041611	0.011999	0.010011	0.015315	93.085759	-82.754549	-3.027990
62205	9.642413	1.257630	-0.051151	0.007791	0.010474	0.016865	93.070911	-82.764118	-3.008040
62206	9.636914	1.239870	-0.020192	0.008611	0.012296	0.015927	93.046828	-82.773230	-2.977670
62207	9.659641	1.238325	-0.074561	0.001411	0.010288	0.015422	93.028717	-82.781966	-2.958118
62208	9.698995	1.181927	-0.036037	-0.001368	0.011105	0.014231	93.003471	-82.790066	-2.933135
62209	9.679236	1.149724	-0.075414	0.000629	0.009229	0.013026	92.989040	-82.797397	-2.917745
62210	9.665347	1.159914	-0.090764	-0.007602	0.013324	0.009884	92.948946	-82.803092	-2.882249
62211	9.659917	1.168577	-0.005583	0.000947	0.014163	0.014322	92.912530	-82.811308	-2.844515
62212	9.685565	1.188504	-0.047619	-0.003288	0.014506	0.008769	92.869619	-82.816396	-2.802370
62213	9.668708	1.177880	-0.074661	0.000205	0.013865	0.008591	92.832683	-82.821317	-2.764543
62214	9.671768	1.198135	-0.061375	0.000204	0.013866	0.008591	92.793980	-82.826290	-2.726579
62215	9.722484	1.174705	-0.082372	-0.002574	0.014684	0.007400	92.751362	-82.830545	-2.684630
62216	9.691602	1.175665	-0.125625	-0.003710	0.019144	0.004333	92.685330	-82.833178	-2.620553
62217	9.666100	1.154411	-0.080142	-0.006341	0.022368	0.000238	92.603968	-82.833526	-2.541730
62218	9.669068	1.175439	-0.065929	-0.008446	0.022602	0.001011	92.518911	-82.834370	-2.461756
62219	9.666221	1.180467	-0.021572	-0.021769	0.024463	-0.003420	92.418441	-82.832646	-2.372585
62220	9.671338	1.106525	-0.038372	-0.015414	0.024528	-0.009071	92.319126	-82.827734	-2.281212
62221	9.637547	1.139637	0.014969	-0.011858	0.024772	-0.005478	92.222697	-82.824800	-2.190389
62222	9.654335	1.124076	-0.007821	-0.010322	0.026772	-0.007782	92.116229	-82.820586	-2.088566
62223	9.643183	1.157256	-0.009836	-0.003441	0.023844	-0.008564	92.028512	-82.815826	-2.001662
62224	9.682701	1.193811	0.019644	-0.004725	0.025901	-0.008727	91.929479	-82.811012	-1.903513
62225	9.634839	1.238287	0.056553	0.000368	0.028143	-0.007437	91.824844	-82.806942	-1.797355
62226	9.685406	1.216435	0.036690	-0.002159	0.021795	-0.008398	91.746399	-82.802196	-1.717747
62227	9.660305	1.234864	-0.036121	-0.003593	0.021442	-0.005661	91.670332	-82.798989	-1.642670
62228	9.654383	1.219329	-0.003888	-0.003339	0.025498	-0.008128	91.574361	-82.794448	-1.547412
62229	9.651467	1.172952	-0.067360	-0.003490	0.023091	-0.005227	91.491096	-82.791486	-1.465018
62230	9.651331	1.199539	-0.011119	0.003753	0.025865	-0.008037	91.397983	-82.787010	-1.369072
62231	9.654215	1.195434	-0.050515	0.000257	0.026508	-0.007865	91.301292	-82.782550	-1.270979
62232	9.670851	1.232004	0.034470	-0.000415	0.027096	-0.009830	91.200228	-82.777021	-1.169577
62233	9.662083	1.169809	0.001151	-0.010390	0.025907	-0.011552	91.100092	-82.770399	-1.074159
62234	9.661960	1.170821	0.003696	0.004466	0.026051	-0.009399	91.007243	-82.765063	-0.977173
62235	9.647735	1.209052	0.043764	-0.000881	0.030982	-0.010926	90.890047	-82.758806	-0.859062
62236	9.653507	1.226137	0.016763	-0.003140	0.028806	-0.007256	90.780477	-82.754617	-0.749313
62237	9.639265	1.264206	0.056811	-0.000419	0.027107	-0.009825	90.681417	-82.748906	-0.649216
62238	9.622343	1.255373	0.030803	-0.006228	0.024688	-0.009756	90.588390	-82.743275	-0.560735
62239	9.645148	1.256230	-0.021987	-0.007666	0.024334	-0.007021	90.498066	-82.739113	-0.473628
62240	9.641963	1.261919	0.022439	-0.011113	0.025741	-0.010186	90.397742	-82.733177	-0.380002
62241	9.661424	1.293717	0.065619	-0.016818	0.024968	-0.009685	90.299493	-82.727454	-0.290190
62242	9.652827	1.231184	0.031990	-0.015017	0.019914	-0.004654	90.223883	-82.724647	-0.222978
62243	9.627229	1.184752	0.023473	-0.016356	0.021091	-0.008586	90.143541	-82.719514	-0.150950
62244	9.646665	1.216544	0.066240	-0.011423	0.020809	-0.011485	90.065930	-82.712791	-0.080421
62245	9.634942	1.159186	0.074028	-0.009571	0.016519	-0.009788	90.010172	-82.706945	-0.029257
62246	9.657482	1.186200	0.074547	-0.010138	0.018756	-0.011318	89.942636	-82.700228	0.033049
62247	9.668099	1.180805	0.134869	0.000450	0.018484	-0.011380	89.884038	-82.693454	0.092868
62248	9.648881	1.241844	0.085452	0.001635	0.014781	-0.011650	89.841627	-82.686575	0.137251
62249	9.663005	1.205675	0.049764	0.006924	0.020322	-0.009473	89.778709	-82.680876	0.205166
62250	9.660071	1.185664	0.039188	0.015618	0.012224	-0.012308	89.755916	-82.673644	0.237438
62251	9.657191	1.282317	0.071951	0.021007	0.019415	-0.009696	89.705294	-82.667808	0.301093
62252	9.637597	1.252262	0.032731	0.022140	0.014945	-0.006632	89.674025	-82.663770	0.346308
62253	9.657415	1.374424	0.064116	0.025117	0.017425	-0.004559	89.634606	-82.660873	0.401043
62254	9.626344	1.402306	0.074167	0.018023	0.017056	-0.004667	89.590875	-82.657990	0.453001
62255	9.643397	1.386425	0.050223	0.002966	0.013721	-0.000621	89.555170	-82.657356	0.491195
62256	9.651727	1.333010	0.044175	-0.006235	0.013580	0.000034	89.513853	-82.657160	0.530203
62257	9.648972	1.311733	0.033667	-0.009683	0.015101	0.003964	89.464590	-82.659138	0.574760
62258	9.666586	1.269205	-0.043991	-0.016209	0.012495	0.005386	89.421936	-82.661935	0.610348
62259	9.651867	1.215289	0.005342	-0.019552	0.015550	0.002651	89.365029	-82.663148	0.656911
62260	9.645875	1.198929	0.036963	-0.018111	0.015909	-0.000079	89.305739	-82.662818	0.705337
62261	9.628754	1.215008	0.063883	-0.011840	0.014453	0.000963	89.258203	-82.663061	0.746906
62262	9.631047	1.261912	0.131070	-0.010754	0.009100	0.000259	89.233456	-82.662985	0.764419
62263	9.642164	1.229384	0.136612	-0.008700	0.008102	0.002828	89.215861	-82.664341	0.777614
62264	9.633881	1.165924	0.101308	-0.005304	0.005815	0.002231	89.209809	-82.665393	0.784010
62265	9.633903	1.165680	0.101986	0.001889	0.007832	0.002780	89.199478	-82.666722	0.795998
62266	9.673690	1.175597	0.075992	0.009457	0.004204	-0.003111	89.208344	-82.664681	0.793580
62267	9.662570	1.208039	0.071945	0.006206	0.009021	0.001689	89.195265	-82.665376	0.810833
62268	9.676926	1.170903	0.035391	0.008270	0.007910	-0.002841	89.187180	-82.663524	0.823853
62269	9.648647	1.219679	0.056590	0.005960	0.004844	-0.002949	89.192840	-82.661595	0.822070
62270	9.668487	1.225086	0.043745	0.002419	0.004603	-0.006556	89.196580	-82.657629	0.820891
62271	9.674427	1.242017	0.014350	-0.000356	0.005421	-0.007761	89.196351	-82.652938	0.821398
62272	9.673361	1.178091	0.079118	-0.002610	0.003122	-0.011201	89.204316	-82.646378	0.812358
62273	9.657071	1.259771	0.040436	0.004572	0.005254	-0.003551	89.207388	-82.644101	0.812384
62274	9.676900	1.265261	0.027732	-0.003853	0.006061	-0.007600	89.200897	-82.639548	0.816565
62275	9.639751	1.277163	0.066712	0.000931	0.003364	-0.007594	89.210509	-82.634970	0.807892
62276	9.636398	1.282509	0.108972	-0.001133	0.004474	-0.003064	89.212161	-82.633002	0.805576
62277	9.639629	1.278037	0.067541	-0.000412	0.004654	-0.004428	89.215086	-82.630226	0.802870
62278	9.610885	1.236203	0.099059	-0.004008	0.003644	-0.004704	89.218939	-82.627294	0.797584
62279	9.627979	1.220553	0.074096	0.002985	0.002367	-0.005024	89.233961	-82.624196	0.784642
62280	9.647817	1.226018	0.060967	0.002885	0.000719	-0.005459	89.255280	-82.620961	0.764773
62281	9.653773	1.242855	0.031141	0.003607	0.000899	-0.006824	89.277227	-82.616841	0.745207
62282	9.684730	1.216038	0.022733	0.001697	0.004425	-0.005191	89.280945	-82.613643	0.743172
62283	9.656338	1.265260	0.043908	-0.002411	0.006421	-0.010330	89.275217	-82.607473	0.748036
62284	9.670648	1.228974	0.007096	0.003040	0.003137	-0.008355	89.285569	-82.602436	0.741067
62285	9.656113	1.266945	0.044789	-0.007450	0.005050	-0.007877	89.282866	-82.597683	0.739970
62286	9.641775	1.188283	0.039370	-0.007918	0.008937	-0.008973	89.261555	-82.592317	0.757187
62287	9.664294	1.215232	0.038954	-0.008117	0.005640	-0.009844	89.255998	-82.586432	0.758582
62288	9.658132	1.199982	0.069488	-0.003800	0.006832	-0.010932	89.246418	-82.579968	0.766079
62289	9.610354	1.218564	0.050222	-0.002313	0.008072	-0.009893	89.233510	-82.574036	0.778240
62290	9.629509	1.250637	0.091527	-0.003942	0.004305	-0.015134	89.235443	-82.565146	0.775691
62291	9.666411	1.240982	0.053350	0.000844	0.001611	-0.015126	89.253019	-82.556265	0.758934
62292	9.632474	1.248488	0.050375	0.001182	0.007437	-0.010052	89.243340	-82.550294	0.768653
62293	9.643766	1.308087	0.045117	0.013837	0.006070	-0.014621	89.248769	-82.541669	0.771655
62294	9.677382	1.302996	0.049157	-0.009408	0.007696	-0.010011	89.232049	-82.535688	0.783667
62295	9.683274	1.320264	0.019928	0.000985	0.004140	-0.010923	89.238352	-82.529196	0.778360
62296	9.666565	1.311432	-0.007994	-0.005716	0.010359	-0.009298	89.212453	-82.523634	0.801945
62297	9.663105	1.317159	0.034936	-0.009311	0.009346	-0.009575	89.190078	-82.517873	0.819612
62298	9.666349	1.313029	-0.005851	-0.017083	0.009666	-0.004563	89.160562	-82.515032	0.840416
62299	9.637634	1.271257	0.026348	-0.015640	0.010030	-0.007291	89.131494	-82.510572	0.861177
62300	9.631505	1.255634	0.057435	-0.021248	0.010894	-0.006371	89.094090	-82.506656	0.887119
62301	9.643035	1.107324	0.019917	-0.007534	0.015538	-0.007224	89.045747	-82.502179	0.932006
62302	9.614099	1.272933	0.085134	0.001694	0.004433	-0.005186	89.049898	-82.499020	0.929866
62303	9.658510	1.351626	0.137408	-0.007924	0.008943	-0.008970	89.030208	-82.493603	0.945627
62304	9.655525	1.240353	0.136552	-0.015226	0.005372	-0.002866	89.019929	-82.491706	0.948280
62305	9.639617	1.205075	0.054584	0.001791	0.006083	-0.004748	89.017947	-82.488735	0.951796
62306	9.650949	1.264021	0.049167	0.001500	0.001136	-0.006058	89.035677	-82.485073	0.934597
62307	9.661346	1.258259	0.107995	0.000362	0.005616	-0.009119	89.035221	-82.479603	0.935747
62308	9.698390	1.248075	0.069871	-0.002761	0.000714	-0.008304	89.053028	-82.474646	0.918108
62309	9.645266	1.224478	0.025907	-0.005481	0.002304	-0.012841	89.063829	-82.467074	0.904527
62310	9.678184	1.245295	0.083504	-0.007688	0.000882	-0.012517	89.078025	-82.459710	0.886525
62311	9.582696	1.281654	0.043532	-0.009839	0.000233	-0.015523	89.095415	-82.450620	0.863778
62312	9.604933	1.218403	0.052654	0.001322	-0.002261	-0.014029	89.128771	-82.442412	0.833031
62313	9.654518	1.339744	0.128465	-0.004720	0.003364	-0.010436	89.135146	-82.436207	0.824353
62314	9.609948	1.262871	0.076716	-0.003188	-0.006755	-0.013818	89.184802	-82.428178	0.772746
62315	9.637644	1.332452	0.099278	-0.005772	-0.002640	-0.014150	89.216584	-82.419891	0.737829
62316	9.629518	1.270538	0.062589	-0.006212	-0.010009	-0.012568	89.278933	-82.412589	0.673902
62317	9.634664	1.313874	0.085813	-0.006212	-0.010008	-0.012567	89.341866	-82.405252	0.607303
62318	9.646467	1.256941	0.035561	-0.006213	-0.010007	-0.012567	89.403349	-82.397954	0.541629
62319	9.631690	1.295324	0.071971	-0.003382	-0.010048	-0.014691	89.467912	-82.389381	0.475020
62320	9.660015	1.248388	0.050186	-0.004295	-0.013528	-0.014201	89.545642	-82.381092	0.396493
62321	9.632075	1.272069	0.015816	-0.004158	-0.011005	-0.009997	89.613412	-82.375190	0.326198
62322	9.631192	1.299194	0.068803	-0.001941	-0.009678	-0.017418	89.674666	-82.364957	0.264066
62323	9.611083	1.295792	0.080789	-0.008750	-0.017246	-0.017318	89.766337	-82.354855	0.166997
62324	9.614217	1.292686	0.037489	-0.012154	-0.014964	-0.016721	89.845171	-82.345061	0.083505
62325	9.644454	1.292971	0.081414	-0.016513	-0.017035	-0.019400	89.931031	-82.333728	-0.012193
62326	9.656200	1.236707	0.030538	-0.015125	-0.017440	-0.018797	90.017712	-82.322730	-0.107437
62327	9.669933	1.226985	0.045465	-0.002527	-0.019461	-0.012945	90.121403	-82.315053	-0.213046
62328	9.610043	1.303937	0.073066	-0.003961	-0.019923	-0.017313	90.224339	-82.304887	-0.319722
62329	9.657582	1.288145	0.090966	-0.003484	-0.023808	-0.016221	90.345363	-82.295268	-0.443380
62330	9.629610	1.221606	0.065465	-0.004536	-0.029804	-0.019934	90.490093	-82.283537	-0.590661
62331	9.623326	1.297961	0.082484	-0.007126	-0.025691	-0.020260	90.616123	-82.271516	-0.721483
62332	9.645726	1.235397	0.088625	-0.006310	-0.035979	-0.022281	90.784364	-82.258197	-0.891908
62333	9.656823	1.205179	0.089816	-0.001232	-0.033716	-0.020969	90.946600	-82.245605	-1.055869
62334	9.639966	1.197655	0.057905	0.005141	-0.033599	-0.026589	91.108856	-82.229738	-1.217384
62335	9.626032	1.276634	-0.026385	0.007681	-0.038570	-0.030027	91.294551	-82.211770	-1.399880
62336	9.650730	1.326722	-0.019245	0.005664	-0.036697	-0.028823	91.469673	-82.194533	-1.573106
62337	9.624950	1.373116	-0.043611	-0.001101	-0.031366	-0.030945	91.618553	-82.176003	-1.723537
62338	9.660980	1.390959	-0.031271	-0.009632	-0.032127	-0.028317	91.763897	-82.158914	-1.874459
62339	9.620929	1.383480	-0.007800	-0.014810	-0.036029	-0.030057	91.923021	-82.140700	-2.043171
62340	9.623101	1.407600	0.001073	-0.021863	-0.035638	-0.033485	92.074378	-82.120467	-2.205521
62341	9.639298	1.420544	0.026444	-0.032692	-0.039472	-0.030958	92.235795	-82.101537	-2.386909
62342	9.616457	1.397287	0.024373	-0.039791	-0.039859	-0.031053	92.392680	-82.082474	-2.566131
62343	9.630602	1.363344	-0.016500	-0.038498	-0.041900	-0.030889	92.559124	-82.063385	-2.755970
62344	9.630170	1.366349	-0.019848	-0.037598	-0.038412	-0.031376	92.709729	-82.043987	-2.925778
62345	9.601655	1.326641	0.007809	-0.040710	-0.043307	-0.030550	92.879046	-82.024907	-3.119813
62346	9.637725	1.344534	0.019459	-0.037835	-0.042464	-0.028916	93.044255	-82.006754	-3.309659
62347	9.651906	1.310393	-0.021540	-0.032663	-0.038551	-0.027176	93.197918	-81.989599	-3.483248
62348	9.626558	1.265846	-0.036000	-0.028735	-0.043908	-0.030028	93.373058	-81.970543	-3.673476
62349	9.609012	1.284563	-0.014324	-0.020834	-0.041667	-0.030866	93.543681	-81.951028	-3.857366
62350	9.645497	1.276951	-0.057055	-0.013156	-0.043499	-0.029255	93.724615	-81.932291	-4.045602
62351	9.639493	1.263357	-0.031160	-0.013746	-0.041253	-0.030775	93.895934	-81.912687	-4.226108
62352	9.622322	1.256675	-0.063587	-0.012417	-0.042507	-0.033943	94.069851	-81.891092	-4.405750
62353	9.644158	1.286446	-0.068822	-0.012483	-0.043354	-0.037705	94.246485	-81.867288	-4.590915
62354	9.581381	1.318728	-0.108426	-0.019335	-0.038887	-0.043556	94.396770	-81.840308	-4.754615
62355	9.606510	1.279668	-0.091577	-0.020491	-0.046490	-0.047704	94.575993	-81.810501	-4.947056
62356	9.611026	1.326307	-0.071320	-0.021704	-0.042789	-0.047415	94.738093	-81.780967	-5.120177
62357	9.593228	1.346786	-0.049647	-0.019669	-0.043842	-0.051950	94.903302	-81.748705	-5.298011
62358	9.620950	1.329358	-0.020882	-0.021875	-0.045259	-0.051608	95.070168	-81.716437	-5.476205
62359	9.583761	1.319297	-0.040096	-0.020553	-0.046500	-0.054776	95.241565	-81.682277	-5.660834
62360	9.585579	1.345568	-0.032396	-0.014451	-0.051191	-0.054651	95.432121	-81.647888	-5.860095
62361	9.553452	1.377756	-0.027953	-0.011734	-0.052833	-0.057228	95.629136	-81.611806	-6.065543
62362	9.541158	1.390043	-0.091634	-0.016600	-0.063880	-0.058738	95.862238	-81.574140	-6.309238
62363	9.610651	1.405304	-0.079568	-0.012995	-0.062038	-0.061805	96.088288	-81.534670	-6.544810
62364	9.629167	1.441849	-0.044707	-0.012241	-0.061774	-0.056078	96.312672	-81.498410	-6.778599
62365	9.635909	1.510514	-0.014366	-0.013399	-0.069352	-0.060220	96.562729	-81.459094	-7.038726
62366	9.619441	1.441050	0.013955	-0.008275	-0.079135	-0.060051	96.849031	-81.419082	-7.332055
62367	9.656784	1.345813	-0.023577	0.003332	-0.087047	-0.058024	97.171194	-81.379394	-7.655467
62368	9.629699	1.394880	-0.053029	0.022572	-0.096806	-0.061519	97.534798	-81.336782	-8.009598
62369	9.575218	1.426380	0.002510	0.021339	-0.093097	-0.061217	97.881841	-81.294230	-8.347813
62370	9.601499	1.475279	-0.038032	0.022020	-0.093664	-0.059250	98.227860	-81.252486	-8.683805
62371	9.530088	1.496809	-0.010470	0.024999	-0.089566	-0.063841	98.555991	-81.208136	-9.000841
62372	9.521600	1.465113	-0.002124	0.021628	-0.100148	-0.060971	98.917780	-81.164276	-9.354182
62373	9.557099	1.461087	-0.051659	0.020547	-0.106060	-0.064656	99.295964	-81.117369	-9.724532
62374	9.590055	1.461848	-0.060231	0.011912	-0.121381	-0.067221	99.717514	-81.067243	-10.143826
62375	9.622322	1.360647	-0.286037	0.019596	-0.123123	-0.065661	100.147199	-81.017266	-10.566966
62376	9.594249	1.384263	-0.372313	0.043328	-0.116193	-0.061306	100.562905	-80.970053	-10.961986
62377	9.532509	1.550687	-0.404346	0.050476	-0.112472	-0.067484	100.962274	-80.919240	-11.336625
62378	9.527267	1.815403	-0.272931	0.004557	-0.110481	-0.069790	101.321255	-80.867040	-11.697090
62379	9.458645	1.712195	-0.075718	-0.064886	-0.108121	-0.085032	101.618631	-80.806146	-12.035482
62380	9.446318	1.631181	0.122099	-0.107987	-0.131015	-0.095368	101.957175	-80.736558	-12.440788
62381	9.538367	1.260536	-0.085776	-0.141127	-0.143747	-0.089698	102.320060	-80.668133	-12.889955
62382	9.568661	1.137101	-0.366833	-0.082757	-0.148333	-0.092681	102.722335	-80.597077	-13.345347
62383	9.608616	1.453241	-0.281925	-0.059343	-0.144626	-0.096368	103.117456	-80.523831	-13.779874
62384	9.666630	1.612817	-0.321483	-0.057732	-0.139247	-0.097778	103.486998	-80.450128	-14.187691
62385	9.763753	1.617211	-0.541811	-0.064032	-0.139413	-0.092023	103.853372	-80.379079	-14.595974
62386	9.830210	1.560538	-0.700382	-0.037553	-0.125273	-0.076047	104.195226	-80.318557	-14.964165
62387	9.736734	1.692794	-0.614600	-0.005649	-0.111119	-0.071529	104.510050	-80.262098	-15.286362
62388	9.657663	2.062535	-0.451523	-0.015681	-0.098771	-0.071510	104.774744	-80.207264	-15.563714
62389	9.610872	1.553863	-0.736460	-0.063456	-0.095920	-0.061829	105.009428	-80.157906	-15.838297
62390	9.616006	1.570099	-0.518602	-0.032805	-0.090921	-0.061926	105.242101	-80.109145	-16.093135
62391	9.696174	1.559082	-0.465526	-0.044335	-0.096688	-0.058239	105.488236	-80.061269	-16.368303
62392	9.620972	1.562492	-0.405542	-0.029157	-0.088179	-0.061277	105.710161	-80.012932	-16.610235
62393	9.657799	1.580222	-0.441701	-0.019160	-0.086832	-0.059753	105.933777	-79.965385	-16.847969
62394	9.583322	1.553799	-0.477450	-0.007433	-0.081821	-0.053043	106.151411	-79.922267	-17.072929
62395	9.635210	1.560092	-0.497673	0.002289	-0.082093	-0.059037	106.369145	-79.875559	-17.292272
62396	9.657032	1.696038	-0.588756	0.004295	-0.087127	-0.054078	106.604954	-79.830708	-17.528949
62397	9.619381	1.655741	-0.706668	-0.000603	-0.073370	-0.049518	106.799195	-79.790365	-17.726167
62398	9.549251	1.729073	-0.524035	-0.003995	-0.068722	-0.051705	106.972880	-79.749587	-17.904596
62399	9.578311	1.712127	-0.499145	-0.016142	-0.072298	-0.049489	107.152033	-79.709221	-18.095578
62400	9.554329	1.694188	-0.461508	-0.019538	-0.067652	-0.051674	107.310860	-79.668450	-18.268006
62401	9.609109	1.555374	-0.621919	-0.030389	-0.069986	-0.055521	107.466482	-79.624989	-18.443417
62402	9.525860	1.470056	-0.649852	-0.009697	-0.061383	-0.063016	107.598999	-79.578943	-18.583418
62403	9.578809	1.502520	-0.613988	0.003015	-0.059167	-0.067048	107.728166	-79.530919	-18.712517
62404	9.635904	1.444595	-0.569072	0.012981	-0.054548	-0.071767	107.842915	-79.481186	-18.821263
62405	9.643110	1.539834	-0.483614	0.034223	-0.049767	-0.078212	107.949592	-79.428635	-18.909340
62406	9.660992	1.657158	-0.583866	0.032835	-0.044477	-0.084524	108.032299	-79.373666	-18.973954
62407	9.587730	1.761506	-0.642403	0.020822	-0.041578	-0.087605	108.096983	-79.317407	-19.027146
62408	9.676660	1.813373	-0.591539	-0.007272	-0.041720	-0.102311	108.130712	-79.253217	-19.065326
62409	9.668367	1.653168	-0.592487	-0.032114	-0.034535	-0.113721	108.119541	-79.183982	-19.072197
62410	9.554419	1.756094	-0.536059	-0.038060	-0.027521	-0.109508	108.088186	-79.118401	-19.062084
62411	9.572421	1.665662	-0.513613	-0.041399	-0.031551	-0.118975	108.058663	-79.046836	-19.055686
62412	9.538458	1.702594	-0.504988	-0.041847	-0.029319	-0.113400	108.027113	-78.978815	-19.047581
62413	9.642249	1.688186	-0.629484	-0.039432	-0.033255	-0.120204	108.002809	-78.906277	-19.045350
62414	9.673592	1.828742	-0.614610	-0.037191	-0.022799	-0.128774	107.942588	-78.831030	-19.005302
62415	9.623696	1.848535	-0.716817	-0.051084	-0.017351	-0.126820	107.862705	-78.757685	-18.953215
62416	9.679863	1.930085	-0.651003	-0.071921	-0.006762	-0.126766	107.742135	-78.686318	-18.871899
62417	9.626494	1.962348	-0.624838	-0.092070	-0.006217	-0.135824	107.602834	-78.609955	-18.783134
62418	9.566474	1.931825	-0.634814	-0.121601	-0.003931	-0.131331	107.445042	-78.536503	-18.692841
62419	9.558569	1.878329	-0.711668	-0.121486	-0.000623	-0.130428	107.281563	-78.463954	-18.596556
62420	9.438757	1.968644	-0.577476	-0.122815	0.007983	-0.135816	107.090798	-78.389958	-18.473269
62421	9.340102	1.957439	-0.418956	-0.158085	-0.000089	-0.141718	106.899267	-78.311190	-18.369701
62422	9.411499	1.747666	-0.338558	-0.185012	-0.023045	-0.156251	106.742453	-78.220684	-18.317416
62423	9.518471	1.422354	-0.645523	-0.182623	-0.029284	-0.160171	106.602583	-78.126872	-18.280928
62424	9.599968	1.420649	-0.628256	-0.124571	-0.031077	-0.177670	106.487653	-78.023248	-18.236018
62425	9.612305	1.554088	-0.680791	-0.128597	-0.028615	-0.191008	106.356132	-77.912565	-18.176390
62426	9.619561	1.595313	-0.908795	-0.118176	-0.016057	-0.205630	106.188765	-77.795941	-18.074053
62427	9.625512	1.870121	-0.857198	-0.129694	-0.007659	-0.196466	106.003543	-77.685513	-17.960063
62428	9.662213	1.973939	-0.761385	-0.141525	0.000611	-0.213557	105.780734	-77.566999	-17.814568
62429	9.655335	2.029445	-0.576555	-0.175366	0.009617	-0.212562	105.521103	-77.450177	-17.651065
62430	9.738253	1.903901	-0.530564	-0.171343	0.007915	-0.214603	105.269808	-77.331930	-17.493754
62431	9.613855	1.925962	-0.557474	-0.171609	0.020724	-0.209560	104.994826	-77.218114	-17.312158
62432	9.570641	1.888064	-0.590898	-0.187660	0.029484	-0.205737	104.695291	-77.107623	-17.114816
62433	9.511381	2.032011	-0.637233	-0.166989	0.027709	-0.217697	104.409239	-76.989901	-16.918981
62434	9.323208	2.001574	-0.476151	-0.211894	0.045917	-0.212151	104.061184	-76.877705	-16.685900
62435	9.423289	2.010102	-0.507592	-0.193763	0.019112	-0.219795	103.787952	-76.757158	-16.518805
62436	9.463132	2.127061	-0.519628	-0.216466	0.036642	-0.225227	103.460924	-76.635877	-16.309797
62437	9.465508	2.253267	-0.446893	-0.249038	0.030262	-0.232842	103.131402	-76.509112	-16.117220
62438	9.414779	1.948737	-0.463109	-0.302934	0.019516	-0.237302	102.797795	-76.378342	-15.952188
62439	9.473706	1.907226	-0.449507	-0.272550	0.032144	-0.242688	102.455214	-76.245795	-15.759824
