// General information: 
//  MT Manager version: 2022.2.0 
//  XDA version: 2022.2.0 build 7381 rev 124627 built on 2023-07-19
// Device information: 
//  DeviceId: 00B4BB52
//  ProductCode: MTW2-3A7G6
//  Firmware Version: 4.6.0
//  Hardware Version: 2.0.0
// Device settings: 
//  Filter Profile: human(46.1)
//  Option Flags: Orientation Smoother Disabled, Position/Velocity Smoother Disabled, Continuous Zero Rotation Update Disabled, AHS Disabled, ICC Disabled
// Coordinate system: ENU
PacketCounter	Acc_X	Acc_Y	Acc_Z	Gyr_X	Gyr_Y	Gyr_Z	Roll	Pitch	Yaw
61147	9.417212	0.710704	2.385308	-0.006145	-0.004210	0.002581	17.799554	-75.443603	41.120316
61148	9.454911	0.724941	2.347664	-0.011898	-0.012775	0.000351	17.805876	-75.449684	41.110623
61149	9.433071	0.734728	2.344502	-0.006952	-0.007530	0.002595	17.807401	-75.453411	41.110454
61150	9.417878	0.709640	2.382993	-0.007204	-0.008195	0.001195	17.811577	-75.457153	41.106597
61151	9.463309	0.736279	2.325552	-0.008288	-0.012842	0.001916	17.817358	-75.463660	41.101241
61152	9.441474	0.746149	2.322345	-0.009133	-0.008494	-0.000286	17.823812	-75.467296	41.095567
61153	9.463029	0.741725	2.358052	-0.004213	-0.003912	0.004064	17.821372	-75.469308	41.101116
61154	9.412030	0.743219	2.338543	-0.009410	-0.009821	0.000421	17.827051	-75.473788	41.095187
61155	9.441086	0.697817	2.381320	-0.007757	-0.010850	0.002609	17.830339	-75.479330	41.092721
61156	9.434021	0.738403	2.372659	-0.001853	-0.015634	0.002948	17.839010	-75.487460	41.089616
61157	9.456442	0.727812	2.373724	-0.007503	-0.010185	0.004010	17.839046	-75.492884	41.090660
61158	9.435279	0.731396	2.336646	-0.007225	-0.008858	0.003304	17.839313	-75.497348	41.093297
61159	9.464570	0.739199	2.352656	-0.006418	-0.005538	0.003291	17.838334	-75.500112	41.096031
61160	9.436256	0.724284	2.301747	-0.010668	-0.001782	0.005142	17.827935	-75.501055	41.107309
61161	9.464754	0.737914	2.352322	-0.008713	-0.000821	0.004516	17.819853	-75.501461	41.116022
61162	9.435673	0.728895	2.335837	-0.011284	0.002568	0.006449	17.803303	-75.500238	41.130418
61163	9.464837	0.736412	2.352457	-0.007842	-0.004507	0.004610	17.798018	-75.502670	41.136756
61164	9.406060	0.725345	2.352965	-0.010642	-0.001119	0.003036	17.791583	-75.502873	41.142625
61165	9.442958	0.745379	2.349764	-0.008119	-0.005835	0.005316	17.785545	-75.506153	41.149578
61166	9.458199	0.716153	2.337091	-0.010049	-0.006133	0.003835	17.781153	-75.509250	41.153757
61167	9.466012	0.727960	2.317155	-0.009241	-0.002813	0.003823	17.775573	-75.510619	41.159572
61168	9.414232	0.735549	2.332095	-0.005839	-0.002220	-0.000229	17.779552	-75.510817	41.158218
61169	9.428679	0.712584	2.353860	-0.012065	-0.000088	0.004357	17.769383	-75.510793	41.167102
61170	9.443416	0.742799	2.348741	-0.005079	-0.000227	0.003972	17.763484	-75.510675	41.173745
61171	9.428711	0.711421	2.354082	-0.009579	0.002865	0.004426	17.752597	-75.509051	41.184841
61172	9.436420	0.723259	2.334568	-0.011170	-0.003111	0.002343	17.748680	-75.510252	41.188487
61173	9.473323	0.743396	2.331337	-0.009770	-0.004805	0.003129	17.745606	-75.512587	41.191401
61174	9.436642	0.722190	2.334003	-0.010916	-0.002447	0.003744	17.738373	-75.513664	41.196940
61175	9.443708	0.740127	2.348411	-0.006731	0.000803	0.001786	17.736086	-75.512703	41.200840
61176	9.429006	0.708938	2.353647	-0.008685	-0.000158	0.002412	17.731436	-75.512252	41.205955
61177	9.458885	0.710623	2.336002	-0.010323	-0.007461	0.004541	17.726852	-75.516281	41.210101
61178	9.443943	0.738581	2.347950	-0.008431	0.000506	0.003813	17.718900	-75.515726	41.217727
61179	9.443914	0.738064	2.348230	-0.011230	0.003895	0.002242	17.710986	-75.513156	41.224777
61180	9.429176	0.706754	2.353625	-0.006754	0.000138	0.003893	17.704092	-75.512799	41.232676
61181	9.466043	0.726671	2.350633	-0.009008	-0.002815	0.007331	17.691226	-75.514778	41.246154
61182	9.413627	0.739803	2.399689	-0.010383	-0.000456	0.004440	17.681567	-75.514857	41.256999
61183	9.444140	0.735440	2.348145	-0.006161	-0.004876	0.004689	17.677299	-75.517500	41.263282
61184	9.452619	0.741138	2.294227	-0.012890	-0.004073	0.006477	17.664290	-75.519959	41.275085
61185	9.437383	0.715456	2.333079	-0.009260	-0.003479	0.005931	17.654675	-75.522055	41.285057
61186	9.452212	0.745524	2.327756	-0.008983	-0.002151	0.005226	17.645309	-75.523201	41.296947
61187	9.437558	0.713951	2.332833	-0.015688	-0.000682	0.004908	17.632289	-75.523592	41.306631
61188	9.444652	0.731555	2.347300	-0.006775	-0.000527	0.006001	17.621380	-75.524008	41.319216
61189	9.422632	0.741128	2.345061	-0.008959	-0.001486	0.003120	17.616537	-75.524526	41.324438
61190	9.459150	0.707737	2.368999	-0.010381	-0.000456	0.004442	17.606784	-75.524643	41.332928
61191	9.422749	0.739973	2.344952	-0.011165	-0.003109	0.002345	17.603405	-75.525913	41.335332
61192	9.459845	0.700710	2.335110	-0.010694	0.005888	0.002944	17.592418	-75.522252	41.345561
61193	9.422679	0.738846	2.345590	-0.009849	0.001535	0.005138	17.580770	-75.521469	41.357284
61194	9.422018	0.744102	2.379875	-0.009571	0.002863	0.004433	17.569315	-75.519726	41.368918
61195	9.466825	0.717315	2.350358	-0.011141	-0.002443	0.000238	17.569957	-75.520267	41.367183
61196	9.423303	0.731354	2.312160	-0.005410	0.005447	0.004584	17.558840	-75.517134	41.380868
61197	9.452354	0.738910	2.329286	-0.011246	0.003231	0.004355	17.546920	-75.515287	41.392046
61198	9.436937	0.713494	2.368683	-0.010078	0.001539	0.001631	17.542051	-75.513811	41.398361
61199	9.415505	0.717297	2.332641	-0.008425	0.000505	0.003816	17.534711	-75.513360	41.406478
61200	9.422531	0.735175	2.347338	-0.007870	0.003162	0.002407	17.528341	-75.511145	41.414450
61201	9.474317	0.726616	2.332585	-0.010991	0.003892	0.005757	17.513169	-75.509177	41.429137
61202	9.415415	0.715532	2.333549	-0.008425	0.000505	0.003816	17.505252	-75.508612	41.437279
61203	9.465909	0.718866	2.386764	-0.009014	0.005520	0.003026	17.495907	-75.505282	41.447119
61204	9.430102	0.745472	2.328975	-0.006113	-0.003545	0.000474	17.499147	-75.506372	41.447200
61205	9.437483	0.704154	2.336112	-0.008678	-0.000157	0.002415	17.495070	-75.506040	41.451797
61206	9.445194	0.716098	2.316675	-0.010099	0.000872	0.003738	17.486146	-75.505295	41.461001
61207	9.436855	0.708904	2.370386	-0.008170	0.001166	0.005219	17.475553	-75.504722	41.472628
61208	9.451597	0.739123	2.365529	-0.008146	0.001833	0.003113	17.468397	-75.503300	41.479884
61209	9.415455	0.711959	2.334481	-0.010399	-0.001124	0.006548	17.455241	-75.504206	41.492839
61210	9.459617	0.690918	2.338949	-0.010075	0.001540	0.001633	17.450288	-75.502744	41.496388
61211	9.422473	0.729269	2.349411	-0.005661	0.004784	0.003186	17.443029	-75.499843	41.506056
61212	9.436742	0.706242	2.371631	-0.011194	0.004566	0.000146	17.438615	-75.496456	41.509696
61213	9.444368	0.718486	2.352474	-0.008375	0.001840	-0.000394	17.439326	-75.494549	41.509526
61214	9.444316	0.718200	2.352768	-0.007867	0.003162	0.002410	17.432974	-75.492323	41.517319
61215	9.422292	0.727958	2.350544	-0.008088	-0.005173	0.003203	17.430903	-75.494866	41.520193
61216	9.452212	0.729639	2.332783	-0.013390	-0.005398	0.003671	17.424365	-75.497507	41.523651
61217	9.436934	0.704095	2.371502	-0.007556	-0.003184	0.003902	17.419800	-75.499083	41.529416
61218	9.423303	0.720408	2.315594	-0.007278	-0.001855	0.003198	17.415417	-75.499741	41.534715
61219	9.452521	0.727857	2.332085	-0.007324	-0.003192	0.007409	17.403572	-75.501922	41.548137
61220	9.444898	0.714647	2.351515	-0.013977	-0.000382	0.002885	17.395087	-75.501732	41.555210
61221	9.444272	0.719966	2.385615	-0.010349	0.000211	0.002338	17.389974	-75.501183	41.559888
61222	9.437885	0.695160	2.337183	-0.010118	0.000202	0.005846	17.376988	-75.501167	41.571923
61223	9.385470	0.708283	2.386318	-0.009229	-0.002816	0.003823	17.371379	-75.502527	41.577775
61224	9.452926	0.724793	2.331398	-0.003007	-0.013284	0.003524	17.376317	-75.509448	41.575815
61225	9.453213	0.724268	2.330396	-0.012522	-0.009085	0.003754	17.373114	-75.514224	41.577233
61226	9.416603	0.703222	2.332495	-0.007197	-0.008192	0.001180	17.377243	-75.517993	41.573799
61227	9.460015	0.747596	2.377692	-0.009482	-0.003476	0.002423	17.374885	-75.519474	41.576144
61228	9.416236	0.708094	2.365744	-0.007576	-0.003854	0.006008	17.365699	-75.521723	41.586361
61229	9.453966	0.721986	2.328049	-0.008351	-0.014848	0.008203	17.359273	-75.530412	41.593576
61230	9.461445	0.738852	2.341366	-0.006844	-0.011559	0.018723	17.328593	-75.538987	41.624737
61231	9.476142	0.773068	2.368985	-0.004414	-0.018964	0.029411	17.282093	-75.553540	41.675665
61232	9.498952	0.758844	2.369414	-0.020818	-0.019314	0.048288	17.185631	-75.571378	41.768843
61233	9.478525	0.698495	2.324067	-0.013666	-0.021484	0.057723	17.074889	-75.592049	41.880621
61234	9.464413	0.721063	2.334907	-0.018494	-0.013380	0.060921	16.948398	-75.608668	42.005775
61235	9.384223	0.596870	2.317928	-0.026707	-0.006837	0.045800	16.845575	-75.619211	42.101646
61236	9.465438	0.652189	2.326485	-0.008708	-0.000531	0.029016	16.784208	-75.623424	42.164833
61237	9.391503	0.667753	2.340863	-0.005804	0.026094	0.027438	16.711314	-75.612804	42.242170
61238	9.331901	0.661154	2.376617	-0.005467	-0.005584	0.017320	16.680017	-75.617841	42.274876
61239	9.428817	0.684214	2.337482	-0.018372	-0.028639	0.014227	16.663334	-75.635066	42.286749
61240	9.422231	0.664241	2.321170	-0.008743	-0.011178	0.015144	16.638378	-75.642746	42.311700
61241	9.436982	0.699479	2.348821	0.008614	-0.018569	0.012478	16.634393	-75.654155	42.326424
61242	9.430374	0.679954	2.332441	-0.016719	-0.021331	0.012121	16.617880	-75.666947	42.340023
61243	9.475646	0.652199	2.300280	-0.006612	-0.029897	0.010553	16.616537	-75.684259	42.343017
61244	9.468456	0.698074	2.325484	-0.003101	-0.007620	0.007652	16.608580	-75.688808	42.355132
61245	9.438877	0.635942	2.334863	-0.006409	-0.005533	0.003288	16.607333	-75.691552	42.358145
61246	9.461599	0.678791	2.309967	-0.009736	-0.004117	0.001031	16.607503	-75.693091	42.355940
61247	9.438960	0.635500	2.334650	-0.009187	0.006892	-0.004668	16.613812	-75.687710	42.349513
61248	9.461322	0.679178	2.310986	-0.005265	0.009480	-0.008028	16.627453	-75.680282	42.340463
61249	9.438513	0.695664	2.343796	-0.012533	0.007636	-0.004819	16.631679	-75.674468	42.334206
61250	9.423468	0.665348	2.349297	-0.007150	0.002187	-0.009426	16.651800	-75.670788	42.313865
61251	9.467943	0.699117	2.327257	-0.003248	0.004104	-0.010680	16.676193	-75.665948	42.292284
61252	9.423144	0.666844	2.350173	-0.013048	0.006319	-0.007625	16.686483	-75.660306	42.281586
61253	9.430731	0.679879	2.331017	-0.000476	0.000029	-0.007018	16.707201	-75.658303	42.265437
61254	9.445016	0.657561	2.352613	-0.009397	-0.000774	-0.005991	16.720525	-75.656831	42.250767
61255	9.459976	0.688727	2.347175	-0.006540	-0.010511	-0.006462	16.743370	-75.660700	42.228837
61256	9.445239	0.658454	2.351467	-0.003240	-0.004247	-0.006389	16.763309	-75.661008	42.210247
61257	9.445408	0.658826	2.350686	-0.005163	-0.012885	-0.003578	16.782308	-75.666652	42.193102
61258	9.467647	0.708143	2.359321	-0.007676	-0.008152	-0.005836	16.801034	-75.669236	42.172918
61259	9.423695	0.669616	2.347174	-0.006090	-0.002862	-0.001627	16.808832	-75.669703	42.166785
61260	9.431495	0.682468	2.327165	-0.002637	-0.008593	-0.007716	16.834819	-75.672203	42.143235
61261	9.431071	0.688736	2.360606	-0.006863	-0.004835	-0.005837	16.852496	-75.673053	42.126447
61262	9.469164	0.698155	2.288971	-0.006537	-0.010511	-0.006461	16.874871	-75.676792	42.105823
61263	9.424651	0.665495	2.310962	-0.006931	0.001499	-0.003808	16.884034	-75.674503	42.097784
61264	9.438960	0.702175	2.340049	-0.002466	-0.002274	-0.002179	16.894105	-75.674476	42.090129
61265	9.439067	0.702272	2.339591	-0.007435	-0.008168	-0.002326	16.906100	-75.677733	42.078868
61266	9.461770	0.686263	2.307057	-0.013850	-0.005354	-0.003327	16.914207	-75.679180	42.068744
61267	9.454144	0.673730	2.326301	-0.003881	-0.001246	-0.000850	16.920555	-75.678888	42.065414
61268	9.424465	0.671472	2.343548	-0.002484	-0.002947	-0.000074	16.926624	-75.679524	42.064064
61269	9.461513	0.691789	2.340067	-0.013283	-0.011047	-0.000444	16.933118	-75.684671	42.055023
61270	9.425333	0.665424	2.308197	-0.010245	-0.005439	-0.001774	16.939974	-75.686432	42.047114
61271	9.447391	0.714382	2.317636	-0.003346	0.000742	-0.000149	16.943822	-75.685167	42.046681
61272	9.454630	0.673127	2.324500	-0.008056	-0.004495	0.001107	16.945131	-75.686894	42.045867
61273	9.440478	0.695662	2.302200	-0.011885	-0.012748	0.000333	16.951883	-75.693104	42.037387
61274	9.455029	0.672690	2.323006	-0.008295	-0.004479	-0.002401	16.960626	-75.694225	42.029862
61275	9.417707	0.717059	2.367138	-0.006124	-0.004210	0.002585	16.960250	-75.696130	42.032145
61276	9.462455	0.690422	2.336661	-0.007193	-0.008185	0.001182	16.964332	-75.699884	42.029479
61277	9.455516	0.671814	2.321276	-0.009418	-0.010475	0.002512	16.966335	-75.705211	42.027358
61278	9.462411	0.695316	2.369090	-0.006934	-0.007528	0.002586	16.967086	-75.708828	42.027303
61279	9.441010	0.699352	2.332614	-0.010624	-0.001784	0.005172	16.956973	-75.709837	42.036973
61280	9.433954	0.680583	2.317734	-0.006658	-0.006197	0.001884	16.958529	-75.712634	42.036816
61281	9.441300	0.698284	2.331759	-0.013642	-0.006718	0.004397	16.951589	-75.716217	42.041428
61282	9.463914	0.681512	2.299660	-0.005674	0.003435	0.007425	16.935431	-75.714636	42.059029
61283	9.470634	0.704686	2.348343	-0.005606	-0.002897	0.005393	16.928440	-75.716290	42.068445
61284	9.434903	0.672215	2.282612	-0.012503	-0.009076	0.003768	16.924550	-75.720979	42.072717
61285	9.470940	0.703301	2.347523	-0.011760	0.000574	0.005802	16.910872	-75.720799	42.085393
61286	9.427370	0.658316	2.301909	-0.004776	0.001095	0.003289	16.905698	-75.719829	42.093214
61287	9.463831	0.683963	2.332986	-0.011415	-0.004427	0.003067	16.901381	-75.721933	42.096435
61288	9.456738	0.665321	2.318164	-0.011121	-0.002421	0.000261	16.901373	-75.722357	42.094340
61289	9.464449	0.677412	2.298666	-0.006465	0.000791	0.005321	16.891621	-75.721976	42.106095
61290	9.441852	0.692862	2.331144	-0.013979	0.007316	0.000747	16.882574	-75.717167	42.112176
61291	9.449427	0.705273	2.312119	-0.008878	0.000545	-0.003173	16.889897	-75.715507	42.104885
61292	9.426767	0.661736	2.337050	-0.015116	0.009673	0.001377	16.877353	-75.709445	42.114809
61293	9.441961	0.686847	2.298760	-0.001360	0.003054	-0.004984	16.891238	-75.706108	42.105192
61294	9.441320	0.692740	2.333332	-0.014477	0.006679	-0.004165	16.892914	-75.700845	42.100630
61295	9.455500	0.670092	2.355479	-0.006099	0.005499	-0.005903	16.904454	-75.696014	42.090630
61296	9.448637	0.706063	2.315104	-0.006081	0.006174	-0.008008	16.919523	-75.690372	42.077164
61297	9.440769	0.693888	2.335220	-0.014734	0.006023	-0.005568	16.925038	-75.685309	42.068276
61298	9.455424	0.665483	2.323471	-0.008391	0.009538	-0.002538	16.924841	-75.678710	42.069556
61299	9.447521	0.712273	2.351455	-0.012803	0.006307	-0.004091	16.928096	-75.673737	42.064142
61300	9.447372	0.653088	2.344387	-0.009459	0.005565	-0.003944	16.932877	-75.669103	42.059187
61301	9.418078	0.704610	2.335704	-0.005807	-0.001529	-0.002327	16.941470	-75.668719	42.052400
61302	9.440183	0.694309	2.337464	-0.010238	-0.005437	-0.001777	16.948362	-75.670485	42.045501
61303	9.455130	0.665847	2.324563	-0.011614	-0.003058	-0.004654	16.959621	-75.670550	42.032529
61304	9.469935	0.696913	2.319803	-0.004702	0.003797	-0.005128	16.970786	-75.666667	42.023001
61305	9.440191	0.694752	2.337297	-0.009702	-0.003451	-0.001073	16.975713	-75.667545	42.017694
61306	9.469939	0.696909	2.319788	-0.010563	0.000238	-0.001142	16.977313	-75.666257	42.014859
61307	9.440282	0.694758	2.336928	-0.002118	-0.007269	-0.004921	16.997340	-75.668583	41.998451
61308	9.477322	0.715433	2.333420	-0.005497	-0.007881	-0.000858	17.006627	-75.671815	41.992829
61309	9.432441	0.687858	2.389054	-0.012717	-0.008385	-0.001853	17.014743	-75.675265	41.982448
61310	9.441265	0.689186	2.300917	-0.004687	-0.004563	-0.000854	17.022272	-75.676702	41.978073
61311	9.440394	0.700211	2.368559	-0.004981	-0.006572	0.001950	17.025474	-75.679796	41.977339
61312	9.456006	0.725138	2.328644	-0.005463	-0.015566	0.001310	17.035114	-75.687626	41.969215
61313	9.470654	0.701980	2.349071	-0.012458	-0.007730	-0.000447	17.039946	-75.690952	41.962377
61314	9.434428	0.675594	2.317261	-0.008322	-0.005831	0.001806	17.040531	-75.693505	41.963108
61315	9.471399	0.695804	2.314154	-0.000018	-0.000677	0.002104	17.042370	-75.693396	41.966716
61316	9.434641	0.675117	2.316536	-0.012991	-0.009716	-0.001151	17.049163	-75.697590	41.957459
61317	9.471710	0.695458	2.312985	-0.008838	-0.007140	-0.001002	17.056880	-75.700499	41.949785
61318	9.449256	0.711216	2.344795	-0.010561	0.000238	-0.001136	17.058488	-75.699249	41.947720
61319	9.420096	0.703262	2.327956	-0.006891	-0.006179	-0.001630	17.068039	-75.701525	41.939305
61320	9.456650	0.669864	2.350924	-0.013592	-0.005374	0.000187	17.068758	-75.703566	41.935950
61321	9.442342	0.692513	2.329260	-0.010836	-0.001094	-0.000436	17.070128	-75.703258	41.933644
61322	9.450026	0.704875	2.309793	-0.008906	-0.000811	0.001041	17.068686	-75.702924	41.935223
61323	9.434770	0.679255	2.348544	-0.009457	-0.003475	0.002440	17.066238	-75.704403	41.937673
61324	9.487115	0.724741	2.306301	-0.009370	-0.009126	-0.001708	17.075960	-75.708185	41.928588
61325	9.434982	0.678777	2.347830	-0.013109	0.003620	0.000833	17.070190	-75.705509	41.932307
61326	9.442618	0.691285	2.328505	-0.002463	-0.002269	-0.002181	17.080308	-75.705437	41.925232
61327	9.457454	0.722045	2.323718	-0.015572	0.001350	-0.001348	17.079311	-75.703636	41.922569
61328	9.442633	0.691061	2.328512	-0.009697	-0.003451	-0.001068	17.083635	-75.704435	41.916277
61329	9.450346	0.703559	2.308884	-0.007492	-0.001836	-0.000292	17.087101	-75.704557	41.913786
61330	9.442709	0.690540	2.328360	-0.011730	0.001237	0.003708	17.076916	-75.703563	41.921616
61331	9.471922	0.697797	2.345203	-0.006183	0.002111	0.004628	17.067954	-75.702351	41.932724
61332	9.412985	0.687102	2.346240	-0.015587	0.000672	0.000757	17.062367	-75.701182	41.936197
61333	9.464747	0.678698	2.330804	-0.010850	-0.001773	0.001670	17.059652	-75.701600	41.938099
61334	9.413015	0.686305	2.346356	-0.013640	0.001634	0.000130	17.055871	-75.699775	41.940043
61335	9.435529	0.670222	2.314339	-0.009162	-0.001464	-0.000363	17.058287	-75.699682	41.937648
61336	9.428374	0.711273	2.307411	-0.004408	-0.003230	-0.001554	17.066554	-75.700257	41.930845
61337	9.465370	0.672350	2.296363	-0.013586	-0.005374	0.000187	17.067834	-75.702398	41.927007
61338	9.450135	0.706146	2.342782	-0.011623	-0.003732	-0.002544	17.074494	-75.703086	41.919513
61339	9.450644	0.700589	2.308566	-0.007215	-0.000503	-0.000990	17.078738	-75.702360	41.916382
61340	9.450206	0.705865	2.342581	-0.009177	-0.002145	0.001741	17.076498	-75.702871	41.918064
61341	9.457866	0.718086	2.323268	-0.015050	0.002656	0.001467	17.068889	-75.700828	41.922533
61342	9.435285	0.674043	2.347973	-0.010383	0.006539	0.004426	17.054495	-75.697059	41.937089
61343	9.457686	0.717006	2.324335	-0.011433	0.003248	0.000910	17.049769	-75.694599	41.940721
61344	9.449973	0.703939	2.344103	-0.013378	0.002286	0.001538	17.042681	-75.692672	41.946173
61345	9.442702	0.685476	2.329883	-0.009211	0.005543	-0.000415	17.040566	-75.688732	41.948425
61346	9.457907	0.710599	2.291579	-0.009487	0.004210	0.000283	17.037142	-75.685547	41.952547
61347	9.457844	0.710378	2.291907	-0.013893	0.000981	-0.001272	17.037189	-75.683961	41.949799
61348	9.420406	0.695179	2.329131	-0.007541	0.005172	-0.000344	17.035603	-75.680147	41.953364
61349	9.471591	0.692617	2.348072	-0.006938	0.000831	-0.001688	17.040623	-75.678574	41.949597
61350	9.435165	0.725813	2.324785	-0.010828	-0.001094	-0.000433	17.041471	-75.678186	41.948883
61351	9.435186	0.666457	2.316822	-0.005268	0.000460	-0.001617	17.047538	-75.676828	41.945022
61352	9.457200	0.715339	2.326825	-0.005285	-0.000221	0.000486	17.048952	-75.676104	41.945081
61353	9.464407	0.673987	2.333551	-0.014167	-0.000353	-0.000574	17.048218	-75.675366	41.942977
61354	9.449530	0.702343	2.346364	-0.008865	0.000550	-0.003163	17.054963	-75.673578	41.937051
61355	9.442269	0.684121	2.332034	-0.007282	0.005824	0.001064	17.050597	-75.669732	41.942767
61356	9.457056	0.714696	2.327607	-0.010826	-0.001094	-0.000433	17.051447	-75.669320	41.941968
61357	9.449834	0.696369	2.313152	-0.013081	0.004299	-0.001260	17.049746	-75.665919	41.941504
61358	9.434359	0.670898	2.352592	-0.006988	0.007839	-0.001735	17.049680	-75.660391	41.942896
61359	9.456720	0.714410	2.329058	-0.009999	0.002906	-0.002525	17.053369	-75.657541	41.938692
61360	9.412076	0.681057	2.351644	-0.012822	0.004950	0.000145	17.047824	-75.653905	41.942075
61361	9.448859	0.701211	2.349402	-0.013097	0.003616	0.000843	17.042058	-75.651231	41.945797
61362	9.448762	0.700860	2.349897	-0.012821	0.004950	0.000146	17.036498	-75.647609	41.948746
61363	9.456842	0.707756	2.296846	-0.013372	0.002283	0.001540	17.029961	-75.645782	41.953102
61364	9.426537	0.710247	2.348958	-0.011771	0.008237	0.003667	17.015318	-75.640960	41.966080
61365	9.419215	0.691473	2.335045	-0.012046	0.006903	0.004364	17.000478	-75.637075	41.979791
61366	9.455498	0.657564	2.359018	-0.012561	0.005601	0.001552	16.991709	-75.633279	41.987704
61367	9.433329	0.726591	2.365735	-0.012579	0.004918	0.003655	16.979390	-75.630361	41.998498
61368	9.433748	0.661353	2.324128	-0.010634	0.005881	0.003029	16.968349	-75.626720	42.008976
61369	9.418881	0.689222	2.337057	-0.013061	-0.004074	0.002989	16.963053	-75.628618	42.012236
61370	9.448690	0.691214	2.319366	-0.007760	-0.003169	0.000401	16.965227	-75.629458	42.011780
61371	9.419059	0.688727	2.336483	-0.008275	-0.004470	-0.002411	16.974480	-75.630670	42.002851
61372	9.441244	0.678237	2.337897	-0.005249	-0.007913	0.002630	16.976404	-75.634509	42.003718
61373	9.456284	0.708656	2.332583	-0.008586	-0.007171	0.002490	16.976761	-75.638021	42.003788
61374	9.427268	0.700343	2.315260	-0.008604	-0.007855	0.004592	16.972490	-75.642186	42.008232
61375	9.449505	0.689486	2.316556	-0.008586	-0.007171	0.002490	16.972845	-75.645698	42.008304
61376	9.471717	0.678584	2.317962	-0.009738	-0.005500	0.005233	16.965083	-75.648656	42.017613
61377	9.457046	0.706313	2.330206	-0.010271	-0.007484	0.004523	16.960320	-75.652679	42.021972
61378	9.449469	0.693055	2.349368	-0.010029	0.001542	0.001684	16.955360	-75.651208	42.027511
61379	9.450034	0.687228	2.315069	-0.006658	-0.006892	0.003966	16.953470	-75.654814	42.031040
61380	9.471818	0.681834	2.350311	-0.009651	-0.011139	0.001070	16.958342	-75.660169	42.026930
61381	9.450008	0.691780	2.347576	-0.008584	-0.007171	0.002491	16.958694	-75.663681	42.027007
61382	9.435820	0.714296	2.325696	-0.006399	-0.006243	0.005373	16.952970	-75.667090	42.034956
61383	9.472446	0.680265	2.348236	-0.010802	-0.009469	0.003814	16.950713	-75.672082	42.036414
61384	9.450651	0.690115	2.345476	-0.007448	-0.009526	0.001850	16.954082	-75.676645	42.033680
61385	9.443222	0.676901	2.364055	-0.006931	-0.008227	0.004663	16.951407	-75.681099	42.037858
61386	9.451228	0.689025	2.343472	-0.007688	-0.018553	0.004687	16.954442	-75.691106	42.035132
61387	9.444893	0.724234	2.301430	-0.006070	-0.011917	0.004717	16.954556	-75.697591	42.036941
61388	9.422702	0.680036	2.324308	-0.008013	-0.012880	0.005345	16.952295	-75.704555	42.039777
61389	9.415501	0.666726	2.342020	-0.005416	-0.023264	0.003404	16.963054	-75.717039	42.030987
61390	9.475459	0.730290	2.313177	-0.008751	-0.022521	0.003268	16.971149	-75.728975	42.022070
61391	9.409309	0.647706	2.323433	-0.010729	-0.015791	0.001756	16.977529	-75.737088	42.014659
61392	9.461603	0.698902	2.313882	0.001085	-0.031036	-0.001895	17.008003	-75.752809	41.987256
61393	9.432581	0.696433	2.328746	-0.009539	-0.025155	0.001155	17.022584	-75.765950	41.972087
61394	9.366026	0.684019	2.414056	-0.003549	-0.043290	-0.000614	17.055966	-75.788607	41.942097
61395	9.375521	0.691500	2.354708	0.002871	-0.081802	-0.000857	17.119855	-75.832428	41.883407
61396	9.421943	0.724960	2.324710	-0.008709	-0.084842	-0.005478	17.189023	-75.877021	41.812534
61397	9.401652	0.681838	2.339989	-0.004360	-0.102610	-0.007306	17.277725	-75.931097	41.724013
61398	9.419160	0.654457	2.315737	0.014894	-0.137702	-0.011969	17.411956	-76.003423	41.601241
61399	9.437222	0.686761	2.297379	0.022812	-0.149245	-0.010188	17.556707	-76.082394	41.471063
61400	9.536696	0.708166	2.210690	0.027003	-0.147362	-0.007923	17.698530	-76.160519	41.346981
61401	9.539666	0.709532	2.197396	0.013835	-0.128361	-0.011287	17.828726	-76.227749	41.226579
61402	9.542017	0.710563	2.186830	0.003750	-0.091808	-0.006265	17.916168	-76.275772	41.145055
61403	9.506863	0.690928	2.182278	0.001885	-0.069038	-0.010669	17.996979	-76.310679	41.068488
61404	9.522798	0.668761	2.197495	-0.008806	-0.055462	-0.009721	18.059424	-76.338225	41.004312
61405	9.501768	0.680116	2.191050	0.001946	-0.045987	-0.013614	18.130647	-76.360011	40.937666
61406	9.517340	0.712148	2.182365	-0.002341	-0.035230	-0.011731	18.186906	-76.376156	40.884647
61407	9.540032	0.692321	2.112728	-0.004616	-0.029148	-0.014644	18.244588	-76.388559	40.828075
61408	9.532908	0.686184	2.164727	-0.002121	-0.004515	-0.013329	18.281873	-76.387708	40.791549
61409	9.488559	0.713429	2.196067	-0.010365	0.013379	-0.016521	18.308971	-76.376620	40.763055
61410	9.458691	0.712171	2.215316	-0.026190	0.013391	-0.017048	18.327542	-76.365344	40.733725
61411	9.502446	0.687227	2.185883	-0.013438	0.014085	-0.013129	18.344673	-76.354480	40.713674
61412	9.465238	0.732417	2.232746	-0.007020	0.012640	-0.016401	18.373287	-76.343702	40.686043
61413	9.486962	0.723394	2.235454	-0.009484	0.009004	-0.014362	18.399151	-76.335373	40.659334
61414	9.486705	0.719041	2.202238	-0.014760	0.008092	-0.011735	18.416171	-76.327931	40.638084
61415	9.486378	0.719765	2.203410	-0.007632	0.014923	-0.008741	18.426082	-76.317397	40.628883
61416	9.493397	0.738141	2.219386	-0.015109	0.011023	-0.002674	18.420485	-76.309992	40.631329
61417	9.456381	0.712146	2.189520	-0.015373	0.009687	-0.001975	18.414746	-76.303530	40.633670
61418	9.463581	0.735306	2.238812	-0.008879	-0.000824	0.001105	18.413115	-76.303235	40.636192
61419	9.485798	0.719416	2.206021	-0.004930	-0.006589	0.001972	18.416646	-76.306336	40.635151
61420	9.485947	0.719025	2.205508	-0.008005	-0.005201	0.003259	18.414013	-76.308794	40.640569
61421	9.486010	0.718394	2.205443	-0.013096	0.002232	0.005142	18.399239	-76.307672	40.653554
61422	9.441796	0.738242	2.202677	-0.015904	0.005643	0.003629	18.383137	-76.304340	40.666418
61423	9.449070	0.701748	2.243514	-0.012219	-0.000771	0.003091	18.375674	-76.304479	40.672395
61424	9.471308	0.685880	2.210597	-0.007655	-0.009502	-0.001601	18.387219	-76.308441	40.662146
61425	9.471604	0.739602	2.183759	-0.004584	-0.012951	0.003417	18.392438	-76.315262	40.659571
61426	9.479204	0.698133	2.189127	-0.003788	-0.008944	0.001323	18.399245	-76.319455	40.655861
61427	9.457233	0.713441	2.221128	-0.016613	-0.003315	-0.000536	18.399247	-76.320322	40.651563
61428	9.471996	0.743865	2.216393	-0.015290	0.001303	0.002280	18.389790	-76.319062	40.659719
61429	9.472030	0.684321	2.207985	-0.011868	-0.005072	-0.001766	18.396565	-76.320662	40.651249
61430	9.457521	0.707366	2.186144	-0.006779	-0.013192	-0.001552	18.411306	-76.326638	40.639338
61431	9.457784	0.712704	2.219015	-0.005373	-0.014210	-0.002898	18.431143	-76.332999	40.621255
61432	9.487554	0.715249	2.199815	-0.010909	-0.015774	-0.001674	18.445709	-76.340362	40.606037
61433	9.465761	0.725585	2.196969	-0.008445	-0.012135	-0.003710	18.464086	-76.345446	40.587646
61434	9.451347	0.694821	2.200325	-0.008098	-0.018498	-0.002266	18.483641	-76.354140	40.568544
61435	9.459087	0.713124	2.213319	-0.010294	-0.018737	-0.007231	18.513824	-76.362167	40.536916
61436	9.496220	0.728889	2.174463	-0.005898	-0.015507	-0.005705	18.540197	-76.368616	40.513296
61437	9.467087	0.732022	2.225022	-0.005897	-0.015507	-0.005705	18.567114	-76.375160	40.487622
61438	9.438006	0.724568	2.207083	-0.008885	-0.021132	-0.004373	18.593075	-76.384909	40.462443
61439	9.467965	0.732618	2.221089	-0.005196	-0.027546	-0.004918	18.627786	-76.398128	40.429165
61440	9.483275	0.704818	2.205234	0.000954	-0.030320	-0.007501	18.673543	-76.412264	40.391480
61441	9.483822	0.705484	2.202669	-0.002733	-0.023906	-0.006953	18.711614	-76.423123	40.356202
61442	9.476785	0.741892	2.160379	-0.011428	-0.016386	-0.006573	18.737680	-76.429875	40.330530
61443	9.484497	0.706413	2.199460	-0.010901	-0.013713	-0.007968	18.765657	-76.435008	40.300823
61444	9.462636	0.717309	2.196733	-0.010902	-0.013024	-0.010069	18.797367	-76.439262	40.269647
61445	9.484960	0.702634	2.162595	-0.002203	-0.020544	-0.010451	18.841200	-76.447633	40.228759
61446	9.499939	0.734590	2.156223	0.001044	-0.013581	-0.012482	18.885640	-76.451752	40.190728
61447	9.492768	0.722756	2.174725	-0.007652	-0.006751	-0.009996	18.914778	-76.452717	40.161745
61448	9.492828	0.723541	2.174204	-0.014593	-0.005925	-0.011618	18.942400	-76.452846	40.130818
61449	9.463423	0.721707	2.191897	-0.009673	-0.000708	-0.009391	18.964355	-76.450642	40.108032
61450	9.500105	0.748227	2.223290	-0.008975	0.009626	-0.009422	18.978243	-76.442719	40.095134
61451	9.485191	0.712715	2.194428	-0.016611	-0.000571	-0.008912	18.995018	-76.440527	40.073586
61452	9.492294	0.720873	2.141256	-0.009498	0.006952	-0.008025	19.007485	-76.434327	40.061055
61453	9.440646	0.734291	2.192532	-0.011167	0.007320	-0.008080	19.019386	-76.428013	40.047730
61454	9.499248	0.740002	2.157416	-0.013362	0.005704	-0.008840	19.032394	-76.422334	40.031955
61455	9.499025	0.745606	2.192652	-0.010730	0.015627	-0.005308	19.031885	-76.412038	40.031653
61456	9.461783	0.720115	2.163420	-0.021008	0.017877	-0.009139	19.031751	-76.399705	40.024846
61457	9.461389	0.725862	2.199293	-0.018196	0.015846	-0.011836	19.041401	-76.388070	40.009691
61458	9.468448	0.749827	2.249334	-0.007826	0.007275	-0.010069	19.059057	-76.381306	39.992321
61459	9.483024	0.717169	2.202329	-0.008258	-0.001722	-0.010743	19.085486	-76.379387	39.965759
61460	9.497629	0.748982	2.197542	-0.004658	-0.001120	-0.011329	19.114233	-76.376927	39.938858
61461	9.497522	0.749868	2.197703	-0.006944	0.003585	-0.010024	19.135683	-76.372265	39.918194
61462	9.497354	0.750346	2.198264	-0.016428	0.006393	-0.005444	19.138706	-76.366839	39.910811
61463	9.482497	0.719676	2.203782	-0.014235	0.008701	-0.006782	19.144760	-76.360015	39.901690
61464	9.474830	0.761106	2.198355	-0.013089	0.005658	-0.005334	19.150009	-76.355008	39.893988
61465	9.474632	0.756432	2.164776	-0.010279	0.004321	-0.010133	19.169174	-76.349924	39.873706
61466	9.481920	0.720929	2.205852	-0.006771	0.009862	-0.004450	19.172805	-76.342807	39.871397
61467	9.474150	0.762220	2.200897	-0.017925	0.014417	-0.004125	19.166373	-76.333389	39.872949
61468	9.459170	0.726154	2.172808	-0.014849	0.012345	-0.003319	19.160939	-76.325141	39.875208
61469	9.488374	0.739091	2.224300	-0.012298	0.008288	-0.003221	19.160465	-76.319209	39.873946
61470	9.466135	0.744341	2.189070	-0.007461	-0.000471	-0.004432	19.171642	-76.317688	39.863461
61471	9.473440	0.762639	2.203805	-0.005793	-0.000838	-0.004377	19.184512	-76.316477	39.852301
61472	9.466100	0.744837	2.189051	-0.005530	-0.000192	-0.002973	19.193333	-76.315079	39.845378
61473	9.488202	0.734422	2.190683	-0.013608	0.000906	0.002357	19.185409	-76.314192	39.851011
61474	9.436609	0.741722	2.207358	-0.007817	0.004511	-0.001664	19.186375	-76.310496	39.850825
61475	9.495395	0.752218	2.206074	-0.008866	0.000543	-0.003082	19.193533	-76.308781	39.843731
61476	9.465892	0.744279	2.190139	-0.010890	0.005199	0.001730	19.184667	-76.305352	39.851859
61477	9.495228	0.756752	2.241167	-0.012557	0.005566	0.001676	19.175262	-76.301815	39.859635
61478	9.451000	0.707404	2.161988	-0.011770	0.008888	0.001691	19.163143	-76.296380	39.870590
61479	9.494855	0.750866	2.208855	-0.011245	0.011564	0.000301	19.152929	-76.289338	39.879974
61480	9.487261	0.737694	2.229505	-0.012650	0.013269	-0.000448	19.141694	-76.281129	39.889488
61481	9.457619	0.724365	2.180147	-0.008171	0.008107	0.005305	19.124830	-76.276897	39.907532
61482	9.494244	0.749556	2.211926	-0.008957	0.005477	0.003190	19.113655	-76.273589	39.919172
61483	9.501396	0.761864	2.193506	-0.006858	0.013412	0.006031	19.091883	-76.266617	39.943042
61484	9.471668	0.758353	2.212882	-0.014670	0.017231	0.006467	19.061198	-76.257556	39.971408
61485	9.493373	0.747141	2.216478	-0.011163	0.024153	0.007960	19.024546	-76.245123	40.008060
61486	9.448658	0.766520	2.215915	-0.012041	0.027149	0.010021	18.980047	-76.231343	40.052150
61487	9.492346	0.744664	2.221704	-0.017042	0.027557	0.011955	18.928761	-76.217794	40.100406
61488	9.455070	0.722525	2.227390	-0.012037	0.026455	0.012123	18.880331	-76.204764	40.148550
61489	9.476564	0.765262	2.206097	-0.005099	0.027710	0.007455	18.845887	-76.190281	40.186515
61490	9.468618	0.751369	2.228264	-0.013170	0.030192	0.008582	18.801985	-76.174554	40.229399
61491	9.460558	0.732350	2.217046	-0.022724	0.042778	0.004743	18.752318	-76.151383	40.272647
61492	9.452341	0.718364	2.240281	-0.018776	0.036320	0.007687	18.702840	-76.132147	40.317991
61493	9.481068	0.725451	2.259661	-0.009990	0.024576	-0.001083	18.687056	-76.117771	40.333860
61494	9.451101	0.717727	2.245711	-0.004459	0.026150	-0.002298	18.675408	-76.102212	40.348624
61495	9.435669	0.741275	2.227770	-0.015053	0.035466	-0.009663	18.667527	-76.080349	40.353365
61496	9.434613	0.746808	2.265658	-0.022590	0.040624	-0.009926	18.651552	-76.055534	40.361793
61497	9.441346	0.701350	2.240821	-0.019861	0.024630	-0.016097	18.663005	-76.038374	40.343775
61498	9.455447	0.733632	2.238319	-0.008366	0.015100	-0.019185	18.694208	-76.025715	40.312141
61499	9.477076	0.725192	2.241332	-0.000027	0.013959	-0.020995	18.735475	-76.013441	40.275107
61500	9.498549	0.771186	2.219412	-0.010095	0.024560	-0.025549	18.772410	-75.994467	40.236353
61501	9.482791	0.747358	2.261252	-0.020258	0.040779	-0.025918	18.792801	-75.966725	40.208882
61502	9.407977	0.767059	2.279504	-0.024899	0.036207	-0.026769	18.815096	-75.941202	40.176398
61503	9.421980	0.740886	2.269264	-0.017268	0.024044	-0.026490	18.850597	-75.922424	40.135110
61504	9.450765	0.750871	2.287262	-0.007620	0.005845	-0.026835	18.905158	-75.913341	40.079621
61505	9.487468	0.763989	2.217327	-0.006392	0.018159	-0.026103	18.950209	-75.897807	40.034907
61506	9.493499	0.789116	2.269596	-0.020330	0.047782	-0.025911	18.964269	-75.866152	40.013569
61507	9.425835	0.767295	2.295153	-0.039264	0.056129	-0.025179	18.960244	-75.830209	40.000032
61508	9.454107	0.717702	2.307851	-0.028276	0.044633	-0.028975	18.978517	-75.799683	39.969697
61509	9.467652	0.751019	2.307064	-0.013093	0.028027	-0.030526	19.021475	-75.777965	39.923159
61510	9.452104	0.776747	2.288850	-0.005914	0.027854	-0.027472	19.061459	-75.756804	39.883645
61511	9.451184	0.779002	2.291881	-0.023708	0.033844	-0.027409	19.087146	-75.732505	39.848642
61512	9.450449	0.776123	2.261357	-0.025978	0.039233	-0.028186	19.108557	-75.705045	39.816494
61513	9.448995	0.782966	2.299544	-0.028791	0.041245	-0.025487	19.121609	-75.677093	39.791516
61514	9.469957	0.774384	2.305509	-0.018652	0.045319	-0.019522	19.124226	-75.647947	39.782964
61515	9.446696	0.786039	2.307928	-0.024059	0.038115	-0.022518	19.135880	-75.622246	39.762222
61516	9.468099	0.772710	2.279427	-0.025170	0.041855	-0.026047	19.150997	-75.593754	39.737200
61517	9.451754	0.802632	2.297365	-0.025875	0.053190	-0.024659	19.154975	-75.559489	39.723305
61518	9.405667	0.775345	2.358853	-0.027871	0.059917	-0.026118	19.155374	-75.521208	39.711548
61519	9.433799	0.780124	2.346737	-0.030474	0.049305	-0.027623	19.165659	-75.488488	39.688411
61520	9.432559	0.782160	2.351039	-0.019244	0.037778	-0.027915	19.190734	-75.461849	39.656505
61521	9.454161	0.769131	2.322010	-0.018663	0.031354	-0.023010	19.211028	-75.439707	39.630014
61522	9.445092	0.817122	2.353476	-0.018356	0.034092	-0.027883	19.239024	-75.415061	39.595472
61523	9.429951	0.782882	2.327425	-0.023610	0.045694	-0.017574	19.234655	-75.386184	39.591532
61524	9.443267	0.815036	2.327698	-0.027450	0.044434	-0.018419	19.230204	-75.357732	39.585151
61525	9.412483	0.813074	2.349263	-0.023256	0.039326	-0.016171	19.227730	-75.332564	39.579461
61526	9.433170	0.808617	2.388645	-0.018208	0.029835	-0.011806	19.225428	-75.313259	39.576477
61527	9.432959	0.804507	2.357221	-0.015664	0.025790	-0.011717	19.227842	-75.296255	39.570229
61528	9.439708	0.818172	2.340995	-0.018849	0.033459	-0.008324	19.215390	-75.275636	39.577125
61529	9.431824	0.800577	2.329562	-0.022779	0.039205	-0.009157	19.198852	-75.251856	39.586257
61530	9.437329	0.823407	2.382254	-0.019152	0.030715	-0.003450	19.178245	-75.233644	39.601529
61531	9.444798	0.777277	2.357135	-0.020294	0.033057	-0.002787	19.154533	-75.214389	39.619555
61532	9.428798	0.805182	2.373584	-0.017212	0.031695	-0.004066	19.135695	-75.195528	39.634168
61533	9.391310	0.784032	2.379235	-0.019251	0.037019	-0.001331	19.106896	-75.174398	39.658078
61534	9.434675	0.817768	2.361339	-0.018124	0.033975	0.000102	19.077511	-75.155080	39.683148
61535	9.389175	0.787796	2.419643	-0.015542	0.021520	0.004352	19.050306	-75.143400	39.707611
61536	9.395805	0.804999	2.436104	-0.008717	0.006064	0.004566	19.036969	-75.140027	39.721733
61537	9.426165	0.802600	2.384890	-0.001485	-0.001105	0.007623	19.027113	-75.141209	39.736581
61538	9.418668	0.788553	2.403997	-0.011731	-0.000282	0.007915	19.009683	-75.141899	39.753126
61539	9.426361	0.800923	2.384677	-0.004430	-0.005347	0.004693	19.007101	-75.144831	39.758702
61540	9.426439	0.800246	2.384597	-0.004021	0.002939	0.007538	18.992586	-75.143703	39.776721
61541	9.426498	0.799494	2.384614	-0.002002	-0.003087	0.006896	18.985304	-75.145820	39.788599
61542	9.433596	0.816616	2.399314	-0.004206	-0.005410	0.008196	18.975203	-75.149338	39.801952
61543	9.448982	0.787759	2.385642	-0.003935	-0.004068	0.007514	18.966232	-75.152101	39.814431
61544	9.404216	0.812009	2.415796	-0.002520	-0.005068	0.006168	18.960995	-75.155053	39.823802
61545	9.427181	0.796392	2.382952	-0.004205	-0.005410	0.008196	18.951407	-75.158669	39.836758
61546	9.419821	0.782451	2.401472	-0.004971	-0.008030	0.006059	18.947063	-75.163206	39.843782
61547	9.427633	0.794794	2.381696	-0.004475	-0.006751	0.008879	18.936854	-75.167675	39.857220
61548	9.456934	0.801759	2.398033	-0.008025	-0.005966	0.005247	18.930960	-75.170940	39.863960
61549	9.405844	0.803376	2.379000	-0.005325	-0.002365	0.006767	18.921499	-75.172639	39.876121
61550	9.435697	0.805743	2.361390	-0.006092	-0.004985	0.004630	18.917286	-75.175259	39.882318
61551	9.450326	0.781839	2.382266	-0.009500	0.002744	0.004527	18.906432	-75.173771	39.893444
61552	9.442652	0.822670	2.376798	-0.002535	0.004046	-0.000084	18.907573	-75.170621	39.896224
61553	9.406513	0.796657	2.345306	-0.012554	0.004809	0.003715	18.895189	-75.167862	39.907124
61554	9.427277	0.795452	2.416174	-0.013922	0.007215	0.000876	18.885628	-75.163172	39.914227
61555	9.427753	0.790254	2.382732	-0.006777	0.007047	0.003955	18.874508	-75.159244	39.927244
61556	9.375808	0.796809	2.398724	-0.009747	0.002105	0.003116	18.866338	-75.157738	39.935357
61557	9.420046	0.830339	2.377691	-0.007837	0.002382	0.004591	18.856576	-75.156456	39.946340
61558	9.420083	0.775240	2.402781	-0.006468	-0.000025	0.007430	18.842950	-75.156902	39.962010
61559	9.427134	0.792198	2.417800	-0.007009	-0.002709	0.008795	18.828616	-75.159157	39.978214
61560	9.420315	0.827504	2.377611	-0.008445	-0.002412	0.012234	18.805686	-75.161782	40.002390
61561	9.391422	0.764051	2.385287	-0.007572	-0.006097	0.012251	18.786299	-75.166510	40.023488
61562	9.442939	0.814568	2.378444	-0.006203	-0.008504	0.015091	18.763018	-75.172963	40.049295
61563	9.428636	0.781936	2.381982	-0.010126	-0.002754	0.014263	18.735688	-75.176244	40.077093
61564	9.399109	0.777389	2.399012	-0.003478	-0.004203	0.014520	18.712114	-75.180252	40.104845
61565	9.406974	0.789137	2.379300	-0.004789	-0.009505	0.013745	18.693568	-75.187095	40.126719
61566	9.436496	0.795322	2.395061	-0.004210	-0.015236	0.016537	18.673058	-75.197457	40.150878
61567	9.400286	0.772758	2.395896	-0.005870	-0.014873	0.016474	18.651964	-75.207710	40.174745
61568	9.430517	0.774097	2.377091	-0.001155	-0.017304	0.017347	18.632908	-75.219337	40.199229
61569	9.415895	0.800322	2.388979	-0.005368	-0.013598	0.019297	18.605340	-75.229410	40.230087
61570	9.387345	0.790784	2.370463	-0.002215	-0.021969	0.017984	18.587526	-75.243682	40.252641
61571	9.410128	0.778593	2.370283	-0.006718	-0.020308	0.022709	18.556708	-75.258015	40.286056
61572	9.441130	0.774933	2.316492	-0.000201	-0.027998	0.017336	18.545475	-75.275439	40.302984
61573	9.440735	0.782542	2.382532	-0.005802	-0.022585	0.018543	18.525269	-75.290245	40.325966
61574	9.412258	0.772927	2.363672	-0.001705	-0.020695	0.020809	18.500844	-75.304331	40.355664
61575	9.420063	0.788713	2.376376	-0.002166	-0.030387	0.022145	18.480568	-75.324026	40.380868
61576	9.413949	0.768700	2.358309	-0.004617	-0.033345	0.022039	18.460577	-75.345204	40.404220
61577	9.436518	0.760954	2.391081	0.004199	-0.033892	0.025172	18.439958	-75.367348	40.433543
61578	9.422998	0.781865	2.366984	-0.001070	-0.034846	0.027765	18.410974	-75.390374	40.468302
61579	9.431565	0.738069	2.369210	-0.004294	-0.040420	0.025523	18.389120	-75.416125	40.493866
61580	9.454427	0.784349	2.376544	-0.000190	-0.038534	0.027786	18.362963	-75.441152	40.526243
61581	9.440840	0.750616	2.377246	-0.000276	-0.032232	0.029911	18.328345	-75.463234	40.567367
61582	9.412726	0.740320	2.356981	-0.002889	-0.042128	0.026276	18.306103	-75.489936	40.594072
61583	9.451167	0.753919	2.316205	-0.006115	-0.047701	0.024037	18.291041	-75.519369	40.611531
61584	9.474361	0.741472	2.314118	-0.004567	-0.032642	0.019967	18.274370	-75.539772	40.631488
61585	9.453104	0.749897	2.309599	-0.000163	-0.028006	0.017354	18.262989	-75.557286	40.648664
61586	9.446726	0.730436	2.291925	-0.005400	-0.027545	0.015766	18.251079	-75.574159	40.663175
61587	9.454219	0.751262	2.338731	-0.012043	-0.026081	0.015531	18.235335	-75.590297	40.677826
61588	9.455246	0.745020	2.302396	-0.003794	-0.020199	0.013760	18.223407	-75.602812	40.693335
61589	9.448238	0.730515	2.319825	-0.006577	-0.016782	0.012276	18.211154	-75.613305	40.707613
61590	9.463341	0.760173	2.314504	-0.010497	-0.011020	0.011460	18.193815	-75.620410	40.724761
61591	9.463514	0.704471	2.338511	-0.008041	-0.008066	0.011562	18.176119	-75.626029	40.743790
61592	9.434320	0.754650	2.330438	-0.009971	-0.009041	0.012188	18.156123	-75.632184	40.763952
61593	9.471605	0.714943	2.317904	-0.009701	-0.007699	0.011504	18.137312	-75.637589	40.783149
61594	9.449749	0.724055	2.315692	-0.007758	-0.006018	0.008785	18.123685	-75.641488	40.798047
61595	9.450247	0.718176	2.281258	-0.009516	-0.000054	0.012944	18.096575	-75.642983	40.825921
61596	9.457255	0.739243	2.330270	-0.011361	-0.007332	0.011447	18.076113	-75.648070	40.845765
61597	9.442911	0.761204	2.309144	-0.011713	-0.002372	0.014255	18.046544	-75.651055	40.874876
61598	9.428309	0.728823	2.313173	-0.007840	0.000284	0.010909	18.023938	-75.651892	40.899007
61599	9.450472	0.717256	2.314858	-0.011431	-0.000324	0.011477	17.999012	-75.653262	40.923494
61600	9.442815	0.761856	2.343652	-0.008705	0.003972	0.010896	17.973382	-75.652083	40.950244
61601	9.450501	0.714862	2.315482	-0.009218	0.002700	0.008075	17.954882	-75.651199	40.969405
61602	9.450896	0.709426	2.281307	-0.005545	-0.002995	0.005382	17.947627	-75.652838	40.979055
61603	9.442809	0.759023	2.344595	-0.010164	0.012690	0.010188	17.917198	-75.646878	41.009970
61604	9.450301	0.712048	2.317162	-0.009286	0.009708	0.008107	17.893252	-75.642070	41.034631
61605	9.449805	0.715668	2.352275	-0.007894	0.007998	0.008848	17.870242	-75.638426	41.059232
61606	9.442746	0.751135	2.313111	-0.013684	0.005075	0.010724	17.841407	-75.636600	41.086308
61607	9.449648	0.713194	2.353654	-0.009566	0.007659	0.010885	17.813356	-75.633493	41.115125
61608	9.486754	0.727977	2.317723	-0.006515	0.005580	0.011684	17.786257	-75.631552	41.144688
61609	9.442563	0.747159	2.315145	-0.014828	0.006713	0.013489	17.750311	-75.629409	41.178542
61610	9.435011	0.732293	2.334768	-0.012317	0.001949	0.015653	17.713922	-75.630133	41.214255
61611	9.449930	0.702699	2.321527	-0.005650	0.001890	0.011697	17.690344	-75.630301	41.240771
61612	9.442358	0.747301	2.350167	-0.011954	-0.002301	0.010748	17.667494	-75.632484	41.262729
61613	9.450047	0.700190	2.321806	-0.010088	0.005681	0.010159	17.642076	-75.630309	41.288519
61614	9.434856	0.731848	2.369736	-0.003371	-0.002095	0.008261	17.629300	-75.631943	41.305148
61615	9.435358	0.726274	2.335245	-0.012739	-0.004913	0.008608	17.612846	-75.635280	41.320117
61616	9.428333	0.707598	2.319654	-0.002766	-0.006418	0.006860	17.606321	-75.639030	41.330649
61617	9.435746	0.724550	2.334213	-0.009676	-0.006285	0.007312	17.595303	-75.642890	41.341818
61618	9.435941	0.723830	2.333647	-0.006601	-0.006949	0.003921	17.593201	-75.646421	41.345497
61619	9.450908	0.695110	2.319828	-0.006676	-0.000649	0.006052	17.582768	-75.646984	41.357834
61620	9.436432	0.718068	2.299217	-0.009971	0.001506	0.001750	17.577649	-75.645521	41.362657
61621	9.428528	0.709136	2.352592	-0.005520	-0.001578	0.001192	17.578880	-75.645751	41.363639
61622	9.428964	0.704223	2.318119	-0.002483	-0.004368	0.004083	17.577043	-75.647899	41.369500
61623	9.451136	0.752504	2.328726	-0.006858	-0.007584	0.002509	17.578757	-75.651636	41.369191
61624	9.466111	0.724058	2.314758	-0.005789	-0.002921	0.001875	17.578760	-75.652612	41.371195
61625	9.428985	0.707693	2.351193	-0.003602	-0.001313	0.002662	17.577773	-75.652951	41.375601
61626	9.443896	0.738206	2.346861	-0.006600	-0.006950	0.003921	17.575667	-75.656481	41.379311
61627	9.458891	0.709639	2.332830	-0.011566	-0.005133	0.001656	17.574847	-75.658733	41.378834
61628	9.451718	0.691467	2.317615	-0.000885	0.002271	0.004179	17.569225	-75.657270	41.389552
61629	9.437260	0.714606	2.296897	-0.002212	-0.003026	0.003401	17.568611	-75.658673	41.394395
61630	9.458815	0.712825	2.366419	-0.010458	-0.008897	0.005172	17.562935	-75.663483	41.399495
61631	9.459390	0.707622	2.331421	-0.005210	-0.008662	0.004660	17.561721	-75.668181	41.403183
61632	9.437502	0.717302	2.329348	-0.005284	-0.002363	0.006793	17.551115	-75.669701	41.416446
61633	9.445230	0.729819	2.309791	-0.006869	-0.008293	0.004604	17.548816	-75.674188	41.420273
61634	9.437861	0.715903	2.328322	-0.009400	-0.004944	0.006633	17.537934	-75.677089	41.431377
61635	9.460163	0.704878	2.329114	-0.002689	-0.012721	0.004725	17.540760	-75.684016	41.432386
61636	9.438365	0.714647	2.326666	-0.006339	-0.006316	0.005334	17.535332	-75.687442	41.439688
61637	9.460357	0.708027	2.361690	-0.009078	-0.011319	0.008006	17.526517	-75.694169	41.448934
61638	9.453422	0.689434	2.345564	-0.007407	-0.010979	0.005968	17.522262	-75.700252	41.454367
61639	9.446739	0.725443	2.304993	-0.008267	-0.007290	0.005961	17.515556	-75.704424	41.461915
61640	9.468714	0.718766	2.340125	-0.008277	-0.008000	0.008055	17.504301	-75.709238	41.474045
61641	9.439639	0.710487	2.322769	-0.006348	-0.007026	0.007429	17.495355	-75.713519	41.485038
61642	9.417845	0.720008	2.320411	-0.005487	-0.010716	0.007437	17.488849	-75.719710	41.493919
61643	9.462293	0.698365	2.322414	-0.011532	-0.014269	0.007903	17.480800	-75.728029	41.500921
61644	9.448121	0.721046	2.300704	-0.005216	-0.009373	0.006755	17.474992	-75.733368	41.509294
61645	9.462867	0.696603	2.320602	-0.009934	-0.007630	0.008001	17.463142	-75.738076	41.521163
61646	9.433480	0.692810	2.337555	-0.009663	-0.006287	0.007320	17.451472	-75.741824	41.532933
61647	9.426729	0.728876	2.297253	-0.006595	-0.006949	0.003924	17.449832	-75.745458	41.536241
61648	9.463472	0.694338	2.318814	-0.010182	-0.007552	0.004496	17.444787	-75.749412	41.540839
61649	9.448844	0.721790	2.332006	-0.010772	-0.002519	0.003808	17.438005	-75.750605	41.546984
61650	9.419322	0.718406	2.349409	-0.007184	-0.001917	0.003237	17.433574	-75.751262	41.552747
61651	9.434497	0.685318	2.301209	-0.006594	-0.006950	0.003924	17.431928	-75.754896	41.556061
61652	9.471274	0.710015	2.332425	-0.006844	-0.006871	0.000418	17.437109	-75.757778	41.552125
61653	9.456621	0.678769	2.335759	-0.008512	-0.007212	0.002457	17.437701	-75.761303	41.551997
61654	9.449817	0.715220	2.295550	-0.007973	-0.004525	0.001095	17.439192	-75.763017	41.551184
61655	9.442351	0.701800	2.314368	-0.005775	-0.002208	-0.000213	17.443720	-75.763349	41.548613
61656	9.471757	0.708919	2.330798	-0.009631	-0.004155	0.001040	17.444128	-75.764852	41.547913
61657	9.442552	0.701290	2.313706	-0.010160	-0.006131	0.000309	17.447674	-75.767417	41.543763
61658	9.464684	0.690630	2.314970	-0.008832	-0.000836	0.001090	17.446184	-75.767114	41.545512
61659	9.442694	0.700870	2.313254	-0.008222	-0.004446	-0.002411	17.455563	-75.768291	41.536491
61660	9.457541	0.731738	2.309258	-0.008293	0.001852	-0.000272	17.455496	-75.766285	41.537102
61661	9.435478	0.682935	2.297893	-0.012077	-0.006393	-0.001158	17.461284	-75.768741	41.529506
61662	9.442917	0.700581	2.312428	-0.007361	-0.008135	-0.002407	17.473122	-75.771827	41.518360
61663	9.443052	0.700598	2.311871	-0.004644	-0.004554	-0.000890	17.481351	-75.773324	41.512639
61664	9.436205	0.737462	2.271682	-0.003515	-0.006900	-0.001567	17.492753	-75.775877	41.504276
61665	9.458218	0.731314	2.306617	-0.011234	-0.011507	0.003035	17.493473	-75.781849	41.502408
61666	9.473173	0.703022	2.292241	-0.004904	-0.005186	-0.002302	17.504506	-75.783338	41.493533
61667	9.480572	0.720581	2.306989	-0.006051	-0.004265	0.002562	17.504292	-75.785271	41.495690
61668	9.458855	0.726379	2.270922	-0.006293	-0.003472	-0.003037	17.514954	-75.785699	41.486456
61669	9.451372	0.713202	2.289770	-0.007691	-0.002470	-0.001678	17.521726	-75.785920	41.480437
61670	9.451448	0.713097	2.289490	-0.009887	-0.004788	-0.000370	17.525474	-75.787526	41.476158
61671	9.443968	0.699703	2.308401	-0.008820	-0.000124	-0.001000	17.528539	-75.786582	41.473296
61672	9.443943	0.699455	2.308577	-0.006113	0.002744	0.002611	17.522888	-75.784587	41.480872
61673	9.473224	0.706657	2.325516	-0.008543	0.001933	-0.003774	17.530693	-75.782041	41.473285
61674	9.436505	0.681571	2.294081	-0.012736	0.004937	0.000303	17.524731	-75.778448	41.477307
61675	9.458179	0.675448	2.330407	-0.005566	0.006144	-0.000844	17.525055	-75.774106	41.479197
61676	9.450859	0.716779	2.325373	-0.008811	0.000589	-0.003093	17.531622	-75.772305	41.472642
61677	9.413908	0.696337	2.328058	-0.011589	0.004017	-0.004561	17.537951	-75.768484	41.464777
61678	9.472782	0.706735	2.327294	-0.004365	-0.002497	-0.003665	17.550393	-75.768268	41.454792
61679	9.436178	0.740926	2.305314	-0.006354	0.003538	-0.002988	17.556650	-75.764980	41.450094
61680	9.443364	0.699919	2.310803	-0.002698	-0.002154	-0.005704	17.574204	-75.764223	41.435847
61681	9.473002	0.703147	2.292911	-0.006820	-0.005447	-0.003770	17.588002	-75.765706	41.423094
61682	9.406590	0.679952	2.312634	-0.009329	-0.000674	-0.005918	17.601204	-75.764104	41.409408
61683	9.450820	0.718544	2.324988	0.002860	-0.009011	-0.002770	17.620834	-75.767705	41.396361
61684	9.443693	0.701444	2.308997	-0.008118	-0.008602	-0.010833	17.650732	-75.769575	41.366106
61685	9.421563	0.717171	2.340785	-0.000356	-0.012426	-0.011299	17.689245	-75.773554	41.331677
61686	9.458896	0.734249	2.302901	-0.002290	-0.014114	-0.008579	17.721443	-75.778815	41.302503
61687	9.436840	0.690772	2.324563	-0.003948	-0.013745	-0.008631	17.753103	-75.783970	41.273022
61688	9.444604	0.704897	2.304213	-0.000623	-0.013771	-0.010618	17.790460	-75.788679	41.239596
61689	9.466872	0.695340	2.304591	-0.002891	-0.009794	-0.007166	17.816879	-75.791927	41.216149
61690	9.422963	0.716913	2.300508	-0.000881	-0.014402	-0.012030	17.857604	-75.796721	41.179060
61691	9.445270	0.707675	2.300629	-0.000880	-0.014402	-0.012030	17.898888	-75.801618	41.141467
61692	9.452834	0.726453	2.314317	-0.003332	-0.017353	-0.012133	17.940539	-75.807991	41.101879
61693	9.423804	0.720263	2.296013	-0.001933	-0.018353	-0.013493	17.987197	-75.814769	41.058123
61694	9.431646	0.734845	2.275063	0.002516	-0.021436	-0.014067	18.039320	-75.823010	41.011366
61695	9.476367	0.711071	2.241674	-0.001066	-0.022043	-0.013490	18.089163	-75.831779	40.964841
61696	9.424774	0.728507	2.324302	-0.004381	-0.021306	-0.013593	18.136336	-75.840012	40.919200
61697	9.484179	0.735350	2.287419	-0.003939	-0.013748	-0.008625	18.168266	-75.845117	40.889455
61698	9.491750	0.753892	2.301143	-0.001407	-0.017092	-0.010665	18.207909	-75.851562	40.853144
61699	9.440647	0.757612	2.281469	-0.004735	-0.017783	-0.006582	18.237892	-75.859220	40.824938
61700	9.448432	0.716855	2.284750	-0.005186	-0.026768	-0.007363	18.275214	-75.871513	40.788895
61701	9.463589	0.752732	2.312573	0.000312	-0.026612	-0.004386	18.309732	-75.884361	40.758997
61702	9.442307	0.754523	2.240511	-0.004743	-0.019211	-0.002395	18.331256	-75.893430	40.739464
61703	9.449777	0.722191	2.312555	-0.006661	-0.019474	-0.003857	18.355599	-75.902484	40.715941
61704	9.406237	0.738692	2.273427	-0.006318	-0.025139	-0.004587	18.385291	-75.914378	40.687008
61705	9.451063	0.722723	2.307128	-0.000848	-0.046644	-0.003173	18.431180	-75.938320	40.644708
61706	9.430246	0.729096	2.266588	0.008928	-0.056496	-0.004332	18.491956	-75.967288	40.592636
61707	9.460793	0.737137	2.278136	0.005542	-0.048036	-0.006472	18.550047	-75.991365	40.541543
61708	9.425048	0.717017	2.276131	-0.001354	-0.048623	-0.003891	18.598626	-76.016115	40.496008
61709	9.463110	0.738323	2.268107	0.002746	-0.066275	-0.009482	18.675508	-76.049518	40.423914
61710	9.457274	0.717393	2.212149	0.013584	-0.071461	-0.011280	18.766208	-76.085276	40.343995
61711	9.517459	0.733345	2.239092	0.016659	-0.052594	-0.006854	18.835824	-76.111694	40.287617
61712	9.488806	0.785846	2.228666	0.003922	-0.025295	-0.007048	18.877742	-76.123154	40.252143
61713	9.474556	0.755519	2.230511	-0.019831	-0.021407	-0.010528	18.911378	-76.131962	40.211297
61714	9.489709	0.732352	2.249101	-0.008562	-0.019744	-0.005285	18.938205	-76.140730	40.184153
61715	9.482705	0.710973	2.197859	0.003051	-0.020177	-0.011236	18.985673	-76.148729	40.142569
61716	9.483064	0.775327	2.240047	0.005500	-0.018651	-0.006957	19.023478	-76.156586	40.112252
61717	9.483401	0.771615	2.203956	-0.003581	-0.020134	-0.007235	19.058410	-76.165296	40.079667
61718	9.469074	0.741107	2.206250	-0.006112	-0.016791	-0.005188	19.084330	-76.172471	40.054694
61719	9.476758	0.759085	2.219920	-0.003665	-0.014551	-0.003003	19.105719	-76.178943	40.036008
61720	9.477017	0.759278	2.218747	-0.004539	-0.010861	-0.003004	19.123261	-76.183313	40.020776
61721	9.469976	0.745997	2.236720	-0.005058	-0.014266	0.000454	19.136053	-76.190277	40.010123
61722	9.499676	0.744446	2.183136	-0.004183	-0.017956	0.000455	19.151623	-76.199133	39.996953
61723	9.485339	0.772424	2.195313	-0.002525	-0.017609	-0.001592	19.172965	-76.207521	39.978991
61724	9.507745	0.766429	2.229865	-0.004100	-0.003301	0.001957	19.174078	-76.208726	39.980922
61725	9.485605	0.772000	2.194315	-0.009953	0.001491	0.001821	19.169012	-76.207419	39.985770
61726	9.448771	0.751038	2.197389	-0.011355	0.003918	-0.001000	19.166953	-76.204162	39.986644
61727	9.478232	0.762673	2.248461	-0.009695	0.003551	-0.000954	19.166575	-76.201218	39.986818
61728	9.478116	0.758188	2.214422	-0.007161	-0.000506	-0.000910	19.170101	-76.200373	39.984195
61729	9.478196	0.758055	2.214125	-0.006806	-0.006887	0.000454	19.176270	-76.203342	39.979330
61730	9.478164	0.753613	2.179705	-0.006639	0.002185	-0.002273	19.181049	-76.200785	39.975994
61731	9.485422	0.771248	2.195368	-0.012228	0.007608	-0.000997	19.176203	-76.195637	39.979273
61732	9.477905	0.757541	2.215546	-0.017814	0.012316	0.002372	19.156595	-76.188473	39.994350
61733	9.470358	0.743719	2.235863	-0.013099	0.010582	0.001097	19.144378	-76.182108	40.004705
61734	9.470028	0.739067	2.202836	-0.005418	0.013780	0.000644	19.134588	-76.173822	40.017095
61735	9.477003	0.752159	2.185251	-0.013451	0.016963	-0.000264	19.120320	-76.163746	40.029356
61736	9.461996	0.725020	2.225263	-0.019820	0.018348	0.003058	19.093534	-76.153444	40.050732
61737	9.454142	0.765781	2.222090	-0.013798	0.022629	0.000470	19.073202	-76.140436	40.069035
61738	9.475829	0.755077	2.225246	-0.015627	0.014638	0.001055	19.056093	-76.131760	40.082941
61739	9.475528	0.754694	2.226656	-0.008992	0.013168	0.001238	19.044051	-76.124017	40.095543
61740	9.475208	0.754282	2.228158	-0.015102	0.016614	0.001785	19.024177	-76.114409	40.112444
61741	9.474827	0.753732	2.229961	-0.016235	0.018957	0.002471	19.000953	-76.103758	40.132291
61742	9.467063	0.739752	2.251082	-0.017368	0.021300	0.003156	18.973312	-76.091862	40.155922
61743	9.444513	0.749371	2.251934	-0.017366	0.021300	0.003157	18.946252	-76.080064	40.179056
61744	9.473508	0.756125	2.270473	-0.014310	0.019935	0.001839	18.924348	-76.068657	40.198549
61745	9.443675	0.747969	2.255912	-0.015967	0.018152	0.008068	18.889796	-76.059473	40.230229
61746	9.443406	0.742855	2.223080	-0.015007	0.009602	0.001732	18.875515	-76.053639	40.241556
61747	9.443081	0.746610	2.258847	-0.012386	0.020197	0.003300	18.851962	-76.042458	40.264019
61748	9.450030	0.759189	2.241754	-0.017620	0.019236	0.005932	18.819894	-76.032176	40.292249
61749	9.442494	0.740739	2.227656	-0.013263	0.001506	0.003811	18.808674	-76.031220	40.301487
61750	9.471968	0.751715	2.278347	-0.007681	-0.004632	0.004623	18.802904	-76.033641	40.308311
61751	9.442647	0.743756	2.261601	-0.003317	-0.001417	0.006181	18.794381	-76.034708	40.320641
61752	9.464741	0.787166	2.238907	-0.015530	0.004757	0.009367	18.766793	-76.032911	40.345153
61753	9.449966	0.755197	2.243374	-0.015789	0.005564	0.003772	18.751207	-76.029744	40.357399
61754	9.435179	0.727672	2.281964	-0.011080	0.002396	0.006682	18.733790	-76.028725	40.374178
61755	9.449897	0.753509	2.244229	-0.008898	0.004003	0.007462	18.715271	-76.027083	40.393516
61756	9.449855	0.752571	2.244722	-0.012212	0.004739	0.007369	18.693981	-76.024922	40.413533
61757	9.471900	0.745587	2.280642	-0.013260	0.000789	0.005903	18.678740	-76.024734	40.426916
61758	9.442552	0.737555	2.264026	-0.007681	-0.004633	0.004622	18.672953	-76.027145	40.433644
61759	9.472095	0.740092	2.246081	-0.006892	-0.000593	0.002585	18.669616	-76.027098	40.438521
61760	9.486815	0.770656	2.242402	-0.013257	0.002226	0.001722	18.661908	-76.025260	40.444042
61761	9.464705	0.725547	2.265571	-0.014654	0.001785	0.007270	18.642154	-76.024781	40.461254
61762	9.457336	0.711344	2.284849	-0.011600	0.001139	0.003859	18.631526	-76.023919	40.470508
61763	9.450086	0.747849	2.245327	-0.004366	-0.005370	0.004713	18.628507	-76.026854	40.476548
61764	9.464833	0.723556	2.265675	-0.010812	0.004461	0.003915	18.615781	-76.024206	40.488764
61765	9.457483	0.760030	2.226605	-0.015438	-0.000098	0.003034	18.606206	-76.023971	40.495023
61766	9.486941	0.707686	2.233106	-0.013519	0.000161	0.004493	18.593828	-76.023757	40.505175
61767	9.472129	0.739184	2.281776	-0.010023	0.007782	0.003972	18.579529	-76.019414	40.519500
61768	9.486610	0.765404	2.245068	-0.018122	0.018701	0.001040	18.558472	-76.008500	40.536014
61769	9.486130	0.709739	2.271336	-0.021518	0.023568	0.009380	18.514302	-75.996563	40.574338
61770	9.448893	0.742859	2.251997	-0.022823	0.021153	0.000226	18.490618	-75.984163	40.590830
61771	9.441006	0.728910	2.273253	-0.020639	0.022758	0.001009	18.465873	-75.971136	40.609655
61772	9.455338	0.700527	2.261122	-0.019689	0.012779	-0.001163	18.453148	-75.963035	40.616667
61773	9.447706	0.741693	2.257355	-0.013061	0.012025	-0.003068	18.449435	-75.955101	40.618289
61774	9.447374	0.741694	2.258742	-0.012272	0.015346	-0.003008	18.443122	-75.945271	40.623078
61775	9.469117	0.735432	2.295451	-0.016032	0.006378	-0.001819	18.439092	-75.940633	40.623273
61776	9.439631	0.723927	2.245249	-0.012981	0.005015	-0.003139	18.440138	-75.936389	40.620032
61777	9.446847	0.741430	2.261031	-0.011327	0.003925	-0.001002	18.438806	-75.933231	40.620224
61778	9.431972	0.765286	2.241551	-0.011661	0.011752	-0.006522	18.443066	-75.924710	40.614321
61779	9.490587	0.721086	2.265276	-0.017076	0.003151	-0.005382	18.448492	-75.921180	40.604150
61780	9.446232	0.741901	2.263444	-0.011662	0.011031	-0.004430	18.448730	-75.913431	40.602325
61781	9.453184	0.759702	2.280201	-0.017228	0.017893	-0.007321	18.447609	-75.901536	40.598814
61782	9.423248	0.756709	2.299680	-0.013398	0.017686	-0.002310	18.437469	-75.890557	40.606710
61783	9.445098	0.742279	2.268048	-0.017675	0.008188	-0.006045	18.440331	-75.884169	40.598828
61784	9.466877	0.736146	2.304442	-0.010796	0.006619	-0.002354	18.439760	-75.879199	40.598342
61785	9.466850	0.728141	2.236783	-0.010260	0.010759	-0.007885	18.448983	-75.871080	40.588280
61786	9.444257	0.747033	2.305166	-0.013313	0.011398	-0.004475	18.448104	-75.863130	40.586660
61787	9.466078	0.736747	2.307529	-0.013841	0.008702	-0.003123	18.446469	-75.856992	40.585679
61788	9.451308	0.756443	2.253881	-0.015755	0.008444	-0.004583	18.446554	-75.850624	40.581773
61789	9.443683	0.742937	2.273717	-0.012188	0.007611	-0.000986	18.442045	-75.845466	40.584734
61790	9.472867	0.749951	2.291244	-0.011664	0.009584	-0.000247	18.434311	-75.839260	40.591244
61791	9.457877	0.718793	2.296035	-0.014704	0.012390	-0.003105	18.429499	-75.831120	40.593030
61792	9.442760	0.746696	2.311397	-0.018009	0.013849	-0.005287	18.425929	-75.821680	40.591462
61793	9.435231	0.725148	2.263276	-0.014174	0.015086	-0.004454	18.422397	-75.811831	40.592240
61794	9.434780	0.729533	2.298759	-0.007206	0.008678	-0.007112	18.432632	-75.804880	40.582623
61795	9.471385	0.750675	2.297128	-0.009914	0.004376	-0.006549	18.443706	-75.800472	40.570854
61796	9.456503	0.774860	2.277674	-0.009991	0.011386	-0.006465	18.449013	-75.792165	40.564980
61797	9.419367	0.754499	2.281240	-0.011121	0.013726	-0.005772	18.451018	-75.782816	40.561852
61798	9.440995	0.748430	2.318039	-0.011914	0.009680	-0.003749	18.450602	-75.775931	40.560564
61799	9.463085	0.734045	2.285691	-0.010187	0.001579	-0.001697	18.453090	-75.773922	40.557489
61800	9.440835	0.748302	2.318730	-0.009061	-0.001485	-0.000302	18.454921	-75.773728	40.555996
61801	9.470406	0.747244	2.267319	-0.009741	0.010562	-0.000871	18.449470	-75.766988	40.561376
61802	9.484803	0.723068	2.288748	-0.016105	0.011930	0.002444	18.431783	-75.759997	40.575471
61803	9.440185	0.747264	2.321712	-0.012265	0.013893	0.001191	18.418111	-75.751819	40.587840
61804	9.469401	0.750210	2.305443	-0.014695	0.012388	-0.003100	18.412809	-75.743578	40.590267
61805	9.439649	0.746967	2.323982	-0.011050	0.005268	-0.001678	18.412132	-75.739568	40.589946
61806	9.439714	0.742880	2.290158	-0.009919	0.002928	-0.002372	18.414733	-75.736583	40.586696
61807	9.446782	0.764351	2.339945	-0.009059	-0.001485	-0.000304	18.417066	-75.736492	40.584447
61808	9.447234	0.756119	2.271006	-0.005150	-0.007257	0.000443	18.423637	-75.739568	40.580020
61809	9.461979	0.732145	2.290877	-0.007405	-0.001852	-0.000256	18.427078	-75.739685	40.577605
61810	9.476669	0.762972	2.287481	-0.009401	0.004175	0.000459	18.423030	-75.736553	40.581450
61811	9.447004	0.759418	2.305762	-0.017148	0.007983	0.000966	18.411272	-75.731546	40.588958
61812	9.410122	0.738234	2.308484	-0.010195	0.000129	0.002479	18.405323	-75.730978	40.593950
61813	9.461790	0.730834	2.292072	-0.006274	-0.004192	-0.000952	18.412562	-75.732241	40.588287
61814	9.476318	0.765834	2.322879	-0.007740	0.004534	-0.001581	18.413586	-75.728534	40.588160
61815	9.469115	0.744257	2.273683	-0.013225	0.003663	-0.002464	18.414483	-75.725254	40.584930
61816	9.468765	0.748284	2.308678	-0.010252	0.009315	-0.003693	18.415165	-75.718563	40.583279
61817	9.468507	0.748384	2.309705	-0.008075	0.010920	-0.002904	18.414791	-75.711259	40.584405
61818	9.446355	0.754614	2.275156	-0.013307	0.009946	-0.000284	18.406021	-75.704847	40.591250
61819	9.490262	0.733765	2.278969	-0.012776	0.012644	-0.001629	18.399017	-75.696835	40.596438
61820	9.430876	0.727419	2.315390	-0.009720	0.012013	-0.005037	18.400979	-75.688442	40.594223
61821	9.430537	0.786360	2.326822	-0.011045	0.005267	-0.001675	18.400300	-75.684432	40.593907
61822	9.437969	0.740908	2.297975	-0.012698	0.005634	-0.001722	18.398015	-75.680101	40.594410
61823	9.467135	0.747988	2.315451	-0.010256	0.008588	-0.001604	18.395286	-75.674299	40.596678
61824	9.437362	0.744788	2.333949	-0.010248	0.009315	-0.003691	18.395957	-75.667615	40.594676
61825	9.437402	0.740917	2.300299	-0.011824	0.002673	-0.003834	18.401261	-75.664626	40.587724
61826	9.459390	0.730757	2.301982	-0.008252	0.003288	-0.004411	18.408899	-75.661089	40.580530
61827	9.436878	0.745322	2.335737	-0.011627	0.011758	-0.006496	18.413540	-75.652679	40.574379
61828	9.436566	0.745658	2.336889	-0.015456	0.010520	-0.007334	18.418108	-75.644671	40.565416
61829	9.421554	0.773852	2.351520	-0.011207	-0.000910	-0.007362	18.433778	-75.642990	40.548128
61830	9.444036	0.756205	2.284237	-0.007892	-0.000916	-0.009355	18.455040	-75.640836	40.526183
61831	9.458361	0.736999	2.338880	-0.007104	0.002405	-0.009282	18.474776	-75.637001	40.507125
61832	9.451035	0.775126	2.300167	-0.010145	0.004487	-0.010047	18.492399	-75.631778	40.488431
61833	9.472769	0.769161	2.336218	-0.011821	0.002671	-0.003833	18.497667	-75.628787	40.481517
61834	9.443292	0.762315	2.319971	-0.006058	0.006348	-0.007792	18.511492	-75.622977	40.468555
61835	9.435920	0.745372	2.304938	-0.010939	0.000438	-0.008033	18.527742	-75.620434	40.450825
61836	9.464911	0.757003	2.356262	-0.010151	0.003760	-0.007959	18.541436	-75.615981	40.436659
61837	9.450368	0.777357	2.302153	-0.010159	0.003031	-0.005872	18.551701	-75.612421	40.425570
61838	9.442802	0.764192	2.321345	-0.008762	0.002044	-0.007241	18.565828	-75.609052	40.410503
61839	9.449961	0.782028	2.336933	-0.009035	-0.000035	-0.004483	18.575966	-75.607409	40.400209
61840	9.472263	0.767846	2.304039	-0.010439	0.000224	-0.001027	18.577276	-75.606131	40.397656
61841	9.435442	0.747092	2.306336	-0.008513	0.001937	-0.003738	18.584730	-75.603553	40.390441
61842	9.427995	0.788617	2.301641	-0.007647	-0.001750	-0.003765	18.594853	-75.602866	40.380817
61843	9.471970	0.771833	2.338575	-0.012100	-0.000139	0.001013	18.591676	-75.602283	40.382457
61844	9.413274	0.757256	2.305351	-0.007734	0.004530	-0.001576	18.592637	-75.598580	40.381924
61845	9.442487	0.764343	2.322577	-0.011304	0.003911	-0.000999	18.591290	-75.595430	40.382145
61846	9.435060	0.805573	2.317905	-0.007919	-0.003829	-0.001008	18.596895	-75.596368	40.376834
61847	9.457393	0.736403	2.308381	-0.009042	-0.000763	-0.002396	18.603122	-75.595501	40.370574
61848	9.435293	0.746653	2.307087	-0.008785	-0.000142	-0.000980	18.605563	-75.594446	40.368341
61849	9.420404	0.774494	2.321248	-0.007380	-0.000400	-0.004435	18.616792	-75.593008	40.357898
61850	9.435107	0.750648	2.341179	-0.012009	-0.006419	-0.001178	18.622274	-75.595328	40.350656
61851	9.450072	0.777823	2.303211	-0.005471	-0.000144	-0.002972	18.631322	-75.594019	40.343595
61852	9.442476	0.764201	2.322669	-0.013036	0.011285	-0.000938	18.623083	-75.586750	40.349582
61853	9.449614	0.781515	2.338507	-0.011744	-0.005069	-0.001848	18.629667	-75.588321	40.341355
61854	9.464625	0.753604	2.323873	-0.006794	-0.006896	0.000378	18.635190	-75.591194	40.337145
61855	9.457534	0.790879	2.284495	-0.005487	-0.001604	0.001200	18.636448	-75.591440	40.338117
61856	9.457518	0.790610	2.284655	-0.014871	0.003291	-0.000418	18.631781	-75.588634	40.340009
61857	9.456961	0.742995	2.377244	-0.018440	0.002672	0.000159	18.624773	-75.586369	40.341854
61858	9.413201	0.755512	2.306220	-0.003313	0.000001	0.001993	18.623946	-75.585772	40.345735
61859	9.449757	0.780097	2.338403	-0.007643	-0.001749	-0.003765	18.634561	-75.585189	40.335770
61860	9.450190	0.772411	2.269890	-0.013474	0.002305	-0.001787	18.634276	-75.582660	40.333633
61861	9.442195	0.766406	2.357721	-0.011557	0.003290	-0.002410	18.636196	-75.579588	40.330331
61862	9.449808	0.776179	2.304848	-0.010426	0.000954	-0.003111	18.641397	-75.577537	40.323887
61863	9.420253	0.772921	2.322385	-0.009559	-0.002733	-0.003142	18.650294	-75.577601	40.314562
61864	9.471712	0.769864	2.340269	-0.009559	-0.002734	-0.003142	18.658672	-75.577538	40.305049
61865	9.442399	0.762586	2.323511	-0.011829	0.001208	0.000346	18.656096	-75.576102	40.306228
61866	9.442608	0.758680	2.289314	-0.005469	-0.000143	-0.002971	18.664638	-75.574673	40.299714
61867	9.464193	0.756117	2.359427	-0.009903	0.002924	-0.002362	18.667657	-75.571808	40.296256
61868	9.442264	0.762408	2.324118	-0.013480	0.001573	0.000301	18.663455	-75.570055	40.297483
61869	9.442200	0.762216	2.324443	-0.011555	0.003290	-0.002408	18.665362	-75.566984	40.294195
61870	9.471674	0.765693	2.307175	-0.007111	0.000954	-0.005103	18.676665	-75.564587	40.283678
61871	9.442068	0.762538	2.324872	-0.010423	0.000954	-0.003109	18.682360	-75.562654	40.277147
61872	9.456684	0.793539	2.321749	-0.009910	0.002192	-0.000276	18.680996	-75.560471	40.278055
61873	9.449157	0.779994	2.340859	-0.006846	0.002306	-0.005771	18.693384	-75.557316	40.266730
61874	9.464228	0.748580	2.292536	-0.010431	0.000222	-0.001024	18.694712	-75.556050	40.264828
61875	9.449337	0.776328	2.306728	-0.007639	-0.001748	-0.003765	18.705305	-75.555463	40.254887
61876	9.449084	0.780130	2.341110	-0.008258	0.001826	-0.000229	18.705046	-75.553483	40.255578
61877	9.441825	0.762568	2.325851	-0.010166	0.001573	-0.001692	18.707454	-75.551474	40.252595
61878	9.442051	0.758696	2.291606	-0.010950	-0.001749	-0.001772	18.711452	-75.551155	40.247291
61879	9.449242	0.776120	2.307188	-0.006598	0.002193	-0.002268	18.716673	-75.548704	40.243514
61880	9.419641	0.772573	2.324982	-0.011569	0.001824	0.001765	18.710321	-75.547091	40.248541
61881	9.448925	0.779495	2.341964	-0.006862	0.000842	-0.001600	18.714945	-75.545496	40.245223
61882	9.441688	0.761858	2.326639	-0.009917	0.001459	0.001811	18.709716	-75.544088	40.250362
61883	9.471173	0.765007	2.309457	-0.007728	0.004529	-0.001564	18.711141	-75.540499	40.249836
61884	9.419677	0.768055	2.291744	-0.008257	0.001826	-0.000228	18.710880	-75.538516	40.250426
61885	9.448757	0.778628	2.342929	-0.008794	-0.001610	0.003193	18.706058	-75.539132	40.255719
61886	9.434396	0.743317	2.311829	-0.010701	-0.001863	0.001730	18.702913	-75.539509	40.258052
61887	9.419335	0.774497	2.360179	-0.006003	-0.003577	0.000450	18.706864	-75.540689	40.255937
61888	9.449212	0.773518	2.308186	-0.009941	-0.000741	0.008067	18.690012	-75.541626	40.272752
61889	9.441631	0.762859	2.361125	-0.009578	-0.004931	0.003112	18.687276	-75.544030	40.275429
61890	9.471583	0.761828	2.308826	-0.006028	-0.005777	0.006704	18.679120	-75.547447	40.285776
61891	9.420054	0.768001	2.324822	-0.006629	-0.000739	0.006073	18.668847	-75.548118	40.297980
61892	9.456919	0.788085	2.322648	-0.010972	-0.003947	0.004484	18.661225	-75.550135	40.304778
61893	9.449630	0.718543	2.364359	-0.009858	-0.007750	0.007949	18.650132	-75.554954	40.315918
61894	9.457320	0.786442	2.321572	-0.006283	-0.006396	0.005287	18.645240	-75.558450	40.322743
61895	9.457467	0.785784	2.321194	-0.007149	-0.002709	0.005325	18.637638	-75.560051	40.331881
61896	9.406085	0.732940	2.326554	-0.008904	0.002464	0.011654	18.611517	-75.559900	40.358980
61897	9.442940	0.752677	2.324543	-0.009064	-0.003695	0.005947	18.602199	-75.562150	40.368756
61898	9.450219	0.773240	2.373470	-0.003679	-0.016723	0.003090	18.610755	-75.570850	40.363161
61899	9.450924	0.764991	2.304015	-0.009944	-0.001476	0.010155	18.590467	-75.572663	40.383745
61900	9.421254	0.764263	2.355853	-0.009935	-0.000742	0.008071	18.573571	-75.573593	40.400802
61901	9.450970	0.766674	2.337938	-0.006554	-0.008482	0.008040	18.564652	-75.578822	40.411650
61902	9.466105	0.738080	2.322827	-0.007075	-0.010451	0.007290	18.557918	-75.584881	40.419831
61903	9.466561	0.788533	2.264657	-0.006632	-0.001474	0.008161	18.543714	-75.586325	40.436091
61904	9.436779	0.732937	2.340053	-0.012441	0.004046	0.005982	18.526388	-75.584270	40.452099
61905	9.422273	0.755900	2.319790	-0.008476	-0.010203	0.010747	18.511837	-75.590925	40.467625
61906	9.459500	0.772031	2.282802	-0.007667	-0.004678	0.004576	18.506389	-75.593353	40.474166
61907	9.422570	0.754115	2.319166	-0.010539	0.003563	0.009530	18.483473	-75.592305	40.497108
61908	9.451982	0.760169	2.335972	-0.010975	-0.004680	0.006572	18.471904	-75.595096	40.508005
61909	9.452378	0.755672	2.301124	-0.006545	-0.007748	0.005954	18.466832	-75.599543	40.514886
61910	9.452515	0.754871	2.300824	-0.008016	0.000244	0.007451	18.451610	-75.599816	40.531273
61911	9.452355	0.757643	2.335282	-0.011316	0.000977	0.007363	18.434654	-75.599776	40.547601
61912	9.452572	0.753202	2.301134	-0.013473	0.000845	0.002399	18.426576	-75.598806	40.553401
61913	9.445317	0.735067	2.285841	-0.009143	0.002578	0.008159	18.408053	-75.598037	40.572633
61914	9.467030	0.786535	2.332900	-0.012679	0.004902	0.000399	18.401810	-75.594499	40.577015
61915	9.444957	0.737520	2.321205	-0.013820	0.005766	0.005276	18.384474	-75.591474	40.592255
61916	9.430178	0.760864	2.302038	-0.016583	0.009939	0.001771	18.369560	-75.585445	40.603287
61917	9.415294	0.729232	2.306134	-0.012162	0.006134	0.003236	18.357247	-75.581849	40.614323
61918	9.459245	0.766904	2.320265	-0.009377	0.004169	0.000488	18.353240	-75.578725	40.618348
61919	9.466273	0.728883	2.359656	-0.014061	0.006621	-0.000310	18.347004	-75.574225	40.621986
61920	9.429424	0.763054	2.339058	-0.011018	0.005272	-0.001640	18.345785	-75.570117	40.622166
61921	9.429343	0.762848	2.339451	-0.011813	0.001214	0.000358	18.343217	-75.568678	40.623346
61922	9.444178	0.734845	2.325221	-0.008778	-0.000872	0.001112	18.341771	-75.568407	40.625081
61923	9.458852	0.765463	2.322342	-0.012160	0.006133	0.003238	18.329476	-75.564811	40.636100
61924	9.451303	0.751156	2.341628	-0.012947	0.002812	0.003151	18.318757	-75.562904	40.644956
61925	9.458493	0.767941	2.357623	-0.012681	0.004165	0.002486	18.309137	-75.560242	40.652904
61926	9.465779	0.726019	2.362518	-0.011031	0.003798	0.002530	18.300144	-75.557686	40.661098
61927	9.428999	0.760014	2.341760	-0.011023	0.004535	0.000446	18.295529	-75.554455	40.664859
61928	9.458452	0.763096	2.324747	-0.011023	0.004535	0.000446	18.290431	-75.551122	40.669041
61929	9.421562	0.742145	2.327109	-0.013451	0.002319	-0.001769	18.290651	-75.548699	40.666373
61930	9.450878	0.749049	2.344018	-0.009291	-0.002102	-0.001725	18.295764	-75.548586	40.661035
61931	9.443600	0.731548	2.328603	-0.009373	0.004168	0.000491	18.292259	-75.545563	40.664627
61932	9.399380	0.751956	2.326446	-0.010160	0.000847	0.000403	18.290322	-75.544229	40.666059
61933	9.435970	0.776019	2.358895	-0.007127	-0.001239	0.001155	18.290475	-75.544267	40.667202
61934	9.436291	0.772098	2.324280	-0.008179	-0.005913	0.001732	18.291584	-75.546849	40.666649
61935	9.465864	0.720030	2.329467	-0.007914	-0.004560	0.001067	18.293789	-75.548677	40.665207
61936	9.458546	0.761292	2.324957	-0.006853	0.000852	-0.001593	18.297955	-75.546981	40.662290
61937	9.421988	0.736529	2.292591	-0.010183	-0.001368	0.006655	18.284839	-75.548078	40.675328
61938	9.458442	0.763790	2.359176	-0.009305	-0.003578	0.002442	18.282174	-75.549518	40.678014
61939	9.444019	0.728763	2.327781	-0.010946	-0.002473	0.000315	18.282772	-75.550076	40.676437
61940	9.473612	0.731672	2.310256	-0.008003	0.000971	0.005369	18.271500	-75.549567	40.688781
61941	9.414638	0.779384	2.322335	-0.009909	0.000723	0.003907	18.262881	-75.549031	40.697337
61942	9.458632	0.761734	2.359078	-0.010953	-0.003212	0.002399	18.259106	-75.550264	40.700194
61943	9.429385	0.754081	2.342125	-0.010181	-0.001369	0.006656	18.245983	-75.551359	40.713239
61944	9.451721	0.739497	2.309062	-0.006345	0.001343	0.003330	18.239710	-75.550280	40.721402
61945	9.429695	0.749195	2.307839	-0.012351	-0.002969	0.005858	18.228140	-75.552102	40.731561
61946	9.451638	0.741723	2.343281	-0.010429	-0.001244	0.003154	18.221699	-75.552399	40.737477
61947	9.459393	0.751405	2.290116	-0.007132	-0.001978	0.003240	18.217957	-75.553212	40.742638
61948	9.451739	0.740614	2.343226	-0.009649	0.001337	0.005328	18.205576	-75.552493	40.755156
61949	9.459427	0.750245	2.290355	-0.009898	0.001463	0.001826	18.200847	-75.551180	40.759701
61950	9.444471	0.722251	2.327973	-0.008258	0.000356	0.003952	18.192854	-75.550748	40.768506
61951	9.452008	0.735438	2.309181	-0.009045	-0.002964	0.003861	18.187387	-75.552209	40.774317
61952	9.429814	0.748767	2.342103	-0.009045	-0.002965	0.003861	18.181437	-75.553569	40.780551
61953	9.451910	0.737956	2.343373	-0.009632	0.002816	0.001162	18.177324	-75.551400	40.784617
61954	9.451883	0.737470	2.343635	-0.011553	0.001090	0.003867	18.167112	-75.550553	40.793763
61955	9.422355	0.733473	2.361230	-0.010427	-0.001244	0.003155	18.161152	-75.550950	40.799266
61956	9.452229	0.732851	2.309099	-0.006270	-0.005666	0.003191	18.160077	-75.553660	40.802111
61957	9.430067	0.746231	2.341891	-0.009044	-0.002965	0.003862	18.154606	-75.555119	40.807927
61958	9.430181	0.745771	2.341580	-0.004357	-0.004680	0.002570	18.155254	-75.557182	40.810116
61959	9.444921	0.721310	2.361025	-0.006528	-0.006280	0.001772	18.157939	-75.560073	40.808999
61960	9.430532	0.744981	2.340419	-0.010619	-0.009606	0.003678	18.156069	-75.565015	40.810084
61961	9.467808	0.761605	2.303338	-0.003503	-0.009109	0.004604	18.156459	-75.569951	40.813126
61962	9.430968	0.743827	2.339027	-0.010955	-0.003951	0.004485	18.148768	-75.571959	40.820025
61963	9.423842	0.725906	2.322995	-0.009830	-0.006286	0.003771	18.145332	-75.575210	40.823274
61964	9.460901	0.746101	2.320297	-0.002378	-0.011443	0.003890	18.149008	-75.581190	40.823510
61965	9.439049	0.756014	2.318359	-0.007916	-0.005299	0.003150	18.147297	-75.583793	40.826111
61966	9.431470	0.745288	2.371226	-0.008511	-0.000257	0.002537	18.142560	-75.583441	40.831404
61967	9.431736	0.741434	2.336689	-0.006261	-0.004926	0.001109	18.145860	-75.585477	40.829809
61968	9.439371	0.755021	2.317371	-0.007307	-0.008859	-0.000403	18.154012	-75.589283	40.822508
61969	9.453908	0.734237	2.371163	-0.007379	-0.001850	-0.000259	18.157437	-75.589400	40.820123
61970	9.424831	0.723720	2.319663	-0.003223	-0.006273	-0.000227	18.165763	-75.591830	40.815057
61971	9.439808	0.754570	2.315738	-0.009748	-0.012553	0.001546	18.171449	-75.598096	40.808937
61972	9.439982	0.754264	2.315127	-0.005473	-0.001605	0.001202	18.172212	-75.598239	40.810346
61973	9.432582	0.740269	2.333642	-0.005996	-0.003572	0.000446	18.176133	-75.599419	40.808268
61974	9.454770	0.729679	2.334409	-0.010078	-0.006157	0.000271	18.179402	-75.601874	40.804367
61975	9.432816	0.739890	2.332815	-0.006254	-0.004184	-0.000973	18.186613	-75.603134	40.798740
61976	9.469713	0.760502	2.330644	-0.005731	-0.002218	-0.000217	18.190664	-75.603357	40.796607
61977	9.433021	0.736168	2.298418	-0.009098	0.005525	-0.000154	18.187745	-75.599477	40.799755
61978	9.425372	0.725664	2.351583	-0.009813	-0.004804	-0.000392	18.191631	-75.601076	40.795375
61979	9.440251	0.756547	2.348065	-0.011983	-0.006402	-0.001190	18.197565	-75.603504	40.787676
61980	9.462585	0.742483	2.314584	-0.007119	-0.001239	0.001162	18.197214	-75.603441	40.789264
61981	9.425693	0.725041	2.350487	-0.005134	-0.007260	0.000394	18.204315	-75.606618	40.784413
61982	9.440803	0.752493	2.312356	-0.007304	-0.008859	-0.000404	18.212494	-75.610422	40.777083
61983	9.426198	0.721288	2.314860	-0.004346	-0.003940	0.000488	18.217533	-75.611809	40.774826
61984	9.470618	0.755485	2.293781	-0.010082	-0.006900	0.002354	18.216906	-75.615041	40.774945
61985	9.426487	0.720874	2.313814	-0.008940	-0.007007	-0.004609	18.232275	-75.617184	40.759308
61986	9.463261	0.744942	2.345841	-0.003829	-0.002716	0.003327	18.230244	-75.618313	40.764577
61987	9.434035	0.737717	2.328572	-0.007045	-0.008247	0.001016	18.235631	-75.622139	40.760365
61988	9.449173	0.764984	2.290332	-0.009220	-0.010589	0.002302	18.238193	-75.627368	40.757702
61989	9.441779	0.754255	2.342654	-0.006521	-0.006281	0.001773	18.240900	-75.630260	40.756567
61990	9.412713	0.743599	2.290970	-0.006521	-0.006281	0.001774	18.243119	-75.633051	40.755854
61991	9.471641	0.757018	2.323933	-0.006785	-0.007636	0.002436	18.245216	-75.636798	40.755193
61992	9.420391	0.760310	2.305264	-0.007561	-0.009470	-0.001823	18.256720	-75.640679	40.744283
61993	9.464737	0.739261	2.306803	-0.004619	-0.006781	0.005316	18.253339	-75.644478	40.750556
61994	9.442849	0.749038	2.305111	-0.009819	-0.006290	0.003777	18.249420	-75.647633	40.754229
61995	9.450284	0.765890	2.320381	-0.007639	-0.003205	0.000409	18.252233	-75.648606	40.752322
61996	9.450419	0.765524	2.319952	-0.006524	-0.007025	0.003857	18.250547	-75.652175	40.755641
61997	9.443317	0.747725	2.303620	-0.006788	-0.008380	0.004519	18.248734	-75.656701	40.759013
61998	9.465527	0.740144	2.338204	-0.005668	-0.011457	0.005885	18.246331	-75.663046	40.763577
61999	9.443838	0.746507	2.301880	-0.004876	-0.007393	0.003897	18.246242	-75.666923	40.766299
62000	9.429312	0.773483	2.315709	-0.008438	-0.008756	0.006563	18.238904	-75.671919	40.774317
62001	9.444328	0.745337	2.300244	-0.006181	-0.011935	0.000963	18.247508	-75.677742	40.767296
62002	9.451889	0.762205	2.315052	-0.006523	-0.007025	0.003858	18.245815	-75.681312	40.770625
62003	9.437277	0.730568	2.317663	-0.005476	-0.003094	0.005372	18.239211	-75.683114	40.779717
62004	9.452193	0.761055	2.314187	-0.006522	-0.007025	0.003858	18.237515	-75.686684	40.783043
62005	9.444946	0.746652	2.332300	-0.006262	-0.006414	0.005278	18.232991	-75.690276	40.789523
62006	9.445285	0.742671	2.297178	-0.005662	-0.010714	0.003803	18.234497	-75.695842	40.790058
62007	9.445537	0.742199	2.296295	-0.007045	-0.008991	0.003101	18.235978	-75.700446	40.789878
62008	9.423595	0.755347	2.328845	-0.006265	-0.007159	0.007361	18.227039	-75.704716	40.800833
62009	9.445992	0.740876	2.294849	-0.003491	-0.009116	0.004599	18.227443	-75.709657	40.803866
62010	9.453597	0.754223	2.275599	-0.009288	-0.003579	0.002457	18.224725	-75.711099	40.806616
62011	9.453524	0.760466	2.344036	-0.010938	-0.003956	0.004501	18.217438	-75.713213	40.813181
62012	9.424337	0.749780	2.292550	-0.004607	-0.005294	0.001153	18.221396	-75.715355	40.811808
62013	9.468631	0.787328	2.305925	-0.010934	-0.003211	0.002419	18.218035	-75.716692	40.814324
62014	9.446490	0.742059	2.327508	-0.007113	-0.001237	0.001171	18.217665	-75.716629	40.815936
62015	9.453987	0.755403	2.308704	-0.008766	-0.002359	0.005298	18.208793	-75.718017	40.825422
62016	9.454156	0.751428	2.274198	-0.007116	-0.001982	0.003254	18.204493	-75.718732	40.831092
62017	9.424714	0.750810	2.325782	-0.010076	-0.007645	0.004444	18.200408	-75.722843	40.834863
62018	9.476529	0.739717	2.274423	-0.007122	-0.003473	0.007418	18.188242	-75.725115	40.848641
62019	9.425067	0.746098	2.290749	-0.010929	-0.002466	0.000338	18.188808	-75.725672	40.847109
62020	9.432488	0.763019	2.306228	-0.005729	-0.002961	0.001872	18.188944	-75.726673	40.849015
62021	9.462038	0.766155	2.288487	-0.008759	-0.000869	0.001134	18.187927	-75.726504	40.850399
62022	9.417707	0.734696	2.343484	-0.010405	-0.000501	0.001096	18.185318	-75.726027	40.852381
62023	9.432677	0.762083	2.305765	-0.007039	-0.008246	0.001018	18.190722	-75.729853	40.848156
62024	9.447489	0.737550	2.324883	-0.006515	-0.006281	0.001776	18.192951	-75.732643	40.847434
62025	9.447706	0.737367	2.324061	-0.009993	-0.012417	-0.001957	18.205972	-75.738207	40.833604
62026	9.433293	0.764949	2.337490	-0.001500	-0.013650	-0.000348	18.220821	-75.744626	40.822835
62027	9.448341	0.733772	2.287447	-0.005394	-0.009361	0.003138	18.223426	-75.749438	40.822472
62028	9.463340	0.764491	2.283654	-0.007038	-0.008246	0.001019	18.228373	-75.753161	40.818645
62029	9.448649	0.736500	2.320498	-0.009544	-0.004189	0.001041	18.229448	-75.754783	40.817407
62030	9.478259	0.739617	2.302452	-0.008160	-0.005913	0.001740	18.230562	-75.757365	40.816864
62031	9.426921	0.742816	2.284179	-0.006253	-0.005672	0.003197	18.229945	-75.760181	40.819317
62032	9.449132	0.731953	2.284760	-0.007899	-0.005304	0.003160	18.227733	-75.762686	40.822360
62033	9.449198	0.735031	2.318729	-0.006249	-0.004180	-0.000966	18.234994	-75.763943	40.816687
62034	9.464174	0.762591	2.280828	-0.007036	-0.008247	0.001019	18.239950	-75.767666	40.812852
62035	9.464338	0.762253	2.280263	-0.011451	-0.005177	0.001667	18.239288	-75.769937	40.812278
62036	9.457011	0.748062	2.298686	-0.005464	-0.001606	0.001213	18.240038	-75.770081	40.813722
62037	9.464522	0.761565	2.279730	-0.007897	-0.005305	0.003161	18.238297	-75.772690	40.816363
62038	9.449803	0.733426	2.316771	-0.007372	-0.002593	0.001838	18.237310	-75.773484	40.818455
62039	9.479372	0.736573	2.298845	-0.007895	-0.004558	0.001079	18.239509	-75.775312	40.817031
62040	9.428017	0.739758	2.280644	-0.009805	-0.006292	0.003786	18.235562	-75.778469	40.820743
62041	9.457580	0.746097	2.296985	-0.005725	-0.002962	0.001875	18.236167	-75.779571	40.822247
62042	9.479796	0.735421	2.297463	-0.009205	-0.009843	0.000223	18.242728	-75.784021	40.815473
62043	9.428493	0.738788	2.278991	-0.004865	-0.006651	0.001814	18.246569	-75.787120	40.814147
62044	9.450653	0.728152	2.279682	-0.009016	-0.001478	-0.000279	18.248398	-75.786928	40.812364
62045	9.450656	0.731236	2.313980	-0.007108	-0.001238	0.001178	18.248486	-75.786967	40.813583
62046	9.465481	0.762018	2.310938	-0.007108	-0.001238	0.001178	18.248107	-75.786905	40.815200
62047	9.428700	0.740942	2.312755	-0.009017	-0.002973	0.003885	18.242515	-75.788375	40.821151
62048	9.450858	0.726870	2.279239	-0.007369	-0.001846	-0.000242	18.245469	-75.788389	40.819189
62049	9.450891	0.729666	2.313518	-0.010140	-0.001388	0.006690	18.232083	-75.789498	40.832517
62050	9.443672	0.711973	2.297311	-0.005912	-0.010580	0.000294	18.240904	-75.794361	40.825364
62051	9.458668	0.742807	2.293568	-0.004864	-0.006651	0.001813	18.244747	-75.797460	40.824035
62052	9.436767	0.752963	2.291984	-0.008417	-0.006522	0.000321	18.249205	-75.800120	40.819908
62053	9.481056	0.731821	2.293412	-0.008417	-0.007270	0.002403	18.250186	-75.803662	40.819433
62054	9.429710	0.738256	2.309491	-0.009801	-0.006294	0.003788	18.246232	-75.806819	40.823140
62055	9.459313	0.741169	2.291438	-0.007369	-0.003342	0.003922	18.241756	-75.808496	40.828913
62056	9.444785	0.768078	2.305782	-0.007632	-0.005446	0.006665	18.232251	-75.811707	40.839644
62057	9.452224	0.722704	2.274897	-0.006247	-0.005675	0.003198	18.231627	-75.814524	40.842106
62058	9.422962	0.721960	2.326254	-0.007033	-0.009743	0.005181	18.228700	-75.819807	40.846387
62059	9.438031	0.749216	2.288004	-0.007557	-0.010959	0.002340	18.232922	-75.825345	40.843077
62060	9.460412	0.738191	2.287860	-0.006173	-0.014181	0.007199	18.229287	-75.833406	40.848624
62061	9.460755	0.737502	2.286662	-0.005910	-0.012077	0.004457	18.230683	-75.839931	40.849201
62062	9.461047	0.733532	2.251270	-0.007031	-0.010492	0.007264	18.223788	-75.845995	40.857600
62063	9.461310	0.735891	2.284883	-0.005982	-0.006565	0.008783	18.211884	-75.850296	40.871852
62064	9.446745	0.703771	2.287181	-0.009796	-0.008539	0.010036	18.196016	-75.855793	40.887858
62065	9.447147	0.761361	2.298323	-0.009534	-0.006434	0.007294	18.185183	-75.859755	40.898905
62066	9.454713	0.722096	2.335722	-0.007552	-0.013955	0.010667	18.173057	-75.868310	40.912361
62067	9.440393	0.738974	2.246036	-0.006433	-0.014790	0.005779	18.173194	-75.876549	40.913929
62068	9.462821	0.730912	2.280220	-0.008672	-0.010873	0.009312	18.161149	-75.883183	40.926679
62069	9.455918	0.771539	2.275211	-0.006170	-0.013433	0.005119	18.161895	-75.890565	40.927774
62070	9.441454	0.739690	2.276955	-0.007550	-0.013206	0.008587	18.153706	-75.898340	40.937222
62071	9.485896	0.717850	2.277761	-0.008933	-0.011480	0.007893	18.145459	-75.905154	40.945956
62072	9.456754	0.713389	2.294559	-0.010053	-0.009147	0.008619	18.132862	-75.910724	40.958434
62073	9.464388	0.726477	2.275130	-0.006766	-0.008387	0.004524	18.130954	-75.915253	40.961913
62074	9.435219	0.719061	2.257362	-0.004783	-0.015910	0.007895	18.127740	-75.924377	40.967809
62075	9.472408	0.739139	2.254214	-0.003741	-0.008984	0.001089	18.135446	-75.928618	40.963164
62076	9.465226	0.724671	2.272217	-0.011172	-0.006065	0.007266	18.122928	-75.932268	40.974850
62077	9.443320	0.734405	2.270920	-0.010915	-0.003208	0.002443	18.119472	-75.933605	40.977474
62078	9.436113	0.719934	2.289032	-0.007025	-0.009744	0.005185	18.116467	-75.938888	40.981895
62079	9.473228	0.736748	2.251550	-0.004785	-0.014411	0.003731	18.121692	-75.946555	40.979190
62080	9.466163	0.722317	2.269062	-0.003735	-0.010484	0.005252	18.120951	-75.952251	40.983179
62081	9.473789	0.735645	2.249547	-0.006763	-0.008388	0.004526	18.119026	-75.956780	40.986676
62082	9.474012	0.738152	2.283566	-0.015320	-0.000885	0.005189	18.104944	-75.957239	40.997633
62083	9.459298	0.706437	2.286207	-0.006501	-0.007031	0.003865	18.103636	-75.960911	41.000649
62084	9.452023	0.688799	2.269867	-0.006501	-0.007031	0.003865	18.101860	-75.964479	41.004054
62085	9.467064	0.719336	2.266246	-0.008671	-0.008624	0.003072	18.102168	-75.968877	41.004123
62086	9.467330	0.721975	2.300075	-0.009264	-0.004328	0.004561	18.095363	-75.971101	41.011075
62087	9.445356	0.728713	2.264275	-0.006764	-0.007637	0.002444	18.097428	-75.974850	41.010459
62088	9.467592	0.717938	2.264486	-0.007029	-0.008243	0.001024	18.102399	-75.978575	41.006454
62089	9.467776	0.717472	2.263863	-0.007880	-0.006056	0.005254	18.096569	-75.981963	41.013316
62090	9.482584	0.692533	2.283027	-0.009266	-0.003577	0.002481	18.093757	-75.983402	41.016143
62091	9.453355	0.740861	2.243572	-0.011436	-0.005170	0.001688	18.093036	-75.985673	41.015640
62092	9.460770	0.702124	2.281438	-0.009266	-0.003577	0.002481	18.090222	-75.987113	41.018485
62093	9.446287	0.726059	2.261241	-0.003996	-0.011093	0.003828	18.093315	-75.992990	41.018444
62094	9.461442	0.756667	2.257167	-0.008335	-0.014278	0.002243	18.099188	-76.000219	41.012894
62095	9.468923	0.714874	2.259882	-0.007553	-0.010206	0.000263	18.107404	-76.004978	41.005473
62096	9.476590	0.731514	2.274989	-0.007351	-0.004094	0.006016	18.098330	-76.007333	41.015930
62097	9.447174	0.724349	2.258081	-0.005715	-0.002961	0.001886	18.098878	-76.008435	41.017497
62098	9.447429	0.727111	2.292034	-0.006497	-0.007033	0.003866	18.097092	-76.012006	41.021032
62099	9.447463	0.723624	2.257107	-0.006505	-0.005529	-0.000296	18.103792	-76.014119	41.015793
62100	9.491840	0.757684	2.236050	-0.008994	-0.003724	0.005986	18.093571	-76.016262	41.026417
62101	9.462425	0.697991	2.275836	-0.011424	-0.006674	0.005854	18.084819	-76.020092	41.034197
62102	9.448021	0.724859	2.290308	-0.008998	-0.002972	0.003905	18.078606	-76.021457	41.040734
62103	9.448035	0.721110	2.255514	-0.004586	-0.006798	0.005318	18.075026	-76.025260	41.047221
62104	9.455837	0.737714	2.270126	-0.007475	-0.017968	0.002172	18.084193	-76.034485	41.038780
62105	9.456076	0.733933	2.234364	-0.005627	-0.012228	0.007958	18.078111	-76.041715	41.047230
62106	9.456401	0.733251	2.233210	-0.002609	-0.012822	0.004518	18.081257	-76.048553	41.047994
62107	9.471433	0.708102	2.251480	-0.011344	-0.014437	0.007766	18.073891	-76.056951	41.054391
62108	9.457263	0.734681	2.265160	-0.003715	-0.011995	0.009411	18.065062	-76.064210	41.066648
62109	9.472147	0.706175	2.249081	-0.004241	-0.013957	0.008650	18.059466	-76.072505	41.075416
62110	9.457973	0.732694	2.262839	-0.006736	-0.010649	0.010772	18.044924	-76.079268	41.091638
62111	9.480071	0.717794	2.228755	-0.009828	-0.002292	0.012306	18.019716	-76.081854	41.117311
62112	9.450837	0.712834	2.246390	-0.011466	-0.002674	0.014357	17.988859	-76.084905	41.147819
62113	9.458584	0.728618	2.261602	-0.006741	-0.009896	0.008691	17.978781	-76.090990	41.159726
62114	9.458924	0.727541	2.260525	-0.007521	-0.013969	0.010671	17.966332	-76.099541	41.173559
62115	9.474131	0.754230	2.221511	-0.000869	-0.023218	0.012698	17.960281	-76.113595	41.184783
62116	9.474323	0.697518	2.242609	-0.008706	-0.004625	0.011578	17.938447	-76.117207	41.207609
62117	9.459779	0.720668	2.222977	-0.014760	-0.000424	0.010140	17.913769	-76.118381	41.229822
62118	9.445092	0.691425	2.260614	-0.016732	0.005600	0.010945	17.881432	-76.116310	41.258719
62119	9.452726	0.707360	2.276322	-0.010033	-0.008400	0.006551	17.873051	-76.121197	41.266933
62120	9.452970	0.703424	2.240374	-0.000027	-0.025405	0.008459	17.877841	-76.135591	41.267632
62121	9.512544	0.712626	2.236719	-0.000025	-0.025406	0.008460	17.883090	-76.150088	41.267714
62122	9.461626	0.718764	2.252009	-0.006996	-0.011255	0.009354	17.871801	-76.156918	41.280589
62123	9.491288	0.721061	2.233307	-0.016856	-0.009024	0.009181	17.854106	-76.162607	41.294370
62124	9.454632	0.699435	2.234601	-0.008378	-0.009526	0.008665	17.842295	-76.168380	41.306996
62125	9.454939	0.698573	2.233570	-0.004243	-0.013207	0.006568	17.840578	-76.175891	41.311762
62126	9.455556	0.700901	2.266544	-0.006933	-0.017512	0.007098	17.838759	-76.185735	41.315166
62127	9.492748	0.717561	2.228225	-0.004700	-0.022180	0.005632	17.845260	-76.197976	41.311199
62128	9.456273	0.696425	2.228588	-0.004768	-0.015169	0.005808	17.845856	-76.206321	41.312962
62129	9.493469	0.716362	2.225536	-0.006228	-0.005673	0.003215	17.845053	-76.209135	41.315616
62130	9.456976	0.698387	2.261392	-0.010293	-0.009003	0.005138	17.839566	-76.213996	41.320651
62131	9.486539	0.701209	2.242837	-0.006487	-0.007031	0.003875	17.838116	-76.217666	41.323818
62132	9.479180	0.683777	2.226257	-0.007811	-0.011557	0.000930	17.845241	-76.223190	41.317488
62133	9.486699	0.697419	2.206913	-0.005967	-0.004315	0.002556	17.845077	-76.225147	41.319637
62134	9.449781	0.676747	2.209014	-0.009868	0.002989	-0.002246	17.847665	-76.222171	41.316538
62135	9.494136	0.714174	2.223394	-0.011311	0.010975	-0.000675	17.840679	-76.215222	41.322559
62136	9.435161	0.707159	2.260306	-0.014606	0.012475	-0.002811	17.835023	-76.206977	41.325161
62137	9.471493	0.669084	2.246611	-0.013353	-0.003880	-0.003901	17.844665	-76.207563	41.312856
62138	9.486540	0.700182	2.243154	0.001184	-0.009344	-0.000913	17.859443	-76.211553	41.303670
62139	9.457379	0.697053	2.260119	-0.001005	-0.009422	-0.005865	17.884500	-76.214815	41.282778
62140	9.494195	0.714715	2.222969	-0.010058	-0.005381	-0.001764	17.891898	-76.216480	41.274608
62141	9.457291	0.694207	2.224956	-0.012038	0.001400	-0.003034	17.896587	-76.214337	41.268179
62142	9.471996	0.669793	2.244279	-0.010066	-0.004625	-0.003845	17.908069	-76.215237	41.255876
62143	9.457410	0.694443	2.224380	-0.005396	-0.007100	-0.003104	17.922822	-76.217715	41.243002
62144	9.465097	0.711779	2.239608	-0.005146	-0.004986	-0.005844	17.941829	-76.218453	41.225942
62145	9.472414	0.726430	2.220792	-0.007932	-0.000013	-0.011377	17.968416	-76.215605	41.199388
62146	9.479384	0.685617	2.224819	-0.009367	0.007216	-0.007722	17.980378	-76.209360	41.187009
62147	9.464723	0.713829	2.240536	-0.004447	0.006857	-0.009721	18.000305	-76.203057	41.169368
62148	9.464586	0.714702	2.240837	-0.010100	-0.001602	-0.012167	18.028040	-76.200820	41.140228
62149	9.486539	0.705131	2.241610	-0.002474	0.000833	-0.010533	18.055218	-76.197652	41.116283
62150	9.456998	0.702361	2.260066	-0.010224	0.010907	-0.007644	18.063782	-76.189402	41.106596
62151	9.463998	0.716826	2.242641	-0.018705	0.012162	-0.009200	18.070491	-76.180297	41.094152
62152	9.456135	0.700367	2.227940	-0.011016	0.008343	-0.009827	18.085269	-76.173059	41.077701
62153	9.448697	0.687030	2.246849	-0.001338	-0.003011	-0.007109	18.108241	-76.172588	41.058755
62154	9.478543	0.749914	2.240558	0.000102	-0.010239	-0.010766	18.144900	-76.175283	41.026543
62155	9.463654	0.719706	2.243168	-0.008249	0.004882	-0.008455	18.161165	-76.170269	41.010427
62156	9.463225	0.717186	2.209394	-0.012909	0.006598	-0.007115	18.170056	-76.164450	40.998572
62157	9.470581	0.734682	2.225888	-0.007722	0.006843	-0.007691	18.183490	-76.158503	40.985682
62158	9.484866	0.707629	2.211537	-0.007713	0.006086	-0.005611	18.192421	-76.153235	40.977665
62159	9.470248	0.735496	2.227036	-0.008497	0.002766	-0.005717	18.203992	-76.149860	40.966235
62160	9.462810	0.721804	2.246057	-0.007971	0.004727	-0.004953	18.212295	-76.145448	40.958661
62161	9.469881	0.736164	2.228373	-0.011338	0.013237	-0.006902	18.217238	-76.136161	40.952381
62162	9.432867	0.718687	2.266236	-0.013813	0.015026	-0.000610	18.205140	-76.126924	40.962303
62163	9.461964	0.722123	2.249515	-0.012630	0.006441	-0.003613	18.207018	-76.121925	40.958417
62164	9.476505	0.697714	2.269579	-0.005534	0.006919	-0.002739	18.210239	-76.116724	40.957494
62165	9.454080	0.705319	2.235085	-0.010987	0.006070	-0.003585	18.213262	-76.111932	40.953398
62166	9.461504	0.722455	2.251340	-0.008486	0.002009	-0.003638	18.220312	-76.109228	40.946647
62167	9.461650	0.725591	2.285988	-0.008486	0.002009	-0.003638	18.227820	-76.106637	40.939408
62168	9.461223	0.719679	2.217145	-0.006237	-0.004169	-0.000954	18.234726	-76.107787	40.934024
62169	9.498135	0.740328	2.215035	-0.005201	0.001268	-0.003583	18.244529	-76.105608	40.926358
62170	9.498221	0.743306	2.249987	-0.009928	0.009234	0.000025	18.237450	-76.099635	40.933152
62171	9.483114	0.711921	2.253921	-0.017613	0.013047	0.000655	18.222293	-76.091805	40.943874
62172	9.445978	0.690948	2.257055	-0.013470	0.008615	0.000629	18.212332	-76.086282	40.951800
62173	9.468234	0.738630	2.270798	-0.007419	0.004414	0.002052	18.206206	-76.083401	40.959236
62174	9.438618	0.731808	2.254499	-0.008469	0.000493	0.000521	18.205213	-76.082278	40.960607
62175	9.475118	0.693524	2.240486	-0.012870	0.003565	0.001205	18.198440	-76.079707	40.965492
62176	9.467849	0.734599	2.237507	-0.013986	0.005896	0.001944	18.187251	-76.075892	40.973751
62177	9.460418	0.720123	2.256647	-0.007418	0.004414	0.002052	18.181135	-76.073010	40.981178
62178	9.460206	0.716985	2.222351	-0.011427	-0.003658	-0.002461	18.188004	-76.073616	40.973205
62179	9.467773	0.733651	2.238141	-0.011479	0.001076	0.003968	18.177763	-76.072893	40.982485
62180	9.460337	0.719040	2.257331	-0.009391	0.010434	0.002875	18.163923	-76.066769	40.996761
62181	9.445432	0.742989	2.239038	-0.020025	0.009338	0.002603	18.145844	-76.061303	41.009071
62182	9.452700	0.703707	2.277564	-0.013119	0.001446	0.003941	18.134002	-76.060270	41.018666
62183	9.460034	0.717216	2.259178	-0.004652	0.000952	0.003420	18.128975	-76.059515	41.026605
62184	9.467404	0.730875	2.240606	-0.008986	-0.002226	0.001833	18.126769	-76.060111	41.028869
62185	9.459854	0.713493	2.224973	-0.010699	0.005154	0.002000	18.118375	-76.056814	41.036706
62186	9.459777	0.713011	2.225453	-0.016408	0.002946	0.001809	18.108253	-76.054581	41.042570
62187	9.467238	0.729308	2.241819	-0.013708	0.005735	0.005449	18.090165	-76.051581	41.058618
62188	9.467147	0.728699	2.242400	-0.009056	0.004784	0.002028	18.082470	-76.048384	41.066473
62189	9.430274	0.710654	2.279522	-0.011294	0.010204	0.001431	18.071389	-76.042234	41.076728
62190	9.444854	0.738350	2.243009	-0.011742	0.000474	0.002545	18.064121	-76.041473	41.082836
62191	9.444917	0.685093	2.299328	-0.012786	-0.004205	0.003088	18.058860	-76.043466	41.086214
62192	9.481700	0.702375	2.262848	-0.005183	-0.000248	0.000575	18.060185	-76.042756	41.087350
62193	9.437646	0.722908	2.261429	-0.009567	0.001302	0.005419	18.047724	-76.042162	41.100046
62194	9.467039	0.725921	2.243758	-0.017455	-0.000972	0.000274	18.043184	-76.041789	41.099719
62195	9.459657	0.711368	2.262603	-0.008788	0.005382	0.003454	18.032567	-76.038623	41.110976
62196	9.430000	0.704443	2.246522	-0.009054	0.004783	0.002031	18.024899	-76.035433	41.119110
62197	9.466869	0.724493	2.244936	-0.009833	0.000702	0.003996	18.015839	-76.034912	41.128145
62198	9.444893	0.734404	2.244139	-0.008977	-0.002988	0.003909	18.009653	-76.036285	41.135215
62199	9.481718	0.698718	2.263905	-0.009236	-0.004348	0.004564	18.003286	-76.038616	41.141827
62200	9.467154	0.722436	2.244398	-0.011719	-0.001810	0.008781	17.983990	-76.040207	41.160253
62201	9.460044	0.710384	2.297384	-0.013379	0.000846	0.002520	17.976029	-76.039345	41.166062
62202	9.467251	0.720999	2.244450	-0.008709	-0.002389	0.005333	17.966411	-76.040652	41.175765
62203	9.467520	0.722985	2.278797	-0.011458	-0.000450	0.008127	17.948179	-76.041487	41.193292
62204	9.445420	0.729708	2.243452	-0.009228	-0.005110	0.006642	17.937335	-76.044494	41.204494
62205	9.467566	0.718291	2.243987	-0.009816	-0.000822	0.008154	17.920240	-76.045534	41.221817
62206	9.438286	0.713737	2.261671	-0.010342	-0.002780	0.007385	17.905468	-76.047404	41.236388
62207	9.460420	0.702216	2.262276	-0.011716	-0.001811	0.008783	17.886600	-76.049092	41.254417
62208	9.475409	0.732205	2.259589	-0.009815	-0.000822	0.008155	17.869043	-76.050020	41.272133
62209	9.468138	0.717301	2.278023	-0.010615	-0.002616	0.003884	17.862124	-76.051283	41.278500
62210	9.468175	0.716643	2.278077	-0.014749	0.001817	0.003921	17.849163	-76.050034	41.288401
62211	9.460621	0.699045	2.262415	-0.011468	0.001074	0.003973	17.838949	-76.049300	41.297659
62212	9.453299	0.684430	2.280949	-0.008980	-0.002225	0.001832	17.836741	-76.049886	41.300017
62213	9.438716	0.708708	2.261459	-0.009507	-0.004184	0.001063	17.837757	-76.051508	41.298862
62214	9.468417	0.714799	2.277650	-0.006486	-0.006287	0.001768	17.839980	-76.054302	41.297858
62215	9.460952	0.697549	2.261492	-0.010360	-0.000493	0.001153	17.837700	-76.053927	41.299596
62216	9.490329	0.700838	2.243798	-0.010100	0.000868	0.000499	17.835599	-76.052588	41.301472
62217	9.446205	0.721472	2.242812	-0.011800	0.007486	0.002758	17.823335	-76.048143	41.312646
62218	9.453641	0.737840	2.259378	-0.014226	0.004538	0.002616	17.811616	-76.045169	41.321390
62219	9.460666	0.695870	2.263206	-0.009313	0.004187	0.000616	17.807817	-76.042147	41.325311
62220	9.489904	0.699157	2.246116	-0.013446	0.008620	0.000656	17.797988	-76.036608	41.332842
62221	9.460357	0.695169	2.264714	-0.012065	0.006888	0.001335	17.789139	-76.032238	41.340343
62222	9.438176	0.705451	2.264728	-0.012338	0.007055	-0.002166	17.787251	-76.027057	41.340537
62223	9.467402	0.708842	2.247681	-0.010425	0.006516	0.001361	17.779553	-76.022894	41.347819
62224	9.459934	0.694327	2.266737	-0.012851	0.003568	0.001218	17.772413	-76.020200	41.353293
62225	9.445257	0.721494	2.282850	-0.012403	0.014064	-0.001955	17.765557	-76.011338	41.358540
62226	9.437287	0.701662	2.233602	-0.017514	0.006808	-0.001590	17.759637	-76.006394	41.360270
62227	9.437335	0.704442	2.268543	-0.004931	0.002643	-0.004232	17.770064	-76.003366	41.352117
62228	9.474213	0.725031	2.266906	-0.010363	0.000270	-0.000926	17.771361	-76.002105	41.350219
62229	9.474160	0.724934	2.267158	-0.011482	0.003364	-0.002257	17.773204	-75.999029	41.347045
62230	9.488670	0.700176	2.286998	-0.015613	0.007797	-0.002215	17.769027	-75.993436	41.347415
62231	9.473790	0.724651	2.268795	-0.012920	0.011341	-0.000645	17.760930	-75.986289	41.353636
62232	9.444159	0.720832	2.287595	-0.011807	0.009012	-0.001391	17.756280	-75.980176	41.356496
62233	9.458445	0.693304	2.273254	-0.013972	0.007425	-0.002189	17.753704	-75.974896	41.356406
62234	9.465781	0.710018	2.290069	-0.009901	0.009236	0.000060	17.746846	-75.968924	41.363288
62235	9.443540	0.720266	2.290328	-0.013179	0.009979	0.000008	17.738148	-75.962634	41.369977
62236	9.465020	0.704188	2.223246	-0.011810	0.009777	-0.003467	17.737526	-75.955745	41.369349
62237	9.442914	0.717416	2.257923	-0.015348	0.009158	-0.002866	17.734437	-75.949401	41.368975
62238	9.442859	0.720116	2.293180	-0.012595	0.006458	-0.003587	17.735915	-75.944296	41.364840
62239	9.486606	0.696350	2.260871	-0.010951	0.005321	-0.001485	17.735009	-75.940286	41.364814
62240	9.442376	0.717420	2.260168	-0.012073	0.009182	-0.004890	17.737732	-75.933469	41.359972
62241	9.471694	0.723654	2.277847	-0.016714	0.009357	0.000610	17.726152	-75.927623	41.367545
62242	9.471452	0.723236	2.278985	-0.014288	0.012305	0.000759	17.713158	-75.920098	41.378020
62243	9.441709	0.716630	2.263203	-0.010949	0.005321	-0.001484	17.712258	-75.916089	41.377987
62244	9.471134	0.722840	2.280431	-0.011209	0.003959	-0.000833	17.710284	-75.912830	41.378428
62245	9.434064	0.702034	2.282849	-0.013434	0.008615	0.000663	17.701005	-75.907398	41.385567
62246	9.455890	0.691134	2.284517	-0.015072	0.008985	0.000638	17.690160	-75.901657	41.393526
62247	9.448541	0.732374	2.282376	-0.012911	0.011338	-0.000637	17.682133	-75.894510	41.399683
62248	9.447947	0.673721	2.270488	-0.010682	0.005915	-0.000058	17.677455	-75.890333	41.403877
62249	9.448372	0.734618	2.318114	-0.015536	0.000787	-0.002435	17.679138	-75.888634	41.398471
62250	9.455262	0.687555	2.252489	-0.005437	-0.001612	0.001223	17.679870	-75.888785	41.399415
62251	9.433304	0.700516	2.286454	-0.014222	0.006063	-0.001535	17.676699	-75.884363	41.399790
62252	9.440632	0.717270	2.303222	-0.012062	0.008416	-0.002809	17.675471	-75.878330	41.399563
62253	9.469839	0.720899	2.286415	-0.010158	0.008639	-0.001357	17.672464	-75.872531	41.402170
62254	9.425738	0.744542	2.320051	-0.009571	0.004355	-0.002882	17.675595	-75.868694	41.397904
62255	9.462227	0.706524	2.305782	-0.010350	-0.000500	0.001144	17.673371	-75.868319	41.399591
62256	9.462289	0.706191	2.305630	-0.009499	-0.004189	0.001044	17.673964	-75.869844	41.398887
62257	9.469735	0.720119	2.287095	-0.008451	0.000492	0.000520	17.673494	-75.868820	41.399887
62258	9.469655	0.717356	2.252591	-0.011405	-0.003644	-0.002483	17.680288	-75.869431	41.392358
62259	9.469689	0.717028	2.252550	-0.011458	0.001059	0.003970	17.670223	-75.868698	41.401475
62260	9.469775	0.719229	2.287209	-0.009827	0.002225	-0.000155	17.668793	-75.866498	41.402571
62261	9.432753	0.698403	2.289372	-0.010413	0.006508	0.001372	17.661201	-75.862337	41.409757
62262	9.440134	0.714880	2.306004	-0.012576	0.004923	0.000570	17.654757	-75.858797	41.414087
62263	9.432584	0.697704	2.290280	-0.010348	-0.000500	0.001144	17.652535	-75.858423	41.415774
62264	9.454684	0.687041	2.290733	-0.005113	-0.006489	-0.001731	17.663258	-75.860716	41.407839
62265	9.469769	0.717827	2.287672	-0.006739	-0.008426	0.004469	17.661367	-75.865247	41.411316
62266	9.440307	0.711091	2.270787	-0.009300	0.004181	0.000623	17.657211	-75.862101	41.415896
62267	9.469920	0.719688	2.322158	-0.014148	-0.001715	0.000318	17.655441	-75.862246	41.414871
62268	9.418001	0.665286	2.291755	-0.007076	-0.000473	-0.000879	17.659024	-75.861394	41.412581
62269	9.440484	0.713079	2.305129	-0.004848	-0.005896	-0.000306	17.666820	-75.863713	41.407186
62270	9.470033	0.716758	2.286916	-0.006750	-0.006118	-0.001757	17.676383	-75.865792	41.398675
62271	9.448084	0.727107	2.285946	-0.010347	-0.000501	0.001146	17.674156	-75.865419	41.400367
62272	9.447661	0.668429	2.273240	-0.007662	0.003810	0.000651	17.671111	-75.862511	41.403899
62273	9.448124	0.729287	2.320805	-0.008978	-0.000695	-0.002329	17.677336	-75.861638	41.397684
62274	9.470054	0.716301	2.286972	-0.009768	-0.003244	-0.004532	17.689193	-75.861668	41.384849
62275	9.440687	0.712816	2.304376	-0.006493	-0.003985	-0.004482	17.703780	-75.862216	41.371479
62276	9.470107	0.716686	2.286633	-0.011991	0.001409	-0.003028	17.707877	-75.859959	41.365139
62277	9.426009	0.737676	2.285433	-0.010089	0.001631	-0.001577	17.710221	-75.857947	41.362269
62278	9.440506	0.710401	2.270174	-0.007604	-0.001659	-0.003730	17.720501	-75.857252	41.352956
62279	9.462607	0.700132	2.270489	-0.005640	-0.007675	-0.004586	17.738353	-75.859793	41.336721
62280	9.448160	0.727613	2.285472	-0.008976	-0.000696	-0.002328	17.744118	-75.858828	41.330387
62281	9.470220	0.717051	2.286051	-0.009497	-0.003422	-0.001031	17.749117	-75.859669	41.325129
62282	9.477626	0.731284	2.267592	-0.008715	0.000668	-0.002976	17.755497	-75.857829	41.318684
62283	9.448204	0.727579	2.285301	-0.003799	-0.001215	-0.000827	17.761789	-75.857500	41.315460
62284	9.462731	0.700315	2.269916	-0.010877	-0.000918	-0.003779	17.769778	-75.856379	41.306486
62285	9.440662	0.710936	2.269358	-0.010092	0.002401	-0.003649	17.776063	-75.853584	41.299550
62286	9.448109	0.727838	2.285613	-0.008715	0.000667	-0.002976	17.782447	-75.851759	41.293288
62287	9.448067	0.727903	2.285763	-0.010351	0.001038	-0.003001	17.788122	-75.849821	41.286828
62288	9.448026	0.727967	2.285913	-0.008714	0.000667	-0.002976	17.794493	-75.847989	41.280308
62289	9.440486	0.711075	2.270049	-0.006284	0.002073	0.001328	17.792412	-75.846243	41.284250
62290	9.440440	0.710947	2.270278	-0.011988	0.001408	-0.003025	17.796520	-75.844002	41.278799
62291	9.447912	0.727805	2.286434	-0.010875	-0.000918	-0.003779	17.804929	-75.842994	41.269209
62292	9.455413	0.744614	2.302487	-0.007072	-0.000474	-0.000877	17.808488	-75.842142	41.266487
62293	9.440384	0.710929	2.270519	-0.011723	0.002000	-0.001598	17.809668	-75.839924	41.263852
62294	9.440507	0.713393	2.304935	-0.009758	-0.004015	-0.002458	17.817564	-75.840723	41.255022
62295	9.447915	0.727666	2.286470	-0.006812	0.000889	-0.001524	17.822168	-75.839124	41.251757
62296	9.455399	0.744457	2.302596	-0.008973	-0.000696	-0.002327	17.827954	-75.838165	41.246380
62297	9.447889	0.727647	2.286583	-0.012246	0.000044	-0.002376	17.831871	-75.836877	41.240613
62298	9.484419	0.689869	2.272009	-0.008712	0.000668	-0.002975	17.838249	-75.835050	41.234596
62299	9.447812	0.727578	2.286920	-0.011457	0.002591	-0.000170	17.836079	-75.832760	41.235574
62300	9.440202	0.710603	2.271375	-0.008775	0.006903	-0.000661	17.833090	-75.827937	41.239276
62301	9.477120	0.733491	2.304699	-0.009820	0.002221	-0.000146	17.832063	-75.825853	41.240041
62302	9.447600	0.727197	2.287920	-0.004586	-0.003761	-0.003034	17.844013	-75.826433	41.230915
62303	9.454883	0.743788	2.304933	-0.017087	0.021997	0.001773	17.820947	-75.813899	41.250117
62304	9.417708	0.722996	2.307673	-0.007074	0.000298	-0.002951	17.828455	-75.812254	41.243826
62305	9.439832	0.709954	2.273116	-0.007717	-0.018582	0.000582	17.841508	-75.821644	41.231312
62306	9.462273	0.701807	2.307036	-0.005366	-0.007853	-0.001093	17.851656	-75.824792	41.223298
62307	9.476964	0.730292	2.270675	-0.010477	0.014281	-0.000441	17.842506	-75.816079	41.232053
62308	9.440091	0.714460	2.341957	-0.013615	0.001005	-0.000973	17.841521	-75.814425	41.231019
62309	9.469487	0.715632	2.289525	-0.005626	-0.009217	-0.000448	17.851494	-75.818526	41.222917
62310	9.462057	0.698830	2.273180	-0.008185	0.002623	-0.002193	17.855099	-75.815755	41.219508
62311	9.425384	0.736473	2.288396	-0.012306	0.006279	-0.000058	17.849637	-75.811473	41.223379
62312	9.454937	0.742540	2.305112	-0.007262	-0.008847	-0.000473	17.858069	-75.815285	41.216717
62313	9.455057	0.742405	2.304661	-0.007329	-0.001839	-0.000229	17.861468	-75.815401	41.214389
62314	9.455065	0.742278	2.304672	-0.004909	0.001110	-0.000072	17.863423	-75.813844	41.214509
62315	9.410629	0.704779	2.290336	-0.013613	0.001005	-0.000971	17.862844	-75.812278	41.212571
62316	9.484674	0.748139	2.321229	-0.003985	-0.010361	0.001647	17.869622	-75.817272	41.209132
62317	9.440310	0.708110	2.271707	-0.009225	-0.002834	0.000394	17.871283	-75.818039	41.207477
62318	9.447856	0.724591	2.287688	-0.008700	-0.000879	0.001175	17.869744	-75.817763	41.208560
62319	9.425915	0.734765	2.286758	-0.008109	-0.005932	0.001710	17.871360	-75.820452	41.207612
62320	9.440623	0.707076	2.270727	-0.010264	-0.008291	0.002979	17.870225	-75.824547	41.208548
62321	9.470422	0.715351	2.321451	-0.005688	-0.002983	0.001868	17.870834	-75.825655	41.210069
62322	9.448362	0.723044	2.286089	-0.009220	-0.003608	0.002468	17.868139	-75.827085	41.213291
62323	9.426445	0.733268	2.285053	-0.006476	-0.005528	-0.000339	17.874835	-75.829192	41.208067
62324	9.441231	0.708210	2.303568	-0.008107	-0.005932	0.001711	17.876044	-75.831780	41.208137
62325	9.441371	0.707931	2.303082	-0.004576	-0.005308	0.001111	17.880545	-75.834023	41.206300
62326	9.441351	0.705442	2.268205	-0.006480	-0.004753	-0.002412	17.890745	-75.835234	41.197241
62327	9.470959	0.711735	2.284647	-0.005956	-0.002799	-0.001631	17.898632	-75.835625	41.191096
62328	9.448963	0.722226	2.283862	-0.005432	-0.000845	-0.000850	17.903321	-75.834978	41.187992
62329	9.449120	0.724769	2.318162	-0.011656	-0.003459	-0.005981	17.917799	-75.834962	41.171681
62330	9.449055	0.722561	2.283374	-0.004844	-0.005123	-0.002389	17.929167	-75.836406	41.162825
62331	9.449024	0.720523	2.248376	-0.005901	-0.007482	-0.008097	17.954331	-75.838208	41.138895
62332	9.471433	0.715479	2.317285	-0.002105	-0.006268	-0.007270	17.978622	-75.839391	41.118503
62333	9.419785	0.717895	2.265009	-0.004853	-0.003574	-0.006535	17.998279	-75.839334	41.100871
62334	9.449582	0.727131	2.315539	-0.005048	-0.011171	-0.008209	18.026319	-75.842995	41.073597
62335	9.449658	0.725434	2.279964	-0.003935	-0.013496	-0.008968	18.058747	-75.847908	41.043338
62336	9.479389	0.732479	2.295675	-0.002893	-0.008812	-0.009478	18.089134	-75.850084	41.014837
62337	9.464737	0.758080	2.276334	-0.004075	0.000520	-0.008471	18.110540	-75.847445	40.995862
62338	9.427854	0.738026	2.277695	-0.005370	-0.006304	-0.005242	18.128620	-75.848991	40.979581
62339	9.457482	0.744733	2.293938	-0.007011	-0.005159	-0.007337	18.149907	-75.849643	40.958994
62340	9.450028	0.728463	2.277466	-0.002952	-0.003354	-0.005084	18.166950	-75.849599	40.945330
62341	9.450086	0.728908	2.277080	-0.003475	-0.005308	-0.005865	18.187194	-75.850592	40.927908
62342	9.450237	0.729313	2.276323	-0.004774	-0.011358	-0.004709	18.208064	-75.854988	40.908944
62343	9.457963	0.746309	2.291441	-0.006145	-0.010399	-0.003304	18.224876	-75.859207	40.893484
62344	9.450675	0.729711	2.274377	-0.002609	-0.010548	-0.001833	18.240240	-75.863663	40.882223
62345	9.458210	0.744156	2.255196	-0.007257	-0.008076	-0.002544	18.253135	-75.866753	40.870145
62346	9.465923	0.760858	2.270469	-0.005874	-0.010585	0.000196	18.262229	-75.871588	40.861604
62347	9.451302	0.729602	2.271808	-0.003715	-0.009000	0.000999	18.270166	-75.875815	40.856733
62348	9.458830	0.743810	2.252712	-0.003456	-0.007635	0.000353	18.278250	-75.879086	40.851931
62349	9.451663	0.729310	2.270399	-0.006728	-0.006897	0.000310	18.284453	-75.882045	40.847068
62350	9.437129	0.753867	2.250817	-0.006721	-0.007673	0.002383	18.286286	-75.885671	40.846291
62351	9.459373	0.743060	2.250677	-0.001813	-0.008780	0.002447	18.292032	-75.890039	40.844803
62352	9.452115	0.725983	2.233581	-0.006124	-0.012727	0.002915	18.296702	-75.896519	40.842202
62353	9.452552	0.727948	2.267131	-0.008356	-0.007304	0.002363	18.297829	-75.900068	40.841612
62354	9.482310	0.733769	2.283163	-0.003184	-0.007822	0.003853	18.298600	-75.904058	40.843297
62355	9.438242	0.751781	2.246846	-0.008083	-0.007491	0.005862	18.292434	-75.908338	40.850388
62356	9.460655	0.742977	2.281387	-0.009203	-0.004391	0.004551	18.285837	-75.910598	40.857853
62357	9.453215	0.725466	2.265160	-0.009527	0.000476	0.007519	18.269540	-75.910842	40.874534
62358	9.453291	0.724623	2.265113	-0.005143	-0.002586	0.006800	18.259057	-75.912481	40.887415
62359	9.446518	0.767635	2.296227	-0.006433	-0.009413	0.010028	18.246159	-75.918554	40.902420
62360	9.468290	0.695464	2.248121	-0.008856	-0.011587	0.007799	18.237831	-75.925306	40.911387
62361	9.461396	0.736045	2.244469	-0.007809	-0.007679	0.009363	18.224327	-75.930314	40.926203
62362	9.432096	0.728800	2.226949	-0.001525	-0.010523	0.010090	18.214444	-75.936887	40.941175
62363	9.462233	0.736410	2.276969	-0.005842	-0.013691	0.008486	18.208249	-75.945009	40.949618
62364	9.447740	0.704476	2.277885	-0.004472	-0.014650	0.007080	18.206141	-75.953307	40.954264
62365	9.426038	0.714310	2.276154	-0.003698	-0.010554	0.005144	18.206190	-75.959123	40.957535
62366	9.455732	0.717665	2.257128	-0.001732	-0.016567	0.004267	18.213154	-75.967930	40.954972
62367	9.456158	0.717382	2.255429	-0.002787	-0.019698	0.000632	18.230114	-75.977914	40.941351
62368	9.456569	0.717374	2.253711	-0.004173	-0.017185	-0.002106	18.250044	-75.985940	40.924103
62369	9.427591	0.713853	2.269859	0.005889	-0.017262	-0.004706	18.281909	-75.993639	40.900244
62370	9.457517	0.720510	2.285011	0.003409	-0.013980	-0.002537	18.304870	-75.999838	40.884730
62371	9.413995	0.741890	2.281555	0.005267	-0.035377	-0.003271	18.346406	-76.017641	40.850539
62372	9.444190	0.746163	2.260028	0.008883	-0.042538	-0.002055	18.392216	-76.039440	40.813824
62373	9.444984	0.690705	2.277176	0.002067	-0.040871	-0.005627	18.441294	-76.059791	40.769979
62374	9.446129	0.747425	2.251495	0.012551	-0.054378	-0.007305	18.509671	-76.087066	40.712360
62375	9.469350	0.737866	2.246709	0.012303	-0.055745	-0.006655	18.578171	-76.115286	40.654558
62376	9.477681	0.753133	2.223506	0.007835	-0.044897	-0.007750	18.638297	-76.137307	40.603080
62377	9.404770	0.713125	2.222997	0.008325	-0.040614	-0.013187	18.708090	-76.156083	40.541612
62378	9.391733	0.744215	2.268268	0.012621	-0.059064	-0.013759	18.795198	-76.184648	40.465443
62379	9.414827	0.733137	2.227671	0.003624	-0.080606	-0.020277	18.908602	-76.223751	40.356309
62380	9.409201	0.720965	2.238667	0.004386	-0.075736	-0.024285	19.027782	-76.259312	40.241554
62381	9.410452	0.721263	2.196167	0.017129	-0.093893	-0.027491	19.176451	-76.304141	40.104121
62382	9.435290	0.774652	2.235132	0.010391	-0.098470	-0.033353	19.338354	-76.350151	39.948979
62383	9.458802	0.765565	2.191394	0.008027	-0.105336	-0.042016	19.525186	-76.398207	39.766965
62384	9.497600	0.790334	2.179453	-0.002036	-0.103722	-0.043506	19.709154	-76.444870	39.582874
62385	9.528350	0.739832	2.138047	-0.002736	-0.108602	-0.039471	19.889328	-76.494904	39.401438
62386	9.602641	0.780144	2.055138	0.003393	-0.097420	-0.038282	20.062054	-76.538946	39.231521
62387	9.560357	0.806912	2.081955	-0.000558	-0.048376	-0.034552	20.185026	-76.557308	39.110245
62388	9.510397	0.818518	2.130609	-0.025006	-0.029807	-0.028661	20.265135	-76.566714	39.018275
62389	9.489132	0.774844	2.148659	-0.030608	-0.034358	-0.022594	20.332764	-76.579833	38.936208
62390	9.489194	0.774124	2.110298	-0.021080	-0.052542	-0.023785	20.423484	-76.602353	38.836141
62391	9.570202	0.773469	2.070140	-0.029748	-0.037276	-0.024772	20.499349	-76.616549	38.746126
62392	9.490285	0.777535	2.104128	-0.023609	-0.011466	-0.021697	20.549660	-76.617388	38.685932
62393	9.462069	0.777459	2.155535	-0.018065	-0.017621	-0.021137	20.607574	-76.621730	38.621253
62394	9.499271	0.799906	2.150848	-0.021272	-0.038519	-0.023302	20.685923	-76.636734	38.534144
62395	9.492104	0.784656	2.131903	-0.032299	-0.027768	-0.020268	20.742530	-76.646655	38.462432
62396	9.528533	0.804460	2.092922	-0.032320	-0.026992	-0.022337	20.802749	-76.655632	38.386475
62397	9.551001	0.795428	2.090937	-0.022555	-0.023727	-0.017902	20.856306	-76.663838	38.323641
62398	9.521405	0.790264	2.073297	-0.013812	-0.008981	-0.015176	20.895612	-76.664596	38.280858
62399	9.500830	0.806236	2.141578	-0.017176	-0.002017	-0.012873	20.922236	-76.662189	38.248872
62400	9.464919	0.788324	2.177673	-0.013702	-0.012096	-0.006890	20.945583	-76.666299	38.222310
62401	9.500484	0.804910	2.104888	-0.020528	-0.026620	-0.008184	20.980997	-76.678010	38.179317
62402	9.529985	0.809084	2.084511	-0.022471	-0.022168	-0.003152	20.999636	-76.688276	38.151616
62403	9.508743	0.763207	2.103943	-0.017769	-0.010015	-0.000565	21.005083	-76.692663	38.141046
62404	9.523516	0.794095	2.101048	-0.000216	-0.002147	0.002719	21.005889	-76.693419	38.146258
62405	9.480051	0.816825	2.135426	-0.008548	0.007469	0.000865	20.998208	-76.688747	38.154607
62406	9.465436	0.785435	2.137785	-0.012614	-0.009741	-0.001195	21.007356	-76.692771	38.143864
62407	9.472640	0.799632	2.118231	-0.024711	-0.017526	-0.001613	21.017731	-76.700960	38.124143
62408	9.494129	0.786822	2.083229	-0.025004	-0.001940	-0.005255	21.022172	-76.699963	38.110309
62409	9.516274	0.776506	2.083198	-0.015426	-0.005496	-0.004573	21.034114	-76.701108	38.094445
62410	9.472970	0.799685	2.116735	-0.018363	-0.009632	-0.007553	21.054267	-76.703754	38.068713
62411	9.518096	0.781308	2.150943	-0.022214	-0.005407	-0.003946	21.060832	-76.704979	38.054377
62412	9.444236	0.795558	2.133701	-0.022335	-0.013789	-0.003551	21.073296	-76.710665	38.034491
62413	9.473486	0.799743	2.114401	-0.022390	-0.012228	-0.007691	21.094202	-76.714762	38.005317
62414	9.481433	0.816805	2.129291	-0.025325	-0.016363	-0.010672	21.123353	-76.720368	37.966150
62415	9.496108	0.790244	2.111914	-0.031261	-0.019183	-0.012238	21.155607	-76.727236	37.920096
62416	9.488684	0.774108	2.094319	-0.029378	-0.018179	-0.012879	21.189078	-76.733336	37.873731
62417	9.497474	0.793901	2.143398	-0.026190	-0.016561	-0.019079	21.237510	-76.737372	37.814042
62418	9.525836	0.797081	2.089367	-0.027552	-0.015611	-0.017658	21.280664	-76.741090	37.758854
62419	9.503855	0.808395	2.088270	-0.033067	-0.010246	-0.016118	21.312922	-76.742351	37.711736
62420	9.489437	0.836500	2.103891	-0.022919	-0.001892	-0.019197	21.350113	-76.738416	37.665536
62421	9.445824	0.802155	2.124179	-0.030911	-0.008656	-0.015334	21.380421	-76.738980	37.621690
62422	9.431621	0.829796	2.139022	-0.047766	-0.022378	-0.016020	21.414351	-76.746622	37.564357
62423	9.498382	0.799447	2.137303	-0.061800	-0.028833	-0.021997	21.460044	-76.756538	37.486525
62424	9.482533	0.764828	2.068362	-0.065572	-0.030065	-0.022775	21.506063	-76.766850	37.406017
62425	9.490502	0.782742	2.082839	-0.052349	-0.013845	-0.029716	21.561423	-76.767125	37.323823
62426	9.527258	0.805548	2.079615	-0.044434	-0.016242	-0.031126	21.626206	-76.768268	37.236845
62427	9.519383	0.791170	2.063380	-0.055752	0.005416	-0.038087	21.681229	-76.756477	37.152991
62428	9.546991	0.796195	2.011821	-0.048003	0.010822	-0.041296	21.742472	-76.741017	37.067393
62429	9.496014	0.807220	2.066771	-0.038861	0.029108	-0.041887	21.794088	-76.715774	36.996973
62430	9.466069	0.806222	2.088193	-0.038912	0.030680	-0.046017	21.852836	-76.688705	36.919230
