// General information: 
//  MT Manager version: 2022.2.0 
//  XDA version: 2022.2.0 build 7381 rev 124627 built on 2023-07-19
// Device information: 
//  DeviceId: 00B4BB4F
//  ProductCode: MTW2-3A7G6
//  Firmware Version: 4.6.0
//  Hardware Version: 2.0.0
// Device settings: 
//  Filter Profile: human(46.1)
//  Option Flags: Orientation Smoother Disabled, Position/Velocity Smoother Disabled, Continuous Zero Rotation Update Disabled, AHS Disabled, ICC Disabled
// Coordinate system: ENU
PacketCounter	Acc_X	Acc_Y	Acc_Z	Gyr_X	Gyr_Y	Gyr_Z	Roll	Pitch	Yaw
31594	9.144655	-2.760668	1.769407	-0.008415	-0.007777	-0.017899	-57.114903	-70.346052	-8.534726
31595	9.205392	-2.764857	1.726491	-0.011714	-0.017169	-0.011197	-57.134323	-70.357543	-8.520896
31596	9.168828	-2.750649	1.769561	-0.013828	-0.015265	-0.016811	-57.148182	-70.371274	-8.515112
31597	9.203669	-2.763358	1.746761	-0.012491	-0.021575	-0.020942	-57.165540	-70.388823	-8.503946
31598	9.193473	-2.739639	1.768752	-0.011973	-0.018202	-0.020677	-57.178593	-70.405238	-8.496971
31599	9.208628	-2.759058	1.718495	-0.012585	-0.016155	-0.016802	-57.192327	-70.419108	-8.489711
31600	9.232239	-2.749797	1.720244	-0.008574	-0.013278	-0.018278	-57.198981	-70.432869	-8.487980
31601	9.172783	-2.743223	1.760570	-0.012038	-0.007321	-0.014274	-57.202658	-70.442779	-8.491063
31602	9.204197	-2.757151	1.762759	-0.005205	-0.013814	-0.018143	-57.208034	-70.456629	-8.489216
31603	9.188380	-2.761529	1.709637	-0.012679	-0.010737	-0.012660	-57.218126	-70.466822	-8.485881
31604	9.203924	-2.729518	1.711602	-0.007577	-0.014251	-0.014530	-57.228852	-70.479058	-8.478594
31605	9.217235	-2.775437	1.734349	-0.007695	-0.012035	-0.018138	-57.233073	-70.492293	-8.478459
31606	9.187173	-2.758645	1.729558	-0.007331	-0.014165	-0.018267	-57.240394	-70.506305	-8.473910
31607	9.186342	-2.731869	1.679775	-0.006574	-0.012966	-0.016265	-57.246890	-70.518926	-8.470679
31608	9.177404	-2.733840	1.751058	-0.008184	-0.009947	-0.016132	-57.250613	-70.530570	-8.470631
31609	9.181296	-2.731251	1.725489	-0.003596	-0.016831	-0.018263	-57.258932	-70.545351	-8.463658
31610	9.209604	-2.746348	1.751343	-0.007457	-0.016467	-0.010910	-57.276064	-70.556540	-8.448524
31611	9.193801	-2.750733	1.697858	-0.004477	-0.018072	-0.018389	-57.286502	-70.571766	-8.439840
31612	9.211152	-2.743515	1.747641	-0.009607	-0.020022	-0.018773	-57.302463	-70.587812	-8.428481
31613	9.210411	-2.716525	1.697317	-0.006481	-0.018382	-0.020383	-57.312757	-70.604094	-8.421169
31614	9.185151	-2.723872	1.716616	-0.006820	-0.010792	-0.017990	-57.315201	-70.616870	-8.421115
31615	9.166141	-2.729159	1.687711	-0.006211	-0.015095	-0.016379	-57.324375	-70.630203	-8.414827
31616	9.209374	-2.713221	1.717068	-0.007578	-0.014251	-0.014507	-57.335264	-70.642426	-8.407289
31617	9.183979	-2.721019	1.736496	-0.004574	-0.012654	-0.014249	-57.342044	-70.653976	-8.402547
31618	9.187775	-2.718874	1.710482	-0.003985	-0.024678	-0.009420	-57.369583	-70.666981	-8.376530
31619	9.222327	-2.732161	1.687730	-0.003693	-0.013672	-0.008640	-57.382225	-70.676137	-8.365040
31620	9.219651	-2.732561	1.710553	-0.003693	-0.013672	-0.008639	-57.395330	-70.685352	-8.352765
31621	9.205207	-2.762872	1.705848	-0.001689	-0.013360	-0.006642	-57.408177	-70.693446	-8.339843
31622	9.196009	-2.713698	1.656169	-0.003206	-0.015758	-0.010636	-57.422241	-70.704297	-8.326871
31623	9.248844	-2.746533	1.733749	-0.003206	-0.015758	-0.010634	-57.435772	-70.715057	-8.314146
31624	9.224850	-2.727957	1.680724	0.002164	-0.013717	-0.013991	-57.440645	-70.726854	-8.308329
31625	9.220497	-2.702635	1.655612	-0.001302	-0.007770	-0.009988	-57.442642	-70.734837	-8.306670
31626	9.191779	-2.711919	1.699979	-0.000423	-0.006527	-0.009860	-57.442880	-70.742432	-8.306624
31627	9.215109	-2.703020	1.702324	-0.003452	-0.013584	-0.012369	-57.452052	-70.753358	-8.298670
31628	9.200736	-2.733181	1.697592	-0.003812	-0.013716	-0.006761	-57.466750	-70.761650	-8.285612
31629	9.246974	-2.716528	1.702706	-0.003964	-0.016957	-0.012624	-57.480682	-70.773737	-8.272927
31630	9.205000	-2.730050	1.670338	-0.005458	-0.013896	-0.014359	-57.489868	-70.785728	-8.266017
31631	9.251316	-2.712899	1.675765	-0.003949	-0.009236	-0.015841	-57.490266	-70.796991	-8.267657
31632	9.191933	-2.706852	1.716436	-0.008189	-0.012211	-0.010614	-57.502305	-70.806730	-8.260340
31633	9.226446	-2.719628	1.694453	-0.000827	-0.007592	-0.017456	-57.497207	-70.818267	-8.265906
31634	9.235063	-2.741251	1.693398	-0.001208	-0.013183	-0.014105	-57.503463	-70.829928	-8.258373
31635	9.230773	-2.715659	1.668077	0.001036	-0.012781	-0.015847	-57.505935	-70.842286	-8.254794
31636	9.228322	-2.715171	1.691378	0.001415	-0.007190	-0.019196	-57.497810	-70.854552	-8.260721
31637	9.224047	-2.689147	1.666586	0.003908	-0.008963	-0.019200	-57.490342	-70.867353	-8.265921
31638	9.224613	-2.687321	1.666397	0.007561	0.001514	-0.018306	-57.467158	-70.876494	-8.284712
31639	9.210166	-2.716737	1.663557	0.001968	0.007099	-0.014430	-57.442636	-70.882040	-8.309138
31640	9.199310	-2.693524	1.688447	0.005590	0.004398	-0.012569	-57.421670	-70.887514	-8.326499
31641	9.230352	-2.707675	1.692319	0.000246	0.007809	-0.006956	-57.403779	-70.889227	-8.344950
31642	9.196539	-2.692844	1.713797	0.007087	0.001339	-0.010832	-57.388054	-70.894825	-8.354677
31643	9.238768	-2.728841	1.693230	0.004105	0.005195	-0.008830	-57.369911	-70.898246	-8.371054
31644	9.226025	-2.680506	1.669553	0.006329	0.000139	-0.012825	-57.354267	-70.905140	-8.381404
31645	9.262227	-2.718395	1.697153	0.008572	0.000541	-0.014567	-57.334910	-70.912764	-8.396356
31646	9.234768	-2.700516	1.670546	0.012457	0.011108	-0.017408	-57.296353	-70.918545	-8.429957
31647	9.239999	-2.722862	1.696135	0.016706	0.011826	-0.017157	-57.254254	-70.923916	-8.464041
31648	9.227311	-2.673504	1.673669	0.017940	0.013201	-0.022628	-57.204933	-70.931487	-8.503375
31649	9.205174	-2.627573	1.724375	0.019980	0.024436	-0.016130	-57.144269	-70.932428	-8.555114
31650	9.190495	-2.656864	1.723226	0.014092	0.013553	-0.015278	-57.103351	-70.936355	-8.588090
31651	9.224588	-2.669412	1.704018	0.013363	0.015552	-0.009548	-57.064756	-70.936869	-8.620489
31652	9.198591	-2.677528	1.726729	0.010748	0.017279	-0.007677	-57.027165	-70.935950	-8.652791
31653	9.227572	-2.666469	1.683426	0.012246	0.014222	-0.005938	-56.994318	-70.935130	-8.679786
31654	9.229289	-2.691007	1.733537	0.010628	0.017236	-0.005808	-56.958678	-70.933358	-8.711285
31655	9.250085	-2.657113	1.690605	0.011889	0.021812	-0.003557	-56.917654	-70.929011	-8.747148
31656	9.205932	-2.697876	1.734789	0.009023	0.025711	-0.003425	-56.873346	-70.923386	-8.786990
31657	9.226713	-2.663999	1.692019	0.014000	0.016712	-0.005675	-56.836305	-70.921636	-8.817362
31658	9.220150	-2.665659	1.742739	0.013149	0.026389	-0.001299	-56.790660	-70.914757	-8.856134
31659	9.256994	-2.678124	1.700169	0.012139	0.019641	-0.001809	-56.754158	-70.910221	-8.887065
31660	9.199716	-2.671920	1.720264	0.014780	0.028837	0.000829	-56.706196	-70.901535	-8.927216
31661	9.236751	-2.632559	1.730239	0.011784	0.034950	-0.002644	-56.648025	-70.892563	-8.981296
31662	9.218341	-2.664308	1.754338	0.012777	0.028520	-0.001158	-56.599989	-70.884956	-9.024255
31663	9.243877	-2.655051	1.736179	0.010275	0.022572	0.002062	-56.564131	-70.877610	-9.055640
31664	9.248403	-2.679086	1.762494	0.010264	0.017110	-0.000188	-56.533897	-70.873058	-9.081061
31665	9.231633	-2.684730	1.712785	0.010769	0.020484	0.000071	-56.498861	-70.867311	-9.111279
31666	9.220024	-2.662521	1.739138	0.009643	0.021411	-0.001794	-56.461857	-70.862199	-9.143812
31667	9.261908	-2.699054	1.720643	0.014385	0.020044	-0.003524	-56.422112	-70.858296	-9.176823
31668	9.230755	-2.683282	1.719773	0.016887	0.025991	-0.006736	-56.370275	-70.854115	-9.221922
31669	9.216067	-2.661297	1.770776	0.016629	0.022699	-0.010722	-56.319045	-70.852783	-9.265732
31670	9.215737	-2.711951	1.721726	0.018752	0.023060	-0.010586	-56.266535	-70.851275	-9.309019
31671	9.261236	-2.694535	1.731308	0.019379	0.026476	-0.012190	-56.207217	-70.849413	-9.359723
31672	9.218823	-2.656100	1.755248	0.020385	0.033226	-0.011669	-56.139180	-70.845213	-9.418289
31673	9.223491	-2.678369	1.783255	0.027251	0.034472	-0.018724	-56.058422	-70.843863	-9.486916
31674	9.195701	-2.660152	1.759521	0.021383	0.036764	-0.018859	-55.978429	-70.841974	-9.560215
31675	9.226526	-2.672761	1.767036	0.023879	0.037247	-0.024312	-55.890671	-70.842320	-9.638299
31676	9.187514	-2.632230	1.767196	0.024748	0.030778	-0.020956	-55.814579	-70.843209	-9.705906
31677	9.241144	-2.636845	1.777967	0.021130	0.038935	-0.020575	-55.729557	-70.841168	-9.782761
31678	9.192223	-2.651539	1.799225	0.018757	0.035277	-0.024691	-55.647459	-70.842233	-9.856099
31679	9.180788	-2.627176	1.826881	0.020001	0.032146	-0.019213	-55.573610	-70.841675	-9.921811
31680	9.187318	-2.623095	1.781741	0.016377	0.027123	-0.017872	-55.510532	-70.842143	-9.976816
31681	9.195377	-2.644533	1.784581	0.013248	0.023227	-0.010809	-55.460531	-70.840465	-10.021378
31682	9.195441	-2.642920	1.786640	0.014379	0.013620	-0.018902	-55.415839	-70.845747	-10.057791
31683	9.198949	-2.640131	1.764056	0.007382	0.014581	-0.015460	-55.376575	-70.849053	-10.094542
31684	9.215316	-2.632370	1.817312	0.015876	0.010569	-0.017155	-55.336995	-70.854528	-10.124516
31685	9.218918	-2.629453	1.794430	0.008386	0.010400	-0.019437	-55.299063	-70.861055	-10.159247
31686	9.215910	-2.628673	1.819652	0.009756	0.007310	-0.015830	-55.268576	-70.866959	-10.183555
31687	9.234155	-2.594941	1.799534	0.005887	0.004452	-0.016233	-55.243121	-70.873907	-10.206592
31688	9.188874	-2.609713	1.793331	0.006130	0.007752	-0.012246	-55.217165	-70.877969	-10.230574
31689	9.208519	-2.601384	1.821764	0.005257	0.006505	-0.012378	-55.192893	-70.882425	-10.252742
31690	9.171402	-2.639425	1.815386	0.005385	-0.001169	-0.011026	-55.180879	-70.888897	-10.263130
31691	9.220480	-2.621214	1.798455	0.004129	0.005181	-0.008784	-55.162425	-70.892092	-10.279822
31692	9.243454	-2.612129	1.802277	0.002886	0.000596	-0.011038	-55.149213	-70.897910	-10.291570
31693	9.198181	-2.627432	1.795357	0.004257	-0.002493	-0.007432	-55.142369	-70.902980	-10.295896
31694	9.239077	-2.586395	1.777999	0.000260	0.002321	-0.009187	-55.130146	-70.907420	-10.309497
31695	9.218043	-2.618744	1.823161	0.000509	0.000154	-0.007451	-55.121830	-70.911631	-10.317652
31696	9.221504	-2.617128	1.799157	0.002127	0.002610	-0.005322	-55.112071	-70.914145	-10.324955
31697	9.221580	-2.616675	1.799425	0.003250	0.001689	-0.003453	-55.103881	-70.915973	-10.331316
31698	9.218336	-2.617224	1.823860	0.002127	0.002610	-0.005322	-55.093645	-70.918394	-10.339803
31699	9.216852	-2.591888	1.775558	-0.002372	0.001802	-0.001876	-55.090015	-70.919444	-10.344747
31700	9.221715	-2.615646	1.800229	0.003745	0.005066	-0.003194	-55.077561	-70.920067	-10.354037
31701	9.221668	-2.615393	1.800839	0.001119	0.006792	-0.001344	-55.065657	-70.919230	-10.365618
31702	9.195518	-2.624452	1.821959	-0.000377	0.002129	0.000126	-55.062917	-70.919300	-10.367217
31703	9.224840	-2.614354	1.777512	0.000991	0.006753	0.000519	-55.052907	-70.917600	-10.376873
31704	9.226289	-2.639203	1.826648	0.002496	0.005948	-0.003200	-55.039906	-70.918001	-10.390570
31705	9.221323	-2.615311	1.802723	-0.002009	0.002896	0.005707	-55.041777	-70.915130	-10.389473
31706	9.221134	-2.615616	1.803248	0.000614	0.008882	0.000645	-55.029739	-70.912807	-10.403497
31707	9.217636	-2.616799	1.828006	0.003612	0.002783	0.004131	-55.027048	-70.910712	-10.403819
31708	9.209613	-2.646087	1.776647	-0.000377	0.002129	0.000126	-55.023980	-70.910744	-10.406940
31709	9.217456	-2.617069	1.828527	0.000368	0.003338	0.002122	-55.020489	-70.909410	-10.410075
31710	9.197913	-2.624352	1.801225	0.003740	0.002822	0.002269	-55.016496	-70.908219	-10.409386
31711	9.212366	-2.593496	1.804812	-0.001882	0.002935	0.003845	-55.016478	-70.906209	-10.410211
31712	9.205754	-2.648182	1.801905	-0.002138	0.002858	0.007570	-55.020744	-70.902496	-10.404616
31713	9.212052	-2.594338	1.805203	0.001001	0.001286	-0.001729	-55.016022	-70.903645	-10.408671
31714	9.197404	-2.625629	1.801965	-0.000384	-0.000115	0.005588	-55.021228	-70.901901	-10.404160
31715	9.251050	-2.632657	1.808991	0.000377	-0.002129	-0.000127	-55.023015	-70.903419	-10.401706
31716	9.220085	-2.617840	1.805380	0.001618	0.002456	0.002129	-55.020317	-70.902371	-10.402028
31717	9.211813	-2.595003	1.805471	0.001618	0.002456	0.002129	-55.017316	-70.901324	-10.403889
31718	9.223241	-2.617168	1.781659	0.001994	0.000327	0.002003	-55.017057	-70.901067	-10.403238
31719	9.208356	-2.596230	1.829920	0.000873	0.001247	0.000133	-55.014227	-70.901354	-10.405368
31720	9.223114	-2.617500	1.781828	-0.000384	-0.000115	0.005588	-55.019805	-70.899649	-10.399280
31721	9.223014	-2.617723	1.782021	0.007240	0.002342	0.000554	-55.012242	-70.899379	-10.402558
31722	9.222876	-2.617885	1.782496	-0.001386	0.006312	0.004105	-55.008176	-70.896259	-10.408107
31723	9.242138	-2.611133	1.810450	0.001866	0.000289	0.003866	-55.009618	-70.895108	-10.405114
31724	9.222576	-2.618501	1.783141	0.002114	0.005833	0.002389	-55.002182	-70.892821	-10.409980
31725	9.227243	-2.642697	1.808036	-0.000008	0.005468	0.002249	-54.996148	-70.890727	-10.416036
31726	9.218970	-2.619791	1.808244	0.001746	0.002494	0.000267	-54.991936	-70.890670	-10.419459
31727	9.241649	-2.611773	1.812022	0.000368	0.003338	0.002123	-54.988453	-70.889336	-10.422587
31728	9.210635	-2.596966	1.808653	0.001746	0.002494	0.000267	-54.983886	-70.889184	-10.425419
31729	9.225399	-2.618066	1.760851	0.002491	0.003703	0.002263	-54.978826	-70.887663	-10.428928
31730	9.195884	-2.628151	1.806040	0.001874	0.002532	-0.001596	-54.972414	-70.888449	-10.436283
31731	9.221866	-2.619215	1.785766	0.003107	0.004874	0.006123	-54.969080	-70.884732	-10.437593
31732	9.237704	-2.613432	1.838277	0.003860	0.008327	0.002658	-54.957590	-70.881550	-10.447725
31733	9.190508	-2.604823	1.783566	0.004236	0.006198	0.002531	-54.948413	-70.879082	-10.454534
31734	9.221300	-2.619809	1.787814	0.001370	0.004624	0.000394	-54.941574	-70.878261	-10.461539
31735	9.248754	-2.635786	1.816160	0.003363	0.004951	0.002398	-54.934460	-70.876266	-10.466693
31736	9.221038	-2.619968	1.788934	0.004365	0.006236	0.000669	-54.924330	-70.874766	-10.472368
31737	9.217557	-2.621028	1.813645	0.002490	0.003704	0.002264	-54.919279	-70.873244	-10.475868
31738	9.212657	-2.597022	1.789770	0.003620	0.005026	-0.001327	-54.908757	-70.873021	-10.484101
31739	9.217364	-2.620924	1.814775	0.003115	0.007118	0.000662	-54.897213	-70.871124	-10.494095
31740	9.223962	-2.618886	1.767148	0.001122	0.006791	-0.001342	-54.885576	-70.870300	-10.505394
31741	9.236567	-2.613655	1.843662	0.002619	0.003741	0.000402	-54.878634	-70.869637	-10.510818
31742	9.217080	-2.620700	1.816541	0.001122	0.006791	-0.001342	-54.867408	-70.868868	-10.520420
31743	9.216992	-2.620610	1.817120	0.004741	0.004106	0.000544	-54.858894	-70.868018	-10.526221
31744	9.216841	-2.620860	1.817523	0.000110	0.003264	0.005849	-54.859809	-70.865075	-10.525419
31745	9.211895	-2.597043	1.793660	0.004494	0.006273	-0.001192	-54.846862	-70.864323	-10.536063
31746	9.193791	-2.629299	1.815000	0.001359	0.002381	0.005857	-54.848028	-70.861632	-10.534403
31747	9.247328	-2.636441	1.822463	0.001617	0.002457	0.002131	-54.845043	-70.860582	-10.536247
31748	9.211484	-2.597711	1.794802	0.003363	0.004951	0.002400	-54.838560	-70.858664	-10.539691
31749	9.167269	-2.639127	1.836569	0.000991	-0.000958	0.003734	-54.842065	-70.857990	-10.535044
31750	9.242191	-2.613029	1.799016	0.002243	0.005871	0.000529	-54.832893	-70.856622	-10.543516
31751	9.220807	-2.646079	1.844295	0.002498	-0.001765	0.000016	-54.833089	-70.857956	-10.541458
31752	9.188421	-2.606279	1.792170	0.000368	0.003339	0.002124	-54.830232	-70.856781	-10.546176
31753	9.242087	-2.613015	1.799569	-0.000991	0.000957	-0.003734	-54.825188	-70.858973	-10.551780
31754	9.215898	-2.622190	1.820387	0.001358	0.002382	0.005857	-54.826356	-70.856257	-10.549142
31755	9.233813	-2.590250	1.799603	0.002628	-0.001728	-0.001847	-54.824656	-70.858451	-10.549013
31756	9.193060	-2.630516	1.816940	-0.001508	0.000808	0.003718	-54.828053	-70.857346	-10.545521
31757	9.215738	-2.622674	1.820500	0.001993	0.000327	0.002005	-54.827608	-70.857058	-10.544449
31758	9.215666	-2.622820	1.820651	0.002866	0.001574	0.002140	-54.825509	-70.856313	-10.543088
31759	9.230152	-2.591940	1.824230	0.003610	0.002784	0.004137	-54.822850	-70.854216	-10.543378
31760	9.215446	-2.623194	1.821226	0.002995	0.001612	0.000277	-54.819239	-70.854381	-10.542165
31761	9.241551	-2.614195	1.800609	-0.001002	-0.001284	0.001729	-54.822421	-70.854755	-10.539069
31762	9.203873	-2.601384	1.845094	0.002369	-0.001802	0.001879	-54.824917	-70.855330	-10.535674
31763	9.204125	-2.653710	1.793636	-0.000129	-0.000037	0.001863	-54.826044	-70.855229	-10.534224
31764	9.207192	-2.600716	1.820753	0.001496	-0.003050	0.001745	-54.830283	-70.856184	-10.528673
31765	9.218672	-2.622996	1.796675	-0.000258	-0.000075	0.003726	-54.833306	-70.855223	-10.525294
31766	9.195580	-2.579145	1.844492	0.003618	-0.002685	0.001887	-54.836366	-70.856129	-10.521914
31767	9.223494	-2.647407	1.820231	-0.002247	-0.013581	0.002685	-54.857768	-70.860110	-10.500288
31768	9.272469	-2.630566	1.802193	-0.002878	-0.003815	0.003324	-54.867408	-70.860625	-10.491092
31769	9.184495	-2.610202	1.814921	0.001989	-0.007383	0.005219	-54.880430	-70.861373	-10.475767
31770	9.215380	-2.625585	1.818114	0.000365	-0.004371	0.005338	-54.890909	-70.861169	-10.464584
31771	9.215364	-2.625974	1.817631	0.000869	-0.006463	0.003349	-54.901556	-70.862488	-10.452452
31772	9.233358	-2.594212	1.796228	-0.001629	-0.004698	0.003333	-54.911738	-70.863302	-10.441617
31773	9.241434	-2.617746	1.796045	-0.002262	-0.002643	0.007186	-54.922660	-70.861563	-10.431093
31774	9.207003	-2.604483	1.816322	0.000734	-0.001032	0.007461	-54.930111	-70.859227	-10.424054
31775	9.241077	-2.619122	1.795873	0.000358	0.001098	0.007588	-54.934855	-70.856066	-10.418480
31776	9.237441	-2.620998	1.820144	-0.004520	0.002425	0.011157	-54.944373	-70.850872	-10.411264
31777	9.240595	-2.620667	1.796100	0.000745	0.001209	0.001997	-54.943443	-70.850297	-10.411462
31778	9.209521	-2.606152	1.792636	0.003354	0.002708	0.007864	-54.944905	-70.846622	-10.410726
31779	9.240115	-2.621871	1.796811	0.000352	0.006567	0.009838	-54.944394	-70.840606	-10.410718
31780	9.205550	-2.608532	1.817873	0.001988	0.005795	0.004256	-54.938942	-70.837510	-10.415456
31781	9.216807	-2.631024	1.794503	0.001859	0.005758	0.006119	-54.935140	-70.833504	-10.418019
31782	9.209769	-2.633510	1.843592	0.001109	0.010018	0.006372	-54.927161	-70.828031	-10.421485
31783	9.250498	-2.646000	1.775562	0.003237	0.004912	0.004264	-54.921958	-70.825174	-10.424695
31784	9.204483	-2.610402	1.820590	0.002732	0.007005	0.006255	-54.916061	-70.820659	-10.428631
31785	9.212293	-2.634059	1.821496	-0.000768	0.007488	0.007968	-54.913190	-70.815217	-10.431802
31786	9.211979	-2.634709	1.822145	0.000610	0.006641	0.006113	-54.909287	-70.810982	-10.435130
31787	9.229718	-2.603282	1.801805	0.000855	0.004475	0.007851	-54.909436	-70.806587	-10.434118
31788	9.222895	-2.658114	1.799189	-0.000393	0.005358	0.007843	-54.909634	-70.802036	-10.435224
31789	9.214472	-2.635798	1.799478	0.002978	0.004837	0.007994	-54.908214	-70.797454	-10.434586
31790	9.233588	-2.629305	1.827697	0.001859	0.005758	0.006122	-54.904904	-70.793532	-10.436598
31791	9.210562	-2.637824	1.824797	0.000740	0.006679	0.004250	-54.898750	-70.790099	-10.442331
31792	9.236474	-2.629264	1.804709	-0.000264	0.005395	0.005980	-54.897246	-70.786331	-10.440956
31793	9.213460	-2.637861	1.801642	0.002233	0.003628	0.005997	-54.895994	-70.783085	-10.440593
31794	9.209917	-2.639085	1.826229	0.001374	0.004623	0.000396	-54.888669	-70.782228	-10.450605
31795	9.235909	-2.630245	1.806175	0.002862	0.007041	0.004394	-54.880954	-70.778608	-10.456704
31796	9.183352	-2.648756	1.847960	-0.003261	0.003787	0.005702	-54.882816	-70.775496	-10.455362
31797	9.238903	-2.630153	1.782757	-0.001753	0.002977	0.001982	-54.880931	-70.774345	-10.458087
31798	9.228629	-2.633243	1.855507	0.000370	0.003339	0.002126	-54.877865	-70.773047	-10.459959
31799	9.200959	-2.617661	1.827967	0.002232	0.003628	0.005998	-54.876617	-70.769800	-10.459591
31800	9.204157	-2.617113	1.804180	0.003611	0.002781	0.004142	-54.874465	-70.767724	-10.456975
31801	9.231427	-2.633582	1.832450	-0.002517	0.004996	0.007702	-54.875711	-70.763227	-10.456847
31802	9.205056	-2.643136	1.853326	0.001862	0.000289	0.003872	-54.877628	-70.762144	-10.452799
31803	9.230982	-2.634735	1.833031	0.000350	0.006568	0.009845	-54.877145	-70.756125	-10.452763
31804	9.203221	-2.619429	1.805593	0.000240	0.003303	0.003991	-54.876168	-70.754069	-10.454908
31805	9.211156	-2.642899	1.806031	0.000484	0.001136	0.005729	-54.879014	-70.751770	-10.451266
31806	9.230356	-2.636329	1.833895	0.001358	0.002382	0.005864	-54.880191	-70.749040	-10.448308
31807	9.207418	-2.644728	1.830661	0.000370	0.003339	0.002126	-54.876743	-70.747702	-10.451400
31808	9.210662	-2.644134	1.806745	-0.000765	0.002020	0.005720	-54.879821	-70.745104	-10.443397
31809	9.202403	-2.621533	1.806710	0.002736	0.001534	0.004008	-54.879216	-70.743480	-10.442042
31810	9.210312	-2.644900	1.807404	0.002864	0.007041	0.004397	-54.871856	-70.739938	-10.448551
31811	9.206741	-2.646118	1.832058	0.001619	0.002455	0.002135	-54.868889	-70.738887	-10.450376
31812	9.190608	-2.652497	1.780622	0.003237	0.004911	0.004271	-54.864259	-70.735975	-10.447570
31813	9.206399	-2.646704	1.832930	0.002363	0.003665	0.004135	-54.861134	-70.733589	-10.449112
31814	9.229038	-2.638993	1.836693	0.001861	0.000288	0.003874	-54.862999	-70.732565	-10.448317
31815	9.220803	-2.616291	1.836701	0.002363	0.003665	0.004136	-54.859874	-70.730178	-10.449858
31816	9.197846	-2.624668	1.833575	0.002363	0.003665	0.004136	-54.857100	-70.727877	-10.452173
31817	9.235401	-2.638011	1.789284	0.000744	0.001209	0.002000	-54.856179	-70.727301	-10.452362
31818	9.200902	-2.624426	1.810151	0.000107	0.008736	0.008110	-54.851957	-70.721414	-10.453645
31819	9.205394	-2.648772	1.834988	0.002123	0.000362	0.000144	-54.849632	-70.721986	-10.454484
31820	9.197180	-2.625992	1.835021	0.000984	0.004512	0.005992	-54.848592	-70.718593	-10.455030
31821	9.216567	-2.671546	1.811682	0.001488	0.002419	0.004001	-54.847513	-70.716680	-10.454935
31822	9.226399	-2.616751	1.791155	0.003870	0.008323	0.002669	-54.836792	-70.713602	-10.463490
31823	9.188544	-2.603833	1.836293	0.000371	0.003340	0.002127	-54.833354	-70.712263	-10.466571
31824	9.204511	-2.650297	1.837215	-0.002760	0.007166	0.005966	-54.830868	-70.707958	-10.469831
31825	9.233929	-2.640648	1.792983	0.004747	0.004099	0.000552	-54.822424	-70.707106	-10.475560
31826	9.192618	-2.628850	1.862196	-0.001643	0.006245	0.007840	-54.821750	-70.702153	-10.477585
31827	9.203819	-2.651692	1.838671	-0.003393	0.003754	0.007569	-54.825047	-70.698129	-10.475816
31828	9.218312	-2.621178	1.842230	0.001487	0.002419	0.004002	-54.824629	-70.696219	-10.471007
31829	9.229616	-2.643740	1.818600	-0.004510	0.004675	0.005695	-54.825569	-70.692769	-10.472414
31830	9.198539	-2.629325	1.815042	-0.004137	0.002545	0.005568	-54.829775	-70.690317	-10.473509
31831	9.194947	-2.630764	1.839370	-0.001883	0.002942	0.003848	-54.829786	-70.688303	-10.474305
31832	9.198195	-2.630277	1.815409	-0.000767	0.002021	0.005722	-54.833017	-70.685960	-10.473607
31833	9.225417	-2.646976	1.843386	-0.004027	0.000341	0.009172	-54.842744	-70.682311	-10.465409
31834	9.174980	-2.639765	1.811913	-0.002889	0.001660	0.005578	-54.847373	-70.679994	-10.460259
31835	9.197573	-2.632334	1.815581	-0.005384	0.003430	0.005560	-54.850349	-70.677018	-10.460040
31836	9.231594	-2.647075	1.795532	-0.000395	0.005360	0.007852	-54.850409	-70.672568	-10.466454
31837	9.216376	-2.626672	1.844091	-0.000395	0.005360	0.007852	-54.850103	-70.667882	-10.466683
31838	9.193227	-2.635600	1.841045	-0.001906	0.006172	0.011574	-54.853661	-70.661342	-10.465869
31839	9.219070	-2.627731	1.820726	-0.003284	0.001550	0.011175	-54.863216	-70.656355	-10.457402
31840	9.204016	-2.659895	1.817446	-0.006655	0.002075	0.011022	-54.873773	-70.651181	-10.447820
31841	9.195590	-2.638125	1.817218	-0.002300	0.000592	0.014917	-54.887544	-70.644755	-10.434286
31842	9.226004	-2.654527	1.821208	-0.004160	0.005775	0.013298	-54.894634	-70.637487	-10.428448
31843	9.194720	-2.640757	1.817798	-0.001665	0.004004	0.013316	-54.901975	-70.630686	-10.421343
31844	9.217024	-2.634215	1.821718	-0.004423	0.005702	0.017031	-54.912744	-70.621691	-10.411997
31845	9.201683	-2.666935	1.818943	-0.007289	0.009604	0.017143	-54.919415	-70.611251	-10.409018
31846	9.200996	-2.616347	1.870737	-0.004797	0.002363	0.014903	-54.932729	-70.604276	-10.395084
31847	9.200602	-2.670115	1.819746	-0.008536	0.010490	0.017137	-54.938915	-70.593547	-10.393375
31848	9.222856	-2.663564	1.823959	-0.003152	0.007057	0.011574	-54.942180	-70.586644	-10.389346
31849	9.218906	-2.665803	1.848819	-0.010765	0.012336	0.013389	-54.943684	-70.577065	-10.393957
31850	9.171540	-2.605746	1.845363	-0.006628	0.009789	0.007817	-54.941725	-70.571087	-10.400258
31851	9.152912	-2.639060	1.866331	-0.018917	0.001060	0.015890	-54.965223	-70.564045	-10.386499
31852	9.209583	-2.647153	1.848736	-0.016454	-0.008424	0.019119	-55.003326	-70.558623	-10.353974
31853	9.160189	-2.666031	1.864631	-0.016692	-0.006255	0.017384	-55.036635	-70.553277	-10.328456
31854	9.212373	-2.650055	1.822266	-0.015952	-0.010517	0.017128	-55.075601	-70.549636	-10.299089
31855	9.228062	-2.697986	1.821707	-0.015176	-0.001598	0.015925	-55.100461	-70.543438	-10.281610
31856	9.234531	-2.697575	1.773177	-0.009281	0.003812	0.012886	-55.112905	-70.537087	-10.273851
31857	9.219112	-2.678099	1.821600	-0.008294	0.008318	0.018893	-55.123367	-70.526242	-10.267460
31858	9.214961	-2.680945	1.846591	-0.001416	0.012765	0.019598	-55.125137	-70.513711	-10.266601
31859	9.194928	-2.689535	1.819822	-0.000413	0.008579	0.015605	-55.127683	-70.504327	-10.263817
31860	9.209062	-2.660180	1.824251	-0.001785	0.014896	0.019731	-55.127212	-70.491055	-10.264498
31861	9.212831	-2.685961	1.849927	0.002963	0.013516	0.018027	-55.123511	-70.478914	-10.266289
31862	9.161920	-2.679468	1.819700	-0.000540	0.014010	0.019743	-55.123321	-70.465853	-10.264238
31863	9.188522	-2.697239	1.848896	0.000972	0.013198	0.016017	-55.119331	-70.454761	-10.267545
31864	9.184363	-2.699772	1.874234	-0.001285	0.012804	0.017740	-55.119166	-70.443065	-10.268314
31865	9.182694	-2.676208	1.826719	-0.001528	0.009505	0.013737	-55.119395	-70.434255	-10.268663
31866	9.178594	-2.678646	1.851896	0.000839	0.013160	0.017890	-55.117743	-70.422345	-10.268242
31867	9.215761	-2.693128	1.808335	0.000352	0.006561	0.009880	-55.117233	-70.416312	-10.268233
31868	9.154735	-2.688914	1.850029	-0.001896	0.011637	0.013870	-55.115635	-70.406968	-10.274607
31869	9.199834	-2.674394	1.858044	0.000085	0.006486	0.013618	-55.118819	-70.399203	-10.270841
31870	9.150277	-2.692340	1.875465	-0.002783	0.004925	0.011465	-55.124085	-70.392989	-10.265319
31871	9.199025	-2.676605	1.858870	-0.004773	0.004608	0.009450	-55.128691	-70.387799	-10.262997
31872	9.149655	-2.694092	1.875980	0.001722	0.000242	0.005753	-55.132640	-70.385954	-10.259091
31873	9.183746	-2.708840	1.855657	-0.003771	0.000421	0.005451	-55.138518	-70.384014	-10.254809
31874	9.187126	-2.708155	1.831573	-0.000367	0.002131	0.000131	-55.136225	-70.384152	-10.255649
31875	9.210017	-2.699993	1.835238	0.002893	-0.001664	-0.005590	-55.130887	-70.388086	-10.259221
31876	9.206684	-2.700411	1.859470	0.003404	0.001711	-0.005320	-55.120998	-70.390832	-10.269831
31877	9.198811	-2.676782	1.859670	0.003914	0.005086	-0.005050	-55.106662	-70.392300	-10.282333
31878	9.179552	-2.683130	1.832347	0.006773	0.001178	-0.005165	-55.097124	-70.395306	-10.285942
31879	9.184097	-2.706698	1.857040	0.004148	0.002917	-0.003312	-55.087112	-70.396668	-10.293712
31880	9.195563	-2.676217	1.884870	0.004649	0.000823	-0.005311	-55.078005	-70.399744	-10.302031
31881	9.187830	-2.704678	1.833181	0.002015	-0.002907	-0.005728	-55.074670	-70.404150	-10.304010
31882	9.180120	-2.680858	1.832827	0.003161	-0.001589	-0.009326	-55.067011	-70.409917	-10.303985
31883	9.211131	-2.695142	1.836778	0.002426	0.002674	-0.009064	-55.052993	-70.414058	-10.317053
31884	9.207868	-2.695148	1.861238	0.002560	0.002711	-0.010932	-55.038249	-70.419214	-10.328159
31885	9.180775	-2.678021	1.833693	0.005427	0.004273	-0.008777	-55.020654	-70.422693	-10.343197
31886	9.207267	-2.668152	1.813631	0.004683	0.003067	-0.010784	-55.004094	-70.427647	-10.356454
31887	9.203945	-2.668228	1.838269	0.004047	0.005124	-0.006917	-54.987875	-70.429970	-10.370870
31888	9.182172	-2.700541	1.883839	0.003545	0.007218	-0.004918	-54.972243	-70.430833	-10.382575
31889	9.207434	-2.666290	1.815522	0.004522	0.006255	-0.001173	-54.959569	-70.430087	-10.392940
31890	9.177572	-2.676028	1.860727	0.003878	0.002843	0.000426	-54.953901	-70.429735	-10.392512
31891	9.196813	-2.669072	1.888898	0.001387	0.004619	0.000408	-54.946647	-70.428785	-10.399031
31892	9.180821	-2.675402	1.837281	0.000340	0.001095	0.007611	-54.952062	-70.425848	-10.396359
31893	9.188571	-2.699160	1.837595	0.001586	0.000207	0.007620	-54.957189	-70.422967	-10.389618
31894	9.207682	-2.692798	1.865557	0.003476	0.002731	0.006031	-54.956832	-70.419995	-10.384913
31895	9.202995	-2.669270	1.841508	0.000107	0.003264	0.005874	-54.957157	-70.416927	-10.384166
31896	9.210739	-2.692887	1.842041	0.000107	0.003264	0.005874	-54.958159	-70.413956	-10.381950
31897	9.191257	-2.700236	1.814492	0.005224	-0.000251	0.004041	-54.958492	-70.412904	-10.378083
31898	9.198998	-2.671319	1.866592	0.003143	0.007105	0.000687	-54.948250	-70.411038	-10.380055
31899	9.183092	-2.677289	1.815101	0.002123	0.000355	0.000148	-54.945960	-70.411613	-10.380858
31900	9.176122	-2.679113	1.863436	0.000134	0.000037	-0.001868	-54.944410	-70.413250	-10.374869
31901	9.206917	-2.694277	1.867193	0.000233	-0.002168	0.001738	-54.948001	-70.413909	-10.370579
31902	9.179683	-2.678213	1.838873	-0.001388	-0.004618	-0.000408	-54.954852	-70.416481	-10.358743
31903	9.202514	-2.670491	1.842137	-0.003270	-0.001673	0.003449	-54.961381	-70.416175	-10.353465
31904	9.187655	-2.701667	1.838494	-0.001756	-0.002487	-0.000278	-54.965609	-70.417943	-10.344685
31905	9.207132	-2.694528	1.865774	0.000494	-0.007564	-0.004266	-54.970618	-70.423193	-10.338731
31906	9.202841	-2.670201	1.840924	-0.001621	-0.002450	-0.002146	-54.972676	-70.425913	-10.337707
31907	9.210897	-2.693009	1.841071	0.002392	0.000430	-0.003589	-54.966679	-70.428217	-10.342280
31908	9.180242	-2.677479	1.837149	-0.001487	-0.002413	-0.004014	-54.966795	-70.431598	-10.338114
31909	9.206671	-2.668263	1.816494	0.000268	0.000074	-0.003736	-54.962345	-70.434088	-10.342335
31910	9.146219	-2.662648	1.857153	0.000870	-0.004226	-0.002128	-54.965217	-70.437383	-10.340272
31911	9.199964	-2.669544	1.864365	-0.000475	-0.001132	-0.005743	-54.960927	-70.441212	-10.344776
31912	9.192206	-2.698437	1.812357	-0.003645	-0.005011	0.001312	-54.970632	-70.443081	-10.334962
31913	9.200161	-2.669443	1.863538	0.001982	-0.005151	-0.000251	-54.975327	-70.445655	-10.328437
31914	9.200218	-2.669426	1.863283	-0.002123	-0.000356	-0.000148	-54.976529	-70.446603	-10.326266
31915	9.184378	-2.675587	1.811102	-0.001656	-0.004693	0.003329	-54.986020	-70.447346	-10.316864
31916	9.219668	-2.714959	1.838908	-0.000510	-0.003375	-0.000269	-54.990413	-70.449499	-10.313395
31917	9.192429	-2.698807	1.810674	0.000368	-0.002131	-0.000130	-54.992160	-70.451022	-10.310981
31918	9.200324	-2.669831	1.862179	-0.001012	-0.001281	0.001729	-54.995871	-70.451514	-10.306495
31919	9.177462	-2.678004	1.858424	-0.001146	-0.001318	0.003598	-55.000860	-70.451020	-10.301560
31920	9.207172	-2.668494	1.813609	0.002223	-0.001850	0.003754	-55.005320	-70.450739	-10.294976
31921	9.200145	-2.670766	1.861724	-0.003269	-0.001673	0.003450	-55.011859	-70.450431	-10.289687
31922	9.203548	-2.670254	1.837310	-0.002157	-0.002598	0.005327	-55.021193	-70.449642	-10.280491
31923	9.180650	-2.678743	1.833263	0.000567	-0.006543	0.007083	-55.035331	-70.449227	-10.264805
31924	9.172605	-2.656235	1.832643	-0.000034	-0.002243	0.005475	-55.043228	-70.448199	-10.253112
31925	9.180467	-2.679898	1.832495	-0.000678	-0.005655	0.007075	-55.056896	-70.447494	-10.238682
31926	9.184873	-2.704698	1.856116	-0.003446	-0.009422	0.008528	-55.079118	-70.447425	-10.215426
31927	9.176857	-2.682475	1.854960	-0.004692	-0.008534	0.008520	-55.100227	-70.446982	-10.195540
31928	9.176780	-2.683499	1.853859	-0.004224	-0.012871	0.011998	-55.130639	-70.446463	-10.165843
31929	9.203078	-2.675536	1.831974	-0.001333	-0.014536	0.006410	-55.155824	-70.448971	-10.139590
31930	9.157517	-2.691852	1.823583	-0.000689	-0.011124	0.004810	-55.175211	-70.451163	-10.118006
31931	9.176898	-2.685634	1.850179	-0.000722	-0.013367	0.010287	-55.202080	-70.451458	-10.089595
31932	9.176922	-2.686653	1.848582	-0.000633	-0.021042	0.011630	-55.240644	-70.453701	-10.049991
31933	9.206740	-2.677759	1.802110	-0.001100	-0.016704	0.008154	-55.270198	-70.456079	-10.018961
31934	9.211269	-2.702746	1.824871	-0.000121	-0.017667	0.011901	-55.304328	-70.457078	-9.982467
31935	9.214683	-2.702831	1.799328	-0.003211	-0.011589	0.010276	-55.330264	-70.456778	-9.956561
31936	9.206617	-2.680830	1.798170	-0.000708	-0.007898	0.012559	-55.352695	-70.454371	-9.933840
31937	9.225836	-2.675005	1.825148	-0.000576	-0.007861	0.010690	-55.372544	-70.452654	-9.912790
31938	9.199319	-2.736801	1.793794	-0.000164	-0.002280	0.007348	-55.382288	-70.450814	-9.902370
31939	9.199192	-2.685557	1.845080	-0.002919	-0.000577	0.011071	-55.394151	-70.446544	-9.891219
31940	9.171521	-2.670598	1.817130	-0.000181	0.000945	0.015094	-55.406697	-70.439977	-9.876999
31941	9.167746	-2.672951	1.840927	-0.004211	-0.007400	0.014278	-55.431280	-70.436411	-9.853134
31942	9.193720	-2.665696	1.819569	-0.005720	-0.006585	0.018011	-55.459742	-70.430945	-9.825840
31943	9.178494	-2.698288	1.815308	-0.002733	-0.010457	0.016028	-55.489116	-70.427538	-9.795990
31944	9.201047	-2.692000	1.818003	-0.006833	-0.005658	0.016136	-55.515159	-70.422591	-9.770684
31945	9.197309	-2.694467	1.841475	-0.003332	-0.006157	0.014420	-55.537676	-70.418540	-9.748474
31946	9.166321	-2.680760	1.836662	-0.005506	-0.014222	0.017491	-55.575247	-70.415730	-9.712594
31947	9.211563	-2.718802	1.791224	-0.002219	-0.007084	0.016300	-55.600048	-70.411083	-9.687282
31948	9.203441	-2.696981	1.790260	-0.002703	-0.008214	0.010552	-55.621728	-70.409649	-9.668773
31949	9.196414	-2.700117	1.837661	-0.003847	-0.009530	0.014157	-55.648749	-70.406799	-9.642095
31950	9.199630	-2.700429	1.812669	-0.001955	-0.007009	0.012561	-55.670367	-70.403978	-9.620293
31951	9.199423	-2.701632	1.811926	-0.004079	-0.007361	0.012418	-55.693045	-70.401243	-9.598364
31952	9.176380	-2.710729	1.807443	-0.001359	-0.011310	0.014175	-55.721669	-70.399080	-9.569064
31953	9.199080	-2.704092	1.809996	-0.004828	-0.008565	0.010412	-55.744549	-70.397677	-9.547377
31954	9.202436	-2.703914	1.784958	-0.005677	-0.007563	0.004793	-55.762058	-70.398741	-9.532675
31955	9.233063	-2.720071	1.787913	-0.001955	-0.007009	0.012565	-55.783166	-70.395811	-9.511120
31956	9.202176	-2.705732	1.783545	-0.004048	-0.005116	0.006938	-55.798164	-70.395035	-9.499217
31957	9.206572	-2.730427	1.807279	-0.002673	-0.005969	0.005074	-55.811521	-70.395317	-9.486327
31958	9.206495	-2.730949	1.806888	-0.001275	-0.001354	0.005477	-55.818665	-70.394012	-9.480203
31959	9.201923	-2.707303	1.782467	-0.000263	-0.000075	0.003742	-55.821594	-70.393026	-9.476917
31960	9.206272	-2.731657	1.806953	0.000386	0.003336	0.002137	-55.818941	-70.391868	-9.480095
31961	9.178864	-2.715485	1.779396	0.000518	0.003373	0.000266	-55.813693	-70.391421	-9.485015
31962	9.194845	-2.709821	1.831221	-0.004149	-0.002909	0.003326	-55.822860	-70.391632	-9.476744
31963	9.198163	-2.709299	1.806866	-0.000394	-0.000113	0.005614	-55.827604	-70.389771	-9.471611
31964	9.202480	-2.733765	1.831327	-0.002982	0.003875	0.001987	-55.825702	-70.388442	-9.475809
31965	9.182900	-2.740900	1.803851	-0.000626	0.002057	0.003872	-55.826120	-70.386709	-9.475411
31966	9.197784	-2.710250	1.807369	0.000749	0.001204	0.002008	-55.825532	-70.386205	-9.475933
31967	9.182654	-2.741434	1.804291	0.001136	0.004540	0.004146	-55.821885	-70.383543	-9.478778
31968	9.174620	-2.718595	1.804563	0.001267	0.004577	0.002274	-55.816753	-70.381827	-9.483798
31969	9.197365	-2.711046	1.808307	0.000980	-0.000966	0.003750	-55.820159	-70.381125	-9.479250
31970	9.171002	-2.720175	1.828831	-0.002388	-0.000426	0.003599	-55.825139	-70.380427	-9.475839
31971	9.200569	-2.710950	1.783911	-0.000164	-0.002282	0.007356	-55.834206	-70.378438	-9.465977
31972	9.193589	-2.713566	1.831981	0.001080	-0.003173	0.007363	-55.844144	-70.376865	-9.456969
31973	9.193456	-2.714158	1.831770	-0.001276	-0.001354	0.005478	-55.850915	-70.375468	-9.450220
31974	9.178373	-2.745502	1.828155	-0.000782	-0.003448	0.003477	-55.858946	-70.375753	-9.440540
31975	9.196747	-2.713947	1.807098	0.000099	-0.002207	0.003613	-55.864382	-70.375514	-9.434371
31976	9.177280	-2.720992	1.779154	0.002718	-0.003951	0.001756	-55.869250	-70.376825	-9.429644
31977	9.204596	-2.737486	1.806669	0.001705	-0.005230	0.003491	-55.877678	-70.377615	-9.419324
31978	9.170438	-2.723448	1.826786	0.000100	-0.002207	0.003614	-55.883611	-70.377504	-9.414327
31979	9.204492	-2.738180	1.806145	0.004580	-0.003676	0.005643	-55.890263	-70.376773	-9.404142
31980	9.162389	-2.701088	1.826470	0.003624	0.002758	0.004160	-55.888003	-70.374824	-9.406762
31981	9.196420	-2.715743	1.806063	0.002586	-0.003989	0.003628	-55.894397	-70.375150	-9.398064
31982	9.185132	-2.693959	1.829645	0.002817	-0.006158	0.005370	-55.905646	-70.375530	-9.387875
31983	9.170049	-2.725407	1.825819	0.001442	-0.005304	0.007236	-55.917696	-70.374565	-9.373868
31984	9.196250	-2.717268	1.804635	0.003048	-0.008327	0.007114	-55.933037	-70.374779	-9.359312
31985	9.168917	-2.701674	1.775827	-0.001852	-0.012438	0.008434	-55.957548	-70.375531	-9.334080
31986	9.230273	-2.733062	1.782498	0.002324	-0.004063	0.007373	-55.968192	-70.374270	-9.323686
31987	9.195983	-2.719505	1.802626	0.002062	-0.004138	0.011117	-55.981819	-70.371082	-9.307629
31988	9.195850	-2.720129	1.802361	0.004711	-0.003639	0.003772	-55.986941	-70.371286	-9.299540
31989	9.172837	-2.728363	1.798874	0.004607	0.001792	0.007911	-55.988328	-70.367720	-9.294930
31990	9.137517	-2.689631	1.770672	0.005040	-0.008015	0.009131	-56.004196	-70.366823	-9.275743
31991	9.195429	-2.721973	1.801724	0.001442	-0.005304	0.007238	-56.016237	-70.365849	-9.261746
31992	9.195324	-2.722691	1.801179	0.001672	-0.007473	0.008982	-56.032955	-70.364814	-9.243310
31993	9.195157	-2.723558	1.800717	0.005430	-0.004679	0.011270	-56.045492	-70.361721	-9.226361
31994	9.172091	-2.732138	1.796947	-0.000162	-0.002280	0.007361	-56.055010	-70.359793	-9.215841
31995	9.206041	-2.747193	1.776231	0.002324	-0.004063	0.007376	-56.065009	-70.358353	-9.203476
31996	9.168431	-2.734308	1.820631	0.002093	-0.001894	0.005632	-56.071220	-70.357179	-9.196847
31997	9.217423	-2.718395	1.803416	0.000720	-0.001039	0.007498	-56.078217	-70.354712	-9.188644
31998	9.186121	-2.755721	1.748147	0.002093	-0.001894	0.005632	-56.084136	-70.353443	-9.179972
31999	9.163523	-2.711964	1.796094	0.000359	0.001093	0.007627	-56.088612	-70.350233	-9.174666
32000	9.194045	-2.728029	1.799631	-0.003169	-0.003869	0.007084	-56.101622	-70.348931	-9.162416
32001	9.186065	-2.705749	1.798996	0.001179	-0.005377	0.010987	-56.117248	-70.346189	-9.144772
32002	9.190341	-2.730592	1.822957	-0.002157	-0.002591	0.005347	-56.126305	-70.345291	-9.136510
32003	9.216489	-2.722329	1.802253	-0.000622	0.002059	0.003874	-56.126695	-70.343556	-9.136140
32004	9.216314	-2.722796	1.802446	-0.001995	0.002914	0.005740	-56.128938	-70.340763	-9.135109
32005	9.193278	-2.731008	1.799029	-0.000261	-0.000074	0.003746	-56.131846	-70.339770	-9.131846
32006	9.197547	-2.755563	1.823423	-0.004120	0.002565	0.005598	-56.135687	-70.337154	-9.130061
32007	9.170101	-2.739710	1.795574	-0.002386	-0.000422	0.003603	-56.140148	-70.336340	-9.126441
32008	9.192879	-2.732331	1.799058	-0.001504	0.000818	0.003739	-56.142910	-70.335128	-9.124532
32009	9.203929	-2.754919	1.775210	-0.006474	0.004386	0.003712	-56.143408	-70.332728	-9.127608
32010	9.218822	-2.724369	1.778986	0.000914	0.006708	0.002402	-56.135961	-70.330310	-9.135132
32011	9.169581	-2.740862	1.796472	-0.002354	0.001821	-0.001887	-56.132513	-70.331392	-9.139891
32012	9.172890	-2.740054	1.772523	-0.004350	0.004735	0.003855	-56.132003	-70.328910	-9.143228
32013	9.169358	-2.741247	1.797024	-0.000720	0.004265	0.000258	-56.126283	-70.328191	-9.149406
32014	9.214980	-2.725973	1.804464	-0.002225	0.005083	0.003998	-56.124006	-70.325512	-9.153733
32015	9.191922	-2.734041	1.801348	-0.002094	0.005120	0.002125	-56.119605	-70.323632	-9.159347
32016	9.180555	-2.712100	1.825809	-0.001211	0.006360	0.002261	-56.113699	-70.321394	-9.166792
32017	9.168755	-2.742140	1.798739	0.000522	0.003373	0.000265	-56.108463	-70.320957	-9.171700
32018	9.214468	-2.726587	1.806151	-0.000589	0.004302	-0.001615	-56.101366	-70.321187	-9.179414
32019	9.165237	-2.742977	1.823666	0.001405	0.004613	0.000402	-56.094098	-70.320288	-9.185944
32020	9.191434	-2.734385	1.803317	-0.002616	0.001747	0.001859	-56.094675	-70.319732	-9.188662
32021	9.171895	-2.741288	1.775765	-0.000360	0.002132	0.000129	-56.091473	-70.319754	-9.191947
32022	9.186923	-2.710348	1.779470	0.000294	0.005542	-0.001478	-56.082241	-70.319517	-9.201328
32023	9.180080	-2.712108	1.828182	0.001896	0.002518	-0.001601	-56.075688	-70.320239	-9.206799
32024	9.202433	-2.756467	1.780556	-0.000852	0.004228	0.002132	-56.072251	-70.318744	-9.211391
32025	9.157002	-2.719979	1.825452	0.002287	0.005853	0.000539	-56.062954	-70.317382	-9.219539
32026	9.191029	-2.734396	1.805359	0.002125	0.000348	0.000143	-56.061178	-70.318039	-9.219506
32027	9.183200	-2.711260	1.805315	-0.000360	0.002132	0.000129	-56.057977	-70.318061	-9.222791
32028	9.179763	-2.712331	1.829446	-0.003139	-0.001625	0.001593	-56.063146	-70.318673	-9.219298
32029	9.197761	-2.732682	1.757182	0.001765	0.002481	0.000273	-56.058393	-70.318516	-9.222938
32030	9.187455	-2.735588	1.829997	-0.001963	0.005157	0.000252	-56.052702	-70.317587	-9.229501
32031	9.213640	-2.726838	1.809988	0.002059	0.008023	-0.001205	-56.039097	-70.316358	-9.242364
32032	9.159973	-2.719128	1.803352	0.001405	0.004613	0.000403	-56.032243	-70.315504	-9.247763
32033	9.190553	-2.734447	1.807704	0.002059	0.008023	-0.001204	-56.018640	-70.314274	-9.260623
32034	9.190422	-2.734635	1.808091	-0.000395	-0.000111	0.005619	-56.023743	-70.312483	-9.255573
32035	9.182473	-2.711947	1.807981	-0.000624	0.002058	0.003876	-56.024145	-70.310748	-9.255191
32036	9.167289	-2.743106	1.804729	-0.001374	0.000855	0.001866	-56.025320	-70.310497	-9.256655
32037	9.220775	-2.750869	1.812209	-0.000720	0.004265	0.000259	-56.019611	-70.309774	-9.262822
32038	9.190000	-2.735581	1.808800	0.001633	0.002444	0.002147	-56.016792	-70.308774	-9.265149
32039	9.166987	-2.743421	1.805782	0.001927	0.007986	0.000670	-56.004997	-70.306664	-9.276170
32040	9.155579	-2.721450	1.830389	-0.000101	0.005431	0.004143	-56.001413	-70.303883	-9.282681
32041	9.223643	-2.750697	1.789678	-0.003271	-0.001662	0.003466	-56.007904	-70.303535	-9.277444
32042	9.143701	-2.751940	1.803109	0.001405	0.004613	0.000403	-56.001078	-70.302704	-9.283499
32043	9.189374	-2.736573	1.810482	-0.002617	0.001748	0.001859	-56.001232	-70.302027	-9.284594
32044	9.189290	-2.736845	1.810496	0.000978	-0.000966	0.003754	-56.004861	-70.301360	-9.279600
32045	9.181426	-2.713961	1.810275	-0.000132	-0.000037	0.001873	-56.005972	-70.301248	-9.278167
32046	9.189185	-2.737272	1.810385	-0.001015	-0.001277	0.001736	-56.009509	-70.301667	-9.275024
32047	9.192557	-2.736578	1.786083	-0.001147	-0.001314	0.003610	-56.014449	-70.301139	-9.270141
32048	9.192545	-2.736758	1.785868	-0.001765	-0.002480	-0.000274	-56.018442	-70.302965	-9.268186
32049	9.174055	-2.768605	1.806544	-0.001242	0.000892	-0.000007	-56.017274	-70.303448	-9.269849
32050	9.212041	-2.729917	1.813485	0.000132	0.000037	-0.001873	-56.014982	-70.305113	-9.271563
32051	9.184832	-2.713463	1.785507	0.000360	-0.002133	-0.000130	-56.016800	-70.306624	-9.269079
32052	9.162932	-2.746092	1.830551	-0.000456	0.004339	-0.003487	-56.007962	-70.307752	-9.279276
32053	9.192670	-2.736199	1.786082	-0.000228	0.002170	-0.001744	-56.002963	-70.308651	-9.284391
32054	9.200897	-2.707189	1.837900	-0.002485	0.001785	-0.000014	-56.001887	-70.308943	-9.286632
32055	9.192682	-2.736078	1.786209	-0.000750	-0.001203	-0.002010	-56.001424	-70.311050	-9.287247
32056	9.166420	-2.744616	1.806843	-0.000228	0.002170	-0.001743	-55.996804	-70.312019	-9.292329
32057	9.189297	-2.736809	1.810515	-0.001242	0.000892	-0.000007	-55.995635	-70.312502	-9.293994
32058	9.178093	-2.714559	1.834511	0.000132	0.000037	-0.001873	-55.993686	-70.314228	-9.295663
32059	9.189349	-2.736580	1.810597	-0.002353	0.001822	-0.001887	-55.990235	-70.315307	-9.300427
32060	9.189313	-2.736701	1.810597	-0.002389	-0.000422	0.003602	-55.995149	-70.314579	-9.296668
32061	9.212123	-2.729236	1.814093	-0.000132	-0.000037	0.001873	-55.996262	-70.314468	-9.295233
32062	9.189239	-2.736999	1.810520	-0.003235	0.000582	-0.002024	-55.995252	-70.316077	-9.297972
32063	9.192657	-2.735992	1.786466	-0.001602	0.003025	0.000123	-55.991574	-70.315816	-9.302520
32064	9.200469	-2.758892	1.786938	0.000919	0.003484	-0.005353	-55.981447	-70.318111	-9.313234
32065	9.189281	-2.736219	1.811486	0.002324	0.008097	-0.004948	-55.964240	-70.318630	-9.329761
32066	9.184861	-2.711801	1.787880	0.001177	0.006783	-0.001339	-55.953121	-70.317931	-9.340715
32067	9.189155	-2.735598	1.813066	0.000721	0.011122	-0.004825	-55.932929	-70.317418	-9.361388
32068	9.185677	-2.736162	1.838046	0.002552	0.005928	-0.003204	-55.920588	-70.317909	-9.373325
32069	9.192546	-2.733742	1.790480	0.001214	0.009027	-0.006827	-55.901096	-70.319015	-9.392954
32070	9.189079	-2.734217	1.815533	0.003074	0.009301	-0.002936	-55.884242	-70.318247	-9.407423
32071	9.184713	-2.709628	1.791930	0.000692	0.005654	-0.007094	-55.869279	-70.320561	-9.422560
32072	9.192636	-2.732008	1.792662	0.000825	0.005691	-0.008967	-55.852964	-70.323812	-9.438657
32073	9.189338	-2.732131	1.817359	0.000825	0.005691	-0.008966	-55.836183	-70.326998	-9.455643
32074	9.189462	-2.731369	1.817877	0.001934	0.004762	-0.007086	-55.822197	-70.329715	-9.470634
32075	9.189577	-2.730526	1.818561	0.001479	0.009101	-0.010570	-55.799065	-70.332561	-9.493966
32076	9.162396	-2.713368	1.791583	0.002095	0.010267	-0.006687	-55.778057	-70.333241	-9.513500
32077	9.178462	-2.706779	1.844135	0.001186	0.003558	-0.009095	-55.763760	-70.337168	-9.527627
32078	9.182079	-2.705050	1.820271	0.000171	0.002281	-0.007360	-55.753519	-70.340758	-9.539613
32079	9.163752	-2.736225	1.841187	-0.000711	0.001040	-0.007498	-55.745080	-70.344739	-9.548673
32080	9.205356	-2.695825	1.823954	0.001026	-0.001947	-0.009493	-55.738434	-70.350783	-9.556834
32081	9.190623	-2.725839	1.820309	-0.001980	-0.003537	-0.009775	-55.734728	-70.357318	-9.561641
32082	9.190934	-2.724872	1.820186	0.002922	0.000572	-0.011089	-55.722229	-70.363254	-9.573081
32083	9.214118	-2.716031	1.823753	0.001159	-0.001910	-0.011364	-55.713119	-70.370016	-9.581715
32084	9.199359	-2.745875	1.820556	0.002199	0.004837	-0.010827	-55.695322	-70.374435	-9.599949
32085	9.195245	-2.720582	1.796652	0.001583	0.003670	-0.014709	-55.675516	-70.380976	-9.619680
32086	9.214977	-2.712459	1.824730	0.002693	0.002742	-0.012828	-55.658802	-70.387031	-9.634330
32087	9.195849	-2.718047	1.797400	0.003574	0.003983	-0.012690	-55.639249	-70.392511	-9.652581
32088	9.219033	-2.708854	1.801446	0.003840	0.004057	-0.016433	-55.616727	-70.399819	-9.672780
32089	9.227160	-2.730581	1.802305	0.002849	0.008248	-0.012428	-55.592141	-70.403790	-9.696813
32090	9.188844	-2.690746	1.799188	0.006483	0.007781	-0.016017	-55.563311	-70.409671	-9.722700
32091	9.224220	-2.728547	1.828354	0.008245	0.010264	-0.015740	-55.529916	-70.414546	-9.752800
32092	9.197203	-2.710697	1.801567	0.004877	0.010804	-0.015892	-55.498374	-70.419396	-9.781378
32093	9.186150	-2.686895	1.826611	0.006254	0.009951	-0.017754	-55.464666	-70.425312	-9.813019
32094	9.186412	-2.685248	1.827714	0.004876	0.010804	-0.015889	-55.432747	-70.430158	-9.844412
32095	9.190130	-2.682655	1.804693	0.005010	0.010841	-0.017759	-55.398528	-70.435774	-9.877350
32096	9.213238	-2.673269	1.809289	0.006350	0.007745	-0.014137	-55.371431	-70.440733	-9.900851
32097	9.195029	-2.703747	1.830971	0.005106	0.008636	-0.014144	-55.343364	-70.445353	-9.927199
32098	9.157570	-2.689056	1.876358	0.006216	0.007709	-0.012264	-55.318059	-70.449414	-9.948348
32099	9.187525	-2.678182	1.832482	0.003958	0.007320	-0.010540	-55.295683	-70.452757	-9.969354
32100	9.199106	-2.699176	1.809130	0.006064	0.002203	-0.012661	-55.277535	-70.458933	-9.987115
32101	9.184589	-2.676625	1.857593	0.004954	0.003130	-0.014539	-55.256451	-70.465523	-10.006142
32102	9.189318	-2.699352	1.882337	0.002696	0.002741	-0.012815	-55.239328	-70.471449	-10.019685
32103	9.193049	-2.697258	1.858581	0.003442	0.003946	-0.010806	-55.221443	-70.476011	-10.036236
32104	9.207287	-2.640337	1.813650	0.001914	-0.000707	-0.009342	-55.212550	-70.481462	-10.042678
32105	9.166262	-2.679165	1.831001	0.005797	0.002131	-0.008918	-55.197454	-70.485726	-10.054837
32106	9.200715	-2.692550	1.810823	0.003158	-0.001596	-0.009333	-55.188929	-70.491487	-10.061733
32107	9.197478	-2.692602	1.835094	0.002428	0.002667	-0.009073	-55.174896	-70.495646	-10.074812
32108	9.220571	-2.683753	1.838862	0.005416	-0.001207	-0.011054	-55.163015	-70.502063	-10.082534
32109	9.182199	-2.644404	1.834884	0.002793	0.000536	-0.009202	-55.151473	-70.506980	-10.092748
32110	9.193804	-2.665654	1.811161	0.003672	0.001778	-0.009063	-55.138436	-70.511545	-10.105234
32111	9.221219	-2.681281	1.839221	0.002623	-0.001742	-0.001852	-55.136811	-70.513751	-10.105031
32112	9.167725	-2.673604	1.831805	0.002391	0.000426	-0.003592	-55.131464	-70.516172	-10.108895
32113	9.194079	-2.664500	1.811465	0.005261	0.001986	-0.001436	-55.123759	-70.516961	-10.113539
32114	9.213436	-2.657381	1.839509	0.001892	0.002522	-0.001593	-55.117612	-70.517686	-10.117000
32115	9.174760	-2.671012	1.784123	0.002623	-0.001742	-0.001851	-55.115985	-70.519892	-10.116798
32116	9.167842	-2.672688	1.832557	0.004016	0.002875	-0.001445	-55.108145	-70.520444	-10.122364
32117	9.213474	-2.656861	1.840069	0.001758	0.002485	0.000277	-55.103368	-70.520264	-10.126029
32118	9.221332	-2.679858	1.840725	0.003650	0.005007	-0.001316	-55.092974	-70.520052	-10.134585
32119	9.175616	-2.695404	1.834047	0.001527	0.004653	-0.001464	-55.083837	-70.519978	-10.143016
32120	9.186067	-2.640252	1.813417	0.000647	0.003411	-0.001602	-55.077327	-70.520471	-10.148902
32121	9.201848	-2.686447	1.814128	0.000745	0.001206	0.002008	-55.076435	-70.519897	-10.149062
32122	9.224568	-2.678674	1.818161	0.003151	0.007102	0.000683	-55.065826	-70.518083	-10.156067
32123	9.190248	-2.664315	1.839026	-0.000597	0.004300	-0.001611	-55.058239	-70.518193	-10.164144
32124	9.170866	-2.671244	1.811442	0.001111	-0.000925	0.001879	-55.060167	-70.518446	-10.161985
32125	9.190138	-2.664494	1.839318	0.000379	0.003338	0.002138	-55.056776	-70.517111	-10.165019
32126	9.185650	-2.640554	1.815088	-0.000000	0.000000	0.000000	-55.056525	-70.517958	-10.165054
32127	9.201451	-2.686831	1.815570	-0.000134	-0.000036	0.001870	-55.057659	-70.517857	-10.163600
32128	9.201413	-2.686916	1.815636	0.000879	0.001243	0.000139	-55.055616	-70.518244	-10.163843
32129	9.189995	-2.664770	1.839632	-0.001245	0.000889	-0.000009	-55.054415	-70.518721	-10.165541
32130	9.190012	-2.664694	1.839660	0.000134	0.000036	-0.001870	-55.052200	-70.520380	-10.166383
32131	9.212866	-2.656656	1.843405	0.001892	0.002521	-0.001592	-55.045566	-70.521064	-10.171937
32132	9.204884	-2.685740	1.791918	-0.001379	0.000853	0.001860	-55.046562	-70.520750	-10.172293
32133	9.212794	-2.656695	1.843710	-0.001476	0.003057	-0.001750	-55.041000	-70.521333	-10.178758
32134	9.194363	-2.688533	1.864710	-0.000366	0.002132	0.000129	-55.038402	-70.521436	-10.181180
32135	9.193402	-2.663512	1.816345	-0.003600	0.002704	-0.001898	-55.034388	-70.522204	-10.187292
32136	9.197907	-2.687154	1.840917	0.000171	0.002277	-0.007349	-55.024186	-70.525761	-10.198228
32137	9.193533	-2.662812	1.816709	-0.003734	0.002667	-0.000028	-55.022032	-70.525662	-10.202449
32138	9.198014	-2.686541	1.841276	0.000171	0.002277	-0.007349	-55.012006	-70.529213	-10.211779
32139	9.189296	-2.637812	1.792763	-0.002318	0.004055	-0.007367	-55.000376	-70.532104	-10.225190
32140	9.201779	-2.684362	1.817559	0.000403	0.000109	-0.005608	-54.994396	-70.535535	-10.231681
32141	9.198442	-2.684704	1.841821	0.000171	0.002277	-0.007348	-54.983711	-70.539000	-10.242576
32142	9.198646	-2.683850	1.842043	0.000440	0.002350	-0.011086	-54.969744	-70.544289	-10.257517
32143	9.187500	-2.660600	1.866200	-0.000670	0.003275	-0.012965	-54.952975	-70.550059	-10.275376
32144	9.202736	-2.680626	1.818230	-0.003306	-0.000454	-0.013381	-54.942843	-70.557362	-10.288513
32145	9.165446	-2.665866	1.862524	-0.001658	-0.001233	-0.018978	-54.927000	-70.567432	-10.305988
32146	9.195765	-2.654378	1.817755	-0.000780	0.000010	-0.018837	-54.909826	-70.577110	-10.322915
32147	9.191769	-2.628722	1.793439	-0.001281	0.002105	-0.016838	-54.891294	-70.585074	-10.343010
32148	9.188564	-2.628559	1.817746	0.001416	0.001389	-0.007336	-54.881670	-70.588922	-10.351881
32149	9.197576	-2.675952	1.866963	0.000314	0.007784	-0.006947	-54.863906	-70.590375	-10.370192
32150	9.188765	-2.627226	1.818659	0.000170	0.002278	-0.007345	-54.853744	-70.593968	-10.382042
32151	9.189826	-2.651727	1.867377	-0.003467	0.002738	-0.003765	-54.847830	-70.595593	-10.390086
32152	9.201349	-2.673389	1.843755	-0.000197	0.004409	-0.007215	-54.835256	-70.598388	-10.402853
32153	9.193525	-2.649739	1.843703	-0.002965	0.000643	-0.005763	-54.829966	-70.601639	-10.409931
32154	9.201674	-2.672069	1.844049	0.000439	0.002351	-0.011081	-54.815909	-70.606904	-10.424872
32155	9.190504	-2.648839	1.868138	-0.001549	0.002032	-0.013097	-54.801071	-70.613130	-10.441211
32156	9.228532	-2.661084	1.823867	0.001550	0.001427	-0.009202	-54.789315	-70.617825	-10.453539
32157	9.190984	-2.646886	1.868545	-0.002052	0.004127	-0.011098	-54.773838	-70.622421	-10.470860
32158	9.206185	-2.667132	1.820611	-0.000205	-0.001060	-0.009480	-54.766388	-70.628042	-10.476879
32159	9.186998	-2.620993	1.844426	0.000071	0.004483	-0.010949	-54.749347	-70.632447	-10.494567
32160	9.214464	-2.636256	1.872719	0.001416	0.001390	-0.007333	-54.739294	-70.636241	-10.505110
32161	9.198829	-2.641419	1.821129	-0.001175	0.005371	-0.010957	-54.721764	-70.640354	-10.524073
32162	9.203337	-2.612535	1.897176	0.000404	0.000110	-0.005604	-54.715774	-70.643823	-10.531955
32163	9.218482	-2.633102	1.849113	-0.001585	-0.000209	-0.007620	-54.709041	-70.648220	-10.539721
32164	9.195930	-2.640152	1.845460	0.002053	-0.000667	-0.011197	-54.698174	-70.654589	-10.550517
32165	9.196165	-2.639346	1.845442	0.001650	-0.000777	-0.005594	-54.692249	-70.658226	-10.555463
32166	9.177053	-2.645763	1.817491	0.001141	-0.004152	-0.005863	-54.691493	-70.663243	-10.556289
32167	9.193088	-2.639199	1.869068	-0.000105	-0.003265	-0.005872	-54.689622	-70.667834	-10.558003
32168	9.208237	-2.659985	1.820690	0.000872	-0.004226	-0.002127	-54.692462	-70.671014	-10.552153
32169	9.216332	-2.630314	1.871879	0.003025	-0.007098	-0.009718	-54.690276	-70.678672	-10.552301
32170	9.178066	-2.643594	1.815530	-0.002133	-0.011296	-0.004680	-54.701901	-70.685464	-10.541620
32171	9.223987	-2.627181	1.821989	-0.000848	-0.004472	-0.007877	-54.700173	-70.691393	-10.543634
32172	9.209527	-2.657343	1.818023	0.003393	-0.009228	-0.009846	-54.701065	-70.699908	-10.540189
32173	9.221258	-2.626436	1.844750	-0.000110	-0.008735	-0.008135	-54.704362	-70.707368	-10.536430
32174	9.221648	-2.625612	1.843970	-0.001222	-0.007811	-0.010012	-54.705940	-70.715458	-10.533195
32175	9.194671	-2.608811	1.815315	-0.001860	-0.005753	-0.006147	-54.708141	-70.721002	-10.531661
32176	9.204020	-2.656142	1.863488	-0.000346	-0.006567	-0.009872	-54.707298	-70.728584	-10.532184
32177	9.199829	-2.631570	1.838271	-0.003512	-0.010446	-0.002818	-54.719878	-70.734124	-10.520656
32178	9.203626	-2.630141	1.813195	-0.000110	-0.008734	-0.008133	-54.723445	-70.741683	-10.519100
32179	9.215502	-2.651426	1.788436	-0.002100	-0.009055	-0.010147	-54.726422	-70.750190	-10.516889
32180	9.223770	-2.621421	1.839313	0.000900	-0.007453	-0.009861	-54.726417	-70.758072	-10.513622
32181	9.204797	-2.627572	1.810975	0.001643	-0.006246	-0.007856	-54.725660	-70.764577	-10.513096
32182	9.224446	-2.619850	1.838162	-0.001727	-0.005717	-0.008011	-54.726357	-70.770972	-10.510586
32183	9.208890	-2.625164	1.785748	0.000396	-0.005359	-0.007864	-54.725116	-70.777188	-10.511327
32184	9.233040	-2.641648	1.837262	-0.002870	-0.007035	-0.004415	-54.732247	-70.782440	-10.502063
32185	9.179712	-2.633891	1.829302	-0.001964	-0.003549	-0.009748	-54.728141	-70.788938	-10.507270
32186	9.214140	-2.595092	1.859989	-0.000850	-0.004472	-0.007872	-54.726872	-70.794898	-10.507208
32187	9.206546	-2.623655	1.807758	-0.002869	-0.007035	-0.004414	-54.733032	-70.800055	-10.502094
32188	9.252431	-2.607191	1.814255	-0.000480	-0.006603	-0.008001	-54.734398	-70.806871	-10.501472
32189	9.215143	-2.645530	1.806759	0.000263	-0.005395	-0.005996	-54.735061	-70.812225	-10.500279
32190	9.203951	-2.622804	1.830149	-0.001727	-0.005716	-0.008009	-54.735698	-70.818740	-10.502880
32191	9.227029	-2.614308	1.833083	-0.002869	-0.007035	-0.004413	-54.741868	-70.823896	-10.497756
32192	9.204508	-2.621655	1.828995	0.000158	-0.003190	-0.009599	-54.736750	-70.830291	-10.502359
32193	9.204820	-2.620859	1.828565	-0.001727	-0.005716	-0.008008	-54.737072	-70.836693	-10.502733
32194	9.231322	-2.611388	1.807484	-0.001116	-0.004546	-0.004137	-54.739637	-70.840852	-10.495642
32195	9.213271	-2.642862	1.828163	0.000160	0.002279	-0.007337	-54.728749	-70.844295	-10.506739
32196	9.174571	-2.604191	1.824133	0.001883	-0.002943	-0.003853	-54.728007	-70.847897	-10.503245
32197	9.236393	-2.633887	1.831543	0.000769	-0.002019	-0.005728	-54.724088	-70.852009	-10.506594
32198	9.209194	-2.617388	1.803354	-0.000240	-0.003301	-0.003999	-54.724029	-70.855705	-10.507032
32199	9.205876	-2.618089	1.827214	-0.001620	-0.002452	-0.002141	-54.725480	-70.858282	-10.506146
32200	9.217513	-2.639732	1.803144	0.001777	-0.000737	-0.007457	-54.717861	-70.862796	-10.512502
32201	9.198168	-2.594073	1.826729	-0.002734	-0.001529	-0.004016	-54.716917	-70.865945	-10.514826
32202	9.232543	-2.608035	1.806089	-0.003875	-0.002849	-0.000421	-54.722537	-70.868012	-10.511869
32203	9.237126	-2.632134	1.830365	0.004113	0.000681	0.002158	-54.720580	-70.867542	-10.511113
32204	9.225625	-2.610035	1.854405	-0.001114	0.000923	-0.001875	-54.718182	-70.868870	-10.508772
32205	9.229031	-2.609086	1.830442	0.000372	0.003338	0.002132	-54.714761	-70.867532	-10.511834
32206	9.209590	-2.616277	1.802941	0.000743	0.001208	0.002004	-54.714678	-70.867010	-10.507853
32207	9.212945	-2.615490	1.779016	0.000372	0.003338	0.002133	-54.711258	-70.865673	-10.510915
32208	9.220690	-2.586583	1.830985	0.000372	0.003338	0.002133	-54.708172	-70.864331	-10.511773
32209	9.235419	-2.608254	1.783170	-0.002281	0.002831	0.009452	-54.713938	-70.859738	-10.506720
32210	9.216980	-2.640711	1.804435	0.003133	0.007110	0.000679	-54.702852	-70.857970	-10.519607
32211	9.220045	-2.587952	1.832299	0.000850	0.004472	0.007870	-54.703105	-70.853574	-10.518490
32212	9.208490	-2.618482	1.805358	-0.000369	0.007600	0.002391	-54.695006	-70.850725	-10.525670
32213	9.234527	-2.609847	1.785454	0.000745	0.006677	0.004266	-54.688917	-70.847284	-10.531331
32214	9.204558	-2.620218	1.830800	0.000612	0.006640	0.006133	-54.685079	-70.842942	-10.531657
32215	9.223590	-2.613776	1.859254	0.000241	0.008771	0.006262	-54.678368	-70.837874	-10.538282
32216	9.211999	-2.644313	1.832473	0.000745	0.006677	0.004267	-54.672719	-70.834405	-10.540068
32217	9.207227	-2.620606	1.808714	-0.002492	0.007242	0.002245	-54.665807	-70.831720	-10.548564
32218	9.203573	-2.621800	1.833482	0.000878	0.006714	0.002401	-54.658585	-70.829188	-10.551907
32219	9.214907	-2.644023	1.810166	-0.001112	0.006393	0.000388	-54.650257	-70.827652	-10.561065
32220	9.226072	-2.614073	1.838227	0.003372	0.004941	0.002419	-54.643875	-70.825668	-10.561741
32221	9.206582	-2.621270	1.811035	-0.001245	0.006356	0.002254	-54.637456	-70.823272	-10.568959
32222	9.202978	-2.622446	1.835547	-0.000504	0.002094	0.001996	-54.636702	-70.822448	-10.567152
32223	9.206336	-2.621593	1.811814	0.001012	0.006751	0.000535	-54.626822	-70.820724	-10.576665
32224	9.225539	-2.614807	1.839856	-0.003637	0.000454	0.003577	-54.631183	-70.819648	-10.572752
32225	9.198116	-2.598876	1.812112	0.000269	0.005544	-0.001469	-54.621441	-70.819260	-10.582570
32226	9.232351	-2.613021	1.792052	-0.000134	-0.000037	0.001867	-54.623264	-70.819165	-10.575355
32227	9.210579	-2.646071	1.837067	-0.000370	0.002131	0.000129	-54.619996	-70.819162	-10.578706
32228	9.239005	-2.558928	1.795736	0.007885	0.005732	-0.001018	-54.606402	-70.818541	-10.586724
32229	9.157892	-2.663923	1.878871	-0.007883	-0.000263	0.003282	-54.613659	-70.817860	-10.583488
32230	9.292453	-2.566484	1.803402	-0.000504	0.002094	0.001996	-54.612678	-70.816999	-10.582521
32231	9.187521	-2.654357	1.834314	0.001010	0.001282	-0.001728	-54.607988	-70.818146	-10.586540
32232	9.228514	-2.614446	1.817375	-0.004244	0.004753	0.001969	-54.605700	-70.816560	-10.592658
32233	9.210239	-2.646534	1.838103	0.001988	-0.005148	-0.000250	-54.610493	-70.819149	-10.586044
32234	9.225052	-2.615336	1.841549	-0.000844	0.006467	-0.003345	-54.598661	-70.819399	-10.599680
32235	9.197788	-2.598846	1.813815	0.002895	-0.001661	-0.005582	-54.593164	-70.823321	-10.603411
32236	9.202412	-2.622520	1.838277	-0.001484	0.003054	-0.001746	-54.588093	-70.823981	-10.607489
32237	9.220735	-2.590292	1.817492	-0.001485	-0.002415	-0.004010	-54.587615	-70.827420	-10.608562
32238	9.199126	-2.622904	1.862289	0.000267	0.000074	-0.003733	-54.583534	-70.829939	-10.610920
32239	9.228987	-2.612656	1.817546	-0.000609	-0.001170	-0.003871	-54.581013	-70.832900	-10.613624
32240	9.222172	-2.614143	1.865761	0.001648	-0.000775	-0.005590	-54.575938	-70.836679	-10.616353
32241	9.225842	-2.612646	1.841405	-0.002227	-0.003623	-0.006015	-54.575590	-70.841454	-10.617738
32242	9.203257	-2.620180	1.837383	-0.001114	-0.004546	-0.004139	-54.578203	-70.845841	-10.618229
32243	9.218188	-2.588789	1.840442	0.000638	-0.002056	-0.003862	-54.576165	-70.849092	-10.619665
32244	9.226415	-2.611303	1.840439	0.000029	-0.003227	-0.007733	-54.572363	-70.854466	-10.621235
32245	9.226658	-2.610575	1.840255	0.003028	-0.001623	-0.007447	-54.564941	-70.859247	-10.626921
32246	9.207538	-2.616952	1.812416	-0.000475	-0.001133	-0.005737	-54.560777	-70.863062	-10.630313
32247	9.223560	-2.610379	1.864166	0.000772	-0.002019	-0.005728	-54.556822	-70.867171	-10.633697
32248	9.230734	-2.607737	1.815739	-0.000208	-0.001059	-0.009469	-54.548851	-70.872821	-10.644660
32249	9.196695	-2.592921	1.835759	0.000267	-0.005395	-0.005995	-54.549469	-70.878177	-10.643510
32250	9.200433	-2.591397	1.811055	-0.000609	-0.006640	-0.006133	-54.552713	-70.884031	-10.637144
32251	9.205222	-2.614983	1.834944	-0.003608	-0.002775	-0.004155	-54.553787	-70.887657	-10.637860
32252	9.231730	-2.605572	1.813785	0.001010	-0.009656	-0.006253	-54.560343	-70.894663	-10.627417
32253	9.194208	-2.591979	1.857694	-0.001485	-0.002415	-0.004008	-54.559860	-70.898101	-10.628494
32254	9.224173	-2.581584	1.812430	0.001010	-0.009656	-0.006253	-54.566215	-70.905107	-10.620964
32255	9.209670	-2.612153	1.808504	-0.001485	-0.002416	-0.004008	-54.565733	-70.908544	-10.622041
32256	9.235876	-2.550696	1.838953	-0.001989	-0.005791	-0.004275	-54.570447	-70.913344	-10.618582
32257	9.206530	-2.612666	1.831678	-0.000265	-0.005544	0.001470	-54.578746	-70.915264	-10.609627
32258	9.206636	-2.612733	1.831051	-0.003131	-0.007111	-0.000680	-54.589013	-70.918734	-10.600233
32259	9.195343	-2.590455	1.854196	-0.000371	-0.008807	-0.004395	-54.596155	-70.924475	-10.592566
32260	9.233297	-2.603377	1.808953	-0.004378	-0.006225	-0.000688	-54.605887	-70.927667	-10.584668
32261	9.233398	-2.603468	1.808305	-0.002388	-0.005903	0.001324	-54.615758	-70.929772	-10.575337
32262	9.264363	-2.618506	1.811482	-0.000875	-0.006714	-0.002399	-54.623032	-70.934039	-10.567755
32263	9.237152	-2.602188	1.783054	-0.000239	-0.003301	-0.003998	-54.623050	-70.937766	-10.567546
32264	9.230455	-2.603699	1.830932	-0.003105	-0.004868	-0.006148	-54.625274	-70.943015	-10.562941
32265	9.214706	-2.609578	1.778579	-0.002759	-0.003773	0.001453	-54.632611	-70.944352	-10.556517
32266	9.199841	-2.588390	1.826364	0.000637	-0.002056	-0.003861	-54.630802	-70.947682	-10.559366
32267	9.230797	-2.603254	1.829842	-0.001379	-0.004621	-0.000404	-54.636714	-70.950167	-10.553614
32268	9.230854	-2.603274	1.829522	-0.004246	-0.000719	-0.000292	-54.639556	-70.951436	-10.555433
32269	9.208062	-2.611459	1.825688	-0.000769	-0.003451	0.003465	-54.647252	-70.951726	-10.547423
32270	9.237670	-2.601851	1.780858	0.000611	0.001170	0.003869	-54.648732	-70.950334	-10.542998
32271	9.227271	-2.605047	1.853228	-0.001884	-0.002528	0.001591	-54.654018	-70.951193	-10.538213
32272	9.234175	-2.603172	1.804763	0.001247	-0.000886	0.000008	-54.654455	-70.952326	-10.534661
32273	9.214831	-2.610186	1.777037	-0.001247	0.000886	-0.000008	-54.653221	-70.952801	-10.536387
32274	9.234214	-2.603177	1.804556	-0.001380	-0.004621	-0.000404	-54.659389	-70.955232	-10.527974
32275	9.203380	-2.588300	1.800484	-0.002388	-0.000435	0.003586	-54.664047	-70.954465	-10.524159
32276	9.234246	-2.603506	1.803917	0.002362	-0.007277	-0.000379	-54.672080	-70.957951	-10.514789
32277	9.234335	-2.603481	1.803499	-0.002999	-0.001605	-0.000283	-54.674959	-70.959380	-10.513227
32278	9.230942	-2.604375	1.827515	0.001380	-0.000848	-0.001858	-54.673317	-70.961224	-10.507461
32279	9.219707	-2.634331	1.799822	-0.000504	-0.003376	-0.000266	-54.677183	-70.963231	-10.503342
32280	9.231127	-2.604001	1.827110	-0.000479	-0.001132	-0.005735	-54.672577	-70.967126	-10.514797
32281	9.234688	-2.602754	1.802739	-0.000504	-0.003376	-0.000266	-54.676443	-70.969134	-10.510678
32282	9.231305	-2.603638	1.826730	0.000132	0.000038	-0.001866	-54.674520	-70.970889	-10.512541
32283	9.212051	-2.610304	1.799023	0.000397	0.000113	-0.005598	-54.668021	-70.974234	-10.518840
32284	9.231517	-2.602930	1.826665	0.000504	-0.002093	-0.001995	-54.667782	-70.976580	-10.518532
32285	9.231597	-2.602826	1.826412	-0.000504	-0.003376	-0.000266	-54.671651	-70.978588	-10.514411
32286	9.208865	-2.610726	1.822683	0.000132	0.000038	-0.001866	-54.669455	-70.980199	-10.513232
32287	9.227011	-2.578803	1.801911	-0.001512	0.000810	0.003723	-54.672060	-70.978955	-10.511058
32288	9.216854	-2.634114	1.822720	0.001859	-0.005184	0.001616	-54.679084	-70.980666	-10.500784
32289	9.235050	-2.602162	1.801736	-0.001247	0.000885	-0.000008	-54.677849	-70.981142	-10.502512
32290	9.230432	-2.578237	1.777257	-0.001883	-0.002528	0.001592	-54.683848	-70.982163	-10.497695
32291	9.212306	-2.610263	1.797775	-0.001619	-0.002453	-0.002140	-54.685305	-70.984741	-10.496800
32292	9.192816	-2.565119	1.821293	0.003610	-0.002694	0.001890	-54.688088	-70.985483	-10.490754
32293	9.254594	-2.647604	1.777506	-0.001007	0.004186	0.003990	-54.686080	-70.982996	-10.493154
32294	9.196087	-2.564545	1.797418	0.004617	-0.001411	0.000162	-54.685523	-70.984199	-10.486182
32295	9.238322	-2.601995	1.777264	-0.001776	0.000735	0.007455	-54.691967	-70.981234	-10.480108
32296	9.203875	-2.588437	1.797752	0.002734	0.001529	0.004014	-54.691743	-70.979646	-10.476768
32297	9.234516	-2.604090	1.801690	0.000215	0.001057	0.009467	-54.698539	-70.975634	-10.469114
32298	9.222799	-2.582789	1.825710	0.001594	0.000209	0.007609	-54.704333	-70.972798	-10.460197
32299	9.237423	-2.604910	1.777668	0.001066	0.000059	0.015074	-54.717369	-70.966494	-10.445426
32300	9.230136	-2.608087	1.826291	0.000217	0.006526	0.011729	-54.719250	-70.959763	-10.446383
32301	9.198895	-2.594238	1.822828	0.001065	0.000059	0.015076	-54.732273	-70.953456	-10.431626
32302	9.224712	-2.586677	1.802398	-0.000553	0.003076	0.015197	-54.742516	-70.946167	-10.423512
32303	9.206027	-2.620176	1.823458	-0.000685	0.003039	0.017065	-54.754392	-70.937943	-10.411028
32304	9.200967	-2.597643	1.799358	-0.000553	0.003076	0.015199	-54.765216	-70.930702	-10.398353
32305	9.231312	-2.614142	1.803552	0.001200	0.005565	0.015474	-54.771053	-70.922386	-10.391114
32306	9.201076	-2.625707	1.848651	0.000296	0.002078	0.020810	-54.787594	-70.912769	-10.372916
32307	9.223353	-2.619512	1.852342	-0.003685	0.001437	0.016786	-54.803048	-70.905201	-10.358462
32308	9.213750	-2.573113	1.803640	0.000798	-0.000016	0.018816	-54.820549	-70.897297	-10.340190
32309	9.225843	-2.621854	1.828267	-0.000316	0.000908	0.016942	-54.834911	-70.889828	-10.324846
32310	9.206025	-2.630319	1.800715	-0.000553	0.003077	0.015205	-54.845120	-70.882522	-10.315966
32311	9.224922	-2.624769	1.828734	-0.001799	0.003964	0.015197	-54.854524	-70.874860	-10.306769
32312	9.201700	-2.634046	1.825317	-0.002175	0.000626	0.013064	-54.867220	-70.869369	-10.293004
32313	9.231006	-2.625419	1.780826	-0.000789	0.005245	0.013469	-54.872658	-70.862094	-10.287391
32314	9.223718	-2.628443	1.829526	-0.001401	0.004076	0.009597	-54.876759	-70.857044	-10.282115
32315	9.226863	-2.628284	1.805764	0.000855	0.004470	0.007875	-54.876985	-70.852645	-10.281022
32316	9.203735	-2.637088	1.802518	0.000958	0.002264	0.011482	-54.884288	-70.847454	-10.273182
32317	9.218267	-2.606890	1.806245	-0.000258	0.005394	0.006000	-54.882123	-70.843629	-10.275296
32318	9.196299	-2.640360	1.851550	0.001356	0.002376	0.005879	-54.883228	-70.840921	-10.275000
32319	9.217854	-2.607934	1.806847	0.002602	0.001488	0.005887	-54.884586	-70.838436	-10.271649
32320	9.191457	-2.617156	1.827582	0.000745	0.001207	0.002006	-54.883750	-70.837811	-10.269727
32321	9.222178	-2.632660	1.831230	-0.003031	-0.003843	0.005190	-54.894865	-70.837410	-10.259464
32322	9.225624	-2.631872	1.806867	0.000133	0.000037	-0.001868	-54.892446	-70.839027	-10.260366
32323	9.217676	-2.608724	1.806609	-0.002123	-0.000356	-0.000146	-54.893278	-70.839979	-10.260439
32324	9.194864	-2.616735	1.802887	0.000235	-0.002168	0.001738	-54.897464	-70.840699	-10.254300
32325	9.229090	-2.631075	1.782411	0.001113	-0.000925	0.001876	-54.899126	-70.840889	-10.251531
32326	9.214176	-2.610011	1.830533	0.000878	0.001244	0.000138	-54.896658	-70.841264	-10.254346
32327	9.240434	-2.601099	1.810053	0.003369	-0.000531	0.000154	-54.894863	-70.842132	-10.253867
32328	9.191397	-2.617696	1.827111	0.002389	0.000431	-0.003590	-54.888964	-70.844549	-10.262759
32329	9.194928	-2.616535	1.802852	-0.000509	-0.003375	-0.000267	-54.892829	-70.846552	-10.258642
32330	9.214415	-2.609470	1.830098	-0.000885	-0.006713	-0.002402	-54.900230	-70.850832	-10.251864
32331	9.203212	-2.639371	1.801849	-0.000650	-0.008881	-0.000663	-54.911238	-70.854834	-10.240271
32332	9.222773	-2.632121	1.829006	-0.000111	-0.003263	-0.005870	-54.910085	-70.859580	-10.243033
32333	9.200137	-2.639682	1.825051	-0.001254	-0.004581	-0.002272	-54.914110	-70.862920	-10.239199
32334	9.218587	-2.607445	1.803809	-0.001121	-0.004544	-0.004140	-54.916522	-70.867158	-10.237443
32335	9.222279	-2.605930	1.779193	0.000390	-0.005357	-0.007867	-54.915345	-70.873377	-10.238119
32336	9.200795	-2.638328	1.823694	-0.002367	-0.003657	-0.004148	-54.917823	-70.877286	-10.230093
32337	9.227242	-2.628981	1.802808	0.002012	-0.002907	-0.005724	-54.914437	-70.881693	-10.232122
32338	9.216059	-2.606241	1.826420	-0.000856	-0.004470	-0.007875	-54.912999	-70.887642	-10.233705
32339	9.216340	-2.605687	1.825793	-0.000384	-0.008807	-0.004397	-54.920231	-70.893369	-10.225950
32340	9.201799	-2.636279	1.821591	0.000862	-0.009694	-0.004389	-54.927740	-70.899349	-10.218613
32341	9.228337	-2.626981	1.800115	-0.002507	-0.009163	-0.004542	-54.936543	-70.905261	-10.210482
32342	9.240014	-2.648804	1.775283	-0.003885	-0.008313	-0.002682	-54.947285	-70.910092	-10.200138
32343	9.224250	-2.602398	1.774137	-0.001999	-0.005788	-0.004275	-54.951485	-70.914768	-10.196571
32344	9.221025	-2.603021	1.797728	-0.003245	-0.004901	-0.004283	-54.955422	-70.919279	-10.197749
32345	9.217727	-2.603818	1.821449	-0.000508	-0.003375	-0.000266	-54.959312	-70.921280	-10.193606
32346	9.225879	-2.626623	1.821228	-0.003113	-0.004864	-0.006150	-54.961794	-70.926673	-10.193547
32347	9.206687	-2.633225	1.793069	0.000870	-0.004225	-0.002125	-54.964280	-70.929826	-10.190055
32348	9.233048	-2.624136	1.772112	-0.003746	-0.002808	-0.002286	-54.967799	-70.932723	-10.190752
32349	9.255869	-2.564001	1.827014	0.000877	0.001244	0.000137	-54.965013	-70.933016	-10.192834
32350	9.206848	-2.633143	1.792360	-0.002526	-0.005938	0.003196	-54.977275	-70.934283	-10.180336
32351	9.236496	-2.623446	1.747422	-0.001615	0.003018	0.000121	-54.973493	-70.934000	-10.184982
32352	9.206805	-2.581186	1.843646	0.004985	-0.003548	0.000031	-54.975562	-70.936076	-10.180161
32353	9.229699	-2.625524	1.795253	-0.006773	-0.006652	0.002907	-54.990516	-70.937665	-10.168111
32354	9.244490	-2.594800	1.798345	0.001623	0.002450	0.002141	-54.988191	-70.936728	-10.169209
32355	9.199981	-2.635686	1.839880	0.000132	0.000037	-0.001868	-54.985564	-70.938359	-10.171575
32356	9.225060	-2.601834	1.770746	0.000983	-0.000962	0.003743	-54.989601	-70.937707	-10.164345
32357	9.229599	-2.625952	1.795142	0.001009	0.001281	-0.001731	-54.984912	-70.938864	-10.168361
32358	9.228407	-2.601020	1.746768	0.000614	0.001169	0.003872	-54.986438	-70.937577	-10.168887
32359	9.229478	-2.626129	1.795505	0.000640	0.003412	-0.001602	-54.979189	-70.937973	-10.175835
32360	9.198629	-2.610925	1.792073	0.000508	0.003375	0.000266	-54.974459	-70.937556	-10.178019
32361	9.244143	-2.595166	1.799601	0.000008	0.005469	0.002262	-54.968459	-70.935462	-10.184029
32362	9.194966	-2.612042	1.817217	0.001149	0.006787	-0.001336	-54.957458	-70.934801	-10.195416
32363	9.229106	-2.626214	1.797291	0.001623	0.002450	0.002141	-54.954516	-70.933756	-10.197211
32364	9.228988	-2.626314	1.797750	0.001017	0.006750	0.000532	-54.945154	-70.932195	-10.208066
32365	9.232244	-2.625446	1.774358	0.003885	0.008313	0.002682	-54.933477	-70.928967	-10.217732
32366	9.217191	-2.604502	1.823184	0.002131	0.005826	0.002408	-54.926751	-70.926856	-10.224069
32367	9.228510	-2.626609	1.799773	0.001518	0.004656	-0.001464	-54.917446	-70.926776	-10.232660
32368	9.251243	-2.618520	1.803971	0.002026	0.008031	-0.001198	-54.904320	-70.925568	-10.243928
32369	9.189467	-2.588254	1.797290	0.006008	0.008670	0.002828	-54.891093	-70.922152	-10.253947
32370	9.224704	-2.627334	1.826149	0.001650	0.004693	-0.003332	-54.880255	-70.922940	-10.262138
32371	9.220067	-2.603153	1.802441	0.000648	0.008881	0.000662	-54.867755	-70.920469	-10.274639
32372	9.216487	-2.604152	1.827240	0.001385	0.004619	0.000404	-54.860253	-70.919533	-10.283509
32373	9.219907	-2.603012	1.803465	0.002019	0.002562	-0.003460	-54.851598	-70.921075	-10.291109
32374	9.216451	-2.603732	1.828018	0.000272	0.005543	-0.001472	-54.842429	-70.920756	-10.298239
32375	9.219968	-2.602412	1.804020	0.002013	-0.002907	-0.005723	-54.839024	-70.925162	-10.300287
32376	9.213329	-2.655852	1.800855	0.001407	0.001393	-0.007332	-54.829523	-70.928944	-10.304435
32377	9.243012	-2.593419	1.807910	0.000271	0.005543	-0.001472	-54.819724	-70.928570	-10.314304
32378	9.216809	-2.602049	1.828609	0.003127	-0.003831	-0.003847	-54.819039	-70.932533	-10.316134
32379	9.224939	-2.624566	1.828936	0.001915	0.004768	-0.007066	-54.804003	-70.935034	-10.330547
32380	9.225032	-2.624036	1.829233	0.002388	0.000432	-0.003589	-54.797901	-70.937387	-10.337825
32381	9.217082	-2.600627	1.829258	-0.000473	0.004336	-0.003477	-54.788243	-70.938349	-10.347996
32382	9.224055	-2.598354	1.781065	0.000635	-0.002057	-0.003864	-54.786712	-70.941603	-10.346260
32383	9.225250	-2.623081	1.829502	0.000133	0.000037	-0.001867	-54.784070	-70.943231	-10.348642
32384	9.220764	-2.598889	1.805026	-0.002868	-0.001564	-0.002151	-54.785370	-70.945618	-10.350366
32385	9.247072	-2.589815	1.784414	0.001009	0.001281	-0.001730	-54.780669	-70.946770	-10.354393
32386	9.232328	-2.620651	1.780996	-0.001621	-0.002451	-0.002142	-54.782492	-70.949423	-10.353952
32387	9.217501	-2.599428	1.828850	0.000369	-0.002131	-0.000129	-54.784315	-70.950954	-10.351465
32388	9.220934	-2.598368	1.804909	0.002394	0.005901	-0.001326	-54.773281	-70.950383	-10.359158
32389	9.217457	-2.599187	1.829415	-0.002360	0.001811	-0.001884	-54.769645	-70.951432	-10.364102
32390	9.220885	-2.598175	1.805436	-0.001616	0.003018	0.000121	-54.766612	-70.951317	-10.369111
32391	9.251633	-2.613411	1.809371	-0.001379	0.000850	0.001859	-54.767299	-70.950932	-10.368886
32392	9.232200	-2.620584	1.781756	-0.000502	0.002094	0.001996	-54.766572	-70.950174	-10.369137
32393	9.240024	-2.591614	1.833666	0.000507	0.003375	0.000267	-54.761232	-70.949700	-10.374145
32394	9.236669	-2.644485	1.806737	-0.000341	0.004374	-0.005343	-54.750807	-70.951816	-10.388229
32395	9.220674	-2.598122	1.806589	-0.000370	0.002131	0.000129	-54.747523	-70.951817	-10.391593
32396	9.228622	-2.621204	1.807065	0.000507	0.003375	0.000267	-54.742635	-70.951433	-10.396897
32397	9.220583	-2.598057	1.807148	0.001886	0.002526	-0.001592	-54.735876	-70.952108	-10.402571
32398	9.224050	-2.596832	1.783309	0.000773	0.003450	-0.003467	-54.726903	-70.953392	-10.411825
32399	9.201250	-2.604534	1.780062	0.000640	0.003412	-0.001600	-54.719647	-70.953777	-10.418780
32400	9.217138	-2.598285	1.832301	-0.000474	0.004336	-0.003476	-54.710308	-70.954747	-10.427370
32401	9.217064	-2.598234	1.832747	0.000004	0.005469	0.002263	-54.704335	-70.952644	-10.433353
32402	9.216950	-2.598291	1.833238	-0.003099	0.006073	-0.001626	-54.696002	-70.952220	-10.443648
32403	9.280914	-2.602291	1.768705	0.008389	0.003636	-0.003019	-54.682643	-70.953193	-10.452362
32404	9.167707	-2.614822	1.851560	-0.002351	0.012749	0.002643	-54.669084	-70.948679	-10.471003
32405	9.242846	-2.589280	1.814677	-0.000503	0.002094	0.001996	-54.667720	-70.947818	-10.472417
32406	9.197109	-2.605276	1.808024	0.004014	0.008352	0.000820	-54.654672	-70.945542	-10.484434
32407	9.219713	-2.597386	1.812544	-0.003095	0.011542	0.000638	-54.640709	-70.942184	-10.500749
32408	9.216051	-2.598515	1.837434	0.000004	0.005469	0.002264	-54.635116	-70.940218	-10.509562
32409	9.226255	-2.595818	1.765774	0.003511	0.010446	0.002818	-54.620950	-70.936203	-10.522089
32410	9.189350	-2.607778	1.859617	-0.003602	0.008167	0.000371	-54.612865	-70.934180	-10.527306
32411	9.214432	-2.573945	1.791159	-0.001109	0.006393	0.000389	-54.604499	-70.932643	-10.536497
32412	9.218763	-2.598216	1.816181	-0.001746	0.008450	0.004253	-54.598485	-70.928831	-10.544285
32413	9.222060	-2.597545	1.792536	0.001620	0.002451	0.002144	-54.595570	-70.927782	-10.546054
32414	9.226421	-2.621863	1.817319	-0.001376	0.006319	0.004124	-54.591384	-70.924502	-10.548185
32415	9.183955	-2.584941	1.837899	0.001250	0.004582	0.002274	-54.585928	-70.922685	-10.552867
32416	9.199829	-2.631271	1.838700	-0.001750	0.002981	0.001988	-54.584172	-70.921617	-10.558664
32417	9.240832	-2.591389	1.821913	0.000272	0.005544	-0.001469	-54.574387	-70.921228	-10.568520
32418	9.217993	-2.599250	1.818609	0.002123	0.000357	0.000148	-54.572801	-70.921849	-10.565456
32419	9.237313	-2.592195	1.846459	-0.002359	0.001811	-0.001885	-54.569162	-70.922894	-10.570403
32420	9.248758	-2.614234	1.822830	0.001384	0.004620	0.000407	-54.562267	-70.922003	-10.576070
32421	9.217910	-2.598951	1.819458	0.001652	0.004694	-0.003327	-54.551053	-70.922762	-10.586600
32422	9.199672	-2.630585	1.840469	0.000268	0.000074	-0.003734	-54.547156	-70.925304	-10.587882
32423	9.218023	-2.598189	1.819975	0.000540	0.005618	-0.005203	-54.533527	-70.926631	-10.601642
32424	9.195258	-2.605792	1.816677	0.002257	0.000395	-0.001719	-54.529747	-70.928156	-10.604556
32425	9.229441	-2.567513	1.847841	0.001515	-0.000813	-0.003725	-54.525656	-70.930930	-10.607633
32426	9.222728	-2.621316	1.844682	0.000134	0.000037	-0.001867	-54.523860	-70.932654	-10.606793
32427	9.221732	-2.596167	1.796216	-0.002359	0.001811	-0.001885	-54.520217	-70.933698	-10.611744
32428	9.214763	-2.597866	1.844795	0.001652	0.004694	-0.003326	-54.508923	-70.934397	-10.621635
32429	9.249076	-2.611689	1.824862	-0.001348	0.003092	-0.003613	-54.501306	-70.935820	-10.630178
32430	9.252642	-2.610213	1.801064	0.003166	0.003882	-0.007051	-54.486795	-70.938643	-10.645595
32431	9.192093	-2.604476	1.842439	0.001281	0.006825	-0.003196	-54.473031	-70.938627	-10.659046
32432	9.221889	-2.594255	1.798174	0.001145	0.001319	-0.003595	-54.467026	-70.940802	-10.666660
32433	9.206869	-2.572876	1.846696	0.002023	0.008033	-0.001190	-54.453141	-70.939448	-10.679790
32434	9.199053	-2.601780	1.795379	0.002627	-0.001736	-0.001849	-54.451664	-70.941654	-10.678491
32435	9.229945	-2.616512	1.799337	0.002156	0.002600	-0.005322	-54.441047	-70.944034	-10.688083
32436	9.226598	-2.616929	1.823521	0.002020	-0.002906	-0.005721	-54.437968	-70.948343	-10.683884
32437	9.223253	-2.617267	1.847801	0.001920	0.004768	-0.007059	-54.422879	-70.950809	-10.698350
32438	9.218889	-2.592517	1.823672	0.005154	-0.001267	-0.007300	-54.414032	-70.955419	-10.704471
32439	9.188254	-2.576685	1.819973	0.002290	0.002637	-0.007188	-54.401474	-70.958654	-10.716035
32440	9.241948	-2.583288	1.827745	0.002021	0.002563	-0.003455	-54.393034	-70.960323	-10.727601
32441	9.227224	-2.613943	1.824634	0.003268	0.001677	-0.003446	-54.384824	-70.962134	-10.733971
32442	9.219280	-2.590431	1.824658	0.002156	0.002600	-0.005321	-54.374523	-70.964415	-10.737969
32443	9.207803	-2.568057	1.848749	0.002123	0.000358	0.000148	-54.372223	-70.964992	-10.738781
32444	9.188531	-2.575143	1.820754	-0.003639	-0.005016	0.001310	-54.381515	-70.966815	-10.732331
32445	9.235208	-2.584278	1.876079	-0.000506	-0.003376	-0.000269	-54.385359	-70.968832	-10.728236
32446	9.222949	-2.589353	1.799801	-0.000876	-0.001245	-0.000139	-54.387341	-70.970135	-10.723966
32447	9.242260	-2.582350	1.827493	0.000000	0.000000	0.000000	-54.386598	-70.970901	-10.724418
32448	9.219385	-2.590498	1.824031	0.000237	0.003302	0.004002	-54.385218	-70.968738	-10.727456
32449	9.238537	-2.583760	1.852150	0.002494	0.003697	0.002284	-54.380263	-70.967207	-10.730852
32450	9.219053	-2.591101	1.824856	0.003101	0.004868	0.006156	-54.378025	-70.963694	-10.732532
32451	9.230345	-2.613715	1.801350	0.001349	0.002379	0.005878	-54.378983	-70.960928	-10.730366
32452	9.218614	-2.592142	1.825596	0.000979	0.004510	0.006008	-54.377165	-70.957408	-10.734694
32453	9.206867	-2.570590	1.849890	-0.001144	0.004151	0.005860	-54.377141	-70.954059	-10.735079
32454	9.240945	-2.585371	1.829871	-0.000909	0.001984	0.007597	-54.381993	-70.950649	-10.728649
32455	9.222415	-2.617987	1.850962	-0.000268	0.005396	0.005999	-54.379923	-70.946820	-10.730667
32456	9.206129	-2.572511	1.850888	-0.001279	0.004115	0.007727	-54.382071	-70.942815	-10.735429
32457	9.217414	-2.595061	1.827505	0.004247	0.006185	0.002564	-54.373033	-70.940322	-10.742084
32458	9.220729	-2.594519	1.803734	0.001584	0.000210	0.007616	-54.378861	-70.937507	-10.733595
32459	9.217035	-2.596097	1.827945	-0.002897	0.001663	0.005582	-54.382927	-70.935118	-10.730716
32460	9.197296	-2.551579	1.851804	-0.001279	0.004115	0.007728	-54.385686	-70.931119	-10.730392
32461	9.220054	-2.596528	1.804293	-0.002156	0.002871	0.007588	-54.389635	-70.927392	-10.727188
32462	9.216279	-2.598210	1.828756	0.000844	0.004472	0.007877	-54.390618	-70.923128	-10.726178
32463	9.227312	-2.568794	1.856672	-0.001144	0.004152	0.005861	-54.390594	-70.919778	-10.726564
32464	9.189498	-2.608364	1.849868	0.001583	0.000210	0.007618	-54.396754	-70.916979	-10.715881
32465	9.226873	-2.569949	1.857252	-0.000502	0.007564	0.004264	-54.390228	-70.913236	-10.722758
32466	9.188961	-2.609732	1.850605	-0.003438	0.001516	0.013051	-54.401823	-70.907406	-10.713777
32467	9.245790	-2.616960	1.833942	-0.002663	-0.000504	0.007320	-54.410340	-70.904929	-10.706047
32468	9.234100	-2.595508	1.857842	-0.004144	0.002551	0.005573	-54.414341	-70.902359	-10.705641
32469	9.210129	-2.579124	1.805780	-0.003033	0.001627	0.007451	-54.420324	-70.899111	-10.700816
32470	9.207305	-2.605986	1.878513	-0.003303	0.001553	0.011186	-54.430594	-70.894173	-10.689905
32471	9.202754	-2.635193	1.802528	-0.004688	-0.003066	0.010776	-54.447032	-70.890937	-10.675017
32472	9.244572	-2.621382	1.833762	-0.003303	0.001553	0.011187	-54.457939	-70.886139	-10.664062
32473	9.156404	-2.600980	1.846504	-0.004045	0.000346	0.009180	-54.467875	-70.882510	-10.655667
32474	9.216734	-2.607197	1.805868	-0.001413	0.004078	0.009600	-54.472184	-70.877464	-10.649347
32475	9.212876	-2.609168	1.830300	-0.003672	0.003685	0.011319	-54.479463	-70.871726	-10.643536
32476	9.235365	-2.602265	1.834091	-0.003168	0.001590	0.009321	-54.487632	-70.867662	-10.636838
32477	9.181530	-2.595928	1.826545	-0.002800	-0.000541	0.009190	-54.498044	-70.864322	-10.627182
32478	9.212088	-2.611898	1.830373	-0.001787	0.000740	0.007463	-54.505011	-70.861361	-10.617328
32479	9.234696	-2.604696	1.834008	-0.000541	-0.000148	0.007472	-54.511948	-70.858691	-10.609980
32480	9.211690	-2.613293	1.830386	0.001582	0.000208	0.007621	-54.517407	-70.855772	-10.600740
32481	9.230669	-2.607260	1.858435	-0.005285	0.006705	0.011443	-54.521652	-70.848970	-10.599118
32482	9.207562	-2.616057	1.855017	0.004073	-0.001569	0.007641	-54.528400	-70.846740	-10.588706
32483	9.210835	-2.615787	1.831124	-0.001645	0.006247	0.007865	-54.527747	-70.841759	-10.590061
32484	9.214119	-2.615542	1.807143	-0.000174	-0.002280	0.007342	-54.537968	-70.839990	-10.578928
32485	9.241230	-2.632197	1.835119	0.000607	0.001169	0.003877	-54.539026	-70.838559	-10.577105
32486	9.206828	-2.618258	1.855554	-0.001749	0.002983	0.001990	-54.537747	-70.837428	-10.576565
32487	9.213807	-2.616509	1.807336	0.002356	-0.001813	0.001887	-54.539906	-70.837917	-10.572517
32488	9.206684	-2.618613	1.855771	-0.002116	0.005114	0.002121	-54.535680	-70.836064	-10.580624
32489	9.236474	-2.608821	1.811413	0.001013	0.001280	-0.001728	-54.530995	-70.837211	-10.584635
32490	9.203147	-2.619482	1.880120	0.002859	-0.003908	-0.000112	-54.534287	-70.839482	-10.581348
32491	9.233017	-2.609639	1.835433	-0.000368	0.002132	0.000131	-54.531028	-70.839479	-10.584687
32492	9.210184	-2.617548	1.831885	0.000000	0.000000	-0.000000	-54.530515	-70.840357	-10.588019
32493	9.206687	-2.618421	1.856028	0.000135	0.000037	-0.001868	-54.527868	-70.841983	-10.590406
32494	9.218197	-2.640365	1.832206	0.001013	0.001280	-0.001728	-54.523293	-70.843132	-10.594248
32495	9.210289	-2.617019	1.832112	0.001149	0.001317	-0.003596	-54.516690	-70.845138	-10.600209
32496	9.229621	-2.609892	1.859944	0.001246	-0.000888	0.000009	-54.516500	-70.846146	-10.597659
32497	9.210350	-2.616732	1.832210	0.001013	0.001280	-0.001728	-54.511812	-70.847293	-10.601674
32498	9.198863	-2.594532	1.856272	-0.000368	0.002132	0.000131	-54.509290	-70.847343	-10.601197
32499	9.218344	-2.639558	1.832626	0.000639	-0.002058	-0.003867	-54.507251	-70.850598	-10.602635
32500	9.233258	-2.608313	1.836105	0.000645	0.003412	-0.001597	-54.500894	-70.851087	-10.606913
32501	9.202510	-2.592867	1.832503	0.003272	0.001673	-0.003447	-54.492736	-70.852904	-10.613231
32502	9.241286	-2.630756	1.836900	0.002026	0.002561	-0.003456	-54.484690	-70.854489	-10.618689
32503	9.206127	-2.591187	1.808916	0.002026	0.002561	-0.003456	-54.476041	-70.856015	-10.626281
32504	9.199151	-2.592728	1.857365	0.003640	-0.000459	-0.003577	-54.470715	-70.858682	-10.630966
32505	9.222210	-2.636608	1.809637	-0.000974	0.000962	-0.003746	-54.465653	-70.860875	-10.636581
32506	9.210763	-2.614233	1.833702	0.001891	0.002524	-0.001588	-54.459811	-70.861721	-10.642098
32507	9.184468	-2.622898	1.854293	0.002627	-0.001739	-0.001849	-54.458134	-70.863928	-10.641947
32508	9.210841	-2.613924	1.833751	0.000000	0.000000	0.000000	-54.457542	-70.864683	-10.641540
32509	9.214421	-2.612782	1.809594	0.001517	-0.000814	-0.003727	-54.453455	-70.867458	-10.644613
32510	9.214488	-2.612508	1.809649	0.001013	0.001280	-0.001728	-54.449249	-70.868690	-10.648311
32511	9.225815	-2.582376	1.837300	0.002123	0.000356	0.000150	-54.446963	-70.869268	-10.649109
32512	9.233779	-2.605340	1.837708	0.003136	0.001636	-0.001578	-54.441531	-70.870378	-10.652869
32513	9.207416	-2.614110	1.858483	0.000509	0.003375	0.000271	-54.436230	-70.869893	-10.657838
32514	9.218956	-2.636034	1.834620	0.003131	-0.003834	-0.003847	-54.435514	-70.873826	-10.658164
32515	9.225919	-2.581673	1.837768	0.001891	0.002524	-0.001588	-54.428777	-70.874491	-10.663814
32516	9.219061	-2.635560	1.834771	0.000136	0.000037	-0.001868	-54.426658	-70.876272	-10.668247
32517	9.211174	-2.612234	1.834486	-0.001852	-0.000282	-0.003886	-54.423628	-70.878943	-10.672244
32518	9.211278	-2.611988	1.834315	-0.001619	-0.002451	-0.002148	-54.425520	-70.881548	-10.668834
32519	9.211387	-2.611808	1.834022	-0.000374	-0.003338	-0.002139	-54.427431	-70.884424	-10.666705
32520	9.203461	-2.588737	1.833566	-0.002259	-0.000393	0.001718	-54.430461	-70.884603	-10.666356
32521	9.211446	-2.611827	1.833703	-0.000742	-0.001207	-0.002008	-54.429843	-70.886708	-10.667127
32522	9.222803	-2.581799	1.861030	-0.001890	-0.002524	0.001588	-54.435641	-70.887697	-10.663168
32523	9.208029	-2.612851	1.857216	0.001105	-0.006394	-0.000392	-54.442498	-70.890777	-10.654907
32524	9.203657	-2.588947	1.832286	-0.000412	-0.005580	0.003335	-54.453208	-70.891922	-10.643350
32525	9.215181	-2.611295	1.807872	-0.000276	-0.005543	0.001467	-54.461503	-70.893851	-10.634406
32526	9.208231	-2.613260	1.855638	-0.000141	-0.005507	-0.000401	-54.468705	-70.896708	-10.623693
32527	9.246125	-2.626476	1.810866	0.001614	-0.003019	-0.000121	-54.470996	-70.898536	-10.619957
32528	9.203892	-2.589271	1.830644	-0.003136	-0.001636	0.001579	-54.476043	-70.899074	-10.613649
32529	9.230196	-2.580412	1.810232	0.002768	0.003768	-0.001448	-54.467258	-70.899262	-10.620934
32530	9.234632	-2.604444	1.834688	-0.001890	-0.002524	0.001588	-54.472666	-70.900205	-10.618557
32531	9.226643	-2.581623	1.834200	0.000098	-0.002205	0.003606	-54.478313	-70.900024	-10.612189
32532	9.203770	-2.589785	1.830530	0.000742	0.001207	0.002008	-54.478171	-70.899548	-10.610601
32533	9.215141	-2.612254	1.806690	-0.000406	-0.000110	0.005604	-54.483206	-70.897738	-10.605185
32534	9.230806	-2.606682	1.858565	0.000975	-0.000961	0.003746	-54.487292	-70.897108	-10.598162
32535	9.234224	-2.606155	1.834313	-0.001283	-0.001354	0.005465	-54.494369	-70.895777	-10.591118
32536	9.207812	-2.615446	1.854639	0.000097	-0.002205	0.003606	-54.500541	-70.895682	-10.584376
32537	9.234039	-2.606958	1.834100	-0.004007	0.002590	0.003708	-54.502179	-70.893857	-10.584739
32538	9.233895	-2.607428	1.834157	-0.000406	-0.000110	0.005605	-54.507366	-70.892047	-10.578872
32539	9.237315	-2.606822	1.810003	-0.000135	-0.000037	0.001868	-54.508555	-70.891954	-10.577362
32540	9.210878	-2.616029	1.830563	0.000472	0.001133	0.005745	-54.512059	-70.889742	-10.572809
32541	9.217765	-2.614641	1.782261	-0.001284	-0.001354	0.005465	-54.519132	-70.888410	-10.565768
32542	9.207091	-2.617878	1.854787	-0.000871	0.004226	0.002129	-54.515376	-70.886715	-10.567558
32543	9.221867	-2.587080	1.858333	0.001110	-0.000925	0.001878	-54.517057	-70.886913	-10.564773
32544	9.176178	-2.603129	1.851026	-0.000271	-0.000074	0.003737	-54.520976	-70.886020	-10.557154
32545	9.233193	-2.609899	1.834179	-0.003040	-0.003841	0.005185	-54.532134	-70.885645	-10.546855
32546	9.210326	-2.618073	1.830419	-0.000368	0.002132	0.000131	-54.529128	-70.885724	-10.551998
32547	9.233166	-2.610178	1.833917	-0.001388	-0.004618	-0.000410	-54.535018	-70.888218	-10.546271
32548	9.202438	-2.595077	1.829736	-0.001013	-0.001280	0.001729	-54.538578	-70.888625	-10.542009
32549	9.221870	-2.640375	1.805871	-0.001756	-0.002487	-0.000280	-54.541935	-70.890349	-10.539187
32550	9.198992	-2.596133	1.853393	-0.001756	-0.002487	-0.000280	-54.545514	-70.892136	-10.537758
32551	9.210521	-2.618174	1.829291	-0.000743	-0.001207	-0.002008	-54.544909	-70.894241	-10.538515
32552	9.210528	-2.618278	1.829106	-0.003272	-0.001672	0.003448	-54.552144	-70.894041	-10.532810
32553	9.225396	-2.587480	1.832217	-0.000510	-0.003375	-0.000270	-54.555996	-70.896056	-10.528709
32554	9.225362	-2.587656	1.832142	-0.000638	0.002058	0.003868	-54.557166	-70.894445	-10.527713
32555	9.202404	-2.596076	1.828488	-0.000173	-0.002279	0.007343	-54.566651	-70.892541	-10.517447
32556	9.210264	-2.619665	1.828451	-0.000781	-0.003449	0.003467	-54.575035	-70.892944	-10.508385
32557	9.210177	-2.620093	1.828272	-0.000405	-0.000111	0.005606	-54.580062	-70.891131	-10.502978
32558	9.187275	-2.628414	1.824461	-0.000781	-0.003449	0.003467	-54.588434	-70.891510	-10.493128
32559	9.224932	-2.589791	1.831288	0.001110	-0.000925	0.001878	-54.590118	-70.891708	-10.490340
32560	9.202097	-2.597836	1.827531	0.000232	-0.002168	0.001738	-54.594279	-70.892455	-10.486148
32561	9.232800	-2.613293	1.831322	-0.001515	0.000815	0.003728	-54.596895	-70.891211	-10.483965
32562	9.224763	-2.590535	1.831089	0.004344	-0.001496	0.003905	-54.600144	-70.890738	-10.476262
32563	9.216738	-2.567856	1.830689	-0.002162	-0.002597	0.005327	-54.609259	-70.889880	-10.467592
32564	9.209666	-2.622450	1.827472	-0.000772	0.002021	0.005737	-54.612386	-70.887395	-10.463822
32565	9.228770	-2.616141	1.855382	0.000338	0.001096	0.007615	-54.617280	-70.884241	-10.458104
32566	9.220674	-2.593578	1.855191	-0.000270	-0.000074	0.003738	-54.620741	-70.883418	-10.457267
32567	9.231930	-2.616238	1.831499	0.000849	0.004471	0.007886	-54.621051	-70.879019	-10.456091
32568	9.231719	-2.616870	1.831662	-0.002529	-0.000465	0.005458	-54.628040	-70.877478	-10.450852
32569	9.242983	-2.639612	1.807805	0.002461	0.001450	0.007765	-54.631378	-70.874137	-10.445493
32570	9.231382	-2.617926	1.831852	-0.002625	0.001741	0.001851	-54.632041	-70.873490	-10.444517
32571	9.208377	-2.626269	1.828482	0.000849	0.004470	0.007886	-54.632349	-70.869090	-10.443342
32572	9.234474	-2.618063	1.808275	-0.000772	0.002021	0.005738	-54.635179	-70.866607	-10.442605
32573	9.207970	-2.627338	1.828996	0.001486	0.002412	0.004018	-54.634195	-70.864698	-10.442411
32574	9.245528	-2.588855	1.836311	0.000241	0.003301	0.004009	-54.633002	-70.862581	-10.445161
32575	9.207671	-2.627969	1.829595	0.000377	0.003338	0.002140	-54.629613	-70.861242	-10.448187
32576	9.230346	-2.620362	1.833589	0.002365	0.003655	0.004158	-54.627169	-70.858973	-10.449965
32577	9.207334	-2.628686	1.830260	-0.002018	0.002910	0.005729	-54.629158	-70.856099	-10.448750
32578	9.229942	-2.621301	1.834279	-0.001370	0.006322	0.004131	-54.625259	-70.852938	-10.453437
32579	9.221864	-2.598600	1.834260	-0.002395	-0.000427	0.003589	-54.629911	-70.852171	-10.449632
32580	9.229696	-2.621885	1.834682	0.001391	0.004617	0.000411	-54.622752	-70.851284	-10.458134
32581	9.244464	-2.591024	1.838608	0.002134	0.005824	0.002421	-54.615284	-70.848989	-10.464413
32582	9.175847	-2.614803	1.828184	0.002500	0.003692	0.002290	-54.610999	-70.847499	-10.464423
32583	9.229286	-2.622270	1.836193	-0.001099	0.006395	0.000393	-54.602679	-70.845961	-10.473564
32584	9.194876	-2.608223	1.856837	-0.001883	0.002947	0.003860	-54.603346	-70.844077	-10.474953
32585	9.217568	-2.600659	1.860707	-0.001747	0.002984	0.001991	-54.601513	-70.842924	-10.477621
32586	9.194638	-2.608795	1.857214	0.001852	0.000280	0.003888	-54.603731	-70.841883	-10.473461
32587	9.236686	-2.646529	1.837380	-0.003127	0.003837	0.003851	-54.603320	-70.839579	-10.475460
32588	9.197977	-2.608328	1.833318	-0.000743	-0.001206	-0.002010	-54.603308	-70.841794	-10.476175
32589	9.205917	-2.631357	1.833545	-0.002490	0.001778	-0.000019	-54.601602	-70.841980	-10.479158
32590	9.197982	-2.608286	1.833352	0.000000	0.000000	-0.000000	-54.601304	-70.842833	-10.480028
32591	9.205901	-2.631379	1.833594	0.000000	0.000000	-0.000000	-54.600581	-70.843601	-10.480461
32592	9.232270	-2.622459	1.813149	0.002259	0.000390	-0.001720	-54.596658	-70.845070	-10.482801
32593	9.194495	-2.609079	1.857522	-0.005492	0.000182	-0.000309	-54.598542	-70.845922	-10.483805
32594	9.205914	-2.631495	1.833365	0.000325	-0.004374	0.005346	-54.608630	-70.845639	-10.473126
32595	9.228800	-2.623771	1.836492	-0.000890	-0.006712	-0.002412	-54.615140	-70.849761	-10.466441
32596	9.217475	-2.601613	1.859835	-0.001527	-0.004654	0.001458	-54.623497	-70.851488	-10.458542
32597	9.221081	-2.600642	1.835302	-0.000377	-0.003338	-0.002141	-54.625437	-70.854362	-10.456385
32598	9.224696	-2.599582	1.810841	-0.000513	-0.003375	-0.000271	-54.630088	-70.856544	-10.452760
32599	9.201895	-2.607527	1.806965	-0.001014	-0.001280	0.001729	-54.633321	-70.856928	-10.449620
32600	9.221144	-2.600897	1.834624	-0.002395	-0.000427	0.003589	-54.638113	-70.856187	-10.446416
32601	9.209713	-2.578919	1.858262	0.001977	-0.005153	-0.000253	-54.642953	-70.858781	-10.439760
32602	9.214192	-2.655084	1.831079	-0.000366	0.002132	0.000131	-54.640170	-70.858927	-10.445521
32603	9.198335	-2.609075	1.830458	-0.001663	-0.004691	0.003328	-54.649895	-70.859695	-10.435903
32604	9.202826	-2.633245	1.854201	0.002709	-0.009417	-0.000515	-54.660210	-70.863849	-10.421795
32605	9.232835	-2.623403	1.808904	-0.000147	-0.005506	-0.000402	-54.666607	-70.866629	-10.414780
32606	9.232913	-2.623467	1.808413	-0.001527	-0.004654	0.001459	-54.675138	-70.868370	-10.406166
32607	9.221515	-2.601491	1.831916	-0.000648	-0.003411	0.001599	-54.680913	-70.869521	-10.400114
32608	9.232949	-2.623863	1.807652	0.000461	-0.004337	0.003477	-54.689422	-70.870125	-10.389811
32609	9.191740	-2.611632	1.875663	0.000219	-0.007638	-0.000532	-54.698366	-70.873672	-10.379879
32610	9.206756	-2.632954	1.827030	-0.001662	-0.004691	0.003329	-54.708462	-70.874471	-10.369372
32611	9.202439	-2.609045	1.801998	-0.000660	-0.008881	-0.000672	-54.719459	-70.878493	-10.357801
32612	9.234177	-2.649422	1.853698	-0.000417	-0.005580	0.003338	-54.730096	-70.879596	-10.346276
32613	9.221891	-2.602527	1.828548	-0.003651	-0.005007	0.001311	-54.739478	-70.881408	-10.338228
32614	9.256217	-2.616868	1.807774	0.001976	-0.005153	-0.000252	-54.744822	-70.884083	-10.331634
32615	9.199189	-2.610444	1.824201	-0.003368	0.000536	-0.000157	-54.745160	-70.884747	-10.332985
32616	9.225534	-2.601796	1.803378	0.000827	-0.006469	0.003347	-54.756474	-70.886129	-10.318220
32617	9.218586	-2.603956	1.851028	-0.004530	-0.006250	0.001172	-54.767910	-70.888415	-10.308531
32618	9.207197	-2.634236	1.822956	-0.004151	-0.002912	0.003312	-54.777295	-70.888818	-10.305533
32619	9.222096	-2.603643	1.825924	-0.001662	-0.004691	0.003330	-54.787043	-70.889578	-10.295892
32620	9.233554	-2.625939	1.801539	-0.001392	-0.004617	-0.000410	-54.793676	-70.892147	-10.288126
32621	9.199341	-2.611923	1.821318	-0.003920	-0.005081	0.005051	-54.806890	-70.892228	-10.276187
32622	9.222077	-2.604622	1.824623	-0.003772	0.000425	0.005452	-54.813095	-70.890312	-10.271559
32623	9.221948	-2.605184	1.824471	-0.003407	-0.001707	0.005322	-54.821710	-70.889152	-10.264175
32624	9.198993	-2.613611	1.820653	-0.005896	0.000072	0.005305	-54.829766	-70.887497	-10.259715
32625	9.225173	-2.605198	1.800310	0.000014	0.005469	0.002271	-54.823816	-70.885397	-10.265672
32626	9.210080	-2.636534	1.797202	-0.002893	0.001667	0.005592	-54.828007	-70.883073	-10.264940
32627	9.217846	-2.608141	1.848819	-0.000174	-0.002281	0.007349	-54.837470	-70.881152	-10.254697
32628	9.209788	-2.637581	1.797160	0.001624	0.002448	0.002149	-54.835070	-70.880215	-10.257099
32629	9.209715	-2.637843	1.797150	-0.002028	-0.002559	0.003461	-54.842271	-70.880206	-10.250377
32630	9.206197	-2.638962	1.821168	0.003368	-0.000537	0.000157	-54.840883	-70.881176	-10.251281
32631	9.221150	-2.607894	1.824634	0.002259	0.000390	-0.001722	-54.836709	-70.882623	-10.253997
32632	9.229155	-2.630595	1.824910	0.005017	-0.001315	-0.005444	-54.830230	-70.886472	-10.258149
32633	9.206424	-2.638161	1.821181	-0.003003	-0.001595	-0.000288	-54.833120	-70.887901	-10.256581
32634	9.210048	-2.636829	1.796934	0.005152	-0.001278	-0.007314	-54.824618	-70.892609	-10.263252
32635	9.221577	-2.606526	1.824429	0.002354	-0.001816	0.001887	-54.826808	-70.893093	-10.259175
32636	9.210276	-2.636119	1.796806	0.003162	-0.001594	-0.009332	-54.817948	-70.898728	-10.262633
32637	9.226333	-2.629457	1.848666	0.001649	-0.000778	-0.005601	-54.812002	-70.902376	-10.267594
32638	9.202747	-2.559799	1.847815	-0.000379	-0.003337	-0.002140	-54.814149	-70.905275	-10.265790
32639	9.248543	-2.648010	1.751707	0.005979	-0.007747	-0.003966	-54.816707	-70.910458	-10.259126
32640	9.226777	-2.628203	1.848233	-0.000045	0.009918	-0.006817	-54.796583	-70.911242	-10.280957
32641	9.222445	-2.603682	1.824105	0.006724	-0.006541	-0.001956	-54.798999	-70.915087	-10.273993
32642	9.211092	-2.633377	1.796647	-0.000828	0.006469	-0.003348	-54.786929	-70.915245	-10.285240
32643	9.253368	-2.617988	1.828369	0.007410	-0.000887	-0.009034	-54.774538	-70.920536	-10.293526
32644	9.177052	-2.617984	1.817549	0.002637	0.003728	0.000418	-54.768280	-70.919953	-10.297543
32645	9.248932	-2.593434	1.804808	0.004395	0.006213	0.000697	-54.757305	-70.918342	-10.306160
32646	9.195242	-2.586047	1.797957	0.003516	0.004971	0.000557	-54.748537	-70.917246	-10.314169
32647	9.229281	-2.600597	1.778324	0.001501	0.007881	0.006288	-54.742313	-70.912466	-10.319514
32648	9.195663	-2.611807	1.847881	-0.001732	0.008454	0.004261	-54.735539	-70.908486	-10.327380
32649	9.225170	-2.602548	1.804155	0.000770	0.012145	0.006550	-54.724229	-70.902173	-10.338551
32650	9.221326	-2.604153	1.829085	0.000852	0.004470	0.007889	-54.725328	-70.897879	-10.335446
32651	9.175197	-2.620957	1.822623	-0.001150	0.012851	0.015890	-54.723096	-70.886963	-10.338173
32652	9.220312	-2.606546	1.830786	-0.001028	0.007418	0.011751	-54.724767	-70.879842	-10.335576
32653	9.196942	-2.615676	1.828034	0.000094	0.011962	0.015902	-54.723036	-70.869214	-10.337019
32654	9.227095	-2.632299	1.832852	-0.000284	0.008624	0.013763	-54.724415	-70.860751	-10.335251
32655	9.214354	-2.586244	1.809028	-0.000014	0.008697	0.010023	-54.721542	-70.853953	-10.337969
32656	9.226164	-2.634501	1.834374	-0.001164	0.007382	0.013624	-54.725210	-70.846044	-10.335602
32657	9.164286	-2.604955	1.827359	0.003490	0.008197	0.008313	-54.719377	-70.840212	-10.339328
32658	9.198073	-2.620190	1.808107	-0.000879	0.012925	0.012157	-54.713789	-70.831050	-10.344295
32659	9.187005	-2.624159	1.881366	-0.001909	0.006177	0.011615	-54.716915	-70.824342	-10.341812
32660	9.189295	-2.599283	1.809243	0.001459	0.005639	0.011775	-54.719444	-70.817659	-10.332174
32661	9.204668	-2.646409	1.810368	-0.002001	0.008382	0.008007	-54.716224	-70.811908	-10.336465
32662	9.200762	-2.648198	1.835172	0.000351	0.006565	0.009896	-54.716408	-70.806053	-10.339625
32663	9.242544	-2.634322	1.867231	0.000487	0.006602	0.008026	-54.714176	-70.800882	-10.341362
32664	9.207213	-2.595624	1.839438	-0.001137	0.004155	0.005875	-54.714863	-70.797704	-10.343139
32665	9.188406	-2.628286	1.860573	0.003946	0.003858	0.011797	-54.717917	-70.791679	-10.337180
32666	9.191659	-2.627947	1.836985	0.000896	0.006712	0.002415	-54.710642	-70.789137	-10.341442
32667	9.191402	-2.628504	1.837474	-0.001410	0.004082	0.009617	-54.714391	-70.784057	-10.337996
32668	9.225414	-2.643494	1.817496	-0.000637	0.002059	0.003873	-54.715195	-70.782416	-10.339571
32669	9.191009	-2.629610	1.837854	-0.002897	0.001672	0.005594	-54.719209	-70.780015	-10.336746
32670	9.213661	-2.622342	1.841678	0.001351	0.002374	0.005895	-54.720974	-70.777409	-10.334893
32671	9.190644	-2.630606	1.838258	-0.001880	0.002950	0.003864	-54.721048	-70.775394	-10.335624
32672	9.224766	-2.645254	1.818227	-0.000500	0.002096	0.002002	-54.720476	-70.774648	-10.335775
32673	9.208899	-2.599330	1.818028	-0.002244	0.005082	0.003995	-54.718025	-70.771866	-10.339401
32674	9.175272	-2.662409	1.835538	-0.000137	-0.000037	0.001871	-54.719482	-70.771821	-10.338423
32675	9.232321	-2.617099	1.870356	-0.002397	-0.000424	0.003591	-54.724119	-70.771050	-10.334636
32676	9.190189	-2.631831	1.838777	0.003868	-0.002636	-0.001843	-54.723738	-70.773700	-10.333382
32677	9.178831	-2.609737	1.862340	-0.005038	-0.004149	0.003168	-54.734484	-70.774360	-10.324727
32678	9.243059	-2.614636	1.796859	0.001317	-0.008566	0.001345	-54.746541	-70.777476	-10.311680
32679	9.194671	-2.656255	1.861822	-0.000000	0.000000	0.000000	-54.745829	-70.778245	-10.312101
32680	9.243123	-2.614754	1.796358	0.001471	-0.003060	0.001749	-54.750528	-70.779334	-10.308201
32681	9.167513	-2.640143	1.833565	-0.001244	0.000891	-0.000009	-54.749325	-70.779813	-10.309899
32682	9.239483	-2.616076	1.820462	-0.002897	0.001672	0.005594	-54.753606	-70.777516	-10.309778
32683	9.186666	-2.633834	1.861319	0.002851	-0.003914	-0.000113	-54.756408	-70.779632	-10.304750
32684	9.224443	-2.647326	1.816849	-0.002624	0.001745	0.001852	-54.757306	-70.779092	-10.306010
32685	9.193711	-2.632113	1.812969	0.001244	-0.000891	0.000009	-54.757087	-70.780152	-10.305156
32686	9.212984	-2.625333	1.840804	0.000744	0.001205	0.002012	-54.756591	-70.779636	-10.305235
32687	9.224308	-2.647762	1.816900	-0.001153	-0.001315	0.003601	-54.761721	-70.779154	-10.300171
32688	9.193592	-2.632526	1.812971	0.002260	0.000387	-0.001721	-54.758186	-70.780718	-10.303087
32689	9.186507	-2.634355	1.861367	-0.003731	0.002672	-0.000028	-54.755999	-70.780617	-10.307336
32690	9.212861	-2.625625	1.841005	0.002124	0.000351	0.000150	-54.754239	-70.781245	-10.306580
32691	9.216333	-2.624693	1.817192	-0.001090	0.006397	0.000395	-54.745942	-70.779714	-10.315698
32692	9.209163	-2.626627	1.865840	-0.000363	0.002132	0.000132	-54.743304	-70.779792	-10.317741
32693	9.212690	-2.625532	1.841990	-0.000454	0.004338	-0.003479	-54.733731	-70.780754	-10.327823
32694	9.204789	-2.654316	1.790661	0.000654	0.003411	-0.001598	-54.727268	-70.781260	-10.334132
32695	9.196970	-2.630858	1.790729	0.002170	0.002593	-0.005331	-54.716773	-70.783664	-10.343598
32696	9.227793	-2.593579	1.846277	0.002397	0.000424	-0.003591	-54.711555	-70.786177	-10.349906
32697	9.194397	-2.655939	1.863626	-0.002958	0.000649	-0.005773	-54.706183	-70.789431	-10.357059
32698	9.212932	-2.623783	1.843273	-0.001318	0.008566	-0.001344	-54.693663	-70.788052	-10.372392
32699	9.201447	-2.653639	1.816149	-0.002351	0.001818	-0.001890	-54.690063	-70.789103	-10.377301
32700	9.231443	-2.591489	1.823236	-0.000317	0.004375	-0.005349	-54.678786	-70.791009	-10.391643
32701	9.201492	-2.653029	1.816810	-0.001834	0.005192	-0.001617	-54.670621	-70.790813	-10.401073
32702	9.209345	-2.623873	1.868814	-0.000227	0.002169	-0.001739	-54.666392	-70.791750	-10.402308
32703	9.216431	-2.621825	1.820829	-0.000591	0.004301	-0.001607	-54.658718	-70.791844	-10.410463
32704	9.201448	-2.600300	1.869379	0.001443	0.006858	-0.005066	-54.643719	-70.792783	-10.424649
32705	9.201463	-2.652277	1.818058	-0.002777	-0.003762	0.001447	-54.651020	-70.794123	-10.418273
32706	9.205051	-2.598988	1.845503	-0.003031	0.008325	-0.007106	-54.634747	-70.795537	-10.436673
32707	9.209383	-2.622765	1.870184	-0.002124	-0.000351	-0.000151	-54.635578	-70.796493	-10.436752
32708	9.216494	-2.620782	1.822011	0.001897	0.002520	-0.001588	-54.629387	-70.797201	-10.440354
32709	9.160115	-2.639205	1.887355	-0.002852	0.003913	0.000113	-54.625165	-70.796619	-10.446224
32710	9.247094	-2.636219	1.826257	0.000090	-0.002206	0.003610	-54.631540	-70.796550	-10.438985
32711	9.189858	-2.630052	1.842972	-0.001366	0.006324	0.004138	-54.627067	-70.793288	-10.444220
32712	9.189737	-2.630265	1.843269	-0.001244	0.000891	-0.000009	-54.626378	-70.793924	-10.448745
32713	9.216065	-2.621777	1.822754	-0.001291	-0.001352	0.005471	-54.633426	-70.792585	-10.441735
32714	9.178061	-2.608869	1.867346	-0.003853	0.008105	0.004119	-54.628503	-70.788859	-10.450308
32715	9.215722	-2.622656	1.823221	0.000089	-0.002206	0.003610	-54.634132	-70.788673	-10.443962
32716	9.185700	-2.632700	1.867682	0.000970	-0.000964	0.003751	-54.638417	-70.788176	-10.440400
32717	9.207698	-2.600223	1.822829	-0.001518	0.000817	0.003732	-54.641029	-70.786930	-10.438224
32718	9.219808	-2.647655	1.847350	0.001470	-0.003060	0.001748	-54.645609	-70.787956	-10.432285
32719	9.189114	-2.632582	1.843071	-0.001671	-0.004689	0.003327	-54.655308	-70.788725	-10.422699
32720	9.215463	-2.624258	1.822225	-0.002172	-0.002594	0.005330	-54.665201	-70.788009	-10.414231
32721	9.215441	-2.624491	1.822003	0.003731	-0.002672	0.000028	-54.665963	-70.789650	-10.410830
32722	9.211901	-2.625476	1.846011	0.002350	-0.001818	0.001890	-54.668851	-70.790206	-10.404214
32723	9.234640	-2.618181	1.849475	-0.002446	-0.002667	0.009072	-54.681744	-70.787617	-10.391714
32724	9.188831	-2.634376	1.841920	0.002213	-0.001855	0.003761	-54.686341	-70.787359	-10.386951
32725	9.200193	-2.604898	1.869156	-0.000702	-0.005653	0.007079	-54.700345	-70.786690	-10.372217
32726	9.222929	-2.649879	1.820810	0.000542	-0.006544	0.007089	-54.715219	-70.786276	-10.352201
32727	9.203602	-2.605252	1.843894	-0.000702	-0.005653	0.007080	-54.729221	-70.785604	-10.337468
32728	9.223544	-2.676223	1.868082	-0.002463	-0.008136	0.006797	-54.747421	-70.785987	-10.323330
32729	9.207114	-2.605374	1.818417	-0.000291	-0.005543	0.001466	-54.755714	-70.787903	-10.314394
32730	9.211439	-2.629838	1.842104	-0.001219	-0.009027	0.006807	-54.774536	-70.788550	-10.297130
32731	9.237796	-2.621586	1.821097	0.000090	-0.002206	0.003611	-54.780166	-70.788358	-10.290785
32732	9.211327	-2.630747	1.841367	-0.000047	-0.002243	0.005483	-54.788401	-70.787458	-10.283797
32733	9.218319	-2.629339	1.792861	0.001196	-0.003134	0.005492	-54.796425	-70.786692	-10.274244
32734	9.211092	-2.631833	1.840992	-0.000546	-0.000147	0.007486	-54.803984	-70.784164	-10.269124
32735	9.233820	-2.624576	1.844494	-0.002035	-0.002556	0.003461	-54.811157	-70.784158	-10.262433
32736	9.210947	-2.632617	1.840592	0.000226	-0.002169	0.001740	-54.815636	-70.784997	-10.259039
32737	9.215177	-2.656849	1.865075	0.002506	0.003687	0.002295	-54.810716	-70.783475	-10.262400
32738	9.229358	-2.601150	1.820034	0.002576	-0.003988	0.003630	-54.817627	-70.783899	-10.253000
32739	9.218542	-2.656553	1.840880	-0.002896	0.001673	0.005596	-54.821635	-70.781496	-10.250184
32740	9.218477	-2.656750	1.840923	0.000137	0.000037	-0.001872	-54.819919	-70.783188	-10.248598
32741	9.202793	-2.610597	1.840371	-0.001154	-0.001314	0.003602	-54.825053	-70.782705	-10.243531
32742	9.214076	-2.633208	1.816319	-0.001291	-0.001351	0.005474	-54.832456	-70.781413	-10.236599
32743	9.214699	-2.658770	1.864698	-0.002534	-0.000460	0.005465	-54.838995	-70.779775	-10.230882
32744	9.213821	-2.634285	1.816051	-0.001291	-0.001351	0.005474	-54.846451	-70.778484	-10.223212
32745	9.213723	-2.634635	1.816037	0.000744	0.001204	0.002013	-54.845608	-70.777914	-10.223324
32746	9.183635	-2.644681	1.860893	-0.001134	0.004155	0.005879	-54.845790	-70.774591	-10.224029
32747	9.213519	-2.635255	1.816175	0.001086	-0.006398	-0.000396	-54.852686	-70.777657	-10.215737
32748	9.217848	-2.659220	1.840505	0.001536	0.004651	-0.001458	-54.844109	-70.777677	-10.224203
32749	9.236404	-2.627212	1.820052	-0.001107	0.000928	-0.001881	-54.841014	-70.779022	-10.227823
32750	9.194316	-2.589623	1.840310	0.001400	0.004615	0.000414	-54.834784	-70.778214	-10.231829
32751	9.190652	-2.642682	1.813103	0.001605	-0.003024	-0.000123	-54.837108	-70.780039	-10.228064
32752	9.213439	-2.635101	1.816806	-0.004365	0.004734	0.003848	-54.836967	-70.777495	-10.227892
32753	9.232585	-2.628654	1.844871	0.002732	0.001517	0.004035	-54.836480	-70.775874	-10.226420
32754	9.182403	-2.620516	1.813599	-0.003846	0.008108	0.004121	-54.831503	-70.772074	-10.232585
32755	9.197946	-2.667134	1.814113	0.000813	-0.006471	0.003348	-54.842194	-70.773412	-10.220440
32756	9.209375	-2.637362	1.841666	-0.001086	0.006398	0.000396	-54.833990	-70.771951	-10.232443
32757	9.220732	-2.607630	1.869526	-0.001517	0.000818	0.003735	-54.836591	-70.770702	-10.230279
32758	9.224089	-2.659150	1.793848	0.000089	-0.002206	0.003612	-54.842487	-70.770541	-10.223901
32759	9.212585	-2.637335	1.817893	-0.000116	0.005433	0.004149	-54.838482	-70.767575	-10.227885
32760	9.190342	-2.670400	1.862961	0.001106	-0.000928	0.001881	-54.840511	-70.767842	-10.225919
32761	9.238731	-2.629264	1.797772	-0.004501	0.004698	0.005721	-54.841491	-70.764383	-10.227284
32762	9.182260	-2.647870	1.863147	0.001899	0.002519	-0.001589	-54.835540	-70.765190	-10.232628
32763	9.234903	-2.630639	1.822713	-0.001858	0.008421	0.006145	-54.830412	-70.760303	-10.238858
32764	9.204671	-2.640801	1.867997	0.000765	0.006674	0.004292	-54.825019	-70.757006	-10.245991
32765	9.211565	-2.639192	1.820365	0.000902	0.006711	0.002420	-54.817087	-70.754428	-10.253517
32766	9.215692	-2.663470	1.845152	-0.000499	0.002096	0.002004	-54.816575	-70.753644	-10.252128
32767	9.203535	-2.616360	1.820762	0.001762	0.002482	0.000283	-54.811803	-70.753462	-10.255784
32768	9.234119	-2.631891	1.824875	0.000607	0.001168	0.003886	-54.813555	-70.752200	-10.256125
32769	9.214742	-2.638867	1.797242	0.003005	0.001590	0.000293	-54.809276	-70.752309	-10.258505
32770	9.184710	-2.648523	1.842183	0.001401	0.004614	0.000416	-54.802523	-70.751437	-10.264461
32771	9.184706	-2.648342	1.842464	0.002399	0.000422	-0.003593	-54.796481	-70.753750	-10.269075
32772	9.204010	-2.641345	1.870486	0.000519	0.003374	0.000274	-54.792115	-70.753364	-10.271336
32773	9.230383	-2.632548	1.850329	0.001900	0.002518	-0.001589	-54.785445	-70.754046	-10.276919
32774	9.207528	-2.640223	1.846795	0.000000	0.000000	-0.000000	-54.785152	-70.754907	-10.278718
32775	9.180402	-2.623914	1.818809	0.000881	0.001241	0.000142	-54.782415	-70.755201	-10.280752
32776	9.207499	-2.640184	1.846996	0.005491	-0.000194	0.000312	-54.780031	-70.756030	-10.279561
32777	9.207515	-2.640162	1.846947	-0.003005	-0.001590	-0.000293	-54.782906	-70.757463	-10.278010
32778	9.211104	-2.639195	1.822694	0.004610	-0.001434	0.000170	-54.781857	-70.758610	-10.274706
32779	9.207558	-2.640197	1.846683	-0.001900	-0.002518	0.001589	-54.787125	-70.759469	-10.269950
32780	9.180449	-2.623958	1.818507	0.003367	-0.000543	0.000161	-54.786071	-70.760427	-10.268147
32781	9.238276	-2.655515	1.850435	-0.000744	-0.001204	-0.002014	-54.785505	-70.762538	-10.268869
32782	9.180569	-2.623744	1.818210	0.000724	-0.004265	-0.000264	-54.790281	-70.764937	-10.264617
32783	9.245621	-2.601360	1.853149	0.001243	-0.000892	0.000010	-54.790073	-70.765998	-10.263754
32784	9.207738	-2.639996	1.846071	0.002124	0.000349	0.000151	-54.788310	-70.766703	-10.266510
32785	9.203477	-2.615902	1.821709	0.001243	-0.000892	0.000010	-54.788102	-70.767763	-10.265648
32786	9.211184	-2.639454	1.821914	-0.000686	-0.000182	0.009361	-54.797038	-70.764322	-10.260869
32787	9.222515	-2.610110	1.849355	0.000087	-0.002206	0.003612	-54.802665	-70.764130	-10.254528
32788	9.230248	-2.633644	1.849441	0.002074	-0.001893	0.005636	-54.809120	-70.762967	-10.246803
32789	9.187978	-2.648730	1.817827	-0.001293	-0.001350	0.005475	-54.816152	-70.761620	-10.239811
32790	9.252140	-2.601877	1.804452	0.003837	0.000589	0.005919	-54.818486	-70.759516	-10.236100
32791	9.180566	-2.651614	1.866164	-0.000411	-0.000109	0.005617	-54.823480	-70.757692	-10.230732
32792	9.229686	-2.635679	1.849347	-0.000411	-0.000109	0.005617	-54.828960	-70.755968	-10.225988
32793	9.225331	-2.612091	1.824774	0.003678	-0.004918	0.005514	-54.837964	-70.755779	-10.213891
32794	9.180112	-2.653236	1.866093	-0.004118	0.008037	0.007867	-54.836479	-70.750164	-10.214813
32795	9.236289	-2.635500	1.801182	0.007045	-0.005462	0.005675	-54.844432	-70.750079	-10.201785
32796	9.171881	-2.631447	1.866034	-0.002788	0.004940	0.011490	-54.850310	-70.743835	-10.192172
32797	9.228024	-2.613976	1.800950	0.004783	-0.005847	0.007397	-54.861697	-70.743069	-10.176880
32798	9.182867	-2.655043	1.841985	0.000470	0.001132	0.005759	-54.864916	-70.740847	-10.175092
32799	9.227664	-2.615323	1.800839	-0.000823	-0.000217	0.011236	-54.875584	-70.736424	-10.163963
32800	9.205271	-2.648831	1.845723	0.005080	-0.000305	0.005930	-54.878420	-70.734570	-10.157581
32801	9.205086	-2.649496	1.845690	-0.001568	-0.001421	0.009223	-54.889223	-70.731487	-10.146760
32802	9.208413	-2.649357	1.821548	-0.000909	0.001988	0.007623	-54.893667	-70.727973	-10.140041
32803	9.204651	-2.650968	1.845744	0.004061	-0.001582	0.007662	-54.899985	-70.725673	-10.130555
32804	9.203789	-2.626603	1.797208	0.002818	-0.000689	0.007653	-54.906433	-70.723193	-10.122736
32805	9.227126	-2.644548	1.849458	0.000333	0.001096	0.007634	-54.911267	-70.720024	-10.117085
32806	9.211853	-2.676122	1.846015	-0.001431	-0.001384	0.007351	-54.920520	-70.717814	-10.106504
32807	9.199706	-2.629415	1.821306	0.003092	-0.000617	0.003907	-54.922559	-70.716956	-10.102139
32808	9.177372	-2.662538	1.866322	0.004720	0.001827	0.006063	-54.923372	-70.714403	-10.096882
32809	9.207167	-2.653360	1.822019	0.000248	0.003301	0.004020	-54.921894	-70.712203	-10.097967
32810	9.203516	-2.654618	1.846160	0.002570	-0.003990	0.003634	-54.929222	-70.712710	-10.089288
32811	9.229898	-2.646266	1.825441	0.000086	-0.002205	0.003615	-54.934835	-70.712512	-10.082961
32812	9.184060	-2.662230	1.817901	-0.000189	-0.002277	0.007361	-54.944984	-70.710759	-10.074804
32813	9.226106	-2.648287	1.849201	0.002073	-0.001893	0.005640	-54.950944	-70.709508	-10.066903
32814	9.206648	-2.655585	1.821399	0.000471	0.001132	0.005762	-54.954274	-70.707296	-10.064746
32815	9.229354	-2.648294	1.825253	0.001490	0.002409	0.004030	-54.953288	-70.705385	-10.064557
32816	9.176356	-2.665943	1.866455	0.001490	0.002409	0.004030	-54.952553	-70.703530	-10.065560
32817	9.229117	-2.648900	1.825573	-0.001020	-0.001276	0.001732	-54.955782	-70.703908	-10.062430
32818	9.198412	-2.633654	1.821715	0.001628	0.002444	0.002156	-54.953489	-70.702968	-10.064891
32819	9.206019	-2.657162	1.822280	-0.001131	0.004159	0.005884	-54.953403	-70.699612	-10.065341
32820	9.179399	-2.666173	1.843196	0.003393	0.004924	0.002440	-54.946641	-70.697735	-10.074696
32821	9.197918	-2.634558	1.822902	0.000386	0.003337	0.002147	-54.943277	-70.696402	-10.077700
32822	9.194257	-2.635654	1.847305	0.002870	0.001551	0.002167	-54.941516	-70.695690	-10.075791
32823	9.216770	-2.680352	1.799907	-0.000111	0.005435	0.004152	-54.937513	-70.692725	-10.079772
32824	9.205282	-2.658321	1.824309	0.003530	0.004960	0.000567	-54.929089	-70.691672	-10.087198
32825	9.228015	-2.650780	1.828411	0.000248	0.003302	0.004021	-54.927614	-70.689470	-10.088283
32826	9.201468	-2.659590	1.849211	0.003890	0.002827	0.000435	-54.921648	-70.689086	-10.089609
32827	9.197183	-2.635512	1.825228	0.001406	0.004613	0.000415	-54.914367	-70.688143	-10.096141
32828	9.227681	-2.651194	1.829496	0.002594	0.001480	0.005914	-54.916064	-70.685836	-10.098497
32829	9.201098	-2.660154	1.850238	0.003752	0.002791	0.002309	-54.911658	-70.684606	-10.100560
32830	9.204568	-2.659299	1.826488	0.002648	0.003720	0.000425	-54.904879	-70.683955	-10.106941
32831	9.227344	-2.651572	1.830645	0.003530	0.004960	0.000567	-54.896064	-70.682826	-10.113812
32832	9.197214	-2.661102	1.875902	0.006537	0.006547	0.000861	-54.884107	-70.681172	-10.125143
32833	9.207811	-2.658409	1.803953	0.000745	0.001205	0.002016	-54.883272	-70.680601	-10.125249
32834	9.204373	-2.607152	1.879840	0.003668	0.004995	-0.001306	-54.872701	-70.680256	-10.130488
32835	9.204080	-2.659333	1.828893	-0.000856	0.004231	0.002137	-54.868852	-70.678631	-10.134759
32836	9.196200	-2.636300	1.829038	0.001406	0.004613	0.000416	-54.862249	-70.677720	-10.137848
32837	9.215435	-2.629507	1.857151	0.000883	0.001240	0.000142	-54.859525	-70.678016	-10.139870
32838	9.207463	-2.658440	1.805683	0.001903	0.002515	-0.001590	-54.853455	-70.678774	-10.145033
32839	9.223172	-2.652389	1.857938	0.000661	0.003409	-0.001600	-54.846322	-70.679171	-10.151862
32840	9.207434	-2.658201	1.806180	-0.001242	0.000893	-0.000010	-54.846145	-70.679741	-10.149720
32841	9.218987	-2.628001	1.833966	0.003062	0.003826	-0.005195	-54.833695	-70.681683	-10.160727
32842	9.200293	-2.659596	1.855040	0.001627	0.002445	0.002158	-54.831120	-70.680729	-10.164893
32843	9.181221	-2.614024	1.878724	0.002898	-0.001680	-0.005600	-54.825738	-70.684677	-10.168509
32844	9.200484	-2.658938	1.855034	-0.000606	-0.001169	-0.003889	-54.823094	-70.687688	-10.175268
32845	9.204179	-2.657663	1.830821	0.001518	-0.000822	-0.003736	-54.819108	-70.690480	-10.178242
32846	9.204318	-2.657204	1.830789	0.001656	-0.000787	-0.005610	-54.813475	-70.694084	-10.180548
32847	9.196723	-2.633516	1.830419	0.000773	-0.002027	-0.005752	-54.809625	-70.698218	-10.183831
32848	9.201156	-2.656934	1.854570	0.001271	-0.004125	-0.007756	-54.807288	-70.704121	-10.185291
32849	9.182135	-2.663095	1.826340	0.000251	-0.005400	-0.006025	-54.807989	-70.709497	-10.184069
