// General information: 
//  MT Manager version: 2022.2.0 
//  XDA version: 2022.2.0 build 7381 rev 124627 built on 2023-07-19
// Device information: 
//  DeviceId: 00B4BB4F
//  ProductCode: MTW2-3A7G6
//  Firmware Version: 4.6.0
//  Hardware Version: 2.0.0
// Device settings: 
//  Filter Profile: human(46.1)
//  Option Flags: Orientation Smoother Disabled, Position/Velocity Smoother Disabled, Continuous Zero Rotation Update Disabled, AHS Disabled, ICC Disabled
// Coordinate system: ENU
PacketCounter	Acc_X	Acc_Y	Acc_Z	Gyr_X	Gyr_Y	Gyr_Z	Roll	Pitch	Yaw
32697	9.058383	-3.145774	1.723773	-0.002159	-0.001988	-0.002386	-59.600501	-68.648114	8.097729
32698	9.059138	-3.142627	1.699267	-0.001093	-0.003085	-0.002362	-59.608997	-68.649802	8.105332
32699	9.058604	-3.166757	1.696068	-0.001094	-0.001059	-0.000130	-59.610946	-68.650660	8.106927
32700	9.058067	-3.169535	1.720111	-0.002132	-0.001859	-0.004512	-59.616934	-68.653056	8.111551
32701	9.083279	-3.145521	1.723415	-0.002104	-0.001729	-0.006638	-59.615484	-68.657325	8.108875
32702	9.058418	-3.147421	1.746881	0.000001	-0.002026	-0.002232	-59.622131	-68.658634	8.115589
32703	9.059117	-3.144468	1.722297	-0.004402	-0.004365	0.001605	-59.631447	-68.659591	8.123056
32704	9.058551	-3.147453	1.746131	-0.002159	-0.001988	-0.002386	-59.639206	-68.660984	8.129531
32705	9.058668	-3.147350	1.745713	-0.000081	-0.006466	-0.000318	-59.647282	-68.663501	8.138325
32706	9.059450	-3.144305	1.720842	-0.007600	-0.005126	-0.002932	-59.661649	-68.666076	8.147739
32707	9.060893	-3.138101	1.671921	0.001094	-0.002993	-0.004334	-59.661682	-68.669572	8.148621
32708	9.108602	-3.166429	1.693886	-0.001148	-0.005370	-0.000343	-59.674520	-68.670931	8.160027
32709	9.059228	-3.168039	1.716750	0.000000	0.000000	-0.000000	-59.674602	-68.671417	8.160289
32710	9.060446	-3.140835	1.695603	0.003253	0.001021	0.000285	-59.677363	-68.670609	8.164488
32711	9.085418	-3.138635	1.672051	-0.001094	0.000967	0.002102	-59.678404	-68.669776	8.165107
32712	9.059089	-3.168230	1.717129	-0.001039	0.003252	0.000082	-59.680642	-68.668421	8.166213
32713	9.059727	-3.165257	1.692871	0.002106	-0.004349	-0.000058	-59.684983	-68.670194	8.172342
32714	9.060357	-3.141010	1.695753	0.001093	0.001059	0.000130	-59.688887	-68.669461	8.176871
32715	9.083453	-3.168991	1.717705	-0.003227	0.003160	0.002054	-59.688336	-68.668017	8.174468
32716	9.083999	-3.166236	1.693533	0.001039	-0.001226	0.002150	-59.696556	-68.666949	8.182572
32717	9.060141	-3.141433	1.696121	0.000054	0.004311	0.000212	-59.691304	-68.666084	8.177141
32718	9.058856	-3.168628	1.717627	0.001094	0.001059	0.000130	-59.695219	-68.665351	8.181893
32719	9.082602	-3.172262	1.742534	0.001094	0.001059	0.000130	-59.693430	-68.665466	8.180819
32720	9.084469	-3.120730	1.724339	0.003254	-0.001005	-0.001947	-59.697122	-68.666379	8.185533
32721	9.059445	-3.144175	1.721108	0.000081	0.006466	0.000318	-59.689204	-68.664838	8.177256
32722	9.059403	-3.144077	1.721506	0.003281	0.001150	-0.001841	-59.690213	-68.665063	8.179457
32723	9.083284	-3.168576	1.719367	0.001203	0.003603	-0.006142	-59.680495	-68.667545	8.169938
32724	9.084609	-3.140915	1.698512	0.000109	0.004570	-0.004040	-59.677368	-68.667864	8.166024
32725	9.059003	-3.145802	1.746760	-0.000984	0.003511	-0.004171	-59.670478	-68.669396	8.158195
32726	9.060994	-3.136537	1.674305	0.001149	0.001318	-0.004122	-59.670756	-68.670702	8.157963
32727	9.083620	-3.145614	1.747733	0.000110	0.002544	-0.006273	-59.662904	-68.673554	8.149775
32728	9.059478	-3.165645	1.719847	-0.004290	-0.003847	-0.006900	-59.670853	-68.677734	8.155047
32729	9.084116	-3.165747	1.720181	0.000083	0.000389	-0.006379	-59.665665	-68.681262	8.149704
32730	9.060519	-3.140291	1.722544	-0.003170	-0.000633	-0.006664	-59.669024	-68.684384	8.150635
32731	9.085761	-3.137342	1.698953	-0.000929	0.003770	-0.008424	-59.658611	-68.687944	8.139060
32732	9.110240	-3.137634	1.699766	0.000026	0.002155	0.000106	-59.661687	-68.686939	8.141545
32733	9.085133	-3.161128	1.696988	0.001280	0.014122	-0.001361	-59.642130	-68.684009	8.121513
32734	9.060484	-3.139144	1.724816	0.002292	0.010740	0.000683	-59.633414	-68.680213	8.112982
32735	9.035787	-3.117359	1.752495	-0.000963	0.011744	0.002630	-59.621125	-68.675996	8.099371
32736	9.060607	-3.136565	1.702632	0.000104	0.010648	0.002654	-59.615178	-68.671247	8.092073
32737	9.083564	-3.164643	1.725120	0.000025	0.004181	0.002337	-59.611686	-68.669365	8.088514
32738	9.060289	-3.137000	1.703522	-0.001095	0.000967	0.002102	-59.618318	-68.667698	8.094421
32739	9.082706	-3.167876	1.749956	-0.005252	0.009923	-0.002041	-59.607335	-68.666316	8.079574
32740	9.084416	-3.137881	1.705138	0.000023	0.006207	0.004569	-59.608534	-68.661909	8.080571
32741	9.059781	-3.137538	1.705232	0.000078	0.008492	0.002547	-59.599717	-68.658674	8.071326
32742	9.058319	-3.164949	1.727214	0.001144	0.007396	0.002572	-59.597246	-68.654892	8.069300
32743	9.060005	-3.135015	1.682485	0.000078	0.008493	0.002546	-59.588433	-68.651656	8.060060
32744	9.081622	-3.169024	1.753497	0.001144	0.007396	0.002571	-59.585941	-68.647886	8.057447
32745	9.083971	-3.136105	1.684610	0.004397	0.008418	0.002857	-59.574983	-68.644518	8.048561
32746	9.082353	-3.142326	1.734087	0.003328	0.011540	0.005062	-59.567863	-68.638351	8.041420
32747	9.082017	-3.142735	1.735109	0.001142	0.009422	0.004801	-59.558951	-68.633730	8.032727
32748	9.057422	-3.163553	1.708318	0.001227	0.011837	0.000652	-59.549398	-68.629643	8.022217
32749	9.033297	-3.117521	1.738977	0.002264	0.010611	0.002804	-59.536869	-68.625662	8.010329
32750	9.055632	-3.169712	1.758681	0.002240	0.006429	0.000469	-59.533397	-68.623225	8.007090
32751	9.056762	-3.142622	1.737983	0.002184	0.004144	0.002491	-59.528844	-68.621276	8.003718
32752	9.081641	-3.140615	1.714859	0.003248	0.005074	0.004747	-59.529704	-68.617130	8.005766
32753	9.056354	-3.143187	1.739087	0.002211	0.006300	0.002594	-59.522495	-68.614503	7.999559
32754	9.055488	-3.146502	1.763644	0.005297	-0.001560	0.006717	-59.532001	-68.611295	8.012808
32755	9.055399	-3.168216	1.736510	0.001034	0.000800	0.004382	-59.533728	-68.609384	8.015473
32756	9.055810	-3.122998	1.766762	0.002130	-0.000167	0.002282	-59.540023	-68.607986	8.022849
32757	9.055165	-3.168856	1.736563	0.000977	-0.001485	0.006404	-59.546160	-68.605739	8.030215
32758	9.105060	-3.122224	1.743415	0.000953	-0.005666	0.004070	-59.561333	-68.605062	8.045739
32759	9.030615	-3.169001	1.735254	-0.001180	-0.003473	0.004018	-59.569442	-68.604569	8.053897
32760	9.106191	-3.117247	1.694441	0.003135	0.000504	0.008789	-59.579140	-68.599758	8.066043
32761	9.054534	-3.171174	1.735620	0.001928	-0.005124	0.012702	-59.593975	-68.595452	8.083337
32762	9.080062	-3.166606	1.687722	0.001091	0.003085	0.002359	-59.596775	-68.593072	8.086347
32763	9.055378	-3.145198	1.714480	0.005238	-0.001819	0.010966	-59.604255	-68.588665	8.097779
32764	9.078837	-3.170865	1.712447	0.001087	0.007138	0.006817	-59.605257	-68.582905	8.099156
32765	9.053452	-3.152345	1.763663	0.001034	0.000800	0.004381	-59.606972	-68.580993	8.101809
32766	9.079732	-3.144557	1.691691	0.001034	0.000800	0.004380	-59.614167	-68.578260	8.110208
32767	9.078882	-3.147894	1.716120	0.001062	0.002956	0.004484	-59.613226	-68.575671	8.110025
32768	9.028511	-3.131550	1.790641	-0.004379	-0.000181	0.003939	-59.624366	-68.573466	8.117960
32769	9.103079	-3.170678	1.689409	-0.000087	-0.002414	0.004147	-59.630597	-68.572599	8.124774
32770	9.052696	-3.154425	1.763826	-0.003287	0.002904	0.006297	-59.638933	-68.568326	8.130480
32771	9.079049	-3.146469	1.691803	0.001096	-0.000968	-0.002099	-59.638055	-68.570128	8.130386
32772	9.028246	-3.175314	1.736044	-0.003285	0.000878	0.004068	-59.647346	-68.567526	8.138434
32773	9.103305	-3.147604	1.692347	-0.003255	0.001007	0.001943	-59.649455	-68.566758	8.138871
32774	9.028706	-3.151542	1.739025	-0.001066	0.001097	-0.000026	-59.654198	-68.566135	8.143165
32775	9.076768	-3.156009	1.764509	-0.001096	0.000968	0.002099	-59.655234	-68.565301	8.143778
32776	9.078050	-3.150222	1.716250	-0.002104	0.004350	0.000051	-59.656464	-68.563691	8.143318
32777	9.052877	-3.152536	1.740268	-0.004236	0.006545	-0.000002	-59.650728	-68.562281	8.134722
32778	9.052713	-3.152870	1.740511	-0.001156	0.000710	0.006349	-59.660637	-68.558624	8.143862
32779	9.077631	-3.129573	1.744209	-0.003168	0.003421	-0.002204	-59.656600	-68.559208	8.137749
32780	9.078324	-3.147927	1.692983	-0.003228	0.003163	0.002046	-59.661434	-68.556957	8.140817
32781	9.054439	-3.123222	1.695540	-0.000002	0.002026	0.002229	-59.660606	-68.555752	8.140100
32782	9.051010	-3.180863	1.762337	-0.003286	0.000878	0.004067	-59.669797	-68.553189	8.146660
32783	9.077965	-3.148775	1.693327	-0.000002	0.002026	0.002229	-59.668969	-68.551984	8.145943
32784	9.050823	-3.181190	1.762710	0.000086	0.004441	-0.001918	-59.667336	-68.551351	8.143067
32785	9.101576	-3.173727	1.691776	0.002214	0.006299	0.002592	-59.660130	-68.548729	8.136861
32786	9.027595	-3.174481	1.714900	0.003398	0.007745	-0.003653	-59.651195	-68.547982	8.129183
32787	9.077074	-3.151256	1.719513	0.003286	-0.000878	-0.004067	-59.647500	-68.550730	8.127410
32788	9.100291	-3.199901	1.714760	0.004550	0.011088	-0.005545	-59.632217	-68.549954	8.112625
32789	9.052120	-3.152294	1.744636	0.008816	0.004673	-0.007667	-59.615712	-68.552873	8.100492
32790	9.101839	-3.192637	1.668002	0.006623	0.006609	-0.003471	-59.606461	-68.552392	8.093286
32791	9.026928	-3.132190	1.797488	0.013213	0.015115	-0.002591	-59.578045	-68.549772	8.071064
32792	9.077440	-3.190641	1.669886	0.011009	0.002736	-0.011866	-59.564919	-68.554560	8.062203
32793	9.077182	-3.104403	1.780221	0.011255	0.024164	-0.008718	-59.521722	-68.552331	8.022894
32794	9.027833	-3.147521	1.750803	0.010023	0.012327	-0.009361	-59.498996	-68.553075	8.004413
32795	9.052202	-3.147390	1.753045	0.010016	0.016381	-0.004908	-59.469117	-68.551215	7.978651
32796	9.052035	-3.125473	1.781667	0.008841	0.008856	-0.005343	-59.454356	-68.551021	7.966159
32797	9.076695	-3.168108	1.728823	0.005561	0.005679	-0.005731	-59.439864	-68.552678	7.954185
32798	9.076622	-3.146294	1.756754	0.006623	0.006610	-0.003477	-59.430526	-68.552195	7.946535
32799	9.052249	-3.145070	1.756962	0.008814	0.006700	-0.005446	-59.413098	-68.553412	7.933409
32800	9.052282	-3.144522	1.757774	0.007689	0.005513	-0.003450	-59.404581	-68.553226	7.928225
32801	9.077858	-3.096313	1.765186	0.006650	0.008766	-0.003378	-59.387334	-68.552818	7.913961
32802	9.052947	-3.140727	1.735388	0.007716	0.007669	-0.003350	-59.376172	-68.551966	7.905706
32803	9.052195	-3.143217	1.760552	0.007716	0.007669	-0.003351	-59.359711	-68.551862	7.892943
32804	9.051966	-3.121700	1.788616	0.002267	0.008586	0.000558	-59.353327	-68.548805	7.885976
32805	9.051924	-3.143097	1.762156	0.003275	0.005205	0.002612	-59.346937	-68.546480	7.881299
32806	9.052320	-3.119168	1.765602	-0.001076	0.005153	0.004424	-59.349698	-68.542546	7.881805
32807	9.051534	-3.143807	1.762896	-0.001130	0.000841	0.004223	-59.352503	-68.540702	7.884295
32808	9.052074	-3.141281	1.738937	0.001083	0.005115	0.004581	-59.354130	-68.536705	7.884377
32809	9.050451	-3.147517	1.787530	-0.000091	-0.002412	0.004152	-59.360362	-68.535845	7.891191
32810	9.052330	-3.118010	1.741948	0.000965	0.000548	0.008632	-59.370853	-68.531157	7.902639
32811	9.050656	-3.146144	1.763235	-0.003417	0.000368	0.012569	-59.381749	-68.525335	7.912417
32812	9.051664	-3.119975	1.741889	-0.000128	-0.000511	0.008502	-59.394041	-68.521020	7.924878
32813	9.074358	-3.148904	1.763757	-0.003449	0.000241	0.014693	-59.406679	-68.514187	7.936509
32814	9.073896	-3.150266	1.763702	0.001935	-0.000933	0.015035	-59.423124	-68.506782	7.954299
32815	9.074311	-3.169884	1.712319	0.000902	0.000292	0.012880	-59.431847	-68.500825	7.964403
32816	9.073051	-3.152564	1.763942	0.002055	0.003634	0.010983	-59.439520	-68.494108	7.972409
32817	9.073280	-3.150697	1.740431	0.004266	0.009935	0.013564	-59.434741	-68.485005	7.970073
32818	9.072061	-3.154590	1.765412	0.001021	0.004859	0.008828	-59.439816	-68.478968	7.975397
32819	9.073048	-3.149722	1.717745	0.003201	0.011032	0.013533	-59.434253	-68.469559	7.971561
32820	9.070268	-3.159563	1.791371	0.002111	0.007946	0.011179	-59.436562	-68.461491	7.973451
32821	9.045999	-3.135590	1.794501	0.003205	0.009004	0.011306	-59.431892	-68.453772	7.970578
32822	9.045750	-3.179173	1.740853	0.000988	0.004732	0.010949	-59.438701	-68.446743	7.977436
32823	9.069063	-3.183596	1.766055	-0.000069	0.001773	0.006472	-59.441373	-68.443515	7.980440
32824	9.069476	-3.159864	1.769259	-0.000008	0.004057	0.004447	-59.444773	-68.439871	7.983744
32825	9.044872	-3.159555	1.768926	-0.002167	0.004096	0.004289	-59.444136	-68.437044	7.981897
32826	9.045947	-3.133117	1.747988	-0.001172	0.004772	0.010790	-59.451963	-68.430060	7.989349
32827	9.044138	-3.139663	1.796758	-0.001102	0.002999	0.004318	-59.452106	-68.427539	7.988998
32828	9.068487	-3.183616	1.743349	-0.002233	0.003841	0.008537	-59.460035	-68.421956	7.995411
32829	9.044389	-3.159466	1.745962	-0.001139	0.004899	0.008665	-59.461026	-68.416736	7.995949
32830	9.067806	-3.163724	1.770921	-0.002255	-0.002371	0.003991	-59.473286	-68.415197	8.006643
32831	9.068554	-3.182519	1.719369	-0.003290	0.000883	0.004060	-59.477131	-68.413418	8.008924
32832	9.091958	-3.165176	1.771550	0.002156	0.001988	0.002381	-59.480266	-68.411405	8.012980
32833	9.042113	-3.167215	1.794917	-0.000048	0.007986	0.011015	-59.478507	-68.404126	8.011233
32834	9.067648	-3.162896	1.747643	0.001024	0.002831	0.006598	-59.484330	-68.399793	8.017341
32835	9.043598	-3.138609	1.750291	0.001021	0.004859	0.008821	-59.484243	-68.394508	8.018051
32836	9.042611	-3.163615	1.747657	-0.000103	0.001646	0.008593	-59.493629	-68.389533	8.027457
32837	9.091053	-3.165978	1.749215	0.000958	0.002576	0.010844	-59.497906	-68.383912	8.032821
32838	9.041126	-3.168268	1.772488	0.003180	0.004818	0.008977	-59.501714	-68.377832	8.037897
32839	9.088828	-3.194864	1.771500	0.001017	0.006888	0.011040	-59.500726	-68.370861	8.037635
32840	9.040350	-3.191395	1.746537	0.005306	0.004650	0.011257	-59.505155	-68.363707	8.044335
32841	9.064875	-3.147468	1.778021	0.002146	0.008073	0.009044	-59.500583	-68.357377	8.040912
32842	9.065402	-3.166538	1.727172	0.001024	0.002831	0.006595	-59.506347	-68.353058	8.046865
32843	9.039802	-3.148037	1.778455	0.007529	0.006892	0.009389	-59.500413	-68.346901	8.045296
32844	9.039572	-3.191586	1.724648	0.001987	0.001351	0.012992	-59.512102	-68.339842	8.058603
32845	9.087028	-3.175757	1.777899	0.005336	0.006806	0.011352	-59.508967	-68.332740	8.058693
32846	9.062960	-3.172903	1.753810	0.007529	0.006892	0.009386	-59.507936	-68.325868	8.060984
32847	9.036693	-3.199907	1.775413	0.006529	0.010273	0.007331	-59.496871	-68.319743	8.053277
32848	9.037741	-3.173328	1.755223	0.004370	0.010315	0.007172	-59.491804	-68.312963	8.049927
32849	9.086828	-3.151290	1.760348	0.006403	0.003679	0.009159	-59.490341	-68.307853	8.052475
32850	9.036844	-3.174880	1.757039	0.009712	0.013064	0.014078	-59.483827	-68.296856	8.051265
32851	9.036107	-3.154597	1.785592	0.003269	0.013317	0.011479	-59.473906	-68.287797	8.042777
32852	9.059102	-3.180935	1.784584	0.008482	0.009471	0.020215	-59.477044	-68.274836	8.050627
32853	9.033847	-3.181844	1.785235	0.007481	0.014882	0.020375	-59.469279	-68.260931	8.047056
32854	9.033668	-3.159418	1.789408	0.005192	0.008331	0.022045	-59.477016	-68.247389	8.058266
32855	9.056560	-3.186255	1.787990	0.003036	0.006344	0.019666	-59.481841	-68.236317	8.065508
32856	9.032130	-3.162850	1.791104	0.005294	0.010740	0.017894	-59.483467	-68.224122	8.070109
32857	9.004687	-3.172276	1.863560	-0.002440	-0.000967	0.016808	-59.498369	-68.216588	8.084824
32858	9.079234	-3.234417	1.735601	0.005068	-0.004353	0.017217	-59.518239	-68.209124	8.108608
32859	9.054387	-3.234624	1.735375	0.005471	0.011371	0.007286	-59.506434	-68.202702	8.099443
32860	9.030871	-3.164959	1.768463	0.004137	0.003342	0.015352	-59.515977	-68.193923	8.111684
32861	9.028017	-3.217437	1.787825	0.006530	0.014330	0.011748	-59.503163	-68.184438	8.102085
32862	9.028873	-3.170092	1.794723	0.007391	0.004354	0.015635	-59.509749	-68.175221	8.113013
32863	9.052718	-3.193553	1.769159	0.006394	0.009767	0.015793	-59.505583	-68.165065	8.112645
32864	9.027622	-3.172682	1.796435	0.007390	0.004354	0.015632	-59.512148	-68.155849	8.123817
32865	9.051671	-3.217304	1.743424	0.004206	0.003595	0.011106	-59.513436	-68.149802	8.127975
32866	9.051933	-3.194115	1.746919	0.003141	0.006725	0.013289	-59.517802	-68.141060	8.134018
32867	9.025970	-3.176130	1.798645	0.009648	0.012808	0.018286	-59.509833	-68.128789	8.131561
32868	9.048961	-3.202705	1.797052	-0.000322	-0.003161	0.016860	-59.530895	-68.121161	8.153288
32869	9.025642	-3.176193	1.775003	-0.000184	0.003433	0.015024	-59.537718	-68.113225	8.160701
32870	9.022654	-3.207724	1.820715	0.000772	-0.000074	0.019197	-59.556010	-68.103542	8.180299
32871	9.022995	-3.227812	1.769211	-0.000323	-0.003160	0.016856	-59.572321	-68.096613	8.197853
32872	9.046914	-3.230088	1.769750	0.002969	-0.002025	0.015021	-59.588702	-68.089556	8.216804
32873	9.022748	-3.185032	1.799066	0.006189	-0.001141	0.017423	-59.599190	-68.081758	8.232105
32874	9.071178	-3.230639	1.746435	0.007394	0.000291	0.011193	-59.607394	-68.075919	8.244950
32875	9.021837	-3.208830	1.772414	0.005126	0.001992	0.019601	-59.616197	-68.066135	8.257779
32876	9.044696	-3.192801	1.824987	0.007356	0.004227	0.017734	-59.624272	-68.055927	8.270218
32877	9.044235	-3.236886	1.771024	0.005127	-0.002070	0.015173	-59.634855	-68.049507	8.284968
32878	9.046151	-3.186835	1.752798	0.007357	0.002196	0.015518	-59.643794	-68.040980	8.298476
32879	9.018010	-3.241321	1.795173	0.007393	0.002321	0.013399	-59.646407	-68.034163	8.306034
32880	9.018353	-3.239514	1.771490	0.010649	0.003329	0.013682	-59.650739	-68.026218	8.316729
32881	9.019470	-3.192033	1.777958	0.006404	0.005704	0.011342	-59.648292	-68.019439	8.318220
32882	9.017437	-3.220002	1.799724	0.009515	-0.001913	0.011249	-59.657932	-68.014219	8.333836
32883	9.041524	-3.221585	1.800735	0.005343	0.002743	0.006886	-59.656522	-68.010500	8.335791
32884	9.017714	-3.197057	1.802975	0.006259	-0.004952	0.008753	-59.669921	-68.007387	8.353563
32885	9.016759	-3.221980	1.799582	0.001868	-0.009169	0.008250	-59.686062	-68.006439	8.372299
32886	9.067051	-3.218781	1.752041	0.004100	-0.004904	0.008595	-59.700521	-68.003393	8.389956
32887	9.066074	-3.222156	1.776072	0.004209	-0.002500	0.004454	-59.704432	-68.002392	8.396949
32888	9.041499	-3.200307	1.802557	0.004246	0.001688	0.006758	-59.709398	-67.998355	8.404136
32889	9.017777	-3.218250	1.750813	0.006477	0.001889	0.002682	-59.705366	-67.996962	8.403964
32890	9.015107	-3.227144	1.823779	0.003148	0.000634	0.006632	-59.712126	-67.993287	8.412601
32891	9.017313	-3.197850	1.778444	0.003149	0.002666	0.008842	-59.713454	-67.988622	8.416154
32892	9.040591	-3.223535	1.776781	0.005417	0.005023	0.004859	-59.712266	-67.984566	8.417321
32893	9.015055	-3.225992	1.800929	0.007503	0.004727	0.009249	-59.708868	-67.979104	8.418467
32894	9.016368	-3.199626	1.780045	0.004209	0.001565	0.008873	-59.715457	-67.974050	8.428032
32895	9.062360	-3.253409	1.800312	0.003185	0.002791	0.006724	-59.715097	-67.970396	8.429785
32896	9.040208	-3.223106	1.754374	0.005344	0.002743	0.006881	-59.718150	-67.965996	8.435853
32897	9.064393	-3.202995	1.782551	0.002160	0.001984	0.002366	-59.716251	-67.964731	8.435312
32898	9.037331	-3.232158	1.827951	0.005491	0.007302	0.002834	-59.710736	-67.961014	8.432413
32899	9.014428	-3.204426	1.806323	0.001025	0.000807	0.004357	-59.712348	-67.959105	8.434959
32900	9.014264	-3.204712	1.806630	0.001136	0.005243	0.002426	-59.711562	-67.956195	8.434337
32901	9.063769	-3.203809	1.784262	0.002196	0.002108	0.000250	-59.707980	-67.955942	8.432005
32902	9.013194	-3.250716	1.777217	-0.002231	0.001833	0.006284	-59.715994	-67.952103	8.438865
32903	9.013027	-3.229702	1.804427	0.004281	-0.000220	0.002430	-59.715618	-67.951444	8.441280
32904	9.039052	-3.225012	1.756825	0.001098	0.001054	0.000125	-59.718291	-67.950885	8.444412
32905	9.061670	-3.231605	1.806459	0.004430	0.006372	0.000592	-59.708466	-67.949230	8.436724
32906	9.038034	-3.227836	1.781974	-0.001023	0.003258	0.000060	-59.709601	-67.948063	8.437196
32907	9.012660	-3.229840	1.806012	0.005492	0.007302	0.002832	-59.699632	-67.945030	8.430008
32908	9.036942	-3.230632	1.807514	0.005565	0.005517	-0.003608	-59.691596	-67.945037	8.423984
32909	9.062938	-3.225657	1.760657	0.005566	0.009582	0.000808	-59.677360	-67.942346	8.412238
32910	9.012290	-3.229363	1.808711	0.004542	0.010808	-0.001342	-59.665021	-67.939688	8.401242
32911	9.013024	-3.226313	1.785467	0.005565	0.007549	-0.001401	-59.651693	-67.938675	8.390476
32912	9.012959	-3.226108	1.786164	0.001210	0.005490	-0.001808	-59.647437	-67.937812	8.385248
32913	9.037265	-3.205446	1.814615	0.002308	0.006544	-0.001684	-59.637002	-67.937229	8.375589
32914	9.012078	-3.249850	1.784441	0.003369	0.003409	-0.003859	-59.632582	-67.937971	8.372391
32915	9.013794	-3.200903	1.790750	0.001322	0.007892	-0.005950	-59.618017	-67.939105	8.357666
32916	9.038267	-3.201341	1.791930	0.002234	0.000198	-0.004075	-59.617978	-67.940872	8.359031
32917	9.013130	-3.224247	1.788661	0.003406	0.005565	-0.003768	-59.606616	-67.941600	8.349051
32918	9.037510	-3.203370	1.817062	0.002308	0.004511	-0.003892	-59.601463	-67.942050	8.344743
32919	9.037522	-3.203085	1.817505	0.000112	0.004436	-0.001934	-59.594677	-67.942199	8.337664
32920	8.987863	-3.225380	1.813615	0.003331	0.005319	0.000464	-59.590993	-67.940249	8.335640
32921	9.037445	-3.224392	1.791169	-0.002159	0.000048	-0.000158	-59.592130	-67.940792	8.335707
32922	9.013010	-3.223488	1.790633	0.001172	0.005367	0.000307	-59.589448	-67.938909	8.332823
32923	9.037357	-3.224440	1.791529	-0.005415	-0.000958	-0.000440	-59.593476	-67.939883	8.333996
32924	9.012124	-3.226104	1.815341	0.001360	0.010049	-0.005860	-59.580590	-67.939696	8.320429
32925	9.011326	-3.228480	1.840030	-0.002083	0.000294	-0.004391	-59.578353	-67.942259	8.316901
32926	9.039235	-3.196319	1.771113	-0.002009	0.004607	-0.004209	-59.575206	-67.942824	8.312438
32927	9.013222	-3.222115	1.792035	-0.000948	0.003505	-0.004175	-59.568557	-67.944349	8.304851
32928	9.061311	-3.247721	1.790841	-0.002045	0.000417	-0.006508	-59.568911	-67.947287	8.303602
32929	9.013497	-3.199623	1.819433	-0.001933	0.004853	-0.008443	-59.558121	-67.950528	8.290940
32930	9.038132	-3.221198	1.793451	-0.000873	0.003751	-0.008410	-59.552323	-67.953445	8.283043
32931	9.062759	-3.242752	1.767569	0.001323	0.005860	-0.008161	-59.538636	-67.956252	8.269268
32932	9.036652	-3.225299	1.843362	-0.002774	0.016860	-0.010141	-59.516714	-67.956211	8.243504
32933	9.041051	-3.188840	1.750466	-0.000725	0.010344	-0.010256	-59.497222	-67.958746	8.222200
32934	9.038645	-3.217843	1.796883	-0.003981	0.009336	-0.010540	-59.484865	-67.961078	8.206556
32935	9.015263	-3.191723	1.799719	-0.001784	0.009413	-0.012500	-59.465492	-67.964987	8.184728
32936	9.014749	-3.214761	1.797554	-0.001781	0.007380	-0.014709	-59.451216	-67.969953	8.167748
32937	9.015966	-3.189027	1.800974	0.000418	0.005424	-0.018877	-59.430838	-67.978166	8.146198
32938	9.013749	-3.217631	1.847149	-0.002920	0.008235	-0.010511	-59.419180	-67.980807	8.131630
32939	9.015040	-3.213502	1.823199	-0.002908	0.000103	-0.019345	-59.406839	-67.990798	8.116695
32940	8.992162	-3.208201	1.797892	-0.006238	-0.003185	-0.017603	-59.405815	-68.000260	8.111179
32941	9.040891	-3.232537	1.795863	-0.010549	-0.007158	-0.022341	-59.404538	-68.013845	8.103456
32942	9.042567	-3.206278	1.797825	-0.009375	-0.005855	-0.026457	-59.402206	-68.028464	8.094622
32943	9.043585	-3.203958	1.796838	-0.010468	-0.008943	-0.028796	-59.398383	-68.045752	8.084206
32944	9.017818	-3.230346	1.840745	-0.011347	-0.003157	-0.035010	-59.387644	-68.063797	8.065411
32945	9.046983	-3.194956	1.770864	-0.010162	-0.007948	-0.045764	-59.370088	-68.089160	8.040384
32946	9.074366	-3.165227	1.749482	-0.009190	-0.003201	-0.034865	-59.358186	-68.107149	8.021248
32947	9.046847	-3.196958	1.842722	-0.004669	0.007618	-0.036214	-59.325243	-68.123251	7.983038
32948	9.051776	-3.115333	1.803453	-0.001447	0.006474	-0.036027	-59.296128	-68.138977	7.950705
32949	9.051255	-3.182534	1.771400	-0.002642	0.013296	-0.023066	-59.264552	-68.146926	7.915226
32950	9.050117	-3.186004	1.820763	-0.001566	0.008133	-0.027461	-59.239620	-68.157946	7.886810
32951	9.051578	-3.159423	1.823970	-0.006018	0.001625	-0.025938	-59.222164	-68.170718	7.864464
32952	9.027298	-3.180631	1.820186	-0.007113	0.000569	-0.026068	-59.210660	-68.183261	7.847381
32953	9.052558	-3.178995	1.820877	-0.005942	0.001876	-0.030190	-59.189690	-68.198047	7.821301
32954	9.029389	-3.196767	1.792798	-0.006991	-0.001087	-0.034657	-59.173800	-68.215303	7.799493
32955	9.031170	-3.169598	1.795330	-0.002743	-0.003452	-0.032311	-59.155935	-68.232691	7.778737
32956	9.057300	-3.143180	1.798782	-0.004803	0.001028	-0.034416	-59.136274	-68.249206	7.753925
32957	9.033659	-3.118323	1.825041	-0.004918	0.000653	-0.028051	-59.117675	-68.263288	7.731041
32958	9.033789	-3.140308	1.822136	-0.004964	0.002559	-0.023716	-59.104027	-68.274083	7.712850
32959	9.035324	-3.135659	1.797670	-0.005166	-0.004287	-0.017623	-59.099327	-68.284487	7.704778
32960	9.035085	-3.137131	1.821181	-0.006327	-0.007626	-0.015719	-59.104930	-68.294354	7.706488
32961	9.034972	-3.160247	1.817609	-0.004186	-0.003605	-0.011127	-59.103623	-68.301364	7.702672
32962	9.062206	-3.129953	1.772254	-0.003112	-0.006734	-0.013310	-59.108043	-68.309787	7.704917
32963	9.060581	-3.180178	1.790104	-0.007373	-0.002341	-0.013448	-59.105280	-68.317567	7.697570
32964	9.037928	-3.129861	1.794680	-0.000925	-0.004616	-0.013059	-59.106017	-68.325241	7.697683
32965	9.061525	-3.178013	1.789170	-0.006346	-0.003565	-0.011291	-59.105771	-68.332320	7.693679
32966	9.063219	-3.128517	1.794526	-0.001990	-0.003518	-0.013095	-59.105709	-68.339693	7.692001
32967	9.037826	-3.153778	1.814657	-0.004149	-0.003479	-0.013257	-59.102638	-68.347713	7.686312
32968	9.063514	-3.150588	1.790788	-0.005252	-0.002507	-0.011167	-59.104593	-68.353843	7.684706
32969	9.065437	-3.122420	1.769014	0.000141	-0.005713	-0.013030	-59.101996	-68.362408	7.682172
32970	9.040788	-3.144979	1.765230	-0.000889	0.003758	-0.008442	-59.095693	-68.365358	7.674389
32971	9.040886	-3.122675	1.792298	-0.000924	-0.004615	-0.013065	-59.092315	-68.373617	7.670358
32972	9.039795	-3.148761	1.813558	-0.004077	0.005020	-0.010763	-59.084535	-68.377340	7.659018
32973	9.065295	-3.145739	1.790296	0.000149	0.000505	-0.008502	-59.077575	-68.381849	7.651796
32974	9.065034	-3.102281	1.844651	-0.000916	0.001602	-0.008537	-59.073862	-68.385488	7.646590
32975	9.042204	-3.140727	1.765548	0.000139	0.002535	-0.006284	-59.066033	-68.388308	7.638428
32976	9.066480	-3.119512	1.793730	-0.000927	0.003632	-0.006318	-59.061430	-68.390257	7.632441
32977	9.041613	-3.142492	1.790407	0.000166	0.004691	-0.006191	-59.050976	-68.392396	7.621472
32978	9.043188	-3.114825	1.769421	-0.003086	0.003670	-0.006480	-59.047431	-68.394417	7.615245
32979	9.090708	-3.142668	1.792510	0.001243	0.001564	-0.008377	-59.038610	-68.398551	7.606696
32980	9.065612	-3.144404	1.815988	-0.004281	0.000202	-0.002449	-59.043047	-68.399617	7.608401
32981	9.042826	-3.116157	1.793857	-0.003075	0.001640	-0.008700	-59.036362	-68.403886	7.599489
32982	9.042175	-3.118399	1.818163	-0.000954	0.001476	-0.006413	-59.034336	-68.406525	7.596280
32983	9.042362	-3.117853	1.818170	-0.004205	0.000455	-0.006702	-59.031255	-68.410162	7.590548
32984	9.068637	-3.112308	1.770434	-0.002084	0.000290	-0.004414	-59.032824	-68.412170	7.590564
32985	9.067362	-3.138984	1.791683	-0.004206	0.000455	-0.006702	-59.029740	-68.415807	7.584830
32986	9.067897	-3.092855	1.821548	-0.001007	-0.002836	-0.006600	-59.032926	-68.419815	7.587145
32987	9.018972	-3.136793	1.789590	-0.003278	-0.003178	-0.000382	-59.038533	-68.421418	7.591329
32988	9.069275	-3.110966	1.769524	-0.005373	-0.000858	-0.002577	-59.044745	-68.422869	7.594158
32989	9.042664	-3.140262	1.813995	-0.004344	-0.002081	-0.000417	-59.049577	-68.424165	7.596849
32990	9.044136	-3.113158	1.792458	-0.001093	-0.001059	-0.000128	-59.055401	-68.424473	7.602014
32991	9.067176	-3.140908	1.814229	-0.007559	-0.002976	-0.002833	-59.061387	-68.427220	7.603968
32992	9.043779	-3.137201	1.788749	-0.005400	-0.003014	-0.002671	-59.070200	-68.429357	7.609591
32993	9.044470	-3.112901	1.791220	-0.002212	-0.004275	-0.000349	-59.076589	-68.431266	7.615272
32994	9.068385	-3.137832	1.788524	-0.005463	-0.005297	-0.000639	-59.089780	-68.433077	7.625562
32995	9.044167	-3.136979	1.787173	-0.001071	-0.005118	-0.004569	-59.093426	-68.437307	7.628995
32996	9.044844	-3.112760	1.789575	-0.004445	-0.004491	0.003742	-59.108281	-68.436727	7.641797
32997	9.069818	-3.089506	1.792733	-0.001182	-0.005499	0.001811	-59.117216	-68.437932	7.650849
32998	9.020506	-3.112562	1.787697	-0.000116	-0.006596	0.001844	-59.130781	-68.438905	7.664918
32999	9.068002	-3.141222	1.809549	-0.003447	-0.014086	0.001272	-59.151306	-68.442897	7.685037
33000	9.069772	-3.135689	1.760195	-0.000126	-0.004566	0.004064	-59.163994	-68.442181	7.698163
33001	9.045987	-3.111046	1.761746	-0.000142	-0.008752	0.001749	-59.176344	-68.444369	7.711527
33002	9.019747	-3.094991	1.835886	0.003110	-0.007730	0.002038	-59.189602	-68.445580	7.727231
33003	9.068878	-3.118099	1.809084	-0.001451	-0.018817	0.007621	-59.219610	-68.447827	7.758775
33004	9.069782	-3.115828	1.783407	-0.001335	-0.012221	0.005777	-59.243765	-68.448510	7.783428
33005	9.044533	-3.118693	1.805887	-0.000252	-0.009133	0.008125	-59.261393	-68.447662	7.802399
33006	9.043887	-3.143664	1.801966	-0.001371	-0.012348	0.007902	-59.287287	-68.447332	7.828926
33007	9.069641	-3.117967	1.780383	-0.002411	-0.009095	0.007963	-59.305982	-68.446547	7.847714
33008	9.045150	-3.117943	1.778971	-0.000162	-0.004693	0.006187	-59.320350	-68.444818	7.862636
33009	9.068844	-3.143503	1.776192	0.001907	-0.009171	0.008283	-59.336898	-68.443894	7.881777
33010	9.069375	-3.119937	1.778288	-0.005600	-0.007832	0.005643	-59.357875	-68.443349	7.900426
33011	9.069582	-3.141741	1.750353	0.000913	-0.007820	0.003997	-59.370138	-68.444139	7.914347
33012	9.045679	-3.117380	1.752108	-0.001236	-0.001567	0.008375	-59.382802	-68.440418	7.926762
33013	9.043901	-3.123933	1.799988	0.001880	-0.011327	0.008184	-59.401979	-68.440164	7.948713
33014	9.068201	-3.125443	1.799785	0.000778	-0.010357	0.010277	-59.425842	-68.438066	7.974447
33015	9.069671	-3.120568	1.750482	-0.001353	-0.008162	0.010212	-59.444410	-68.435883	7.993752
33016	9.043468	-3.126703	1.797350	0.000743	-0.010483	0.012400	-59.469987	-68.432771	8.021269
33017	9.092388	-3.171883	1.743841	0.001892	-0.005112	0.012718	-59.484724	-68.428459	8.038455
33018	9.068874	-3.123928	1.748615	0.002950	-0.004181	0.014970	-59.503031	-68.422240	8.059516
33019	9.042756	-3.151375	1.768892	0.000896	-0.003761	0.008435	-59.513489	-68.419646	8.071488
33020	9.067695	-3.150044	1.745204	-0.000176	-0.000634	0.010624	-59.525941	-68.414542	8.084314
33021	9.066425	-3.132480	1.796492	0.000924	-0.001605	0.008530	-59.533755	-68.411273	8.093460
33022	9.066209	-3.133148	1.796415	-0.000106	-0.000380	0.006374	-59.542708	-68.408195	8.102576
33023	9.091341	-3.152880	1.745987	0.001045	0.004990	0.006693	-59.540870	-68.403917	8.101417
33024	9.065097	-3.158454	1.794044	-0.000042	0.001903	0.004345	-59.545433	-68.401181	8.105833
33025	9.042130	-3.152313	1.745162	0.002146	0.004019	0.004600	-59.542641	-68.398219	8.104325
33026	9.066165	-3.132111	1.773245	-0.003295	0.000884	0.004057	-59.550114	-68.395921	8.109936
33027	9.041340	-3.110636	1.799955	0.005328	0.004784	0.009135	-59.547870	-68.390497	8.110979
33028	9.064967	-3.157763	1.770684	-0.000235	-0.004946	0.010429	-59.565504	-68.386746	8.129389
33029	9.066316	-3.152816	1.722106	0.002046	0.001610	0.008751	-59.568812	-68.382432	8.134381
33030	9.040008	-3.158547	1.770147	0.002111	0.003892	0.006723	-59.571355	-68.377950	8.137981
33031	9.064149	-3.159744	1.771335	0.004305	0.003979	0.004758	-59.567491	-68.374921	8.136650
33032	9.063213	-3.184446	1.769069	0.002169	0.008205	0.006913	-59.564754	-68.369095	8.134594
33033	9.040614	-3.132826	1.750699	0.004334	0.006135	0.004853	-59.558257	-68.365393	8.130450
33034	9.039625	-3.135816	1.775637	0.001217	0.007653	-0.001710	-59.550434	-68.363988	8.122351
33035	9.038020	-3.163036	1.797494	0.003211	0.002921	0.004630	-59.548424	-68.361330	8.122340
33036	9.063131	-3.161047	1.774219	0.002159	-0.000040	0.000160	-59.550995	-68.361236	8.126015
33037	9.063712	-3.136913	1.777293	-0.001072	0.003128	0.002187	-59.549392	-68.359724	8.123803
33038	9.063597	-3.137123	1.777510	-0.000007	0.002030	0.002219	-59.552120	-68.358014	8.126308
33039	9.037499	-3.142186	1.825521	0.000094	0.004439	-0.001934	-59.545202	-68.358157	8.119096
33040	9.063526	-3.136950	1.778177	0.001159	0.003341	-0.001901	-59.542596	-68.358103	8.116583
33041	9.063498	-3.136974	1.778276	-0.004354	-0.000046	0.001804	-59.546545	-68.357702	8.118321
33042	9.063399	-3.137114	1.778533	-0.000977	0.007567	0.000253	-59.541465	-68.355360	8.111819
33043	9.038330	-3.160469	1.775278	-0.005282	0.003588	-0.004505	-59.536805	-68.357019	8.103723
33044	9.061678	-3.142623	1.827835	0.001181	0.007526	0.000412	-59.530644	-68.354612	8.097409
33045	9.037233	-3.141889	1.827351	-0.000029	-0.002156	-0.000095	-59.533351	-68.355762	8.100477
33046	9.063483	-3.158161	1.752396	0.000000	0.000000	-0.000000	-59.536909	-68.355745	8.103888
33047	9.037481	-3.163125	1.800047	-0.001058	-0.000931	-0.002251	-59.537103	-68.357604	8.103618
33048	9.039628	-3.111767	1.781497	-0.000065	-0.002283	0.002029	-59.545014	-68.357250	8.111658
33049	9.063684	-3.157863	1.751892	0.000050	-0.003933	-0.006562	-59.545155	-68.362109	8.112014
33050	9.064518	-3.133331	1.754373	-0.001152	-0.005370	-0.000318	-59.555805	-68.363812	8.122360
33051	9.037852	-3.162604	1.799100	0.003282	0.003174	0.000382	-59.550329	-68.363178	8.118665
33052	9.064578	-3.133114	1.754450	-0.001022	-0.000805	-0.004375	-59.552236	-68.365562	8.119680
33053	9.063221	-3.159968	1.775679	-0.002123	0.000167	-0.002284	-59.551650	-68.367118	8.117915
33054	9.089359	-3.154618	1.727985	0.002231	0.000213	-0.004088	-59.550625	-68.369068	8.117781
33055	9.013572	-3.139502	1.825835	-0.003130	0.005577	-0.002126	-59.543993	-68.368975	8.108890
33056	9.087833	-3.159949	1.776636	0.002108	-0.006382	-0.002249	-59.552586	-68.371933	8.119029
33057	9.039882	-3.133674	1.778108	-0.001892	0.007141	-0.010495	-59.537163	-68.375519	8.101445
33058	9.063692	-3.158258	1.776316	0.003217	0.000892	0.002412	-59.539463	-68.374065	8.105498
33059	9.062889	-3.160971	1.800752	-0.003087	0.003674	-0.006470	-59.531991	-68.376669	8.095730
33060	9.065332	-3.130481	1.755250	0.000043	-0.001903	-0.004343	-59.534628	-68.379365	8.098190
33061	9.040256	-3.132185	1.778830	-0.001994	0.004732	-0.006343	-59.525301	-68.381598	8.087102
33062	9.040391	-3.131739	1.778929	-0.003181	-0.000765	-0.004536	-59.528213	-68.384061	8.087872
33063	9.064296	-3.156337	1.776648	-0.002087	0.000293	-0.004409	-59.525888	-68.386630	8.084258
33064	9.015690	-3.154434	1.775059	-0.003145	-0.000639	-0.006661	-59.527050	-68.390107	8.083172
33065	9.090517	-3.129002	1.755827	0.000044	-0.001903	-0.004344	-59.526288	-68.393281	8.082552
33066	9.064638	-3.133719	1.803334	-0.005340	-0.000726	-0.004697	-59.530246	-68.395816	8.083127
33067	9.064940	-3.154794	1.776105	-0.001029	0.001225	-0.002157	-59.527804	-68.397002	8.080038
33068	9.041252	-3.129666	1.778201	-0.002151	-0.001990	-0.002380	-59.533198	-68.398762	8.084117
33069	9.041394	-3.129489	1.777791	-0.003273	-0.005204	-0.002603	-59.539733	-68.402035	8.089302
33070	9.065961	-3.130031	1.777960	-0.003273	-0.005204	-0.002603	-59.549605	-68.404841	8.097514
33071	9.042555	-3.126237	1.752451	-0.004339	-0.004107	-0.002636	-59.555360	-68.407811	8.101203
33072	9.041015	-3.131988	1.800489	-0.004347	-0.002077	-0.000416	-59.563540	-68.408631	8.106933
33073	9.065582	-3.132529	1.800655	-0.002200	-0.008331	-0.004792	-59.571765	-68.413892	8.114596
33074	9.040839	-3.155672	1.796263	-0.005397	-0.005038	-0.004889	-59.580948	-68.417781	8.120760
33075	9.091585	-3.150729	1.748603	-0.003194	-0.006979	-0.009075	-59.584920	-68.424766	8.123237
33076	9.018535	-3.126603	1.773077	-0.002080	-0.001736	-0.006631	-59.586792	-68.428559	8.123586
33077	9.092754	-3.125358	1.750728	-0.002144	-0.004019	-0.004602	-59.589747	-68.432474	8.125615
33078	9.042103	-3.174926	1.767353	-0.001022	-0.000804	-0.004378	-59.591490	-68.434887	8.126477
33079	9.068717	-3.123799	1.749660	-0.002053	0.000421	-0.006535	-59.587423	-68.438470	8.121012
33080	9.068279	-3.147572	1.746629	-0.003182	-0.000765	-0.004538	-59.590227	-68.440952	8.121689
33081	9.068383	-3.125593	1.773409	-0.002065	-0.005793	-0.011074	-59.590606	-68.448580	8.120996
33082	9.068893	-3.146336	1.745667	-0.003273	-0.005205	-0.002606	-59.600427	-68.451397	8.129162
33083	9.068168	-3.127386	1.796570	-0.005263	-0.002500	-0.011171	-59.598448	-68.458118	8.123966
33084	9.044359	-3.147173	1.768182	-0.005325	-0.004784	-0.009143	-59.604109	-68.464046	8.126396
33085	9.045281	-3.122396	1.770474	-0.004330	-0.006136	-0.004861	-59.610784	-68.468702	8.131078
33086	9.069309	-3.146963	1.767670	-0.004303	-0.003980	-0.004765	-59.618061	-68.472234	8.135878
33087	9.045571	-3.100360	1.796422	-0.003264	-0.007233	-0.004830	-59.625529	-68.477193	8.142068
33088	9.070442	-3.122082	1.769055	-0.004420	-0.010576	-0.002930	-59.642478	-68.481729	8.157196
33089	9.046359	-3.121296	1.766905	-0.006696	-0.017133	-0.001257	-59.666963	-68.487786	8.179563
33090	9.096210	-3.119775	1.742712	-0.005521	-0.009606	-0.000838	-59.684864	-68.491005	8.195037
33091	9.071378	-3.143245	1.738308	-0.005404	-0.003010	-0.002672	-59.689860	-68.493672	8.197252
33092	9.072099	-3.118926	1.740803	0.001012	-0.005409	-0.000164	-59.699242	-68.495345	8.207592
33093	9.071982	-3.097614	1.767613	-0.002187	-0.002118	-0.000257	-59.703047	-68.496560	8.210509
33094	9.070877	-3.145996	1.761338	-0.004339	-0.004107	-0.002641	-59.712031	-68.499086	8.217127
33095	9.046592	-3.145221	1.760209	-0.001120	-0.003215	-0.000226	-59.716628	-68.500602	8.221550
33096	9.071737	-3.121584	1.763285	-0.002234	-0.008458	-0.002676	-59.729837	-68.504402	8.234012
33097	9.071897	-3.121486	1.762638	-0.002214	-0.004274	-0.000355	-59.736299	-68.506287	8.239766
33098	9.095795	-3.146505	1.759672	-0.003396	-0.009772	0.001445	-59.754841	-68.508428	8.257243
33099	9.072112	-3.121599	1.761326	-0.003218	-0.000892	-0.002414	-59.756121	-68.510356	8.256810
33100	9.097333	-3.119366	1.737577	0.001005	-0.003381	0.002058	-59.764548	-68.510349	8.266127
33101	9.096665	-3.143884	1.734445	-0.002228	-0.000218	0.004092	-59.769180	-68.508861	8.269906
33102	9.071371	-3.146414	1.758045	0.002152	0.001990	0.002383	-59.770425	-68.507147	8.272213
33103	9.071845	-3.122369	1.761341	0.002180	0.004146	0.002481	-59.765866	-68.505198	8.268829
33104	9.073043	-3.095504	1.740535	0.001079	0.005115	0.004576	-59.765391	-68.501498	8.268629
33105	9.070823	-3.147276	1.759328	0.002145	0.004018	0.004606	-59.762571	-68.498534	8.267092
33106	9.071847	-3.099124	1.765663	-0.001046	0.005281	0.002290	-59.761419	-68.495920	8.264856
33107	9.022178	-3.122359	1.761988	0.003259	0.009260	0.007056	-59.753171	-68.490230	8.258170
33108	9.070623	-3.124330	1.764155	0.003204	0.004948	0.006860	-59.753335	-68.485453	8.259970
33109	9.069648	-3.149233	1.761882	0.002131	0.008074	0.009051	-59.748688	-68.479118	8.256460
33110	9.069898	-3.125691	1.765470	0.001045	0.004987	0.006699	-59.749911	-68.474411	8.258069
33111	9.044431	-3.128495	1.789366	0.001017	0.002831	0.006601	-59.750690	-68.470802	8.259706
33112	9.068758	-3.150980	1.763337	0.003239	0.005076	0.004733	-59.749090	-68.467044	8.259634
33113	9.069841	-3.124406	1.742737	0.002131	0.008074	0.009049	-59.744445	-68.460710	8.256127
33114	9.067813	-3.131120	1.791849	0.003134	0.004693	0.011107	-59.748037	-68.453909	8.261574
33115	9.067450	-3.131709	1.792661	0.001199	0.011711	0.002739	-59.734758	-68.449648	8.248208
33116	9.066507	-3.156337	1.790640	0.003232	0.007104	0.006954	-59.732219	-68.444209	8.247127
33117	9.043983	-3.126116	1.745281	0.005419	0.009221	0.007210	-59.722919	-68.438453	8.240639
33118	9.066953	-3.109107	1.798432	0.004318	0.010191	0.009302	-59.717602	-68.430961	8.237241
33119	9.042356	-3.130446	1.771202	0.004205	0.001567	0.008915	-59.719829	-68.426572	8.242400
33120	9.067206	-3.129106	1.748008	-0.000121	0.003675	0.010815	-59.726298	-68.420216	8.248944
33121	9.065270	-3.135815	1.796500	-0.000171	-0.002666	0.008401	-59.735947	-68.417304	8.259388
33122	9.040950	-3.156878	1.768311	-0.001158	-0.003342	0.001899	-59.745261	-68.417387	8.268356
33123	9.090458	-3.155791	1.745325	0.000959	-0.001480	0.006405	-59.751320	-68.415119	8.275635
33124	9.064890	-3.137135	1.796116	0.003211	0.002919	0.004633	-59.752283	-68.412043	8.278314
33125	9.066319	-3.131664	1.748031	0.003211	0.002919	0.004633	-59.750254	-68.409382	8.278283
33126	9.016253	-3.112375	1.798439	0.002103	0.005919	0.008946	-59.751231	-68.403309	8.280298
33127	9.089301	-3.136627	1.773714	0.004147	-0.002746	0.008720	-59.758727	-68.400260	8.291088
33128	9.040189	-3.136089	1.772282	0.001975	0.001352	0.013000	-59.768420	-68.393498	8.302400
33129	9.063369	-3.140809	1.797367	-0.002308	0.001560	0.010555	-59.775561	-68.388298	8.308832
33130	9.063240	-3.163205	1.769809	-0.003555	-0.008249	0.012165	-59.799786	-68.384718	8.332371
33131	9.064391	-3.137320	1.747883	-0.001373	-0.004105	0.014640	-59.816430	-68.379125	8.349601
33132	9.062442	-3.144224	1.796070	-0.002301	-0.000468	0.008333	-59.827404	-68.375198	8.359662
33133	9.063067	-3.142008	1.771572	-0.003390	-0.003555	0.005985	-59.838219	-68.373732	8.369379
33134	9.061578	-3.169554	1.792246	-0.003378	-0.007612	0.001545	-59.853789	-68.375224	8.383723
33135	9.063354	-3.163737	1.742979	-0.005466	-0.007317	-0.002862	-59.864075	-68.379222	8.391591
33136	9.037627	-3.168662	1.789543	-0.007715	-0.013744	-0.003313	-59.886270	-68.384883	8.410388
33137	8.988587	-3.169651	1.810341	-0.013141	-0.022961	-0.010522	-59.914986	-68.397171	8.433350
33138	9.063503	-3.167758	1.785676	-0.011931	-0.025577	-0.021209	-59.941458	-68.415095	8.454153
33139	9.065994	-3.139178	1.761588	-0.012064	-0.028116	-0.014942	-59.972882	-68.431046	8.480684
33140	9.067754	-3.135119	1.734338	-0.015318	-0.029133	-0.015237	-60.010161	-68.447018	8.511016
33141	9.067950	-3.136838	1.755676	-0.013067	-0.024733	-0.017010	-60.036494	-68.463015	8.531451
33142	9.092724	-3.160474	1.750487	-0.014219	-0.030102	-0.017343	-60.072917	-68.480301	8.561534
33143	9.046410	-3.130338	1.725022	-0.011907	-0.023417	-0.021140	-60.094009	-68.497965	8.577045
33144	9.097429	-3.081993	1.729650	-0.011003	-0.027185	-0.012718	-60.128343	-68.512112	8.606862
33145	9.097435	-3.127028	1.697598	-0.006592	-0.008505	-0.000878	-60.142312	-68.515448	8.617987
33146	9.024649	-3.058585	1.752068	-0.001343	-0.008169	0.010191	-60.163729	-68.512785	8.639870
33147	9.122847	-3.102451	1.675515	-0.007866	-0.002098	0.018512	-60.184377	-68.504655	8.657389
33148	8.995876	-3.139685	1.790187	-0.001363	0.001965	0.021312	-60.201023	-68.493577	8.674131
33149	9.095690	-3.111752	1.722543	-0.003824	-0.013472	0.026817	-60.239668	-68.484548	8.713487
33150	9.094302	-3.138611	1.718681	-0.005870	-0.002781	0.029282	-60.270565	-68.470849	8.742785
33151	9.069639	-3.116662	1.720405	-0.001708	-0.007560	0.035762	-60.306904	-68.455674	8.780972
33152	9.042844	-3.167621	1.713452	0.001636	-0.000076	0.036346	-60.335072	-68.437682	8.811955
33153	9.116050	-3.103755	1.748696	0.001568	0.001694	0.042807	-60.362826	-68.416360	8.842937
33154	9.066389	-3.124986	1.696808	0.004811	0.014872	0.056421	-60.384609	-68.384129	8.869027
33155	9.063359	-3.112150	1.749984	0.011187	0.018414	0.067685	-60.403473	-68.345672	8.896389
33156	9.085070	-3.162127	1.698801	0.015433	0.028209	0.083319	-60.421430	-68.296264	8.924922
33157	9.133519	-3.138484	1.634252	0.031640	0.039097	0.095610	-60.422360	-68.238038	8.945610
33158	9.126281	-3.180201	1.710085	0.041676	0.069520	0.108284	-60.391331	-68.164510	8.937603
33159	9.148932	-3.157960	1.649234	0.061992	0.073460	0.126877	-60.354287	-68.080985	8.936133
33160	9.367312	-3.075806	1.629273	0.070557	0.103472	0.164780	-60.304841	-67.969704	8.926091
33161	9.450967	-3.457993	1.381061	0.089580	0.128065	0.217932	-60.249139	-67.825359	8.921541
33162	9.423555	-3.112235	1.640724	0.163199	0.214744	0.245626	-60.068818	-67.642178	8.827403
33163	9.116118	-3.108922	1.755546	0.168699	0.213855	0.296149	-59.920827	-67.434438	8.772030
33164	9.631299	-2.579589	2.062460	0.111206	0.209708	0.409227	-59.892395	-67.171463	8.809936
33165	8.813256	-3.593215	1.865974	0.130449	0.201585	0.563142	-59.963167	-66.834836	8.968187
33166	10.335476	-2.745978	1.272876	0.191098	0.133105	0.618305	-60.113243	-66.489976	9.250534
33167	9.774628	-2.957936	2.148482	0.158693	0.404299	0.915029	-60.158845	-65.920448	9.399919
33168	9.530508	-3.485597	2.226652	0.033497	0.310680	1.066872	-60.468770	-65.301449	9.760903
33169	10.295718	-4.166743	2.175465	0.032791	0.384419	1.187192	-60.753659	-64.601157	10.096278
33170	10.901436	-3.889563	2.891723	-0.077038	0.396373	1.282855	-61.128354	-63.848551	10.462948
33171	13.639036	-3.460463	2.439449	-0.120167	0.163447	1.632620	-61.923966	-62.982086	11.275782
33172	12.647526	-3.301791	2.216045	-0.344679	0.664836	2.128455	-62.564266	-61.725750	11.775201
33173	11.516437	-4.548620	2.585610	-0.337788	0.602440	2.457197	-63.358374	-60.315293	12.461847
33174	12.745055	-3.794455	2.637564	-0.284750	0.600101	2.728214	-64.173881	-58.761490	13.218099
33175	11.352824	-4.287757	2.467166	-0.445672	0.765654	3.129467	-65.022804	-56.954040	13.919189
33176	10.504330	-5.144991	2.052168	-0.361954	0.674553	3.389207	-65.905910	-55.027449	14.733645
33177	13.677308	-7.418398	2.743184	-0.200220	0.663731	3.472278	-66.644223	-53.053528	15.504121
33178	12.932400	-5.856239	2.947461	-0.114333	0.990126	3.483002	-67.048278	-50.996122	15.932840
33179	8.697252	-5.513929	1.388924	-0.429627	0.854563	3.841918	-67.761869	-48.776133	16.544101
33180	8.306210	-6.809320	0.610769	-0.199006	0.560005	3.715105	-68.423546	-46.682142	17.283232
33181	6.163445	-6.300835	0.494303	-0.185115	0.423374	3.776733	-69.099878	-44.577740	18.081056
33182	4.518689	-6.889456	0.164979	-0.090160	-0.048743	3.654799	-69.876760	-42.626810	19.131374
33183	3.702696	-2.125302	-1.443756	0.587042	-0.818050	2.915055	-70.445306	-41.215172	20.485936
33184	8.517038	4.860448	-1.663231	0.787971	-1.483748	1.832211	-70.989401	-40.505565	22.006280
33185	13.074215	3.876389	-0.429564	-0.022596	-1.322341	1.772128	-71.880809	-39.784668	23.368999
33186	15.117906	-0.543337	-2.373863	0.305756	-1.307324	0.211001	-72.332949	-39.901007	24.346572
33187	15.492240	6.669450	0.222947	0.347375	-0.721051	-1.078983	-72.308263	-40.615928	24.616603
33188	12.358791	2.804548	-0.926508	-0.347048	-0.356577	-1.437803	-72.461196	-41.465032	24.544957
33189	10.309307	2.676758	-0.600626	-0.170191	-0.270419	-2.143676	-72.356955	-42.683104	24.244126
33190	8.609191	2.080631	-0.643814	-0.362252	-0.243909	-2.484826	-72.283339	-44.084773	23.833074
33191	7.230246	1.350036	-0.338853	-0.357144	-0.373534	-2.728718	-72.216500	-45.639482	23.448480
33192	6.767898	0.864886	-0.051456	-0.359668	-0.615098	-2.855923	-72.251958	-47.308513	23.211511
33193	6.845430	0.486364	0.279689	-0.357954	-0.817613	-2.927716	-72.386560	-49.049452	23.117127
33194	7.376924	-0.079565	0.632338	-0.351618	-0.989162	-2.986795	-72.620801	-50.855487	23.158341
33195	8.314859	-0.702364	0.876184	-0.349578	-1.079432	-3.043065	-72.915440	-52.704429	23.278594
33196	9.457159	-1.264296	1.099984	-0.367719	-1.064628	-3.095220	-73.219144	-54.582403	23.392554
33197	10.207900	-1.688282	1.193655	-0.424590	-0.926070	-3.154717	-73.447884	-56.466603	23.375096
33198	10.806990	-2.205362	1.187671	-0.528415	-0.752088	-3.195109	-73.586607	-58.348316	23.178974
33199	11.148854	-2.785997	1.116225	-0.654977	-0.560841	-3.189044	-73.612785	-60.192333	22.773056
33200	11.123359	-3.284169	0.955870	-0.810542	-0.370290	-3.131959	-73.528926	-61.977798	22.145415
33201	11.030425	-3.848064	0.937443	-0.979872	-0.247123	-3.021604	-73.394962	-63.678201	21.363982
33202	11.160884	-4.531263	0.892856	-1.165620	-0.181025	-2.901459	-73.274107	-65.304918	20.488890
33203	11.472094	-5.362581	0.974564	-1.314230	-0.154470	-2.777765	-73.183081	-66.854775	19.565773
33204	11.813613	-6.066148	0.874267	-1.401349	-0.161912	-2.715612	-73.108519	-68.375170	18.615665
33205	12.260378	-6.658560	0.986111	-1.460687	-0.161583	-2.694867	-72.997747	-69.879634	17.601629
33206	12.890829	-7.358510	1.042370	-1.492502	-0.155866	-2.700012	-72.804020	-71.388830	16.488831
33207	13.476909	-8.126862	1.184427	-1.465816	-0.068394	-2.755753	-72.289970	-72.907366	15.066689
33208	13.583382	-8.890700	1.362610	-1.374543	0.075060	-2.832764	-71.204933	-74.439578	13.114579
33209	12.949237	-9.406768	1.597218	-1.230730	0.235948	-2.910515	-69.295573	-75.964260	10.410755
33210	11.591154	-9.652078	1.841421	-1.042544	0.336973	-2.943986	-66.446494	-77.458542	6.869022
33211	9.868962	-9.862189	2.021284	-0.858171	0.336078	-2.901115	-62.700460	-78.878535	2.539855
33212	8.446575	-10.433832	2.136223	-0.638864	0.228189	-2.780348	-58.192290	-80.204393	-2.416937
33213	7.461837	-11.429016	2.310251	-0.321595	0.102426	-2.617266	-52.828734	-81.409080	-8.036366
33214	6.057825	-12.003636	2.297291	0.077126	0.011643	-2.376999	-46.529403	-82.447474	-14.354181
33215	4.196101	-12.522253	2.300879	0.474980	-0.127176	-2.056544	-39.771859	-83.308379	-20.889547
33216	2.189107	-13.002147	2.353767	0.888500	-0.381858	-1.706522	-33.333030	-84.069575	-26.855562
33217	0.516383	-13.353840	2.569348	1.286507	-0.823459	-1.333274	-28.315863	-84.867187	-31.155341
33218	-0.226966	-13.423597	2.932778	1.558359	-1.318571	-0.948735	-25.694276	-85.788714	-32.889905
33219	14.934462	-18.354226	10.572905	2.000437	-1.710816	-0.440031	-27.882067	-86.778224	-29.548860
33220	4.092980	-5.879203	2.608073	1.979865	1.766103	1.465563	-30.330220	-85.485659	-25.958263
33221	0.611262	-1.869111	1.969367	1.327665	2.522342	1.181730	-28.305584	-83.894407	-27.227317
33222	4.435278	3.211375	-0.458145	1.534252	0.255891	1.254666	-32.346192	-83.404771	-22.277254
33223	15.886034	5.032997	-4.730344	0.771475	0.108421	1.416925	-37.161054	-82.890872	-16.982489
33224	10.956643	0.130781	-1.770460	-0.719626	1.237051	2.013473	-40.887234	-81.613868	-13.638364
33225	6.635341	-2.779929	-1.543980	-0.308445	0.449279	1.825239	-44.867387	-80.713625	-9.789249
33226	10.535970	-1.181706	0.646325	-0.219319	0.465552	1.507872	-47.379996	-79.906343	-7.367941
33227	12.435953	-2.711939	2.859456	-0.531521	0.706927	1.800770	-49.709619	-78.865231	-5.307544
33228	13.732656	-4.549847	2.317402	-0.110325	0.868559	1.626244	-50.810911	-77.830990	-4.247808
33229	9.674067	-1.805675	2.695182	-0.027216	1.117315	1.491521	-51.012518	-76.764529	-4.056972
33230	8.972598	-1.994694	1.729023	-0.362591	0.486995	1.485393	-52.491296	-75.923682	-2.749158
33231	11.148548	-3.201126	2.062067	-0.202893	0.599818	1.486854	-53.526861	-75.036910	-1.799378
33232	9.792007	-2.745885	1.616024	-0.197113	0.681881	1.470548	-54.298390	-74.126122	-1.116389
33233	11.749456	-2.594133	2.811243	-0.241133	0.456147	1.346841	-55.230939	-73.345498	-0.288738
33234	17.370472	-6.443178	3.170862	-0.331437	0.547984	1.200365	-55.849696	-72.600958	0.159589
33235	9.874628	-5.565164	1.120447	-0.138840	1.130924	0.755729	-55.030143	-71.877250	-0.784324
33236	7.570720	-2.620662	3.279870	0.295459	0.566002	0.332805	-54.396851	-71.534361	-1.273239
33237	9.873086	-2.649685	2.389406	-0.082611	0.157598	0.313856	-54.536571	-71.336025	-1.175612
33238	8.589726	-2.816211	2.002568	0.028661	0.267305	0.315392	-54.465309	-71.100023	-1.233719
33239	9.474091	-2.295284	1.836855	-0.019156	0.005233	0.278149	-54.737797	-70.968860	-0.957025
33240	9.385718	-2.480613	1.591818	-0.048118	0.261279	0.363666	-54.762764	-70.712343	-0.959963
33241	8.855594	-2.719913	2.192384	-0.042920	0.177095	0.384139	-54.911690	-70.474457	-0.827969
33242	9.189325	-2.964917	1.809568	-0.061296	0.114976	0.338097	-55.110028	-70.278018	-0.654872
33243	9.068727	-2.795620	1.925783	-0.017526	0.124029	0.317772	-55.246696	-70.088453	-0.520106
33244	8.891751	-2.734010	2.216090	-0.041198	0.090602	0.324323	-55.446244	-69.906102	-0.333058
33245	8.816552	-2.923364	2.133442	-0.052618	-0.030078	0.315066	-55.792743	-69.767330	0.004117
33246	9.451841	-3.067367	1.645325	-0.053997	-0.072035	0.265336	-56.149312	-69.664432	0.351096
33247	9.296924	-3.173866	1.668126	-0.018151	0.043249	0.230276	-56.301600	-69.541465	0.502646
33248	9.077258	-3.071873	1.930381	0.009713	0.027169	0.172912	-56.411068	-69.450355	0.625269
33249	9.150967	-2.991130	1.831208	0.013716	0.017423	0.150036	-56.507533	-69.373668	0.736881
33250	9.170868	-3.003002	1.835415	0.013542	0.032408	0.117498	-56.560044	-69.307250	0.801100
33251	9.117527	-3.065486	1.850532	0.016201	0.029547	0.101939	-56.598475	-69.249656	0.852285
33252	9.159480	-3.033796	1.913531	0.019495	0.024205	0.066572	-56.615013	-69.210154	0.881725
33253	9.081805	-2.971177	1.948871	0.022414	0.015515	0.043735	-56.618953	-69.184818	0.899849
33254	9.085368	-2.984623	1.873880	0.009880	0.003730	0.030093	-56.636406	-69.169216	0.924387
33255	9.081365	-2.971523	1.926563	0.008240	-0.003462	0.014182	-56.647809	-69.163999	0.941810
33256	9.083983	-2.939369	1.882132	0.003099	-0.023475	0.007690	-56.684785	-69.167679	0.983083
33257	9.085019	-2.887324	1.865620	-0.001129	-0.012199	0.002874	-56.703191	-69.170620	1.002255
33258	9.060058	-2.740311	1.865925	0.014277	-0.020206	0.031175	-56.749049	-69.162009	1.059886
33259	9.181668	-2.941006	1.860683	-0.017206	0.004776	0.064329	-56.805940	-69.130155	1.110387
33260	9.108904	-2.989808	1.823353	0.008196	0.002984	0.049582	-56.841068	-69.105418	1.152824
33261	9.129884	-2.974495	1.854511	0.000746	0.019793	0.043497	-56.851497	-69.078830	1.164616
33262	9.052813	-3.035053	1.890408	0.005333	0.014000	0.036015	-56.863198	-69.057144	1.180228
33263	9.075252	-2.965880	1.906414	0.006697	0.002820	0.028056	-56.878807	-69.043278	1.201221
33264	9.049883	-2.944286	1.909158	0.000261	-0.010093	0.026848	-56.916042	-69.033524	1.241069
33265	9.100138	-2.990061	1.878145	0.004713	-0.016289	0.023643	-56.953068	-69.027742	1.283785
33266	9.025235	-2.996178	1.896200	0.001715	-0.014443	0.015407	-56.985534	-69.024825	1.319423
33267	8.996009	-2.962744	1.973201	-0.000182	-0.037638	0.008316	-57.039635	-69.033048	1.377421
33268	9.048447	-2.954496	1.924015	-0.010877	-0.054670	0.004711	-57.121123	-69.047774	1.457831
33269	9.051805	-2.898474	1.879533	-0.004641	-0.064195	0.013980	-57.215910	-69.061463	1.556647
33270	9.126748	-2.896777	1.854127	-0.014154	-0.060234	0.041060	-57.335903	-69.060294	1.676267
33271	9.128800	-2.992561	1.806538	-0.013306	-0.053327	0.048381	-57.449851	-69.053885	1.790284
33272	9.200880	-2.949517	1.815343	0.002806	-0.043966	0.052872	-57.548998	-69.041837	1.897997
33273	9.177551	-3.021857	1.773090	-0.002705	-0.027928	0.055219	-57.630101	-69.024181	1.983362
33274	9.176761	-3.074277	1.762331	0.011733	-0.012698	0.043192	-57.676681	-69.007135	2.040276
33275	9.149311	-3.009873	1.798881	0.022875	0.012153	0.032549	-57.674273	-68.988130	2.051907
33276	9.122460	-3.016243	1.823352	0.016787	0.017800	0.018466	-57.659711	-68.973705	2.046434
33277	9.097411	-3.041268	1.819648	0.020169	0.019292	0.014105	-57.635167	-68.961441	2.032690
33278	9.044609	-2.978914	1.880211	0.020194	0.012861	0.013317	-57.620792	-68.951022	2.029507
33279	9.069974	-2.999414	1.854760	0.014776	0.009612	0.013261	-57.610863	-68.942134	2.028110
33280	8.979295	-3.000957	1.727019	0.026910	0.028702	0.006182	-57.567066	-68.930301	1.997523
33281	9.055392	-2.868586	2.084513	0.024254	0.051074	0.022119	-57.506816	-68.904379	1.948016
33282	9.339065	-3.092029	1.810459	-0.026111	-0.080558	0.038726	-57.656343	-68.910366	2.092073
33283	9.179875	-3.105393	1.598921	0.035466	0.062987	0.010453	-57.565413	-68.886455	2.016560
33284	9.037193	-3.043524	1.929674	0.016927	0.013899	0.013782	-57.552015	-68.875497	2.012415
33285	9.293446	-3.029338	1.727896	0.033337	0.045767	0.009092	-57.482971	-68.857497	1.959042
33286	9.091664	-3.093789	1.809105	0.041196	0.064999	0.000381	-57.381283	-68.837249	1.875137
33287	9.163062	-2.997298	1.838906	0.045640	0.069661	-0.003155	-57.265915	-68.817700	1.779632
33288	9.035280	-3.008899	1.911457	0.042306	0.083521	-0.000601	-57.140187	-68.792057	1.670598
33289	9.032221	-2.964299	1.951679	0.034867	0.054697	-0.005442	-57.048099	-68.778127	1.593416
33290	9.057540	-3.006925	1.926248	0.030518	0.052500	-0.005115	-56.964263	-68.764196	1.522056
33291	9.084344	-2.997172	1.884864	0.021913	0.039684	-0.007215	-56.896913	-68.755732	1.463439
33292	9.086869	-2.987326	1.841659	0.022958	0.049336	-0.006068	-56.820703	-68.743184	1.395603
33293	9.055309	-2.979802	1.945219	0.021892	0.043970	-0.006658	-56.748651	-68.733054	1.331920
33294	9.055969	-2.950712	1.930357	0.018406	0.046581	0.000383	-56.683799	-68.718223	1.273464
33295	9.133044	-2.962046	1.863515	0.022410	0.041340	0.010352	-56.628574	-68.700727	1.228145
33296	9.101881	-2.928358	1.948314	0.027208	0.068944	0.028702	-56.554358	-68.665255	1.165033
33297	9.028720	-2.997769	1.913165	0.026051	0.065505	0.030772	-56.484257	-68.630324	1.105964
33298	9.073148	-2.957179	1.955879	0.027840	0.064510	0.041773	-56.426074	-68.589961	1.060428
33299	9.046539	-3.032887	1.947647	0.029555	0.061169	0.054770	-56.379029	-68.544908	1.028251
33300	9.064318	-2.974172	2.016439	0.030568	0.053417	0.056599	-56.345038	-68.500968	1.010366
33301	9.067089	-3.037604	1.937124	0.028486	0.051483	0.054033	-56.310008	-68.459329	0.990426
33302	9.059329	-3.054670	2.014736	0.033028	0.054170	0.048218	-56.267157	-68.419136	0.964520
33303	9.036026	-3.049385	1.970552	0.028793	0.045789	0.045042	-56.231790	-68.383582	0.944397
33304	9.059822	-3.024546	1.957760	0.033263	0.046122	0.041266	-56.193097	-68.349250	0.923096
33305	9.009004	-3.027070	1.959417	0.031182	0.046344	0.038828	-56.150894	-68.316467	0.897081
33306	9.003023	-2.966940	2.025296	0.036183	0.042085	0.050027	-56.122559	-68.279246	0.888719
33307	9.056324	-2.906435	1.946243	0.037944	0.036791	0.060760	-56.105618	-68.239072	0.894058
33308	8.921013	-3.008579	2.073103	0.032914	0.048090	0.080141	-56.096162	-68.185615	0.904005
33309	8.970252	-2.983119	2.036694	0.038120	0.009877	0.083114	-56.128871	-68.143407	0.962943
33310	8.918395	-2.989679	2.036491	0.045298	0.037966	0.096200	-56.136933	-68.085539	0.999425
33311	8.905993	-3.162654	2.133467	0.025979	-0.000217	0.087478	-56.191615	-68.044455	1.074594
33312	8.935718	-2.983505	2.069871	0.046506	-0.010817	0.059247	-56.227030	-68.019703	1.141341
33313	9.085469	-3.122792	1.981661	0.001320	-0.039186	0.075900	-56.332301	-67.996475	1.255862
33314	9.085563	-3.148777	1.951308	0.035295	-0.020230	0.068104	-56.391867	-67.970420	1.341757
33315	9.108350	-3.130196	1.956824	0.027087	-0.012682	0.056650	-56.435663	-67.947879	1.405922
33316	9.110300	-3.150428	1.904685	0.031422	-0.006274	0.057487	-56.472421	-67.922425	1.464840
33317	9.082467	-3.134239	1.932832	0.039546	0.019541	0.046821	-56.463294	-67.894357	1.479616
33318	9.101590	-3.098355	1.993977	0.041776	0.017536	0.044822	-56.456134	-67.867413	1.497550
33319	9.076868	-3.169180	1.958730	0.029948	0.027447	0.043828	-56.440887	-67.838273	1.499788
33320	9.050890	-3.147411	1.964923	0.046621	0.029365	0.033036	-56.407928	-67.813212	1.492866
33321	9.047777	-3.081552	2.005867	0.038029	0.038146	0.032380	-56.366714	-67.786142	1.472059
33322	9.072136	-3.104086	1.983849	0.034768	0.032807	0.031703	-56.335584	-67.760623	1.459773
33323	8.995255	-3.133133	2.002909	0.041216	0.045467	0.035235	-56.286373	-67.729854	1.432290
33324	8.991842	-3.091310	2.040170	0.037026	0.037275	0.030004	-56.247556	-67.703718	1.413088
33325	8.911738	-3.056141	2.119388	0.036941	0.037095	0.032119	-56.208271	-67.677085	1.393677
33326	8.960588	-3.079570	2.097916	0.020289	0.009668	0.037389	-56.216859	-67.656222	1.415354
33327	9.039292	-3.115985	2.001322	0.022261	0.022039	0.044647	-56.213180	-67.628418	1.425339
33328	9.033569	-3.127973	2.051901	0.024236	0.019481	0.049061	-56.217123	-67.598870	1.444449
33329	9.036988	-3.167744	1.974220	0.019934	0.021720	0.048616	-56.218182	-67.569278	1.458121
33330	9.053294	-3.208323	2.047146	0.029952	0.031802	0.043840	-56.200575	-67.538292	1.457465
33331	9.003333	-3.137888	2.059984	0.034733	0.039103	0.033989	-56.161887	-67.510123	1.437306
33332	8.976955	-3.163852	2.058130	0.027050	0.031509	0.034835	-56.139417	-67.483515	1.429585
33333	9.024440	-3.119305	2.073635	0.030335	0.026232	0.032843	-56.117239	-67.459994	1.424565
33334	8.972049	-3.124804	2.097535	0.022693	0.037892	0.036697	-56.091450	-67.430459	1.410545
33335	8.942144	-3.111253	2.151206	0.022429	0.024582	0.040366	-56.081525	-67.403887	1.413887
33336	8.968979	-3.083028	2.111625	0.012497	0.016855	0.043090	-56.090545	-67.378035	1.431244
33337	9.019647	-3.104263	2.064729	0.013050	0.004068	0.053332	-56.119298	-67.351850	1.470670
33338	8.966606	-3.136607	2.081679	0.002612	0.010216	0.071617	-56.163230	-67.314542	1.519732
33339	8.964463	-3.142328	2.082278	0.011663	-0.001841	0.059313	-56.203862	-67.287374	1.571193
33340	8.962404	-3.148036	2.082523	0.001474	0.002689	0.071106	-56.256326	-67.252678	1.628822
33341	8.933911	-3.157523	2.104607	0.004820	-0.004577	0.066893	-56.309473	-67.222732	1.689626
33342	8.981249	-3.116930	2.115972	0.000184	-0.011493	0.072436	-56.379439	-67.191861	1.765466
33343	8.981632	-3.211839	2.050849	-0.001022	-0.006423	0.076765	-56.445128	-67.157736	1.836275
33344	9.000527	-3.179215	2.108000	-0.003065	-0.012497	0.071940	-56.517314	-67.127351	1.912542
33345	9.050599	-3.203651	2.058632	-0.007688	-0.008788	0.080070	-56.591566	-67.092325	1.988532
33346	8.976831	-3.228703	2.023848	-0.006512	-0.007552	0.078095	-56.664294	-67.057363	2.063283
33347	8.921637	-3.149952	2.107410	-0.010649	-0.007096	0.073297	-56.732859	-67.024973	2.131292
33348	8.920626	-3.201219	2.073334	-0.023042	-0.023719	0.079590	-56.833980	-66.994292	2.226634
33349	8.967408	-3.302147	2.034125	-0.018266	-0.020773	0.069577	-56.919194	-66.967887	2.308022
33350	8.939355	-3.219237	2.094315	-0.009202	-0.020091	0.060004	-56.993456	-66.945367	2.382832
33351	8.990518	-3.218506	2.047817	-0.012564	-0.023425	0.061564	-57.072193	-66.923554	2.460760
33352	9.038993	-3.246347	2.021118	-0.014931	-0.019583	0.067828	-57.154564	-66.897033	2.540843
33353	8.984482	-3.259205	2.063141	-0.013928	-0.018704	0.070099	-57.234640	-66.869558	2.619407
33354	9.007366	-3.243026	2.066857	-0.017528	-0.020406	0.078096	-57.326480	-66.838253	2.708205
33355	8.982437	-3.337637	1.998661	-0.015226	-0.009663	0.078815	-57.402994	-66.803688	2.782121
33356	8.904199	-3.233487	2.084644	-0.007081	-0.003396	0.067256	-57.461445	-66.772280	2.841145
33357	8.950157	-3.265988	2.082920	-0.017336	-0.017878	0.073874	-57.544468	-66.742561	2.920864
33358	9.000126	-3.290835	2.032343	-0.016275	-0.018982	0.073926	-57.630108	-66.712652	3.003781
33359	8.974287	-3.273071	2.032468	-0.017567	-0.016243	0.080252	-57.715541	-66.679251	3.086016
33360	8.946415	-3.259745	2.056238	-0.025320	-0.023763	0.081067	-57.816335	-66.647243	3.179833
33361	9.019073	-3.267232	2.034384	-0.032504	-0.031293	0.094719	-57.936909	-66.611292	3.291069
33362	9.015487	-3.368838	1.990291	-0.029409	-0.024356	0.101738	-58.054601	-66.569276	3.400799
33363	8.938306	-3.355235	2.010147	-0.035524	-0.013013	0.097186	-58.157399	-66.526415	3.490841
33364	8.858334	-3.369174	2.050881	-0.025394	-0.003047	0.092443	-58.241710	-66.482338	3.566751
33365	8.831353	-3.375757	2.047862	-0.016017	-0.007998	0.072074	-58.309734	-66.450099	3.631110
33366	8.881104	-3.288569	2.066467	-0.019430	-0.017609	0.071198	-58.391764	-66.420679	3.708302
33367	8.904612	-3.316512	2.037692	-0.024969	-0.020854	0.072469	-58.479185	-66.392031	3.788260
33368	8.927823	-3.300794	2.040630	-0.026365	-0.028727	0.076157	-58.580586	-66.363420	3.882293
33369	8.949396	-3.377935	2.002237	-0.034454	-0.030633	0.087777	-58.694347	-66.330085	3.985112
33370	8.948082	-3.406380	1.970382	-0.029001	-0.027563	0.088538	-58.803821	-66.294923	4.086359
33371	8.918136	-3.398081	2.017371	-0.022793	-0.028303	0.095579	-58.912953	-66.256913	4.191475
33372	8.915371	-3.363048	2.046573	-0.025877	-0.024774	0.093195	-59.020017	-66.218488	4.292104
33373	8.937253	-3.417011	2.012324	-0.030335	-0.035235	0.090000	-59.136803	-66.185099	4.400921
33374	8.964116	-3.438609	1.933745	-0.030337	-0.035228	0.089951	-59.255252	-66.151177	4.511259
33375	8.984773	-3.472930	1.927571	-0.031411	-0.023854	0.096652	-59.363742	-66.111006	4.610389
33376	9.006149	-3.439674	1.959231	-0.024651	-0.011128	0.098023	-59.456771	-66.065912	4.696549
33377	8.903430	-3.491700	1.942340	-0.027783	0.000502	0.102366	-59.539181	-66.015705	4.769484
33378	8.945039	-3.423683	2.059001	-0.003907	0.017670	0.084903	-59.579216	-65.968645	4.810706
33379	9.148996	-3.309703	1.997158	-0.046744	-0.026204	0.153611	-59.734628	-65.900747	4.951754
33380	8.861392	-3.513279	2.013505	-0.049164	0.013489	0.159279	-59.852370	-65.818004	5.049758
33381	9.005067	-3.530014	1.975193	-0.037371	0.000428	0.181064	-59.988924	-65.728583	5.176195
33382	8.873868	-3.481231	2.051611	-0.041840	0.041071	0.213864	-60.105120	-65.610677	5.277252
33383	8.894409	-3.515124	1.978682	-0.039963	0.024969	0.236256	-60.248839	-65.486597	5.410153
33384	8.834594	-3.475055	2.060590	-0.045165	0.023385	0.256285	-60.410148	-65.352387	5.558924
33385	8.879727	-3.490496	1.991935	-0.058277	0.010270	0.274724	-60.600835	-65.212956	5.732262
33386	8.934331	-3.476393	2.152013	-0.078433	-0.001638	0.306937	-60.835090	-65.060033	5.940762
33387	9.054662	-3.579363	1.948583	-0.108227	0.002215	0.348992	-61.102631	-64.885054	6.167767
33388	9.135340	-3.690634	1.915695	-0.099809	0.016378	0.393960	-61.374873	-64.682673	6.405317
33389	8.972590	-3.781588	1.843256	-0.100598	0.050964	0.444762	-61.634255	-64.445253	6.628893
33390	8.785291	-3.584367	2.096014	-0.090061	0.054949	0.480670	-61.900941	-64.187730	6.867389
33391	8.862825	-3.541020	2.243604	-0.127266	-0.000969	0.505466	-62.253751	-63.932564	7.178816
33392	9.022930	-3.709339	1.984095	-0.153465	-0.017171	0.566405	-62.666006	-63.649369	7.540143
33393	9.136966	-3.858034	1.998756	-0.152178	0.001823	0.631981	-63.082389	-63.327089	7.908195
33394	9.132888	-3.928906	2.019114	-0.155694	0.012310	0.698057	-63.515830	-62.966624	8.293864
33395	9.445918	-3.939034	2.155658	-0.155144	-0.029764	0.777938	-64.017432	-62.574808	8.758187
33396	9.462044	-4.081397	2.042954	-0.186840	0.031686	0.886423	-64.515700	-62.109428	9.199691
33397	9.207239	-4.157364	1.972464	-0.171502	0.082368	0.974719	-64.979515	-61.584651	9.614469
33398	9.120630	-4.164161	2.060464	-0.172538	0.097531	1.035848	-65.441860	-61.022436	10.028657
33399	8.902258	-4.242792	2.074324	-0.190476	0.129841	1.112913	-65.898681	-60.411222	10.427458
33400	8.752273	-4.335686	2.093293	-0.207418	0.117980	1.162846	-66.380094	-59.774591	10.845520
33401	8.700362	-4.405355	2.152042	-0.218282	0.125776	1.207766	-66.858368	-59.111270	11.255867
33402	8.890553	-4.390772	2.180029	-0.244588	0.120824	1.253339	-67.355405	-58.422826	11.673041
33403	8.797175	-4.708288	2.064638	-0.283491	0.170155	1.326559	-67.837940	-57.683426	12.050462
33404	8.891090	-4.771403	2.098630	-0.277876	0.183704	1.375434	-68.304768	-56.913116	12.415791
33405	8.855586	-4.960210	2.096186	-0.303042	0.223111	1.439989	-68.755078	-56.098976	12.747743
33406	8.596577	-5.151217	1.967354	-0.309485	0.271657	1.502470	-69.173357	-55.239689	13.039281
33407	8.303580	-5.422230	1.895146	-0.302654	0.300445	1.539749	-69.559172	-54.353857	13.299412
33408	8.160894	-5.645491	1.904535	-0.274196	0.311511	1.561542	-69.912788	-53.452790	13.542339
33409	8.097096	-5.730430	2.005473	-0.242422	0.328857	1.580078	-70.226209	-52.537912	13.761069
33410	8.011736	-5.553001	2.132751	-0.238393	0.368600	1.570509	-70.496767	-51.619508	13.930594
33411	7.774491	-5.667207	2.054246	-0.250517	0.414848	1.575880	-70.734089	-50.689335	14.051209
33412	7.458909	-5.683799	2.031088	-0.255808	0.436060	1.569902	-70.952753	-49.757748	14.144697
33413	7.404844	-5.916713	2.212318	-0.251676	0.445203	1.559463	-71.153798	-48.830274	14.219888
33414	7.321203	-5.961669	2.325226	-0.266749	0.480432	1.545184	-71.334618	-47.903538	14.256991
33415	7.306121	-6.035994	2.650255	-0.284456	0.519327	1.534369	-71.495639	-46.975865	14.254540
33416	7.242410	-5.845032	2.765851	-0.332530	0.558798	1.505632	-71.654259	-46.056321	14.210231
33417	7.542868	-6.112268	3.100659	-0.368068	0.634547	1.472608	-71.782936	-45.141562	14.095386
33418	7.851572	-5.837219	3.226070	-0.419894	0.759073	1.419543	-71.866497	-44.233259	13.871805
33419	8.235125	-6.034729	3.597478	-0.509492	0.923710	1.360246	-71.908579	-43.328420	13.510952
33420	8.764844	-6.634328	4.178745	-0.605529	1.154016	1.299791	-71.887510	-42.415298	12.969809
33421	8.428352	-6.908877	4.160626	-0.793436	1.370827	1.271753	-71.874902	-41.478941	12.271101
33422	8.351986	-7.332290	4.033798	-0.849919	1.614319	1.296761	-71.800020	-40.484906	11.414264
33423	8.091527	-6.366026	2.963575	-0.955010	1.757144	1.315503	-71.743299	-39.454499	10.474431
33424	6.624722	-5.935095	2.146470	-1.078434	1.752369	1.386282	-71.792154	-38.386302	9.568583
33425	6.835577	-6.291551	2.269234	-1.170892	1.388539	1.434754	-72.073089	-37.358481	8.933662
33426	7.399532	-7.028466	2.337627	-1.278680	1.270150	1.558463	-72.490472	-36.286865	8.407553
33427	7.719499	-8.293794	2.667634	-1.350832	1.234743	1.695261	-72.985910	-35.149812	7.930702
33428	8.169123	-7.855230	2.552347	-1.330674	1.207756	1.796992	-73.496730	-33.964934	7.486982
33429	7.020923	-7.893681	1.883207	-1.457690	1.187611	2.009173	-74.113454	-32.670102	7.089489
33430	4.439753	-8.404564	0.898943	-1.701677	0.964092	2.406648	-74.985876	-31.194508	6.895291
33431	3.951264	-9.947621	0.271886	-1.675021	0.131507	2.602018	-76.121471	-29.732443	7.242378
33432	6.379191	-9.389236	1.171528	-1.471690	-0.613254	2.723443	-77.353359	-28.294783	8.043147
33433	8.039019	-9.829235	1.619170	-1.597061	-0.677734	3.022181	-78.653373	-26.682136	8.877276
33434	7.666892	-10.304311	1.622398	-1.599248	-0.674028	3.269551	-79.921934	-24.913867	9.685793
33435	7.461500	-10.250362	1.195030	-1.578751	-0.887226	3.454143	-81.194041	-23.045379	10.590190
33436	6.493176	-10.190183	0.648121	-1.603637	-1.094096	3.730097	-82.487304	-21.019514	11.587037
33437	5.776192	-10.534548	0.248315	-1.544684	-1.468426	3.996086	-83.774710	-18.847320	12.767078
33438	5.808111	-10.741031	0.122540	-1.346387	-1.831272	4.236663	-84.955893	-16.535387	14.113379
33439	5.667608	-10.683865	0.121638	-1.169680	-1.977704	4.589486	-85.991239	-14.003703	15.499628
33440	4.387846	-10.879963	0.539219	-0.844428	-1.926228	5.005034	-86.762645	-11.212336	16.813990
33441	2.497013	-12.246457	2.519609	-0.286028	-1.702753	5.487748	-87.121073	-8.124884	17.972573
33442	1.750480	-16.343023	4.045649	0.447596	-1.894202	5.420946	-87.008880	-5.079426	19.223703
33443	7.526307	-16.380200	1.751777	1.928847	-3.049688	4.260230	-86.032844	-2.749231	21.120520
33444	11.713523	-12.585783	1.920262	2.196929	-2.440667	3.369199	-84.824063	-0.937505	22.669019
33445	10.063025	-12.820534	1.809369	2.475140	-1.703574	2.560552	-83.410693	0.421437	23.790560
33446	9.345006	-10.505032	1.913374	2.788547	-1.680484	1.191151	-81.800560	0.972526	24.833045
33447	8.447303	-9.036306	1.314034	2.747962	-1.258701	0.015077	-80.214446	0.867930	25.547047
33448	7.460817	-8.344110	1.998721	2.620075	-1.022485	-1.004590	-78.709236	0.192582	26.017351
33449	6.803709	-9.189854	1.874694	2.374603	-0.699240	-1.760718	-77.349583	-0.877788	26.200274
33450	5.848125	-9.388643	2.310666	2.234460	-0.444939	-2.348994	-76.067977	-2.248969	26.138440
33451	5.507686	-9.486071	2.395223	1.986958	-0.214383	-2.768352	-74.914561	-3.815714	25.859828
33452	4.525731	-9.832945	2.492652	1.760587	0.191924	-2.936104	-73.861038	-5.409415	25.298820
33453	3.021433	-9.698616	2.500408	1.593459	0.526847	-2.851055	-72.866303	-6.888593	24.537778
33454	1.778342	-9.641177	2.342701	1.420657	0.806414	-2.602538	-71.934762	-8.173546	23.638157
33455	0.696933	-9.006199	2.143634	1.249106	0.969256	-2.285997	-71.074620	-9.239967	22.685232
33456	0.109405	-8.309581	1.992223	1.009233	0.982988	-2.010101	-70.340848	-10.144231	21.759324
33457	-0.020358	-7.322132	1.818948	0.742067	0.912484	-1.794052	-69.758859	-10.932537	20.902901
33458	0.109590	-6.591280	1.764183	0.449717	0.812747	-1.628214	-69.349266	-11.647226	20.125039
33459	0.599108	-6.344088	1.946839	0.179068	0.672612	-1.553203	-69.102920	-12.343063	19.434172
33460	1.446700	-6.625727	2.140030	-0.036152	0.536759	-1.589473	-68.985562	-13.086706	18.805262
33461	1.935254	-6.929230	2.394543	-0.156783	0.457087	-1.695024	-68.932954	-13.899562	18.195496
33462	1.893540	-7.191182	2.476014	-0.199543	0.399370	-1.814322	-68.897236	-14.790348	17.588523
33463	0.923894	-7.529294	2.593077	-0.168390	0.293067	-1.911911	-68.843023	-15.752071	17.017007
33464	0.571678	-7.549558	2.727902	-0.053296	0.003972	-1.970465	-68.753862	-16.806955	16.588861
33465	0.786347	-7.229374	2.639940	0.061802	-0.254014	-1.958301	-68.633299	-17.905627	16.303963
33466	1.220815	-6.709224	2.672202	0.163385	-0.441889	-1.943789	-68.482557	-19.037831	16.122635
33467	2.188253	-6.162737	2.634730	0.242061	-0.531003	-1.942560	-68.298497	-20.185109	15.987956
33468	2.775530	-5.674261	2.553133	0.271283	-0.447694	-1.970166	-68.074473	-21.331401	15.793529
33469	2.893205	-5.300487	2.476784	0.265300	-0.313514	-1.986878	-67.817499	-22.454407	15.512470
33470	3.119982	-5.354692	2.239074	0.256069	-0.198549	-2.023042	-67.528537	-23.572852	15.147848
33471	3.147690	-5.287655	2.083904	0.256779	-0.132058	-2.071008	-67.208016	-24.697659	14.724207
33472	3.066579	-5.366373	1.755187	0.262214	-0.124284	-2.145050	-66.862349	-25.860105	14.265858
33473	3.244708	-5.118292	1.477473	0.275620	-0.152925	-2.236710	-66.491795	-27.072085	13.789142
33474	3.266147	-4.794478	1.037616	0.247946	-0.155445	-2.300288	-66.114565	-28.317799	13.282461
33475	2.740567	-4.501686	0.835439	0.200859	-0.190374	-2.324889	-65.754019	-29.579027	12.775703
33476	2.595464	-4.597609	0.631319	0.158195	-0.355420	-2.350401	-65.447319	-30.892659	12.345892
33477	2.786434	-4.763672	0.722428	0.137054	-0.567895	-2.397926	-65.197810	-32.277409	12.019777
33478	3.187215	-5.160833	1.018346	0.122088	-0.785968	-2.458733	-65.008096	-33.747915	11.799111
33479	3.373009	-5.486845	1.325776	0.135270	-0.942292	-2.496613	-64.849999	-35.272836	11.657161
33480	3.485172	-5.704693	1.679691	0.169097	-1.041746	-2.481452	-64.705432	-36.816475	11.575194
33481	3.824030	-6.007232	1.939791	0.215900	-1.059848	-2.414079	-64.547789	-38.326892	11.519808
33482	4.156802	-6.052460	2.160506	0.293918	-1.020266	-2.347337	-64.336840	-39.795437	11.451330
33483	4.648567	-5.873385	2.216227	0.372275	-0.966510	-2.300436	-64.059290	-41.223585	11.352684
33484	5.014556	-5.717732	2.206733	0.417604	-0.917818	-2.287627	-63.726515	-42.634959	11.211799
33485	5.360416	-5.648707	2.054023	0.413341	-0.912663	-2.306854	-63.375898	-44.051721	11.046275
33486	5.411532	-5.796759	2.026345	0.363163	-0.933959	-2.323707	-63.046912	-45.484355	10.873639
33487	5.461478	-6.063142	2.082626	0.299998	-0.986912	-2.336356	-62.764108	-46.934094	10.720232
33488	5.655029	-6.500021	2.248807	0.229727	-1.035647	-2.320821	-62.541091	-48.390722	10.595628
33489	5.751723	-7.166330	2.484062	0.160019	-1.071514	-2.280968	-62.380216	-49.833866	10.504329
33490	5.825672	-7.710213	2.691093	0.135402	-1.109636	-2.213072	-62.271934	-51.254903	10.463592
33491	5.909765	-8.051824	2.914173	0.120596	-1.145188	-2.129474	-62.218760	-52.640656	10.484018
33492	6.307433	-8.008292	3.082128	0.153675	-1.147281	-2.027200	-62.185049	-53.977301	10.550820
33493	6.846847	-7.647031	2.955396	0.121086	-1.045776	-1.926486	-62.135897	-55.233629	10.575827
33494	6.882733	-7.292316	2.773586	0.042147	-0.901170	-1.794648	-62.076466	-56.386416	10.532251
33495	6.871675	-6.864093	2.724864	-0.059936	-0.803559	-1.674617	-62.045112	-57.450255	10.454039
33496	6.889988	-6.725428	2.602113	-0.186017	-0.732619	-1.561690	-62.075655	-58.439693	10.363439
33497	6.798307	-6.929653	2.822043	-0.263029	-0.709875	-1.450615	-62.178274	-59.365031	10.307466
33498	7.352959	-7.503451	3.240635	-0.301902	-0.767810	-1.382472	-62.388889	-60.272949	10.350159
33499	7.911996	-8.202667	3.896931	-0.279714	-0.816326	-1.355658	-62.650046	-61.178341	10.465999
33500	7.984004	-8.641995	4.331071	-0.164621	-0.809515	-1.315827	-62.870574	-62.062791	10.608678
33501	8.131971	-8.733891	4.556731	-0.001352	-0.766904	-1.251153	-62.996377	-62.901547	10.749831
33502	8.131590	-8.361011	4.457397	0.174263	-0.646104	-1.155143	-62.955984	-63.660858	10.815752
33503	7.861591	-7.740378	4.003290	0.338093	-0.508521	-1.043789	-62.734282	-64.326431	10.784789
33504	7.882873	-6.945903	3.440253	0.471679	-0.422847	-0.962850	-62.383123	-64.928902	10.694731
33505	7.795730	-5.978406	2.877004	0.541674	-0.341624	-0.908057	-61.921407	-65.480830	10.528180
33506	7.708327	-5.218492	2.487129	0.523507	-0.293210	-0.852964	-61.437071	-65.991761	10.325487
33507	8.059553	-4.880565	2.190361	0.441200	-0.270013	-0.825848	-60.974659	-66.481420	10.096622
33508	8.064495	-4.431647	1.932855	0.288672	-0.208381	-0.793275	-60.537443	-66.937232	9.800289
33509	7.939181	-4.295089	1.803278	0.089336	-0.175327	-0.738494	-60.197132	-67.355162	9.486709
33510	8.008824	-4.402980	1.944987	-0.071349	-0.183005	-0.721415	-59.960947	-67.766540	9.186568
33511	8.040577	-4.795508	2.195247	-0.172283	-0.186692	-0.712438	-59.782023	-68.173756	8.887238
33512	7.853603	-5.314194	2.515299	-0.174483	-0.251884	-0.724254	-59.670817	-68.605617	8.659745
33513	7.884683	-5.531168	2.701691	-0.096580	-0.289642	-0.706073	-59.567677	-69.039021	8.489961
33514	7.776811	-5.548455	2.885192	0.033147	-0.307810	-0.657656	-59.447613	-69.453756	8.381578
33515	7.944760	-5.370908	2.836295	0.190317	-0.283841	-0.605373	-59.239051	-69.835531	8.275601
33516	8.207809	-5.127769	2.659070	0.349723	-0.237937	-0.549938	-58.917697	-70.176245	8.146630
33517	8.150377	-4.642767	2.314704	0.492074	-0.168447	-0.520853	-58.432469	-70.481824	7.930911
33518	8.087264	-4.221591	1.846446	0.589020	-0.154014	-0.505784	-57.876037	-70.774756	7.698637
33519	8.139463	-3.836666	1.448443	0.608333	-0.180214	-0.498408	-57.337297	-71.071680	7.497564
33520	8.010527	-3.256111	1.229882	0.545613	-0.220459	-0.475741	-56.904430	-71.369284	7.370375
33521	8.143706	-2.845216	1.232677	0.407446	-0.282167	-0.421884	-56.679662	-71.660552	7.379696
33522	8.302504	-2.743498	1.345525	0.229335	-0.326768	-0.351527	-56.690808	-71.931777	7.529578
33523	9.701853	-3.584774	2.260045	0.102102	-0.350301	-0.340124	-56.820968	-72.205270	7.728037
33524	38.700514	-20.673264	17.418197	0.069911	-0.137462	-0.078335	-56.913570	-72.285936	7.867172
33525	-6.647142	-4.461132	-7.601113	-0.641462	4.115756	2.024404	-53.546269	-69.987492	3.921424
33526	4.397760	-9.400236	16.493149	0.630808	0.358119	-0.489970	-52.271681	-70.087281	2.949738
33527	5.241955	-1.188379	-1.382770	0.864590	-3.161989	-1.154925	-54.849394	-71.696823	6.201817
33528	16.539956	-1.591306	-0.645896	0.222065	-0.034253	-0.710210	-54.051595	-72.038418	5.496354
33529	7.424254	0.949370	3.098352	0.069352	0.325319	0.345216	-53.906471	-71.769309	5.385649
33530	11.140726	-1.696120	-0.401891	-0.062281	-0.281149	0.182085	-54.527205	-71.778167	6.001703
33531	9.848788	-2.436017	1.697964	-0.139206	0.565786	0.331935	-54.148355	-71.435133	5.518572
33532	8.746595	-3.400081	2.115053	-0.013063	0.223678	0.307038	-54.156325	-71.216881	5.519126
33533	9.060641	-2.631535	2.123749	0.092567	0.228947	0.215640	-54.004542	-71.040351	5.414938
33534	8.910510	-2.661181	1.917127	0.056887	0.120857	0.209816	-54.017290	-70.901749	5.462947
33535	9.192015	-2.505590	1.973376	0.024430	0.144714	0.199022	-54.003053	-70.761242	5.462862
33536	8.987870	-2.655624	2.093469	-0.011908	0.108062	0.189745	-54.052050	-70.636244	5.507592
33537	8.956649	-2.597834	2.080370	-0.023266	0.059970	0.172895	-54.151203	-70.536333	5.598757
33538	8.950526	-2.591407	2.108249	-0.045675	0.002560	0.175074	-54.342310	-70.453411	5.773788
33539	9.271973	-2.635023	1.819822	-0.058575	-0.016984	0.176712	-54.563566	-70.377170	5.973176
33540	9.266701	-2.679355	1.840130	-0.061056	-0.000332	0.194962	-54.782470	-70.285478	6.168547
33541	9.387112	-2.689067	1.697098	-0.036625	0.019413	0.219348	-54.979305	-70.176762	6.355580
33542	9.703127	-2.672837	1.493404	0.003552	0.086778	0.271737	-55.113838	-70.020006	6.500868
33543	9.392425	-2.960777	1.726735	0.049189	0.217820	0.323460	-55.095668	-69.797084	6.511699
33544	9.007792	-2.684326	1.952871	0.135345	0.191456	0.333214	-55.073063	-69.577101	6.570309
33545	9.339631	-2.614212	1.895364	0.091167	0.219782	0.395104	-55.091042	-69.319878	6.645465
33546	8.850976	-2.947688	2.077552	0.098926	0.234096	0.386057	-55.080723	-69.061095	6.695077
33547	9.081303	-3.027639	2.055191	0.058370	0.164780	0.335026	-55.131416	-68.850122	6.785396
33548	8.644854	-2.941373	2.330364	0.059341	0.157810	0.282991	-55.147547	-68.664748	6.839195
33549	8.612462	-2.958814	2.291434	0.021791	0.063891	0.226186	-55.247107	-68.537922	6.959705
33550	8.553221	-2.862818	2.445531	-0.027830	-0.007724	0.186337	-55.428890	-68.451951	7.137977
33551	8.850933	-2.991269	2.175903	-0.050162	-0.110362	0.162599	-55.722821	-68.411330	7.423304
33552	9.352459	-2.995971	1.794611	-0.030023	-0.120699	0.173984	-56.028111	-68.366906	7.733217
33553	9.789328	-3.349733	1.514101	-0.002012	-0.040231	0.178297	-56.220760	-68.295418	7.939445
33554	9.492219	-3.190844	1.591771	0.103048	0.115130	0.168275	-56.161258	-68.177917	7.938972
33555	9.131758	-3.210224	1.861999	0.118846	0.158122	0.167127	-56.038938	-68.048388	7.880705
33556	8.697120	-3.106634	2.236304	0.134372	0.177918	0.112543	-55.844827	-67.937203	7.754381
33557	8.414432	-2.903887	2.593455	0.081849	0.087072	0.074947	-55.755748	-67.874125	7.709027
33558	8.516369	-2.832351	2.508866	0.027562	-0.028898	0.047936	-55.813996	-67.860028	7.788975
33559	8.839700	-2.957278	2.289574	-0.026238	-0.129742	0.057161	-56.025540	-67.875037	8.001288
33560	9.116534	-3.149217	1.960235	-0.023195	-0.135319	0.061414	-56.247796	-67.888309	8.226894
33561	9.365625	-3.227060	1.784087	0.005435	-0.107678	0.058751	-56.417034	-67.894974	8.413096
33562	9.290678	-3.207811	1.825312	0.021019	-0.028986	0.053805	-56.483328	-67.877751	8.497685
33563	9.013453	-3.142946	2.061548	0.034446	-0.007537	0.050398	-56.511651	-67.856535	8.549739
33564	8.964372	-3.074209	2.111584	0.015882	-0.033773	0.036523	-56.572916	-67.849036	8.625736
33565	8.939949	-3.098858	2.081641	0.001859	-0.042952	0.027264	-56.643465	-67.850016	8.703228
33566	8.938621	-3.126253	2.099563	-0.008976	-0.065917	0.007443	-56.734265	-67.866479	8.795738
33567	9.040705	-3.149027	1.997724	-0.002532	-0.080788	-0.005120	-56.827059	-67.894771	8.894510
33568	9.069520	-3.053650	2.021308	-0.011160	-0.080609	-0.005566	-56.926786	-67.921958	8.995275
33569	9.345125	-3.124937	1.800024	-0.012511	-0.079937	0.009176	-57.035781	-67.942986	9.105322
33570	9.271563	-3.216347	1.714391	0.009315	-0.006028	0.015210	-57.051631	-67.936838	9.128216
33571	8.991606	-3.177246	2.049548	0.018767	0.020184	-0.001019	-57.016190	-67.931514	9.101747
33572	9.021578	-3.100062	1.983048	0.016321	-0.003265	-0.009854	-57.005488	-67.936557	9.100316
33573	8.946146	-3.099924	2.053239	0.001305	-0.007024	-0.019080	-56.998407	-67.948396	9.093654
33574	9.071910	-3.098563	1.983004	-0.000121	-0.029540	-0.023621	-57.017694	-67.968251	9.114415
33575	9.101176	-3.091947	1.884272	-0.003214	-0.017726	-0.019410	-57.025663	-67.983587	9.121196
33576	8.998977	-3.094659	2.025641	-0.005047	-0.006707	-0.025742	-57.019035	-67.997345	9.110954
33577	8.927018	-3.043472	2.072800	-0.008583	-0.029117	-0.032511	-57.033537	-68.022531	9.121461
33578	8.953042	-3.019331	2.095379	-0.023223	-0.051803	-0.022858	-57.093308	-68.048951	9.171593
33579	9.080597	-3.085622	1.918488	-0.027934	-0.071200	-0.021198	-57.178071	-68.081769	9.245887
33580	9.106715	-3.108144	1.887483	-0.022087	-0.044393	-0.018516	-57.231952	-68.103754	9.290355
33581	9.033155	-3.084119	1.955003	-0.015616	-0.042425	-0.016083	-57.279424	-68.125131	9.332043
33582	9.108440	-3.107245	1.903153	-0.021970	-0.035823	-0.016307	-57.324828	-68.143374	9.367436
33583	9.086086	-3.103285	1.875010	-0.013901	-0.017314	-0.026313	-57.333361	-68.161898	9.368219
33584	9.061868	-3.078912	1.922751	-0.015941	-0.008703	-0.024182	-57.336674	-68.175551	9.361978
33585	8.988167	-3.054032	1.992906	-0.015039	-0.024719	-0.030717	-57.351396	-68.198488	9.368725
33586	9.066132	-3.025559	1.921006	-0.020413	-0.023535	-0.030959	-57.369933	-68.219997	9.376122
33587	9.039757	-3.096757	1.937511	-0.028891	-0.016832	-0.033394	-57.381036	-68.241789	9.370424
33588	9.020951	-2.994299	1.915994	-0.023444	-0.017885	-0.037411	-57.389517	-68.264669	9.365123
33589	8.992193	-3.069782	2.005538	-0.037557	-0.018829	-0.033846	-57.407664	-68.287296	9.361664
33590	8.995392	-3.018698	2.005133	-0.028125	-0.035193	-0.033651	-57.442762	-68.313704	9.382126
33591	9.021585	-3.040110	1.975424	-0.038032	-0.044789	-0.032144	-57.494119	-68.343509	9.414112
33592	8.997438	-3.063094	1.992196	-0.041321	-0.045872	-0.030211	-57.552608	-68.371528	9.451602
33593	8.975137	-3.060217	1.985154	-0.037329	-0.067463	-0.032505	-57.631225	-68.408445	9.513328
33594	9.127841	-3.032799	1.885270	-0.045319	-0.090114	-0.029025	-57.747432	-68.449396	9.610406
33595	9.128670	-3.102352	1.847694	-0.047026	-0.066204	-0.033007	-57.830220	-68.486093	9.670610
33596	9.105959	-3.100414	1.863910	-0.041488	-0.067041	-0.043429	-57.905344	-68.526895	9.725842
33597	9.186769	-3.065619	1.714650	-0.036874	-0.053966	-0.049401	-57.954961	-68.567775	9.756623
33598	9.087233	-3.067756	1.853251	-0.033188	-0.029071	-0.053066	-57.971240	-68.601690	9.753720
33599	9.067906	-2.965196	1.855781	-0.022270	-0.022713	-0.054598	-57.969861	-68.635589	9.738707
33600	8.969569	-2.941665	1.973314	-0.027963	-0.032675	-0.044427	-57.994358	-68.666409	9.747842
33601	9.044654	-2.986600	1.918612	-0.030591	-0.052471	-0.032177	-58.052276	-68.698445	9.791370
33602	9.096468	-3.050911	1.788299	-0.025019	-0.038604	-0.029548	-58.094186	-68.723821	9.821005
33603	8.971565	-3.055639	1.951774	-0.029035	-0.029484	-0.042335	-58.114806	-68.753818	9.825450
33604	9.025876	-2.977591	1.904334	-0.031597	-0.057497	-0.043031	-58.173827	-68.791455	9.869388
33605	9.003784	-2.973887	1.897476	-0.033870	-0.059830	-0.036825	-58.239781	-68.827926	9.919481
33606	9.054768	-2.995788	1.865473	-0.041730	-0.074016	-0.028993	-58.336724	-68.863658	9.997839
33607	9.081181	-3.039889	1.806843	-0.028577	-0.061201	-0.030289	-58.406905	-68.897299	10.055691
33608	9.083451	-2.992172	1.852086	-0.032956	-0.067534	-0.032783	-58.488184	-68.932862	10.122614
33609	9.086592	-3.031704	1.744822	-0.032730	-0.054444	-0.036770	-58.547545	-68.967595	10.166295
33610	9.136842	-3.031425	1.765454	-0.022593	-0.031576	-0.046472	-58.566890	-68.999060	10.173200
33611	9.065286	-2.936873	1.888757	-0.020560	-0.034056	-0.037931	-58.592619	-69.028254	10.188310
33612	9.140931	-3.001155	1.759360	-0.018682	-0.043226	-0.023157	-58.642857	-69.051791	10.230695
33613	9.091336	-3.027255	1.825710	-0.020654	-0.032261	-0.027261	-58.674798	-69.075221	10.252393
33614	9.193789	-2.994708	1.703403	-0.007881	-0.049561	-0.031385	-58.720745	-69.104654	10.296796
33615	9.195293	-2.947136	1.752359	-0.019335	-0.009773	-0.022411	-58.726975	-69.119011	10.291776
33616	9.243531	-2.995859	1.748603	-0.016169	-0.006951	-0.011545	-58.738553	-69.126055	10.294299
33617	9.197366	-3.074893	1.522728	0.009343	0.031185	-0.030815	-58.669181	-69.132336	10.225955
33618	8.873114	-2.840911	2.172007	-0.000417	0.046692	-0.007422	-58.606136	-69.121377	10.158262
33619	9.147644	-3.029258	1.627492	0.007321	-0.022611	-0.004484	-58.627512	-69.130792	10.185800
33620	9.071776	-2.901154	1.928632	0.002472	0.023774	-0.001451	-58.596864	-69.123742	10.154557
33621	9.096210	-3.035746	1.749503	0.006468	-0.004258	-0.004080	-58.595503	-69.127484	10.157236
33622	9.171281	-2.919174	1.808454	0.005442	0.007328	0.004683	-58.589041	-69.122341	10.153700
33623	9.044720	-3.041945	1.847585	0.007616	0.017717	0.015691	-58.574332	-69.109853	10.142797
33624	9.246068	-2.982266	1.611966	0.025641	-0.015687	0.007164	-58.587719	-69.110373	10.172895
33625	9.145285	-2.943240	1.786424	0.026475	0.055360	0.013140	-58.512054	-69.087877	10.108308
33626	9.067404	-3.042812	1.831683	0.031538	0.030402	0.014901	-58.469195	-69.070844	10.081806
33627	9.093203	-2.946750	1.842757	0.029458	0.034820	0.012767	-58.417963	-69.054646	10.045194
33628	9.042861	-2.970437	1.843664	0.027191	0.026222	0.012462	-58.381113	-69.040044	10.022454
33629	9.164885	-2.971450	1.801374	0.035835	0.036526	0.023726	-58.332775	-69.017967	9.992845
33630	9.089732	-2.995223	1.802639	0.029466	0.041078	0.019264	-58.281181	-68.995567	9.955702
33631	9.112910	-2.974124	1.833862	0.037056	0.040033	0.015302	-58.221253	-68.976518	9.914418
33632	9.061041	-2.978691	1.910419	0.031569	0.038821	0.021411	-58.173180	-68.953732	9.882326
33633	9.084350	-3.025595	1.862856	0.030467	0.025236	0.008278	-58.130382	-68.942550	9.855342
33634	9.109965	-2.998767	1.819355	0.033660	0.019865	0.006170	-58.093198	-68.932898	9.836197
33635	9.183667	-2.975077	1.801645	0.033719	0.030444	0.012773	-58.045571	-68.917937	9.806031
33636	9.083260	-2.977502	1.876498	0.036016	0.037024	0.008733	-57.987499	-68.901827	9.765938
33637	9.107377	-2.999706	1.830730	0.032597	0.027225	0.012638	-57.944574	-68.887890	9.740116
33638	9.080273	-3.026780	1.880723	0.032680	0.027431	0.006244	-57.898627	-68.875886	9.710964
33639	9.029202	-3.029556	1.955071	0.020740	0.009677	-0.007417	-57.868800	-68.877014	9.691898
33640	9.130380	-3.022999	1.836386	0.019533	-0.008375	-0.016340	-57.857562	-68.886866	9.691880
33641	9.057188	-2.952045	1.936642	0.013201	-0.003760	-0.022929	-57.836670	-68.899611	9.677764
33642	9.156416	-3.019621	1.835487	0.009446	-0.035270	-0.015171	-57.865946	-68.917099	9.714976
33643	9.235596	-2.916529	1.743640	0.009557	-0.024549	-0.012837	-57.881290	-68.931284	9.737458
33644	9.157869	-3.017088	1.832398	0.002351	0.006712	-0.008295	-57.867255	-68.932647	9.723893
33645	9.135634	-2.942388	1.836507	0.010789	-0.010607	-0.010388	-57.866276	-68.941396	9.729638
33646	9.134762	-2.990155	1.833146	-0.002020	0.002458	-0.008568	-57.859881	-68.944194	9.721573
33647	9.086259	-2.965171	1.857751	0.001148	-0.005073	-0.010706	-57.857199	-68.951410	9.719574
33648	9.087987	-2.983697	1.782830	0.003388	-0.002811	-0.014829	-57.849378	-68.958855	9.713303
33649	9.060051	-2.968471	1.954688	0.004506	0.008771	-0.006032	-57.831014	-68.959582	9.696563
33650	9.112904	-2.959577	1.809812	0.003280	-0.009351	-0.012828	-57.833072	-68.968053	9.700811
33651	9.163065	-2.934033	1.789036	0.005786	0.024939	-0.005671	-57.793869	-68.963667	9.662530
33652	9.037098	-2.962523	1.907941	0.008712	0.006352	0.000501	-57.783592	-68.960890	9.656893
33653	9.161531	-2.959501	1.814070	0.001119	0.003221	0.000110	-57.779037	-68.960329	9.652870
33654	9.060818	-2.987365	1.907600	-0.002157	-0.002060	-0.002265	-57.783385	-68.961467	9.656230
33655	9.161156	-2.960690	1.837689	-0.004421	-0.012751	-0.004699	-57.798319	-68.968115	9.669687
33656	9.138324	-2.979541	1.761531	-0.003276	-0.005282	-0.002376	-57.807277	-68.970292	9.677299
33657	9.135131	-2.987216	1.883528	-0.006313	0.013037	-0.000029	-57.794491	-68.966803	9.659895
33658	9.086981	-2.984080	1.858433	-0.000982	-0.000795	-0.008588	-57.791545	-68.970627	9.656160
33659	9.062735	-2.959940	1.883921	-0.009506	0.007957	-0.008796	-57.780028	-68.972937	9.638156
33660	9.013416	-2.914178	1.958637	-0.011905	-0.007251	-0.004926	-57.794384	-68.976961	9.646253
33661	8.988871	-2.937868	1.954482	-0.024026	-0.025494	-0.003676	-57.837465	-68.987000	9.677827
33662	9.188380	-2.956665	1.784182	-0.017608	-0.025719	0.000861	-57.883000	-68.993841	9.715829
33663	9.089758	-2.957877	1.828447	-0.019608	-0.008564	0.005370	-57.909379	-68.994319	9.732221
33664	9.212447	-3.005918	1.753572	-0.007860	-0.016349	0.007863	-57.943060	-68.994902	9.763504
33665	9.113508	-3.007218	1.799344	-0.010736	0.008645	0.003964	-57.941481	-68.990824	9.755394
33666	9.163886	-2.935887	1.805532	0.001038	0.000927	0.004329	-57.945427	-68.987873	9.760282
33667	9.163000	-2.983375	1.779034	-0.005141	0.022663	0.002353	-57.921656	-68.980313	9.731832
33668	9.113423	-2.914252	1.858363	0.007885	0.035221	0.009567	-57.882531	-68.964388	9.694777
33669	9.085533	-3.012142	1.855037	0.008894	0.038169	0.018190	-57.843776	-68.944405	9.658882
33670	9.137929	-2.911234	1.769668	0.027355	0.049708	0.021350	-57.784724	-68.918329	9.612416
33671	9.108376	-2.966195	1.845306	0.029557	0.070712	0.038872	-57.709857	-68.878349	9.550490
33672	9.129614	-2.971395	1.877699	0.042445	0.068301	0.041497	-57.635177	-68.836789	9.496509
33673	9.102396	-2.951497	1.910626	0.039098	0.073343	0.054180	-57.564208	-68.788538	9.444590
33674	9.074566	-3.002196	1.889656	0.035675	0.059367	0.053743	-57.514688	-68.743765	9.413406
33675	9.097014	-3.005355	1.872515	0.040052	0.059436	0.049644	-57.457309	-68.701952	9.376627
33676	9.119419	-3.008492	1.855824	0.044391	0.065713	0.054160	-57.395628	-68.655000	9.337729
33677	9.092093	-3.034488	1.837809	0.055576	0.089415	0.050725	-57.293680	-68.603364	9.262618
33678	9.112832	-2.993368	1.900848	0.065348	0.103032	0.059809	-57.179238	-68.542078	9.179906
33679	9.059075	-3.090230	1.856796	0.075363	0.117099	0.053981	-57.035662	-68.480149	9.072180
33680	9.206327	-2.928298	1.885098	0.083837	0.120900	0.067068	-56.895880	-68.409655	8.973534
33681	9.148803	-3.123859	1.837994	0.085133	0.147555	0.077935	-56.730357	-68.326486	8.848114
33682	9.169126	-3.081677	1.859529	0.114512	0.173801	0.087881	-56.527756	-68.229158	8.700643
33683	9.291825	-3.035220	1.742632	0.170811	0.206893	0.107501	-56.268521	-68.112732	8.526982
33684	9.299546	-3.243250	1.808255	0.171549	0.256052	0.164767	-56.000888	-67.952110	8.344356
33685	9.482490	-2.417861	2.037133	0.317658	0.224955	0.223793	-55.733497	-67.774131	8.252346
33686	10.276381	-1.703742	2.205698	0.081489	0.115360	0.503907	-55.950068	-67.497660	8.536978
33687	9.170275	-3.183484	2.176359	-0.063875	0.265513	0.713166	-56.229652	-67.074152	8.800564
33688	9.209471	-2.912062	2.211002	0.024664	0.071648	0.737841	-56.684660	-66.698717	9.310604
33689	9.608045	-2.955296	2.096793	-0.069167	0.138595	0.847887	-57.180305	-66.248746	9.808130
33690	9.162119	-3.587694	2.304386	-0.161084	0.188709	0.910648	-57.700466	-65.750420	10.276438
33691	8.976870	-3.391590	2.317999	-0.122500	0.097603	0.873368	-58.249453	-65.296986	10.802683
33692	9.591313	-3.630067	1.865623	-0.142720	0.170635	0.967800	-58.775991	-64.772663	11.293236
33693	9.490576	-2.625398	3.176446	-0.197171	0.119486	1.160002	-59.480023	-64.167535	11.948417
33694	9.464643	-3.969252	2.647191	-0.519540	0.103545	1.646630	-60.629760	-63.320022	12.898433
33695	12.193983	-3.710333	3.529186	-0.300585	-0.299506	1.601189	-61.960245	-62.598203	14.198990
33696	12.448314	-2.956135	2.095331	-0.536978	0.241773	2.061860	-63.064985	-61.485886	15.101317
33697	9.540125	-4.560210	2.573388	-0.634714	0.355749	2.305403	-64.154070	-60.212481	15.932052
33698	10.125534	-4.087348	2.351156	-0.497335	0.153764	2.322889	-65.273071	-58.971159	16.899032
33699	9.766695	-4.547973	2.462073	-0.572380	0.247397	2.482840	-66.335657	-57.615897	17.762647
33700	10.300118	-4.690655	2.495070	-0.518761	0.211871	2.535953	-67.339982	-56.232041	18.606381
33701	9.779611	-4.795226	2.578829	-0.557686	0.380601	2.630850	-68.195643	-54.754661	19.257089
33702	8.780758	-5.230008	2.422680	-0.583205	0.373142	2.711253	-69.036039	-53.230080	19.882792
33703	8.166832	-5.807184	2.264002	-0.761126	0.164200	2.770436	-70.079247	-51.710265	20.648444
33704	13.007008	-9.664588	2.630392	-0.474041	-0.185927	2.590227	-71.085634	-50.345854	21.593436
33705	10.209216	-3.797528	2.320190	-0.358575	0.669870	2.421501	-71.388615	-48.909157	21.721641
33706	7.056427	-6.983775	1.324502	-0.811636	0.611159	2.812115	-72.046935	-47.269452	21.981235
33707	6.380125	-7.552926	1.114068	-0.448149	0.171736	2.521972	-72.667324	-45.863041	22.482130
33708	5.907821	-6.253389	1.319635	-0.445116	-0.113799	2.562902	-73.416628	-44.477412	23.178827
33709	5.367341	-6.773795	0.800439	-0.440483	-0.306112	2.604180	-74.228999	-43.093678	23.988252
33710	4.924495	-6.835270	0.824435	-0.344178	-0.601679	2.581879	-75.088473	-41.758144	24.969576
33711	5.032040	-7.876663	1.273285	-0.364948	-0.787803	2.710459	-76.016047	-40.367271	26.063457
33712	4.007000	-10.530435	1.768900	-0.416086	-0.721972	3.092473	-76.929703	-38.741043	27.123330
33713	3.179924	-12.232160	2.451683	-0.196214	-0.869777	3.239899	-77.737375	-37.039525	28.255473
33714	3.030487	-13.168102	2.576195	0.052640	-0.986829	3.355237	-78.402584	-35.274832	29.433550
33715	4.190703	-15.083101	3.006950	0.242133	-1.010409	3.264997	-78.904923	-33.554933	30.567975
33716	5.817748	-14.243509	3.103773	0.766820	-1.079996	2.742570	-79.052118	-32.129721	31.649209
33717	6.600617	-13.381279	3.391155	0.762809	-0.996249	2.343156	-79.114811	-30.919969	32.605274
33718	6.168385	-13.326083	3.492578	0.985893	-0.966738	1.851153	-78.988478	-29.982555	33.470491
33719	5.497541	-13.091517	2.897273	1.049182	-0.925592	1.414599	-78.772293	-29.289947	34.249298
33720	3.970850	-12.808186	2.930215	1.099707	-0.962934	1.160583	-78.515165	-28.745221	35.018274
33721	3.453686	-13.020423	2.712728	1.088304	-1.136047	1.150860	-78.309495	-28.230419	35.894729
33722	3.822716	-13.294340	2.747089	1.032968	-1.202925	1.373593	-78.160317	-27.598796	36.840587
33723	4.515369	-13.101829	2.931313	1.001885	-1.107761	1.726130	-78.009990	-26.762543	37.768505
33724	5.394615	-12.771522	2.953561	0.928217	-0.802198	2.144673	-77.826079	-25.655274	38.556767
33725	6.361757	-12.289242	3.110793	0.870664	-0.382014	2.510050	-77.569511	-24.297191	39.130968
33726	7.336835	-11.697688	3.049324	0.789320	0.116571	2.774319	-77.239677	-22.729431	39.438504
33727	8.003507	-11.273460	2.979973	0.660544	0.591853	2.906487	-76.878170	-21.030915	39.484499
33728	8.488116	-10.931592	2.858241	0.545435	0.948570	2.863186	-76.509962	-19.307721	39.323839
33729	8.889580	-10.286498	2.743955	0.436009	1.208018	2.665476	-76.155844	-17.660640	38.995442
33730	8.690979	-9.627491	2.598760	0.318809	1.422995	2.381900	-75.833073	-16.137879	38.514366
33731	8.089053	-9.203816	2.561291	0.213475	1.515003	2.019024	-75.556964	-14.802871	37.938450
33732	7.368063	-8.918838	2.597840	0.141195	1.493343	1.638764	-75.325686	-13.678163	37.327991
33733	6.717549	-8.915544	2.599231	0.103978	1.403615	1.270571	-75.126889	-12.769590	36.720114
33734	6.098470	-8.873735	2.624904	0.090507	1.306067	0.967350	-74.947387	-12.040482	36.126779
33735	5.882770	-8.640297	2.757026	0.088755	1.198237	0.745555	-74.781823	-11.449297	35.564031
33736	5.506668	-8.451876	2.739367	0.075955	1.145682	0.607337	-74.631032	-10.940395	35.012447
33737	5.513558	-8.234931	2.851183	0.035077	1.074567	0.503646	-74.512995	-10.498866	34.486764
33738	5.816215	-8.190539	3.006283	-0.002595	1.059661	0.405804	-74.419279	-10.112464	33.955759
33739	6.194343	-8.164436	3.153342	-0.037765	1.116124	0.268571	-74.339997	-9.792506	33.372764
33740	6.547819	-7.976528	3.149458	-0.050284	1.192376	0.063811	-74.258052	-9.573007	32.715807
33741	6.936510	-7.743726	3.111541	-0.067086	1.296230	-0.199846	-74.171192	-9.481587	31.959769
33742	6.621665	-7.575849	2.987985	-0.077003	1.414538	-0.493009	-74.071504	-9.532553	31.091130
33743	5.902182	-7.264587	2.796033	-0.072957	1.492264	-0.752565	-73.953697	-9.712011	30.137228
33744	5.190850	-7.038708	2.590197	-0.065472	1.548040	-0.904160	-73.818092	-9.964947	29.126512
33745	4.287712	-7.174516	2.409511	-0.052622	1.555629	-1.007448	-73.666595	-10.270004	28.093393
33746	3.678996	-7.042386	2.283199	0.000950	1.475781	-1.076309	-73.483870	-10.624124	27.091341
33747	3.306945	-6.945561	2.224735	0.040515	1.354159	-1.112168	-73.283633	-11.013315	26.149106
33748	2.951245	-6.929299	2.185167	0.103021	1.175663	-1.160353	-73.057757	-11.456504	25.295443
33749	2.807465	-6.736187	2.161118	0.162584	0.927185	-1.208725	-72.817102	-11.963140	24.569482
33750	3.306026	-6.468140	2.038450	0.230264	0.705716	-1.266366	-72.553884	-12.537449	23.953384
33751	3.361387	-5.882716	1.899736	0.285674	0.568403	-1.332067	-72.266636	-13.167009	23.398602
33752	3.497848	-5.467202	1.662450	0.316791	0.486917	-1.393519	-71.961852	-13.843265	22.873208
33753	3.584310	-4.991051	1.536332	0.330484	0.520936	-1.410191	-71.636970	-14.518040	22.320661
33754	3.686972	-4.589269	1.396589	0.324898	0.624648	-1.361608	-71.294647	-15.146223	21.712880
33755	3.647894	-4.273187	1.167244	0.293783	0.782215	-1.288227	-70.943325	-15.700027	21.025404
33756	3.247000	-3.968174	0.947251	0.277498	0.927841	-1.229927	-70.573889	-16.192617	20.261588
33757	2.948647	-3.740403	0.656130	0.257179	0.943119	-1.222191	-70.206991	-16.671368	19.486058
33758	2.733120	-3.444639	0.409964	0.233268	0.849426	-1.251418	-69.858934	-17.181679	18.751638
33759	2.504428	-3.102541	0.251557	0.207529	0.620162	-1.339762	-69.551120	-17.778859	18.123282
33760	3.073832	-2.951493	0.128206	0.177078	0.347986	-1.480323	-69.290156	-18.505523	17.612737
33761	3.896008	-2.607376	0.198500	0.160406	0.149183	-1.669813	-69.054017	-19.369798	17.168821
33762	4.678274	-2.485550	0.175156	0.124905	0.057862	-1.877973	-68.830947	-20.364937	16.724391
33763	4.644786	-2.356869	0.202635	0.083907	0.110442	-2.030405	-68.599037	-21.426407	16.209441
33764	4.139506	-2.635167	0.099561	0.063570	0.149552	-2.122877	-68.349721	-22.529654	15.641676
33765	3.747487	-2.758473	-0.069053	0.052124	0.152629	-2.166832	-68.088741	-23.650542	15.052804
33766	3.565540	-3.013390	-0.033548	0.022496	0.068215	-2.193452	-67.846820	-24.804276	14.495479
33767	4.146849	-3.422611	0.049137	-0.005340	-0.037563	-2.237771	-67.628583	-25.999469	13.979995
33768	4.616081	-3.763446	0.129127	-0.008236	-0.114243	-2.314766	-67.408845	-27.253566	13.479675
33769	5.163111	-3.969086	0.127011	-0.017641	-0.163598	-2.427719	-67.180237	-28.573394	12.970123
33770	5.061628	-4.213847	0.176340	-0.008445	-0.225219	-2.557786	-66.930948	-29.977072	12.450665
33771	4.682589	-4.612184	0.282282	0.013453	-0.361958	-2.671605	-66.678156	-31.466206	11.971278
33772	4.473607	-5.161109	0.428461	0.086134	-0.518455	-2.742530	-66.405698	-33.029924	11.553109
33773	4.750912	-5.325526	0.614446	0.191762	-0.677818	-2.781673	-66.103826	-34.645630	11.208640
33774	5.321841	-5.337156	0.777405	0.264462	-0.747357	-2.801027	-65.764325	-36.289683	10.884396
33775	6.040465	-5.458848	0.863888	0.301630	-0.769026	-2.826149	-65.388349	-37.946697	10.548066
33776	5.959418	-5.771981	1.116975	0.312511	-0.765922	-2.844545	-64.979558	-39.614375	10.180802
33777	5.732583	-6.366933	1.262258	0.363401	-0.878491	-2.884689	-64.558652	-41.324522	9.853406
33778	5.683166	-6.596711	1.524191	0.434528	-0.992889	-2.879956	-64.126806	-43.062466	9.580492
33779	5.847308	-6.755472	1.598589	0.510105	-1.074185	-2.853731	-63.673954	-44.802035	9.349327
33780	6.151655	-6.573751	1.621887	0.547655	-1.102186	-2.803646	-63.203229	-46.525433	9.129160
33781	6.679401	-6.389016	1.419017	0.526009	-1.089633	-2.774144	-62.720923	-48.225450	8.883547
33782	6.924118	-5.992803	1.188337	0.430900	-1.022714	-2.753635	-62.232873	-49.899549	8.563464
33783	6.337640	-5.929362	1.076087	0.300398	-0.988734	-2.730723	-61.774293	-51.547447	8.193662
33784	5.925948	-6.682872	1.181878	0.162154	-1.098713	-2.678005	-61.454045	-53.200761	7.905672
33785	5.760952	-7.652539	1.627596	0.071516	-1.256099	-2.554304	-61.317907	-54.830661	7.788280
33786	5.983543	-8.417954	2.433022	0.072306	-1.427285	-2.459521	-61.337906	-56.463374	7.861617
33787	6.764285	-8.969116	3.214405	0.102757	-1.527454	-2.349152	-61.472285	-58.064506	8.091533
33788	7.623385	-9.379425	3.876248	0.191908	-1.490706	-2.260982	-61.584002	-59.614027	8.349505
33789	8.312400	-9.452839	4.053832	0.263820	-1.343943	-2.164845	-61.585711	-61.071847	8.525592
33790	7.831320	-8.974343	3.962445	0.292425	-1.111581	-2.008210	-61.440260	-62.390067	8.549705
33791	7.258351	-8.359945	3.618170	0.304662	-1.037958	-1.865536	-61.284760	-63.613677	8.571280
33792	7.737447	-7.725009	3.238883	0.264479	-0.995009	-1.741890	-61.175302	-64.765596	8.617142
33793	8.697486	-7.271171	3.005897	0.144473	-0.956672	-1.710735	-61.107806	-65.889077	8.634134
33794	8.883321	-7.112713	2.661433	-0.087794	-0.839677	-1.634543	-61.088446	-66.943833	8.557322
33795	7.979170	-7.588349	2.683056	-0.307018	-0.815845	-1.544855	-61.222157	-67.945135	8.511798
33796	7.527994	-7.716969	2.975838	-0.462508	-0.812112	-1.398942	-61.552316	-68.873623	8.581130
33797	7.325795	-8.236582	3.639658	-0.543439	-0.813399	-1.203078	-62.089417	-69.701785	8.822617
33798	7.940662	-8.289917	4.421099	-0.484201	-0.744588	-1.016889	-62.667593	-70.417330	9.141906
33799	8.598925	-8.708645	4.982569	-0.351418	-0.540321	-0.837756	-63.030286	-70.986177	9.313020
33800	30.090036	-19.821034	15.932078	0.156449	-0.540651	-0.996766	-62.994100	-71.636601	9.368990
33801	11.461825	-8.030551	6.105235	1.303975	3.410968	-0.679601	-56.670008	-70.990772	3.482553
33802	-3.770810	-16.448437	7.121715	-1.167848	3.383613	0.466962	-53.328344	-69.658911	-0.776615
33803	-5.192201	-23.897170	2.268690	2.473297	-1.169876	0.244469	-53.601897	-69.945905	1.024970
33804	10.922631	4.587807	5.400484	3.385610	-4.134798	-2.094350	-55.261755	-72.299519	4.828706
33805	19.476863	3.663840	-2.950756	-0.223587	0.479607	0.245173	-54.939243	-72.027566	4.355502
33806	5.128618	-0.523052	2.475956	0.029189	1.078805	0.596267	-54.004830	-71.389342	3.389024
33807	8.850761	-0.296501	2.719257	-0.101552	-0.954142	-0.156712	-55.245720	-71.779545	4.635718
33808	10.255364	-2.370032	0.937698	-0.353407	-0.069355	0.299934	-55.844665	-71.659368	5.053350
33809	9.201716	-3.537647	2.078395	-0.196377	-0.168163	0.288039	-56.474623	-71.576425	5.598781
33810	9.960576	-2.747863	0.831924	-0.016505	-0.227038	0.198030	-57.000046	-71.551925	6.142753
33811	9.932126	-3.068330	1.111444	-0.056824	0.117667	0.170315	-57.022468	-71.433844	6.132231
33812	9.030098	-2.905182	1.813722	0.046527	0.121945	0.091269	-56.909657	-71.350973	6.041378
33813	9.063482	-2.461179	1.970757	0.036431	0.050625	0.089408	-56.899713	-71.292697	6.053082
33814	9.138849	-2.600847	1.838740	-0.014213	0.020264	0.102572	-56.976781	-71.236151	6.125922
33815	8.987485	-2.598772	1.934814	-0.020250	-0.020382	0.093860	-57.103292	-71.197860	6.247462
33816	9.009073	-2.456679	1.895972	-0.046556	-0.108243	0.095894	-57.373383	-71.184247	6.504679
33817	9.431355	-2.599940	1.583540	-0.092298	-0.097072	0.122355	-57.674321	-71.155447	6.766928
33818	9.135702	-2.752270	1.677105	-0.048595	-0.049604	0.149307	-57.908810	-71.097246	6.985391
33819	9.253678	-2.587562	1.618281	-0.020349	-0.084408	0.156679	-58.178775	-71.047153	7.258630
33820	9.348570	-2.649382	1.584467	-0.030771	-0.029554	0.199517	-58.415622	-70.957824	7.490550
33821	9.072450	-2.792055	1.783246	-0.019979	-0.042883	0.206987	-58.666622	-70.869959	7.744205
33822	9.166285	-2.702474	1.693140	0.004999	-0.073969	0.204068	-58.945054	-70.790916	8.042092
33823	9.284173	-2.769827	1.682802	-0.029658	-0.070089	0.210498	-59.238223	-70.708539	8.334792
33824	9.183845	-2.899559	1.564145	-0.024142	-0.055003	0.191995	-59.491879	-70.628965	8.589026
33825	9.177597	-2.857197	1.687615	-0.015326	-0.062359	0.168929	-59.727300	-70.564024	8.829481
33826	9.275077	-2.896153	1.458597	-0.012996	-0.073973	0.144621	-59.958959	-70.512678	9.067363
33827	9.343819	-2.917615	1.528308	-0.012842	-0.006306	0.132696	-60.082445	-70.449099	9.190740
33828	9.242938	-2.877819	1.508235	0.026134	0.004872	0.124817	-60.163512	-70.384710	9.292750
33829	9.262814	-2.848595	1.588248	0.012139	0.014899	0.120034	-60.231686	-70.321262	9.372692
33830	9.185947	-2.880329	1.563506	0.026286	0.044151	0.117944	-60.251635	-70.249059	9.409950
33831	9.180038	-2.834628	1.721241	0.020753	0.029588	0.127584	-60.299704	-70.177644	9.473840
33832	9.250718	-2.951733	1.565581	0.018524	0.008173	0.124193	-60.377992	-70.112515	9.568428
33833	9.294750	-3.131547	1.548689	0.012342	0.008207	0.085031	-60.426204	-70.068302	9.627394
33834	9.171514	-2.947276	1.618754	0.039666	0.015374	0.050504	-60.424388	-70.037808	9.649700
33835	9.244294	-2.921942	1.576370	0.020349	0.016373	0.034279	-60.417090	-70.016568	9.654508
33836	9.243268	-2.922314	1.554894	0.026861	0.029014	0.039562	-60.395406	-69.987673	9.647868
33837	9.215936	-2.978557	1.601839	0.022732	0.044848	0.027128	-60.342315	-69.961930	9.605391
33838	9.190292	-2.934059	1.635588	0.028164	0.037721	0.018533	-60.291811	-69.941035	9.568858
33839	9.090492	-2.917645	1.713546	0.020617	0.036832	0.015859	-60.242300	-69.923150	9.528892
33840	9.213593	-2.885483	1.624773	0.020568	0.028210	0.015457	-60.206841	-69.906473	9.503734
33841	9.138432	-2.936645	1.645987	0.010944	0.038237	0.011000	-60.157323	-69.890584	9.457849
33842	9.161578	-2.940150	1.674140	0.022794	0.026498	0.006918	-60.116364	-69.878631	9.428186
33843	9.211895	-2.860604	1.613423	0.016311	0.032797	0.011078	-60.071334	-69.864233	9.390348
33844	9.134894	-2.989580	1.675623	0.021754	0.040291	0.011745	-60.016164	-69.845929	9.344905
33845	9.234963	-2.859855	1.597319	0.041047	0.022624	0.016471	-59.975047	-69.831747	9.326325
33846	9.283380	-2.879038	1.528494	0.042203	0.074172	0.042389	-59.886601	-69.788497	9.257892
33847	9.130410	-2.968607	1.672257	0.048772	0.089204	0.043400	-59.772806	-69.741785	9.166563
33848	9.127178	-2.952256	1.731862	0.041162	0.067100	0.033346	-59.688080	-69.704981	9.101415
33849	9.126755	-2.924454	1.692887	0.041275	0.059271	0.017970	-59.599418	-69.679407	9.032261
33850	9.172534	-2.909758	1.776115	0.027262	0.066852	0.019509	-59.512633	-69.649443	8.956396
33851	9.073958	-2.952422	1.726779	0.020894	0.061129	0.005968	-59.424159	-69.629178	8.874964
33852	9.121113	-2.909946	1.786882	0.011070	0.045059	0.004673	-59.364310	-69.612816	8.817915
33853	9.145914	-2.951342	1.713463	0.007793	0.035502	0.001924	-59.314393	-69.601968	8.769592
33854	9.120927	-2.904781	1.745724	0.012151	0.033525	-0.002173	-59.263950	-69.592320	8.723230
33855	9.145387	-2.856491	1.754604	0.009881	0.028899	0.003929	-59.223249	-69.582392	8.686012
33856	9.092704	-2.960824	1.819111	0.003418	0.035324	0.005906	-59.181869	-69.568223	8.643974
33857	9.093929	-2.977493	1.745632	0.002244	0.004514	-0.003969	-59.171592	-69.569324	8.634548
33858	9.194074	-2.876415	1.710458	0.001200	0.009917	-0.003824	-59.157392	-69.567393	8.620159
33859	9.143304	-2.974815	1.724509	-0.007323	0.018858	-0.008320	-59.130227	-69.566418	8.586861
33860	9.118404	-2.929900	1.778421	-0.001916	0.003076	-0.017173	-59.116309	-69.573066	8.570865
33861	9.144428	-2.877865	1.760170	-0.007351	0.006142	-0.013115	-59.102148	-69.578182	8.551429
33862	9.094590	-2.927296	1.778464	-0.011684	0.008231	-0.011170	-59.091730	-69.580365	8.533198
33863	9.145105	-2.921681	1.731127	-0.009478	-0.002124	-0.020021	-59.084231	-69.591306	8.519571
33864	9.146468	-2.847604	1.738375	-0.013898	-0.000374	-0.011656	-59.086042	-69.596264	8.513037
33865	9.145657	-2.943890	1.727596	-0.014984	-0.001441	-0.011770	-59.087314	-69.602948	8.505403
33866	9.195037	-2.919384	1.731491	-0.007326	0.010457	-0.012949	-59.070005	-69.605360	8.482488
33867	9.146424	-2.917791	1.730719	-0.005263	0.003740	-0.008786	-59.061214	-69.609051	8.470059
33868	9.145372	-2.922057	1.779367	-0.011683	0.004031	-0.013490	-59.054454	-69.613627	8.455733
33869	9.123329	-2.912679	1.706079	-0.011584	0.006526	-0.019829	-59.036829	-69.621921	8.430020
33870	9.145588	-2.921752	1.803881	-0.019148	0.005522	-0.020369	-59.026888	-69.629440	8.407740
33871	9.098493	-2.938258	1.751273	-0.015824	0.000554	-0.028943	-59.012321	-69.643968	8.382699
33872	9.074935	-2.889412	1.779275	-0.017974	-0.007824	-0.033721	-59.008713	-69.661981	8.367896
33873	9.124947	-2.887442	1.778606	-0.027784	-0.019707	-0.032702	-59.024823	-69.684332	8.368268
33874	9.175662	-2.883119	1.752908	-0.035365	-0.018672	-0.031024	-59.047702	-69.704224	8.371091
33875	9.278279	-2.960005	1.572635	-0.043676	-0.008820	-0.052684	-59.042537	-69.733184	8.339074
33876	9.229548	-2.890300	1.651991	-0.034841	0.032077	-0.050458	-58.982051	-69.747663	8.253348
33877	9.155399	-2.893406	1.724192	-0.029574	0.015627	-0.046497	-58.941043	-69.766348	8.191748
33878	9.156986	-2.863192	1.704209	-0.029587	0.038886	-0.036962	-58.879126	-69.772148	8.107717
33879	9.031706	-2.850632	1.851295	-0.024285	0.022552	-0.035136	-58.834850	-69.783170	8.045873
33880	9.182164	-2.836513	1.733929	-0.023428	-0.004878	-0.027602	-58.835098	-69.797323	8.031859
33881	9.133003	-2.885207	1.751402	-0.021224	0.014397	-0.024517	-58.808405	-69.805546	7.990627
33882	9.159031	-2.926664	1.698180	-0.020175	-0.001668	-0.027264	-58.802736	-69.818587	7.972297
33883	9.134074	-2.835203	1.780444	-0.020160	0.002645	-0.027091	-58.788968	-69.831552	7.945491
33884	9.210415	-2.871577	1.679347	-0.013712	-0.006030	-0.027016	-58.785574	-69.845771	7.933532
33885	9.085398	-2.812260	1.829365	-0.014978	0.007054	-0.009339	-58.777275	-69.848726	7.915719
33886	9.286190	-2.886723	1.604793	-0.001132	-0.016165	-0.000748	-58.801442	-69.853089	7.940796
33887	9.185904	-2.872705	1.702200	-0.004358	0.023282	0.009282	-58.780455	-69.842103	7.915949
33888	9.159772	-2.878417	1.751252	0.012898	-0.000334	0.005171	-58.780237	-69.838877	7.923611
33889	9.209824	-2.825737	1.710200	-0.000126	0.014389	0.013504	-58.772129	-69.828462	7.915065
33890	9.212851	-3.144164	1.479439	-0.005211	0.003982	-0.013109	-58.761734	-69.832919	7.900830
33891	9.006556	-2.593538	2.076975	0.022885	0.037920	-0.003338	-58.695464	-69.823750	7.844367
33892	9.161048	-2.988722	1.644897	0.006285	-0.041257	0.003039	-58.751834	-69.833755	7.908279
33893	9.208451	-2.830187	1.760383	-0.005403	0.007471	0.002093	-58.746754	-69.830984	7.899738
33894	9.160740	-2.897124	1.701531	0.012879	-0.032327	-0.002610	-58.782909	-69.841094	7.946135
33895	9.210596	-2.870526	1.680152	-0.001091	0.005282	0.002297	-58.778438	-69.838874	7.940874
33896	9.085954	-2.879855	1.774204	0.019471	-0.006381	-0.003249	-58.775691	-69.841596	7.949850
33897	9.136720	-2.896183	1.700046	0.015101	-0.004427	0.000840	-58.773722	-69.842974	7.957137
33898	9.110903	-2.806809	1.783123	0.024771	-0.001499	0.005919	-58.768831	-69.839757	7.967064
33899	9.135921	-2.875025	1.727754	0.026807	-0.004139	0.014556	-58.770864	-69.834329	7.985760
33900	9.209506	-2.873841	1.705635	0.025745	-0.007248	0.012200	-58.778138	-69.829748	8.009243
33901	9.209342	-2.826286	1.711885	0.031120	0.010692	0.019745	-58.762109	-69.817373	8.011330
33902	9.184946	-2.895192	1.656578	0.031024	0.008189	0.026086	-58.756983	-69.801415	8.024825
33903	9.157710	-2.880122	1.734134	0.036593	0.031137	0.020917	-58.711581	-69.782386	7.998955
33904	9.132306	-2.881150	1.736637	0.032217	0.016076	0.020011	-58.690404	-69.767067	7.996073
33905	9.231132	-2.851468	1.672078	0.034396	0.028884	0.022807	-58.650879	-69.747774	7.975119
33906	9.080086	-2.864508	1.793211	0.033299	0.032014	0.024995	-58.612043	-69.725272	7.954069
33907	9.202728	-2.884238	1.724564	0.028884	0.023196	0.028646	-58.588027	-69.704813	7.946278
33908	9.102203	-2.938423	1.768565	0.028020	0.031436	0.015992	-58.545806	-69.686882	7.918388
33909	9.050638	-2.827814	1.880211	0.025774	0.018401	0.017483	-58.520962	-69.673310	7.907811
33910	9.201307	-2.907202	1.681117	0.015960	-0.004163	0.015959	-58.532619	-69.666038	7.930008
33911	9.149549	-2.869487	1.782813	0.010675	0.014329	0.014160	-58.519129	-69.655306	7.922312
33912	9.124473	-2.894609	1.780113	0.015929	-0.010633	0.015708	-58.539104	-69.650101	7.953363
33913	9.248747	-2.887326	1.687089	0.017028	0.013823	0.023157	-58.529894	-69.635124	7.954114
33914	9.146897	-2.946803	1.778121	0.024548	0.012567	0.025754	-58.522453	-69.618079	7.961189
33915	9.198244	-2.890284	1.688916	0.024591	0.002119	0.018909	-58.520886	-69.608680	7.974717
33916	9.172002	-2.917970	1.712747	0.028088	0.042215	0.016337	-58.464913	-69.587364	7.932174
33917	9.069632	-2.860138	1.867025	0.029044	0.023762	0.017853	-58.431570	-69.571998	7.914522
33918	9.144098	-2.948926	1.764303	0.021525	0.012301	0.010477	-58.413952	-69.562505	7.908888
33919	9.094247	-2.856560	1.823614	0.027014	0.017867	0.006744	-58.380598	-69.554324	7.889979
33920	9.069514	-2.856407	1.824295	0.015046	-0.000359	0.005282	-58.379081	-69.551171	7.897569
33921	9.119562	-2.852434	1.777762	0.015003	0.003734	0.009724	-58.373516	-69.545780	7.900972
33922	9.169119	-2.873363	1.729047	0.015968	0.006519	0.018481	-58.373081	-69.534128	7.910282
33923	9.116247	-2.908827	1.823497	0.013712	0.012570	0.027141	-58.370724	-69.517586	7.916321
33924	9.242511	-2.895159	1.658847	0.028811	0.010272	0.028049	-58.365702	-69.500146	7.928592
33925	9.138707	-2.935485	1.802419	0.026745	0.044476	0.035569	-58.321074	-69.469900	7.897472
33926	9.138549	-2.956896	1.755199	0.035433	0.019165	0.022345	-58.296126	-69.452578	7.892515
33927	9.161598	-2.912507	1.788745	0.033409	0.036552	0.020664	-58.246170	-69.431969	7.859773
33928	9.110779	-2.915646	1.815570	0.032262	0.031062	0.022530	-58.207825	-69.410971	7.838562
33929	9.108456	-2.897451	1.869824	0.027984	0.020644	0.015438	-58.177525	-69.397695	7.823491
33930	9.135309	-2.888789	1.775843	0.029052	0.013192	0.013100	-58.156642	-69.386683	7.818967
33931	9.133074	-2.870765	1.829352	0.028872	0.023226	0.028447	-58.132998	-69.366291	7.811549
33932	9.132743	-2.940757	1.775567	0.021251	0.007231	0.025250	-58.134049	-69.351177	7.825687
33933	9.183286	-2.841347	1.740859	0.025769	0.033181	0.024266	-58.096024	-69.329805	7.800997
33934	9.104171	-2.973054	1.826493	0.014928	0.020456	0.020974	-58.080228	-69.312782	7.793255
33935	9.129448	-2.899373	1.812684	0.019389	0.020837	0.012693	-58.052552	-69.300770	7.775715
33936	9.128299	-2.924778	1.812676	0.017121	0.020542	0.018965	-58.033815	-69.284699	7.766171
33937	9.102258	-2.928126	1.838084	0.012782	0.012065	0.016252	-58.024095	-69.273615	7.763779
33938	9.179086	-2.918378	1.720022	0.020277	-0.001932	0.014142	-58.028557	-69.266711	7.780972
33939	9.151500	-2.926361	1.793658	0.020383	0.023744	0.019268	-58.001920	-69.250617	7.765146
33940	9.125199	-2.883864	1.847952	0.027615	-0.001567	0.027499	-58.012396	-69.237124	7.793267
33941	9.201120	-2.923679	1.725140	0.026627	0.006101	0.025529	-58.009826	-69.223342	7.807003
33942	9.171944	-2.958997	1.821402	0.026784	0.027675	0.026220	-57.982285	-69.201605	7.793953
33943	9.096420	-2.939769	1.872242	0.024577	0.006439	0.018963	-57.975204	-69.190912	7.801611
33944	9.171659	-2.935229	1.802289	0.020131	-0.010771	0.018126	-57.994158	-69.184788	7.834223
33945	9.195733	-2.983323	1.774056	0.016930	-0.001130	0.020359	-58.002229	-69.175715	7.853405
33946	9.195682	-2.960392	1.776281	0.015834	-0.012776	0.015633	-58.024189	-69.171414	7.886599
33947	9.171798	-2.958571	1.751287	0.016043	0.004690	0.011905	-58.018571	-69.164680	7.890591
33948	9.173774	-2.951416	1.681682	0.031840	0.050753	-0.004926	-57.933882	-69.151081	7.819481
33949	9.142732	-2.941641	1.860644	0.034489	0.090079	-0.014289	-57.788066	-69.131033	7.684754
33950	8.841387	-2.721550	2.172672	0.025792	0.050151	0.031053	-57.736714	-69.100098	7.645589
33951	9.221592	-2.992416	1.600950	0.024743	0.034393	0.021927	-57.696560	-69.079427	7.617949
33952	9.087673	-2.855141	1.958385	0.007468	0.072614	0.039041	-57.633902	-69.037725	7.555426
33953	9.114725	-2.939455	1.786520	0.036608	0.058554	0.034094	-57.566411	-69.003731	7.505776
33954	9.086231	-2.876393	1.872281	0.015910	0.074171	0.050276	-57.506412	-68.956077	7.451250
33955	9.080564	-2.887613	1.951957	0.024407	0.063179	0.052633	-57.455329	-68.911665	7.411664
33956	9.204209	-2.907825	1.838656	0.019722	0.049682	0.064758	-57.435751	-68.864545	7.402775
33957	9.199368	-3.011067	1.835452	0.015427	0.070915	0.073570	-57.397170	-68.807622	7.371051
33958	9.099236	-2.966441	1.843489	0.025298	0.074330	0.067850	-57.346430	-68.751404	7.332150
33959	9.141991	-2.955915	1.927905	0.023052	0.069946	0.069671	-57.301989	-68.696642	7.298802
33960	9.139663	-3.005982	1.882003	0.023048	0.074166	0.071866	-57.256359	-68.638524	7.263970
33961	9.210921	-2.987052	1.870489	0.031725	0.069931	0.068017	-57.206063	-68.584545	7.229645
33962	9.307078	-3.083908	1.776694	0.032737	0.089826	0.081336	-57.143640	-68.516991	7.182703
33963	9.130251	-3.066222	1.831904	0.057161	0.135199	0.075445	-57.005632	-68.439079	7.069726
33964	9.048961	-2.913763	2.004501	0.063478	0.139035	0.084367	-56.869395	-68.354628	6.962277
33965	8.993061	-2.946206	2.037986	0.043548	0.129934	0.099727	-56.766451	-68.266538	6.878511
33966	9.034064	-3.006273	2.072354	0.042374	0.113965	0.094911	-56.682284	-68.184778	6.813984
33967	9.060566	-2.909527	1.995975	0.026648	0.098341	0.110446	-56.636404	-68.101420	6.781171
33968	9.101430	-2.972013	2.027567	0.017574	0.093508	0.124524	-56.614738	-68.011906	6.768633
33969	9.123858	-2.838855	2.051152	0.010624	0.094929	0.143105	-56.607959	-67.913990	6.768057
33970	9.064804	-2.904974	2.100103	-0.032707	0.073581	0.175679	-56.678159	-67.806291	6.823580
33971	9.057810	-2.922826	2.105504	-0.059197	0.075201	0.197018	-56.775425	-67.688751	6.892197
33972	8.946579	-3.133476	2.086666	-0.070635	0.063876	0.212747	-56.905346	-67.566258	6.988899
