// General information: 
//  MT Manager version: 2022.2.0 
//  XDA version: 2022.2.0 build 7381 rev 124627 built on 2023-07-19
// Device information: 
//  DeviceId: 00B4BB4F
//  ProductCode: MTW2-3A7G6
//  Firmware Version: 4.6.0
//  Hardware Version: 2.0.0
// Device settings: 
//  Filter Profile: human(46.1)
//  Option Flags: Orientation Smoother Disabled, Position/Velocity Smoother Disabled, Continuous Zero Rotation Update Disabled, AHS Disabled, ICC Disabled
// Coordinate system: ENU
PacketCounter	Acc_X	Acc_Y	Acc_Z	Gyr_X	Gyr_Y	Gyr_Z	Roll	Pitch	Yaw
49091	8.969494	-3.341674	1.862918	-0.010383	-0.022642	-0.025041	-57.552557	-66.940201	8.919629
49092	8.970684	-3.339874	1.860419	-0.007371	-0.026473	-0.018786	-57.579835	-66.957811	8.943577
49093	8.974528	-3.310726	1.837124	-0.007459	-0.028625	-0.018925	-57.603090	-66.976182	8.964365
49094	8.993315	-3.387007	1.848364	-0.013674	-0.021861	-0.019041	-57.628675	-66.992493	8.982535
49095	8.925948	-3.314129	1.903434	-0.011747	-0.028269	-0.021346	-57.652302	-67.011919	9.001053
49096	8.972783	-3.361059	1.869470	-0.018633	-0.038574	-0.024607	-57.695917	-67.036035	9.035707
49097	9.023730	-3.359610	1.842018	-0.014372	-0.040777	-0.026482	-57.731741	-67.061768	9.065830
49098	8.978658	-3.329363	1.840685	-0.015409	-0.039650	-0.026511	-57.773582	-67.087114	9.100543
49099	9.031478	-3.303701	1.817150	-0.012990	-0.033294	-0.025943	-57.800560	-67.110285	9.121912
49100	8.981557	-3.325395	1.833699	-0.016071	-0.028064	-0.021725	-57.833125	-67.129762	9.146124
49101	8.984716	-3.299731	1.834195	-0.011867	-0.030568	-0.019461	-57.861108	-67.148948	9.169276
49102	9.031905	-3.330059	1.852352	-0.016157	-0.028517	-0.015528	-57.898872	-67.165547	9.199062
49103	8.986878	-3.297307	1.827950	-0.015120	-0.029643	-0.015519	-57.930592	-67.182528	9.224240
49104	9.036572	-3.300391	1.825208	-0.019667	-0.034049	-0.012001	-57.979455	-67.199081	9.263870
49105	9.010056	-3.341957	1.790199	-0.016046	-0.026211	-0.017478	-58.006415	-67.215957	9.283304
49106	8.961810	-3.340577	1.810259	-0.013384	-0.038804	-0.009720	-58.059003	-67.232826	9.330859
49107	9.016798	-3.288002	1.765936	-0.015361	-0.037638	-0.024388	-58.093919	-67.256513	9.359340
49108	8.941853	-3.298408	1.883066	-0.020724	-0.007670	-0.016718	-58.109711	-67.267338	9.362416
49109	8.968352	-3.291900	1.832812	-0.010835	-0.031684	-0.019505	-58.138733	-67.286839	9.387312
49110	8.968762	-3.294401	1.853996	-0.022436	-0.022067	-0.011514	-58.176079	-67.299480	9.412685
49111	8.968280	-3.314226	1.823311	-0.019408	-0.027594	-0.011623	-58.211032	-67.313896	9.438680
49112	9.015362	-3.345252	1.841014	-0.023924	-0.031852	-0.010179	-58.261722	-67.328822	9.477578
49113	8.993853	-3.331599	1.764441	-0.022958	-0.036666	-0.018744	-58.304253	-67.349425	9.509576
49114	9.020777	-3.311922	1.788359	-0.024105	-0.037845	-0.016839	-58.357433	-67.369374	9.551040
49115	9.022360	-3.307394	1.760709	-0.015004	-0.025637	-0.011172	-58.388087	-67.382951	9.575099
49116	8.999559	-3.287997	1.809795	-0.019096	-0.019140	-0.009005	-58.422298	-67.393443	9.599107
49117	8.971561	-3.337378	1.823783	-0.015051	-0.025945	-0.007040	-58.456380	-67.405083	9.626846
49118	9.025857	-3.285384	1.780500	-0.018204	-0.024412	-0.011364	-58.494673	-67.418292	9.655819
49119	8.976840	-3.288229	1.825642	-0.017043	-0.021543	-0.006924	-58.524873	-67.428545	9.678111
49120	8.951924	-3.306134	1.794747	-0.023711	-0.027238	-0.014081	-58.567804	-67.443913	9.708679
49121	8.978468	-3.287189	1.819495	-0.022762	-0.028983	-0.005792	-58.610916	-67.455822	9.741401
49122	9.003751	-3.288465	1.816243	-0.023838	-0.031227	-0.018532	-58.655563	-67.474536	9.773735
49123	9.003981	-3.304240	1.760511	-0.021910	-0.036094	-0.012456	-58.701889	-67.491806	9.810457
49124	9.006859	-3.279452	1.760484	-0.020620	-0.030764	-0.012010	-58.748997	-67.507168	9.847436
49125	8.981085	-3.304643	1.777088	-0.027208	-0.032778	-0.010592	-58.795891	-67.522516	9.881480
49126	9.006511	-3.305683	1.773421	-0.019689	-0.035720	-0.018533	-58.843824	-67.542522	9.919914
49127	9.057640	-3.297489	1.697911	-0.017255	-0.027682	-0.011559	-58.878386	-67.556813	9.946777
49128	8.984010	-3.302038	1.767117	-0.020121	-0.017856	-0.011133	-58.910818	-67.567884	9.968156
49129	9.036136	-3.273868	1.720612	-0.013741	-0.020455	-0.008720	-58.936875	-67.578634	9.987991
49130	9.036188	-3.277229	1.742728	-0.016730	-0.013095	-0.004296	-58.966691	-67.584934	10.008633
49131	8.986057	-3.297225	1.736940	-0.012472	-0.015283	-0.006192	-58.987712	-67.592908	10.023804
49132	9.035677	-3.297026	1.711168	-0.013678	-0.018461	-0.006505	-59.020667	-67.601869	10.049724
49133	8.986177	-3.303952	1.781305	-0.015673	-0.014061	-0.006368	-59.041969	-67.609564	10.063214
49134	9.011506	-3.301750	1.755283	-0.013743	-0.020453	-0.008735	-59.075832	-67.620197	10.090064
49135	9.012132	-3.301390	1.752744	-0.016107	-0.024974	-0.005065	-59.111378	-67.630458	10.118687
49136	9.062278	-3.297618	1.701871	-0.016190	-0.027125	-0.005223	-59.157230	-67.641309	10.156976
49137	9.036690	-3.319650	1.694916	-0.016292	-0.029433	-0.003310	-59.199536	-67.651998	10.192788
49138	9.016208	-3.273069	1.724133	-0.010130	-0.010918	-0.007807	-59.220791	-67.659350	10.208224
49139	8.989561	-3.302261	1.767310	-0.016465	-0.006484	-0.005921	-59.233886	-67.664585	10.212345
49140	9.040889	-3.278165	1.745482	-0.009475	-0.021121	-0.002208	-59.271051	-67.672163	10.245379
49141	8.990783	-3.298346	1.739351	-0.020099	-0.016176	-0.004795	-59.298672	-67.679678	10.262951
49142	9.016042	-3.296361	1.712911	-0.010746	-0.026290	-0.004758	-59.341040	-67.690008	10.300813
49143	9.040917	-3.298239	1.710239	-0.016142	-0.025290	-0.000950	-59.380121	-67.698280	10.333221
49144	9.041728	-3.294686	1.683491	-0.012775	-0.022209	-0.000473	-59.421905	-67.705285	10.369183
49145	9.015565	-3.320739	1.701181	-0.013981	-0.025387	-0.000793	-59.460026	-67.713491	10.401888
49146	9.043731	-3.278350	1.730349	-0.010598	-0.022146	-0.002388	-59.499227	-67.721403	10.436395
49147	9.015752	-3.328460	1.744122	-0.017364	-0.028626	0.000790	-59.544368	-67.729752	10.474588
49148	9.067978	-3.297107	1.672238	-0.012220	-0.036075	-0.003504	-59.600613	-67.742233	10.526499
49149	9.023114	-3.254004	1.576929	-0.007993	-0.011169	-0.005588	-59.614848	-67.748651	10.537094
49150	8.949197	-3.254135	1.773571	-0.015408	0.021316	-0.001793	-59.604917	-67.743645	10.515516
49151	8.996974	-3.270867	1.697734	-0.005793	-0.009596	0.000950	-59.620623	-67.746375	10.529062
49152	8.947304	-3.278807	1.768763	-0.023033	-0.006991	0.003943	-59.653342	-67.746734	10.548843
49153	9.043936	-3.299834	1.691093	-0.011601	-0.019352	0.003967	-59.686311	-67.750790	10.577445
49154	9.044271	-3.296787	1.665624	-0.014151	-0.001088	0.007145	-59.709102	-67.747847	10.591991
49155	9.019039	-3.303264	1.713242	-0.007750	-0.003530	0.007476	-59.723215	-67.745586	10.602605
49156	8.998616	-3.250233	1.696183	-0.010852	0.000003	0.005397	-59.741598	-67.743190	10.614424
49157	9.018739	-3.304735	1.711983	-0.010162	-0.009884	0.006832	-59.764319	-67.743079	10.632845
49158	9.045276	-3.279521	1.690483	-0.010147	-0.009722	0.004759	-59.793641	-67.743800	10.656916
49159	9.041872	-3.324344	1.657671	-0.010049	-0.007411	0.002846	-59.810498	-67.744944	10.669071
49160	9.019049	-3.302672	1.684692	-0.005657	-0.005617	0.005405	-59.832780	-67.744156	10.688308
49161	9.018283	-3.310841	1.732235	-0.008857	-0.004395	0.005239	-59.846989	-67.743243	10.698339
49162	9.045384	-3.277967	1.663260	-0.003328	-0.001413	0.005889	-59.863219	-67.740999	10.712473
49163	8.994340	-3.302575	1.683070	-0.009897	-0.003271	0.005237	-59.876658	-67.739762	10.721029
49164	9.019859	-3.288617	1.734190	-0.005908	-0.012067	0.004921	-59.906625	-67.741058	10.748401
49165	9.041421	-3.327821	1.653151	-0.007902	-0.007669	0.005078	-59.924134	-67.741160	10.762591
49166	9.018289	-3.310015	1.704133	-0.005825	-0.009917	0.005080	-59.951599	-67.741750	10.787306
49167	9.042662	-3.312311	1.703254	-0.004590	-0.006417	0.001260	-59.963019	-67.743382	10.796965
49168	8.996021	-3.284601	1.705914	-0.005965	-0.013894	0.000613	-59.992294	-67.747318	10.823544
49169	9.018824	-3.307332	1.676737	-0.009053	-0.009019	0.009056	-60.014888	-67.745825	10.842515
49170	9.018521	-3.311767	1.699495	-0.003902	-0.016304	0.002684	-60.047397	-67.749412	10.873859
49171	9.045565	-3.282402	1.653500	-0.010303	-0.013859	0.002354	-60.071897	-67.752623	10.894114
49172	9.018765	-3.312606	1.696563	-0.009025	-0.008695	0.004911	-60.099710	-67.752919	10.917207
49173	9.019107	-3.309307	1.671309	-0.010135	-0.009558	0.002676	-60.119125	-67.754735	10.932073
49174	9.045479	-3.287487	1.673845	-0.007005	-0.012769	0.000606	-60.147764	-67.758324	10.957302
49175	9.045642	-3.287764	1.672421	-0.009180	-0.012833	0.002512	-60.170505	-67.761150	10.976351
49176	9.019316	-3.313970	1.690962	-0.012622	-0.017898	-0.000213	-60.208077	-67.766599	11.007750
49177	9.019763	-3.310552	1.665291	-0.009024	-0.008695	0.004907	-60.227376	-67.767049	11.023176
49178	9.019324	-3.318488	1.712064	-0.012525	-0.015584	-0.002124	-60.260801	-67.772778	11.050148
49179	9.019812	-3.318297	1.709865	-0.012838	-0.023859	-0.006923	-60.292536	-67.783415	11.076646
49180	9.019038	-3.334322	1.655593	-0.014662	-0.015160	-0.006433	-60.323733	-67.791153	11.099883
49181	9.020870	-3.317583	1.705663	-0.013708	-0.018434	-0.006600	-60.349622	-67.800081	11.119525
49182	9.021802	-3.313205	1.679157	-0.017139	-0.023334	-0.011402	-60.388837	-67.812596	11.149883
49183	9.047185	-3.310571	1.652281	-0.021463	-0.023138	-0.011732	-60.421403	-67.825403	11.171934
49184	9.023415	-3.311588	1.673669	-0.019279	-0.022908	-0.015717	-60.458433	-67.839932	11.198600
49185	9.049267	-3.304445	1.622761	-0.020284	-0.021291	-0.021936	-60.481051	-67.857295	11.210635
49186	9.053846	-3.255283	1.628253	-0.014651	-0.014996	-0.008521	-60.510827	-67.865994	11.232323
49187	9.050313	-3.306615	1.643049	-0.018713	-0.008187	-0.010420	-60.524505	-67.873914	11.235676
49188	9.050876	-3.305675	1.641840	-0.013234	-0.006862	-0.016147	-60.538260	-67.884123	11.240941
49189	9.073651	-3.334347	1.661159	-0.016279	-0.001506	-0.013904	-60.539933	-67.891897	11.232842
49190	9.076567	-3.301309	1.616423	-0.011756	0.003094	-0.019461	-60.538352	-67.900953	11.222463
49191	9.075229	-3.323706	1.612880	-0.012452	0.012982	-0.020863	-60.515188	-67.908114	11.189926
49192	9.053228	-3.295997	1.617837	-0.007951	0.017253	-0.022277	-60.492089	-67.914579	11.158672
49193	9.076314	-3.316164	1.591668	-0.003213	0.027809	-0.021117	-60.445201	-67.917666	11.106249
49194	9.029235	-3.294095	1.646491	-0.004066	0.033564	-0.024933	-60.397998	-67.920828	11.051381
49195	9.027917	-3.312031	1.621530	0.004582	0.033179	-0.024283	-60.337811	-67.923936	10.989427
49196	9.031568	-3.265484	1.656808	0.005879	0.038672	-0.025866	-60.277990	-67.926071	10.927090
49197	9.003790	-3.309238	1.652646	0.008999	0.035305	-0.025878	-60.211515	-67.929318	10.861084
49198	9.060295	-3.210422	1.647841	0.017810	0.039224	-0.024894	-60.144867	-67.930758	10.798754
49199	8.980789	-3.286698	1.712764	0.002921	0.047500	-0.012960	-60.076012	-67.924047	10.726423
49200	9.007686	-3.251506	1.648085	0.013099	0.029991	-0.015530	-60.029996	-67.923430	10.683439
49201	9.034988	-3.208236	1.683595	0.008121	0.043049	-0.000364	-59.972564	-67.911693	10.626645
49202	9.005604	-3.262439	1.727614	0.008691	0.030352	0.009183	-59.946153	-67.898692	10.602085
49203	9.029801	-3.257272	1.682404	0.004366	0.030542	0.008844	-59.912750	-67.885952	10.568894
49204	9.028997	-3.257986	1.685335	0.006528	0.030448	0.009007	-59.887413	-67.873001	10.544147
49205	9.027815	-3.262625	1.712361	0.007553	0.029161	0.011079	-59.855519	-67.859539	10.514550
49206	9.000797	-3.285606	1.711446	0.006608	0.032599	0.009159	-59.827704	-67.845884	10.487170
49207	9.050881	-3.262105	1.694178	0.007406	0.025025	0.008671	-59.799289	-67.834794	10.461233
49208	9.025424	-3.264851	1.720702	0.007390	0.024861	0.010742	-59.781626	-67.822575	10.445290
49209	9.046837	-3.295440	1.743260	0.002905	0.020751	0.010078	-59.762022	-67.812015	10.426079
49210	9.047425	-3.284473	1.672804	0.003913	0.017971	0.003697	-59.749772	-67.805266	10.413826
49211	9.046183	-3.292440	1.722969	0.004075	0.022272	0.004017	-59.723394	-67.797261	10.388020
49212	9.019635	-3.314626	1.721015	0.002923	0.019587	-0.002533	-59.705386	-67.793124	10.368929
49213	8.998805	-3.264217	1.730182	0.000552	0.013560	-0.007333	-59.683568	-67.793245	10.345868
49214	8.994932	-3.315264	1.747397	-0.001898	0.005382	-0.012294	-59.678640	-67.798037	10.337919
49215	9.022492	-3.283813	1.703025	-0.002296	-0.006700	-0.023628	-59.671446	-67.812075	10.328892
49216	9.028067	-3.217413	1.761589	-0.013443	-0.014991	-0.023048	-59.690226	-67.828074	10.339403
49217	8.965329	-3.416633	1.652759	-0.015348	-0.008280	-0.024814	-59.691584	-67.843156	10.331536
49218	9.074934	-3.276555	1.674898	-0.005779	-0.016406	-0.049681	-59.688819	-67.872732	10.323523
49219	9.027560	-3.272494	1.697945	-0.003000	0.000539	-0.046157	-59.657145	-67.895818	10.287641
49220	9.029129	-3.268149	1.697971	0.004559	-0.000533	-0.049806	-59.628977	-67.920858	10.258607
49221	9.058425	-3.217769	1.706064	0.004633	0.002945	-0.039112	-59.594895	-67.939749	10.224858
49222	9.056448	-3.258431	1.674908	-0.000500	0.010704	-0.038979	-59.563567	-67.956169	10.189296
49223	9.103967	-3.294591	1.596498	0.010607	0.017355	-0.045963	-59.503444	-67.974240	10.131154
49224	9.057110	-3.273661	1.675260	0.016686	0.034245	-0.056812	-59.420600	-67.992584	10.050649
49225	9.054638	-3.320106	1.695125	0.025104	0.027431	-0.056634	-59.331939	-68.012916	9.970703
49226	9.103612	-3.337610	1.671132	0.039369	0.031059	-0.067785	-59.231761	-68.037498	9.885543
49227	9.182133	-3.283760	1.659915	0.056996	0.039277	-0.069983	-59.100284	-68.060808	9.779159
49228	9.184185	-3.277691	1.519028	0.085293	0.075650	-0.063063	-58.922462	-68.069763	9.638681
49229	9.203794	-3.336259	1.620077	0.089022	0.124068	-0.046902	-58.686025	-68.056345	9.438938
49230	9.052620	-3.379129	1.699152	0.143367	0.129164	-0.052723	-58.417697	-68.043833	9.236726
49231	9.149712	-3.390624	1.641057	0.160952	0.134077	-0.067915	-58.112778	-68.036937	9.007549
49232	9.143733	-3.460831	1.698441	0.194877	0.176649	-0.073076	-57.743077	-68.019021	8.727802
49233	9.074872	-3.359832	1.807675	0.237886	0.167016	-0.078953	-57.346758	-68.006257	8.447550
49234	8.913329	-3.914135	1.868592	0.220633	0.213718	-0.044315	-56.941557	-67.961520	8.145329
49235	8.058698	-4.511848	2.180590	0.361514	0.161764	-0.017701	-56.529527	-67.919580	7.924409
49236	7.990050	-4.392315	2.339481	0.539774	-0.113848	-0.012045	-56.354778	-67.961632	8.068023
49237	8.236517	-4.831557	2.099807	0.641650	-0.241468	0.081249	-56.335759	-67.999973	8.444235
49238	8.567509	-4.695987	1.914591	0.905680	-0.356022	0.114120	-56.337520	-68.058608	9.004139
49239	8.876418	-4.554590	1.459927	1.052299	-0.353745	0.139858	-56.264233	-68.104813	9.575204
49240	8.914849	-3.983183	1.440755	1.202442	-0.378309	0.141100	-56.146475	-68.157948	10.189094
49241	9.082920	-3.694420	1.190582	1.287406	-0.378099	0.143878	-55.972878	-68.210930	10.796797
49242	9.145385	-3.161010	0.952095	1.289813	-0.390195	0.147529	-55.826992	-68.265913	11.433807
49243	9.076916	-3.080809	0.544801	1.271202	-0.417607	0.147862	-55.715524	-68.330877	12.097904
49244	9.272357	-2.395875	0.215237	1.245337	-0.438042	0.104904	-55.621377	-68.422414	12.762504
49245	9.881292	-1.753038	-0.039240	1.058948	-0.392142	0.103380	-55.569181	-68.500915	13.358832
49246	9.688197	-2.018745	-0.064025	0.793614	-0.296922	0.113591	-55.576016	-68.543197	13.853106
49247	9.381086	-2.119511	-0.397191	0.549467	-0.322745	0.087448	-55.722363	-68.606593	14.348671
49248	9.772448	-2.220680	0.212633	0.345322	-0.261344	0.044542	-55.889697	-68.669611	14.739028
49249	9.583666	-2.536524	0.656252	0.113599	-0.194977	0.044623	-56.098743	-68.711314	15.033441
49250	9.219096	-2.670968	1.353732	-0.021077	-0.132390	0.043376	-56.320377	-68.732964	15.256516
49251	9.087944	-2.945705	1.974355	-0.079804	-0.086781	0.035802	-56.501787	-68.743801	15.402273
49252	8.833466	-3.156926	2.255591	-0.126468	-0.121723	0.045426	-56.773069	-68.760543	15.613786
49253	8.902136	-3.080013	2.728403	-0.102332	-0.161395	0.027865	-57.053767	-68.798064	15.852166
49254	8.997880	-2.977412	3.127823	-0.069468	-0.143021	0.003183	-57.285867	-68.840989	16.056627
49255	8.749283	-2.761741	3.049335	-0.084681	-0.169307	-0.005831	-57.541302	-68.896464	16.278623
49256	9.086125	-2.431125	3.449672	-0.038768	-0.124569	-0.019502	-57.716034	-68.944040	16.440396
49257	9.111543	-1.596827	4.463051	-0.086073	-0.023854	-0.064817	-57.743943	-68.983154	16.417621
49258	9.115153	-1.408918	4.880702	-0.155274	0.012808	-0.099228	-57.748489	-69.027211	16.325664
49259	9.283615	-0.885741	4.130342	-0.209287	-0.023234	-0.154366	-57.774593	-69.109537	16.225388
49260	8.259924	-1.921233	2.726574	-0.432494	-0.053962	-0.041447	-58.067684	-69.146004	16.272526
49261	8.330892	-3.066681	2.101144	-0.276847	-0.321046	0.008493	-58.645224	-69.238780	16.720834
49262	9.293733	-2.919371	1.743499	-0.332001	-0.403155	0.069215	-59.422455	-69.323482	17.347160
49263	9.221856	-3.401832	1.317013	-0.220665	-0.359501	0.100992	-60.098554	-69.377638	17.934724
49264	9.616075	-3.289967	1.072738	-0.138898	-0.340056	0.100989	-60.714421	-69.423330	18.506373
49265	9.649469	-3.397182	0.892471	-0.047425	-0.178079	0.136085	-61.080091	-69.405237	18.868119
49266	9.562016	-3.337024	1.058760	0.053346	-0.066671	0.140372	-61.251260	-69.352974	19.082364
49267	9.510068	-3.346132	1.086846	0.105127	0.041594	0.130098	-61.230851	-69.276569	19.125093
49268	9.422348	-3.230756	1.205510	0.139740	0.127956	0.114689	-61.074904	-69.183424	19.042599
49269	9.303521	-3.183788	1.330920	0.139863	0.218035	0.093074	-60.776528	-69.076517	18.809196
49270	9.164813	-3.084881	1.489235	0.141640	0.265732	0.079968	-60.417995	-68.961683	18.510750
49271	8.944173	-3.102916	1.720995	0.120761	0.281715	0.082176	-60.046401	-68.841084	18.186779
49272	8.569055	-3.258072	2.095502	0.121629	0.208439	0.068977	-59.771205	-68.746881	17.964958
49273	8.514914	-3.279710	2.136402	0.128187	0.061141	0.010249	-59.627786	-68.724547	17.890035
49274	8.644047	-3.160307	2.018425	0.091118	-0.043031	-0.059300	-59.595664	-68.766144	17.910218
49275	8.921958	-3.074940	1.934398	0.014140	-0.099129	-0.123177	-59.621975	-68.856165	17.947286
49276	9.322905	-2.013865	1.553509	0.049792	-0.173996	0.004758	-59.829444	-68.903846	18.198938
49277	9.502594	-2.723212	1.441713	-0.143437	0.001067	0.192795	-60.053462	-68.808342	18.351172
49278	9.021408	-3.414207	1.481929	-0.038594	0.010900	0.232008	-60.241189	-68.689800	18.527534
49279	9.184342	-3.259818	1.677389	-0.013651	0.001638	0.200454	-60.392494	-68.589963	18.681763
49280	9.176932	-3.492696	1.523191	-0.030000	0.012731	0.163513	-60.520445	-68.504689	18.799416
49281	9.067101	-3.350293	1.606349	0.013205	0.012804	0.101488	-60.569334	-68.450857	18.860264
49282	9.035370	-3.162038	1.664755	0.001571	0.018793	0.099585	-60.624904	-68.395665	18.919620
49283	9.048930	-3.246761	1.662897	0.001354	0.009958	0.111614	-60.690747	-68.337531	18.991449
49284	9.141597	-3.238242	1.563432	0.016021	0.002865	0.105137	-60.761322	-68.283976	19.075905
49285	9.111399	-3.268944	1.565641	0.017215	0.031091	0.093647	-60.778321	-68.228862	19.104988
49286	9.063991	-3.250779	1.645151	0.031598	0.035672	0.099910	-60.794734	-68.168719	19.140779
49287	9.060245	-3.259504	1.648520	0.027497	0.017450	0.103393	-60.829380	-68.112533	19.195246
49288	9.054056	-3.292619	1.650519	0.025639	0.024058	0.101494	-60.864394	-68.054824	19.247431
49289	9.007622	-3.275045	1.753091	0.023925	0.014558	0.092927	-60.896992	-68.004659	19.297526
49290	9.004729	-3.256178	1.681974	0.019811	-0.001398	0.090336	-60.958718	-67.959591	19.374958
49291	9.004245	-3.240114	1.683163	0.015629	-0.001311	0.098516	-61.019065	-67.910999	19.449899
49292	9.000240	-3.248131	1.659038	0.010246	-0.002173	0.102554	-61.094944	-67.859955	19.536744
49293	8.998277	-3.259402	1.707936	0.016821	-0.004911	0.116773	-61.170775	-67.803128	19.629199
49294	9.077585	-3.400690	1.676263	0.005808	-0.008639	0.116606	-61.265811	-67.746721	19.734060
49295	9.006287	-3.544959	1.550848	0.014159	-0.018010	0.065019	-61.323648	-67.719408	19.805487
49296	9.083381	-3.315090	1.652419	0.026004	-0.028980	0.033910	-61.376059	-67.710065	19.876825
49297	9.049535	-3.387000	1.625523	0.010671	-0.011868	0.030352	-61.404959	-67.698459	19.914832
49298	9.028177	-3.362931	1.650513	0.015474	-0.019537	0.019860	-61.442342	-67.693563	19.963414
49299	9.053123	-3.341206	1.600947	0.018317	-0.006698	0.018199	-61.452356	-67.686643	19.985746
49300	8.983053	-3.337568	1.701312	0.009991	0.000308	0.014330	-61.464823	-67.679088	20.004004
49301	9.030457	-3.343116	1.674866	0.014441	-0.016113	0.011767	-61.484296	-67.677978	20.034161
49302	9.055754	-3.320664	1.624903	0.009047	-0.014671	0.007724	-61.511237	-67.677838	20.067486
49303	9.028722	-3.342829	1.624242	0.003961	-0.008987	0.007908	-61.525402	-67.676716	20.085415
49304	9.050046	-3.370503	1.622316	0.006513	-0.002677	0.010144	-61.540685	-67.672077	20.104569
49305	9.054575	-3.321637	1.599015	0.008170	-0.009128	0.001749	-61.548513	-67.674093	20.118254
49306	9.025560	-3.368640	1.622795	0.007772	0.000494	0.010237	-61.559242	-67.668544	20.133265
49307	9.028857	-3.345685	1.648076	0.007550	-0.001562	0.004031	-61.559659	-67.667344	20.138555
49308	9.030360	-3.347475	1.696964	0.007550	-0.001562	0.004030	-61.568905	-67.665483	20.151826
49309	9.027930	-3.345318	1.623518	0.003859	-0.008889	0.001766	-61.578918	-67.667422	20.165205
49310	9.028877	-3.346094	1.647135	0.003704	-0.011010	-0.000347	-61.599041	-67.670341	20.187855
49311	9.004873	-3.343245	1.646998	-0.000761	-0.012892	-0.002442	-61.613830	-67.675488	20.203534
49312	9.007985	-3.318607	1.646327	-0.002089	-0.015999	-0.006631	-61.639233	-67.682929	20.228307
49313	9.079318	-3.324978	1.593968	-0.002242	-0.002067	0.001990	-61.644526	-67.682892	20.232803
49314	9.053989	-3.348000	1.643101	0.001312	0.005390	-0.003933	-61.643500	-67.683155	20.231113
49315	9.029090	-3.343981	1.619815	-0.001275	-0.000887	-0.008215	-61.640024	-67.687943	20.226729
49316	9.028234	-3.369140	1.667964	-0.009532	0.006054	-0.007981	-61.641702	-67.690070	20.221248
49317	9.028738	-3.341837	1.595667	-0.002205	0.002437	-0.010159	-61.633382	-67.694933	20.211053
49318	9.007175	-3.340657	1.670079	-0.008308	0.009258	-0.009934	-61.629117	-67.697175	20.199909
49319	8.985946	-3.312823	1.671781	-0.004636	-0.001719	-0.012331	-61.625851	-67.704263	20.193671
49320	9.008906	-3.313147	1.621873	-0.009774	0.001745	-0.008116	-61.632843	-67.707634	20.193791
49321	8.984016	-3.335224	1.670591	-0.006893	-0.001501	-0.018466	-61.626523	-67.717756	20.182857
49322	9.058309	-3.316409	1.619343	-0.003636	-0.005108	-0.006296	-61.639626	-67.722078	20.193385
49323	9.010993	-3.311130	1.644923	-0.012238	-0.002379	-0.012337	-61.641521	-67.729349	20.188018
49324	9.011420	-3.310247	1.644359	-0.004722	-0.003905	-0.010354	-61.651063	-67.735395	20.194029
49325	9.036862	-3.312942	1.667338	-0.004687	-0.003939	-0.008307	-61.653230	-67.741059	20.193633
49326	9.032817	-3.335075	1.617394	-0.008843	-0.001580	-0.006176	-61.665030	-67.744368	20.199536
49327	9.037694	-3.285128	1.593992	-0.003584	-0.002887	-0.010327	-61.663931	-67.750765	20.196292
49328	9.034199	-3.334646	1.641158	-0.005397	0.001440	-0.004041	-61.671449	-67.752183	20.199705
49329	9.036988	-3.310000	1.642102	-0.001899	0.006681	-0.005934	-61.660508	-67.753762	20.186871
49330	9.037120	-3.309517	1.642349	-0.005431	0.001473	-0.006090	-61.666627	-67.756208	20.188754
49331	8.986075	-3.328207	1.643139	-0.009912	-0.002666	-0.002111	-61.674341	-67.758401	20.191116
49332	8.989863	-3.304395	1.667394	-0.005045	-0.010400	-0.008513	-61.693261	-67.765299	20.207071
49333	9.010202	-3.329236	1.615713	-0.008388	-0.013521	-0.004506	-61.711915	-67.771647	20.222193
49334	9.035672	-3.332341	1.637729	-0.009441	-0.012352	-0.006517	-61.737092	-67.778066	20.242190
49335	9.062197	-3.309483	1.611740	-0.007286	-0.012470	-0.006527	-61.752493	-67.785145	20.254480
49336	9.038314	-3.306388	1.611486	-0.010220	-0.006907	-0.006345	-61.771510	-67.790000	20.267342
49337	9.059421	-3.331958	1.584506	-0.007082	-0.008127	-0.008441	-61.780170	-67.796866	20.272476
49338	9.015676	-3.303291	1.634990	-0.008016	-0.004803	-0.010384	-61.792647	-67.803195	20.279639
49339	9.036823	-3.328597	1.608340	-0.010052	-0.002531	-0.010307	-61.794852	-67.809487	20.275964
49340	8.991310	-3.298370	1.610497	-0.008761	0.000607	-0.008161	-61.802526	-67.813232	20.277481
49341	9.038239	-3.328195	1.631986	-0.005671	-0.002835	-0.006228	-61.805306	-67.817547	20.277137
49342	9.064543	-3.305250	1.607229	-0.010679	0.005033	-0.008016	-61.808679	-67.820024	20.272828
49343	9.014452	-3.324375	1.632730	-0.007659	0.001660	-0.010181	-61.804406	-67.825118	20.263637
49344	9.014805	-3.323516	1.632530	-0.010986	0.000793	-0.012253	-61.810378	-67.830887	20.261947
49345	9.015206	-3.322624	1.632129	-0.004723	-0.003901	-0.010368	-61.811187	-67.837581	20.260062
49346	9.015617	-3.321723	1.631694	-0.009968	-0.000343	-0.012294	-61.817940	-67.843679	20.259850
49347	8.995252	-3.294810	1.657271	-0.010051	-0.002532	-0.010315	-61.820140	-67.849976	20.256170
49348	9.019114	-3.295887	1.630968	-0.006296	-0.013571	-0.008630	-61.843621	-67.857803	20.276295
49349	9.043790	-3.297852	1.629042	-0.006843	-0.003819	-0.008313	-61.846916	-67.863437	20.275782
49350	9.017228	-3.318771	1.628795	-0.007779	-0.000494	-0.010255	-61.853921	-67.868553	20.277206
49351	9.017634	-3.317949	1.628226	-0.005977	-0.007073	-0.010473	-61.859330	-67.876157	20.279511
49352	9.044099	-3.294715	1.602914	-0.005824	-0.004954	-0.008354	-61.872007	-67.881519	20.288270
49353	9.047070	-3.269893	1.602949	-0.006925	-0.006008	-0.006336	-61.879391	-67.886745	20.292122
49354	9.016065	-3.340268	1.625502	-0.007780	-0.000494	-0.010257	-61.886368	-67.891870	20.293522
49355	9.020857	-3.316772	1.674347	-0.006130	-0.009192	-0.012597	-61.893102	-67.901119	20.297163
49356	9.024873	-3.265911	1.625968	-0.007124	-0.010353	-0.004429	-61.915830	-67.905957	20.315975
49357	9.069335	-3.293385	1.573604	-0.003715	-0.007295	-0.004336	-61.924321	-67.910518	20.323005
49358	9.020099	-3.313923	1.622757	-0.007873	-0.004945	-0.002199	-61.942218	-67.912775	20.336142
49359	9.023864	-3.290229	1.646919	-0.006141	-0.011452	-0.006521	-61.955836	-67.919559	20.347205
49360	9.067452	-3.316887	1.570127	-0.010028	-0.004829	-0.002192	-61.974811	-67.921780	20.360177
49361	9.023428	-3.289042	1.620894	-0.004581	-0.004041	-0.002177	-61.981190	-67.924370	20.364391
49362	9.044413	-3.314805	1.594093	-0.001677	-0.009565	-0.004418	-61.999801	-67.928994	20.382138
49363	9.044689	-3.314381	1.593410	-0.005673	-0.002835	-0.006238	-62.002610	-67.933313	20.381825
49364	9.024194	-3.287865	1.619016	-0.001479	-0.005220	-0.006326	-62.014418	-67.937735	20.392354
49365	9.070357	-3.316772	1.615939	-0.001362	-0.003066	-0.006254	-62.015036	-67.942125	20.392343
49366	9.069737	-3.315278	1.591498	-0.000028	0.002298	-0.008130	-62.015410	-67.945441	20.391436
49367	9.027519	-3.261641	1.619838	-0.003908	0.011181	-0.009878	-61.997288	-67.947833	20.369630
49368	8.997275	-3.332873	1.667794	-0.002147	0.002377	-0.006072	-62.000120	-67.950092	20.370070
49369	9.074739	-3.263678	1.569678	-0.006683	0.000561	-0.012280	-61.995251	-67.956554	20.360848
49370	9.025671	-3.310476	1.691569	-0.005824	-0.004954	-0.008363	-62.007805	-67.961948	20.369509
49371	9.047892	-3.309469	1.616505	-0.008474	-0.011158	-0.016775	-62.015625	-67.973836	20.372870
49372	9.024330	-3.305533	1.616335	-0.010397	-0.006734	-0.016625	-62.027516	-67.983887	20.377995
49373	9.070098	-3.332625	1.588224	-0.007374	-0.010102	-0.018798	-62.032051	-67.996514	20.378492
49374	9.028453	-3.278085	1.615098	-0.010391	-0.004472	-0.022710	-62.037052	-68.009038	20.376193
49375	9.023231	-3.323844	1.588363	-0.008351	-0.006740	-0.022794	-62.035278	-68.022785	20.369282
49376	9.051835	-3.301095	1.611542	-0.010622	-0.008781	-0.022862	-62.045698	-68.036545	20.372690
49377	9.028600	-3.296338	1.611259	-0.007672	-0.012073	-0.029143	-62.045996	-68.054937	20.368434
49378	9.054886	-3.297256	1.633367	-0.008693	-0.010939	-0.029107	-62.053848	-68.072439	20.370270
49379	9.010179	-3.265409	1.634211	-0.009380	-0.023865	-0.029553	-62.069692	-68.094205	20.381718
49380	9.055707	-3.290393	1.580493	-0.010210	-0.018386	-0.031424	-62.086239	-68.114879	20.391996
49381	9.060415	-3.264593	1.603453	-0.010325	-0.022805	-0.025419	-62.104103	-68.134265	20.405034
49382	9.038191	-3.260977	1.626411	-0.007073	-0.024125	-0.021368	-62.132851	-68.151386	20.430396
49383	9.037475	-3.257404	1.575173	-0.008208	-0.025146	-0.021406	-62.155204	-68.169361	20.449574
49384	9.066106	-3.235105	1.597029	-0.008850	-0.019853	-0.013004	-62.185200	-68.181096	20.475186
49385	9.042488	-3.231709	1.596168	-0.003214	-0.016975	-0.008808	-62.202820	-68.190496	20.492343
49386	9.068667	-3.208937	1.570113	0.000459	-0.014171	0.005666	-62.232757	-68.191249	20.523639
49387	9.062532	-3.257331	1.543426	-0.003096	-0.001096	0.010245	-62.242919	-68.186747	20.532837
49388	8.992156	-3.253581	1.619320	0.002201	-0.004682	0.014214	-62.265502	-68.180635	20.557293
49389	9.086037	-3.262407	1.541455	-0.000217	-0.011108	0.018102	-62.291913	-68.174813	20.585771
49390	9.083069	-3.288083	1.540159	-0.002943	0.001021	0.012372	-62.308944	-68.168113	20.601076
49391	9.032671	-3.309031	1.565472	0.002952	-0.007820	0.005880	-62.321232	-68.167611	20.616299
49392	9.106982	-3.291949	1.538326	-0.000110	-0.004421	0.006008	-62.339284	-68.165588	20.634454
49393	9.062697	-3.264792	1.590097	0.000494	0.008580	0.002356	-62.329867	-68.162509	20.624777
49394	9.040719	-3.238385	1.592652	0.001593	0.007372	0.006419	-62.332260	-68.157144	20.627118
49395	9.036257	-3.288265	1.616082	0.001440	0.005255	0.004290	-62.327798	-68.153968	20.623363
49396	9.037677	-3.263721	1.592441	0.003029	-0.007895	0.009986	-62.351024	-68.150857	20.649040
49397	9.060838	-3.266107	1.566513	-0.005443	-0.003062	0.006069	-62.362210	-68.148989	20.657895
49398	9.060696	-3.266766	1.565963	-0.008734	-0.003971	0.006045	-62.384561	-68.146834	20.675374
49399	9.081357	-3.293256	1.539200	-0.007638	-0.002912	0.004025	-62.395458	-68.145963	20.682563
49400	9.056851	-3.291425	1.540165	-0.009144	0.007897	0.008519	-62.404636	-68.139405	20.685598
49401	9.083490	-3.270073	1.540220	-0.002080	0.002305	-0.001967	-62.401779	-68.140190	20.681398
49402	9.035055	-3.292158	1.614874	-0.009222	0.007972	0.004413	-62.408176	-68.135704	20.681391
49403	9.055654	-3.318612	1.588530	-0.001362	-0.007597	0.005896	-62.422638	-68.135123	20.696296
49404	9.087520	-3.248686	1.589743	-0.006123	0.006801	0.000256	-62.425963	-68.133058	20.694896
49405	9.060571	-3.270601	1.590271	-0.003023	0.003363	0.002180	-62.425049	-68.131457	20.692209
49406	9.057904	-3.295012	1.589745	-0.001927	0.004421	0.000161	-62.428888	-68.130076	20.693958
49407	9.055934	-3.293250	1.541651	0.000572	0.010772	0.000380	-62.415352	-68.127425	20.679889
49408	9.106784	-3.274200	1.541535	-0.002451	0.014134	0.002559	-62.408773	-68.122253	20.670092
49409	9.056312	-3.294469	1.568493	-0.001240	0.017347	0.000615	-62.388125	-68.117734	20.647239
49410	9.057946	-3.296074	1.618722	-0.002490	0.016440	-0.005578	-62.373267	-68.116084	20.628497
49411	9.055958	-3.294139	1.571226	0.001745	0.011754	0.002464	-62.359212	-68.112108	20.614591
49412	9.056694	-3.294974	1.596701	-0.000525	0.011981	-0.003686	-62.350094	-68.110683	20.603252
49413	9.055740	-3.293658	1.573489	-0.000448	0.014173	-0.005665	-62.328867	-68.110186	20.580262
49414	9.079966	-3.295683	1.573772	-0.000448	0.014173	-0.005666	-62.315605	-68.109182	20.564509
49415	9.082396	-3.270985	1.576240	0.003222	0.021506	-0.003363	-62.284547	-68.105558	20.533190
49416	9.056130	-3.293375	1.603185	0.002581	0.029065	-0.001048	-62.253811	-68.098242	20.500477
49417	9.055760	-3.292993	1.606061	0.010108	0.029823	-0.005145	-62.207166	-68.093287	20.456607
49418	9.052862	-3.289579	1.536014	0.011206	0.030882	-0.007169	-62.165146	-68.088571	20.417060
49419	9.077780	-3.319190	1.634836	0.002584	0.031332	-0.007147	-62.119618	-68.084201	20.369744
49420	9.077674	-3.290994	1.565539	0.014201	0.029824	-0.017489	-62.070348	-68.084973	20.324232
49421	9.102710	-3.265778	1.520689	0.003538	0.053062	-0.016699	-61.990595	-68.079563	20.240613
49422	9.027089	-3.334619	1.672236	0.011898	0.048343	-0.018933	-61.918412	-68.076043	20.168978
49423	9.100795	-3.287050	1.553763	0.016934	0.042751	-0.023245	-61.839596	-68.076643	20.094639
49424	9.100754	-3.311563	1.630853	0.008728	0.051852	-0.025008	-61.760750	-68.075168	20.013866
49425	9.050026	-3.300927	1.564397	0.023310	0.044795	-0.035536	-61.667416	-68.081335	19.927816
49426	9.127498	-3.255089	1.544760	0.018963	0.067841	-0.043031	-61.550446	-68.084491	19.812276
49427	8.967914	-3.191721	1.730769	0.018152	0.089240	-0.027987	-61.409529	-68.074566	19.671751
49428	8.963415	-3.238386	1.759954	0.011424	0.042025	-0.027456	-61.339734	-68.076806	19.602405
49429	9.031799	-3.264734	1.687148	0.008682	0.031399	-0.029859	-61.275279	-68.083576	19.538452
49430	9.029945	-3.285906	1.689001	0.004856	0.021976	-0.036335	-61.228098	-68.095743	19.489441
49431	9.078027	-3.285379	1.640501	0.011923	0.014161	-0.042753	-61.174361	-68.113700	19.439051
49432	9.101196	-3.307476	1.640669	0.009691	0.016640	-0.055035	-61.118040	-68.136692	19.383194
49433	9.149214	-3.304104	1.568257	0.015418	0.026245	-0.065042	-61.031581	-68.162437	19.299722
49434	9.081270	-3.266836	1.599481	0.023545	0.040017	-0.072875	-60.925395	-68.187810	19.198723
49435	9.106393	-3.287669	1.651609	0.030291	0.048493	-0.082947	-60.789634	-68.216189	19.071362
49436	9.130779	-3.278497	1.583610	0.039043	0.057040	-0.103338	-60.631295	-68.251840	18.923812
49437	9.137847	-3.219692	1.592708	0.051871	0.076970	-0.104873	-60.431232	-68.282860	18.740597
49438	9.161793	-3.235889	1.600808	0.053833	0.095235	-0.104437	-60.214842	-68.307859	18.539751
49439	9.270600	-3.109859	1.539885	0.075892	0.109565	-0.120626	-59.947885	-68.336854	18.299433
49440	9.221510	-3.119085	1.580491	0.051530	0.183889	-0.102292	-59.622910	-68.334549	17.980383
49441	8.993210	-3.239879	1.772140	0.064185	0.199439	-0.097950	-59.266801	-68.325189	17.636927
49442	9.238176	-3.468211	1.656802	0.087529	0.171646	-0.117410	-58.925334	-68.332509	17.322311
49443	9.337786	-3.167775	1.636078	0.155897	0.207753	-0.139356	-58.475639	-68.339299	16.934711
49444	9.268243	-3.123758	1.712520	0.098664	0.254439	-0.128600	-58.017512	-68.325385	16.501431
49445	9.076784	-3.072615	1.866150	0.116871	0.272887	-0.114089	-57.530426	-68.297712	16.049462
49446	8.934526	-3.269364	1.889843	0.094751	0.258521	-0.098343	-57.094739	-68.265349	15.637770
49447	8.884558	-2.986280	2.044353	0.165149	0.215831	-0.121818	-56.644803	-68.256619	15.255415
49448	8.952993	-2.735161	2.069623	0.074407	0.161000	-0.092467	-56.343925	-68.250105	14.976239
49449	8.964578	-2.580223	2.061314	0.025368	0.096952	-0.073119	-56.155322	-68.254486	14.788995
49450	9.154886	-2.634289	1.919636	-0.067370	0.076230	-0.099065	-56.031317	-68.277507	14.612825
49451	9.324733	-2.333135	1.464306	-0.125349	0.036120	-0.162485	-55.929112	-68.343501	14.425703
49452	9.597303	-1.950826	0.641836	-0.243757	0.050281	-0.228078	-55.831258	-68.435901	14.169119
49453	8.911183	-1.571828	-0.618863	-0.431204	0.008208	-0.252268	-55.862558	-68.553282	13.937375
49454	9.453086	-2.187361	-0.924024	-0.610268	-0.099154	-0.276704	-56.113982	-68.717116	13.830727
49455	10.014407	-2.275274	-0.758386	-0.763986	-0.048174	-0.280498	-56.380808	-68.866483	13.647568
49456	9.932307	-2.485976	-0.618278	-0.859876	0.026065	-0.313085	-56.592750	-69.008724	13.345470
49457	9.646167	-2.443816	-0.781259	-0.979736	0.067957	-0.358741	-56.773637	-69.159507	12.938333
49458	9.491706	-2.728755	-0.503151	-1.069713	0.066141	-0.383593	-56.995480	-69.324078	12.518766
49459	9.020109	-2.698283	0.283455	-1.119367	0.076422	-0.389076	-57.216881	-69.487890	12.070310
49460	9.284342	-2.814715	2.281923	-1.140260	0.110552	-0.365670	-57.433700	-69.631430	11.603059
49461	9.639059	-3.375170	3.582985	-1.066817	0.247573	-0.355879	-57.425826	-69.727311	10.943017
49462	8.892134	-3.704564	3.936860	-0.954036	0.409807	-0.307260	-57.189254	-69.750019	10.106826
49463	8.675773	-4.061350	4.243572	-0.749776	0.419533	-0.236329	-56.872895	-69.733219	9.311853
49464	8.242742	-4.263345	3.733238	-0.632924	0.445375	-0.099508	-56.583711	-69.642095	8.615584
49465	8.534285	-4.713688	3.415592	-0.407265	0.283703	-0.045093	-56.414143	-69.574326	8.185894
49466	8.472577	-3.384701	1.977267	-0.163207	0.205853	-0.069272	-56.194008	-69.542874	7.850014
49467	8.191072	-3.979234	0.835434	-0.106981	-0.001769	-0.022811	-56.238151	-69.554708	7.831869
49468	9.172393	-2.756923	0.465102	0.114508	-0.235009	-0.012516	-56.472150	-69.636154	8.150357
49469	9.805506	-2.140978	0.814932	0.214503	-0.138099	0.044909	-56.565506	-69.658750	8.381175
49470	9.732546	-2.040287	1.342361	0.229702	-0.018796	0.067856	-56.525083	-69.633219	8.477214
49471	9.490193	-1.786178	2.462122	0.332968	0.013425	0.089218	-56.393127	-69.586770	8.540128
49472	9.109928	-2.509837	3.018094	0.298079	0.125662	0.171255	-56.216582	-69.466251	8.532780
49473	8.638793	-5.924496	7.779173	0.400009	0.714209	0.407947	-55.440204	-69.043427	7.947820
49474	4.796865	-3.983106	4.448763	0.670146	-0.048701	0.493970	-55.540088	-68.826742	8.465244
49475	8.935492	-3.738117	2.677655	0.680363	-0.402806	0.255304	-55.855545	-68.836377	9.221715
49476	10.616387	-0.515907	1.566957	0.266041	-0.172927	0.087676	-55.995407	-68.850671	9.534136
49477	9.105971	-2.434868	2.156919	-0.403097	0.349918	0.296907	-56.043653	-68.597959	9.338223
49478	6.490531	-4.049675	3.391208	-0.164495	0.023133	0.236725	-56.309050	-68.478463	9.521135
49479	7.990652	-2.435457	3.176814	-0.070564	-0.701159	0.107125	-57.291310	-68.647491	10.533121
49480	10.861794	-3.079100	0.980482	-0.351800	-0.756110	0.200373	-58.598545	-68.780423	11.718837
49481	10.053062	-3.431239	0.341224	-0.160778	-0.149950	0.290483	-59.100856	-68.682831	12.159170
49482	9.397803	-3.308457	1.522263	-0.084564	-0.036617	0.250434	-59.390001	-68.570602	12.416677
49483	9.434456	-3.398584	1.435975	-0.049334	-0.018246	0.211384	-59.597531	-68.471962	12.609481
49484	9.515378	-3.554070	1.298333	-0.021405	0.067474	0.152914	-59.644658	-68.377170	12.645984
49485	9.326373	-3.399168	1.475140	0.034785	0.154581	0.089946	-59.498321	-68.288278	12.510129
49486	8.761626	-3.372128	1.982075	0.030701	0.159722	0.041868	-59.321047	-68.221412	12.337197
49487	9.049313	-3.084145	1.856730	0.058680	0.038340	0.028463	-59.261132	-68.196575	12.309042
49488	8.998918	-3.074281	1.791858	0.024476	0.108240	0.038538	-59.149455	-68.146200	12.202841
49489	8.846373	-3.113593	1.990120	0.027201	0.037202	0.049458	-59.124615	-68.111343	12.193031
49490	8.991238	-3.117859	1.896273	0.003697	0.016951	0.059485	-59.152269	-68.077444	12.224124
49491	8.963368	-3.142626	1.869744	-0.001433	-0.004402	0.058035	-59.200886	-68.050584	12.275813
49492	8.969265	-3.049092	1.855215	-0.013137	-0.026447	0.072824	-59.300551	-68.022804	12.374174
49493	9.099225	-3.252762	1.756877	-0.025205	-0.029901	0.084392	-59.412620	-67.990337	12.479626
49494	9.120312	-3.277645	1.678770	-0.007262	-0.014592	0.069577	-59.491558	-67.960578	12.559306
49495	9.123788	-3.211529	1.686988	-0.001924	0.011182	0.069163	-59.528772	-67.923582	12.598432
49496	9.043760	-3.268525	1.755490	-0.000335	0.023460	0.061566	-59.551346	-67.886686	12.621599
49497	9.045248	-3.225426	1.763687	0.009628	0.028786	0.056178	-59.551093	-67.850981	12.627444
49498	9.047037	-3.179250	1.748221	0.012983	0.031755	0.058594	-59.553745	-67.813142	12.637352
49499	9.017898	-3.209635	1.773012	0.010960	0.035796	0.064901	-59.550428	-67.771092	12.640715
49500	9.010520	-3.269558	1.819435	0.009886	0.036562	0.071085	-59.557848	-67.725691	12.653864
49501	8.985418	-3.249182	1.825439	0.012778	0.027211	0.062431	-59.562058	-67.687354	12.666489
49502	9.009091	-3.235230	1.854611	0.007749	0.010182	0.061226	-59.595344	-67.654470	12.706287
49503	9.026514	-3.303823	1.750153	0.002230	0.007317	0.058654	-59.626716	-67.623761	12.741755
49504	9.075538	-3.285743	1.730119	0.006975	0.016332	0.049009	-59.644260	-67.595117	12.764067
49505	9.051043	-3.266485	1.759098	0.005114	0.023129	0.045085	-59.645368	-67.566531	12.768600
49506	9.000220	-3.269005	1.785422	0.008320	0.022024	0.043133	-59.651127	-67.539146	12.779003
49507	9.026807	-3.226505	1.793753	0.010752	0.028384	0.043594	-59.641667	-67.509775	12.775596
49508	9.018500	-3.303117	1.788302	0.009751	0.031188	0.051960	-59.641791	-67.475376	12.780795
49509	9.066988	-3.287483	1.794727	0.015316	0.034405	0.048293	-59.625850	-67.441937	12.773200
49510	9.014373	-3.308449	1.771674	0.014885	0.048807	0.042757	-59.595680	-67.406980	12.748780
49511	8.991261	-3.267145	1.830394	0.016856	0.044401	0.042634	-59.563155	-67.373435	12.724172
49512	8.957984	-3.343825	1.850572	0.011506	0.045734	0.042359	-59.538423	-67.339558	12.703536
49513	9.034520	-3.296370	1.788045	0.020837	0.034380	0.025766	-59.503879	-67.317244	12.679201
49514	8.985932	-3.273057	1.818773	0.013542	0.041802	0.033967	-59.476898	-67.288642	12.657386
49515	8.983793	-3.278320	1.847008	0.017628	0.035492	0.027677	-59.444323	-67.265052	12.633183
49516	8.956156	-3.299827	1.823533	0.011229	0.037838	0.029462	-59.420290	-67.239819	12.613123
49517	8.980150	-3.285782	1.878462	0.015165	0.029019	0.029264	-59.397937	-67.217325	12.598467
49518	9.001293	-3.311751	1.854466	0.007467	0.026153	0.028646	-59.389256	-67.195897	12.592718
49519	8.951384	-3.309499	1.856435	0.008365	0.021071	0.022237	-59.375294	-67.179185	12.582935
49520	8.976204	-3.292328	1.885847	0.008325	0.020836	0.026359	-59.370761	-67.160434	12.582223
49521	8.973309	-3.315841	1.860790	0.007122	0.017777	0.024063	-59.362658	-67.143782	12.578021
49522	8.973177	-3.312289	1.813994	0.001698	0.017079	0.021622	-59.363010	-67.128461	12.578496
49523	8.997277	-3.300395	1.891262	0.007999	0.012575	0.019722	-59.357487	-67.115468	12.577639
49524	8.968139	-3.345474	1.862626	0.003759	0.014822	0.021635	-59.359277	-67.100801	12.580959
49525	8.972166	-3.295973	1.845158	0.005688	0.008608	0.015247	-59.356616	-67.091172	12.581772
49526	8.966631	-3.348286	1.864828	0.007846	0.008502	0.015373	-59.359081	-67.081436	12.588372
49527	8.948691	-3.272142	1.849742	0.009983	0.008280	0.017562	-59.355939	-67.070762	12.591334
49528	8.967391	-3.326835	1.869674	0.008855	0.007257	0.017442	-59.360670	-67.060369	12.601029
49529	8.989235	-3.351909	1.843992	0.006892	0.011669	0.017527	-59.355326	-67.048722	12.599677
49530	8.965366	-3.332286	1.896426	0.003844	0.015291	0.013370	-59.350740	-67.037988	12.596141
49531	8.965107	-3.330786	1.873588	0.012237	0.010327	0.017790	-59.344082	-67.026604	12.596688
49532	8.991440	-3.307353	1.853546	0.007866	0.008619	0.013301	-59.344876	-67.017850	12.601503
49533	8.965950	-3.308932	1.878848	0.002815	0.016422	0.013352	-59.333482	-67.006872	12.591042
49534	8.962586	-3.336926	1.901400	0.005511	0.004420	0.012957	-59.340235	-66.999517	12.600869
49535	8.986872	-3.337559	1.877989	-0.000864	0.006894	0.012677	-59.341552	-66.991656	12.601926
49536	8.959874	-3.360380	1.875520	0.003396	0.004758	0.008704	-59.346160	-66.986296	12.608113
49537	9.010738	-3.339008	1.855183	0.006617	0.005326	0.015133	-59.346696	-66.977682	12.612978
49538	8.936742	-3.335911	1.879562	0.003693	0.011218	0.009021	-59.343832	-66.970276	12.611236
49539	8.960635	-3.338821	1.880666	0.003418	0.004874	0.006641	-59.340888	-66.965980	12.610329
49540	8.963134	-3.312462	1.859471	0.002091	-0.000455	0.006312	-59.350584	-66.963318	12.621243
49541	8.960178	-3.339905	1.880923	-0.002224	-0.000240	0.006054	-59.356395	-66.960805	12.626337
49542	8.962313	-3.316203	1.883371	0.001816	-0.006799	0.003932	-59.371938	-66.961167	12.643440
49543	8.957808	-3.364804	1.877456	-0.006495	0.000207	0.001675	-59.376671	-66.960681	12.644702
49544	8.962332	-3.316563	1.882647	-0.004492	-0.003975	-0.002530	-59.388093	-66.963402	12.653405
49545	8.982776	-3.364456	1.852593	-0.004536	-0.004207	0.001591	-59.396765	-66.964245	12.660167
49546	8.960922	-3.337703	1.854641	-0.005433	-0.002381	-0.010785	-59.401193	-66.970572	12.660688
49547	8.983890	-3.360678	1.827333	-0.001360	-0.007134	-0.006620	-59.405811	-66.976317	12.665023
49548	8.986477	-3.335767	1.829759	0.001139	-0.000550	-0.010294	-59.404671	-66.981867	12.663589
49549	8.985722	-3.340319	1.878586	0.000406	0.007039	-0.009986	-59.389512	-66.985139	12.647536
49550	8.961602	-3.337282	1.878790	0.005510	0.001156	-0.005809	-59.386941	-66.987980	12.647273
49551	8.986514	-3.336236	1.855417	0.001589	0.009983	-0.005641	-59.370666	-66.988249	12.630744
49552	8.961745	-3.336259	1.879926	-0.000985	0.001362	-0.004134	-59.372703	-66.990203	12.631449
49553	8.961913	-3.335905	1.879755	-0.002311	-0.003967	-0.004464	-59.375667	-66.993963	12.633395
49554	8.989648	-3.308173	1.834144	0.001172	0.001255	-0.004005	-59.376652	-66.995884	12.634307
49555	8.987106	-3.334508	1.855658	-0.001040	-0.000559	-0.008363	-59.372250	-67.000571	12.629040
49556	8.987285	-3.333969	1.855758	-0.000887	0.003515	-0.004028	-59.371753	-67.001846	12.627064
49557	8.987363	-3.333600	1.856042	0.002300	0.002278	-0.003888	-59.365217	-67.003498	12.621559
49558	8.963176	-3.330853	1.856063	0.002322	0.002394	-0.005950	-59.362839	-67.006048	12.619541
49559	8.987093	-3.335264	1.881006	0.004579	0.004441	-0.005715	-59.351225	-67.007969	12.609939
49560	8.941342	-3.303331	1.859303	0.005389	-0.001112	-0.003855	-59.352579	-67.010510	12.613889
49561	8.989697	-3.309878	1.884093	0.002170	-0.001681	-0.010286	-59.346307	-67.016471	12.608590
49562	8.989837	-3.309468	1.884143	0.003264	0.000801	0.002308	-59.350872	-67.015417	12.614711
49563	8.990309	-3.306685	1.860209	0.005564	0.003079	-0.001581	-59.343119	-67.015697	12.609916
49564	8.987484	-3.333531	1.882213	0.003460	0.005107	0.002520	-59.342685	-67.013282	12.610733
49565	8.987793	-3.331040	1.858558	0.005596	0.004885	0.004710	-59.337149	-67.009934	12.608366
49566	8.962736	-3.331840	1.883038	0.003340	0.002839	0.004475	-59.340741	-67.007218	12.613487
49567	8.963572	-3.326810	1.834789	0.003219	0.000570	0.006431	-59.342764	-67.004282	12.617853
49568	8.991529	-3.284004	1.865167	0.004446	0.003746	0.006653	-59.346145	-67.000226	12.623436
49569	8.986883	-3.332744	1.859900	0.002113	-0.000338	0.004252	-59.348354	-66.998629	12.627315
49570	8.986772	-3.332829	1.860286	0.001446	0.007598	-0.001628	-59.343254	-66.997533	12.621824
49571	8.964560	-3.306315	1.863530	0.003581	0.007376	0.000562	-59.333128	-66.995501	12.613215
49572	8.962197	-3.330540	1.861345	0.003362	0.002954	0.002413	-59.335080	-66.993771	12.616582
49573	8.964291	-3.306529	1.864450	0.004391	0.001824	0.002424	-59.332217	-66.992443	12.616369
49574	8.988408	-3.309044	1.865197	0.002408	0.006122	0.004567	-59.332497	-66.988726	12.617329
49575	8.961649	-3.331300	1.862624	0.001182	0.002946	0.004345	-59.331494	-66.986124	12.617138
49576	8.987521	-3.312321	1.890170	0.000099	0.002153	0.000105	-59.334609	-66.985767	12.619746
49577	8.959673	-3.353182	1.836198	0.004445	0.003747	0.006652	-59.332393	-66.981794	12.620269
49578	8.985008	-3.336722	1.888370	0.001492	0.007829	-0.005753	-59.324074	-66.982664	12.611325
49579	8.987665	-3.309572	1.867837	0.003779	0.011683	0.000770	-59.308991	-66.979270	12.597453
49580	8.963091	-3.307278	1.868884	0.008193	0.013622	0.001131	-59.294830	-66.975053	12.586338
49581	8.962299	-3.309951	1.894405	0.005838	0.009422	0.000792	-59.281211	-66.972306	12.575338
49582	9.008980	-3.335998	1.869081	0.003756	0.011568	0.002829	-59.273121	-66.967854	12.568060
49583	8.957868	-3.355601	1.867105	0.007186	0.014867	-0.000945	-59.251232	-66.964366	12.548913
49584	8.986456	-3.309241	1.874229	0.005884	0.009652	-0.003332	-59.239883	-66.963507	12.539424
49585	8.959227	-3.333439	1.896852	0.007308	0.017136	-0.002905	-59.213956	-66.960314	12.515963
49586	8.961877	-3.306178	1.876636	0.003628	0.007606	-0.003567	-59.206084	-66.960168	12.508851
49587	8.983949	-3.332066	1.875226	0.012381	0.009447	-0.005007	-59.184703	-66.960260	12.493489
49588	8.983423	-3.334031	1.900623	0.006962	0.008752	-0.007446	-59.170894	-66.961686	12.482006
49589	8.983429	-3.333439	1.901632	0.003726	0.009759	-0.003466	-59.155174	-66.960925	12.467408
49590	8.960229	-3.325272	1.853805	0.006938	0.008637	-0.005385	-59.142906	-66.961367	12.457590
49591	9.011619	-3.302417	1.833863	0.005786	0.007499	-0.003440	-59.128639	-66.961255	12.445852
49592	8.986575	-3.302635	1.859015	0.007160	0.014754	0.001107	-59.113646	-66.956707	12.433213
49593	9.008328	-3.329113	1.858157	0.007135	0.014640	0.003168	-59.094926	-66.951243	12.417477
49594	8.984651	-3.308327	1.910698	0.008239	0.015549	0.005344	-59.081322	-66.944379	12.407021
49595	8.958311	-3.327696	1.884988	0.003973	0.015991	0.000959	-59.061343	-66.939598	12.387944
49596	8.960219	-3.303426	1.889357	0.008312	0.015892	-0.000844	-59.043007	-66.935672	12.372394
49597	8.982657	-3.326838	1.864443	0.007308	0.017136	-0.002921	-59.017124	-66.932455	12.348976
49598	8.934784	-3.303235	1.916876	0.007381	0.019176	-0.000760	-58.995585	-66.927514	12.329368
49599	8.933856	-3.305830	1.942829	0.002844	0.014968	0.000837	-58.977378	-66.923085	12.311512
49600	8.957911	-3.308020	1.944457	0.001644	0.011905	-0.001442	-58.967013	-66.920621	12.300481
49601	8.959511	-3.299981	1.872630	0.000367	0.008500	0.002465	-58.958814	-66.917300	12.291961
49602	8.982991	-3.305046	1.898089	0.001520	0.009638	0.000518	-58.952467	-66.914543	12.285225
49603	8.982739	-3.305189	1.899036	-0.002723	0.011890	0.002418	-58.942106	-66.910243	12.272431
49604	8.956608	-3.324553	1.872500	-0.000735	0.007591	0.000286	-58.939226	-66.908206	12.268063
49605	8.981629	-3.308250	1.924986	0.001566	0.011563	0.004741	-58.928402	-66.902861	12.257435
49606	8.931014	-3.325697	1.898312	-0.000617	0.011556	0.006671	-58.925299	-66.896519	12.252903
49607	8.932229	-3.304744	1.926159	-0.001817	0.008493	0.004393	-58.919711	-66.892252	12.245859
49608	8.978912	-3.331361	1.900436	-0.003096	0.005088	0.008300	-58.926571	-66.887022	12.250619
49609	8.954331	-3.329684	1.900327	0.000046	0.001926	0.004223	-58.927351	-66.884781	12.251659
49610	8.978404	-3.332347	1.901105	-0.000787	0.007363	0.004407	-58.927555	-66.880788	12.250624
49611	8.956147	-3.306047	1.904018	-0.000806	0.005551	-0.001878	-58.920429	-66.880468	12.242538
49612	8.983184	-3.281500	1.883334	-0.000859	0.005323	0.002246	-58.921499	-66.878140	12.242405
49613	8.950794	-3.357299	1.923775	0.000268	0.006347	0.002361	-58.915781	-66.875505	12.236518
49614	9.004837	-3.308526	1.882025	0.001245	0.004989	0.006500	-58.918955	-66.871189	12.239987
49615	8.976743	-3.336353	1.927913	0.001245	0.004989	0.006500	-58.917106	-66.866924	12.238916
49616	8.979283	-3.310094	1.906819	-0.003070	0.005203	0.006235	-58.922299	-66.862677	12.241896
49617	8.952485	-3.332393	1.904269	0.000367	0.008500	0.002460	-58.914124	-66.859355	12.233399
49618	8.978788	-3.310815	1.907898	-0.000985	0.003056	0.004206	-58.919160	-66.856739	12.237511
49619	8.976291	-3.335455	1.905625	0.001343	0.007142	0.006599	-58.914852	-66.851789	12.233826
49620	8.928997	-3.309807	1.932442	0.001298	0.005216	0.002376	-58.914810	-66.849433	12.233843
49621	8.978066	-3.311849	1.909503	0.003456	0.005109	0.002508	-58.908796	-66.847091	12.229620
49622	8.951428	-3.333825	1.906730	-0.002059	0.002261	-0.000033	-58.912376	-66.846791	12.231489
49623	8.954858	-3.304403	1.861112	0.000072	0.002040	0.002161	-58.911583	-66.845528	12.230835
49624	8.975556	-3.336322	1.907569	0.000198	0.004307	0.000199	-58.911665	-66.844511	12.230310
49625	8.975365	-3.336585	1.908008	0.004430	0.003751	0.006647	-58.909516	-66.840540	12.230896
49626	8.950812	-3.334539	1.908376	0.005838	0.009423	0.000778	-58.900880	-66.837726	12.224408
49627	8.951332	-3.331726	1.884936	0.003510	0.005337	-0.001615	-58.891726	-66.837338	12.216802
49628	8.977142	-3.312422	1.912849	0.002355	0.004200	0.000331	-58.890749	-66.836288	12.216476
49629	8.952792	-3.310038	1.912846	0.001254	0.003290	-0.001847	-58.885073	-66.836620	12.211248
49630	8.952117	-3.312616	1.937401	0.002256	0.002046	0.000231	-58.886530	-66.836258	12.213512
49631	8.952113	-3.312492	1.937631	0.003313	0.001029	-0.001813	-58.882291	-66.837242	12.211129
49632	8.999192	-3.338236	1.911749	0.000253	0.004535	-0.003925	-58.879137	-66.838182	12.207134
49633	8.953364	-3.306615	1.890245	0.009123	0.010339	0.001024	-58.862860	-66.835017	12.195279
49634	8.978941	-3.287630	1.918654	0.005656	0.006929	0.006860	-58.861316	-66.829959	12.196404
49635	8.952112	-3.309759	1.916509	0.003779	0.011684	0.000740	-58.846369	-66.826534	12.182665
49636	8.975485	-3.314891	1.942140	0.003526	0.007150	0.004665	-58.844249	-66.822488	12.181844
49637	8.949328	-3.334549	1.915303	0.000114	0.003967	0.006380	-58.844150	-66.818584	12.181971
49638	8.951308	-3.310857	1.918361	0.001171	0.002950	0.004336	-58.847936	-66.815945	12.186109
49639	8.951826	-3.308449	1.894314	0.001100	0.000910	0.002177	-58.847863	-66.815009	12.186879
49640	8.948904	-3.335378	1.915839	-0.001128	-0.001023	-0.000115	-58.854413	-66.815731	12.192595
49641	8.952693	-3.289658	1.945689	0.000226	0.004421	-0.001865	-58.848024	-66.815736	12.185950
49642	8.950403	-3.313952	1.943025	-0.005499	-0.001035	0.003741	-58.859733	-66.814571	12.194560
49643	8.950334	-3.314476	1.942451	-0.005824	-0.007609	0.005507	-58.875685	-66.814524	12.208446
49644	8.950321	-3.314984	1.941647	-0.004668	-0.006473	0.003561	-58.892992	-66.815055	12.223669
49645	8.952517	-3.291367	1.943611	-0.010039	-0.005240	0.005338	-58.908528	-66.814387	12.234477
49646	8.946562	-3.361694	1.909865	-0.007321	-0.017133	0.002934	-58.939110	-66.818375	12.262492
49647	8.975417	-3.316227	1.914350	-0.013324	-0.006155	0.005089	-58.957405	-66.818096	12.274253
49648	8.948340	-3.341240	1.934152	-0.006165	-0.015996	0.000986	-58.984671	-66.822695	12.299385
49649	8.954221	-3.288178	1.889498	-0.013677	-0.012843	0.008911	-59.013477	-66.822509	12.322360
49650	8.971236	-3.366302	1.904435	-0.010282	-0.011472	0.000916	-59.037854	-66.825800	12.341787
49651	8.950586	-3.334991	1.856722	-0.008405	-0.016230	0.007030	-59.066236	-66.827527	12.367585
49652	9.000837	-3.318823	1.883028	-0.007051	-0.010786	0.005284	-59.090975	-66.828463	12.389423
49653	8.978164	-3.295649	1.908506	-0.002736	-0.011002	0.005548	-59.109092	-66.829372	12.407588
49654	8.948649	-3.345141	1.925964	-0.007934	-0.005576	0.009588	-59.131289	-66.826656	12.426112
49655	8.976304	-3.318769	1.879787	-0.003693	-0.007832	0.007691	-59.147782	-66.825574	12.441915
49656	8.951143	-3.320158	1.902997	-0.008890	-0.002406	0.011731	-59.168325	-66.820868	12.458050
49657	8.950308	-3.323754	1.926656	-0.002538	-0.006695	0.005746	-59.181511	-66.820406	12.470976
49658	8.975830	-3.321305	1.877568	-0.003893	-0.012139	0.007488	-59.207436	-66.820640	12.496087
49659	8.949099	-3.344092	1.873606	-0.003546	-0.003754	0.012010	-59.222106	-66.816229	12.509999
49660	8.949824	-3.326449	1.924249	0.001597	-0.009410	0.012088	-59.244875	-66.813394	12.535095
49661	8.975123	-3.324431	1.875418	-0.001489	-0.006016	0.012040	-59.260976	-66.809626	12.551847
49662	8.996235	-3.354699	1.896793	0.001798	-0.005103	0.012288	-59.278780	-66.805426	12.571680
49663	8.947876	-3.348429	1.871701	0.002100	0.001357	0.012590	-59.284716	-66.799227	12.579610
49664	8.973351	-3.330465	1.899260	0.005259	0.000002	0.014796	-59.296352	-66.792294	12.594893
49665	8.972893	-3.331709	1.899241	0.001871	-0.003064	0.014446	-59.308754	-66.786473	12.609716
49666	8.997328	-3.332704	1.875265	0.000918	0.000107	0.016589	-59.323940	-66.778625	12.626156
49667	8.944677	-3.358985	1.920309	-0.001213	0.000331	0.014397	-59.334162	-66.771832	12.636686
49668	8.944920	-3.357263	1.896119	0.006366	-0.000788	0.008631	-59.341800	-66.768166	12.648315
49669	8.991563	-3.384079	1.870024	0.002153	0.001586	0.008468	-59.344609	-66.763928	12.652878
49670	8.970931	-3.336764	1.899633	0.002179	0.001700	0.006409	-59.350258	-66.760629	12.659738
49671	8.968463	-3.361357	1.896952	0.000975	-0.001360	0.004133	-59.354173	-66.759388	12.664769
49672	8.993253	-3.361358	1.873071	0.001077	0.000793	0.004233	-59.359994	-66.757426	12.671129
49673	8.968752	-3.359270	1.873209	0.004695	0.008278	0.002725	-59.349756	-66.754064	12.663078
49674	8.967302	-3.364649	1.922666	0.003721	0.009639	-0.001408	-59.340062	-66.752300	12.654207
49675	8.945122	-3.338031	1.926055	0.005851	0.009414	0.000781	-59.326541	-66.749563	12.643304
49676	8.970406	-3.335231	1.878808	0.003512	0.007029	0.006724	-59.325470	-66.744552	12.643688
49677	8.947452	-3.311782	1.906289	0.003667	0.009411	0.002707	-59.314521	-66.740865	12.634221
49678	8.968548	-3.341135	1.929176	0.005825	0.009300	0.002839	-59.306860	-66.737107	12.628886
49679	8.942291	-3.360491	1.902787	0.003640	0.009297	0.004764	-59.297462	-66.732439	12.621091
49680	8.946553	-3.312537	1.909191	0.004668	0.008165	0.004780	-59.293068	-66.728056	12.618596
49681	8.966080	-3.363335	1.904697	0.004416	0.001932	0.000364	-59.288671	-66.727710	12.616728
49682	8.991890	-3.344299	1.932594	0.001408	0.007368	0.002473	-59.285467	-66.724697	12.613481
49683	8.969297	-3.333942	1.860441	0.008111	0.011457	0.001010	-59.268489	-66.721245	12.600221
49684	8.992630	-3.339108	1.886376	0.008056	0.011229	0.005126	-59.258847	-66.715797	12.594131
49685	8.965609	-3.361220	1.884722	0.008260	0.015536	0.005323	-59.240061	-66.709024	12.578996
49686	8.940207	-3.361895	1.910090	0.003844	0.013604	0.004957	-59.229997	-66.702963	12.569819
49687	8.942109	-3.338071	1.914100	0.009083	0.010097	0.005140	-59.216848	-66.697871	12.561333
49688	8.939423	-3.362432	1.912810	0.008288	0.015650	0.003260	-59.200734	-66.692043	12.548335
49689	8.918808	-3.314507	1.943187	0.002361	0.004196	0.000329	-59.194910	-66.691049	12.543629
49690	8.963379	-3.364754	1.914876	0.001464	0.007595	-0.001648	-59.188546	-66.689999	12.537002
49691	8.938490	-3.364611	1.939175	0.001243	0.001474	-0.008118	-59.180717	-66.693959	12.529416
49692	8.938702	-3.363873	1.939480	0.000317	0.004760	-0.008037	-59.173874	-66.696883	12.521548
49693	8.964573	-3.360036	1.891752	0.002401	0.002609	-0.010061	-59.162755	-66.701465	12.511103
49694	8.966436	-3.337620	1.919250	0.002605	0.006916	-0.009866	-59.150868	-66.704653	12.499188
49695	8.968887	-3.312530	1.922848	0.003836	0.010091	-0.009653	-59.130649	-66.706834	12.479732
49696	8.917490	-3.333635	1.944580	0.003864	0.010205	-0.011713	-59.112992	-66.709962	12.462319
49697	8.920058	-3.308473	1.947726	-0.002116	-0.001478	-0.010525	-59.108796	-66.715971	12.456594
49698	8.918282	-3.331589	1.944454	-0.009862	-0.006250	-0.015354	-59.115281	-66.725727	12.456911
49699	8.943336	-3.332627	1.943629	-0.008081	-0.014860	-0.017674	-59.124915	-66.739187	12.462523
49700	8.920684	-3.325943	1.917317	-0.012311	-0.014301	-0.024121	-59.136004	-66.755621	12.466313
49701	8.946127	-3.326262	1.915882	-0.013513	-0.017362	-0.026399	-59.145663	-66.774107	12.468563
49702	8.949607	-3.299995	1.916585	-0.012484	-0.018493	-0.026387	-59.160106	-66.792887	12.475913
49703	9.000838	-3.281431	1.942553	-0.014452	-0.012379	-0.017988	-59.170368	-66.805771	12.478233
49704	8.946908	-3.345513	1.907472	-0.014735	-0.017028	-0.012010	-59.194271	-66.817048	12.494487
49705	8.950553	-3.317971	1.883651	-0.018249	-0.022362	-0.010401	-59.223409	-66.829125	12.514973
49706	8.999931	-3.321955	1.881839	-0.012906	-0.023710	-0.010124	-59.255273	-66.841427	12.541003
49707	8.996091	-3.369616	1.874359	-0.012307	-0.010789	-0.009524	-59.268327	-66.849675	12.547695
49708	8.998755	-3.344802	1.876283	-0.004307	-0.001478	-0.008607	-59.270714	-66.854716	12.547036
49709	8.977652	-3.314857	1.854236	-0.004181	0.000790	-0.010568	-59.265061	-66.860088	12.538446
49710	8.952420	-3.317112	1.902301	-0.004181	0.000790	-0.010568	-59.263403	-66.865433	12.533482
49711	8.930059	-3.292619	1.928671	-0.007593	-0.002393	-0.008859	-59.264541	-66.870895	12.530151
49712	8.949601	-3.345448	1.947042	-0.005787	-0.009191	-0.004908	-59.279168	-66.876376	12.541874
49713	8.981325	-3.288057	1.854753	-0.006961	-0.012137	-0.009248	-59.290922	-66.884882	12.550481
49714	8.976624	-3.338572	1.872510	-0.005589	-0.004884	-0.004707	-59.300596	-66.889003	12.556947
49715	8.977509	-3.335258	1.848072	-0.002955	0.003967	-0.010351	-59.290714	-66.893340	12.544525
49716	8.976527	-3.339967	1.896594	0.001010	-0.002939	-0.006269	-59.293282	-66.897662	12.547386
49717	9.002378	-3.335949	1.848568	0.003543	0.003759	-0.012015	-59.278769	-66.902879	12.533978
49718	8.976540	-3.340680	1.921352	0.002415	0.002737	-0.012133	-59.269938	-66.908428	12.525362
49719	8.955499	-3.310291	1.899689	0.003372	-0.000432	-0.014281	-59.258797	-66.915986	12.515515
49720	8.978026	-3.335573	1.897231	0.001063	-0.002709	-0.010393	-59.258197	-66.922272	12.514976
49721	8.956499	-3.307839	1.899243	-0.002215	-0.005318	-0.018991	-59.252657	-66.933580	12.507739
49722	8.957141	-3.306464	1.898613	-0.003422	-0.006686	-0.012924	-59.257466	-66.942278	12.510271
49723	8.955510	-3.329509	1.895070	-0.001363	-0.008946	-0.012894	-59.259828	-66.951646	12.512152
49724	8.983326	-3.303698	1.872780	-0.006975	-0.013948	-0.015543	-59.273264	-66.963758	12.521911
49725	8.954803	-3.351114	1.889729	-0.005822	-0.012809	-0.017490	-59.279501	-66.976521	12.525226
49726	8.982809	-3.324937	1.867099	-0.007021	-0.015871	-0.019774	-59.292286	-66.991281	12.534132
49727	8.961174	-3.299242	1.892132	-0.006919	-0.015409	-0.028028	-59.294919	-67.009995	12.532849
49728	8.985112	-3.320597	1.863742	-0.003854	-0.018913	-0.025925	-59.305187	-67.028674	12.541032
49729	8.984092	-3.342513	1.859375	-0.004691	-0.013476	-0.025739	-59.305883	-67.045695	12.539031
49730	8.939256	-3.295491	1.935539	-0.001549	-0.016633	-0.029826	-59.309492	-67.065627	12.541468
49731	8.964055	-3.313614	1.882487	-0.008454	-0.026854	-0.034871	-59.321621	-67.091059	12.549540
49732	8.965251	-3.313026	1.904143	-0.010418	-0.024132	-0.043164	-59.329832	-67.119752	12.551530
49733	8.943570	-3.304203	1.876611	-0.008690	-0.034770	-0.047693	-59.342506	-67.153816	12.560044
49734	8.994624	-3.304100	1.873535	-0.011039	-0.040662	-0.056415	-59.361244	-67.193868	12.572946
49735	8.997731	-3.296610	1.845355	-0.014158	-0.037392	-0.054411	-59.375535	-67.232007	12.579810
49736	8.980101	-3.241443	1.846947	-0.006560	-0.036672	-0.053921	-59.388838	-67.269663	12.589648
49737	9.085178	-3.189505	1.777993	-0.005054	-0.023657	-0.036655	-59.394165	-67.295038	12.592447
49738	9.009098	-3.215894	1.870143	-0.005264	0.000110	-0.016909	-59.389197	-67.303716	12.583385
49739	8.954197	-3.285687	1.884946	-0.003544	-0.008955	-0.011005	-59.394220	-67.312154	12.586791
49740	9.006494	-3.259388	1.838832	-0.005702	-0.008854	-0.011137	-59.404085	-67.320607	12.593341
49741	8.957382	-3.259744	1.885609	-0.009078	-0.011932	-0.011493	-59.415462	-67.330153	12.600197
49742	9.009263	-3.236406	1.862791	-0.011743	-0.022832	-0.008025	-59.447468	-67.341136	12.627195
49743	8.987594	-3.209827	1.863066	-0.014792	-0.017531	-0.003821	-59.474116	-67.348524	12.647049
49744	8.957094	-3.283044	1.875767	-0.016700	-0.036018	-0.000670	-59.529703	-67.359703	12.696354
49745	9.009020	-3.260561	1.851082	-0.020903	-0.033545	-0.002895	-59.579516	-67.371270	12.737510
49746	8.984985	-3.261314	1.871156	-0.020056	-0.038978	-0.003109	-59.638933	-67.384474	12.788967
49747	9.029217	-3.332411	1.810558	-0.020016	-0.038742	-0.007252	-59.691484	-67.399669	12.833633
49748	9.032549	-3.307091	1.809250	-0.016646	-0.038908	-0.025725	-59.733297	-67.424004	12.868282
49749	9.009793	-3.302756	1.805277	-0.013139	-0.033439	-0.029401	-59.760346	-67.448605	12.889583
49750	9.039858	-3.253909	1.807899	-0.007568	-0.030223	-0.033058	-59.781614	-67.474057	12.907301
49751	9.041363	-3.251275	1.805110	-0.010614	-0.024926	-0.028846	-59.797525	-67.495924	12.918104
49752	9.018457	-3.246552	1.802555	-0.005045	-0.021708	-0.032502	-59.807616	-67.518641	12.925469
49753	8.995262	-3.244238	1.824281	-0.007349	-0.025677	-0.036998	-59.816921	-67.544759	12.931144
49754	9.019689	-3.264310	1.794889	-0.008348	-0.024313	-0.041153	-59.826018	-67.572510	12.935520
49755	9.023129	-3.239181	1.819634	-0.006064	-0.022020	-0.045062	-59.824593	-67.601569	12.930382
49756	8.998640	-3.257405	1.814354	-0.002979	-0.025515	-0.042982	-59.830769	-67.630573	12.934821
49757	9.024424	-3.258358	1.836545	-0.004943	-0.020991	-0.044965	-59.827521	-67.659288	12.928410
49758	8.984033	-3.174999	1.818288	-0.001839	-0.024366	-0.044956	-59.830282	-67.688944	12.929679
49759	9.038300	-3.127435	1.821906	-0.000936	-0.026443	-0.028395	-59.842948	-67.711020	12.942951
49760	9.031369	-3.222280	1.808728	-0.005873	-0.013040	-0.013481	-59.856418	-67.721823	12.953413
49761	9.011245	-3.173768	1.837128	-0.000552	-0.014595	-0.009082	-59.868136	-67.730919	12.965896
49762	9.016163	-3.119794	1.793323	-0.001363	-0.005812	0.007935	-59.885298	-67.729026	12.983219
49763	9.056513	-3.221750	1.781952	-0.005495	0.000244	0.018379	-59.901169	-67.720243	12.997130
49764	9.037051	-3.152226	1.814313	-0.001345	-0.002698	0.028868	-59.929158	-67.707084	13.025917
49765	9.031064	-3.219464	1.733111	-0.005388	0.005512	0.039419	-59.953284	-67.686351	13.048819
49766	9.059019	-3.158789	1.791098	0.004631	0.014049	0.052910	-59.974369	-67.656458	13.074074
49767	9.028371	-3.210402	1.787354	-0.000192	0.029728	0.065848	-59.984637	-67.615666	13.085219
49768	9.002958	-3.193237	1.816822	0.006036	0.024651	0.074250	-60.006803	-67.572144	13.112573
49769	9.053645	-3.148330	1.752920	0.005269	0.035236	0.097521	-60.029154	-67.514053	13.140188
49770	9.045315	-3.206417	1.751156	0.008819	0.045624	0.121010	-60.056634	-67.441322	13.174781
49771	9.018890	-3.175846	1.834312	0.015612	0.055141	0.138394	-60.077089	-67.357237	13.206790
49772	9.007054	-3.258745	1.807308	0.015684	0.060305	0.161323	-60.110311	-67.260286	13.251900
49773	9.103743	-3.495420	1.740132	0.017548	0.052187	0.150564	-60.140949	-67.170985	13.296199
49774	9.098459	-3.224532	1.852846	0.050579	0.063991	0.144782	-60.138129	-67.081190	13.323862
49775	9.384163	-3.287073	1.614493	0.054959	0.049310	0.189685	-60.176528	-66.973258	13.399932
49776	9.502928	-3.274928	1.460073	0.070982	0.145926	0.246579	-60.134220	-66.809522	13.397310
49777	9.271593	-3.246133	1.846669	0.091797	0.160531	0.295539	-60.092495	-66.617275	13.409309
49778	9.346851	-3.144626	1.734761	0.078522	0.185718	0.340539	-60.062797	-66.395536	13.425207
49779	9.274250	-2.700916	2.370015	0.018619	0.178899	0.440538	-60.136295	-66.126024	13.517316
49780	8.626472	-3.852853	1.851477	-0.012602	0.168615	0.558012	-60.314854	-65.801022	13.704089
49781	9.691108	-3.012240	1.844839	0.076252	-0.009775	0.599959	-60.656287	-65.505032	14.126969
49782	9.523722	-3.465879	1.737711	0.049157	0.260572	0.751998	-60.806122	-65.056669	14.322177
49783	9.174144	-3.228081	2.419210	-0.035536	0.158612	0.833208	-61.150279	-64.595523	14.680117
49784	9.686515	-4.041678	2.081861	-0.074659	0.221363	0.961181	-61.514205	-64.051958	15.035860
49785	10.261358	-3.943351	2.174630	-0.027025	0.232999	1.061222	-61.876129	-63.453711	15.422287
49786	11.719739	-3.892977	2.311373	-0.112575	0.271974	1.201807	-62.307626	-62.772761	15.833161
49787	10.346934	-3.912506	2.245023	-0.212344	0.445533	1.466667	-62.737090	-61.909825	16.180828
49788	10.515296	-4.406368	2.157203	-0.236906	0.383814	1.601362	-63.280782	-60.992996	16.644584
49789	10.495372	-4.474267	2.431818	-0.217589	0.513736	1.656271	-63.688857	-60.012817	16.970352
49790	10.296484	-3.927586	2.454432	-0.236645	0.544580	1.799441	-64.120960	-58.950257	17.313819
49791	9.459806	-4.461540	2.179350	-0.298321	0.533170	1.987121	-64.643999	-57.791939	17.727506
49792	9.442136	-4.740935	2.087622	-0.210804	0.429728	2.098546	-65.211621	-56.599166	18.258307
49793	10.296581	-5.044829	2.520235	-0.159758	0.474105	2.111393	-65.682105	-55.386315	18.715590
49794	10.839425	-6.509942	2.438576	-0.187892	0.586662	2.123985	-66.061895	-54.138985	19.047878
49795	8.104576	-5.382961	2.366994	-0.153956	0.605951	2.231921	-66.416920	-52.829075	19.380025
49796	7.176063	-5.355232	1.510657	-0.174039	0.334799	2.251586	-66.949884	-51.569147	19.927327
49797	6.511053	-5.446729	1.362955	-0.182422	0.191652	2.262166	-67.547554	-50.331766	20.562484
49798	6.818055	-3.608811	1.410358	0.089814	-0.254547	2.039538	-68.179530	-49.304938	21.455886
49799	7.617724	-0.615865	0.717106	0.081699	-0.588503	1.771574	-68.917914	-48.483873	22.498112
49800	9.042491	-1.370026	0.721700	-0.033424	-0.677612	1.610080	-69.707640	-47.758837	23.531786
49801	12.216855	-3.296952	0.839743	0.111285	-0.906623	0.882427	-70.367926	-47.461325	24.512307
49802	14.397105	0.276696	1.502304	0.270301	-0.895124	-0.088322	-70.725665	-47.681097	25.205370
49803	13.890062	0.048064	1.456545	-0.036241	-0.367000	-0.627757	-70.835148	-48.090317	25.325169
49804	11.388768	-0.042887	1.618820	-0.025112	-0.037447	-1.037559	-70.653547	-48.660606	25.061466
49805	9.002515	-0.204998	1.083802	-0.141591	0.240453	-1.182998	-70.325548	-49.253857	24.519224
49806	6.720887	-0.466519	0.802166	-0.201154	0.228405	-1.209434	-70.022274	-49.863872	23.967800
49807	5.952089	-0.659640	0.680726	-0.214840	-0.036510	-1.214423	-69.882785	-50.525070	23.626192
49808	6.516331	-0.701196	0.805889	-0.239897	-0.288884	-1.187433	-69.925563	-51.223662	23.502648
49809	7.522299	-0.881688	0.958766	-0.263931	-0.440999	-1.195424	-70.080922	-51.954074	23.508118
49810	8.515879	-1.014299	1.169850	-0.274551	-0.484986	-1.244559	-70.265140	-52.722197	23.540591
49811	8.985444	-1.225560	1.270454	-0.287174	-0.414429	-1.307504	-70.391673	-53.507923	23.493260
49812	8.950288	-1.335465	1.300519	-0.296547	-0.306264	-1.352262	-70.433619	-54.300082	23.333364
49813	8.792861	-1.518694	1.245938	-0.312603	-0.234155	-1.353903	-70.424456	-55.076306	23.102830
49814	8.672888	-1.761640	1.313101	-0.328518	-0.196678	-1.334118	-70.396059	-55.837901	22.838310
49815	8.804957	-2.049302	1.314941	-0.334404	-0.184475	-1.306770	-70.360852	-56.579013	22.565584
49816	9.050164	-2.323943	1.371655	-0.333568	-0.172435	-1.291923	-70.313562	-57.313204	22.279613
49817	9.321665	-2.620395	1.399938	-0.315671	-0.139803	-1.278190	-70.223015	-58.029968	21.958594
49818	9.522133	-2.922958	1.474475	-0.289200	-0.074978	-1.271262	-70.053645	-58.733699	21.563604
49819	9.713697	-3.188851	1.534177	-0.251623	0.004113	-1.254478	-69.782371	-59.408330	21.079475
49820	9.909845	-3.458405	1.649913	-0.198330	0.089401	-1.255113	-69.384895	-60.068652	20.486244
49821	10.068327	-3.810001	1.758307	-0.129755	0.158163	-1.284857	-68.848488	-60.724543	19.783984
49822	10.145883	-4.113329	1.902399	-0.057719	0.211878	-1.329526	-68.173544	-61.393233	18.973501
49823	10.059129	-4.415208	1.994429	0.018389	0.212818	-1.379978	-67.397153	-62.079509	18.104169
49824	9.936927	-4.704919	2.086021	0.092980	0.153127	-1.425351	-66.578045	-62.801279	17.238954
49825	9.798117	-5.029328	2.115968	0.150154	0.041831	-1.452279	-65.784202	-63.553222	16.445994
49826	9.722597	-5.208004	2.112121	0.208824	-0.127152	-1.473342	-65.082419	-64.355604	15.796766
49827	9.721991	-5.290433	2.064191	0.230087	-0.274250	-1.497071	-64.476606	-65.198946	15.273013
49828	9.677359	-5.402503	1.923899	0.244131	-0.412724	-1.511673	-63.975561	-66.085972	14.875313
49829	9.717948	-5.475492	1.929217	0.229051	-0.525616	-1.511443	-63.585392	-66.996306	14.593226
49830	10.117465	-5.720698	2.026172	0.213402	-0.601998	-1.521797	-63.266914	-67.934526	14.379588
49831	10.363133	-5.899382	2.171658	0.195332	-0.620326	-1.541276	-62.946810	-68.883267	14.155862
49832	10.497664	-6.092203	2.360742	0.186699	-0.615943	-1.582051	-62.571713	-69.854653	13.868201
49833	10.526674	-6.191593	2.517129	0.190793	-0.571173	-1.634488	-62.055674	-70.836375	13.436493
49834	10.366988	-6.345554	2.626448	0.195698	-0.515072	-1.680523	-61.362528	-71.827818	12.822140
49835	10.068142	-6.455227	2.606566	0.196548	-0.486719	-1.717150	-60.515320	-72.823683	12.051344
49836	9.576344	-6.386245	2.480052	0.214899	-0.460805	-1.721050	-59.511140	-73.813183	11.130638
49837	9.028496	-6.228777	2.279992	0.217581	-0.446999	-1.690251	-58.390631	-74.775406	10.096369
49838	8.549539	-6.125204	2.127834	0.218217	-0.441692	-1.613703	-57.209172	-75.695782	9.003040
49839	8.173906	-5.886149	1.921106	0.211368	-0.444797	-1.509289	-56.023228	-76.558531	7.906396
49840	7.767294	-5.401306	1.727607	0.196629	-0.446738	-1.391785	-54.868436	-77.363286	6.835958
49841	7.465796	-4.935837	1.576095	0.157713	-0.450963	-1.268256	-53.794872	-78.104722	5.829963
49842	7.608580	-4.885280	1.536768	0.105579	-0.478449	-1.129739	-52.921453	-78.790226	4.999583
49843	7.915024	-4.845694	1.455279	0.075477	-0.456514	-1.022842	-52.103847	-79.414853	4.211166
49844	8.120423	-4.779671	1.459191	0.073231	-0.405296	-0.946254	-51.214813	-79.986407	3.349657
49845	8.227652	-4.575034	1.443262	0.093047	-0.326436	-0.874640	-50.157066	-80.493055	2.330632
49846	8.065815	-4.320593	1.341613	0.118966	-0.255117	-0.794824	-48.964574	-80.936496	1.190901
49847	7.822354	-3.951367	1.168905	0.153937	-0.216244	-0.703289	-47.754254	-81.320391	0.055352
49848	7.695320	-3.733730	1.069362	0.190561	-0.219106	-0.615407	-46.662100	-81.666235	-0.938955
49849	7.632115	-3.681900	0.919868	0.237834	-0.273189	-0.543837	-45.811697	-81.999956	-1.660250
49850	7.633795	-3.579143	0.790852	0.299605	-0.355349	-0.490146	-45.269865	-82.344629	-2.034242
49851	7.593195	-3.495194	0.733598	0.370129	-0.462621	-0.457194	-45.083239	-82.717689	-2.008431
49852	7.509881	-3.448239	0.696956	0.439591	-0.568580	-0.427320	-45.308372	-83.122432	-1.528050
49853	7.476261	-3.398893	0.674871	0.506123	-0.661551	-0.378136	-46.043041	-83.542700	-0.496273
49854	7.459233	-3.197584	0.610691	0.542097	-0.723997	-0.313259	-47.373417	-83.959094	1.154278
49855	7.692885	-3.266071	0.608555	0.537014	-0.751081	-0.238271	-49.320021	-84.347598	3.420492
49856	8.053290	-3.575151	0.690834	0.519891	-0.713540	-0.169536	-51.675074	-84.683724	6.085442
49857	8.185084	-3.666894	0.678514	0.488233	-0.611453	-0.109848	-54.055165	-84.945875	8.756339
49858	8.128483	-3.694825	0.682498	0.427933	-0.493450	-0.068934	-56.239216	-85.140620	11.194600
49859	7.982416	-3.711215	0.635664	0.324602	-0.356533	-0.017358	-58.033578	-85.260245	13.182061
49860	7.832676	-3.653252	0.527114	0.189464	-0.215515	0.060427	-59.436862	-85.295153	14.699034
49861	8.676833	-3.690535	0.449531	0.045181	-0.072144	0.146507	-60.353125	-85.243663	15.644554
49862	19.166074	-3.613824	0.915805	0.571550	0.231249	0.728514	-61.062126	-84.814932	16.684984
49863	6.476657	2.206198	-2.673885	-0.613373	2.476505	1.014910	-52.844086	-83.550571	8.071965
49864	8.225986	2.466805	-2.037845	0.386576	0.726009	0.927464	-52.560459	-82.876226	8.009356
49865	10.896041	-0.068261	-1.799867	-0.453879	1.641934	1.049323	-50.146396	-81.819269	5.311478
49866	5.915196	0.233948	0.586115	-0.603787	1.499481	1.179909	-49.090308	-80.748392	3.892926
49867	7.399460	-0.122371	0.367890	-0.808486	0.749109	1.312032	-50.478035	-79.897611	4.830884
49868	9.444792	-1.821378	0.896120	-0.998765	0.815837	1.443170	-51.884316	-78.961154	5.679015
49869	11.857092	-2.889670	3.528045	-0.936453	0.776334	1.433566	-53.143138	-78.039093	6.416201
49870	12.239193	-3.364129	4.008640	-0.553131	1.251731	1.400092	-53.052433	-76.967683	5.998426
49871	8.712554	-2.573462	5.638791	-0.396530	1.320441	1.436954	-52.834450	-75.855141	5.540596
49872	7.884504	-3.113977	4.392796	-0.255170	0.582977	1.497413	-53.922148	-74.967776	6.513231
49873	9.918794	-3.134799	3.018774	0.008594	0.425448	1.613831	-55.138007	-74.073620	7.780075
49874	9.453257	-2.339271	1.362828	-0.046617	0.400036	1.645458	-56.330396	-73.165661	8.994891
49875	13.381247	-3.623264	3.032650	-0.169608	0.176053	1.474180	-57.640038	-72.402800	10.264346
49876	16.693117	-6.428320	1.097672	-0.192416	0.512596	1.305387	-58.210726	-71.613292	10.748293
49877	9.763240	-5.505037	2.052086	-0.090495	1.130479	0.745950	-57.319715	-70.906659	9.752828
49878	7.667912	-3.008280	3.444247	0.077158	0.306673	0.428389	-57.236050	-70.605310	9.710851
49879	9.762178	-3.362383	1.357432	-0.023111	0.046395	0.307804	-57.455203	-70.442886	9.929417
49880	8.966608	-2.770787	2.155214	0.020352	0.188294	0.273779	-57.429048	-70.252678	9.913871
49881	9.345882	-2.860941	1.593566	-0.034127	0.044685	0.233985	-57.588685	-70.126248	10.062925
49882	8.992323	-2.945380	2.009045	-0.048659	0.133940	0.246459	-57.650001	-69.965951	10.098343
49883	8.855981	-3.121071	1.920071	-0.021010	0.000527	0.191443	-57.821638	-69.873439	10.268429
49884	9.321746	-2.999953	1.644009	-0.010574	-0.021087	0.152595	-57.985683	-69.805818	10.436584
49885	9.248653	-2.907481	1.608967	-0.001204	0.058500	0.138652	-58.023564	-69.721085	10.476381
49886	8.954590	-2.807197	1.993662	-0.000824	0.030389	0.155967	-58.115319	-69.636064	10.573572
49887	9.309001	-3.005349	1.557433	-0.005682	0.007216	0.147878	-58.229396	-69.562296	10.691968
49888	9.209647	-2.938278	1.742170	0.002297	0.067859	0.143305	-58.258777	-69.472043	10.724586
49889	9.102280	-3.042187	1.735307	0.005180	0.050763	0.121318	-58.287422	-69.398026	10.758511
49890	9.174745	-2.983703	1.749880	0.023690	0.054232	0.109969	-58.295075	-69.328117	10.781041
49891	9.124176	-2.942358	1.762027	0.017665	0.071791	0.108384	-58.278863	-69.254068	10.774688
49892	9.046156	-2.951374	1.792755	0.020751	0.067822	0.118807	-58.277632	-69.175762	10.785935
49893	9.068238	-2.917856	1.829117	0.019200	0.051452	0.121926	-58.297303	-69.101238	10.818917
49894	9.110592	-2.971338	1.756105	0.009551	0.056510	0.132007	-58.327054	-69.019900	10.856478
49895	9.002570	-3.049612	1.948527	0.004130	0.055744	0.129415	-58.355337	-68.940423	10.889471
49896	8.926255	-3.047354	1.877906	0.007938	-0.000992	0.118113	-58.447342	-68.883106	10.992803
49897	9.221567	-2.999878	1.668007	0.014240	-0.009182	0.107520	-58.534159	-68.833734	11.094793
49898	9.123489	-2.941030	1.750852	0.001752	0.047101	0.130655	-58.577788	-68.755814	11.142513
49899	9.016636	-3.007448	1.845185	0.001597	0.044316	0.140889	-58.629303	-68.674082	11.198942
49900	9.032645	-3.072779	1.867147	-0.008380	0.035360	0.133373	-58.694745	-68.598305	11.263902
49901	9.024657	-3.135888	1.887408	-0.010048	0.015455	0.123746	-58.775074	-68.533504	11.344174
49902	9.023301	-3.116589	1.842099	-0.008504	-0.005520	0.112200	-58.874563	-68.480160	11.445710
49903	9.048753	-3.059155	1.874236	-0.011061	-0.016457	0.115578	-58.988032	-68.428704	11.561050
49904	9.041531	-3.136313	1.814483	-0.017816	-0.024693	0.112541	-59.115862	-68.380695	11.687403
49905	9.091268	-3.096041	1.769919	-0.001622	-0.024492	0.117733	-59.234387	-68.330358	11.814080
49906	9.133126	-3.158784	1.762788	-0.008563	-0.006014	0.120282	-59.338367	-68.272882	11.920560
49907	9.103295	-3.192099	1.759360	-0.001669	0.004754	0.117064	-59.419181	-68.214174	12.006703
49908	9.166222	-3.300837	1.724229	-0.002513	0.007278	0.094130	-59.483299	-68.165621	12.074062
49909	9.186076	-3.345548	1.623296	0.022195	0.024183	0.050720	-59.477746	-68.133949	12.081940
49910	9.072725	-3.173298	1.868131	0.023076	0.044707	0.033071	-59.436738	-68.104626	12.051841
49911	9.044956	-3.210095	1.769321	0.022754	0.034448	0.024155	-59.399081	-68.083068	12.025465
49912	9.071086	-3.168096	1.803892	0.020892	0.041378	0.018127	-59.352724	-68.062069	11.988242
49913	9.020138	-3.171472	1.856399	0.023151	0.043569	0.016292	-59.298121	-68.041704	11.943834
49914	8.996496	-3.146397	1.862874	0.017092	0.025615	0.012873	-59.269515	-68.027884	11.923395
49915	8.973031	-3.121503	1.868180	0.014710	0.021021	0.018730	-59.249150	-68.012903	11.910683
49916	9.043873	-3.149876	1.843308	0.011865	0.003632	0.021818	-59.256850	-68.001116	11.926170
49917	9.042218	-3.170047	1.792710	0.007687	0.007994	0.023846	-59.260106	-67.987430	11.934593
49918	9.065161	-3.176698	1.818490	0.007972	0.014706	0.020034	-59.255228	-67.973280	11.934110
49919	9.038131	-3.200568	1.816775	0.006873	0.013800	0.017829	-59.247525	-67.960858	11.930209
49920	9.088874	-3.175477	1.773646	0.012538	0.019333	0.012230	-59.228762	-67.949197	11.917568
49921	9.035593	-3.208330	1.869409	0.009547	0.025103	0.008152	-59.198815	-67.938221	11.891319
49922	9.037882	-3.178393	1.826572	0.010777	0.026760	-0.002106	-59.161697	-67.931431	11.857782
49923	9.037473	-3.177943	1.829377	0.006562	0.029220	-0.004350	-59.119458	-67.925382	11.816421
49924	8.989564	-3.152694	1.858973	0.009855	0.031940	0.002252	-59.079786	-67.914910	11.779556
49925	9.039334	-3.132575	1.865655	0.011863	0.029322	0.008502	-59.043774	-67.902494	11.748186
49926	9.036446	-3.157883	1.865891	0.008688	0.034095	0.021024	-59.015850	-67.882151	11.723275
49927	9.010336	-3.160614	1.892784	0.010521	0.025390	0.020709	-58.994295	-67.864887	11.706675
49928	9.060136	-3.139321	1.874949	0.005256	0.030630	0.026859	-58.976816	-67.842696	11.690913
49929	9.004709	-3.210230	1.867542	0.002466	0.013617	0.023748	-58.976320	-67.827414	11.692062
49930	9.054816	-3.189153	1.847989	0.001156	0.008155	0.025472	-58.987268	-67.812542	11.704460
49931	9.073882	-3.244493	1.867685	0.003504	0.012494	0.023756	-58.987525	-67.797588	11.707067
49932	9.051082	-3.217387	1.847173	0.004509	0.009466	0.019507	-58.990634	-67.785258	11.713075
49933	9.026644	-3.198624	1.899540	0.004807	0.016175	0.015687	-58.979887	-67.773178	11.704602
49934	9.004579	-3.168109	1.855003	0.006691	0.009498	0.017569	-58.980294	-67.761792	11.709045
49935	9.028082	-3.171672	1.856612	0.010004	0.012341	0.022092	-58.975809	-67.747700	11.710553
49936	9.025195	-3.197894	1.855047	0.014161	0.009630	0.028482	-58.979633	-67.730920	11.723314
49937	9.026371	-3.158223	1.911292	0.019865	0.020500	0.041872	-58.973975	-67.704706	11.729661
49938	8.899246	-3.199954	1.906144	0.023196	0.021684	0.037980	-58.964997	-67.679706	11.734186
49939	8.932122	-3.065909	1.975040	0.025107	0.016913	0.044110	-58.962231	-67.653454	11.746908
49940	8.968868	-3.213185	1.910756	0.015269	-0.009411	0.056742	-59.008325	-67.628420	11.806077
49941	8.966614	-3.220551	1.935140	0.022164	-0.000713	0.051364	-59.033370	-67.603798	11.847058
49942	9.039252	-3.240476	1.812135	0.027949	-0.018230	0.050906	-59.078318	-67.584201	11.912869
49943	9.086960	-3.245627	1.789318	0.040929	0.008285	0.050932	-59.081442	-67.557126	11.941779
49944	8.987312	-3.228575	1.890064	0.040181	0.015994	0.049147	-59.077259	-67.528311	11.962034
49945	9.012389	-3.207271	1.871644	0.051716	0.007802	0.051587	-59.075173	-67.501057	11.992006
49946	8.987484	-3.187740	1.901129	0.042462	0.019968	0.053591	-59.068072	-67.468889	12.010525
49947	9.005804	-3.242034	1.898662	0.042221	0.013629	0.051184	-59.064170	-67.440120	12.032655
49948	9.030786	-3.221131	1.880317	0.043290	0.014419	0.055421	-59.064394	-67.408690	12.059631
49949	9.048920	-3.275830	1.877894	0.044476	0.017482	0.057690	-59.059198	-67.375588	12.081767
49950	9.026408	-3.229887	1.886312	0.043504	0.020646	0.059817	-59.054986	-67.340167	12.104083
49951	9.073321	-3.235838	1.866597	0.046053	0.029281	0.058269	-59.035374	-67.303306	12.111586
49952	9.020905	-3.226183	1.993506	0.033814	0.023866	0.067566	-59.038336	-67.263136	12.135669
49953	9.115091	-3.335218	1.545867	0.056877	0.030691	0.063129	-59.014289	-67.223473	12.145094
49954	8.896956	-3.163696	2.107444	0.049391	0.083691	0.069046	-58.939523	-67.164926	12.094549
49955	8.934556	-3.298849	1.928258	0.048948	0.023398	0.064304	-58.929445	-67.126849	12.114209
49956	8.988857	-3.211908	1.944389	0.032229	0.038845	0.072116	-58.919070	-67.080038	12.122860
49957	9.025206	-3.337435	1.887328	0.039475	0.031059	0.070158	-58.909586	-67.036824	12.137283
49958	9.073073	-3.323305	1.895122	0.028814	0.033855	0.067473	-58.903691	-66.993773	12.148680
49959	9.071648	-3.323268	1.851177	0.037891	0.042278	0.064248	-58.878035	-66.950139	12.144555
49960	8.995006	-3.308074	1.954564	0.024175	0.048585	0.059436	-58.852280	-66.906673	12.131480
49961	8.992132	-3.313004	1.959430	0.027035	0.040774	0.061346	-58.832659	-66.864907	12.127151
49962	8.963709	-3.337055	1.936006	0.017048	0.033947	0.056251	-58.825659	-66.827340	12.130025
49963	8.939773	-3.296542	1.992873	0.018972	0.029419	0.058243	-58.821549	-66.790463	12.137541
49964	8.981740	-3.370165	1.915818	0.012237	0.021582	0.049200	-58.826544	-66.760021	12.150472
49965	9.011380	-3.285094	1.978588	0.013867	0.031559	0.043491	-58.812720	-66.729740	12.144236
49966	8.984227	-3.306093	1.929416	-0.004064	0.022923	0.058475	-58.831877	-66.694357	12.162423
49967	8.902819	-3.357735	1.972891	0.003604	0.023840	0.054872	-58.840537	-66.660786	12.174263
49968	8.929463	-3.316593	1.980815	0.004325	0.016246	0.054607	-58.859712	-66.629276	12.197715
49969	8.924062	-3.348456	2.004073	-0.006222	0.023043	0.058283	-58.877164	-66.594265	12.213007
49970	8.949283	-3.329120	1.984545	0.000829	0.011029	0.054141	-58.903799	-66.564523	12.242419
49971	8.922056	-3.334333	2.009333	-0.005469	0.015564	0.055946	-58.927576	-66.532865	12.265084
49972	8.869105	-3.358531	2.006335	-0.004685	0.008194	0.051573	-58.958670	-66.505212	12.295928
49973	8.917631	-3.362442	1.959414	0.000552	0.002862	0.045518	-58.986129	-66.482418	12.326379
49974	8.941816	-3.347517	1.987259	-0.008995	0.006608	0.045015	-59.016895	-66.458441	12.354186
49975	8.934075	-3.421092	1.955000	-0.004750	0.002520	0.036886	-59.041828	-66.439976	12.378577
49976	8.937509	-3.376071	1.960849	0.000942	0.007728	0.035402	-59.059040	-66.420384	12.397818
49977	8.940075	-3.333730	1.991119	-0.006694	0.006945	0.036915	-59.080055	-66.400595	12.416726
49978	8.934762	-3.382899	1.961602	-0.010126	0.003777	0.038616	-59.110137	-66.380583	12.443099
49979	8.889375	-3.317411	2.041330	-0.012392	0.003557	0.044628	-59.143327	-66.357989	12.471739
49980	8.858816	-3.367514	2.034454	-0.018519	-0.010261	0.045731	-59.198634	-66.338586	12.520410
49981	8.859310	-3.366426	1.984266	-0.019688	-0.013207	0.041409	-59.252542	-66.322472	12.567115
49982	8.876112	-3.442364	1.950578	-0.017387	-0.012874	0.033331	-59.301691	-66.309906	12.609786
49983	8.976549	-3.425795	1.906011	-0.007012	-0.003151	0.024109	-59.325412	-66.299346	12.631466
49984	8.925415	-3.428295	1.953427	-0.006320	0.009883	0.022604	-59.335469	-66.285400	12.638376
49985	8.974488	-3.414269	1.982402	0.004352	0.008950	0.029457	-59.342625	-66.268665	12.649078
49986	8.904407	-3.364078	2.011197	-0.001276	0.007608	0.039311	-59.363405	-66.247149	12.670862
49987	8.903080	-3.367497	2.011348	-0.001791	-0.003046	0.036797	-59.392339	-66.230293	12.701517
49988	8.902671	-3.368358	1.986823	-0.007089	0.000259	0.040676	-59.425477	-66.210239	12.733174
49989	8.894697	-3.441802	1.953995	-0.004022	-0.003151	0.040743	-59.458320	-66.191454	12.766713
49990	8.973724	-3.380867	1.963489	-0.000955	-0.006563	0.040809	-59.495542	-66.173306	12.806687
49991	8.964743	-3.457308	1.954714	-0.002012	-0.003722	0.049064	-59.533235	-66.150561	12.846798
49992	8.969017	-3.410799	1.935764	0.001390	-0.000674	0.049401	-59.568040	-66.126442	12.885612
49993	8.944655	-3.391434	1.962096	-0.003032	-0.000766	0.055253	-59.606923	-66.099761	12.926401
49994	8.866439	-3.415630	1.981729	-0.008362	0.002435	0.061168	-59.651363	-66.068908	12.969658
49995	8.866066	-3.399722	2.008469	-0.002238	-0.004395	0.061298	-59.697576	-66.040262	13.018983
49996	8.885721	-3.432197	2.005556	-0.006854	-0.008677	0.064909	-59.755703	-66.010739	13.078187
49997	8.907960	-3.456832	1.929580	-0.002659	-0.011079	0.065079	-59.811792	-65.982110	13.138080
49998	8.978615	-3.470884	1.930414	-0.002464	-0.006884	0.067288	-59.866656	-65.950847	13.196494
49999	8.931190	-3.429038	1.983022	-0.001006	0.002294	0.075928	-59.913655	-65.912952	13.247500
50000	8.904149	-3.433529	1.982490	0.001865	-0.001688	0.086192	-59.972083	-65.870784	13.312568
50001	8.854289	-3.414845	2.008208	-0.010035	0.001575	0.097783	-60.038654	-65.822207	13.379388
50002	8.893934	-3.478093	2.002869	-0.010118	-0.015421	0.111413	-60.134635	-65.771375	13.478153
50003	8.919866	-3.459055	1.931912	-0.009952	-0.011335	0.115621	-60.226063	-65.717526	13.572341
50004	8.912325	-3.496824	1.951686	-0.015834	-0.016946	0.125178	-60.334809	-65.660144	13.681602
50005	8.907195	-3.511304	1.974174	-0.010287	-0.012341	0.133839	-60.438030	-65.597367	13.788614
50006	8.884829	-3.470393	1.953050	-0.015272	-0.019423	0.149496	-60.563195	-65.528387	13.916372
50007	8.919686	-3.562580	1.943573	-0.016475	-0.018833	0.159548	-60.691721	-65.454412	14.047415
50008	8.847535	-3.504514	2.020881	-0.012262	-0.017623	0.172007	-60.825477	-65.373441	14.186666
50009	8.918277	-3.503068	1.997962	-0.024512	-0.037184	0.186593	-60.993351	-65.290771	14.356107
50010	8.955990	-3.585696	1.865332	-0.025654	-0.034660	0.200715	-61.168569	-65.199802	14.532757
50011	8.926033	-3.583657	1.911932	-0.030483	-0.035935	0.228649	-61.361111	-65.095222	14.725865
50012	8.938793	-3.648348	1.830160	-0.030163	-0.027985	0.240947	-61.552557	-64.981699	14.917857
50013	8.854920	-3.669306	1.898667	-0.017495	-0.013325	0.254304	-61.724946	-64.857503	15.097288
50014	8.811412	-3.571935	1.958239	-0.019129	-0.015768	0.280180	-61.916019	-64.720353	15.296240
50015	8.827824	-3.580623	1.982905	-0.019818	-0.033981	0.315518	-62.142715	-64.570216	15.534700
50016	8.827415	-3.523241	2.062043	-0.045450	-0.049964	0.361264	-62.425677	-64.400377	15.819259
50017	8.779373	-3.629607	2.070658	-0.061958	-0.058164	0.411736	-62.748498	-64.206693	16.138280
50018	8.804066	-3.742986	2.006364	-0.079722	-0.069241	0.457692	-63.114725	-63.991315	16.494499
50019	8.892728	-3.749160	1.956134	-0.082839	-0.070244	0.516810	-63.506724	-63.745220	16.878426
50020	8.798760	-3.795570	2.018180	-0.098358	-0.065303	0.564933	-63.921547	-63.471654	17.278472
50021	8.721263	-3.901270	1.901713	-0.105098	-0.074422	0.600693	-64.357107	-63.180933	17.698683
50022	8.683517	-3.892471	1.995512	-0.117807	-0.090331	0.631488	-64.823473	-62.876395	18.146095
50023	8.687601	-3.944060	1.885198	-0.139549	-0.109703	0.661251	-65.323700	-62.559691	18.619132
50024	8.675434	-4.065964	1.937016	-0.153795	-0.106508	0.684284	-65.829937	-62.227999	19.090830
50025	8.605848	-4.096003	1.923304	-0.171123	-0.113548	0.702487	-66.347822	-61.886797	19.566239
50026	8.586704	-4.119263	1.959481	-0.196709	-0.137382	0.725081	-66.902834	-61.536728	20.068391
50027	8.525302	-4.228474	1.931963	-0.239033	-0.144534	0.735249	-67.478737	-61.180883	20.568702
50028	8.496895	-4.295722	1.908611	-0.257757	-0.155418	0.732914	-68.063497	-60.825887	21.068278
50029	8.485485	-4.288503	1.867745	-0.316095	-0.171556	0.711926	-68.674737	-60.483316	21.561893
50030	8.429260	-4.477462	1.674678	-0.312460	-0.174991	0.725064	-69.280887	-60.131526	22.053436
50031	8.442280	-4.680244	1.653341	-0.328536	-0.164092	0.688922	-69.859953	-59.794818	22.505061
50032	8.461005	-4.751066	1.600829	-0.322427	-0.140268	0.665032	-70.396294	-59.463802	22.912442
50033	8.422574	-4.944034	1.456724	-0.318182	-0.123525	0.637019	-70.894992	-59.143266	23.280561
50034	8.352982	-4.961226	1.412445	-0.270434	-0.099869	0.603114	-71.327685	-58.834836	23.604471
50035	8.301756	-5.004607	1.367849	-0.246927	-0.086426	0.586556	-71.721577	-58.532143	23.900102
50036	8.231294	-5.029717	1.425809	-0.222814	-0.077555	0.556510	-72.080375	-58.242849	24.171341
50037	8.094024	-5.020998	1.414202	-0.199856	-0.069516	0.524677	-72.403344	-57.969066	24.417044
50038	8.108286	-4.942948	1.689061	-0.192667	-0.096512	0.493542	-72.733953	-57.715805	24.676992
50039	8.508534	-4.932899	1.690342	-0.213090	-0.132129	0.482915	-73.098276	-57.473924	24.964076
50040	8.688858	-4.901298	1.759236	-0.301369	-0.120589	0.525738	-73.510704	-57.205207	25.248687
50041	9.163234	-5.229264	1.531371	-0.314160	-0.115769	0.597948	-73.937251	-56.895286	25.542668
50042	8.942781	-5.221135	1.265499	-0.343622	-0.053325	0.731293	-74.354572	-56.500549	25.806236
50043	8.774228	-5.388916	1.421593	-0.317182	-0.063356	0.828621	-74.778177	-56.052919	26.097217
50044	8.691920	-5.277858	1.551249	-0.330312	-0.121936	0.935623	-75.272029	-55.553095	26.465270
50045	8.762741	-5.248875	1.645637	-0.342662	-0.133443	1.028006	-75.787730	-55.002229	26.854010
50046	8.710595	-5.192460	1.619758	-0.387818	-0.078140	1.121830	-76.291612	-54.389261	27.198934
50047	8.347705	-5.347755	1.598577	-0.459166	-0.041647	1.196110	-76.806760	-53.728635	27.510447
50048	8.212895	-5.556024	1.400798	-0.473849	-0.026958	1.244261	-77.314587	-53.037319	27.804645
50049	7.891513	-5.760549	1.269866	-0.501815	-0.024178	1.304569	-77.830960	-52.310692	28.092615
50050	7.931127	-5.978277	1.271864	-0.464119	-0.058257	1.318644	-78.339054	-51.578371	28.399905
50051	7.859488	-5.888654	1.304293	-0.459218	-0.050947	1.324187	-78.824790	-50.840800	28.685704
50052	7.679300	-5.991494	1.320808	-0.477415	-0.016234	1.346516	-79.287972	-50.085138	28.931323
50053	7.707172	-6.260431	1.163558	-0.480278	-0.003804	1.360769	-79.733204	-49.319236	29.154472
50054	7.688142	-6.396857	1.106462	-0.470417	0.005724	1.375814	-80.158037	-48.542529	29.360167
50055	7.555132	-6.652021	1.069082	-0.465374	0.018440	1.401469	-80.563278	-47.749446	29.546436
50056	7.691847	-6.893959	0.973556	-0.438485	0.000671	1.413645	-80.956324	-46.949978	29.738921
50057	7.876280	-7.112153	1.089955	-0.427548	0.064845	1.463994	-81.299171	-46.115807	29.873979
50058	7.271866	-7.628809	0.996135	-0.421832	0.107458	1.555926	-81.615098	-45.225121	29.977395
50059	7.750164	-7.743725	0.208470	-0.343759	-0.000051	1.590397	-81.941484	-44.323586	30.161356
50060	6.624226	-8.279574	-1.063823	-0.355067	0.004463	1.753285	-82.275871	-43.328221	30.350032
50061	6.523270	-9.074831	-1.002898	-0.233146	-0.346735	1.846508	-82.720043	-42.305560	30.807204
50062	10.525284	-10.432892	0.639595	0.131446	-0.559151	1.709484	-83.039200	-41.373305	31.397962
50063	11.000535	-7.586944	1.228953	0.312222	0.114481	1.731364	-82.909060	-40.381053	31.472685
50064	8.595081	-8.406554	0.452433	0.186266	0.489861	1.878059	-82.683715	-39.278391	31.286776
50065	8.229574	-8.609005	0.182325	0.347327	0.336105	1.981079	-82.449423	-38.128264	31.230592
50066	8.698556	-8.762930	0.234498	0.413262	0.345184	2.133776	-82.188705	-36.890406	31.190402
50067	8.677926	-8.772695	0.408570	0.464833	0.325115	2.309461	-81.921238	-35.554461	31.188749
50068	8.648365	-8.856775	0.322497	0.493971	0.297616	2.496723	-81.663968	-34.114540	31.232728
50069	8.667589	-8.856641	0.364659	0.557536	0.226131	2.686753	-81.409278	-32.573167	31.350831
50070	8.278778	-8.914988	0.370828	0.533265	0.181524	2.910361	-81.197212	-30.909529	31.527087
50071	8.281350	-9.823400	0.477174	0.558923	0.063704	3.078229	-81.013772	-29.161727	31.800706
50072	8.826974	-9.183348	0.828949	0.656941	-0.039532	3.191115	-80.805786	-27.360464	32.154575
50073	9.009598	-8.623449	0.886702	0.654396	0.014924	3.351376	-80.580841	-25.464488	32.492140
50074	8.935961	-8.153993	1.091598	0.678801	0.110133	3.508773	-80.316480	-23.472319	32.790586
50075	9.015681	-7.913753	1.221545	0.732183	0.281492	3.658031	-79.979309	-21.380068	33.006894
50076	9.562657	-7.760621	1.593261	0.843767	0.588044	3.769355	-79.516408	-19.196040	33.063293
50077	9.628631	-7.201661	1.628864	1.006977	1.136904	3.824085	-78.864653	-16.922056	32.822776
50078	6.943175	-5.873524	0.852269	0.964036	1.684261	4.017182	-78.176121	-14.475929	32.316046
50079	3.680533	-6.717969	1.264163	0.828887	1.842935	4.401580	-77.583673	-11.788852	31.799947
50080	2.141957	-10.629956	5.664125	1.461264	1.879923	4.562960	-76.661429	-9.001994	31.324354
50081	3.731647	-12.035682	2.888925	2.109278	0.477332	3.690152	-75.486609	-6.884403	31.570309
50082	6.657827	-8.486285	2.883038	2.448890	0.280744	2.787596	-74.112336	-5.302848	31.834746
50083	4.689834	-8.678748	2.845407	2.332867	-0.077554	1.886119	-72.804892	-4.279936	32.186438
50084	4.950331	-7.041747	2.649030	2.505288	-0.792324	0.705664	-71.410669	-4.036833	32.743330
50085	5.226350	-6.899405	2.853781	2.319150	-1.081937	-0.184242	-70.122067	-4.341078	33.295509
50086	5.225761	-7.071139	3.340827	2.170382	-1.272677	-0.788560	-68.922289	-5.021894	33.821365
50087	5.178264	-6.692280	3.879450	1.971814	-1.208903	-1.177899	-67.830163	-5.904898	34.218533
50088	5.049891	-6.507936	3.681820	1.662621	-0.883202	-1.378342	-66.896492	-6.831288	34.381585
50089	3.914236	-6.519470	3.632952	1.339492	-0.472151	-1.445265	-66.118424	-7.698940	34.299089
50090	3.146665	-6.445870	3.543711	0.967721	-0.150622	-1.428025	-65.528209	-8.483682	34.039005
50091	2.717600	-6.778726	3.429632	0.542375	0.145288	-1.366413	-65.154883	-9.160844	33.632062
50092	2.540424	-7.051927	3.564621	0.151902	0.364830	-1.317258	-64.983888	-9.760229	33.116187
50093	2.613282	-7.415928	3.771515	-0.208815	0.519275	-1.327209	-64.998733	-10.323980	32.516039
50094	2.843229	-7.897355	3.907931	-0.512756	0.643429	-1.404976	-65.166893	-10.901894	31.829616
50095	2.907823	-8.220273	4.029809	-0.751929	0.741344	-1.514071	-65.449334	-11.513030	31.066918
50096	2.578447	-8.870279	4.104234	-0.931389	0.822961	-1.604917	-65.813944	-12.159358	30.239189
50097	1.551551	-9.846193	4.207268	-1.025326	0.856424	-1.627453	-66.218106	-12.812245	29.391960
50098	-0.434498	-10.949418	4.369534	-0.949587	0.685511	-1.586698	-66.593466	-13.491389	28.647429
50099	-1.459020	-11.513054	4.770792	-0.708883	0.111519	-1.588125	-66.896110	-14.302547	28.217028
50100	-0.363797	-11.376725	4.815374	-0.384945	-0.484461	-1.575502	-67.091397	-15.244909	28.115312
50101	0.748762	-11.205802	5.066876	-0.126193	-0.809361	-1.568415	-67.185648	-16.253495	28.196709
50102	2.029958	-10.932865	5.264684	0.135379	-1.008915	-1.616181	-67.160848	-17.334001	28.377033
50103	3.306563	-10.668380	5.263779	0.339623	-0.979878	-1.674303	-67.012510	-18.436578	28.528132
50104	3.851378	-9.997011	5.104678	0.499768	-0.736583	-1.712659	-66.727426	-19.507448	28.530018
50105	3.618229	-9.302266	4.625657	0.586542	-0.395462	-1.684576	-66.326996	-20.483401	28.342246
50106	3.006857	-8.678004	4.109394	0.622280	-0.075070	-1.593188	-65.844397	-21.337982	27.987317
50107	2.402756	-8.069589	3.631506	0.611135	0.127994	-1.486381	-65.327402	-22.083541	27.536729
50108	1.931575	-7.711539	3.157066	0.564210	0.195785	-1.375566	-64.825406	-22.753636	27.066522
50109	1.974299	-7.399263	2.833122	0.503291	0.154929	-1.296517	-64.367064	-23.386966	26.633149
50110	2.160376	-6.941590	2.549008	0.429552	0.080347	-1.254494	-63.965525	-24.016380	26.245004
50111	2.508056	-6.467323	2.346785	0.338573	0.003501	-1.226807	-63.630296	-24.646565	25.902570
50112	2.941615	-6.219265	2.308074	0.236324	-0.034502	-1.222095	-63.357937	-25.284477	25.576590
50113	3.353084	-6.049406	2.265315	0.160605	-0.061583	-1.258910	-63.125240	-25.944816	25.251539
50114	3.810055	-5.770995	2.168056	0.083336	-0.069388	-1.324871	-62.925202	-26.641843	24.906227
50115	3.997791	-5.627645	2.010470	0.008451	-0.063239	-1.390901	-62.751303	-27.367822	24.534243
50116	4.234465	-5.390301	1.852571	-0.058464	-0.099159	-1.472739	-62.607906	-28.146125	24.152865
50117	4.523367	-5.047778	1.593011	-0.139810	-0.156476	-1.549945	-62.508472	-28.975966	23.777650
50118	4.861802	-4.584405	1.357111	-0.238617	-0.219993	-1.639737	-62.463861	-29.870055	23.406921
50119	5.075911	-4.405697	1.182201	-0.387987	-0.239612	-1.711828	-62.492111	-30.803702	23.023022
50120	4.746732	-4.610336	1.265576	-0.519739	-0.255069	-1.763257	-62.586050	-31.770285	22.628790
50121	4.567513	-5.000498	1.384321	-0.599224	-0.353819	-1.835330	-62.737993	-32.797899	22.270739
50122	4.441756	-5.304951	1.522373	-0.640329	-0.415789	-1.870220	-62.923004	-33.862839	21.937970
50123	4.275027	-5.497767	1.736181	-0.640328	-0.500031	-1.877437	-63.130546	-34.951856	21.656245
50124	4.515779	-5.583160	1.938604	-0.607650	-0.574156	-1.877379	-63.343285	-36.063287	21.421282
50125	4.972566	-5.766451	2.110519	-0.560224	-0.638230	-1.894480	-63.546641	-37.198104	21.224374
50126	5.328940	-5.853912	2.224390	-0.505198	-0.681127	-1.949735	-63.723238	-38.375210	21.038372
50127	5.582279	-5.828681	2.335668	-0.444883	-0.701757	-2.015835	-63.857224	-39.589417	20.846397
50128	5.624755	-5.815869	2.301457	-0.384205	-0.680319	-2.073104	-63.932150	-40.830467	20.619690
50129	5.431930	-5.742149	2.200060	-0.326417	-0.650897	-2.098264	-63.948580	-42.074688	20.362224
50130	5.076583	-5.829831	2.219264	-0.254498	-0.648360	-2.092561	-63.916960	-43.317826	20.098818
50131	4.824527	-6.155763	2.305821	-0.143277	-0.728239	-2.070706	-63.856848	-44.567193	19.894115
50132	5.080979	-6.325006	2.445415	0.012104	-0.845171	-2.049167	-63.766559	-45.837316	19.774958
50133	5.651463	-6.244978	2.600962	0.178514	-0.890819	-2.022824	-63.605046	-47.102858	19.693475
50134	6.172939	-6.051188	2.629561	0.318551	-0.856234	-2.016959	-63.338509	-48.358702	19.578315
50135	6.731875	-5.917506	2.266554	0.368135	-0.770245	-2.028939	-62.976838	-49.595606	19.378725
50136	6.755878	-5.410161	1.944099	0.333561	-0.639884	-2.019886	-62.542196	-50.795110	19.060172
50137	6.356034	-5.037503	1.488661	0.254907	-0.583939	-2.000719	-62.100472	-51.966072	18.681956
50138	6.084158	-4.595965	1.179997	0.147178	-0.607173	-1.986993	-61.718046	-53.136968	18.304930
50139	5.938444	-4.634939	1.229598	0.010666	-0.693797	-1.968289	-61.457171	-54.318417	17.989129
50140	6.389742	-4.974005	1.394354	-0.107511	-0.835558	-1.958879	-61.353660	-55.535727	17.785842
50141	6.996213	-5.144608	1.660401	-0.235374	-0.879815	-1.946610	-61.350924	-56.756591	17.620337
50142	7.573078	-5.282976	1.857035	-0.362631	-0.838656	-1.921448	-61.395220	-57.955824	17.424665
50143	7.777787	-5.538012	1.978058	-0.486108	-0.724010	-1.873702	-61.429676	-59.097389	17.138679
50144	7.224017	-6.060822	2.190610	-0.560642	-0.643502	-1.803116	-61.462417	-60.183708	16.802867
50145	7.074388	-6.567701	2.409108	-0.551416	-0.690454	-1.728216	-61.556194	-61.243090	16.548319
50146	7.530962	-6.750133	2.637900	-0.497455	-0.724892	-1.671052	-61.675995	-62.285352	16.359391
50147	7.909447	-6.725592	2.753980	-0.447777	-0.677673	-1.607391	-61.748845	-63.280737	16.152977
50148	7.828452	-6.636275	2.736959	-0.421170	-0.593632	-1.546347	-61.749417	-64.224477	15.883289
50149	7.472877	-6.712068	2.677754	-0.420460	-0.558316	-1.470399	-61.743186	-65.118407	15.610035
50150	7.271879	-6.730746	2.660282	-0.404038	-0.577145	-1.377591	-61.796739	-65.972320	15.413411
50151	7.416074	-6.713806	2.731095	-0.393835	-0.598271	-1.277652	-61.924278	-66.779894	15.306484
50152	7.654434	-6.705887	2.752334	-0.366246	-0.609639	-1.197422	-62.104758	-67.551477	15.273617
50153	8.120157	-6.577106	2.814869	-0.336513	-0.561759	-1.114620	-62.264917	-68.266901	15.238539
50154	8.085567	-6.493988	2.996687	-0.317989	-0.499087	-1.036084	-62.392838	-68.927012	15.179382
50155	7.891746	-6.487378	3.031201	-0.272791	-0.444557	-0.965362	-62.469716	-69.535600	15.094600
50156	7.791645	-6.508195	3.169030	-0.214544	-0.422364	-0.884214	-62.543564	-70.098033	15.041604
50157	7.926731	-6.619195	3.274366	-0.169604	-0.381756	-0.794922	-62.597077	-70.603439	14.995398
50158	7.929871	-6.826622	3.377581	-0.114600	-0.297142	-0.685690	-62.580645	-71.031604	14.907939
50159	7.631420	-6.963674	3.361799	-0.038492	-0.200381	-0.551724	-62.473794	-71.365430	14.771923
50160	7.105162	-6.885913	3.197107	0.065911	-0.159965	-0.404548	-62.361621	-71.614013	14.693094
50161	6.815055	-6.620924	2.962738	0.177125	-0.167886	-0.260124	-62.308760	-71.791071	14.744462
50162	6.642567	-6.205247	2.800065	0.294705	-0.204443	-0.104767	-62.374986	-71.898977	14.991667
50163	6.582120	-5.746844	2.593193	0.387475	-0.231934	0.036999	-62.544203	-71.942019	15.403365
50164	6.317235	-5.261234	2.349732	0.480855	-0.226736	0.178440	-62.769931	-71.910932	15.930569
50165	5.602887	-4.708418	2.010673	0.563330	-0.200024	0.347613	-63.035357	-71.786221	16.549718
50166	4.487014	-4.082526	1.524943	0.630462	-0.187359	0.566590	-63.408392	-71.544568	17.323308
50167	5.146781	-4.413015	1.852644	0.689989	-0.213600	0.818053	-63.954712	-71.179082	18.317232
50168	56.830035	-23.350609	18.431594	1.518662	-0.964870	0.202398	-64.703746	-71.313630	20.027321
50169	-1.359021	7.649441	-20.701200	-0.002335	4.484783	0.875302	-58.977504	-69.656976	13.952098
50170	6.131099	-10.800778	23.749033	-0.838072	3.608024	-0.605742	-54.401003	-68.810798	8.544543
50171	-4.585192	0.717711	1.886261	1.936823	-2.567845	-0.225866	-56.297280	-69.754529	11.758361
50172	15.806611	0.439812	1.639045	0.222221	-2.643095	-0.721548	-59.137621	-70.912510	14.910073
50173	13.379302	-0.867477	-2.186222	-0.557648	0.366742	0.656788	-59.489684	-70.482057	14.944720
50174	8.165181	-5.122858	1.466901	-0.507424	0.593104	0.575775	-59.434672	-70.024793	14.577656
50175	9.114346	-3.933896	1.197988	0.290803	-0.123543	0.072885	-59.494324	-70.025189	14.818566
50176	8.985731	-2.261236	2.710477	-0.018898	0.201473	0.167839	-59.369627	-69.883131	14.674596
50177	8.689149	-3.588540	1.539786	0.041690	-0.077327	0.123783	-59.548260	-69.844962	14.890456
50178	9.306130	-2.338606	1.895658	0.054246	-0.049789	0.100122	-59.665893	-69.809337	15.049202
50179	9.086972	-3.028872	1.645714	-0.072426	-0.032247	0.138854	-59.859661	-69.750308	15.211631
50180	9.440119	-3.142249	1.384097	0.006823	-0.048959	0.115312	-60.013765	-69.706613	15.380389
50181	9.342808	-3.098920	1.414598	0.027280	0.054948	0.093258	-59.996803	-69.644997	15.379127
50182	9.088947	-2.895476	1.759262	0.044199	0.077110	0.092587	-59.942711	-69.576399	15.348733
50183	9.065309	-2.829629	1.772498	0.032938	0.059441	0.112314	-59.931402	-69.504043	15.356962
50184	9.011895	-2.835365	1.754319	0.021763	0.043697	0.138383	-59.969730	-69.422320	15.411504
50185	9.221453	-2.901103	1.605266	0.027764	0.025201	0.164827	-60.046201	-69.333709	15.510363
50186	9.373048	-3.091303	1.498210	0.030697	0.075167	0.183564	-60.071345	-69.220528	15.556341
50187	9.285680	-3.199592	1.502797	0.060677	0.128157	0.182314	-60.006666	-69.093757	15.524491
50188	9.212287	-3.118111	1.600255	0.105331	0.167622	0.180870	-59.867550	-68.955417	15.440410
50189	8.965814	-3.400115	1.844719	0.110363	0.160884	0.153385	-59.712646	-68.833487	15.342306
50190	9.030379	-2.805387	1.903613	0.148330	0.082460	0.130582	-59.622571	-68.744506	15.337120
50191	8.967909	-2.903951	1.836885	0.060862	0.138262	0.146259	-59.521538	-68.632527	15.266260
50192	9.056679	-2.952514	1.894931	0.081070	0.074902	0.173547	-59.511950	-68.524531	15.306126
50193	9.256829	-3.114022	1.650412	0.054329	0.108038	0.184011	-59.481419	-68.402672	15.306927
50194	9.022083	-3.216403	1.778620	0.047458	0.125248	0.163410	-59.420954	-68.285042	15.271387
50195	9.018947	-3.185642	1.867596	0.059970	0.114705	0.140481	-59.347735	-68.182702	15.229704
50196	8.919408	-3.143048	1.930979	0.046214	0.096315	0.126847	-59.297886	-68.091514	15.204779
50197	8.847122	-3.078746	2.017457	0.029734	0.065096	0.112775	-59.283289	-68.017313	15.207567
50198	8.840645	-3.112423	2.020317	0.007392	0.024081	0.108600	-59.330721	-67.956233	15.263558
50199	9.019491	-3.279128	1.937240	-0.015196	-0.022689	0.083582	-59.427350	-67.922045	15.358585
50200	9.063326	-3.322133	1.687602	0.010169	-0.036044	0.061250	-59.511706	-67.901768	15.456176
50201	9.054141	-3.143651	1.894646	0.019477	0.001869	0.046191	-59.531447	-67.878817	15.489689
50202	8.902486	-3.181226	1.867245	0.015683	-0.010038	0.051881	-59.574109	-67.855566	15.545708
50203	9.075971	-3.149729	1.820821	0.030063	-0.026107	0.060111	-59.631500	-67.833828	15.626431
50204	9.052549	-3.123513	1.749243	0.022819	0.004327	0.064923	-59.661685	-67.799939	15.673410
50205	8.998387	-3.159046	1.895564	0.029850	0.016464	0.079959	-59.681409	-67.756032	15.713351
50206	8.962354	-3.260135	1.890542	0.022486	-0.002408	0.072914	-59.725307	-67.720125	15.774965
50207	9.035365	-3.250238	1.916298	0.013272	-0.014643	0.063958	-59.780536	-67.693094	15.843033
50208	9.029835	-3.295746	1.790028	0.011863	-0.021790	0.053360	-59.839851	-67.672409	15.914758
50209	9.079280	-3.283463	1.839026	0.010049	-0.014813	0.041125	-59.880888	-67.656693	15.965508
50210	9.054364	-3.281079	1.788965	0.008630	-0.022029	0.032602	-59.927658	-67.646323	16.021681
50211	9.104843	-3.262160	1.765114	0.013599	-0.008909	0.020787	-59.945248	-67.638972	16.049285
50212	9.053181	-3.283535	1.763781	0.002516	0.007767	0.022996	-59.952855	-67.624805	16.059324
50213	9.078851	-3.264930	1.791029	0.014758	0.014922	0.017422	-59.938703	-67.612282	16.053323
50214	9.053654	-3.265154	1.817469	0.008625	0.021976	0.009189	-59.916104	-67.600887	16.034475
50215	9.001865	-3.286685	1.842897	0.016445	0.027121	0.005471	-59.878019	-67.590780	16.003632
50216	9.101298	-3.267220	1.774016	0.020344	0.018357	0.003270	-59.848975	-67.583352	15.985071
50217	9.054111	-3.241401	1.827677	0.015029	0.042376	0.003806	-59.792289	-67.569660	15.933223
50218	8.975388	-3.287042	1.901417	0.011362	0.033243	-0.008958	-59.742051	-67.563983	15.886157
50219	9.006783	-3.214057	1.884397	0.010524	0.016009	-0.009494	-59.710325	-67.564456	15.858515
50220	9.029111	-3.236237	1.836066	0.005416	0.021862	-0.015677	-59.672437	-67.565371	15.821125
50221	9.004696	-3.234116	1.862450	0.005297	0.019575	-0.011628	-59.637936	-67.565854	15.787242
50222	9.029240	-3.233729	1.839847	0.008270	0.014029	-0.011692	-59.610582	-67.567054	15.763015
50223	9.058147	-3.188011	1.868993	0.012575	0.013749	-0.009499	-59.580375	-67.568161	15.738289
50224	9.004722	-3.231029	1.867675	0.007525	0.021357	-0.003263	-59.550598	-67.563066	15.710976
50225	8.955392	-3.230477	1.942361	0.007013	0.010651	-0.005650	-59.529993	-67.563162	15.693190
50226	9.006757	-3.207315	1.895971	0.009659	-0.001490	-0.001785	-59.527358	-67.563969	15.696565
50227	9.029171	-3.230415	1.845999	0.003407	0.003204	-0.003920	-59.518942	-67.565374	15.689731
50228	8.978258	-3.251015	1.868487	0.000635	-0.009550	-0.006437	-59.527840	-67.570824	15.699988
50229	9.054390	-3.229825	1.820521	0.000555	-0.011507	-0.012682	-59.532490	-67.580829	15.705522
50230	9.030615	-3.226336	1.819892	-0.000056	-0.001759	-0.012425	-59.528249	-67.586975	15.701134
50231	9.033136	-3.202498	1.846024	0.004567	0.004493	-0.012095	-59.511856	-67.592042	15.686391
50232	8.984261	-3.201443	1.919429	0.000143	0.002484	-0.010237	-59.503956	-67.595879	15.678166
50233	9.031280	-3.225049	1.845062	0.000119	0.002286	-0.004056	-59.498415	-67.597616	15.672407
50234	9.004422	-3.249644	1.892199	-0.003262	-0.000721	-0.006316	-59.499061	-67.600451	15.671314
50235	9.011949	-3.174380	1.872513	0.005395	-0.000880	-0.014286	-59.487067	-67.608159	15.661845
50236	9.007670	-3.221761	1.869471	-0.004170	0.002695	-0.010374	-59.481264	-67.612006	15.653215
50237	8.939226	-3.170038	1.945330	0.000758	-0.007264	-0.010496	-59.482247	-67.619700	15.654907
50238	8.988709	-3.170742	1.895693	-0.003871	-0.013583	-0.008767	-59.496908	-67.627492	15.668595
50239	9.009173	-3.218145	1.842274	-0.009447	-0.016815	-0.000792	-59.522062	-67.633171	15.690101
50240	8.982649	-3.243006	1.887520	-0.007371	-0.018877	-0.006974	-59.546366	-67.641615	15.712046
50241	9.034759	-3.219201	1.838232	-0.005479	-0.025048	-0.019472	-59.565978	-67.658904	15.730016
50242	9.113405	-3.173589	1.790534	-0.002045	-0.020349	-0.002721	-59.592042	-67.665669	15.757158
50243	9.035932	-3.216366	1.811124	-0.004909	0.010156	-0.006054	-59.578495	-67.666114	15.739631
50244	8.962405	-3.216675	1.932896	-0.003565	-0.007118	-0.008577	-59.585392	-67.671942	15.745105
50245	9.036629	-3.214981	1.810108	-0.004892	-0.012386	-0.010838	-59.595576	-67.681289	15.753242
50246	8.990392	-3.189874	1.883721	-0.008892	-0.005647	-0.012836	-59.600746	-67.688796	15.753550
50247	9.015097	-3.192877	1.906920	-0.000790	-0.016970	-0.008778	-59.615570	-67.698452	15.769243
50248	8.989387	-3.211173	1.854638	-0.012918	-0.021915	-0.005193	-59.648056	-67.706895	15.796581
50249	9.043280	-3.166927	1.855117	-0.010034	-0.029545	-0.007392	-59.684366	-67.719500	15.829769
50250	9.059540	-3.259633	1.748875	-0.008408	-0.017881	-0.002868	-59.711079	-67.725619	15.853656
50251	8.993333	-3.187480	1.873709	-0.008288	-0.015526	-0.008987	-59.728380	-67.734951	15.867379
50252	9.142756	-3.166999	1.727530	0.001455	-0.015051	-0.004532	-59.744878	-67.741074	15.886330
50253	8.987113	-3.259459	1.867031	-0.018889	0.011843	-0.004381	-59.738424	-67.740223	15.867821
50254	9.036443	-3.259964	1.817660	0.004475	-0.020123	-0.019038	-59.749105	-67.754994	15.882353
50255	9.068403	-3.187766	1.821628	-0.012682	0.005603	-0.020882	-59.734981	-67.764110	15.859402
50256	8.964834	-3.253856	1.889598	-0.005760	-0.008361	-0.033471	-59.727092	-67.782631	15.847533
50257	9.048482	-3.157468	1.845851	-0.002974	-0.018143	-0.035748	-59.725629	-67.805960	15.844271
50258	8.974356	-3.175225	1.891576	-0.016550	-0.007914	-0.031751	-59.724562	-67.823502	15.833096
50259	9.029136	-3.124063	1.819476	-0.004728	-0.032431	-0.025929	-59.748423	-67.846098	15.856095
50260	9.001334	-3.170265	1.837907	-0.020377	-0.020151	-0.015733	-59.775782	-67.859250	15.873248
50261	9.024226	-3.198740	1.882041	-0.009160	-0.034649	-0.017893	-59.810671	-67.878497	15.905405
50262	9.076729	-3.169527	1.758543	-0.009989	-0.029212	-0.017757	-59.841742	-67.895255	15.932986
50263	9.019976	-3.263688	1.798556	-0.011542	-0.016047	-0.021531	-59.852812	-67.910940	15.937955
50264	9.007777	-3.143037	1.877491	0.001835	-0.030643	-0.023636	-59.874765	-67.931020	15.962997
50265	9.009157	-3.139521	1.850043	-0.008124	-0.035709	-0.019986	-59.909063	-67.951588	15.995140
50266	9.030272	-3.188880	1.842924	-0.007401	-0.043505	-0.014020	-59.958971	-67.970584	16.044627
50267	9.051595	-3.233466	1.762363	-0.007396	-0.043368	-0.018159	-60.003682	-67.992422	16.088443
50268	9.066168	-3.089584	1.816880	-0.000729	-0.039361	-0.017831	-60.042143	-68.012096	16.129692
50269	9.096091	-3.306104	1.725500	-0.026218	-0.029536	-0.018310	-60.080671	-68.030032	16.155200
50270	9.068447	-3.087914	1.835319	0.007858	-0.016744	-0.027180	-60.079856	-68.047875	16.159391
50271	8.987759	-3.173210	1.778467	-0.015236	-0.025800	-0.015789	-60.109341	-68.063485	16.181926
50272	9.074744	-3.031663	1.761210	0.000250	-0.018088	-0.008860	-60.127555	-68.072614	16.201932
50273	8.962473	-3.197147	1.821791	-0.015781	-0.014314	-0.003025	-60.152269	-68.078599	16.218985
50274	9.066815	-3.131581	1.799409	-0.008868	-0.028735	-0.001227	-60.194293	-68.086968	16.259021
50275	9.011933	-3.201870	1.816838	-0.012596	-0.015747	0.003224	-60.223407	-68.090246	16.282781
50276	8.990325	-3.175596	1.815813	-0.010387	-0.038311	-0.003671	-60.276464	-68.102536	16.333767
50277	9.088371	-3.179185	1.738485	-0.012349	-0.033764	-0.007720	-60.320055	-68.116361	16.373278
50278	9.087075	-3.202646	1.733562	-0.007940	-0.031600	-0.013722	-60.356402	-68.131727	16.407756
50279	9.092479	-3.156149	1.782925	-0.010642	-0.019463	-0.017530	-60.374431	-68.146369	16.420771
50280	8.992007	-3.197444	1.826556	-0.015351	-0.027603	-0.026229	-60.401310	-68.166826	16.440465
50281	9.070642	-3.150032	1.777426	-0.008044	-0.033336	-0.026215	-60.429034	-68.189716	16.465522
50282	8.999161	-3.143226	1.798578	-0.013867	-0.042992	-0.020528	-60.478357	-68.211673	16.510301
50283	9.073524	-3.144657	1.744603	-0.016320	-0.049216	-0.024969	-60.531673	-68.238406	16.557803
50284	9.073065	-3.168821	1.761945	-0.023075	-0.055524	-0.021271	-60.601631	-68.264234	16.619102
50285	9.101052	-3.141696	1.709021	-0.012293	-0.055944	-0.023056	-60.662689	-68.291863	16.677403
50286	9.124654	-3.166423	1.702488	-0.022115	-0.033981	-0.020496	-60.705872	-68.311219	16.710454
50287	9.099455	-3.186815	1.697421	-0.016684	-0.033007	-0.024451	-60.739855	-68.333084	16.736895
50288	9.058907	-3.112789	1.772938	-0.021556	-0.020843	-0.026227	-60.762263	-68.351618	16.747926
50289	9.031784	-3.158790	1.790867	-0.027670	-0.036686	-0.029066	-60.804036	-68.376810	16.775969
50290	9.081848	-3.157345	1.737123	-0.016239	-0.046841	-0.031196	-60.852805	-68.405088	16.818627
50291	9.063792	-3.107820	1.784722	-0.028982	-0.042096	-0.027260	-60.903625	-68.430867	16.855581
50292	9.107092	-3.176234	1.676165	-0.027568	-0.059570	-0.023755	-60.980504	-68.458933	16.921469
50293	9.088896	-3.125544	1.698316	-0.030388	-0.049659	-0.025549	-61.043191	-68.485923	16.970299
50294	9.062239	-3.171829	1.713822	-0.026450	-0.058467	-0.025796	-61.116935	-68.514654	17.033481
50295	9.070375	-3.097247	1.712768	-0.026443	-0.058539	-0.023749	-61.190259	-68.543150	17.096150
50296	9.114014	-3.169081	1.651908	-0.029820	-0.061626	-0.023988	-61.271602	-68.571787	17.165397
50297	9.141964	-3.143232	1.622909	-0.019711	-0.052213	-0.027497	-61.330691	-68.600368	17.216895
50298	9.121844	-3.118283	1.668652	-0.020454	-0.044699	-0.025160	-61.384463	-68.624895	17.262267
50299	9.120914	-3.138942	1.638298	-0.017915	-0.036250	-0.022688	-61.425621	-68.646645	17.295597
50300	9.121823	-3.135413	1.610836	-0.012951	-0.021360	-0.021954	-61.447466	-68.663148	17.311291
50301	9.103060	-3.086704	1.661684	-0.008058	-0.008771	-0.017163	-61.451531	-68.674583	17.310856
50302	9.051107	-3.131678	1.682392	-0.002676	-0.010306	-0.010861	-61.461049	-68.682482	17.319631
50303	9.102118	-3.108750	1.657847	-0.003813	-0.011261	-0.013005	-61.468819	-68.692505	17.325785
50304	9.080525	-3.083318	1.683870	0.003248	0.001160	-0.006083	-61.463503	-68.694865	17.322277
50305	9.106111	-3.055450	1.612881	0.004856	0.012812	-0.001415	-61.443373	-68.692464	17.303815
50306	9.110055	-3.011380	1.667393	0.017746	0.031797	0.026664	-61.413233	-68.669957	17.282575
50307	9.124046	-3.111508	1.640261	0.016669	0.055143	0.040007	-61.360982	-68.635100	17.236886
50308	9.070236	-3.165932	1.739952	0.013923	0.042534	0.033185	-61.323962	-68.606361	17.205891
50309	9.122248	-3.091451	1.626720	0.018062	0.037964	0.035176	-61.289802	-68.578634	17.180473
50310	9.122505	-3.072437	1.657712	0.017926	0.058035	0.048382	-61.241504	-68.537979	17.139809
50311	9.113742	-3.151428	1.682918	0.020212	0.059801	0.056773	-61.193590	-68.493368	17.100922
50312	9.161061	-3.131056	1.617530	0.024997	0.070381	0.057285	-61.132126	-68.444814	17.050429
50313	9.131448	-3.158237	1.624153	0.038532	0.082510	0.064303	-61.050626	-68.390104	16.986683
50314	9.079679	-3.164732	1.706789	0.031339	0.090102	0.072602	-60.971935	-68.328357	16.921521
50315	9.049757	-3.193948	1.738523	0.037294	0.079471	0.059904	-60.892619	-68.276632	16.859311
50316	9.076835	-3.121603	1.654386	0.044905	0.079990	0.066298	-60.815193	-68.220797	16.803825
50317	9.119527	-3.157692	1.686588	0.048345	0.107542	0.077663	-60.707623	-68.152269	16.717953
50318	9.046646	-3.114094	1.775765	0.058795	0.122969	0.086687	-60.583930	-68.074115	16.621121
50319	9.065896	-3.120413	1.739466	0.065904	0.112434	0.100882	-60.477773	-67.992497	16.547529
50320	9.104559	-3.180228	1.724688	0.076356	0.127790	0.111906	-60.357209	-67.900276	16.464808
50321	9.100852	-3.165301	1.740707	0.077776	0.134941	0.122339	-60.233146	-67.801478	16.379132
50322	9.040959	-3.222309	1.801953	0.077556	0.153177	0.126843	-60.093225	-67.694467	16.276114
50323	9.012166	-3.207223	1.843779	0.077035	0.142479	0.124240	-59.963747	-67.592418	16.183998
50324	9.005327	-3.219023	1.882885	0.072163	0.131598	0.133883	-59.859797	-67.487949	16.116401
50325	9.040449	-3.303697	1.843702	0.077425	0.128427	0.123486	-59.748141	-67.390186	16.043689
50326	9.234271	-3.275789	1.716029	0.095161	0.138005	0.134431	-59.625405	-67.283493	15.969909
50327	9.585158	-3.147857	1.646352	0.105481	0.131693	0.181685	-59.535664	-67.155919	15.938285
50328	9.533504	-3.344254	1.412276	0.112224	0.248731	0.266621	-59.367026	-66.951662	15.825100
50329	9.095852	-3.396631	1.852048	0.182111	0.325648	0.282279	-59.081555	-66.717633	15.628247
50330	9.381512	-2.425265	2.334588	0.170363	0.181867	0.378408	-59.037174	-66.477858	15.686340
50331	9.298842	-3.080522	2.003682	-0.008786	0.257333	0.587265	-59.147835	-66.113827	15.801860
50332	8.797612	-3.404842	2.148374	0.015311	0.264433	0.592535	-59.238985	-65.744440	15.911378
50333	9.051322	-3.181330	2.310944	0.010781	0.127598	0.622911	-59.494800	-65.400491	16.199287
50334	8.667549	-3.535616	2.298158	-0.126208	0.220483	0.637605	-59.733162	-65.021254	16.382266
50335	8.761432	-3.646734	2.136837	-0.076671	0.082156	0.591053	-60.052443	-64.705079	16.686584
50336	9.377347	-3.393439	2.031669	-0.085450	0.075849	0.643458	-60.408367	-64.363265	17.026660
50337	9.281278	-3.899505	2.112167	-0.142345	0.231125	0.733944	-60.678844	-63.932381	17.236750
50338	9.267265	-3.831388	2.188630	-0.091972	0.265406	0.796023	-60.914924	-63.459871	17.441374
50339	9.460220	-3.854843	2.246067	-0.153428	0.278095	0.900178	-61.220783	-62.931789	17.685724
50340	10.035488	-3.854674	2.904184	-0.201584	0.170650	1.004101	-61.703325	-62.379479	18.098976
50341	10.360970	-3.837876	2.176820	-0.229610	0.135656	1.160028	-62.294111	-61.756534	18.618914
50342	9.116660	-4.057129	2.250669	-0.319250	0.339855	1.254571	-62.769672	-61.028785	18.952267
50343	8.506398	-4.428675	2.195623	-0.260346	0.248627	1.241527	-63.267550	-60.330626	19.352371
50344	8.620284	-4.207351	2.261203	-0.258959	0.224727	1.242442	-63.767303	-59.635885	19.758178
50345	8.543725	-4.393102	2.286945	-0.274741	0.214570	1.248452	-64.266326	-58.939400	20.155677
50346	8.530239	-4.518644	2.294408	-0.275964	0.202233	1.266777	-64.765827	-58.234202	20.555680
50347	8.322399	-4.549178	2.075194	-0.267406	0.193498	1.298975	-65.259776	-57.513156	20.958188
50348	8.624145	-5.075125	2.634559	-0.289620	0.174862	1.326854	-65.773638	-56.779614	21.372321
50349	9.610690	-4.163086	2.444181	-0.221547	0.092076	1.382038	-66.312174	-56.034938	21.866604
50350	8.692638	-5.096512	2.176291	-0.385030	0.269813	1.551786	-66.842851	-55.157532	22.242365
50351	8.794111	-5.100513	2.472790	-0.277165	0.138883	1.587268	-67.397940	-54.289081	22.727948
50352	8.851239	-5.077067	2.327472	-0.339830	0.236613	1.670296	-67.919645	-53.352286	23.132989
50353	8.634285	-5.309652	2.682803	-0.329216	0.227279	1.742301	-68.438730	-52.377513	23.547667
50354	8.796245	-5.394195	2.738973	-0.358782	0.252031	1.783069	-68.946825	-51.373200	23.932144
