// General information: 
//  MT Manager version: 2022.2.0 
//  XDA version: 2022.2.0 build 7381 rev 124627 built on 2023-07-19
// Device information: 
//  DeviceId: 00B4BAF3
//  ProductCode: MTW2-3A7G6
//  Firmware Version: 4.6.0
//  Hardware Version: 2.0.0
// Device settings: 
//  Filter Profile: human(46.1)
//  Option Flags: Orientation Smoother Disabled, Position/Velocity Smoother Disabled, Continuous Zero Rotation Update Disabled, AHS Disabled, ICC Disabled
// Coordinate system: ENU
PacketCounter	Acc_X	Acc_Y	Acc_Z	Gyr_X	Gyr_Y	Gyr_Z	Roll	Pitch	Yaw
43844	9.658894	0.910219	0.122711	-0.009152	0.007036	0.000984	77.280361	-85.399331	17.841623
43845	9.692480	0.948533	0.143110	-0.019325	0.009473	-0.000103	77.239723	-85.398628	17.871717
43846	9.683514	0.907316	0.148817	-0.023786	0.009918	0.002434	77.187145	-85.398985	17.911181
43847	9.659565	0.902986	0.199090	-0.031398	0.013380	0.006369	77.102219	-85.401395	17.978767
43848	9.731199	0.827729	0.193167	-0.034314	0.010441	0.008122	77.030881	-85.404848	18.030895
43849	9.673685	0.784521	0.223667	-0.035001	0.007185	0.010473	76.980187	-85.410334	18.062066
43850	9.672785	0.763457	0.174091	-0.028217	0.013716	0.012607	76.882077	-85.415853	18.144541
43851	9.672845	0.762385	0.175437	-0.020606	0.010254	0.008672	76.820941	-85.419928	18.194461
43852	9.671606	0.714899	0.147584	-0.012377	0.005730	0.013416	76.785958	-85.426918	18.223024
43853	9.672044	0.740116	0.126295	-0.004667	0.009563	0.013555	76.730538	-85.433799	18.276371
43854	9.672130	0.738833	0.127254	0.000763	0.009971	0.012925	76.674113	-85.439972	18.333843
43855	9.713859	0.797252	0.092647	-0.000780	0.013541	0.009977	76.598723	-85.444323	18.409457
43856	9.730827	0.798934	0.151216	-0.017408	0.010979	0.007440	76.533652	-85.447291	18.464912
43857	9.719775	0.657722	0.172792	-0.018221	0.021353	0.006048	76.399977	-85.448388	18.588971
43858	9.710378	0.589652	0.201155	-0.019920	0.013698	0.002586	76.322600	-85.448272	18.655494
43859	9.644446	0.559470	0.192264	-0.003904	0.017325	-0.003552	76.241650	-85.444541	18.734890
43860	9.668984	0.557039	0.217669	-0.000177	0.009887	-0.003910	76.213350	-85.441330	18.763550
43861	9.634025	0.473168	0.170210	0.016763	0.010817	-0.012045	76.204370	-85.433755	18.782625
43862	9.654140	0.623044	0.241734	0.034615	0.008854	-0.018445	76.228159	-85.422618	18.779225
43863	9.711655	0.667018	0.213083	0.032035	0.007445	-0.016004	76.258105	-85.413300	18.768030
43864	9.702392	0.660892	0.123361	0.045855	0.014932	-0.018836	76.246701	-85.401125	18.806315
43865	9.710855	0.677371	0.142112	0.051277	0.015333	-0.019463	76.238968	-85.388807	18.843980
43866	9.736380	0.756339	0.101070	0.058643	0.017812	-0.023745	76.223555	-85.373513	18.893397
43867	9.713336	0.800997	0.180085	0.050381	0.021756	-0.017301	76.167898	-85.361517	18.978629
43868	9.688566	0.805840	0.157551	0.044287	0.018653	-0.025523	76.142193	-85.345116	19.030321
43869	9.664575	0.831211	0.185799	0.034745	0.020589	-0.029144	76.106244	-85.326684	19.086796
43870	9.654992	0.766494	0.214246	0.031539	0.019861	-0.027918	76.069703	-85.308778	19.141937
43871	9.679642	0.793216	0.217654	0.035949	0.015667	-0.030612	76.070847	-85.290205	19.161889
43872	9.670801	0.781698	0.201238	0.041030	0.014535	-0.031925	76.082781	-85.270799	19.173924
43873	9.712561	0.837568	0.239343	0.041632	0.013488	-0.023243	76.089640	-85.256625	19.191410
43874	9.703759	0.825540	0.222978	0.042648	0.018439	-0.028643	76.071035	-85.238506	19.235073
43875	9.680052	0.877224	0.228684	0.047710	0.016946	-0.022487	76.057258	-85.224274	19.276762
43876	9.695101	0.842162	0.185430	0.043794	0.009414	-0.022799	76.090072	-85.210673	19.269337
43877	9.678883	0.861618	0.179777	0.048028	0.018464	-0.021801	76.065489	-85.196614	19.322054
43878	9.654516	0.859886	0.229778	0.037130	0.013730	-0.016983	76.056319	-85.185630	19.352850
43879	9.653633	0.841582	0.180167	0.039064	0.015793	-0.020642	76.042666	-85.172583	19.389447
43880	9.661275	0.805586	0.243254	0.041243	0.011734	-0.020195	76.054533	-85.160086	19.401802
43881	9.693465	0.799429	0.234940	0.045343	0.009394	-0.015939	76.078941	-85.150537	19.403812
43882	9.726658	0.839866	0.254758	0.053280	0.007445	-0.019159	76.124038	-85.139203	19.389906
43883	9.735316	0.882816	0.250253	0.052635	0.007938	-0.016643	76.163132	-85.129463	19.381371
43884	9.685485	0.836505	0.246917	0.047535	0.008889	-0.011602	76.183018	-85.122138	19.388931
43885	9.677518	0.875652	0.185378	0.049162	0.012981	-0.012063	76.179830	-85.114256	19.420834
43886	9.652230	0.826727	0.206401	0.043038	0.005765	-0.012964	76.219463	-85.106585	19.405621
43887	9.644573	0.859997	0.217279	0.044923	0.003912	-0.013044	76.274304	-85.099395	19.376845
43888	9.686260	0.914714	0.254080	0.044281	0.004412	-0.010528	76.319597	-85.093273	19.357143
43889	9.685849	0.889469	0.276314	0.031819	-0.000493	-0.008824	76.388620	-85.089024	19.306597
43890	9.677601	0.901919	0.236204	0.035338	0.001753	-0.009366	76.444130	-85.083883	19.272224
43891	9.693245	0.859306	0.265337	0.021986	0.003302	-0.005532	76.477634	-85.080950	19.251672
43892	9.684712	0.845145	0.247805	0.031175	0.000006	-0.006308	76.536838	-85.077756	19.209797
43893	9.677121	0.877590	0.258176	0.025422	-0.002094	-0.002636	76.602668	-85.077152	19.158776
43894	9.701306	0.881385	0.209074	0.022903	0.000423	-0.003778	76.650308	-85.075296	19.123439
43895	9.675847	0.805263	0.251856	0.022231	-0.002810	-0.001410	76.717029	-85.075462	19.069689
43896	9.683105	0.779100	0.167756	0.038780	-0.000240	0.001145	76.770894	-85.076458	19.038317
43897	9.716117	0.823434	0.113487	0.037477	-0.002805	0.002295	76.840720	-85.078680	18.990219
43898	9.740631	0.821099	0.137741	0.037921	0.010104	-0.000324	76.829333	-85.077478	19.024050
43899	9.756354	0.777615	0.167626	0.038535	0.009271	0.004630	76.818002	-85.079424	19.058017
43900	9.755437	0.730614	0.140455	0.042094	0.015410	0.000493	76.773330	-85.077967	19.127532
43901	9.723951	0.785455	0.178743	0.044343	0.018830	0.001242	76.708580	-85.076763	19.218455
43902	9.683395	0.804853	0.149245	0.041491	0.019807	-0.000585	76.636789	-85.074125	19.314396
43903	9.669096	0.916152	0.200213	0.022148	0.022118	-0.008563	76.553334	-85.066999	19.411330
43904	9.667189	0.823389	0.146171	0.005940	0.021089	-0.010441	76.468818	-85.058646	19.501101
43905	9.669118	0.944637	0.182097	0.007950	0.030763	-0.017563	76.336261	-85.045316	19.639159
43906	9.614443	1.102434	0.180335	-0.010862	0.024461	-0.013404	76.225894	-85.034867	19.744256
43907	9.591434	1.199876	0.215022	-0.050199	0.029275	-0.019397	76.073777	-85.020668	19.868510
43908	9.647176	1.144557	0.205670	-0.086816	0.021722	-0.020254	75.949597	-85.006731	19.944402
43909	9.644959	1.026285	0.175173	-0.097965	0.022946	-0.015829	75.806052	-84.995348	20.032583
43910	9.611109	0.968096	0.108468	-0.091968	0.022494	-0.011489	75.660665	-84.986163	20.124506
43911	9.579451	1.018089	0.221641	-0.088475	0.024720	-0.012029	75.506188	-84.976597	20.229122
43912	9.653755	1.084756	0.303568	-0.107940	0.022603	-0.005236	75.341995	-84.970795	20.332300
43913	9.712509	0.683007	0.208738	-0.120168	0.014966	0.008185	75.198108	-84.973801	20.408058
43914	9.733813	0.499015	0.048525	-0.069013	0.008461	0.007257	75.124602	-84.976907	20.442813
43915	9.717141	0.456827	0.161309	-0.024318	0.025326	0.005423	74.974832	-84.976827	20.579607
43916	9.701530	0.487936	0.280416	0.003970	0.018726	0.000769	74.889563	-84.974837	20.668592
43917	9.701854	0.514328	0.259552	0.016338	0.012433	-0.001367	74.855804	-84.972893	20.712312
43918	9.726204	0.512574	0.285070	0.036761	0.015574	-0.009976	74.826989	-84.965443	20.761710
43919	9.734500	0.528488	0.303640	0.055493	0.010544	-0.010812	74.843684	-84.958556	20.777302
43920	9.751521	0.591948	0.244074	0.073977	0.011778	-0.019496	74.876609	-84.946474	20.787260
43921	9.769960	0.749079	0.241102	0.080982	0.016097	-0.016830	74.883378	-84.935429	20.827478
43922	9.737731	0.785162	0.228303	0.074896	0.012608	-0.017591	74.908137	-84.924262	20.845676
43923	9.787104	0.840999	0.159692	0.068530	0.011485	-0.022622	74.946247	-84.910703	20.847267
43924	9.787591	0.889936	0.188579	0.066307	0.015357	-0.019353	74.951856	-84.898166	20.879175
43925	9.788432	0.964804	0.195444	0.062191	0.021076	-0.016014	74.915946	-84.886835	20.951435
43926	9.764827	1.035815	0.251487	0.047887	0.025324	-0.010241	74.834523	-84.877844	21.059797
43927	9.706824	0.973903	0.232496	0.022463	0.027395	-0.007674	74.723520	-84.870156	21.184601
43928	9.722724	0.957587	0.242005	0.017078	0.030724	-0.006926	74.586621	-84.862100	21.332151
43929	9.689392	0.913814	0.298290	0.002098	0.024603	-0.006543	74.479908	-84.855415	21.440935
43930	9.721324	0.880396	0.314513	-0.004563	0.025531	-0.008382	74.365657	-84.847299	21.553049
43931	9.745713	0.884344	0.268235	-0.002061	0.022864	-0.003495	74.262531	-84.842528	21.655841
43932	9.720891	0.860547	0.268618	-0.002705	0.023374	-0.000982	74.150299	-84.838823	21.766736
43933	9.663221	0.818453	0.300144	-0.003657	0.022505	-0.002886	74.047755	-84.834409	21.868026
43934	9.638225	0.773916	0.249627	-0.005617	0.016727	0.000632	73.971826	-84.832576	21.941199
43935	9.646080	0.762771	0.291087	0.001379	0.013908	-0.004455	73.927485	-84.828636	21.986947
43936	9.637312	0.722059	0.297239	0.013745	0.011183	-0.002673	73.902156	-84.825894	22.019653
43937	9.637430	0.743106	0.348422	0.022294	0.004833	-0.004774	73.925600	-84.823217	22.009372
43938	9.630602	0.848735	0.364821	0.038512	0.006038	-0.006576	73.952717	-84.819132	22.004764
43939	9.622973	0.901973	0.425932	0.046091	0.002241	-0.002969	74.002345	-84.817858	21.981882
43940	9.616029	0.986577	0.390954	0.044128	-0.003539	0.000552	74.078521	-84.819176	21.932385
43941	9.649367	1.030683	0.336183	0.040553	-0.009824	0.008416	74.178649	-84.826062	21.855610
43942	9.673894	1.012434	0.235458	0.034154	-0.014980	0.010710	74.301073	-84.834751	21.752032
43943	9.682754	1.052447	0.228614	0.031289	-0.014160	0.012607	74.415773	-84.844590	21.655299
43944	9.691671	1.092019	0.221685	0.017576	-0.018017	0.019306	74.533764	-84.858441	21.547502
43945	9.707344	1.026145	0.199006	-0.000830	-0.015168	0.020637	74.623555	-84.872836	21.457305
43946	9.722995	0.960081	0.176712	-0.005586	-0.012499	0.022600	74.689765	-84.887628	21.387889
43947	9.641910	0.964638	0.208660	-0.015745	-0.010226	0.025167	74.733677	-84.903761	21.335178
43948	9.698632	0.925186	0.246093	-0.021851	-0.010566	0.039487	74.750573	-84.927587	21.305219
43949	9.673376	0.845352	0.288475	-0.032953	-0.012592	0.032545	74.787475	-84.948151	21.249649
43950	9.673691	0.842111	0.287368	-0.036798	-0.016374	0.032402	74.845064	-84.968924	21.171098
43951	9.639722	0.726815	0.261494	-0.032985	-0.012759	0.036280	74.877484	-84.991570	21.120013
43952	9.712804	0.696213	0.282569	-0.022870	-0.022354	0.029694	74.986583	-85.011715	20.997729
43953	9.697187	0.716033	0.200656	-0.007280	-0.020508	0.026655	75.100543	-85.030165	20.879583
43954	9.713854	0.722401	0.183324	-0.006302	-0.015911	0.028699	75.181354	-85.048764	20.795068
43955	9.706470	0.751896	0.192255	0.000061	-0.018076	0.022386	75.292726	-85.064459	20.683748
43956	9.690146	0.735216	0.279287	-0.002456	-0.015563	0.021233	75.387608	-85.078873	20.587938
43957	9.665141	0.688595	0.225370	-0.002786	-0.017098	0.020552	75.495428	-85.093375	20.478550
43958	9.690531	0.731383	0.275974	0.006746	-0.018714	0.016752	75.624463	-85.105718	20.353393
43959	9.667158	0.778930	0.277706	0.010228	-0.020211	0.016073	75.768695	-85.118132	20.214949
43960	9.666479	0.730593	0.247570	0.017522	-0.021671	0.015394	75.926667	-85.130096	20.066673
43961	9.667963	0.802234	0.250689	0.013049	-0.024777	0.014032	76.107170	-85.141941	19.893453
43962	9.668147	0.806352	0.174959	0.011418	-0.028868	0.014503	76.311903	-85.154317	19.694905
43963	9.693155	0.829044	0.173947	0.013356	-0.026828	0.010838	76.512946	-85.164558	19.501254
43964	9.693725	0.854190	0.148940	0.003547	-0.022850	0.010368	76.681872	-85.173735	19.333916
43965	9.727162	0.891947	0.165816	-0.002190	-0.024773	0.010300	76.862784	-85.183303	19.151534
43966	9.702940	0.887628	0.212316	-0.008532	-0.022448	0.012885	77.019301	-85.193748	18.988463
43967	9.678665	0.888635	0.185862	-0.014270	-0.024372	0.012818	77.188228	-85.204583	18.811168
43968	9.662436	0.878161	0.199306	-0.018101	-0.024567	0.016555	77.349623	-85.217221	18.639277
43969	9.654285	0.856007	0.252846	-0.010457	-0.020920	0.020424	77.487925	-85.231797	18.494913
43970	9.653980	0.833140	0.199753	-0.014112	-0.034532	0.024281	77.708908	-85.249926	18.264436
43971	9.644738	0.769080	0.151243	-0.002640	-0.030695	0.024410	77.914129	-85.267833	18.057424
43972	9.677936	0.779315	0.189980	0.004357	-0.029961	0.023180	78.119743	-85.284654	17.853597
43973	9.702026	0.754063	0.160562	0.006530	-0.034021	0.023647	78.357099	-85.302395	17.619625
43974	9.743130	0.758458	0.165834	0.008452	-0.032140	0.023714	78.582371	-85.319641	17.398435
43975	9.735500	0.762096	0.195624	0.005563	-0.034893	0.021747	78.831267	-85.336254	17.152339
43976	9.735461	0.765434	0.119391	0.009748	-0.029592	0.022560	79.044636	-85.352407	16.944415
43977	9.706419	0.917727	0.136264	0.020570	-0.028670	0.017582	79.267774	-85.365848	16.732799
43978	9.750913	1.063512	0.226581	0.002669	-0.012688	0.012612	79.375185	-85.374497	16.627170
43979	9.761841	1.139188	0.394211	-0.055229	-0.019964	0.011239	79.504198	-85.383366	16.466421
43980	9.821110	0.950122	0.043495	-0.106583	-0.032443	0.022749	79.674989	-85.399741	16.233903
43981	9.745611	0.824592	0.082324	-0.088142	-0.006504	0.010595	79.692916	-85.406811	16.165686
43982	9.699023	0.889535	0.185050	-0.108425	-0.023007	0.019368	79.802593	-85.420227	15.994632
43983	9.752498	0.768654	0.019269	-0.116671	-0.018694	0.018314	79.880957	-85.432867	15.849388
43984	9.761599	0.775882	0.108991	-0.118248	-0.015175	0.015342	79.935652	-85.443177	15.726354
43985	9.802647	0.780706	0.117052	-0.123033	-0.012537	0.017335	79.968986	-85.454626	15.622630
43986	9.745123	0.769245	0.050882	-0.126609	-0.014822	0.017877	80.014539	-85.466361	15.505006
43987	9.718618	0.670611	0.043050	-0.127770	-0.002467	0.019642	79.971147	-85.478104	15.475531
43988	9.629560	0.655067	0.132780	-0.121132	-0.003288	0.017716	79.937957	-85.488566	15.439791
43989	9.659005	0.525530	0.089053	-0.103412	-0.009436	0.018642	79.959715	-85.500443	15.358963
43990	9.635851	0.572863	0.093257	-0.082664	-0.005166	0.018135	79.962022	-85.511387	15.309927
43991	9.694121	0.639715	0.041518	-0.069018	-0.008938	0.014807	80.005258	-85.521047	15.227324
43992	9.653723	0.625311	0.105842	-0.051396	-0.001628	0.015693	80.003501	-85.530237	15.201053
43993	9.671520	0.679294	0.118610	-0.048655	-0.010115	0.017179	80.064369	-85.541346	15.112470
43994	9.693979	0.608633	0.062785	-0.035514	-0.005710	0.012964	80.104808	-85.549419	15.052056
43995	9.714000	0.762383	0.059919	-0.035518	-0.005714	0.012964	80.147167	-85.557706	14.989589
43996	9.731371	0.790106	0.094892	-0.038386	-0.004909	0.014881	80.178000	-85.566774	14.936922
43997	9.683283	0.814054	0.097667	-0.039887	0.002207	0.015831	80.156825	-85.575901	14.935671
43998	9.692046	0.827011	0.115764	-0.049493	0.000230	0.015776	80.142917	-85.584962	14.921764
43999	9.683554	0.810718	0.098590	-0.057174	-0.000053	0.019532	80.123607	-85.596400	14.908708
44000	9.683254	0.782033	0.121305	-0.060975	0.003441	0.023447	80.070020	-85.609481	14.928692
44001	9.692545	0.820904	0.117432	-0.064574	-0.002366	0.020074	80.062695	-85.621455	14.899364
44002	9.676821	0.836068	0.111764	-0.072441	0.007031	0.023657	79.975275	-85.634330	14.945559
44003	9.651060	0.790357	0.060038	-0.082693	0.005723	0.022385	79.894477	-85.646802	14.979506
44004	9.675781	0.785154	0.085255	-0.091703	0.003045	0.023537	79.825258	-85.659986	14.997115
44005	9.674949	0.729598	0.130085	-0.100080	-0.000121	0.022168	79.777694	-85.672923	14.987742
44006	9.657284	0.671848	0.117418	-0.098163	0.001744	0.022252	79.715330	-85.685516	14.993440
44007	9.648763	0.655320	0.100479	-0.089877	0.001329	0.019709	79.665829	-85.696920	14.991871
44008	9.674882	0.696430	0.154258	-0.081940	-0.000815	0.020201	79.634803	-85.708615	14.976555
44009	9.658236	0.692109	0.097397	-0.067885	0.000298	0.025198	79.597906	-85.723219	14.974983
44010	9.692543	0.720414	0.190754	-0.069492	0.000131	0.022077	79.564340	-85.735860	14.970056
44011	9.667646	0.694225	0.188921	-0.064433	-0.001424	0.028220	79.538031	-85.752345	14.959851
44012	9.683695	0.674078	0.195449	-0.064147	-0.003435	0.024998	79.530024	-85.766986	14.931779
44013	9.715037	0.609704	0.229944	-0.054885	-0.003206	0.028097	79.522922	-85.783588	14.907800
44014	9.706120	0.600269	0.138934	-0.039629	-0.010293	0.023939	79.583316	-85.798388	14.824847
44015	9.725771	0.699089	0.181601	-0.035689	-0.002994	0.028044	79.586073	-85.814936	14.802012
44016	9.709556	0.687050	0.196915	-0.040224	-0.006095	0.026652	79.610380	-85.830855	14.753834
44017	9.716484	0.660125	0.112155	-0.033528	-0.007067	0.028450	79.645706	-85.848051	14.699585
44018	9.710143	0.715792	0.101498	-0.028723	-0.006192	0.030350	79.673074	-85.866024	14.656473
44019	9.711948	0.758996	0.130476	-0.032554	-0.006019	0.026630	79.704061	-85.882082	14.607136
44020	9.697934	0.819945	0.153339	-0.043107	-0.005099	0.024844	79.723339	-85.896877	14.563785
44021	9.680103	0.762134	0.139396	-0.054306	-0.003715	0.025582	79.725726	-85.912107	14.530629
44022	9.703227	0.710108	0.133996	-0.061748	-0.006254	0.029843	79.736852	-85.929859	14.484595
44023	9.668933	0.642697	0.135295	-0.055660	-0.006317	0.026698	79.757885	-85.945983	14.431970
44024	9.711744	0.691979	0.173259	-0.042452	-0.002086	0.026251	79.752345	-85.961222	14.414490
44025	9.663284	0.688073	0.197791	-0.044502	-0.007953	0.029688	79.789056	-85.979196	14.352558
44026	9.694672	0.657861	0.136933	-0.028773	-0.006260	0.030344	79.819640	-85.997193	14.306981
44027	9.688492	0.713316	0.126506	-0.024950	-0.006452	0.034063	79.849956	-86.017478	14.262694
44028	9.663576	0.686183	0.123372	-0.021562	-0.012140	0.040606	79.917187	-86.041805	14.182655
44029	9.715580	0.783094	0.084017	-0.017007	-0.008824	0.038272	79.966410	-86.064696	14.123980
44030	9.750553	0.843679	0.082050	-0.030470	-0.007341	0.042149	79.989059	-86.089440	14.084262
44031	9.716233	0.775022	0.083270	-0.047696	-0.001929	0.042511	79.958316	-86.114033	14.088116
44032	9.748081	0.735634	0.095987	-0.059187	0.001675	0.042753	79.888409	-86.138200	14.124169
44033	9.710424	0.567233	0.111619	-0.066833	0.005317	0.042984	79.784346	-86.162326	14.190520
44034	9.727106	0.572536	0.096911	-0.061434	0.002211	0.038424	79.713888	-86.183971	14.226564
44035	9.719654	0.573663	0.130827	-0.065278	0.002397	0.034705	79.646475	-86.203719	14.257074
44036	9.709883	0.537573	0.062209	-0.061764	0.001146	0.030254	79.596185	-86.220910	14.271384
44037	9.693574	0.525297	0.078457	-0.058397	0.009349	0.029455	79.480549	-86.236970	14.354172
44038	9.689455	0.627012	0.099489	-0.056569	0.003997	0.025402	79.416396	-86.251093	14.387426
44039	9.740933	0.698345	0.084177	-0.067349	0.010887	0.023337	79.290876	-86.263528	14.474976
44040	9.730749	0.627843	0.110382	-0.075875	0.003765	0.025459	79.216440	-86.277697	14.507112
44041	9.697564	0.614909	0.069398	-0.079053	0.006745	0.026891	79.112926	-86.292560	14.565887
44042	9.698877	0.630919	0.121810	-0.076186	0.005950	0.024963	79.019069	-86.306255	14.616287
44043	9.680596	0.573280	0.108429	-0.078744	0.008229	0.027602	78.900292	-86.321341	14.690531
44044	9.649724	0.597355	0.170248	-0.069154	0.006449	0.027464	78.800395	-86.336334	14.751381
44045	9.680905	0.567705	0.110147	-0.068084	-0.002442	0.029433	78.777077	-86.353623	14.736089
44046	9.671065	0.532490	0.041101	-0.057060	0.002112	0.028416	78.719688	-86.369622	14.761295
44047	9.692890	0.648576	0.137601	-0.045216	0.000010	0.028873	78.688436	-86.386322	14.767083
44048	9.708420	0.636391	0.071343	-0.047445	0.003550	0.035959	78.609555	-86.406396	14.819305
44049	9.669307	0.681786	0.020667	-0.041321	0.003514	0.032814	78.541321	-86.424912	14.864384
44050	9.729776	0.170490	-0.148092	-0.043537	-0.017125	0.054673	78.616338	-86.457844	14.764619
44051	9.746470	0.931292	0.182640	0.056302	0.027365	-0.002914	78.452783	-86.453579	14.961240
44052	9.730511	0.910112	0.272854	-0.087967	0.014348	0.062962	78.199164	-86.487558	15.165291
44053	9.756946	0.397516	-0.009668	-0.061507	-0.006943	0.027250	78.222829	-86.504159	15.106706
44054	9.774637	0.581108	0.202839	-0.051219	0.024373	0.036617	77.944215	-86.522123	15.356748
44055	9.729563	0.481395	0.135308	-0.032372	0.002416	0.031465	77.888913	-86.539981	15.394002
44056	9.758159	0.573995	0.148115	-0.036912	0.016236	0.034202	77.694659	-86.557492	15.567775
44057	9.730791	0.501847	0.116796	-0.025709	0.014564	0.037185	77.516108	-86.577044	15.732322
44058	9.749405	0.561985	0.060766	-0.027255	0.017921	0.038022	77.299832	-86.596425	15.933725
44059	9.771902	0.509126	0.056535	-0.032329	0.019560	0.031896	77.077586	-86.612316	16.138238
44060	9.758824	0.560416	0.156060	-0.029498	0.028747	0.026215	76.779049	-86.623602	16.420702
44061	9.716726	0.534300	0.098728	-0.048576	0.026328	0.026741	76.490894	-86.635605	16.681908
44062	9.746974	0.469082	0.134610	-0.052379	0.026827	0.019291	76.209801	-86.643131	16.933895
44063	9.754884	0.453713	0.176724	-0.053359	0.026012	0.017369	75.940651	-86.649815	17.173313
44064	9.746173	0.429141	0.233930	-0.049196	0.024097	0.014118	75.697483	-86.654714	17.389133
44065	9.688461	0.422072	0.170269	-0.045993	0.024559	0.016638	75.446338	-86.661076	17.614741
44066	9.671883	0.411255	0.187927	-0.029557	0.022335	0.010844	75.237762	-86.664319	17.807051
44067	9.640779	0.445846	0.178253	-0.015441	0.019893	0.011910	75.059021	-86.668650	17.977664
44068	9.626284	0.490082	0.153233	-0.000537	0.021034	0.006960	74.888603	-86.669869	18.148497
44069	9.694886	0.572307	0.124658	0.004214	0.018142	0.008640	74.745529	-86.672598	18.294663
44070	9.683687	0.679893	0.181285	-0.001284	0.017729	0.009248	74.599894	-86.675546	18.440174
44071	9.699253	0.670275	0.116438	-0.019319	0.019851	0.011909	74.417936	-86.679772	18.611782
44072	9.704930	0.610101	0.127302	-0.025830	0.018354	0.014320	74.238086	-86.685355	18.777547
44073	9.713833	0.622521	0.147422	-0.031288	0.018219	0.011197	74.065777	-86.689383	18.932620
44074	9.752729	0.581253	0.127975	-0.036090	0.020825	0.013244	73.858518	-86.693921	19.120034
44075	9.702872	0.551806	0.175785	-0.039923	0.021064	0.009518	73.657984	-86.696507	19.298421
44076	9.707373	0.464226	0.207972	-0.041914	0.022339	0.017095	73.421045	-86.702833	19.512153
44077	9.713045	0.413207	0.146175	-0.033949	0.016743	0.013603	73.252581	-86.708296	19.661844
44078	9.752940	0.390030	0.178009	-0.018018	0.018974	0.006866	73.089490	-86.709496	19.815208
44079	9.707404	0.460946	0.213737	-0.010624	0.017540	0.006143	72.947785	-86.710690	19.951482
44080	9.721885	0.424745	0.169815	-0.006704	0.017862	0.002414	72.814737	-86.709602	20.081408
44081	9.715180	0.456057	0.183969	0.003020	0.019823	0.002536	72.669728	-86.708396	20.228821
44082	9.699634	0.473864	0.179994	-0.006308	0.019655	-0.000592	72.529033	-86.705328	20.366638
44083	9.740753	0.488585	0.118281	-0.006310	0.019654	-0.000592	72.389997	-86.702401	20.502715
44084	9.722893	0.452234	0.156460	-0.008458	0.020559	-0.008650	72.264382	-86.694741	20.624164
44085	9.708463	0.498320	0.131463	-0.010438	0.018673	-0.008772	72.157750	-86.687489	20.725415
44086	9.754923	0.445624	0.151156	-0.012286	0.020802	-0.012380	72.040081	-86.677729	20.836670
44087	9.714781	0.459610	0.195801	-0.006120	0.020790	-0.015503	71.937659	-86.666412	20.936184
44088	9.724622	0.502041	0.195184	-0.001550	0.023847	-0.014054	71.804272	-86.655185	21.069338
44089	9.686479	0.561565	0.270618	0.004665	0.024121	-0.020903	71.695161	-86.640308	21.181746
44090	9.693308	0.541438	0.187647	-0.001669	0.016671	-0.018269	71.642663	-86.628046	21.233904
44091	9.652207	0.537784	0.180548	0.010062	0.023964	-0.014042	71.518629	-86.616907	21.364361
44092	9.695074	0.589784	0.222242	0.010029	0.020518	-0.018013	71.437777	-86.604075	21.451573
44093	9.704004	0.614504	0.169674	0.006371	0.017972	-0.013810	71.367145	-86.594133	21.526418
44094	9.695961	0.620168	0.204785	0.009012	0.019430	-0.016211	71.291174	-86.582471	21.608013
44095	9.693852	0.576269	0.176194	0.008024	0.021789	-0.010439	71.177423	-86.573642	21.727005
44096	9.743459	0.596385	0.205404	0.006366	0.017968	-0.013811	71.106905	-86.563533	21.801691
44097	9.684541	0.555663	0.234083	0.004389	0.016082	-0.013935	71.054374	-86.553849	21.857268
44098	9.692375	0.552736	0.202307	0.009223	0.016924	-0.012002	70.990060	-86.544909	21.927362
44099	9.683153	0.530955	0.258459	0.017095	0.021017	-0.015474	70.906059	-86.533462	22.021761
44100	9.681883	0.504984	0.280970	0.021030	0.011105	-0.011741	70.900335	-86.525739	22.040003
44101	9.723133	0.520978	0.218356	0.026183	0.010011	-0.013054	70.912724	-86.517660	22.043053
44102	9.674120	0.521279	0.243526	0.027538	0.012601	-0.014134	70.904796	-86.508364	22.067207
44103	9.690718	0.532081	0.229247	0.032562	0.007500	-0.011958	70.939725	-86.501350	22.051336
44104	9.666370	0.537648	0.205578	0.040352	0.007860	-0.015670	70.985680	-86.492110	22.028832
44105	9.726940	0.626562	0.209292	0.033146	0.003338	-0.014722	71.065795	-86.484372	21.968025
44106	9.676775	0.599654	0.254787	0.033487	0.004844	-0.014000	71.128926	-86.476593	21.924403
44107	9.718758	0.633856	0.242887	0.022466	0.000558	-0.016788	71.232955	-86.468238	21.833505
44108	9.699389	0.562583	0.176133	0.022486	0.004007	-0.012822	71.293139	-86.461249	21.786597
44109	9.613142	0.648089	0.252398	0.019971	0.006553	-0.013912	71.333961	-86.453341	21.757592
44110	9.595246	0.612805	0.288077	0.015660	-0.015850	-0.015342	71.571005	-86.448581	21.529696
44111	9.904681	0.612055	0.075224	0.023294	-0.002645	-0.011371	71.686082	-86.443706	21.428201
44112	9.605667	0.674202	0.335612	0.021145	0.004863	-0.007777	71.722332	-86.439279	21.404643
44113	9.736121	0.677853	0.204894	0.007497	-0.014547	-0.004654	71.912745	-86.440168	21.218598
44114	9.731324	0.560344	0.164175	0.017621	-0.007340	-0.003560	72.041184	-86.440185	21.100230
44115	9.777068	0.683744	0.212106	0.018875	-0.005298	0.002813	72.136035	-86.443460	21.016463
44116	9.709653	0.627757	0.220626	0.015745	-0.002046	0.000517	72.205587	-86.444747	20.956007
44117	9.692256	0.600208	0.183879	0.009905	-0.003974	0.000388	72.290724	-86.446453	20.876825
44118	9.682454	0.559111	0.186371	0.014389	-0.004637	0.001600	72.379667	-86.448772	20.796679
44119	9.665065	0.531351	0.149504	0.019216	-0.003790	0.003533	72.459933	-86.452149	20.727722
44120	9.655258	0.490370	0.151757	0.027247	-0.009107	-0.003657	72.610421	-86.452352	20.593137
44121	9.771601	0.547504	0.117621	0.032761	-0.005238	-0.000287	72.722037	-86.453869	20.500545
44122	9.753829	0.510886	0.153246	0.034999	-0.005573	0.000319	72.834854	-86.455605	20.408037
44123	9.699917	0.586896	0.219709	0.034600	0.006310	-0.000190	72.845326	-86.455205	20.417840
44124	9.716583	0.596464	0.204374	0.026300	-0.006467	-0.001617	72.966359	-86.456022	20.312003
44125	9.723447	0.564927	0.191724	0.017975	-0.002387	0.001122	73.040695	-86.457799	20.248275
44126	9.740120	0.574460	0.176050	0.025681	-0.005766	-0.002823	73.158406	-86.457826	20.145075
44127	9.708974	0.610375	0.163604	0.011990	0.001900	-0.002990	73.202448	-86.456625	20.108263
44128	9.707100	0.565337	0.133246	0.017061	-0.002928	-0.004530	73.294717	-86.455234	20.025767
44129	9.716884	0.606831	0.129985	0.011028	0.001091	-0.004914	73.350398	-86.453105	19.976741
44130	9.693316	0.629700	0.157057	0.013244	-0.002702	-0.008266	73.448545	-86.449620	19.886738
44131	9.651237	0.597700	0.169079	0.005538	0.000679	-0.004322	73.503007	-86.447875	19.835782
44132	9.749760	0.618486	0.172042	0.004578	-0.000130	-0.006245	73.567749	-86.445047	19.774219
44133	9.707689	0.586406	0.184177	-0.006401	-0.000954	-0.005060	73.631603	-86.443154	19.707000
44134	9.731194	0.564675	0.156899	-0.006401	-0.000954	-0.005060	73.693995	-86.441094	19.641392
44135	9.745657	0.520047	0.184189	-0.007065	-0.000517	-0.002537	73.746968	-86.440509	19.584692
44136	9.697824	0.546512	0.187367	0.003986	0.004035	-0.003493	73.766934	-86.438522	19.567087
44137	9.739832	0.579502	0.175465	0.005882	0.002191	-0.003604	73.806070	-86.436913	19.531684
44138	9.699603	0.592768	0.217808	0.004849	-0.002345	-0.005756	73.888668	-86.434709	19.451739
44139	9.684343	0.619990	0.139110	0.001745	0.004366	-0.004100	73.907397	-86.432477	19.434408
44140	9.676353	0.624758	0.172695	0.004257	0.001819	-0.003005	73.945916	-86.431114	19.398716
44141	9.701693	0.648280	0.176006	0.004329	0.005547	-0.002776	73.952295	-86.429423	19.395242
44142	9.725959	0.644399	0.200540	0.002584	0.001181	0.001324	73.984625	-86.430544	19.364994
44143	9.725977	0.644094	0.200625	0.002536	0.000914	0.005053	74.011043	-86.433897	19.340412
44144	9.685071	0.638093	0.191623	-0.008442	0.000090	0.006238	74.034315	-86.437877	19.313101
44145	9.718456	0.656105	0.161343	-0.004627	-0.000137	0.009974	74.053583	-86.444105	19.291572
44146	9.734100	0.637242	0.167493	-0.007532	0.000631	0.011890	74.058123	-86.451132	19.282680
44147	9.686365	0.662250	0.170613	-0.015262	0.000550	0.011876	74.060468	-86.458299	19.272001
44148	9.711832	0.684155	0.173578	-0.013761	-0.003074	0.014776	74.087190	-86.467495	19.237283
44149	9.703241	0.668692	0.155318	-0.019573	-0.001539	0.018609	74.088696	-86.478700	19.224970
44150	9.702627	0.648492	0.103851	-0.021865	-0.001477	0.021731	74.079200	-86.491445	19.222807
44151	9.700532	0.591963	0.146391	-0.018273	0.000776	0.021251	74.053841	-86.503742	19.238156
44152	9.709382	0.603513	0.164828	-0.018596	0.002720	0.024492	74.001066	-86.517375	19.280900
44153	9.684490	0.587050	0.089387	-0.021529	0.000028	0.022449	73.977115	-86.530448	19.292969
44154	9.723316	0.535434	0.141079	-0.018037	0.001739	0.029426	73.919666	-86.546908	19.340534
44155	9.690086	0.513991	0.171681	-0.018604	0.002713	0.024492	73.866990	-86.560677	19.383059
44156	9.708057	0.548103	0.135535	-0.015482	-0.000545	0.026790	73.838502	-86.576093	19.403245
44157	9.716927	0.559427	0.153837	-0.013461	0.001607	0.023182	73.801807	-86.589315	19.432712
44158	9.732577	0.539331	0.160235	-0.017599	0.003785	0.022688	73.742344	-86.601763	19.482429
44159	9.754216	0.469486	0.103106	-0.015361	0.003448	0.023294	73.686541	-86.614748	19.529945
44160	9.797252	0.517730	0.142921	-0.008295	0.003952	0.025832	73.621522	-86.628866	19.591115
44161	9.580194	0.579987	0.101136	-0.004485	0.007301	0.010440	73.570525	-86.634157	19.640057
44162	9.776778	0.041782	0.183342	-0.029562	0.008790	0.033597	73.425401	-86.651780	19.768632
44163	9.723143	0.302788	0.010849	0.101436	-0.008632	-0.009758	73.640328	-86.648557	19.611988
44164	9.867082	0.985318	0.278768	0.028458	0.043438	0.015231	73.253696	-86.650420	20.015493
44165	9.656711	0.459066	0.157152	-0.003073	0.010166	0.005621	73.189390	-86.652574	20.078576
44166	9.616523	0.098664	0.088498	-0.034282	0.008523	0.024194	73.068487	-86.665072	20.180306
44167	9.768497	0.219186	0.056050	0.085203	0.008330	-0.022431	73.151771	-86.652146	20.146212
44168	9.606453	0.803038	0.317683	0.066925	0.036431	-0.008238	72.919951	-86.642232	20.416186
44169	9.680184	0.622981	0.092492	0.027076	0.003688	0.004026	72.937946	-86.644583	20.414132
44170	9.772423	0.497813	0.078667	0.029177	0.019769	-0.006843	72.836703	-86.638186	20.531411
44171	9.797615	0.707896	0.237094	0.015456	0.010337	-0.007449	72.819071	-86.633131	20.558376
44172	9.686302	0.584199	0.156552	0.007859	0.014265	-0.010971	72.769114	-86.625371	20.611954
44173	9.731028	0.681293	0.227633	-0.009817	0.017925	-0.007665	72.667565	-86.618903	20.708476
44174	9.720295	0.622893	0.181009	-0.018849	0.015541	-0.010329	72.589915	-86.611261	20.775916
44175	9.722637	0.492122	0.183028	-0.031439	0.017820	-0.004601	72.468792	-86.606467	20.879638
44176	9.715625	0.329197	0.115551	-0.007852	0.019801	-0.007542	72.350372	-86.599587	20.993146
44177	9.685897	0.401956	0.208317	0.022471	0.024234	-0.004695	72.202281	-86.593596	21.154828
44178	9.697609	0.479398	0.112966	0.032154	0.012520	-0.001018	72.156217	-86.591573	21.220887
44179	9.699468	0.525031	0.144487	0.045173	0.018926	-0.001838	72.061880	-86.588046	21.341752
44180	9.659125	0.538341	0.188362	0.050042	0.020026	-0.003630	71.964795	-86.583252	21.467820
44181	9.679556	0.639083	0.235015	0.046097	0.016262	-0.003870	71.901806	-86.579070	21.557812
44182	9.663990	0.657510	0.229960	0.031238	0.011965	-0.006672	71.876622	-86.574036	21.600475
44183	9.712916	0.659072	0.206813	0.019306	0.010355	-0.007430	71.862898	-86.568963	21.625736
44184	9.720259	0.646704	0.247112	0.001948	0.008611	-0.011335	71.865480	-86.561955	21.624356
44185	9.728263	0.642953	0.214756	0.001560	0.010294	-0.004368	71.833156	-86.558559	21.658065
44186	9.684777	0.583814	0.249471	-0.003112	0.016902	-0.005858	71.742348	-86.553016	21.748954
44187	9.718229	0.602877	0.220422	0.002441	0.007377	-0.002668	71.732001	-86.551065	21.761153
44188	9.691530	0.552658	0.239600	-0.007508	0.011105	0.000644	71.671692	-86.550068	21.818817
44189	9.658684	0.542798	0.197961	0.005289	0.006338	-0.000848	71.666954	-86.549293	21.827031
44190	9.693331	0.597860	0.271284	0.003617	0.009164	0.007431	71.609505	-86.552382	21.886246
44191	9.689715	0.506115	0.211443	0.009841	-0.000799	0.008101	71.644994	-86.557761	21.856773
44192	9.667413	0.555106	0.217046	0.008947	-0.001342	0.002447	71.701136	-86.560082	21.806281
44193	9.740625	0.551375	0.217153	0.012689	-0.001839	0.009921	71.742445	-86.566636	21.772612
44194	9.700997	0.572733	0.186555	0.015177	0.002341	-0.000431	71.776889	-86.566735	21.745985
44195	9.750024	0.573375	0.162394	-0.001757	-0.004355	0.004102	71.850348	-86.570568	21.671816
44196	9.713420	0.481846	0.183593	0.008335	-0.000640	0.001239	71.903400	-86.572065	21.623886
44197	9.740122	0.532008	0.165090	0.008604	-0.002853	0.001731	71.976406	-86.574330	21.556119
44198	9.738862	0.504844	0.186229	0.017070	0.000494	-0.000536	72.029093	-86.574718	21.511967
44199	9.728933	0.463766	0.189447	0.022837	0.002138	0.003328	72.060193	-86.576965	21.494352
44200	9.680635	0.471218	0.140905	0.036323	0.003844	0.007222	72.070188	-86.580926	21.504063
44201	9.704805	0.466957	0.165460	0.038676	0.004029	0.000376	72.101873	-86.581229	21.494951
44202	9.700523	0.552790	0.134766	0.053096	0.003075	0.002243	72.143156	-86.582624	21.482697
44203	9.679360	0.638934	0.243314	0.045382	0.006473	0.006161	72.139337	-86.585652	21.513003
44204	9.704240	0.643277	0.195149	0.029930	0.002888	0.002150	72.170250	-86.586974	21.500226
44205	9.695579	0.629280	0.177198	0.017741	0.003502	0.000894	72.193259	-86.587651	21.487790
44206	9.735219	0.607472	0.208138	0.010365	0.004955	0.001576	72.194831	-86.588340	21.490591
44207	9.719179	0.606530	0.150734	0.005421	0.000135	0.003149	72.234999	-86.590836	21.453895
44208	9.685658	0.587685	0.181347	0.005566	0.007582	0.003585	72.204674	-86.592155	21.487897
44209	9.692494	0.555628	0.169917	0.005762	0.001646	0.003863	72.229137	-86.594777	21.467128
44210	9.699325	0.523712	0.158185	0.011916	0.001595	0.000762	72.265638	-86.595622	21.437748
44211	9.699342	0.523354	0.158356	0.020863	0.003712	0.007160	72.270174	-86.599681	21.445610
44212	9.717987	0.577632	0.173326	0.026001	0.002592	0.005866	72.290363	-86.603116	21.440019
44213	9.735355	0.604778	0.209628	0.023704	0.002670	0.008983	72.300773	-86.608352	21.443627
44214	9.728038	0.616949	0.170371	0.013424	0.004908	0.011570	72.275178	-86.614508	21.475351
44215	9.679072	0.615206	0.194706	0.009225	0.003369	0.010841	72.265294	-86.620636	21.490977
44216	9.651840	0.545242	0.161961	0.006856	-0.000274	0.013741	72.278116	-86.628862	21.482486
44217	9.684162	0.535414	0.153047	0.017815	0.000505	0.012580	72.294528	-86.636439	21.476702
44218	9.686100	0.579836	0.183032	0.023977	0.003914	0.013425	72.279323	-86.643759	21.506283
44219	9.677509	0.564548	0.164947	0.021264	-0.001239	0.015614	72.304985	-86.653295	21.493212
44220	9.710412	0.573101	0.207270	0.015515	0.000584	0.015697	72.308804	-86.662436	21.497922
44221	9.717295	0.539727	0.195366	0.018964	-0.001160	0.018730	72.323233	-86.673660	21.494783
44222	9.734172	0.547288	0.180179	0.017477	0.002455	0.015812	72.310751	-86.682562	21.518121
44223	9.703349	0.581352	0.167606	0.008408	-0.000168	0.016874	72.315365	-86.692599	21.518756
44224	9.700187	0.507225	0.159092	0.006506	-0.001786	0.013030	72.344207	-86.700698	21.492755
44225	9.725739	0.528941	0.161804	0.008065	-0.001680	0.016162	72.365239	-86.710610	21.476748
44226	9.715780	0.486641	0.165286	0.011792	0.004533	0.012164	72.339238	-86.717138	21.507236
44227	9.724528	0.499282	0.183701	-0.002412	0.003041	0.014519	72.314256	-86.725332	21.531306
44228	9.740034	0.480145	0.190173	0.006236	0.000424	0.012531	72.323980	-86.732761	21.525101
44229	9.726591	0.542604	0.213598	0.006566	-0.001533	0.009300	72.363771	-86.738901	21.489444
44230	9.726650	0.541583	0.213532	0.004004	0.000764	0.011918	72.371383	-86.745927	21.485415
44231	9.687146	0.562166	0.182801	0.002037	-0.001108	0.011803	72.397076	-86.753359	21.461281
44232	9.687224	0.560914	0.182526	0.001287	-0.004385	0.014109	72.446234	-86.762530	21.413500
44233	9.664546	0.590423	0.136322	-0.002226	-0.002895	0.014805	72.477905	-86.771908	21.380931
44234	9.702229	0.521479	0.136767	0.006356	-0.005772	0.016547	72.535959	-86.782613	21.326279
44235	9.723084	0.620523	0.180982	0.007184	0.001227	0.014453	72.534377	-86.791087	21.332418
44236	9.698314	0.614268	0.229018	-0.003454	-0.008195	0.023860	72.589469	-86.806178	21.277154
44237	9.721980	0.589382	0.201558	-0.007839	-0.003789	0.022846	72.602814	-86.820101	21.259720
44238	9.728190	0.536735	0.138107	-0.004329	-0.005282	0.022150	72.633555	-86.833779	21.225643
44239	9.755883	0.603126	0.170521	-0.008172	-0.001835	0.026077	72.617618	-86.849134	21.237346
44240	9.696258	0.540423	0.146384	-0.020494	-0.005168	0.028336	72.619183	-86.866179	21.223394
44241	9.727223	0.501843	0.158914	-0.015873	0.001590	0.029989	72.551935	-86.883085	21.282064
44242	9.669611	0.484623	0.165001	-0.008509	0.000111	0.029309	72.504297	-86.899751	21.325178
44243	9.687991	0.517990	0.128390	-0.011087	-0.001057	0.027984	72.471800	-86.916012	21.351791
44244	9.718913	0.479520	0.140749	-0.007317	-0.004767	0.027785	72.478621	-86.932674	21.341304
44245	9.695598	0.499375	0.167411	-0.010486	-0.001766	0.029194	72.449385	-86.949718	21.364995
44246	9.700928	0.437743	0.176870	-0.012458	-0.003637	0.029079	72.437156	-86.966872	21.370338
44247	9.740566	0.412972	0.207105	-0.004488	-0.005825	0.029607	72.451594	-86.984843	21.353735
44248	9.699747	0.404895	0.197370	0.004172	-0.004996	0.031561	72.454025	-87.003592	21.352370
44249	9.732826	0.401728	0.115030	0.007058	-0.009250	0.025709	72.524276	-87.020023	21.286503
44250	9.694872	0.458447	0.186603	0.016651	0.002302	0.025786	72.477806	-87.034408	21.343412
44251	9.709635	0.419198	0.141504	0.020953	-0.002379	0.030526	72.467853	-87.052287	21.365829
44252	9.726584	0.425752	0.125982	0.016887	-0.003380	0.022340	72.492896	-87.065769	21.351429
44253	9.753789	0.473618	0.107154	0.010541	-0.000830	0.021214	72.491706	-87.078291	21.359099
44254	9.700410	0.379997	0.071516	0.006426	0.001374	0.020700	72.464388	-87.090018	21.389514
44255	9.685876	0.414822	0.116665	0.005891	0.002340	0.015760	72.444755	-87.099014	21.412982
44256	9.701268	0.395612	0.122843	0.003555	-0.004498	0.010991	72.512799	-87.106437	21.347821
44257	9.740031	0.353818	0.102263	0.012134	0.005983	0.012871	72.467158	-87.113227	21.400911
44258	9.703599	0.439316	0.152918	0.009868	-0.000593	0.004373	72.519394	-87.116390	21.354817
44259	9.739577	0.502339	0.152549	0.004077	0.004457	0.012129	72.488104	-87.123038	21.388915
44260	9.689868	0.482380	0.125391	0.004920	-0.001926	0.009896	72.533062	-87.129465	21.346653
44261	9.706764	0.490445	0.110263	0.005355	0.003305	0.010820	72.519471	-87.135596	21.363763
44262	9.681919	0.485103	0.158834	0.003986	0.000733	0.011916	72.527499	-87.142647	21.357097
44263	9.700362	0.519818	0.122231	0.000059	0.000464	0.015631	72.525333	-87.151896	21.359729
44264	9.698908	0.491306	0.143928	0.004003	0.004194	0.015858	72.481839	-87.160522	21.404820
44265	9.707788	0.503633	0.162018	-0.005513	-0.003623	0.016001	72.520207	-87.170678	21.363672
44266	9.683756	0.506172	0.137252	-0.005860	-0.005132	0.015289	72.576846	-87.180535	21.304596
44267	9.705649	0.454920	0.131610	-0.003798	0.000455	0.015616	72.572750	-87.189777	21.306948
44268	9.722574	0.462478	0.116447	-0.011855	-0.001066	0.014874	72.582894	-87.198778	21.290980
44269	9.710726	0.393201	0.141297	-0.010230	-0.000711	0.014276	72.592883	-87.207488	21.275540
44270	9.701967	0.378012	0.123053	-0.007071	-0.003722	0.012868	72.641645	-87.215886	21.221085
44271	9.709284	0.363531	0.162195	-0.004239	-0.004780	0.014691	72.699816	-87.225516	21.160844
44272	9.727749	0.398493	0.125222	-0.002120	-0.002390	0.007346	72.756921	-87.230642	21.102060
44273	9.767212	0.375365	0.155542	-0.000385	-0.004776	0.014706	72.817928	-87.240274	21.041191
44274	9.719793	0.401555	0.157798	0.003508	-0.001503	-0.000697	72.896487	-87.240847	20.963426
44275	9.751964	0.392350	0.148664	-0.002468	-0.003898	0.006634	72.975195	-87.245902	20.883641
44276	9.719836	0.400776	0.157141	0.007544	-0.003977	0.003546	73.069513	-87.249195	20.792391
44277	9.719858	0.400379	0.156782	0.006266	-0.002826	0.004855	73.147682	-87.253085	20.718155
44278	9.704592	0.417854	0.149987	0.004546	-0.006905	0.005240	73.268670	-87.257790	20.598636
44279	9.755191	0.444598	0.103851	0.008822	-0.005130	0.002236	73.384244	-87.260608	20.488419
44280	9.721492	0.426217	0.133984	0.004130	0.001249	0.004456	73.415840	-87.263537	20.460332
44281	9.747198	0.448788	0.136647	0.008821	-0.005130	0.002237	73.531802	-87.266342	20.349727
44282	9.692508	0.488485	0.099455	0.007984	0.001253	0.004470	73.564653	-87.269219	20.320912
44283	9.708621	0.488915	0.157122	0.000950	0.000800	0.001922	73.609136	-87.270880	20.277354
44284	9.690970	0.460898	0.120931	0.000181	-0.002478	0.004229	73.681458	-87.274269	20.204207
44285	9.699832	0.474294	0.138622	-0.001191	-0.005049	0.005326	73.781055	-87.278736	20.104244
44286	9.715150	0.455877	0.144468	0.002061	-0.004338	0.004130	73.876257	-87.282306	20.008640
44287	9.749716	0.492031	0.165043	0.000108	-0.002741	0.007959	73.941591	-87.287841	19.943723
44288	9.747367	0.445679	0.134765	-0.004792	-0.007269	0.005811	74.062693	-87.292815	19.819551
44289	9.747404	0.444964	0.134455	-0.001424	0.000626	0.008769	74.085762	-87.298258	19.796068
44290	9.706460	0.439254	0.124838	-0.007791	-0.010195	0.007506	74.234978	-87.304580	19.642914
44291	9.738640	0.429604	0.115482	-0.006230	-0.000177	0.006834	74.271572	-87.309078	19.603136
44292	9.706532	0.437786	0.124413	-0.005279	0.000622	0.008756	74.291056	-87.314403	19.579689
44293	9.739539	0.446851	0.166732	-0.005301	-0.002838	0.004813	74.366431	-87.318195	19.501618
44294	9.706595	0.436498	0.123999	-0.009578	-0.004613	0.007818	74.449925	-87.323851	19.413520
44295	9.705052	0.408755	0.145259	-0.007857	-0.000534	0.007432	74.488485	-87.328727	19.370841
44296	9.713935	0.421904	0.163138	-0.010182	-0.003905	0.006608	74.567503	-87.333677	19.285615
44297	9.719543	0.370857	0.099784	-0.009158	-0.002841	0.004799	74.641713	-87.337444	19.206500
44298	9.713150	0.401989	0.111274	-0.003147	-0.003457	0.009154	74.711804	-87.343609	19.135434
44299	9.714771	0.428222	0.089369	-0.000592	-0.005761	0.006534	74.820658	-87.348765	19.026553
44300	9.731666	0.436536	0.073776	0.000106	-0.002746	0.007958	74.886822	-87.354196	18.957586
44301	9.693160	0.476454	0.094131	-0.000919	-0.003810	0.009766	74.962444	-87.360835	18.881785
44302	9.710065	0.484598	0.078833	-0.007509	0.000973	0.008145	74.980679	-87.365801	18.858749
44303	9.717382	0.470520	0.118336	-0.012138	-0.002310	0.010438	75.030168	-87.372585	18.802675
44304	9.713363	0.397205	0.109815	-0.015846	-0.001781	0.002965	75.094317	-87.375031	18.730074
44305	9.723846	0.437527	0.106194	-0.015669	-0.004264	0.007193	75.176343	-87.380299	18.639405
44306	9.720685	0.382866	0.149063	-0.012570	0.002387	0.005713	75.184087	-87.383699	18.625851
44307	9.713441	0.395459	0.109237	-0.004548	-0.009490	0.006305	75.339323	-87.389227	18.468273
44308	9.743998	0.358984	0.121316	-0.003930	-0.000269	0.003717	75.390283	-87.391906	18.415383
44309	9.721475	0.389780	0.075410	0.000178	-0.002484	0.004227	75.470239	-87.395252	18.335874
44310	9.719889	0.362503	0.096705	-0.003254	-0.000711	0.001197	75.534179	-87.396537	18.269058
44311	9.720615	0.370682	0.024016	-0.000326	0.001950	0.003232	75.563135	-87.398689	18.240313
44312	9.704632	0.380235	0.090758	0.000773	0.003282	-0.002305	75.592111	-87.397531	18.210663
44313	9.730360	0.403185	0.093798	0.003856	0.000002	0.000013	75.657392	-87.398171	18.147954
44314	9.696626	0.385294	0.124310	0.006257	0.003639	-0.002891	75.687583	-87.396560	18.122037
44315	9.715066	0.421721	0.088179	0.003174	0.006918	-0.005209	75.684283	-87.393319	18.127589
44316	9.707055	0.426814	0.121670	0.003507	-0.001506	-0.000699	75.768455	-87.393675	18.045515
44317	9.730308	0.404239	0.094616	0.007786	0.000270	-0.003704	75.844107	-87.392205	17.974679
44318	9.691762	0.445385	0.115477	0.011739	0.003995	-0.003476	75.874784	-87.390291	17.950970
44319	9.699746	0.440840	0.082436	0.008737	0.001068	-0.001782	75.935239	-87.389771	17.895892
44320	9.684473	0.458988	0.076028	0.007013	-0.003011	-0.001398	76.042418	-87.389943	17.793614
44321	9.722999	0.418324	0.055281	0.012941	0.002576	-0.001057	76.084650	-87.389612	17.759190
44322	9.725447	0.464311	0.085071	0.012568	-0.002390	-0.005712	76.199632	-87.387330	17.650401
44323	9.744764	0.519172	0.099516	0.002830	-0.001063	0.001821	76.271819	-87.389091	17.580192
44324	9.721505	0.541855	0.126571	0.002326	0.003370	0.000825	76.290210	-87.389628	17.561190
44325	9.727913	0.509867	0.115074	-0.002555	0.002305	0.002620	76.315912	-87.391373	17.534424
44326	9.725465	0.463862	0.085526	-0.005459	0.003102	0.004528	76.322803	-87.394043	17.523160
44327	9.734351	0.477149	0.104053	-0.010243	0.005760	0.006537	76.290187	-87.397500	17.550363
44328	9.731914	0.430800	0.074700	-0.011619	0.003188	0.007633	76.281896	-87.401836	17.548876
44329	9.706203	0.407383	0.072358	-0.007592	0.007178	0.004131	76.240476	-87.403760	17.586412
44330	9.698215	0.411630	0.106436	-0.015631	0.009125	0.007336	76.159506	-87.407106	17.658503
44331	9.689365	0.397268	0.089228	-0.009821	0.007531	0.003519	76.114160	-87.408637	17.698691
44332	9.689392	0.396475	0.089828	-0.009119	0.004072	0.012686	76.081844	-87.415663	17.724382
44333	9.694193	0.336834	0.099964	-0.005714	0.005316	0.004031	76.064419	-87.417782	17.738976
44334	9.730423	0.400158	0.099967	-0.000579	0.004165	0.002735	76.067644	-87.419300	17.736805
44335	9.724045	0.431550	0.112256	0.002949	0.006115	0.005981	76.039296	-87.422394	17.767301
44336	9.759450	0.475954	0.060844	0.003453	0.001683	0.006976	76.062001	-87.426646	17.746354
44337	9.745079	0.511842	0.106465	0.000141	0.010635	0.008104	75.969420	-87.430293	17.839537
44338	9.695262	0.492270	0.080158	-0.004142	0.008860	0.011107	75.885147	-87.435761	17.920577
44339	9.711399	0.491739	0.138701	-0.009277	0.010010	0.012402	75.780815	-87.441870	18.020120
44340	9.719481	0.485550	0.106213	-0.015286	0.004157	0.015787	75.732774	-87.450618	18.058128
44341	9.734790	0.466014	0.113070	-0.011682	0.006372	0.015304	75.662312	-87.458843	18.122387
44342	9.750106	0.446130	0.120084	-0.009861	0.007695	0.022879	75.550036	-87.470978	18.228864
44343	9.818622	0.498428	0.111544	-0.005406	0.006983	0.024104	75.445591	-87.483987	18.330738
44344	9.767209	0.450176	0.106705	-0.014031	0.013093	0.030041	75.235705	-87.499335	18.530908
44345	9.731376	0.533840	0.158531	-0.013705	0.011143	0.026809	75.061482	-87.513203	18.697863
44346	9.687996	0.480475	0.120449	-0.025190	0.008388	0.034717	74.885337	-87.531824	18.858799
44347	9.704218	0.467562	0.055108	-0.017979	0.012812	0.033756	74.658395	-87.549233	19.076066
44348	9.734777	0.427982	0.068772	-0.019795	0.008460	0.037865	74.467116	-87.569367	19.255639
44349	9.711692	0.447327	0.096664	-0.014231	0.009079	0.033555	74.285532	-87.587177	19.429652
44350	9.694923	0.434744	0.112658	-0.022467	0.007032	0.040267	74.097642	-87.608858	19.605366
44351	9.709416	0.394187	0.068513	-0.020142	0.010390	0.041098	73.860621	-87.630563	19.831468
44352	9.710424	0.408663	0.120938	-0.021779	0.010030	0.041695	73.619286	-87.652528	20.059446
44353	9.674065	0.341115	0.121997	-0.023871	0.004446	0.041358	73.450761	-87.675267	20.214850
44354	9.679512	0.296777	0.183600	-0.018881	0.009222	0.039789	73.222718	-87.696305	20.433096
44355	9.662676	0.283916	0.198982	-0.009008	-0.004536	0.040272	73.184003	-87.719899	20.467104
44356	9.697573	0.316640	0.219652	-0.003788	-0.005420	0.035250	73.181044	-87.740836	20.469460
44357	9.681597	0.171172	0.038097	0.005279	-0.009362	0.041926	73.210251	-87.766137	20.443685
44358	9.725440	0.207548	-0.047721	0.031425	-0.009941	0.036392	73.285771	-87.788439	20.385673
44359	9.762386	0.409092	0.074656	0.032512	0.001058	0.030801	73.230912	-87.805914	20.459641
44360	9.751730	0.365228	0.077960	0.016390	0.001533	0.033254	73.146058	-87.824604	20.552263
44361	9.772199	0.293708	0.021439	0.012481	0.007758	0.029230	72.986877	-87.840091	20.719140
44362	9.740204	0.300289	0.031056	0.006481	0.008408	0.024871	72.831713	-87.852991	20.879026
44363	9.754410	0.271470	0.110929	-0.001744	0.009424	0.019897	72.678138	-87.863053	21.032136
44364	9.723846	0.174651	0.100422	-0.012790	0.011520	0.013101	72.515847	-87.868951	21.186376
44365	9.729999	0.141825	0.089709	-0.008159	0.011347	0.006869	72.388565	-87.871534	21.309495
44366	9.730899	0.159963	0.142250	-0.001544	0.013028	0.000756	72.268743	-87.870451	21.429619
44367	9.682822	0.168727	0.094624	0.002557	0.010797	0.001270	72.181737	-87.870057	21.518579
44368	9.736547	0.241082	0.080594	0.011862	0.017336	-0.003296	72.025382	-87.865989	21.682257
44369	9.706345	0.277856	0.069324	0.010100	0.009822	-0.006866	71.995845	-87.861321	21.718033
44370	9.747321	0.283208	0.079745	0.015788	0.014156	-0.010954	71.924414	-87.853657	21.797566
44371	9.724125	0.307234	0.108107	0.013912	0.016021	-0.010855	71.826620	-87.845709	21.903833
44372	9.741061	0.317290	0.094565	0.014947	0.017084	-0.012660	71.722193	-87.836578	22.016542
44373	9.717840	0.341463	0.123006	0.007473	0.014892	-0.012203	71.644897	-87.828087	22.098605
44374	9.725858	0.337830	0.091216	0.003614	0.014904	-0.012223	71.565175	-87.819575	22.180684
44375	9.717715	0.343905	0.125986	0.008858	0.017458	-0.013294	71.458663	-87.810016	22.292779
44376	9.659658	0.331803	0.133242	0.008750	0.013737	-0.013511	71.405177	-87.801055	22.349583
44377	9.699785	0.319110	0.092457	0.016112	0.012208	-0.014183	71.382566	-87.791964	22.381875
44378	9.693522	0.352308	0.105628	0.020423	0.017416	-0.013232	71.284497	-87.782425	22.491901
44379	9.745240	0.398790	0.113112	0.023486	0.014122	-0.010908	71.224632	-87.774756	22.565705
44380	9.728179	0.391006	0.129599	0.023239	0.016336	-0.011406	71.136293	-87.766323	22.668660
44381	9.704135	0.396317	0.106547	0.021164	0.014207	-0.007795	71.060161	-87.760317	22.757412
44382	9.738089	0.414934	0.077860	0.024527	0.018624	-0.008769	70.929714	-87.752890	22.902990
44383	9.722528	0.444027	0.197315	0.010641	0.018749	-0.005724	70.776256	-87.747136	23.063095
44384	9.710229	0.366519	0.099699	0.009254	0.016183	-0.004631	70.651186	-87.742425	23.192900
44385	9.724109	0.340738	0.180569	0.007224	0.020534	-0.008764	70.487561	-87.734658	23.361221
44386	9.693130	0.359007	0.118239	0.006678	0.015040	-0.005961	70.384862	-87.729404	23.467796
44387	9.734067	0.364098	0.129197	0.015085	0.018021	-0.004488	70.240839	-87.724399	23.621009
44388	9.694963	0.387062	0.099836	0.006328	0.013535	-0.006675	70.162637	-87.719030	23.702365
44389	9.701858	0.374558	0.140915	0.001980	0.017976	-0.007697	70.028632	-87.712282	23.838038
44390	9.684789	0.366395	0.157535	0.000246	0.013908	-0.007318	69.945705	-87.706497	23.920267
44391	9.716863	0.358037	0.150087	-0.004900	0.011625	-0.009980	69.905399	-87.699754	23.958223
44392	9.675838	0.354567	0.141716	-0.004561	0.009681	-0.013210	69.906311	-87.691637	23.954634
44393	9.706006	0.319374	0.155352	-0.003466	0.007987	-0.007057	69.901379	-87.687182	23.958009
44394	9.705960	0.320322	0.156275	0.007351	0.011149	-0.012420	69.887065	-87.679148	23.978647
44395	9.722925	0.330441	0.142264	0.007350	0.011148	-0.012420	69.872534	-87.671184	23.997831
44396	9.716591	0.363317	0.154919	0.011358	0.008653	-0.008165	69.871179	-87.665969	24.004838
44397	9.707722	0.350440	0.137474	0.012293	0.005996	-0.010183	69.916658	-87.660224	23.966798
44398	9.701386	0.383212	0.149851	0.015211	0.008641	-0.008139	69.918484	-87.655008	23.974415
44399	9.720891	0.438561	0.165198	0.009626	0.004584	-0.007786	69.969205	-87.650830	23.929598
44400	9.692490	0.371005	0.132771	0.003547	0.004955	-0.008432	70.014578	-87.646217	23.887562
44401	9.727103	0.408381	0.154420	0.006806	0.005655	-0.009617	70.058035	-87.640839	23.848398
44402	9.725158	0.382277	0.176194	0.001817	0.000887	-0.008052	70.153271	-87.637154	23.756029
44403	9.733336	0.378169	0.143096	0.001817	0.000887	-0.008052	70.248244	-87.633542	23.662445
44404	9.706165	0.348051	0.213131	-0.000904	0.005674	-0.009671	70.283989	-87.628148	23.623192
44405	9.733255	0.379984	0.143781	0.002852	0.001947	-0.009857	70.373575	-87.623348	23.535591
44406	9.716193	0.372069	0.159039	0.004481	0.002297	-0.010449	70.461346	-87.618085	23.451261
44407	9.733175	0.381878	0.144203	0.003793	0.002740	-0.007932	70.531658	-87.614163	23.383489
44408	9.732556	0.363921	0.093235	0.007993	0.004233	-0.007192	70.581162	-87.610267	23.339990
44409	9.716086	0.374487	0.159916	0.005422	0.003089	-0.008525	70.650157	-87.605953	23.274471
44410	9.726736	0.416130	0.156829	0.010905	0.003430	-0.009090	70.717861	-87.601254	23.210667
44411	9.711573	0.434846	0.150573	0.005577	0.000608	-0.004295	70.799447	-87.599689	23.132633
44412	9.728562	0.444352	0.135744	0.001913	0.004601	-0.007840	70.841567	-87.595407	23.090638
44413	9.736754	0.440032	0.103007	-0.002035	0.004343	-0.004138	70.869716	-87.593220	23.061724
44414	9.687562	0.440608	0.126941	-0.005390	-0.000075	-0.003165	70.946637	-87.592336	22.980446
44415	9.711473	0.436687	0.151696	-0.011373	0.004009	-0.003601	70.971209	-87.590500	22.949756
44416	9.700783	0.396031	0.155475	-0.013096	0.003391	0.000721	70.983828	-87.591070	22.931525
44417	9.700212	0.377401	0.104474	-0.012754	0.001445	-0.002508	71.035741	-87.590303	22.872679
44418	9.707110	0.364441	0.144133	-0.008650	-0.000777	-0.001981	71.114765	-87.590205	22.787619
44419	9.730466	0.341609	0.117644	-0.004008	0.005938	-0.000315	71.104106	-87.589789	22.796415
44420	9.739247	0.355648	0.135902	0.001627	-0.003098	-0.004534	71.230507	-87.588750	22.670392
44421	9.737357	0.328898	0.157211	0.003855	-0.000008	0.000028	71.299457	-87.589615	22.604017
44422	9.713429	0.333246	0.132533	0.008647	-0.002672	-0.001961	71.412913	-87.589848	22.494814
44423	9.722212	0.347340	0.150494	0.011656	0.000243	-0.003646	71.499068	-87.588663	22.415693
44424	9.689483	0.338143	0.107744	0.013535	-0.001620	-0.003738	71.609805	-87.587731	22.312866
44425	9.745549	0.325337	0.123519	0.019456	0.000492	-0.007320	71.712721	-87.584490	22.221443
44426	9.730390	0.344114	0.116618	0.015659	-0.009147	-0.007271	71.935642	-87.582984	22.006070
44427	9.741592	0.404380	0.164122	0.023057	0.002695	-0.007794	72.013587	-87.579074	21.941705
44428	9.769246	0.454640	0.145526	0.013782	-0.003835	-0.003237	72.150935	-87.578785	21.813111
44429	9.703046	0.446295	0.184084	0.007799	0.000248	-0.003674	72.234195	-87.577540	21.734674
44430	9.751635	0.427854	0.109094	0.006263	0.000163	-0.006812	72.329269	-87.574550	21.642498
44431	9.717026	0.391831	0.087889	0.007453	-0.001256	-0.004386	72.434391	-87.573167	21.541983
44432	9.725788	0.406205	0.106077	0.010210	0.003871	-0.006574	72.483374	-87.569614	21.500246
44433	9.734553	0.420496	0.124214	0.006420	-0.002315	-0.002580	72.593965	-87.569388	21.393663
44434	9.743326	0.434610	0.142267	0.000438	0.001768	-0.003018	72.649522	-87.568163	21.338635
44435	9.705343	0.494598	0.213969	-0.002820	0.001068	-0.001833	72.708173	-87.567757	21.278740
44436	9.704245	0.456825	0.111508	-0.006262	-0.000162	0.006811	72.745345	-87.572247	21.238385
44437	9.697905	0.488243	0.123104	0.001191	-0.001418	0.002426	72.821468	-87.574590	21.163304
44438	9.704293	0.455795	0.111496	-0.008829	0.002145	0.009420	72.816779	-87.580080	21.162719
44439	9.676106	0.386448	0.078588	-0.005167	-0.005297	0.009027	72.913573	-87.586687	21.063302
44440	9.706429	0.349484	0.091137	-0.005072	-0.001581	0.009237	72.961742	-87.592698	21.013834
44441	9.749280	0.380318	0.078990	0.003668	-0.000539	0.007487	73.008488	-87.597654	20.969577
44442	9.710811	0.420443	0.099248	-0.002503	-0.000437	0.010569	73.037394	-87.604195	20.939702
44443	9.732906	0.388313	0.145196	-0.005073	-0.001581	0.009237	73.086191	-87.610283	20.888381
44444	9.713471	0.332795	0.130553	-0.008830	0.002144	0.009420	73.082545	-87.615793	20.887306
44445	9.687680	0.309359	0.127682	0.002477	0.000878	0.005062	73.120296	-87.619180	20.851369
44446	9.702833	0.290709	0.134118	0.003667	-0.000541	0.007487	73.167439	-87.624087	20.807179
44447	9.687144	0.289479	0.076172	0.015223	-0.004021	0.003629	73.283328	-87.627495	20.700346
44448	9.687733	0.307922	0.127104	0.018826	-0.001818	0.003156	73.374427	-87.630250	20.621460
44449	9.723666	0.352529	0.075022	0.017192	-0.005620	-0.000191	73.528313	-87.631803	20.477727
44450	9.739380	0.353376	0.132255	0.016347	-0.002699	-0.001906	73.648560	-87.631877	20.366527
44451	9.758280	0.389341	0.095399	0.011211	-0.001535	-0.000629	73.746616	-87.632507	20.275242
44452	9.741847	0.399290	0.161431	0.011460	-0.003748	-0.000127	73.872666	-87.633714	20.157714
44453	9.760167	0.416341	0.073159	0.011460	-0.003748	-0.000127	73.998586	-87.634955	20.038683
44454	9.719802	0.430494	0.114755	0.009333	0.000328	-0.000539	74.068346	-87.635245	19.972885
44455	9.745630	0.452981	0.117753	0.008552	0.000510	0.005708	74.113752	-87.639020	19.932771
44456	9.719835	0.429737	0.114792	0.006328	0.000869	0.005088	74.154088	-87.642450	19.894272
44457	9.717979	0.402154	0.136217	-0.005418	-0.003078	0.008528	74.229187	-87.648336	19.816428
44458	9.702288	0.400697	0.078401	0.004700	0.000520	0.005681	74.270767	-87.652018	19.776223
44459	9.692213	0.378076	0.133078	-0.001815	-0.000876	0.008053	74.320645	-87.657295	19.725688
44460	9.700461	0.372240	0.099769	0.004855	-0.001958	0.009913	74.379480	-87.663710	19.667435
44461	9.706813	0.339482	0.087982	0.005888	-0.000900	0.008107	74.434388	-87.669016	19.616284
44462	9.691716	0.356777	0.081438	0.007517	-0.000551	0.007514	74.484474	-87.673870	19.567142
44463	9.706867	0.338012	0.087716	0.009393	-0.002416	0.007423	74.565089	-87.679026	19.492273
44464	9.720109	0.292613	0.115415	0.012397	-0.002960	0.001797	74.675501	-87.681109	19.388703
44465	9.730835	0.333069	0.111444	0.009982	-0.006579	0.004699	74.824206	-87.685375	19.246026
44466	9.703114	0.283262	0.129587	0.011207	-0.001542	-0.000630	74.924737	-87.685904	19.153032
44467	9.698710	0.342031	0.119300	0.014272	-0.004826	0.001707	75.063550	-87.688229	19.022716
44468	9.689894	0.328394	0.100656	0.012483	-0.006153	-0.005870	75.245801	-87.686551	18.846511
44469	9.698082	0.323936	0.067021	0.010953	-0.002785	-0.005070	75.379317	-87.684794	18.719592
44470	9.715085	0.333302	0.051426	0.014704	-0.006515	-0.005250	75.566462	-87.683448	18.541921
44471	9.741514	0.375487	0.105152	0.015835	-0.001742	-0.006851	75.694287	-87.680526	18.423497
44472	9.702421	0.398356	0.073825	0.016083	-0.003955	-0.006347	75.849642	-87.678165	18.277308
44473	9.740850	0.358012	0.053231	0.011043	-0.002526	-0.008800	75.991493	-87.674245	18.142099
44474	9.715616	0.354890	0.101218	0.012577	-0.002439	-0.005664	76.121049	-87.672046	18.019659
44475	9.756551	0.360338	0.110195	0.004871	-0.005871	-0.009651	76.307113	-87.668081	17.836660
44476	9.730692	0.338660	0.106991	0.013453	0.001090	-0.011706	76.408063	-87.661925	17.743682
44477	9.698509	0.348928	0.115660	0.010197	0.000394	-0.010518	76.513392	-87.656605	17.644537
44478	9.697858	0.331110	0.064391	0.015327	-0.000776	-0.011795	76.640744	-87.650703	17.526566
44479	9.724243	0.373956	0.118419	0.013104	-0.000417	-0.012415	76.763786	-87.644416	17.411360
44480	9.723583	0.356407	0.067033	0.013443	-0.002372	-0.015640	76.924213	-87.636686	17.260105
44481	9.699581	0.361969	0.042165	0.020108	-0.003453	-0.013781	77.095028	-87.630002	17.101100
44482	9.714673	0.345492	0.048632	0.022017	0.004587	-0.017698	77.168439	-87.619993	17.040591
44483	9.691266	0.370045	0.075601	0.030216	0.003595	-0.012702	77.245467	-87.612995	16.981249
44484	9.682412	0.357616	0.057489	0.024042	-0.003214	-0.017483	77.421885	-87.604225	16.816135
44485	9.715095	0.369272	0.099804	0.024821	0.000051	-0.019797	77.562840	-87.593685	16.689716
44486	9.713192	0.344258	0.121289	0.022161	-0.001353	-0.017395	77.712127	-87.584619	16.553708
44487	9.703753	0.313124	0.051840	0.028912	-0.002178	-0.019265	77.881093	-87.574620	16.401597
44488	9.723094	0.369713	0.065989	0.038573	-0.000352	-0.019100	78.031148	-87.564484	16.276892
44489	9.725420	0.417569	0.095183	0.035657	-0.003009	-0.021134	78.217452	-87.553497	16.111293
44490	9.718367	0.432432	0.055034	0.026930	-0.004043	-0.019377	78.404957	-87.543607	15.938582
44491	9.718280	0.434462	0.054330	0.023672	-0.008206	-0.022117	78.651659	-87.532611	15.705654
44492	9.684222	0.418920	0.084085	0.023856	-0.000772	-0.021721	78.799323	-87.520862	15.574939
44493	9.739694	0.388809	0.048597	0.020259	-0.002975	-0.021238	78.970341	-87.509721	15.415805
44494	9.731412	0.395930	0.081399	0.025042	-0.002186	-0.019291	79.126477	-87.499396	15.275980
44495	9.716137	0.415902	0.074516	0.025723	-0.002644	-0.021807	79.294935	-87.487860	15.122538
44496	9.724823	0.431913	0.092081	0.019223	-0.004035	-0.019428	79.467803	-87.477782	14.958033
44497	9.739383	0.396688	0.047190	0.025377	-0.000686	-0.018586	79.600721	-87.467820	14.839966
44498	9.690161	0.398789	0.070888	0.028966	0.001513	-0.019071	79.706915	-87.457284	14.750991
44499	9.715818	0.423454	0.073604	0.027592	-0.001048	-0.017966	79.842391	-87.447686	14.631631
44500	9.754380	0.384101	0.053237	0.032282	-0.003975	-0.016214	80.011141	-87.439316	14.480899
44501	9.730890	0.408959	0.079377	0.028864	-0.002215	-0.019266	80.162890	-87.429071	14.345978
44502	9.750069	0.465605	0.093352	0.029548	0.000798	-0.017857	80.272126	-87.419337	14.252845
44503	9.754715	0.408735	0.103633	0.026981	-0.000357	-0.019182	80.397348	-87.408934	14.143396
44504	9.724182	0.446450	0.090394	0.028944	0.001495	-0.019073	80.498696	-87.398340	14.059656
44505	9.730585	0.416227	0.078982	0.024671	-0.000249	-0.016071	80.613101	-87.389666	13.959709
44506	9.749192	0.453526	0.041870	0.030814	-0.000375	-0.019156	80.738043	-87.379210	13.853733
44507	9.732689	0.465688	0.108036	0.025008	0.001254	-0.015368	80.831203	-87.370778	13.775244
44508	9.725584	0.479971	0.068560	0.023899	0.006374	-0.017610	80.863259	-87.360681	13.754700
44509	9.740221	0.444402	0.024576	0.022872	0.005325	-0.015798	80.905297	-87.351630	13.726162
44510	9.700243	0.479646	0.117788	0.014591	0.006042	-0.017066	80.935595	-87.341777	13.704979
44511	9.706164	0.430019	0.055862	0.012626	0.004186	-0.017173	80.987807	-87.332049	13.660378
44512	9.663460	0.399916	0.068643	0.014843	0.003830	-0.016552	81.042593	-87.322654	13.613824
44513	9.684242	0.482954	0.061445	0.014589	0.009519	-0.013146	81.023236	-87.314726	13.641995
44514	9.695536	0.393765	0.061249	0.018681	0.003819	-0.016525	81.079573	-87.305408	13.594557
44515	9.733726	0.505191	0.089315	0.016631	-0.001756	-0.016821	81.203538	-87.296397	13.480420
44516	9.705813	0.437668	0.057434	0.004856	0.003958	-0.013494	81.244931	-87.288627	13.443933
44517	9.740108	0.476394	0.078355	0.014578	0.002551	-0.020985	81.322699	-87.276870	13.374866
44518	9.680007	0.417993	0.055206	0.003832	0.002910	-0.011682	81.371233	-87.270391	13.326667
44519	9.705597	0.442343	0.058231	0.016455	0.004169	-0.017147	81.423075	-87.260663	13.284630
44520	9.681546	0.447731	0.033823	0.007070	0.000117	-0.016792	81.516505	-87.251452	13.196864
44521	9.726189	0.527210	0.050605	-0.000268	0.001640	-0.016142	81.585987	-87.242501	13.127574
44522	9.707500	0.493156	0.087868	-0.010847	0.002470	-0.014303	81.637101	-87.234515	13.072985
44523	9.702513	0.553136	0.077476	-0.012210	-0.000087	-0.013192	81.714119	-87.227372	12.989298
44524	9.758634	0.541677	0.093722	-0.008289	0.003626	-0.012979	81.749720	-87.220010	12.951189
44525	9.693684	0.541333	0.059998	-0.017754	-0.000665	-0.008893	81.822388	-87.215346	12.868676
44526	9.733350	0.539832	0.142196	-0.022018	-0.002407	-0.005890	81.908515	-87.212422	12.773717
44527	9.739469	0.489024	0.079903	-0.019717	0.000959	-0.005080	81.954414	-87.209779	12.716879
44528	9.722513	0.480524	0.095111	-0.016641	-0.002302	-0.002728	82.034629	-87.208730	12.625669
44529	9.747687	0.484343	0.046737	-0.021763	-0.001137	-0.001457	82.097686	-87.208303	12.550479
44530	9.712152	0.440092	0.099102	-0.009138	0.003616	-0.003000	82.114862	-87.206518	12.530423
44531	9.719948	0.415657	0.014942	-0.005544	-0.004063	0.000379	82.218258	-87.207355	12.424150
44532	9.694764	0.412089	0.062923	0.000939	-0.002671	-0.002001	82.312438	-87.206799	12.329105
44533	9.701799	0.399659	0.102495	-0.000940	-0.000810	-0.001920	82.384250	-87.206066	12.257095
44534	9.683959	0.352472	0.015383	0.007082	-0.002790	-0.005085	82.486861	-87.203482	12.160493
44535	9.693073	0.386591	0.083883	0.018603	-0.006284	-0.008926	82.643922	-87.199160	12.014342
44536	9.716579	0.364335	0.056669	0.023041	-0.006988	-0.007684	82.809775	-87.195620	11.862257
44537	9.699614	0.356529	0.071084	0.023800	-0.007217	-0.013929	82.986861	-87.188479	11.699038
44538	9.728450	0.434263	0.029256	0.027897	-0.009432	-0.013389	83.188979	-87.181677	11.513680
44539	9.692911	0.391317	0.080656	0.020377	-0.005473	-0.016984	83.346333	-87.172629	11.368250
44540	9.767604	0.415976	0.058943	0.027113	-0.006294	-0.018852	83.517735	-87.162479	11.213729
44541	9.738981	0.499498	0.074354	0.022073	-0.001410	-0.017393	83.628034	-87.152900	11.116382
44542	9.709175	0.386138	0.012681	0.026427	-0.009320	-0.020255	83.833948	-87.142176	10.926368
44543	9.777654	0.462469	0.053334	0.031782	0.000669	-0.020969	83.928742	-87.130407	10.850114
44544	9.677230	0.418532	0.071343	0.034177	-0.005614	-0.020017	84.092141	-87.119453	10.706245
44545	9.705902	0.497074	0.029788	0.037568	-0.000974	-0.024756	84.211457	-87.105603	10.608755
44546	9.695534	0.458467	0.033126	0.035707	-0.008995	-0.020797	84.414926	-87.094346	10.429700
44547	9.737912	0.492611	0.020021	0.033458	0.001228	-0.025300	84.505489	-87.080038	10.358641
44548	9.720889	0.486150	0.034888	0.030400	-0.005398	-0.023773	84.665429	-87.066960	10.216658
44549	9.747467	0.518662	-0.035637	0.029951	0.002735	-0.024626	84.734726	-87.052941	10.164879
44550	9.764664	0.549439	0.000121	0.022537	0.000528	-0.024158	84.823211	-87.039291	10.090616
44551	9.779871	0.534203	0.007051	0.013137	0.006337	-0.027681	84.845139	-87.023338	10.076621
44552	9.769532	0.495980	0.011705	0.014074	0.007152	-0.025763	84.856174	-87.008419	10.074437
44553	9.759207	0.457890	0.016745	0.004071	0.013653	-0.030505	84.795947	-86.990475	10.137509
44554	9.726822	0.469477	0.026614	0.004932	0.014243	-0.024856	84.725369	-86.975611	10.215059
44555	9.714620	0.385213	0.003030	0.012752	0.014689	-0.032268	84.662208	-86.956600	10.286053
44556	9.715657	0.395427	-0.068382	0.021771	0.017239	-0.033331	84.578018	-86.936719	10.385361
44557	9.714361	0.391654	0.006376	0.029244	0.023161	-0.033618	84.437748	-86.916461	10.543040
44558	9.748329	0.432504	0.029019	0.034763	0.023725	-0.037919	84.300578	-86.893712	10.700166
44559	9.734579	0.500290	0.053313	0.029644	0.021383	-0.040562	84.190441	-86.869558	10.827903
44560	9.718689	0.502305	-0.002138	0.020157	0.026950	-0.040364	84.018942	-86.845179	11.012256
44561	9.674349	0.428142	-0.015980	0.029507	0.027515	-0.044635	83.854438	-86.818297	11.194371
44562	9.677148	0.485538	-0.057649	0.032249	0.022751	-0.042969	83.740992	-86.792576	11.328699
44563	9.691082	0.465344	0.024310	0.027946	0.027366	-0.047773	83.585927	-86.763869	11.500473
44564	9.714607	0.447103	0.000763	0.025858	0.031635	-0.051954	83.394461	-86.732399	11.709268
44565	9.746838	0.463498	0.046230	0.031443	0.032407	-0.059983	83.212131	-86.696347	11.910370
44566	9.722741	0.492271	0.075599	0.027250	0.034377	-0.056804	83.008997	-86.661840	12.133246
44567	9.706990	0.515559	0.071756	0.033901	0.029835	-0.058833	82.859800	-86.626549	12.302584
44568	9.691065	0.499100	-0.034045	0.052016	0.032325	-0.052952	82.693073	-86.594346	12.501641
44569	9.705197	0.684282	0.051149	0.069338	0.034412	-0.056451	82.524442	-86.560016	12.710800
44570	9.659914	0.808545	0.112912	0.052853	0.029397	-0.051209	82.390885	-86.529008	12.877033
44571	9.684855	0.816393	0.067056	0.045557	0.028056	-0.038859	82.252241	-86.505090	13.042512
44572	9.692962	0.854193	0.138135	0.034917	0.028641	-0.033313	82.096142	-86.484221	13.218538
44573	9.651861	0.851465	0.130933	0.018457	0.023640	-0.028075	81.972650	-86.466724	13.353287
44574	9.688277	0.740227	0.106990	0.005756	0.018447	-0.019071	81.878342	-86.454718	13.451086
44575	9.714955	0.587623	0.087133	0.007970	0.018108	-0.018442	81.788764	-86.443106	13.545839
44576	9.706414	0.575098	0.070946	0.022348	0.017318	-0.020215	81.717345	-86.430487	13.631886
44577	9.796291	0.602673	0.109706	0.029953	0.024360	-0.012341	81.576692	-86.421794	13.790437
44578	9.713305	0.545910	0.063830	0.030174	0.018441	-0.011981	81.489688	-86.413753	13.895854
44579	9.720319	0.515098	0.054652	0.035936	0.020310	-0.011842	81.389583	-86.405652	14.017214
44580	9.696228	0.539547	0.082872	0.041546	0.028295	-0.015796	81.227258	-86.394538	14.206322
44581	9.620077	0.491429	0.128238	0.027947	0.025281	-0.024172	81.096597	-86.378981	14.353715
44582	9.669235	0.494271	0.106596	0.024045	0.014321	-0.028439	81.068271	-86.361947	14.396876
44583	9.687211	0.552655	0.121445	0.021624	0.017051	-0.033332	81.021760	-86.341921	14.456325
44584	9.710872	0.552740	0.147602	0.017065	0.013806	-0.031026	80.998072	-86.323489	14.489559
44585	9.689623	0.611847	0.079723	0.023177	0.013676	-0.034088	80.984061	-86.303335	14.517334
44586	9.659571	0.696519	0.095739	0.020927	0.017524	-0.030823	80.931286	-86.284680	14.583869
44587	9.694546	0.743863	0.044332	0.018292	0.008911	-0.032475	80.954207	-86.265867	14.571831
44588	9.668845	0.743252	0.093828	0.014770	0.021162	-0.023868	80.856623	-86.250695	14.680068
44589	9.677234	0.740015	0.062444	0.010854	0.013717	-0.024234	80.822837	-86.236106	14.720587
44590	9.702285	0.765612	0.066388	0.008885	0.015370	-0.020441	80.769007	-86.223516	14.780142
44591	9.767003	0.750261	0.051640	0.003415	0.018526	-0.015996	80.679022	-86.213136	14.872713
44592	9.725843	0.765766	0.094870	-0.009985	0.023850	-0.012165	80.531274	-86.204441	15.015182
44593	9.748823	0.696991	0.042696	-0.011751	0.023112	-0.004109	80.377677	-86.200313	15.162797
44594	9.721849	0.667679	0.115364	-0.003098	0.024169	-0.005839	80.222797	-86.195062	15.316754
44595	9.673474	0.714277	0.169825	-0.017754	0.027139	-0.004624	80.033097	-86.190192	15.497107
44596	9.705159	0.639528	0.084755	-0.020736	0.020530	-0.003075	79.895609	-86.186787	15.623964
44597	9.696112	0.665367	0.170776	-0.018483	0.023908	-0.002278	79.730011	-86.183502	15.779745
44598	9.682328	0.689369	0.093047	-0.023357	0.019148	-0.000672	79.599772	-86.181653	15.896084
44599	9.680499	0.683075	0.168143	-0.024246	0.022023	-0.002426	79.447464	-86.178429	16.035236
44600	9.694946	0.619350	0.148664	-0.030331	0.018625	-0.003271	79.322554	-86.175068	16.144638
44601	9.693476	0.593160	0.172879	-0.028401	0.020486	-0.003166	79.182460	-86.171547	16.269164
44602	9.734554	0.579544	0.133747	-0.018494	0.016671	-0.006337	79.084766	-86.166614	16.355993
44603	9.625010	0.491796	0.157671	-0.017853	0.019699	-0.004947	78.960716	-86.162144	16.470497
44604	9.680649	0.414160	0.096432	0.004628	0.010668	-0.001963	78.920227	-86.160343	16.513539
44605	9.640902	0.454912	0.116170	0.034598	0.007776	-0.002979	78.923130	-86.158279	16.530924
44606	9.637461	0.586489	0.111957	0.050824	0.008674	-0.000872	78.924228	-86.157316	16.559218
44607	9.659192	0.741819	0.110096	0.050619	0.003834	-0.009196	78.979457	-86.152189	16.533361
44608	9.690154	0.707829	0.124252	0.033097	0.004095	-0.010021	79.023720	-86.146607	16.508063
44609	9.771500	0.720833	0.143800	0.015542	0.000648	-0.011009	79.088147	-86.140804	16.452844
44610	9.774428	0.610561	0.199820	0.014610	0.007041	-0.008869	79.095465	-86.135499	16.455185
44611	9.751572	0.660678	0.204014	0.009378	0.004286	-0.004064	79.114734	-86.133206	16.441685
44612	9.733624	0.605759	0.191068	0.010099	0.007510	-0.006409	79.111185	-86.129232	16.451719
44613	9.709350	0.629263	0.217528	0.008087	0.005453	-0.002782	79.117939	-86.127534	16.450021
44614	9.696645	0.699963	0.166238	0.016668	-0.000908	-0.004824	79.185382	-86.125364	16.392359
44615	9.665569	0.735265	0.152126	0.012194	0.003273	-0.002203	79.211644	-86.124226	16.373469
44616	9.667467	0.741637	0.079013	0.019687	-0.004309	0.001302	79.299679	-86.125835	16.297851
44617	9.684428	0.750473	0.063127	0.023473	-0.008005	0.001189	79.420872	-86.127796	16.190290
44618	9.679539	0.855149	0.079271	0.017353	-0.007882	0.004238	79.532840	-86.131502	16.087569
44619	9.721761	0.886613	0.065942	-0.002007	-0.008536	0.015199	79.622735	-86.141385	15.996745
44620	9.743286	0.809111	0.083943	-0.023383	-0.004763	0.018220	79.664750	-86.152528	15.942691
44621	9.749282	0.748889	0.095055	-0.034574	-0.007007	0.018611	79.718754	-86.164166	15.869140
44622	9.721818	0.650473	0.085954	-0.046057	0.000172	0.022526	79.699929	-86.177261	15.861975
44623	9.716647	0.522505	0.124104	-0.038735	-0.001319	0.021926	79.698899	-86.190184	15.841193
44624	9.707049	0.479642	0.128458	-0.033545	-0.002280	0.016957	79.716708	-86.200403	15.804416
44625	9.700304	0.490201	0.088447	-0.015546	-0.000648	0.011010	79.740281	-86.207102	15.772292
44626	9.713984	0.465242	0.168357	-0.015869	-0.002164	0.010316	79.777589	-86.213581	15.725699
44627	9.718789	0.359500	0.150924	-0.004311	-0.001923	0.006724	79.825273	-86.217990	15.675865
44628	9.702267	0.330384	0.115145	0.026861	0.000300	-0.003405	79.887455	-86.216464	15.629703
44629	9.744002	0.383094	0.153478	0.037045	0.001509	-0.001981	79.942904	-86.215612	15.595833
44630	9.738615	0.422101	0.091060	0.048317	-0.003288	-0.010163	80.057429	-86.210694	15.507527
44631	9.750728	0.537270	0.092897	0.045332	0.003822	-0.016125	80.118844	-86.201624	15.472436
44632	9.764245	0.515493	0.173294	0.028019	0.008193	-0.024253	80.145552	-86.187530	15.463791
44633	9.760232	0.418830	0.189685	0.023629	0.005337	-0.029418	80.200747	-86.170804	15.422470
44634	9.705726	0.439997	0.100521	0.033765	0.009315	-0.039726	80.242359	-86.147867	15.400506
44635	9.650735	0.481617	0.061871	0.048289	0.002434	-0.037349	80.346337	-86.126936	15.324450
44636	9.648414	0.643038	0.034295	0.054998	0.001618	-0.039173	80.462030	-86.105056	15.240220
44637	9.691185	0.725770	0.050138	0.042233	0.002730	-0.038034	80.559034	-86.083691	15.167671
44638	9.668048	0.778801	0.053711	0.033897	0.003183	-0.035622	80.642664	-86.063646	15.102994
44639	9.724036	0.770677	0.070760	0.026809	0.005992	-0.030601	80.692503	-86.046167	15.068862
44640	9.701393	0.803032	0.023791	0.030670	0.002478	-0.034443	80.777739	-86.026800	15.002309
44641	9.724390	0.823471	0.099677	0.013366	0.007595	-0.026958	80.801202	-86.011230	14.986893
44642	9.699564	0.782271	0.046920	0.009829	0.005381	-0.026470	80.839870	-85.996163	14.954509
44643	9.730509	0.749798	0.061728	-0.006822	0.006294	-0.021648	80.855026	-85.983714	14.935825
44644	9.686919	0.693423	0.097495	-0.004710	0.012235	-0.028857	80.832542	-85.966630	14.955951
44645	9.675841	0.628682	0.125472	-0.008005	0.011354	-0.023946	80.809415	-85.952419	14.974966
44646	9.693945	0.666316	0.089088	0.003136	0.009894	-0.024492	80.805094	-85.938081	14.981033
44647	9.693202	0.688836	0.140834	0.000556	0.012231	-0.021932	80.777541	-85.924928	15.009403
44648	9.679394	0.714197	0.061625	-0.004692	0.005774	-0.017279	80.792033	-85.915030	14.991976
44649	9.713693	0.713709	-0.018629	-0.014153	0.007759	-0.021056	80.790449	-85.902783	14.985863
44650	9.729129	0.698469	-0.010572	-0.020796	0.008738	-0.022969	80.779845	-85.889359	14.985401
44651	9.770351	0.753562	0.028965	-0.030916	0.014922	-0.024085	80.716354	-85.874739	15.031724
44652	9.721360	0.734930	0.003614	-0.050342	0.024233	-0.020821	80.564912	-85.861102	15.154447
44653	9.659581	0.576185	-0.001078	-0.049934	0.018689	-0.027911	80.467293	-85.843951	15.224066
44654	9.660078	0.625483	0.029802	-0.044778	0.024958	-0.028824	80.326665	-85.825658	15.341470
44655	9.722950	0.605423	0.089254	-0.047951	0.020724	-0.031541	80.220880	-85.806239	15.420419
44656	9.658263	0.671948	0.136335	-0.045251	0.025988	-0.037515	80.085113	-85.782933	15.530796
44657	9.696013	0.628772	0.193226	-0.055228	0.022350	-0.034686	79.968914	-85.761554	15.616011
44658	9.688392	0.597442	0.126643	-0.032652	0.013580	-0.035391	79.933996	-85.740670	15.632417
44659	9.681743	0.725567	0.196257	-0.025065	0.017155	-0.031391	79.871347	-85.721657	15.681267
44660	9.684072	0.781446	0.153752	-0.017420	0.017212	-0.031285	79.813154	-85.702733	15.730004
44661	9.716908	0.822275	0.176085	-0.021110	0.014609	-0.023342	79.761892	-85.688510	15.769710
44662	9.716995	0.757799	0.097961	-0.017091	0.008550	-0.019189	79.753138	-85.677265	15.769689
44663	9.709773	0.837804	0.138794	-0.003419	0.019262	-0.014163	79.665405	-85.667737	15.856137
44664	9.694478	0.902962	0.161857	-0.006675	0.011136	-0.013320	79.635476	-85.659507	15.883179
44665	9.718076	0.900951	0.188270	-0.017055	0.016725	-0.003237	79.544412	-85.656385	15.965133
44666	9.719305	0.927733	0.167772	-0.023118	0.013303	-0.004097	79.476320	-85.653148	16.019815
44667	9.678644	0.921530	0.159644	-0.035955	0.017880	0.000917	79.360344	-85.652225	16.115894
44668	9.667538	0.807290	0.159276	-0.053582	0.014162	0.003623	79.258194	-85.653204	16.188251
44669	9.656441	0.693020	0.158158	-0.041160	0.004167	0.001478	79.240022	-85.654042	16.183253
44670	9.681896	0.762708	0.190503	-0.035493	0.005878	0.005377	79.207760	-85.656908	16.197091
44671	9.690831	0.756583	0.158446	-0.041623	0.005968	0.008413	79.166147	-85.661455	16.215334
44672	9.698016	0.677365	0.119499	-0.037209	0.001615	0.009525	79.157704	-85.667110	16.202480
44673	9.738681	0.682835	0.130143	-0.039021	0.007348	0.006019	79.110644	-85.670160	16.227682
44674	9.746302	0.650234	0.120106	-0.038121	0.004476	0.007772	79.083020	-85.674512	16.233985
44675	9.735642	0.582146	0.147305	-0.041151	0.011564	0.001818	79.009340	-85.674737	16.284659
44676	9.735179	0.535465	0.119763	-0.030667	0.010635	0.003796	78.946096	-85.676166	16.331814
44677	9.753898	0.617486	0.112767	-0.015187	0.011172	-0.003442	78.897856	-85.673468	16.371894
44678	9.729331	0.640397	0.140270	-0.021892	0.019348	-0.001287	78.781909	-85.671119	16.475209
44679	9.663694	0.610670	0.129187	-0.018690	0.016354	-0.002627	78.692165	-85.668289	16.554899
44680	9.677936	0.567085	0.159995	-0.014466	0.018101	-0.005603	78.596333	-85.663570	16.643186
44681	9.694808	0.577276	0.146553	-0.004062	0.012550	-0.015690	78.562936	-85.653819	16.674773
44682	9.679073	0.596144	0.140927	-0.005658	0.015897	-0.014933	78.503039	-85.644146	16.731901
44683	9.662922	0.568779	0.106169	0.010323	0.008156	-0.017554	78.513326	-85.633847	16.727944
44684	9.695781	0.608843	0.128111	0.023225	0.014721	-0.022045	78.489783	-85.620275	16.766258
44685	9.739253	0.716856	0.124106	0.024209	0.012046	-0.024026	78.489224	-85.605898	16.781159
44686	9.704796	0.654331	0.126208	0.020293	0.011809	-0.020354	78.482759	-85.593647	16.799477
44687	9.770162	0.686768	0.140269	0.029115	0.013308	-0.029507	78.484073	-85.576048	16.815319
44688	9.657828	0.757837	0.136483	0.024237	0.023153	-0.023511	78.402866	-85.560701	16.911776
44689	9.672289	0.762448	0.196094	0.024126	0.015544	-0.020122	78.371742	-85.548109	16.957288
44690	9.690380	0.800145	0.160106	0.024409	0.009646	-0.019766	78.382968	-85.536389	16.961228
44691	9.716152	0.805891	0.112944	0.021186	0.008929	-0.018601	78.395652	-85.525414	16.961109
44692	9.722689	0.795326	0.153620	0.015582	0.008146	-0.010614	78.398881	-85.519049	16.966805
44693	9.683589	0.863015	0.151084	0.014673	0.011009	-0.012368	78.383781	-85.511332	16.990813
44694	9.651148	0.918513	0.188738	0.004024	0.011538	-0.006895	78.351081	-85.506654	17.026752
44695	9.668301	0.974612	0.203679	-0.009763	0.011543	-0.003990	78.305979	-85.503574	17.066810
44696	9.619975	1.000443	0.205525	-0.022870	0.007359	-0.003761	78.282975	-85.501130	17.077076
44697	9.668510	1.021115	0.234339	-0.038445	0.002914	0.007019	78.266747	-85.505227	17.071688
44698	9.711218	0.987257	0.143632	-0.048235	0.007042	0.002690	78.221785	-85.506418	17.089321
44699	9.701761	0.898915	0.120029	-0.063202	0.005614	0.014865	78.160303	-85.514600	17.115098
44700	9.667155	0.739877	0.064467	-0.062295	0.006443	0.016789	78.090147	-85.523756	17.149591
44701	9.722159	0.700676	0.104911	-0.057462	0.011214	0.015218	77.990914	-85.531466	17.216531
44702	9.695427	0.556405	0.067267	-0.043682	0.007508	0.012141	77.930845	-85.537897	17.252288
44703	9.707384	0.504364	0.170840	-0.015815	0.023651	0.011475	77.771440	-85.541994	17.403518
44704	9.624404	0.576527	0.283072	0.006919	0.011474	0.006893	77.719818	-85.544980	17.460487
44705	9.666606	0.655074	0.301249	-0.004578	0.011349	0.006703	77.662386	-85.547875	17.515891
44706	9.628478	0.655201	0.218730	-0.000395	-0.001712	0.003031	77.706857	-85.550364	17.470479
44707	9.703318	0.725879	0.227933	0.000225	0.001315	0.004432	77.727894	-85.553212	17.449935
44708	9.670190	0.640867	0.177521	-0.003725	-0.010037	0.007573	77.823712	-85.559188	17.352655
44709	9.721171	0.668159	0.132266	0.007665	0.000083	0.000126	77.864705	-85.559770	17.316372
44710	9.633844	0.615091	0.279784	-0.001302	0.001155	0.001282	77.891102	-85.560878	17.289806
44711	9.616840	0.606202	0.294702	0.003692	-0.001075	-0.008101	77.950873	-85.556986	17.232406
44712	9.602254	0.604422	0.236274	0.012168	-0.007761	-0.002669	78.055118	-85.556945	17.135034
44713	9.648987	0.651531	0.077151	0.026232	-0.021060	-0.005570	78.267967	-85.556802	16.937048
44714	9.713417	0.701942	0.139231	0.034298	-0.015565	-0.008301	78.449670	-85.554459	16.774946
44715	9.701181	0.707026	0.006199	0.050120	-0.023688	-0.003444	78.691991	-85.555699	16.561126
44716	9.770204	0.929638	0.059796	0.058200	-0.010791	-0.005832	78.848826	-85.554135	16.436822
44717	9.780095	1.063449	0.112174	0.029235	-0.006127	0.005160	78.940055	-85.558181	16.362548
44718	9.762942	1.006877	0.097768	0.000277	-0.001455	0.016154	78.965668	-85.567900	16.338085
44719	9.760725	0.998791	0.170630	-0.015570	-0.000743	0.010950	78.984270	-85.574604	16.310909
44720	9.700637	0.928822	0.219803	-0.043768	-0.000062	0.015533	78.975164	-85.583833	16.294681
44721	9.712776	0.717597	0.184535	-0.052141	-0.003372	0.017744	78.982446	-85.594645	16.257843
44722	9.750472	0.622551	0.209898	-0.046085	0.000048	0.018622	78.966695	-85.605575	16.246883
44723	9.731590	0.492196	0.188922	-0.020595	-0.005931	0.019984	79.007826	-85.617927	16.194225
44724	9.701103	0.458888	0.094450	0.005224	-0.006691	0.022220	79.066292	-85.631635	16.138617
44725	9.694563	0.469127	0.053830	0.029300	-0.005224	0.017048	79.135589	-85.642250	16.086383
44726	9.721710	0.610616	0.092131	0.036138	-0.002084	0.011688	79.193499	-85.649526	16.049704
44727	9.698546	0.658796	0.095608	0.026253	-0.001843	0.010923	79.245131	-85.656324	16.013438
44728	9.732946	0.722668	0.094091	0.016440	-0.005107	0.006253	79.322042	-85.660852	15.946319
44729	9.724989	0.707653	0.075742	0.012016	-0.000763	0.005140	79.365852	-85.664272	15.909716
44730	9.716423	0.759024	0.137302	0.007957	-0.002117	0.000648	79.423537	-85.665354	15.856058
44731	9.749415	0.797026	0.158165	0.000919	0.000837	0.001924	79.453660	-85.666791	15.826805
44732	9.732855	0.833826	0.202137	-0.001073	0.002474	0.005712	79.465484	-85.670214	15.815229
44733	9.715168	0.730971	0.159461	0.003493	-0.000752	0.014989	79.490913	-85.679175	15.792163
44734	9.760951	0.795795	0.052523	0.019210	0.001104	0.012199	79.515662	-85.686390	15.779340
44735	9.669364	0.873167	0.196222	0.006053	0.007851	0.016676	79.476023	-85.695402	15.822998
44736	9.624514	0.626437	0.114874	0.008348	-0.006170	0.024792	79.531003	-85.710444	15.772358
44737	9.702398	0.748743	0.079299	0.027854	-0.001503	0.010341	79.582853	-85.716863	15.736794
44738	9.706351	0.682160	0.163202	-0.000115	0.000531	0.019358	79.591129	-85.728144	15.729460
44739	9.722049	0.663310	0.170135	0.022409	-0.001898	0.010862	79.642361	-85.734894	15.691389
44740	9.732522	0.683024	0.115032	-0.001728	0.000176	0.019941	79.651849	-85.746518	15.682455
44741	9.691109	0.582716	0.047300	0.009705	-0.000648	0.008229	79.690204	-85.751652	15.649999
44742	9.673233	0.592382	0.113030	0.015978	0.000380	0.013363	79.716909	-85.759565	15.632248
44743	9.704004	0.510162	0.098169	0.030755	-0.002321	0.008478	79.779910	-85.765007	15.587173
44744	9.696018	0.607508	0.188415	0.038428	0.001445	0.008769	79.817555	-85.770222	15.570596
44745	9.689922	0.665384	0.176470	0.041971	-0.010960	0.003892	79.959421	-85.773938	15.452884
44746	9.717808	0.741654	0.134143	0.046124	-0.005715	0.004818	80.062664	-85.777655	15.376670
44747	9.704186	0.831261	0.132820	0.033858	-0.005522	0.010875	80.149396	-85.784744	15.309583
44748	9.707094	0.883375	0.087923	0.022772	-0.003909	0.007659	80.221703	-85.789877	15.250139
44749	9.754846	0.810234	0.057969	0.008295	-0.003386	0.013073	80.274924	-85.797988	15.201968
44750	9.696418	0.813774	0.113712	0.002982	0.003834	0.010197	80.273292	-85.803759	15.205736
44751	9.704960	0.760801	0.052433	-0.007288	0.002391	0.012469	80.274083	-85.810968	15.201184
44752	9.711655	0.747757	0.093008	-0.010697	0.007773	0.009540	80.235203	-85.816051	15.233735
44753	9.677214	0.682216	0.094857	-0.021906	0.001788	0.009722	80.235876	-85.821767	15.220903
44754	9.701281	0.612150	0.040663	-0.023432	0.001627	0.006572	80.241058	-85.825764	15.201980
44755	9.682860	0.576329	0.078247	-0.016189	0.006455	-0.001829	80.224300	-85.824504	15.209911
44756	9.724895	0.609091	0.066595	-0.011483	-0.000089	-0.000182	80.258613	-85.824851	15.168715
44757	9.715935	0.614431	0.099863	-0.003182	0.006703	0.001502	80.242960	-85.825449	15.183010
44758	9.691403	0.637129	0.126416	0.004180	0.008953	0.001095	80.214447	-85.825622	15.213634
44759	9.717876	0.687178	0.108047	0.009306	0.007822	-0.000124	80.199453	-85.825192	15.234442
44760	9.678706	0.707439	0.076567	0.004473	0.006762	0.001623	80.187423	-85.825902	15.248636
44761	9.734869	0.696220	0.094561	0.000752	0.010631	-0.002002	80.148328	-85.824136	15.288695
44762	9.691349	0.637270	0.129840	-0.011025	0.012733	-0.002715	80.087459	-85.821789	15.344016
44763	9.698833	0.605915	0.120094	0.005048	0.008858	-0.008875	80.073886	-85.816315	15.360954
44764	9.714338	0.589314	0.128023	-0.002002	0.008121	-0.007772	80.060098	-85.811515	15.373424
44765	9.706728	0.622195	0.139455	0.007333	0.005024	-0.012131	80.081803	-85.804582	15.356302
44766	9.749657	0.636080	0.077286	0.013707	0.009948	-0.010559	80.067468	-85.798088	15.379317
44767	9.762731	0.613173	0.158297	0.017240	0.012168	-0.011026	80.038511	-85.791071	15.418684
44768	9.739527	0.663439	0.163035	0.022588	0.012357	-0.007814	80.006765	-85.785932	15.462485
44769	9.706852	0.672784	0.172072	0.016337	0.015031	-0.012783	79.957998	-85.777635	15.521199
44770	9.706308	0.627597	0.144415	0.024266	0.009196	-0.012294	79.957388	-85.770214	15.535232
44771	9.700071	0.687395	0.134023	0.016716	0.013029	-0.015986	79.928726	-85.760307	15.574004
44772	9.674512	0.618933	0.103472	0.016403	0.011513	-0.016683	79.912828	-85.750188	15.600509
44773	9.682369	0.635403	0.122391	0.013357	0.011187	-0.022984	79.905919	-85.736517	15.615539
44774	9.698831	0.600318	0.079506	0.013029	0.005967	-0.023846	79.938855	-85.722902	15.589130
44775	9.705221	0.590948	0.120352	0.014444	0.012401	-0.028525	79.930852	-85.705984	15.605883
44776	9.691224	0.684200	0.120334	0.026273	0.003086	-0.031864	80.003630	-85.688149	15.547794
44777	9.733029	0.719520	0.108480	0.027925	0.004384	-0.020553	80.052552	-85.676527	15.515205
44778	9.725248	0.753517	0.118945	0.042885	-0.004412	-0.021320	80.176819	-85.665409	15.416382
44779	9.825026	0.849673	0.130107	0.058546	0.001882	-0.008313	80.245559	-85.660934	15.381513
44780	9.751074	0.918674	0.206453	0.059251	-0.005064	0.000751	80.355371	-85.662277	15.307169
44781	9.790764	1.041998	0.086585	0.054847	-0.007173	0.011190	80.464747	-85.669675	15.229422
44782	9.705899	0.995195	0.160980	0.047676	0.006533	0.020394	80.456500	-85.680974	15.266083
44783	9.699932	1.051269	0.148968	0.032460	-0.007258	0.027661	80.533581	-85.697680	15.207862
44784	9.656116	0.896003	0.125348	0.013775	-0.008446	0.036036	80.598584	-85.719241	15.149951
44785	9.647036	0.851474	0.129118	0.010583	-0.001744	0.037517	80.610017	-85.740994	15.144994
44786	9.637921	0.806981	0.133049	0.002005	-0.006348	0.035310	80.654827	-85.761914	15.102606
44787	9.645773	0.771809	0.121581	-0.011311	-0.011817	0.031118	80.739291	-85.780981	15.011841
44788	9.622017	0.724868	0.067315	-0.029182	-0.005893	0.033575	80.764899	-85.800869	14.968345
44789	9.651922	0.660607	0.103512	-0.038059	-0.008305	0.030833	80.808523	-85.819443	14.903168
44790	9.616152	0.566588	0.126559	-0.049243	-0.010578	0.031179	80.863786	-85.838411	14.820642
44791	9.698487	0.556371	0.094771	-0.039471	-0.019222	0.019737	81.006631	-85.851679	14.655174
44792	9.730204	0.566429	0.136593	-0.042460	-0.008441	0.013921	81.071464	-85.860592	14.567305
44793	9.689163	0.512570	0.097404	-0.042980	-0.007581	0.008960	81.135666	-85.866693	14.478672
44794	9.680645	0.451028	0.050167	-0.046964	-0.012452	0.000576	81.245918	-85.868468	14.341177
44795	9.721233	0.457646	0.059504	-0.033283	-0.006237	-0.010159	81.328428	-85.863603	14.239761
44796	9.711266	0.484049	0.142751	-0.023108	-0.004997	-0.008695	81.405507	-85.859419	14.151249
44797	9.706598	0.570156	0.109090	-0.014255	0.000170	-0.017681	81.457238	-85.849727	14.091622
44798	9.672976	0.600107	0.167956	-0.019068	0.002817	-0.015769	81.482936	-85.840968	14.054111
44799	9.705435	0.593573	0.160287	-0.010655	-0.001126	-0.022048	81.551407	-85.828904	13.979766
44800	9.720863	0.578410	0.167546	-0.013771	0.002063	-0.024450	81.596354	-85.815290	13.927840
44801	9.694738	0.464610	0.107083	-0.005689	-0.007097	-0.031591	81.723748	-85.798299	13.797264
44802	9.701626	0.502493	0.175432	0.019692	0.000546	-0.037710	81.812726	-85.777184	13.720772
44803	9.686406	0.456883	0.088345	0.043127	-0.007554	-0.032711	81.970695	-85.759557	13.587577
44804	9.690879	0.586330	0.049582	0.080935	-0.006207	-0.040787	82.147580	-85.737256	13.457774
44805	9.714682	0.633517	0.102432	0.068904	-0.000984	-0.030144	82.265183	-85.720522	13.379860
44806	9.668624	0.669197	0.029047	0.092122	-0.011191	-0.045192	82.486622	-85.695948	13.210886
44807	9.767624	0.834679	0.118744	0.073873	0.004113	-0.039204	82.575583	-85.673655	13.164547
44808	9.715279	0.671878	0.077690	0.074206	-0.005321	-0.042720	82.738644	-85.650073	13.046105
44809	9.703086	0.885716	0.110680	0.066487	0.001831	-0.038795	82.838200	-85.628161	12.984893
44810	9.636932	0.812403	0.068748	0.055735	-0.005198	-0.029904	82.975248	-85.611768	12.882362
44811	9.747489	0.720598	0.096270	0.053820	-0.003371	-0.029858	83.096220	-85.595280	12.792389
44812	9.675120	0.705036	0.042159	0.073179	-0.012826	-0.029325	83.296364	-85.579777	12.633362
44813	9.750010	0.825457	0.077568	0.083581	0.000876	-0.022987	83.395506	-85.566881	12.582384
44814	9.735773	0.917793	0.075186	0.074516	-0.009324	-0.018554	83.559622	-85.557186	12.460422
44815	9.754178	1.001233	0.064702	0.061602	-0.004897	-0.009845	83.676685	-85.552122	12.378836
44816	9.746147	0.987182	0.046493	0.041773	0.006393	-0.003463	83.694247	-85.549947	12.386331
44817	9.673937	0.968983	-0.006206	0.024972	0.002385	-0.007001	83.734540	-85.546035	12.360696
44818	9.671053	0.869958	0.010700	0.008568	0.008321	0.002334	83.715079	-85.547153	12.385616
44819	9.621236	0.822253	0.005746	0.000916	0.000850	0.001919	83.745634	-85.548416	12.355923
44820	9.689482	0.762204	0.126027	0.006736	0.006621	-0.001503	83.740168	-85.547327	12.367013
44821	9.664839	0.785037	0.151617	0.004331	-0.004514	0.004877	83.809583	-85.550607	12.300306
44822	9.689539	0.761550	0.125580	0.010358	-0.004804	0.005583	83.884062	-85.554092	12.235935
44823	9.702916	0.737858	0.205492	0.015706	-0.000889	0.008938	83.930456	-85.559453	12.198857
44824	9.688381	0.733534	0.147243	0.021948	-0.003537	0.013919	83.996860	-85.567815	12.147227
44825	9.738066	0.732895	0.123581	0.020629	-0.009781	0.014900	84.107252	-85.577094	12.048789
44826	9.698627	0.704343	0.062391	0.031107	0.000401	0.017333	84.146558	-85.587114	12.028099
44827	9.706718	0.717496	0.080067	0.032410	0.002934	0.016205	84.169357	-85.596381	12.024285
44828	9.665923	0.662973	0.041830	0.023934	-0.001511	0.010289	84.224714	-85.602497	11.984208
44829	9.707868	0.695070	0.029182	0.023799	0.001007	0.002278	84.267464	-85.603935	11.955438
44830	9.681298	0.598307	0.020732	0.021967	-0.000694	-0.001557	84.324711	-85.603340	11.910562
44831	9.674931	0.656885	0.008638	0.035103	0.003600	-0.005552	84.360489	-85.600164	11.895279
44832	9.667540	0.736151	0.047181	0.024873	0.002184	-0.003271	84.398827	-85.598357	11.871687
44833	9.694769	0.766031	-0.022997	0.011008	0.004779	-0.008375	84.414050	-85.593503	11.863174
44834	9.703707	0.760903	-0.055317	0.013835	0.007495	-0.006357	84.409597	-85.589691	11.876186
44835	9.709289	0.770686	0.036157	0.014452	0.010533	-0.004984	84.381809	-85.586450	11.912790
44836	9.710575	0.797273	0.014459	0.015354	0.007677	-0.003208	84.374926	-85.584350	11.931019
44837	9.717762	0.879797	0.111628	0.010258	0.012529	-0.001857	84.327782	-85.582776	11.984628
44838	9.712448	0.917259	0.050006	-0.005774	0.009063	0.003994	84.292561	-85.584790	12.015628
44839	9.645640	0.860500	0.060866	-0.010193	0.009705	0.002702	84.251183	-85.585972	12.051701
44840	9.667952	0.831301	0.109569	-0.016679	0.011861	0.008917	84.185759	-85.590441	12.111593
44841	9.643836	0.739494	0.029253	-0.026761	0.003363	0.003444	84.181144	-85.592409	12.101272
44842	9.673792	0.678560	0.066993	-0.025766	0.004376	0.001628	84.170005	-85.593269	12.096623
44843	9.697126	0.628998	0.064297	-0.013127	-0.000589	0.004133	84.201933	-85.595859	12.057486
44844	9.705098	0.643565	0.082217	0.000011	0.003705	0.000143	84.213013	-85.595908	12.048176
44845	9.698476	0.655014	0.042045	0.005406	-0.003333	-0.000666	84.279493	-85.595917	11.985035
44846	9.723707	0.725370	0.072640	0.007851	0.001405	0.004544	84.308484	-85.598743	11.958623
44847	9.700146	0.727369	0.047623	0.006247	0.001058	0.005128	84.338705	-85.601801	11.932332
44848	9.743416	0.786057	0.012963	-0.000595	0.004373	-0.001089	84.346112	-85.601183	11.926209
44849	9.758011	0.789170	0.071320	-0.012202	0.003968	0.006193	84.343439	-85.604682	11.922308
44850	9.683204	0.717802	0.064417	-0.020542	0.014511	-0.002888	84.262963	-85.602387	11.989170
44851	9.697748	0.721306	0.123472	-0.026981	0.005711	-0.000837	84.244069	-85.601779	11.993044
44852	9.671426	0.671740	0.144006	-0.032233	0.005667	-0.007782	84.227852	-85.597180	11.992416
44853	9.705074	0.643406	0.086188	-0.032033	-0.000394	-0.003649	84.253358	-85.595320	11.948855
44854	9.671325	0.672996	0.144871	-0.023230	0.004713	-0.012661	84.252926	-85.587986	11.937671
44855	9.697515	0.724039	0.125715	-0.029649	0.003319	-0.010325	84.257229	-85.582106	11.916746
44856	9.730884	0.649487	0.039847	-0.022320	0.005559	-0.010742	84.249936	-85.575893	11.912224
44857	9.707461	0.699989	0.043541	-0.014915	0.004264	-0.015038	84.259155	-85.567272	11.894836
44858	9.716386	0.695769	0.011451	-0.010093	0.009013	-0.016643	84.238296	-85.557436	11.913222
44859	9.686091	0.711329	-0.052586	-0.019013	0.013828	-0.015351	84.175320	-85.548085	11.965891
44860	9.715942	0.652150	-0.013855	-0.014193	0.018577	-0.016955	84.082913	-85.537648	12.051097
44861	9.688444	0.624536	0.058260	-0.015026	0.017894	-0.022607	83.998704	-85.523908	12.127357
44862	9.688281	0.626906	0.059916	-0.014952	0.014356	-0.026488	83.944328	-85.508213	12.174444
44863	9.680343	0.661713	0.071999	-0.015778	0.017376	-0.031993	83.871639	-85.489144	12.238719
44864	9.721984	0.697614	0.061424	-0.021510	0.015472	-0.032164	83.810512	-85.470116	12.288874
44865	9.713714	0.639447	0.017030	-0.013798	0.015702	-0.035768	83.754993	-85.448989	12.337067
44866	9.738544	0.760341	0.078122	-0.015926	0.019886	-0.040000	83.672472	-85.425263	12.410347
44867	9.736902	0.738191	0.102407	-0.020277	0.016979	-0.045179	83.612762	-85.398687	12.459023
44868	9.713010	0.744886	0.079278	-0.022578	0.020823	-0.041945	83.522674	-85.373703	12.537188
44869	9.673446	0.768661	0.048841	-0.020982	0.017466	-0.042677	83.458546	-85.348510	12.589895
44870	9.729339	0.761913	0.068562	-0.027794	0.025472	-0.036857	83.332397	-85.326136	12.704151
44871	9.719877	0.817902	0.131975	-0.028714	0.017209	-0.039079	83.264240	-85.302993	12.756460
44872	9.710443	0.780463	0.138434	-0.042472	0.017229	-0.036198	83.186849	-85.281463	12.811947
44873	9.707578	0.731639	0.184884	-0.042314	0.013857	-0.043816	83.139018	-85.255843	12.836044
44874	9.667993	0.755452	0.153864	-0.036288	0.009875	-0.043252	83.122441	-85.230861	12.833400
44875	9.676725	0.800407	0.150486	-0.026219	0.007287	-0.038195	83.124366	-85.208889	12.816824
44876	9.701050	0.874487	0.182698	-0.025312	0.008133	-0.036273	83.119351	-85.187877	12.809729
44877	9.669288	0.912009	0.168659	-0.025773	-0.001134	-0.029808	83.171298	-85.171251	12.743209
44878	9.654544	0.957920	0.139602	-0.025040	0.006777	-0.020110	83.163723	-85.159632	12.739492
44879	9.653127	0.933442	0.162438	-0.017088	0.000981	-0.019590	83.197787	-85.148672	12.695911
44880	9.639850	0.958221	0.082389	-0.007396	0.000420	-0.011337	83.235161	-85.142464	12.656419
44881	9.689234	1.007003	0.088321	-0.008089	0.000915	-0.008834	83.266019	-85.137624	12.621230
44882	9.682631	1.019007	0.048201	-0.010542	-0.002992	0.001560	83.313253	-85.138985	12.567756
44883	9.714149	0.984367	0.062914	-0.016977	0.002984	0.004194	83.314884	-85.141417	12.556788
44884	9.689459	0.959918	0.060590	-0.019584	0.005305	0.006741	83.298933	-85.145018	12.567619
44885	9.745755	0.948706	0.078739	-0.024401	0.004233	0.008481	83.284567	-85.149806	12.568437
44886	9.712091	0.882743	0.081137	-0.030839	0.010206	0.011116	83.225999	-85.155691	12.613818
44887	9.695225	0.872310	0.097501	-0.041094	0.012428	0.013525	83.142863	-85.162791	12.674053
44888	9.685245	0.756941	0.097014	-0.041401	0.010906	0.012831	83.071125	-85.169638	12.723440
44889	9.652780	0.717307	0.077656	-0.045455	0.013212	0.008493	82.983965	-85.173808	12.785206
44890	9.626817	0.666362	0.098111	-0.036112	0.006436	0.004000	82.951991	-85.175874	12.798612
44891	9.658272	0.631822	0.113655	-0.042992	0.009722	-0.002216	82.898573	-85.174192	12.827931
44892	9.692538	0.557627	0.027489	-0.035252	0.002592	-0.006131	82.901401	-85.170771	12.806837
44893	9.689809	0.552183	0.101112	-0.016281	0.009077	-0.013614	82.877253	-85.162652	12.822140
44894	9.697488	0.568246	0.120054	-0.009855	0.010510	-0.015930	82.849658	-85.153096	12.846442
44895	9.705342	0.538105	0.110432	0.001700	0.010837	-0.019450	82.829078	-85.141533	12.868506
44896	9.713998	0.627797	0.135933	0.012946	0.013349	-0.023502	82.802370	-85.127544	12.904196
44897	9.723040	0.624911	0.104139	0.022290	0.010284	-0.027833	82.804531	-85.111255	12.915276
44898	9.722590	0.674414	0.133678	0.040567	0.013561	-0.032970	82.800243	-85.091839	12.944924
44899	9.731295	0.719091	0.130139	0.050909	0.007815	-0.039269	82.844641	-85.069225	12.930071
44900	9.694183	0.795456	0.053910	0.064260	0.013534	-0.038777	82.858302	-85.046476	12.954840
44901	9.678704	0.935776	0.082497	0.060016	0.019179	-0.035493	82.830206	-85.025198	13.017990
44902	9.694988	0.995127	0.097252	0.042513	0.015568	-0.036593	82.818104	-85.003561	13.057327
44903	9.664988	0.966020	0.004624	0.021712	0.014772	-0.032646	82.795016	-84.984213	13.093423
44904	9.684171	0.934503	0.126402	0.014828	0.018038	-0.038871	82.752344	-84.961156	13.144827
44905	9.691509	0.952733	0.145586	0.006434	0.010853	-0.033096	82.746605	-84.941833	13.154721
44906	9.666952	0.885205	0.115361	0.004117	0.014687	-0.029859	82.713119	-84.924132	13.191938
44907	9.666694	0.887854	0.116673	0.012285	0.013960	-0.024747	82.684314	-84.909326	13.228356
44908	9.657166	0.895776	0.150544	0.013904	0.010617	-0.025482	82.678702	-84.894411	13.241290
44909	9.640435	0.842213	0.137840	0.011918	0.008570	-0.021864	82.681831	-84.881637	13.245437
44910	9.648373	0.812513	0.127926	0.019259	0.007160	-0.022408	82.698073	-84.868679	13.239874
44911	9.663972	0.797748	0.135763	0.029194	0.007132	-0.025339	82.722946	-84.854034	13.232128
44912	9.657269	0.811760	0.095674	0.028237	-0.001292	-0.023839	82.800172	-84.840774	13.175725
44913	9.675178	0.849727	0.058175	0.043194	0.001108	-0.024079	82.869556	-84.827274	13.131340
44914	9.648192	0.894949	0.134088	0.035846	0.002509	-0.023537	82.925644	-84.814041	13.096321
44915	9.690055	0.884000	0.093424	0.037168	-0.002355	-0.024960	83.013342	-84.800274	13.030078
44916	9.680529	0.891916	0.125974	0.037734	0.004378	-0.023425	83.057967	-84.786978	13.006274
44917	9.697270	0.903480	0.110660	0.038088	-0.005206	-0.023187	83.161909	-84.774400	12.924246
44918	9.691686	0.943303	0.047442	0.036992	-0.002691	-0.017493	83.244689	-84.764840	12.863748
44919	9.721514	0.931285	0.112155	0.029672	-0.004988	-0.017101	83.337256	-84.755688	12.788297
44920	9.714844	0.944328	0.071359	0.023240	-0.002724	-0.014637	83.410488	-84.747779	12.730200
44921	9.713025	0.966178	0.121576	0.021319	-0.000904	-0.014600	83.470728	-84.739766	12.682405
44922	9.697131	0.864863	0.079534	0.016535	-0.005681	-0.013012	83.556451	-84.732919	12.607210
44923	9.665350	0.900009	0.064365	0.020226	0.001617	-0.008908	83.596214	-84.727974	12.579349
44924	9.647721	0.938504	0.107615	0.016783	0.003237	-0.012025	83.626517	-84.721190	12.559908
44925	9.640581	0.878176	0.061507	0.014295	-0.001683	-0.013516	83.686223	-84.713827	12.508605
44926	9.646998	0.868096	0.101429	0.012079	-0.001383	-0.014169	83.742729	-84.706061	12.458935
44927	9.672666	0.800035	0.047307	0.013034	-0.007923	-0.012541	83.839062	-84.699628	12.370122
44928	9.671933	0.848191	0.074699	0.028053	-0.005360	-0.016522	83.931633	-84.690739	12.296409
44929	9.685965	0.853254	0.131942	0.022635	-0.005778	-0.016017	84.022073	-84.682170	12.219037
44930	9.696210	0.875428	0.076265	0.026718	-0.000501	-0.015108	84.081821	-84.673804	12.175311
44931	9.686353	0.809478	0.102773	0.027354	-0.004862	-0.014021	84.167640	-84.666301	12.105292
44932	9.711391	0.788577	0.076809	0.040841	-0.002507	-0.021159	84.251109	-84.654563	12.046115
44933	9.741263	0.777282	0.141697	0.044035	-0.001797	-0.022318	84.332364	-84.642135	11.990277
44934	9.727951	0.802309	0.060729	0.050131	-0.001895	-0.025326	84.419831	-84.628017	11.933336
44935	9.711196	0.868517	0.081091	0.050685	0.004841	-0.023808	84.464939	-84.614357	11.917630
44936	9.743764	0.863330	0.073476	0.035531	0.001052	-0.027978	84.526424	-84.598553	11.876782
44937	9.718992	0.842213	0.070680	0.032452	0.004329	-0.034145	84.569752	-84.579023	11.852371
44938	9.669720	0.797100	0.065528	0.033327	0.008890	-0.032085	84.584805	-84.560432	11.857056
44939	9.670446	0.826654	0.043390	0.038539	0.004223	-0.037152	84.633555	-84.539191	11.830700
44940	9.662039	0.935215	0.059502	0.041991	0.010153	-0.037487	84.648917	-84.517429	11.840575
44941	9.669253	0.953785	0.077644	0.035007	0.005672	-0.036539	84.686279	-84.496457	11.823625
44942	9.711069	0.943777	0.037363	0.034664	0.000299	-0.033628	84.753015	-84.477399	11.777259
44943	9.693840	0.937956	0.052526	0.031152	0.009299	-0.036478	84.766296	-84.456269	11.782281
44944	9.701043	0.956489	0.070491	0.029613	0.001536	-0.036170	84.823868	-84.435735	11.741655
44945	9.710070	0.953968	0.038013	0.030376	0.009662	-0.030245	84.831066	-84.418144	11.752343
44946	9.706974	0.951900	0.111643	0.032729	0.009639	-0.037060	84.843726	-84.396615	11.761010
44947	9.692516	0.951438	0.054294	0.028841	0.009434	-0.033400	84.853032	-84.377235	11.768697
44948	9.628386	0.948950	0.019593	0.032536	0.013053	-0.029458	84.842135	-84.359981	11.799374
44949	9.649716	0.970770	0.096056	0.027163	0.008929	-0.029086	84.851200	-84.343090	11.806338
44950	9.690705	0.934184	0.078850	0.022481	0.004290	-0.031213	84.885823	-84.325211	11.786686
44951	9.729800	0.918927	0.111992	0.020699	0.006375	-0.038653	84.910616	-84.302990	11.774123
44952	9.633732	0.950371	0.061635	0.030086	0.004410	-0.031063	84.947767	-84.285197	11.754707
44953	9.641837	0.994434	0.057069	0.034755	0.009043	-0.028938	84.960232	-84.268386	11.762627
44954	9.653621	1.095120	0.170939	0.026816	0.003553	-0.026168	84.998035	-84.253438	11.741106
44955	9.687234	1.042844	0.135580	0.012791	-0.001839	-0.020393	85.055197	-84.242045	11.691454
44956	9.696541	0.966061	0.097513	0.021049	0.001470	-0.022612	85.098843	-84.229267	11.658529
44957	9.716800	1.034694	0.200967	0.029993	0.004260	-0.027330	85.134392	-84.213609	11.640505
44958	9.654706	1.010084	0.115083	0.022496	0.001561	-0.015723	85.175702	-84.204632	11.615717
44959	9.657346	1.016768	0.042006	0.024088	0.001917	-0.016303	85.215552	-84.195379	11.589969
44960	9.670385	0.996341	0.122412	0.023439	-0.001266	-0.013933	85.270724	-84.187622	11.547272
44961	9.712501	0.984398	0.081873	0.026336	-0.002079	-0.015776	85.333773	-84.178853	11.499498
44962	9.695502	0.976556	0.096260	0.031702	-0.005487	-0.012674	85.417833	-84.172037	11.434707
44963	9.703704	1.018894	0.090915	0.032191	0.004962	-0.011058	85.442440	-84.165631	11.428947
44964	9.696146	1.004727	0.073176	0.028069	-0.000458	-0.008206	85.493586	-84.161094	11.394524
44965	9.681127	0.975482	0.037670	0.027807	0.001839	-0.012496	85.533641	-84.154006	11.370709
44966	9.680142	0.950801	0.060509	0.026526	0.006832	-0.014844	85.546519	-84.145441	11.373208
44967	9.647368	0.886958	0.063327	0.027898	0.005784	-0.019841	85.567723	-84.133980	11.368395
44968	9.663225	0.871884	0.071147	0.030366	0.003193	-0.014894	85.602863	-84.125523	11.350968
44969	9.678788	0.929982	0.083895	0.036469	0.006911	-0.021509	85.623312	-84.113059	11.351850
44970	9.655950	0.959772	0.036133	0.026077	0.004012	-0.023676	85.654798	-84.099495	11.336350
44971	9.637714	0.999940	0.078844	0.020394	0.002061	-0.023851	85.693670	-84.085903	11.309451
44972	9.646884	0.996397	0.046201	0.021365	0.003060	-0.025669	85.728307	-84.071271	11.287409
44973	9.655711	1.065810	0.018437	0.015901	0.002515	-0.021429	85.760833	-84.059039	11.264302
44974	9.646878	1.099741	0.028497	0.018395	0.003751	-0.020093	85.787118	-84.047565	11.248050
44975	9.701810	1.139655	0.074072	0.012029	0.002325	-0.017769	85.816790	-84.037431	11.225581
44976	9.668756	1.148578	0.081588	0.007473	0.002664	-0.011612	85.839525	-84.030849	11.207185
44977	9.676849	1.190773	0.076762	0.006453	0.005362	-0.009673	85.846072	-84.025214	11.204753
44978	9.691994	1.148829	0.107495	-0.006561	0.000985	-0.005705	85.867593	-84.022081	11.179504
44979	9.670523	1.129509	0.032048	-0.006010	0.000221	-0.000733	85.891505	-84.021766	11.152432
44980	9.617171	1.096880	0.150554	-0.008335	0.004090	0.002467	85.891971	-84.023177	11.147572
44981	9.674773	1.040367	0.140864	-0.006671	-0.006772	0.005258	85.951366	-84.026568	11.084444
44982	9.701125	1.043015	0.092650	-0.005481	-0.004362	0.007854	85.997452	-84.031338	11.035957
44983	9.669543	1.002536	0.071960	-0.000729	-0.007113	0.009726	86.060579	-84.037284	10.972500
44984	9.686503	1.010709	0.056327	0.000461	-0.004703	0.012322	86.110224	-84.044660	10.922506
44985	9.693243	0.998735	0.096217	0.000460	-0.004704	0.012322	86.160119	-84.051985	10.873041
44986	9.678518	0.967205	0.060294	-0.003581	-0.009999	0.011446	86.237189	-84.059043	10.793514
44987	9.686056	0.981326	0.077449	-0.002414	-0.000070	0.010549	86.260859	-84.065171	10.768760
44988	9.643870	0.993707	0.117426	-0.003674	-0.002599	0.011688	86.297432	-84.072084	10.730073
44989	9.685109	1.026292	0.104597	-0.015650	-0.005854	0.010104	86.345671	-84.078167	10.672994
44990	9.646409	0.897430	0.061909	-0.011940	0.001612	0.010422	86.355114	-84.084182	10.657653
44991	9.688783	0.883053	0.021649	-0.001352	-0.006471	0.008487	86.415694	-84.089356	10.596405
44992	9.665052	0.957021	0.000746	0.004682	-0.002874	0.005605	86.461022	-84.092796	10.553764
44993	9.671419	1.018557	0.045513	0.001144	-0.005234	0.009823	86.515922	-84.098679	10.499664
44994	9.663780	1.075357	0.032419	-0.001179	-0.001365	0.013024	86.547469	-84.106308	10.468096
44995	9.719945	1.138138	0.055066	-0.005598	-0.000785	0.011711	86.573412	-84.113111	10.439225
44996	9.678957	1.103142	0.067700	-0.022178	0.000002	0.016408	86.583750	-84.122608	10.415592
44997	9.695184	1.084503	0.075846	-0.028990	0.004328	0.022032	86.564526	-84.135138	10.418654
44998	9.621396	1.056224	0.096189	-0.030213	-0.001905	0.023047	86.579360	-84.148469	10.387764
44999	9.671358	1.055716	0.073870	-0.027032	-0.001196	0.021885	86.592181	-84.161104	10.359741
45000	9.664166	1.038111	0.056142	-0.027420	-0.006674	0.028550	86.633173	-84.177742	10.302753
45001	9.639106	1.057708	0.080872	-0.033578	-0.006701	0.035289	86.669074	-84.198224	10.247762
45002	9.658261	1.042504	0.015018	-0.031950	-0.010051	0.034583	86.725401	-84.218448	10.172772
45003	9.702644	1.077429	-0.071286	-0.025067	-0.013235	0.040840	86.802196	-84.242306	10.081585
45004	9.692836	1.053157	-0.016366	-0.032870	-0.002394	0.044803	86.812192	-84.268095	10.052847
45005	9.659563	1.030396	0.013795	-0.042370	-0.004409	0.044554	86.828522	-84.293788	10.012472
45006	9.633776	1.022754	0.061394	-0.046148	-0.008181	0.044352	86.864761	-84.319505	9.949713
45007	9.675543	0.978702	0.043463	-0.053515	-0.010622	0.048491	86.909974	-84.347639	9.873900
45008	9.683520	0.916075	0.055587	-0.046860	-0.007686	0.046850	86.943245	-84.374766	9.813913
45009	9.762819	0.873949	0.120883	-0.044733	-0.008126	0.051238	86.979225	-84.404386	9.752440
45010	9.705155	0.899429	0.152721	-0.038588	-0.015638	0.047969	87.064521	-84.432387	9.644879
45011	9.707283	0.800673	0.096078	-0.035513	-0.011371	0.050673	87.126408	-84.461765	9.562691
45012	9.721853	0.799667	0.152997	-0.020262	-0.014845	0.050834	87.218754	-84.491361	9.459048
45013	9.723446	0.894010	0.134226	-0.017955	-0.018713	0.047620	87.337086	-84.519165	9.330268
45014	9.710232	0.765488	0.041478	-0.023982	-0.018480	0.046893	87.451924	-84.546571	9.200763
45015	9.687062	0.763354	0.014624	-0.017748	-0.018309	0.036416	87.573297	-84.567902	9.069060
45016	9.712239	0.664159	-0.017775	-0.013229	-0.022472	0.033854	87.724156	-84.587879	8.910147
45017	9.720713	0.629513	-0.029397	-0.004198	-0.008304	0.022066	87.798038	-84.600715	8.833953
45018	9.684674	0.677187	0.078085	0.008382	-0.010549	0.012861	87.895405	-84.608361	8.741598
45019	9.695712	0.649454	-0.006563	0.009121	-0.018467	0.010093	88.041925	-84.614522	8.600110
45020	9.722265	0.725247	-0.050191	0.031398	-0.002398	0.002352	88.105679	-84.615957	8.555085
45021	9.669618	0.838395	0.078040	0.025083	-0.003677	0.000944	88.173600	-84.616564	8.501733
45022	9.689178	0.852756	-0.010835	0.019408	-0.009312	0.000639	88.272781	-84.617180	8.413181
45023	9.665994	0.927860	-0.031496	0.024833	-0.001362	-0.003342	88.327281	-84.615279	8.373165
45024	9.698749	1.113692	-0.001138	0.020803	-0.002802	-0.007830	88.389296	-84.610861	8.324046
45025	9.651673	1.190452	0.190016	-0.001203	-0.002393	-0.002601	88.434929	-84.609393	8.277951
45026	9.725174	1.263199	0.197845	-0.023751	-0.001193	-0.002340	88.460577	-84.608118	8.238992
45027	9.685454	1.208770	0.159878	-0.051803	-0.008087	0.005637	88.510437	-84.611449	8.159532
45028	9.721619	1.158658	0.051395	-0.079451	-0.009488	0.006960	88.553166	-84.615580	8.072046
45029	9.674346	1.088557	-0.004427	-0.080524	-0.010656	0.012510	88.601347	-84.622873	7.977744
45030	9.675498	1.113300	-0.026983	-0.091751	-0.009461	0.016718	88.635738	-84.632539	7.892201
45031	9.658060	0.956327	-0.023163	-0.096226	-0.016433	0.018872	88.709740	-84.643538	7.762932
45032	9.675148	0.963511	-0.038468	-0.088453	-0.007562	0.023710	88.734187	-84.657247	7.688182
45033	9.673965	0.862001	-0.021796	-0.095760	-0.013580	0.023974	88.791102	-84.671114	7.576347
45034	9.691207	0.749261	-0.070737	-0.084021	-0.004352	0.021421	88.799020	-84.683460	7.520331
45035	9.698008	0.735854	-0.030490	-0.066863	-0.005960	0.021660	88.826495	-84.695902	7.454697
45036	9.663929	0.642212	-0.006145	-0.058971	-0.000631	0.022633	88.825640	-84.708901	7.421139
45037	9.278634	0.751005	-0.132769	-0.026772	0.011600	0.015579	88.768426	-84.717650	7.463627
45038	10.134224	0.332937	-0.022569	-0.019346	-0.044020	0.055267	89.056716	-84.749804	7.163149
45039	9.664990	0.471978	-0.305808	-0.060375	0.038887	-0.028802	88.815551	-84.732848	7.371029
45040	9.489169	0.509629	0.076976	0.044694	0.006030	-0.008946	88.837167	-84.727692	7.375071
45041	9.838818	0.573624	-0.125897	0.026319	0.001533	-0.011945	88.876242	-84.720793	7.351407
45042	9.717341	0.674220	-0.121137	0.047902	0.028367	-0.032316	88.764759	-84.701989	7.491744
45043	9.577971	0.620354	-0.112685	0.056840	0.012347	-0.030299	88.757066	-84.684447	7.532611
45044	9.879662	1.047903	-0.025823	0.051520	0.030890	-0.040262	88.634149	-84.661030	7.685183
45045	9.575025	0.814718	0.004064	0.010586	0.023853	-0.043145	88.532463	-84.635955	7.793840
45046	9.749637	1.139728	-0.035802	0.011884	0.022684	-0.044414	88.440009	-84.610191	7.894272
45047	9.541172	0.950333	0.049674	-0.009234	0.020197	-0.037413	88.350011	-84.588424	7.979791
45048	9.601628	1.195439	-0.008862	-0.008476	0.019837	-0.043649	88.264668	-84.563111	8.061436
45049	9.529196	1.032898	-0.071651	-0.033850	0.015456	-0.029946	88.189034	-84.545681	8.118364
45050	9.775870	1.137610	-0.126574	-0.030204	0.006741	-0.034586	88.169568	-84.525845	8.121192
45051	9.944470	1.111098	-0.072103	-0.040114	0.015222	-0.019469	88.090360	-84.514409	8.178109
45052	9.821018	0.965362	-0.060920	-0.042047	0.036753	-0.010544	87.880524	-84.507663	8.365407
45053	9.641991	0.998615	0.159180	-0.023855	0.032505	-0.012244	87.707009	-84.499952	8.526427
45054	9.632529	1.004785	0.194960	-0.027838	0.024577	-0.001412	87.576232	-84.498647	8.641728
45055	9.590914	0.898435	0.203523	-0.021086	0.020141	-0.003333	87.476045	-84.496270	8.730675
45056	9.560843	0.912258	0.139627	-0.005728	0.009304	-0.003476	87.449525	-84.494145	8.754439
45057	9.658642	1.009136	0.152268	0.002413	0.012323	0.001790	87.407956	-84.494887	8.798025
45058	9.629306	0.902664	0.053074	-0.001644	-0.004215	0.004163	87.462181	-84.497411	8.744593
45059	9.743266	1.055065	0.078116	0.002077	0.006948	0.004685	87.451568	-84.499949	8.756886
45060	9.588237	0.940884	0.071775	-0.003492	0.006213	0.012654	87.439962	-84.507119	8.766222
45061	9.684171	0.983908	0.128700	-0.013634	0.004857	0.011157	87.431039	-84.513414	8.767773
45062	9.680153	0.854302	0.004037	-0.005570	-0.000736	0.007969	87.461334	-84.518074	8.734994
45063	9.677403	0.847384	0.077525	0.006001	0.011921	0.013069	87.420993	-84.525283	8.779408
45064	9.662403	0.816504	0.042341	0.016635	0.000154	0.010929	87.458383	-84.531554	8.754393
45065	9.686718	0.766821	0.039788	0.018218	0.011765	0.007063	87.427487	-84.535330	8.796350
45066	9.694557	0.853944	0.063875	0.028772	-0.000159	0.008659	87.474786	-84.540337	8.768939
45067	9.681360	0.802857	-0.022505	0.036985	0.003007	0.010192	87.506258	-84.546127	8.759045
45068	9.673327	0.906965	-0.006377	0.042181	0.002059	0.005267	87.547980	-84.549155	8.742409
45069	9.657466	0.923612	-0.013876	0.032702	0.003901	0.001415	87.573967	-84.549897	8.735561
45070	9.741054	0.943907	-0.066126	0.022642	0.002702	-0.003817	87.603151	-84.547732	8.720000
45071	9.688659	1.009852	0.035687	0.017426	0.014897	-0.002191	87.555358	-84.546144	8.778475
45072	9.704524	0.993099	0.044097	0.004445	0.006954	-0.002134	87.548390	-84.544702	8.791944
45073	9.652665	0.939195	0.112340	-0.003245	0.014227	-0.001999	87.492769	-84.543235	8.846384
45074	9.638348	0.862915	0.049821	0.001584	0.011606	-0.003878	87.457046	-84.540827	8.884935
45075	9.685175	0.859033	0.101482	0.008519	0.012235	-0.001222	87.419947	-84.539848	8.927542
45076	9.628690	0.795716	0.078539	0.021867	0.003055	0.002423	87.444994	-84.541252	8.916048
45077	9.688102	0.864457	0.029433	0.042792	0.008939	0.003068	87.446114	-84.542813	8.939987
45078	9.665785	0.892128	-0.017819	0.057265	0.009535	0.009614	87.450281	-84.548114	8.969904
45079	9.713766	0.913368	0.010721	0.062667	0.009944	0.009114	87.455106	-84.553110	9.001561
45080	9.681039	0.920038	0.018637	0.066065	0.012023	0.012379	87.448726	-84.560013	9.045846
45081	9.705593	0.943424	0.022132	0.065890	0.014481	0.004363	87.429326	-84.562173	9.103690
45082	9.707810	0.995025	-0.021966	0.061584	0.016299	0.011204	87.395085	-84.568300	9.173532
45083	9.704960	0.988434	0.052062	0.056456	0.017397	0.012388	87.350365	-84.574970	9.251381
45084	9.696728	1.019252	0.063266	0.048247	0.014232	0.010858	87.320275	-84.580822	9.310498
45085	9.698733	0.997424	0.013892	0.042802	0.017512	0.011491	87.267019	-84.586966	9.389062
45086	9.673552	1.019009	0.040199	0.033904	0.014865	0.012460	87.223970	-84.593744	9.451818
45087	9.709232	0.942149	-0.044466	0.028122	0.012789	0.016006	87.189244	-84.602593	9.503318
45088	9.708599	0.987419	-0.015405	0.028990	0.017351	0.018060	87.126856	-84.612521	9.583410
45089	9.724981	1.041558	-0.000738	0.019628	0.024140	0.022477	87.015889	-84.624728	9.706599
45090	9.730819	1.075150	0.069615	-0.004205	0.022808	0.023804	86.899040	-84.637824	9.821371
45091	9.731843	1.025901	0.044325	-0.030891	0.026130	0.023366	86.745528	-84.650426	9.958214
45092	9.715867	0.967473	0.034074	-0.037871	0.021668	0.024304	86.613650	-84.663697	10.067562
45093	9.680542	0.847509	0.083863	-0.044624	0.026118	0.026194	86.449924	-84.677852	10.206755
45094	9.706447	0.895296	0.066805	-0.034077	0.021707	0.024386	86.319113	-84.691027	10.320049
45095	9.665144	0.859181	0.081513	-0.031788	0.026328	0.033334	86.157000	-84.709190	10.465000
45096	9.642074	0.858033	0.058418	-0.020889	0.016048	0.031942	86.064462	-84.727037	10.544647
45097	9.692666	0.929214	0.043587	-0.023832	0.020551	0.033916	85.940690	-84.745708	10.655665
45098	9.667171	0.875748	0.065476	-0.022848	0.021555	0.032104	85.810929	-84.763407	10.770510
45099	9.684461	0.881906	0.052831	-0.022153	0.021041	0.029606	85.685404	-84.779549	10.884248
45100	9.703748	0.867296	-0.010313	-0.022249	0.020889	0.033340	85.557649	-84.797948	10.996408
45101	9.692514	0.890764	0.075304	-0.026610	0.025334	0.028422	85.401610	-84.813171	11.138215
45102	9.718024	0.865341	0.052855	-0.043050	0.022749	0.025466	85.253184	-84.826845	11.262227
45103	9.706810	0.769280	0.105251	-0.045997	0.027247	0.027441	85.072768	-84.841345	11.417351
45104	9.723426	0.702909	0.087591	-0.032849	0.024199	0.023255	84.921312	-84.853618	11.551894
45105	9.692062	0.734840	0.075225	-0.021060	0.029705	0.020614	84.741835	-84.864014	11.720414
45106	9.692834	0.805894	0.083554	-0.023221	0.022619	0.019670	84.606923	-84.874406	11.842035
45107	9.700486	0.818969	0.103863	-0.032065	0.023835	0.017020	84.459432	-84.882995	11.972106
45108	9.668462	0.778479	0.085458	-0.031049	0.021150	0.015069	84.330547	-84.890706	12.082740
45109	9.676081	0.791850	0.105758	-0.027267	0.024887	0.015302	84.179325	-84.898198	12.219313
45110	9.636510	0.856558	0.103401	-0.030669	0.022814	0.012024	84.041276	-84.904008	12.339689
45111	9.670096	0.800716	0.070400	-0.027150	0.021343	0.011425	83.914659	-84.909445	12.451624
45112	9.744729	0.944615	0.087897	-0.038332	0.026401	0.011985	83.749587	-84.914962	12.596892
45113	9.639498	0.786014	0.032109	-0.046104	0.017556	0.007088	83.638908	-84.918118	12.681922
45114	9.753725	0.864445	0.054620	-0.040673	0.029186	0.003312	83.460222	-84.918402	12.839499
45115	9.670265	0.797664	0.081069	-0.041967	0.026649	0.004428	83.295448	-84.919402	12.981217
45116	9.694895	0.821276	0.086873	-0.044447	0.021743	0.002925	83.161486	-84.919995	13.087762
45117	9.666714	0.791159	0.159270	-0.045378	0.024572	0.001146	83.010518	-84.919208	13.213658
45118	9.665983	0.717890	0.155888	-0.036828	0.021831	0.003112	82.881434	-84.919888	13.322343
45119	9.692020	0.767890	0.139209	-0.027911	0.024460	0.002188	82.740393	-84.919647	13.448319
45120	9.692011	0.767587	0.141473	-0.021540	0.018337	0.003341	82.641407	-84.920509	13.536035
45121	9.668117	0.816074	0.146215	-0.012406	0.018630	0.006695	82.542736	-84.923218	13.628393
45122	9.675599	0.830454	0.166187	-0.009410	0.021679	0.001281	82.430991	-84.922629	13.736057
45123	9.694920	0.819136	0.102827	-0.016412	0.017226	0.002173	82.342739	-84.922846	13.815650
45124	9.655313	0.885162	0.099965	-0.012202	0.018954	-0.000770	82.248196	-84.921339	13.902397
45125	9.678463	0.882679	0.127403	-0.017732	0.018381	0.003434	82.150714	-84.922159	13.990497
45126	9.669527	0.841317	0.133551	-0.020523	0.015657	0.001381	82.070876	-84.922038	14.059383
45127	9.678432	0.882462	0.131222	-0.024584	0.021632	-0.002839	81.954327	-84.919015	14.162684
45128	9.652316	0.832062	0.152138	-0.032665	0.012305	0.003431	81.886880	-84.920360	14.210729
45129	9.686623	0.850450	0.124067	-0.029926	0.010154	-0.002826	81.840593	-84.918251	14.240418
45130	9.709746	0.848030	0.151017	-0.025352	0.014578	0.003088	81.762628	-84.919166	14.302592
45131	9.691803	0.885189	0.195720	-0.024641	0.014081	0.000590	81.691219	-84.918664	14.360542
45132	9.638106	0.874776	0.127840	-0.030512	0.004445	0.007520	81.672651	-84.922928	14.364767
45133	9.701582	0.878546	0.165113	-0.029543	0.009150	0.005872	81.624903	-84.925824	14.396142
45134	9.636703	0.847076	0.152109	-0.031153	0.008790	0.006440	81.578397	-84.929205	14.424812
45135	9.668819	0.885145	0.174261	-0.027594	0.003640	0.005688	81.567061	-84.932456	14.420754
45136	9.644253	0.860391	0.171626	-0.029629	0.005285	0.009448	81.540155	-84.937810	14.429087
45137	9.718992	0.884598	0.153593	-0.023964	-0.000339	0.013095	81.549318	-84.945593	14.406538
