// General information: 
//  MT Manager version: 2022.2.0 
//  XDA version: 2022.2.0 build 7381 rev 124627 built on 2023-07-19
// Device information: 
//  DeviceId: 00B4BB4F
//  ProductCode: MTW2-3A7G6
//  Firmware Version: 4.6.0
//  Hardware Version: 2.0.0
// Device settings: 
//  Filter Profile: human(46.1)
//  Option Flags: Orientation Smoother Disabled, Position/Velocity Smoother Disabled, Continuous Zero Rotation Update Disabled, AHS Disabled, ICC Disabled
// Coordinate system: ENU
PacketCounter	Acc_X	Acc_Y	Acc_Z	Gyr_X	Gyr_Y	Gyr_Z	Roll	Pitch	Yaw
59431	8.626699	-4.177216	1.838571	0.012305	0.009308	-0.009340	-65.610603	-62.651695	81.249513
59432	8.652048	-4.188491	1.808156	0.012870	0.008437	-0.014692	-65.588409	-62.657722	81.232887
59433	8.658043	-4.184882	1.775654	0.017603	0.012034	-0.016915	-65.558917	-62.663784	81.211051
59434	8.680193	-4.144521	1.836172	0.023782	0.019012	-0.014941	-65.519668	-62.667424	81.182266
59435	8.621275	-4.141827	1.829289	0.022122	0.019810	-0.007453	-65.484082	-62.666689	81.156482
59436	8.608989	-4.113469	1.848724	0.017124	0.015740	-0.006838	-65.455667	-62.666867	81.135599
59437	8.648367	-4.099857	1.857482	0.012221	0.006702	0.003753	-65.444137	-62.663399	81.130508
59438	8.568534	-4.168496	1.841824	0.006759	0.012340	0.000646	-65.428539	-62.660482	81.117367
59439	8.593552	-4.180607	1.811315	0.013355	0.004955	-0.006949	-65.413194	-62.663000	81.108711
59440	8.626085	-4.179139	1.800539	0.020483	0.012556	-0.012555	-65.383425	-62.666904	81.088470
59441	8.658643	-4.177190	1.790777	0.028142	0.021100	-0.014952	-65.339644	-62.669725	81.057338
59442	8.628176	-4.164862	1.859548	0.027958	0.023468	-0.011832	-65.294921	-62.670628	81.025086
59443	8.666085	-4.161049	1.816635	0.033025	0.024141	-0.011747	-65.246764	-62.671026	80.992176
59444	8.686487	-4.089731	1.827472	0.031029	0.027864	-0.006575	-65.198297	-62.668114	80.957690
59445	8.687561	-4.078401	1.884156	0.023737	0.021068	0.011427	-65.169350	-62.657175	80.940409
59446	8.652567	-4.090940	1.845347	0.010453	0.018963	0.023103	-65.155460	-62.640957	80.931573
59447	8.610802	-4.190469	1.834952	0.007596	0.010622	0.023988	-65.152128	-62.625996	80.932716
59448	8.635201	-4.162770	1.807167	0.011949	0.012719	0.023987	-65.144077	-62.610822	80.931418
59449	8.636068	-4.111515	1.864373	0.009552	0.008717	0.027370	-65.143122	-62.594557	80.936498
59450	8.614834	-4.141387	1.860367	0.001946	0.004590	0.025227	-65.149530	-62.580695	80.945031
59451	8.548614	-4.186005	1.883049	0.005445	0.008657	0.019701	-65.147426	-62.568428	80.946166
59452	8.560705	-4.172407	1.869171	0.005287	0.002968	0.010251	-65.146589	-62.562743	80.948695
59453	8.567682	-4.159768	1.889026	0.003377	0.003048	-0.001692	-65.141371	-62.562942	80.944983
59454	8.540761	-4.199654	1.864943	0.001978	-0.002162	-0.014439	-65.136113	-62.571328	80.940394
59455	8.606215	-4.197300	1.840851	0.011116	0.001697	-0.025223	-65.116889	-62.584077	80.925896
59456	8.595154	-4.167052	1.858520	0.013174	0.002376	-0.034941	-65.091115	-62.602022	80.905425
59457	8.641787	-4.148434	1.832714	0.014333	0.006851	-0.041630	-65.057199	-62.622039	80.876459
59458	8.576636	-4.198326	1.803107	0.019857	0.019658	-0.044309	-65.005805	-62.640659	80.831457
59459	8.574336	-4.184162	1.893461	0.034254	0.021814	-0.058136	-64.937618	-62.665590	80.776764
59460	8.683551	-3.985517	1.941719	0.025720	0.007712	-0.038167	-64.897604	-62.683882	80.748370
59461	8.587094	-4.067586	1.974299	0.016709	-0.009168	-0.029960	-64.883718	-62.701689	80.743495
59462	8.643885	-4.130744	1.874334	0.003990	-0.012147	-0.023629	-64.882917	-62.717262	80.745225
59463	8.663122	-4.154252	1.822199	0.006205	-0.019810	-0.022646	-64.889199	-62.733857	80.756269
59464	8.634055	-4.099067	1.888961	0.003013	-0.011201	-0.025328	-64.887208	-62.750081	80.756031
59465	8.620932	-4.122876	1.849333	0.006333	-0.012557	-0.022475	-64.886211	-62.764821	80.758965
59466	8.603920	-4.137119	1.896945	0.001318	-0.015074	-0.031128	-64.886353	-62.784995	80.760034
59467	8.625505	-4.106299	1.900756	0.011311	-0.013177	-0.036399	-64.876550	-62.807104	80.756270
59468	8.602490	-4.048360	1.933387	0.005358	-0.024097	-0.032202	-64.882982	-62.830030	80.767010
59469	8.627488	-4.111518	1.844039	0.001010	-0.026204	-0.032202	-64.894242	-62.853125	80.780288
59470	8.605866	-4.084850	1.926534	0.001993	-0.033397	-0.034525	-64.910954	-62.879515	80.800409
59471	8.672407	-4.081377	1.898904	-0.005578	-0.039098	-0.027383	-64.941405	-62.903231	80.830998
59472	8.710201	-4.130210	1.793170	-0.006482	-0.041545	-0.028369	-64.974251	-62.928392	80.863777
59473	8.654629	-4.115683	1.833760	-0.006514	-0.027510	-0.029625	-64.992509	-62.950447	80.880057
59474	8.618759	-4.115380	1.876759	-0.007983	-0.041560	-0.033288	-65.024000	-62.978154	80.910336
59475	8.638821	-4.138040	1.822190	-0.007751	-0.033292	-0.036954	-65.045460	-63.005401	80.929405
59476	8.635938	-4.094235	1.855187	-0.006267	-0.037984	-0.045357	-65.066703	-63.038502	80.949271
59477	8.611811	-4.088985	1.829669	-0.011135	-0.041056	-0.048573	-65.092618	-63.073650	80.971150
59478	8.609226	-4.086572	1.859685	-0.003337	-0.045528	-0.053603	-65.116099	-63.112848	80.995396
59479	8.639286	-4.041326	1.879150	-0.007893	-0.055925	-0.049951	-65.154896	-63.152279	81.033781
59480	8.746193	-4.022895	1.855867	-0.019141	-0.061795	-0.043421	-65.209177	-63.190079	81.082378
59481	8.880953	-4.111791	1.707751	-0.020325	-0.068841	-0.023609	-65.281174	-63.218867	81.149952
59482	8.698446	-4.089509	1.849076	-0.027527	-0.037716	-0.020963	-65.326339	-63.239166	81.182933
59483	8.743158	-4.041754	1.765991	-0.024844	-0.051690	-0.016982	-65.386589	-63.260343	81.234422
59484	8.648014	-4.084537	1.795411	-0.030602	-0.046561	-0.021696	-65.442453	-63.283103	81.277397
59485	8.674883	-4.053413	1.760553	-0.029791	-0.051383	-0.020914	-65.503544	-63.306207	81.326634
59486	8.666011	-4.055952	1.823025	-0.032855	-0.049569	-0.022159	-65.563774	-63.329883	81.373032
59487	8.692781	-4.067160	1.785131	-0.036751	-0.058009	-0.019139	-65.636776	-63.353576	81.431111
59488	8.705067	-4.062311	1.710713	-0.034943	-0.053119	-0.017178	-65.704438	-63.375439	81.484468
59489	8.676490	-4.092977	1.768237	-0.041965	-0.047523	-0.025183	-65.766881	-63.399754	81.527370
59490	8.685550	-4.078791	1.781603	-0.039625	-0.052341	-0.019502	-65.835518	-63.422595	81.578795
59491	8.692595	-4.075638	1.741287	-0.042501	-0.052905	-0.023883	-65.904707	-63.447440	81.628877
59492	8.682132	-4.088937	1.749796	-0.043022	-0.049450	-0.031654	-65.966786	-63.475908	81.670773
59493	8.652292	-4.045311	1.758662	-0.039033	-0.055075	-0.033501	-66.032002	-63.506238	81.718609
59494	8.667091	-4.070282	1.734772	-0.042182	-0.060535	-0.034958	-66.103946	-63.538970	81.772042
59495	8.671912	-4.098972	1.778300	-0.044322	-0.068774	-0.043323	-66.182337	-63.577562	81.831176
59496	8.724709	-4.035906	1.711300	-0.046017	-0.077087	-0.044636	-66.269797	-63.619125	81.899444
59497	8.715282	-4.047974	1.717761	-0.049819	-0.067614	-0.041896	-66.351191	-63.656619	81.958373
59498	8.723326	-4.043016	1.675239	-0.054488	-0.077512	-0.043745	-66.444832	-63.697721	82.028076
59499	8.701682	-4.027943	1.698184	-0.057723	-0.079588	-0.045914	-66.542075	-63.739974	82.099587
59500	8.746672	-4.042816	1.746052	-0.063026	-0.085224	-0.043089	-66.649657	-63.782379	82.179327
59501	8.772324	-4.020591	1.652701	-0.074562	-0.090083	-0.047469	-66.767628	-63.827705	82.263134
59502	8.731571	-4.075565	1.666359	-0.079332	-0.092171	-0.054563	-66.887375	-63.877577	82.345955
59503	8.742913	-4.059103	1.673706	-0.088846	-0.105189	-0.059674	-67.024945	-63.932561	82.442399
59504	8.771725	-4.025059	1.630981	-0.103801	-0.109768	-0.063066	-67.174685	-63.990670	82.542921
59505	8.734344	-4.045025	1.556859	-0.102141	-0.116835	-0.074772	-67.326678	-64.055989	82.646837
59506	8.778555	-4.026045	1.549760	-0.100575	-0.100723	-0.078697	-67.458754	-64.120148	82.729667
59507	8.766009	-3.996200	1.589064	-0.101683	-0.090165	-0.077009	-67.581509	-64.180591	82.801271
59508	8.779982	-4.028832	1.505925	-0.097550	-0.091162	-0.065561	-67.708273	-64.235545	82.880043
59509	8.794065	-4.001425	1.567598	-0.095357	-0.077487	-0.065534	-67.819485	-64.287017	82.942786
59510	8.770788	-4.038145	1.532927	-0.093167	-0.075539	-0.061272	-67.929209	-64.336185	83.005367
59511	8.806088	-3.990667	1.512882	-0.091578	-0.070082	-0.064744	-68.031083	-64.385539	83.060099
59512	8.790124	-4.014454	1.498594	-0.088436	-0.064629	-0.063296	-68.125697	-64.433353	83.108881
59513	8.793564	-4.010186	1.489818	-0.083338	-0.056620	-0.062982	-68.209217	-64.478820	83.148458
59514	8.853406	-4.015511	1.436778	-0.072861	-0.040834	-0.073162	-68.264423	-64.526770	83.163429
59515	8.832362	-3.998639	1.463545	-0.070099	-0.025142	-0.073664	-68.300756	-64.571212	83.159112
59516	8.845339	-4.029368	1.387930	-0.057561	-0.010187	-0.084310	-68.308047	-64.618598	83.130732
59517	8.897322	-4.002664	1.324527	-0.051624	0.024844	-0.095157	-68.268057	-64.663884	83.053668
59518	8.830119	-3.950504	1.477816	-0.048915	0.065081	-0.107859	-68.174895	-64.707782	82.919664
59519	8.910744	-4.006881	1.434139	-0.056929	0.066411	-0.125498	-68.076856	-64.760232	82.775102
59520	8.834784	-4.016385	1.513913	-0.050121	0.094095	-0.156814	-67.928383	-64.823691	82.579320
59521	8.907905	-3.954640	1.462266	-0.060873	0.071338	-0.170536	-67.805075	-64.898698	82.404495
59522	8.871478	-4.040788	1.488524	-0.053175	0.103239	-0.192217	-67.629680	-64.978524	82.177296
59523	8.814036	-3.891216	1.584502	-0.057074	0.086145	-0.203875	-67.469668	-65.067529	81.964606
59524	8.816619	-4.012579	1.559917	-0.067828	0.089635	-0.221248	-67.301725	-65.165148	81.736694
59525	8.890118	-3.860065	1.514948	-0.058000	0.068663	-0.241839	-67.141159	-65.277562	81.523148
59526	8.952657	-3.858024	1.421220	-0.081866	0.109873	-0.244905	-66.943194	-65.382563	81.253740
59527	8.873939	-3.820633	1.539983	-0.080181	0.116305	-0.252386	-66.731689	-65.489194	80.970573
59528	8.946771	-3.888450	1.460185	-0.092604	0.106432	-0.268444	-66.527962	-65.606545	80.688545
59529	9.087172	-3.732833	1.304028	-0.114930	0.112588	-0.295684	-66.314231	-65.735904	80.381607
59530	9.187596	-3.744884	0.970376	-0.168751	0.158430	-0.305303	-66.069533	-65.859655	80.007382
59531	9.000672	-3.544816	0.843112	-0.248505	0.170724	-0.314730	-65.848769	-65.984401	79.609504
59532	7.985765	-3.052566	-0.437012	-0.491231	0.054485	-0.277443	-65.920345	-66.117090	79.379912
59533	9.418954	-3.163209	-1.934194	-1.018181	-0.058573	-0.301901	-66.416215	-66.288828	79.284126
59534	9.612587	-3.750581	-3.090519	-1.645766	0.252072	-0.343030	-66.878998	-66.412372	78.759988
59535	9.533200	-4.686741	-3.306828	-2.338583	0.552885	-0.439930	-67.325641	-66.521386	77.785445
59536	9.149943	-6.237161	-2.379874	-2.975098	1.049553	-0.535228	-67.479428	-66.573786	76.095035
59537	7.720035	-7.861676	-1.688519	-3.451296	1.366297	-0.568542	-67.502677	-66.575149	73.964920
59538	7.559982	-8.592646	-1.178096	-3.754430	1.723989	-0.611827	-67.241837	-66.519015	71.335813
59539	7.439843	-8.677293	-0.383063	-3.947541	1.863815	-0.645381	-66.916138	-66.443676	68.513390
59540	7.682379	-7.646523	0.053567	-3.975262	1.839307	-0.681725	-66.623133	-66.387279	65.708499
59541	7.842136	-7.691663	0.167283	-3.989566	1.893402	-0.676591	-66.288705	-66.309199	62.847247
59542	7.476252	-6.844686	1.059533	-3.862748	1.834506	-0.664602	-65.965187	-66.232356	60.076341
59543	7.850083	-6.572383	1.816447	-3.650375	1.792614	-0.691351	-65.568827	-66.171831	57.356474
59544	7.223364	-6.760714	2.236679	-3.407665	1.702514	-0.729346	-65.121114	-66.145050	54.732462
59545	6.840240	-6.737943	3.289524	-3.040938	1.536812	-0.840560	-64.599605	-66.206773	52.256874
59546	6.878836	-6.828579	3.309959	-2.767532	1.045688	-0.672141	-64.580122	-66.297907	50.503284
59547	8.812891	-5.697493	3.648773	-2.276198	1.196764	-0.472103	-64.216507	-66.245199	48.680567
59548	9.121731	-3.959246	4.160761	-2.128932	1.534542	-0.257908	-63.506968	-65.990850	46.570661
59549	7.256461	-3.067429	5.539167	-1.920320	1.355548	-0.292699	-62.893901	-65.790003	44.692663
59550	6.887817	-4.000342	3.365474	-1.650635	0.610848	-0.355756	-62.940179	-65.812507	43.706604
59551	8.616052	-3.431625	4.121367	-1.307932	0.388148	-0.382670	-63.029720	-65.906438	42.982639
59552	8.261571	-3.536618	3.707583	-1.160982	0.379691	-0.266865	-63.106258	-65.944588	42.337958
59553	9.476331	-2.090059	4.717437	-0.917150	0.335932	-0.269774	-63.094117	-65.994937	41.748489
59554	8.440499	-2.066948	4.722029	-0.853949	0.317035	-0.268201	-63.063256	-66.050073	41.179284
59555	9.676222	-0.907478	4.748679	-0.696685	0.133981	-0.293503	-63.139873	-66.164929	40.825789
59556	8.806325	-1.262244	4.815786	-0.577437	0.129594	-0.235203	-63.182902	-66.252015	40.511297
59557	10.422092	0.761075	5.050295	-0.427273	0.012256	-0.264456	-63.260946	-66.383811	40.328622
59558	10.078605	1.075850	4.721206	-0.356646	0.040601	-0.184635	-63.309147	-66.468213	40.158320
59559	10.500754	1.822890	4.265388	-0.295509	-0.029667	-0.144678	-63.430365	-66.549813	40.105485
59560	10.174660	1.275565	4.603607	-0.126387	-0.039376	-0.066491	-63.510568	-66.594338	40.114031
59561	6.772689	-3.536912	2.392365	-0.169952	-0.136486	0.283407	-63.936822	-66.483473	40.472334
59562	9.567716	-2.976968	1.497113	0.038867	-0.593740	0.279918	-64.779375	-66.486461	41.415534
59563	9.787403	-4.698073	0.354796	-0.153232	-0.078458	0.185548	-65.065571	-66.409313	41.631762
59564	8.502242	-3.571458	2.169672	-0.023732	-0.171362	0.088596	-65.332492	-66.404773	41.908249
59565	9.198058	-3.714595	1.156025	-0.048853	-0.217729	0.130728	-65.693065	-66.388380	42.270973
59566	9.300946	-3.781178	1.038806	-0.016904	-0.099999	0.128792	-65.891824	-66.344923	42.477413
59567	9.190720	-3.793407	1.159006	0.009352	0.003616	0.119621	-65.947700	-66.281573	42.544041
59568	8.961153	-3.880450	1.386072	0.030474	0.045171	0.109434	-65.935124	-66.214120	42.549435
59569	9.002078	-3.747443	1.369370	0.055367	0.056932	0.095141	-65.888198	-66.151108	42.532560
59570	8.966505	-3.712227	1.429037	0.062897	0.100581	0.104668	-65.789359	-66.073156	42.463932
59571	8.875206	-3.731179	1.516110	0.072300	0.111588	0.106485	-65.675114	-65.991325	42.383974
59572	8.764204	-3.740136	1.701309	0.065003	0.100052	0.106271	-65.577656	-65.912559	42.318094
59573	8.639283	-3.822598	1.783771	0.042701	0.033427	0.085773	-65.561524	-65.859954	42.326954
59574	8.780414	-3.656422	1.711903	0.023085	-0.022803	0.076150	-65.615513	-65.825977	42.400679
59575	8.795058	-3.781818	1.610056	-0.003112	-0.029623	0.072625	-65.691777	-65.795109	42.482057
59576	8.826661	-3.778316	1.629756	-0.010465	-0.058899	0.066887	-65.801676	-65.774383	42.596043
59577	8.896710	-3.849327	1.474494	-0.018088	-0.066991	0.063231	-65.924641	-65.757050	42.719251
59578	8.928382	-3.844613	1.467941	-0.011672	-0.054079	0.052676	-66.021921	-65.742451	42.818669
59579	8.938571	-3.827761	1.463573	-0.007530	-0.037301	0.049325	-66.096914	-65.725317	42.895915
59580	8.946193	-3.864060	1.411086	0.001003	-0.024929	0.040546	-66.146625	-65.710208	42.951138
59581	8.903646	-3.845530	1.484541	0.006158	-0.003938	0.033706	-66.166906	-65.693473	42.976969
59582	8.871582	-3.803943	1.510395	0.011568	-0.004143	0.026544	-66.179173	-65.680870	42.997762
59583	8.849594	-3.795244	1.535568	0.011632	-0.004186	0.031878	-66.195647	-65.665140	43.022856
59584	8.847290	-3.797188	1.486583	0.011387	-0.009695	0.033571	-66.218000	-65.650132	43.054609
59585	8.857262	-3.833839	1.534444	0.016645	-0.006573	0.035355	-66.236106	-65.633117	43.084648
59586	8.855534	-3.836229	1.509695	0.009530	-0.012558	0.031756	-66.261845	-65.619711	43.118958
59587	8.865560	-3.816751	1.484616	0.011558	-0.013042	0.026394	-66.285753	-65.608870	43.152168
59588	8.855452	-3.786070	1.509074	0.013608	-0.013540	0.022812	-66.305694	-65.600372	43.182683
59589	8.831020	-3.830721	1.483861	0.009466	-0.012515	0.026413	-66.330181	-65.589384	43.215211
59590	8.864429	-3.823864	1.530956	0.007929	-0.018820	0.029883	-66.363018	-65.578377	43.256320
59591	8.862371	-3.825578	1.480929	0.007651	-0.015405	0.028155	-66.392734	-65.567119	43.293449
59592	8.841271	-3.817145	1.529212	0.005814	-0.018280	0.028123	-66.425206	-65.556894	43.332833
59593	8.870717	-3.863259	1.477628	0.009172	-0.017998	0.024542	-66.455192	-65.548104	43.371216
59594	8.882295	-3.843905	1.501120	0.003607	-0.008775	0.017613	-66.472612	-65.541209	43.392681
59595	8.859516	-3.833636	1.477168	0.013628	-0.004648	0.022924	-66.483806	-65.530200	43.413221
59596	8.858041	-3.835124	1.453107	0.011811	0.001374	0.023027	-66.487506	-65.518137	43.424780
59597	8.858402	-3.837617	1.502549	0.013099	0.002169	0.021249	-66.490304	-65.506444	43.435758
59598	8.869118	-3.817813	1.503468	0.014156	0.006354	0.021300	-66.486040	-65.494150	43.440044
59599	8.855377	-3.840270	1.455748	0.014156	0.006354	0.021298	-66.483450	-65.481469	43.445762
59600	8.834782	-3.831482	1.530857	0.012616	0.008962	0.023124	-66.477978	-65.467621	43.447751
59601	8.876835	-3.856324	1.530464	0.010179	0.004034	0.017740	-66.478578	-65.457334	43.454465
59602	8.854791	-3.845785	1.531822	0.004573	0.004374	0.008908	-66.475874	-65.452003	43.454432
59603	8.832295	-3.834532	1.508799	0.007195	0.005936	0.008909	-66.471593	-65.445916	43.453896
59604	8.820924	-3.856894	1.533917	0.003748	0.005709	0.005381	-66.466063	-65.442132	43.450235
59605	8.831026	-3.835234	1.485621	0.004021	0.002294	0.007105	-66.466909	-65.437818	43.453332
59606	8.830700	-3.835856	1.485952	0.006916	0.000442	0.008831	-66.467346	-65.433427	43.458227
59607	8.852968	-3.848906	1.534517	0.006687	0.003832	0.010657	-66.466702	-65.426891	43.461358
59608	8.840319	-3.870778	1.510677	0.009538	0.002004	0.008831	-66.463840	-65.422143	43.464278
59609	8.841053	-3.816595	1.487825	0.011151	0.008267	0.010682	-66.455582	-65.414571	43.461843
59610	8.850480	-3.850225	1.488147	0.011335	0.004900	0.005303	-66.446602	-65.411013	43.459167
59611	8.808451	-3.828025	1.539178	0.009265	0.005418	0.007104	-66.440936	-65.405969	43.458388
59612	8.841094	-3.818728	1.539695	0.012190	0.012463	0.008953	-66.424620	-65.398761	43.448184
59613	8.818483	-3.807621	1.517082	0.010913	0.002749	0.014156	-66.424623	-65.390620	43.454673
59614	8.848477	-3.853262	1.492192	0.012018	0.006910	0.017755	-66.419184	-65.380061	43.456322
59615	8.839106	-3.822121	1.542684	0.010685	0.006141	0.015978	-66.416366	-65.370182	43.459559
59616	8.826121	-3.844625	1.519203	0.006523	0.007191	0.017802	-66.413778	-65.359534	43.460883
59617	8.836457	-3.824155	1.495694	0.008572	0.006682	0.014225	-66.410695	-65.350446	43.462491
59618	8.824093	-3.846868	1.496697	0.012018	0.006909	0.017750	-66.405257	-65.339890	43.464143
59619	8.834312	-3.881932	1.545790	0.007282	0.005891	0.015999	-66.404732	-65.330048	43.467746
59620	8.856274	-3.840090	1.522329	0.009147	0.008751	0.017796	-66.398857	-65.319045	43.467107
59621	8.865304	-3.874477	1.522809	0.009104	0.008774	0.014245	-66.393143	-65.309457	43.466144
59622	8.821748	-3.852204	1.525394	0.008836	0.012188	0.012516	-66.380895	-65.300438	43.458293
59623	8.821054	-3.853218	1.526843	0.013039	0.011113	0.014241	-66.370288	-65.290308	43.454420
59624	8.810538	-3.821269	1.528882	0.009657	0.010854	0.016039	-66.360862	-65.279745	43.450192
59625	8.820147	-3.855849	1.553899	0.011195	0.008242	0.014216	-66.354605	-65.270283	43.449938
59626	8.818800	-3.856814	1.530780	0.008899	0.012156	0.017834	-66.345037	-65.258477	43.445075
59627	8.828913	-3.836802	1.507806	0.013163	0.011048	0.024883	-66.339804	-65.242766	43.447184
59628	8.816594	-3.860667	1.533771	0.014516	0.011807	0.028428	-66.332706	-65.225481	43.448586
59629	8.837341	-3.874855	1.559090	0.013184	0.011038	0.026651	-66.328383	-65.208839	43.451705
59630	8.814732	-3.865311	1.561099	0.012650	0.008947	0.026626	-66.324710	-65.193158	43.455702
59631	8.813028	-3.867197	1.537808	0.010803	0.006077	0.026603	-66.327376	-65.177677	43.465013
59632	8.800841	-3.890902	1.563108	0.012319	0.003473	0.023007	-66.328296	-65.165153	43.473862
59633	8.811529	-3.871505	1.563831	0.008178	0.004521	0.026600	-66.334236	-65.150024	43.485121
59634	8.839962	-3.917519	1.490186	0.009431	0.005329	0.021276	-66.333836	-65.137982	43.490693
59635	8.809077	-3.874956	1.540915	0.006805	0.003773	0.021276	-66.338781	-65.125812	43.499983
59636	8.819953	-3.855141	1.541745	0.009148	0.008751	0.017769	-66.332925	-65.114823	43.499364
59637	8.807399	-3.878061	1.542696	0.008097	0.004560	0.019499	-66.335372	-65.103400	43.506714
59638	8.828002	-3.891327	1.542789	0.005987	0.005105	0.017748	-66.335439	-65.093260	43.510627
59639	8.794234	-3.902224	1.543924	0.006946	0.000417	0.012363	-66.339711	-65.086529	43.519256
59640	8.805535	-3.881742	1.544076	0.004300	-0.001128	0.010592	-66.344240	-65.081578	43.527024
59641	8.805786	-3.882735	1.568329	0.001098	-0.004754	0.007027	-66.355083	-65.078827	43.539198
59642	8.825791	-3.894639	1.518885	0.001949	0.002821	0.008884	-66.355649	-65.073865	43.541112
59643	8.793376	-3.905551	1.568579	0.003503	0.000194	0.008840	-66.360440	-65.069020	43.548127
59644	8.838057	-3.874965	1.567924	0.005774	-0.003717	0.003455	-66.363512	-65.068408	43.555222
59645	8.803641	-3.884524	1.519702	0.000080	-0.000037	0.007091	-66.369678	-65.064527	43.561586
59646	8.837052	-3.875717	1.543601	0.004796	0.000981	0.007065	-66.369788	-65.060941	43.564796
59647	8.835610	-3.875823	1.495223	0.006666	0.003839	0.008856	-66.368700	-65.055239	43.567316
59648	8.823979	-3.898169	1.520354	0.005113	0.006465	0.008900	-66.363344	-65.049430	43.564699
59649	8.781346	-3.875533	1.546686	0.005870	0.005161	0.007105	-66.360386	-65.044340	43.564646
59650	8.802955	-3.888052	1.571048	0.008199	0.001221	0.007039	-66.358261	-65.040713	43.567542
59651	8.790345	-3.909657	1.547265	0.002983	0.007020	0.005376	-66.354028	-65.036096	43.564254
59652	8.792702	-3.855925	1.572580	0.004278	-0.001118	0.008817	-66.357663	-65.032074	43.571027
59653	8.834513	-3.880069	1.547196	0.004078	0.002267	0.012403	-66.361648	-65.024855	43.577490
59654	8.800765	-3.890779	1.548518	0.007800	0.007992	0.014211	-66.355657	-65.015908	43.575870
59655	8.779358	-3.880228	1.574274	0.007462	0.002516	0.010604	-66.356556	-65.009571	43.581063
59656	8.799826	-3.892452	1.549653	0.002706	0.001518	0.007086	-66.357263	-65.005851	43.583612
59657	8.820831	-3.904923	1.549440	0.007462	0.002516	0.010604	-66.358179	-64.999509	43.588820
59658	8.819910	-3.905374	1.525469	0.004019	0.002294	0.007084	-66.357257	-64.995612	43.590402
59659	8.832340	-3.885226	1.574729	0.008795	0.003283	0.012373	-66.357441	-64.988159	43.595639
59660	8.785845	-3.916555	1.527319	0.007204	0.005928	0.008871	-66.351487	-64.982489	43.593682
59661	8.798213	-3.896396	1.576927	0.006448	0.007233	0.010663	-66.347754	-64.975020	43.593107
59662	8.818512	-3.908846	1.552742	0.008019	0.004597	0.012393	-66.344566	-64.967807	43.594718
59663	8.796576	-3.898103	1.553894	0.008276	0.001185	0.014124	-66.348307	-64.959907	43.603542
59664	8.805606	-3.932414	1.553620	0.004334	-0.001143	0.014129	-66.354530	-64.953101	43.613210
59665	8.796184	-3.900242	1.578736	0.006865	0.000450	0.005265	-66.355564	-64.950012	43.618150
59666	8.827967	-3.890904	1.529313	0.002462	-0.004000	0.012340	-66.365182	-64.944801	43.630382
59667	8.815836	-3.913026	1.529406	0.001911	0.002841	0.005332	-66.366424	-64.941123	43.632412
59668	8.804364	-3.934983	1.554155	0.002667	0.001535	0.003539	-66.365383	-64.939260	43.633009
59669	8.773219	-3.890371	1.555528	0.001911	0.002841	0.005332	-66.366650	-64.935575	43.635060
59670	8.806693	-3.881455	1.579480	0.002147	-0.000563	0.005292	-66.369122	-64.933274	43.639206
59671	8.805451	-3.881356	1.530802	0.002667	0.001535	0.003539	-66.370558	-64.930825	43.641919
59672	8.805853	-3.881830	1.555319	0.004993	-0.002407	0.003476	-66.372577	-64.929900	43.647365
59673	8.782021	-3.924955	1.555775	0.005873	0.005159	0.007096	-66.369878	-64.924748	43.647534
59674	8.814946	-3.915817	1.555423	-0.001276	-0.000792	0.003545	-66.373708	-64.923416	43.651015
59675	8.804738	-3.882720	1.531440	0.002903	-0.001869	0.003499	-66.378853	-64.921759	43.657960
59676	8.815293	-3.916532	1.579634	0.001570	-0.002636	0.001730	-66.382230	-64.921803	43.662741
59677	8.804663	-3.882963	1.531260	0.002089	-0.000539	-0.000023	-66.384642	-64.921685	43.666149
59678	8.805159	-3.883234	1.555743	0.001334	0.000767	0.001769	-66.384355	-64.920927	43.666735
59679	8.781999	-3.926329	1.580399	0.001334	0.000767	0.001769	-66.386636	-64.919565	43.669515
59680	8.814107	-3.916278	1.531042	0.004160	-0.001070	-0.001818	-66.385032	-64.921112	43.670434
59681	8.815111	-3.916838	1.579891	0.000058	-0.000024	0.005315	-66.390692	-64.918064	43.676133
59682	8.793591	-3.905398	1.580437	0.002903	-0.001869	0.003499	-66.393311	-64.917002	43.680920
59683	8.814343	-3.917187	1.555390	0.000794	-0.001322	0.001751	-66.398274	-64.916116	43.686311
59684	8.792909	-3.905594	1.555834	0.001589	-0.002644	0.003501	-66.402516	-64.915231	43.692059
59685	8.792818	-3.905860	1.555681	0.003678	-0.003183	0.003478	-66.408782	-64.913859	43.700708
59686	8.802303	-3.939230	1.555066	0.000794	-0.001322	0.001751	-66.411138	-64.913589	43.703871
59687	8.803968	-3.884619	1.531051	0.000019	-0.000008	0.001771	-66.415124	-64.912379	43.707683
59688	8.813465	-3.917926	1.530522	0.002884	-0.001861	0.001727	-66.416876	-64.912244	43.711500
59689	8.803912	-3.884808	1.530897	-0.000539	-0.002090	-0.000018	-66.422666	-64.912447	43.716944
59690	8.813986	-3.918207	1.554844	-0.000236	0.003404	0.000039	-66.419473	-64.911992	43.713328
59691	8.826298	-3.897049	1.579387	0.001314	0.000775	-0.000003	-66.421018	-64.911525	43.715252
59692	8.792564	-3.906368	1.555843	0.001854	0.002865	0.000016	-66.417221	-64.911206	43.712292
59693	8.814394	-3.918530	1.579696	0.000274	-0.003419	0.003504	-66.425801	-64.909855	43.721322
59694	8.803692	-3.885228	1.531093	0.000274	-0.003419	0.003504	-66.431664	-64.909144	43.728028
59695	8.814206	-3.919153	1.579200	-0.001276	-0.000791	0.003545	-66.438223	-64.907163	43.733841
59696	8.791655	-3.907253	1.530780	-0.002590	-0.001566	0.003548	-66.443669	-64.906004	43.738275
59697	8.824870	-3.897810	1.529606	-0.002177	-0.008350	-0.001845	-66.456608	-64.908579	43.750558
59698	8.801788	-3.940920	1.553701	0.000834	-0.001338	0.005293	-66.460689	-64.906451	43.755650
59699	8.825427	-3.898210	1.553440	-0.003462	-0.000212	-0.005288	-66.463578	-64.908966	43.756017
59700	8.792397	-3.907548	1.553821	0.001010	-0.004718	-0.000060	-66.468734	-64.910422	43.762409
59701	8.792480	-3.907453	1.553591	0.000755	-0.001306	-0.001792	-66.472162	-64.911347	43.766035
59702	8.792587	-3.907287	1.553403	0.000216	-0.003396	-0.001811	-66.475436	-64.913420	43.769845
59703	8.825331	-3.897358	1.528099	-0.000559	-0.002082	-0.001790	-66.480509	-64.914515	43.774452
59704	8.792277	-3.906768	1.528441	-0.001098	-0.004171	-0.001808	-66.485408	-64.916764	43.779225
59705	8.804220	-3.885192	1.528148	-0.002129	0.000555	-0.003519	-66.487602	-64.918161	43.779654
59706	8.847094	-3.908613	1.526602	-0.002952	-0.007036	-0.001824	-66.496773	-64.921073	43.787971
59707	8.814704	-3.918098	1.551046	-0.000363	-0.005470	-0.005372	-66.503840	-64.924817	43.794891
59708	8.793088	-3.905622	1.526709	-0.002452	-0.004931	-0.005349	-66.508643	-64.929099	43.798701
59709	8.805157	-3.883807	1.526269	-0.000599	-0.002066	-0.005333	-66.512066	-64.932040	43.801445
59710	8.827260	-3.895455	1.549929	-0.001354	-0.000759	-0.003540	-66.512439	-64.934419	43.801058
59711	8.772929	-3.892851	1.550949	-0.001913	-0.002841	-0.005331	-66.517509	-64.937532	43.804784
59712	8.805795	-3.882726	1.525338	-0.005061	-0.006490	-0.003573	-66.526430	-64.941236	43.811490
59713	8.816240	-3.915639	1.548520	-0.003806	-0.005690	-0.008890	-66.534074	-64.946866	43.816854
59714	8.795214	-3.903359	1.548400	-0.005060	-0.006490	-0.003573	-66.543000	-64.950569	43.823566
59715	8.828581	-3.893645	1.546951	-0.007130	-0.005959	-0.001778	-66.556347	-64.952517	43.833118
59716	8.828215	-3.893257	1.521877	-0.002432	-0.004939	-0.003579	-66.562023	-64.955868	43.837904
59717	8.795753	-3.902878	1.546548	-0.004738	-0.001004	-0.001742	-66.568466	-64.956664	43.841344
59718	8.795903	-3.902699	1.546146	-0.002432	-0.004939	-0.003579	-66.574144	-64.960015	43.846132
59719	8.796074	-3.902507	1.545660	-0.003187	-0.003633	-0.001786	-66.582655	-64.961426	43.852831
59720	8.807406	-3.880874	1.520740	-0.003167	-0.003641	-0.000014	-66.589034	-64.962607	43.857928
59721	8.828984	-3.892324	1.519799	-0.002730	-0.001510	-0.008854	-66.591469	-64.967247	43.858206
59722	8.797161	-3.902011	1.568896	-0.002391	-0.004955	-0.000036	-66.598874	-64.968738	43.864925
59723	8.807323	-3.879972	1.495284	-0.001314	-0.000776	0.000002	-66.604008	-64.968550	43.869072
59724	8.796681	-3.901842	1.543884	-0.003167	-0.003641	-0.000014	-66.610389	-64.969730	43.874171
59725	8.796772	-3.901812	1.543440	-0.003187	-0.003633	-0.001786	-66.618964	-64.971129	43.880927
59726	8.818276	-3.913491	1.542349	-0.002412	-0.004947	-0.001808	-66.625512	-64.973548	43.886686
59727	8.842049	-3.870540	1.541681	-0.002432	-0.004938	-0.003580	-66.634273	-64.976182	43.894120
59728	8.797244	-3.901301	1.542040	-0.002649	-0.001543	-0.001767	-66.637143	-64.977805	43.895672
59729	8.797529	-3.900868	1.541510	-0.002257	-0.008317	-0.008937	-66.647023	-64.984020	43.904447
59730	8.818722	-3.911936	1.515494	-0.006137	-0.010670	-0.003615	-66.661284	-64.988688	43.916363
59731	8.809373	-3.878577	1.515200	-0.000322	-0.005485	-0.001834	-66.670347	-64.990517	43.925455
59732	8.831481	-3.890382	1.538582	-0.001894	-0.002849	-0.003561	-66.673387	-64.993380	43.927672
59733	8.831658	-3.890086	1.538317	-0.000580	-0.002073	-0.003564	-66.677929	-64.995341	43.931608
59734	8.809907	-3.877770	1.514158	-0.002432	-0.004938	-0.003581	-66.683627	-64.998689	43.936417
59735	8.820804	-3.911189	1.562013	0.000217	-0.003395	-0.001814	-66.690076	-65.000027	43.942956
59736	8.809538	-3.877301	1.489154	0.000796	-0.001322	0.001750	-66.692437	-64.999749	43.946124
59737	8.810696	-3.877768	1.537923	-0.000021	0.000009	-0.001772	-66.695221	-65.000290	43.948465
59738	8.810614	-3.877864	1.538154	-0.001747	0.006014	0.003631	-66.691675	-64.997358	43.943507
59739	8.840790	-3.922880	1.512996	0.003984	0.002311	0.003536	-66.692163	-64.994581	43.945843
59740	8.785548	-3.920619	1.490249	0.003963	0.002319	0.001764	-66.688608	-64.993470	43.944485
59741	8.798373	-3.899824	1.539333	0.001873	0.002857	0.001789	-66.688864	-64.991483	43.945225
59742	8.798260	-3.899980	1.539581	-0.001530	0.002619	0.001816	-66.688144	-64.990276	43.943522
59743	8.798164	-3.900139	1.539726	0.001335	0.000767	0.001769	-66.691072	-64.988768	43.946866
59744	8.830570	-3.890619	1.514946	0.000363	0.005468	0.005377	-66.687785	-64.985042	43.943527
59745	8.819234	-3.912387	1.539670	-0.000021	0.000009	-0.001772	-66.690643	-64.985566	43.945933
59746	8.809555	-3.879341	1.540494	0.004543	0.004392	0.005328	-66.686151	-64.982110	43.943907
59747	8.800324	-3.846731	1.565900	0.003983	0.002310	0.003536	-66.686713	-64.979316	43.946308
59748	8.784895	-3.922601	1.517234	0.003012	0.007011	0.007143	-66.681029	-64.974310	43.941998
59749	8.797514	-3.902109	1.566669	0.003747	0.005714	0.003577	-66.677926	-64.970718	43.940200
59750	8.796704	-3.902215	1.542809	0.003228	0.003616	0.005329	-66.675064	-64.967437	43.939143
59751	8.808300	-3.881179	1.543037	0.003445	0.000221	0.003516	-66.678308	-64.965118	43.944155
59752	8.817660	-3.914705	1.542786	0.001139	0.004154	0.005354	-66.676049	-64.961701	43.942441
59753	8.775324	-3.891710	1.568416	0.001053	-0.004735	0.003480	-66.686240	-64.960522	43.953605
59754	8.829279	-3.893882	1.542364	-0.003943	-0.002327	0.000008	-66.691597	-64.961387	43.957084
59755	8.808006	-3.881968	1.542730	-0.001355	-0.000759	-0.003541	-66.695294	-64.962996	43.959555
59756	8.816429	-3.914702	1.493408	-0.001510	0.002611	0.003587	-66.695431	-64.960859	43.958811
59757	8.806719	-3.881765	1.494191	0.001874	0.002857	0.001788	-66.695810	-64.958840	43.959658
59758	8.807652	-3.882517	1.543371	0.001139	0.004154	0.005354	-66.693549	-64.955424	43.957942
59759	8.795593	-3.904346	1.543748	0.000600	0.002065	0.005334	-66.697288	-64.951718	43.961688
59760	8.794849	-3.904511	1.519385	-0.001274	-0.000792	0.003546	-66.701102	-64.950373	43.965152
59761	8.828429	-3.895492	1.543162	0.000580	0.002073	0.003562	-66.703999	-64.947593	43.967952
59762	8.795071	-3.905417	1.544013	0.003465	0.000212	0.005288	-66.704812	-64.945104	43.971099
59763	8.794888	-3.905701	1.544338	0.000323	0.005485	0.001832	-66.703190	-64.942458	43.968745
59764	8.806572	-3.884495	1.544559	-0.000755	0.001306	0.001793	-66.703494	-64.941560	43.968663
59765	8.816065	-3.917750	1.544173	0.000539	0.002090	0.000019	-66.704706	-64.940634	43.969570
59766	8.794687	-3.905942	1.544876	0.000000	0.000000	-0.000000	-66.705178	-64.940976	43.970151
59767	8.795251	-3.906182	1.569222	-0.001314	-0.000775	0.000003	-66.710682	-64.940703	43.974621
59768	8.794732	-3.905969	1.544551	-0.001078	-0.004179	-0.000039	-66.716458	-64.942011	43.980375
59769	8.794266	-3.905776	1.519513	-0.004246	-0.007820	-0.000053	-66.731557	-64.943357	43.993580
59770	8.817967	-3.863064	1.518802	0.000236	-0.003404	-0.000041	-66.735708	-64.944491	43.998369
59771	8.815828	-3.917478	1.518012	-0.003984	-0.002309	-0.003535	-66.742785	-64.946420	44.002882
59772	8.827733	-3.896003	1.517644	-0.002629	-0.001551	0.000005	-66.746513	-64.947109	44.005394
59773	8.827768	-3.895952	1.517567	-0.000796	0.001323	-0.001750	-66.748557	-64.947274	44.006362
59774	8.796313	-3.906145	1.591503	-0.000000	0.000000	-0.000000	-66.749030	-64.947615	44.006944
59775	8.816612	-3.917429	1.541862	-0.003188	-0.003632	-0.001786	-66.758018	-64.948915	44.014062
59776	8.807756	-3.884374	1.566320	-0.002413	-0.004946	-0.001808	-66.764571	-64.951326	44.019828
59777	8.807263	-3.884164	1.541444	-0.001058	-0.004188	0.001732	-66.774678	-64.950895	44.029526
59778	8.806779	-3.883821	1.516841	-0.005016	0.002417	-0.005243	-66.772766	-64.953451	44.024304
59779	8.828223	-3.895488	1.516113	0.002346	-0.003951	0.001705	-66.780658	-64.952978	44.033706
59780	8.817017	-3.917100	1.540382	-0.003424	-0.000228	-0.001744	-66.782507	-64.954289	44.033641
59781	8.807505	-3.883870	1.540804	0.000775	-0.001314	-0.000022	-66.787507	-64.954127	44.038855
59782	8.817144	-3.916880	1.540219	-0.000041	0.000017	-0.003543	-66.786273	-64.956330	44.037526
59783	8.795323	-3.904619	1.516363	-0.001335	-0.000767	-0.001769	-66.791034	-64.956961	44.041138
59784	8.807723	-3.883423	1.540684	-0.000775	0.001314	0.000022	-66.790481	-64.956993	44.040097
59785	8.808427	-3.883460	1.564809	-0.003768	-0.005705	-0.005349	-66.800486	-64.960622	44.047957
59786	8.817597	-3.916185	1.539388	0.000236	-0.003404	-0.000042	-66.804641	-64.961752	44.052752
59787	8.829402	-3.894881	1.539132	0.000796	-0.001323	0.001749	-66.810532	-64.960649	44.058954
59788	8.807467	-3.882928	1.515134	-0.001853	-0.002865	-0.000017	-66.815289	-64.961645	44.063092
59789	8.817654	-3.916357	1.538627	-0.001078	-0.004179	-0.000040	-66.824623	-64.962126	44.071907
59790	8.796395	-3.904475	1.538848	0.000991	-0.004709	-0.001836	-66.828954	-64.964495	44.077373
59791	8.817837	-3.916197	1.537985	-0.001314	-0.000776	0.000002	-66.834618	-64.964182	44.081985
59792	8.796548	-3.904252	1.538541	-0.000042	0.000017	-0.003543	-66.833386	-64.966384	44.080659
59793	8.807811	-3.882564	1.514066	0.000021	-0.000009	0.001772	-66.838286	-64.964962	44.085269
59794	8.809026	-3.882911	1.562802	-0.003466	-0.000211	-0.005288	-66.838433	-64.968135	44.083299
59795	8.808534	-3.882538	1.538276	0.000796	-0.001323	0.001749	-66.844370	-64.967019	44.089541
59796	8.829268	-3.894247	1.513211	0.000021	-0.000009	0.001772	-66.845696	-64.966427	44.091078
59797	8.764109	-3.913867	1.563248	0.000216	-0.003395	-0.001814	-66.852597	-64.967653	44.098015
59798	8.817548	-3.915636	1.512766	-0.003146	-0.003649	0.001757	-66.859838	-64.967889	44.104077
59799	8.808637	-3.882652	1.537397	-0.000581	-0.002072	-0.003563	-66.864871	-64.969733	44.108446
59800	8.797030	-3.903734	1.537098	-0.002434	-0.004938	-0.003581	-66.870586	-64.973070	44.113274
59801	8.818468	-3.915470	1.536213	0.000021	-0.000009	0.001772	-66.875528	-64.971636	44.117921
59802	8.808367	-3.881992	1.512299	-0.001356	-0.000758	-0.003541	-66.875928	-64.974011	44.117565
59803	8.808504	-3.881681	1.512299	0.001272	0.000793	-0.003546	-66.876698	-64.975196	44.118397
59804	8.785560	-3.924438	1.536987	-0.001572	0.002637	-0.001727	-66.874265	-64.975851	44.114777
59805	8.809773	-3.881778	1.561402	0.001293	0.000784	-0.001774	-66.875899	-64.976101	44.116573
59806	8.809853	-3.881615	1.561359	-0.000560	-0.002081	-0.001792	-66.878179	-64.977852	44.118795
59807	8.830762	-3.893025	1.536025	-0.001098	-0.004171	-0.001812	-66.886763	-64.979234	44.126748
59808	8.797058	-3.902465	1.511838	-0.002350	-0.004973	0.003506	-66.895887	-64.978843	44.135391
59809	8.830294	-3.892824	1.510882	-0.000063	0.000026	-0.005315	-66.897464	-64.981124	44.136263
59810	8.808926	-3.881002	1.511581	0.003467	0.000211	0.005288	-66.898261	-64.978629	44.139394
59811	8.797698	-3.902664	1.535988	0.000195	-0.003386	-0.003586	-66.904390	-64.980765	44.145450
59812	8.830369	-3.892692	1.510787	-0.000775	0.001314	0.000023	-66.903836	-64.980796	44.144407
59813	8.819798	-3.914390	1.559669	0.000733	-0.001297	-0.003566	-66.907318	-64.982449	44.147881
59814	8.810285	-3.881157	1.560060	-0.002607	-0.001560	0.001777	-66.911904	-64.982202	44.151352
59815	8.775967	-3.890351	1.511676	0.000237	-0.003404	-0.000043	-66.919751	-64.982468	44.159327
59816	8.809845	-3.880868	1.534979	-0.002434	-0.004938	-0.003581	-66.925474	-64.985803	44.164164
59817	8.830716	-3.892380	1.509563	-0.002607	-0.001560	0.001777	-66.933755	-64.984693	44.170818
59818	8.830719	-3.892475	1.509298	0.000237	-0.003404	-0.000043	-66.937919	-64.985818	44.175622
59819	8.809976	-3.880882	1.534194	-0.004976	0.002399	-0.001698	-66.941423	-64.985650	44.175505
59820	8.809401	-3.880677	1.509652	0.000258	-0.003413	0.001729	-66.946438	-64.985842	44.181261
59821	8.830731	-3.892633	1.508819	-0.001293	-0.000785	0.001774	-66.953108	-64.984557	44.186964
59822	8.831269	-3.892961	1.533268	0.000539	0.002090	0.000020	-66.950924	-64.984416	44.184953
59823	8.818855	-3.914171	1.508931	-0.000518	-0.002099	0.001751	-66.958633	-64.983435	44.192291
59824	8.809166	-3.881232	1.509592	0.001120	0.004162	0.003584	-66.955487	-64.980950	44.189586
59825	8.809663	-3.881627	1.534101	-0.000539	-0.002090	-0.000020	-66.962358	-64.980901	44.195983
59826	8.819284	-3.914749	1.533363	-0.003425	-0.000228	-0.001744	-66.964216	-64.982209	44.195927
59827	8.830532	-3.893138	1.508683	0.002347	-0.003951	0.001703	-66.972373	-64.981665	44.205566
59828	8.797892	-3.903109	1.533743	-0.001530	0.002619	0.001817	-66.971637	-64.980457	44.203847
59829	8.797898	-3.903119	1.533683	0.000215	-0.003395	-0.001815	-66.978707	-64.981641	44.210936
59830	8.819356	-3.914772	1.532892	-0.002111	0.000547	-0.001746	-66.978935	-64.982777	44.209912
59831	8.809254	-3.881285	1.508944	0.001551	-0.002628	-0.000046	-66.985230	-64.982852	44.216990
59832	8.851363	-3.904699	1.483340	-0.000215	0.003395	0.001815	-66.982864	-64.981472	44.214302
59833	8.797961	-3.902954	1.533743	0.002607	0.001560	-0.001777	-66.983004	-64.981522	44.215252
59834	8.831133	-3.893300	1.533192	-0.002865	0.001852	0.000048	-66.983051	-64.981419	44.213551
59835	8.797861	-3.903130	1.533871	0.000839	-0.001341	0.005292	-66.990881	-64.978388	44.221868
59836	8.842098	-3.872237	1.508760	0.000560	0.002081	0.001792	-66.989544	-64.977314	44.220806
59837	8.797631	-3.903583	1.534033	0.000021	-0.000009	0.001772	-66.994655	-64.975841	44.225604
59838	8.840259	-3.927411	1.532779	0.000042	-0.000018	0.003543	-66.996825	-64.974313	44.228085
59839	8.830579	-3.894482	1.533381	-0.000754	0.001305	0.001794	-67.000913	-64.972530	44.231261
59840	8.809694	-3.883077	1.558619	0.001874	0.002856	0.001789	-66.997946	-64.971284	44.229231
59841	8.809072	-3.882901	1.534273	-0.000539	-0.002090	-0.000020	-67.004877	-64.971216	44.235680
59842	8.829834	-3.894443	1.509403	0.002392	0.004955	0.000038	-66.998403	-64.970424	44.230106
59843	8.809002	-3.882793	1.534947	0.000281	0.005502	-0.001709	-66.995488	-64.969547	44.226208
59844	8.829778	-3.894245	1.510242	0.003404	0.000237	-0.000028	-66.993732	-64.969845	44.226481
59845	8.797150	-3.904102	1.535476	0.001335	0.000767	0.001769	-66.997234	-64.968193	44.230326
59846	8.807692	-3.882395	1.486801	-0.000215	0.003395	0.001814	-66.994868	-64.966813	44.227638
59847	8.830085	-3.894830	1.535341	0.001099	0.004171	0.001812	-66.994692	-64.964375	44.227276
59848	8.786603	-3.871285	1.512443	0.001377	0.000749	0.005312	-66.996078	-64.961742	44.229736
59849	8.817860	-3.916948	1.535940	0.001141	0.004153	0.005355	-66.997602	-64.957439	44.231278
59850	8.808074	-3.884061	1.537065	0.002952	0.007036	0.001829	-66.989320	-64.955235	44.224063
59851	8.829766	-3.896442	1.561399	0.004026	0.002292	0.007079	-66.992123	-64.950438	44.228843
59852	8.796311	-3.906526	1.562410	-0.000174	0.003378	0.005357	-66.991452	-64.947193	44.228052
59853	8.828752	-3.897031	1.537421	0.000796	-0.001323	0.001749	-66.997626	-64.946014	44.234476
59854	8.795479	-3.906828	1.538106	-0.000734	0.001297	0.003565	-66.998765	-64.944180	44.235328
59855	8.849333	-3.909066	1.512398	0.000796	-0.001323	0.001749	-67.004947	-64.942997	44.241802
59856	8.807093	-3.885835	1.538201	0.001099	0.004171	0.001811	-67.000953	-64.941445	44.238149
59857	8.815890	-3.919056	1.513571	0.002691	0.001525	0.005309	-67.004546	-64.937748	44.242933
59858	8.785427	-3.874448	1.539507	0.000283	0.005502	-0.001709	-66.997834	-64.937754	44.235762
59859	8.839270	-3.876520	1.514317	0.002434	0.004937	0.003580	-66.996902	-64.934202	44.235410
59860	8.794734	-3.907904	1.539635	-0.000519	-0.002098	0.001752	-67.000877	-64.934085	44.239530
59861	8.805878	-3.886543	1.515101	-0.000734	0.001297	0.003565	-67.005861	-64.931356	44.243696
59862	8.827108	-3.898590	1.514634	0.000560	0.002081	0.001791	-67.004524	-64.930281	44.242635
59863	8.806232	-3.887170	1.539755	0.000021	-0.000009	0.001771	-67.009699	-64.928791	44.247484
59864	8.793857	-3.908309	1.515357	-0.001335	-0.000767	-0.001769	-67.010955	-64.930232	44.248087
59865	8.826944	-3.898932	1.514703	-0.001488	0.002603	0.005358	-67.015766	-64.926263	44.251581
59866	8.806024	-3.887597	1.539867	0.001314	0.000775	-0.000002	-67.014611	-64.926426	44.251197
59867	8.826235	-3.898912	1.490562	0.001314	0.000775	-0.000002	-67.017323	-64.925694	44.254153
59868	8.806547	-3.887808	1.564598	-0.000235	0.003404	0.000042	-67.014114	-64.925246	44.250521
59869	8.805351	-3.887414	1.515930	0.000021	-0.000009	0.001771	-67.019301	-64.923753	44.255388
59870	8.793508	-3.908841	1.516014	0.002089	-0.000539	-0.000025	-67.019174	-64.924223	44.256628
59871	8.827315	-3.899368	1.539742	-0.002130	0.000556	-0.003518	-67.022433	-64.925393	44.257990
59872	8.804923	-3.886892	1.491447	-0.003424	-0.000227	-0.001744	-67.024291	-64.926700	44.257935
59873	8.805730	-3.886696	1.515572	-0.001182	-0.004136	-0.008897	-67.029736	-64.931755	44.262343
59874	8.827359	-3.898023	1.514626	0.002304	-0.003934	-0.001838	-67.032447	-64.933940	44.266854
59875	8.794968	-3.907422	1.539523	-0.001397	-0.000741	-0.007083	-67.035060	-64.937280	44.267978
59876	8.785645	-3.873794	1.539908	-0.000581	-0.002072	-0.003563	-67.036501	-64.939959	44.269262
59877	8.828505	-3.897094	1.538680	0.000498	0.002107	-0.003523	-67.036516	-64.940784	44.268681
59878	8.807200	-3.885113	1.539414	0.002089	-0.000539	-0.000025	-67.036389	-64.941253	44.269922
59879	8.807239	-3.885018	1.539430	-0.000021	0.000009	-0.001771	-67.039915	-64.941624	44.272906
59880	8.807239	-3.885018	1.539430	0.000021	-0.000009	0.001771	-67.041234	-64.941027	44.274434
59881	8.816273	-3.917811	1.514563	-0.001612	0.002654	-0.005270	-67.041013	-64.942649	44.272323
59882	8.829339	-3.896715	1.563129	-0.002393	-0.004955	-0.000037	-67.048431	-64.944111	44.279058
59883	8.795046	-3.905891	1.514690	0.000796	-0.001323	0.001749	-67.054671	-64.942918	44.285571
59884	8.818589	-3.863281	1.514633	0.002649	0.001542	0.001767	-67.052731	-64.941976	44.285164
59885	8.816184	-3.918021	1.514538	0.002434	0.004937	0.003580	-67.051849	-64.938420	44.284832
59886	8.785609	-3.873621	1.540546	0.004005	0.002300	0.005307	-67.049968	-64.935441	44.285349
59887	8.815130	-3.918559	1.490962	0.001140	0.004153	0.005354	-67.051560	-64.931121	44.286942
59888	8.772709	-3.895617	1.517016	0.003230	0.003614	0.005329	-67.048651	-64.927837	44.285834
59889	8.827029	-3.898128	1.516276	0.003728	0.005721	0.001806	-67.045311	-64.925039	44.283618
59890	8.805496	-3.886530	1.517355	-0.000195	0.003387	0.003584	-67.043788	-64.922726	44.281874
59891	8.805849	-3.887109	1.542102	0.006094	0.001761	0.005282	-67.045218	-64.918978	44.286430
59892	8.814566	-3.920445	1.517680	0.003769	0.005704	0.005348	-67.039655	-64.915216	44.282733
59893	8.805943	-3.888032	1.567439	-0.001529	0.002620	0.001815	-67.042836	-64.913105	44.284406
59894	8.814759	-3.921292	1.542642	0.001376	0.000750	0.005311	-67.044211	-64.910470	44.286854
59895	8.825852	-3.899993	1.518330	0.000560	0.002081	0.001791	-67.046783	-64.908491	44.289145
59896	8.792521	-3.909757	1.519369	0.002434	0.004937	0.003579	-67.042006	-64.905834	44.285470
59897	8.816034	-3.867233	1.519412	0.001570	-0.002637	0.001728	-67.049287	-64.904939	44.293620
59898	8.805711	-3.889715	1.592691	0.003505	0.000194	0.008829	-67.051744	-64.900572	44.298611
59899	8.825138	-3.901347	1.519006	0.001355	0.000758	0.003540	-67.056186	-64.897966	44.303478
59900	8.792379	-3.911311	1.544425	0.004504	0.004406	0.001783	-67.049966	-64.896375	44.299518
59901	8.791681	-3.911254	1.520378	0.003444	0.000219	0.003515	-67.053815	-64.893902	44.305070
59902	8.825298	-3.902126	1.544311	0.002649	0.001542	0.001766	-67.051875	-64.892960	44.304664
59903	8.791478	-3.911565	1.520753	0.001335	0.000767	0.001769	-67.055468	-64.891281	44.308608
59904	8.803223	-3.890322	1.520819	0.003424	0.000227	0.001744	-67.054554	-64.890644	44.309825
59905	8.803694	-3.890759	1.545199	-0.000499	-0.002106	0.003523	-67.063283	-64.888684	44.318255
59906	8.812607	-3.923862	1.520224	0.001315	0.000775	-0.000003	-67.062129	-64.888846	44.317871
59907	8.803567	-3.891063	1.545157	-0.001274	-0.000791	0.003545	-67.069821	-64.886580	44.324590
59908	8.802969	-3.890931	1.520733	-0.000795	0.001323	-0.001749	-67.068427	-64.887542	44.322607
59909	8.791157	-3.912311	1.520686	-0.001834	-0.002873	0.001755	-67.077943	-64.886685	44.331082
59910	8.815374	-3.869924	1.544624	-0.001855	-0.002864	-0.000017	-67.082695	-64.887666	44.335216
59911	8.813094	-3.924553	1.543860	0.000255	-0.003412	0.001730	-67.091617	-64.886944	44.344338
59912	8.803556	-3.891530	1.544039	-0.001060	-0.004187	0.001733	-67.098236	-64.887297	44.351037
59913	8.812507	-3.924632	1.518812	0.001570	-0.002637	0.001727	-67.105509	-64.886395	44.359229
59914	8.803005	-3.891531	1.518991	-0.002395	-0.004954	-0.000036	-67.112915	-64.887851	44.365953
59915	8.836228	-3.882089	1.517801	-0.000285	-0.005502	0.001711	-67.124480	-64.887596	44.377688
59916	8.804200	-3.892152	1.567002	0.000775	-0.001315	-0.000022	-67.125979	-64.888234	44.379893
59917	8.824990	-3.903815	1.541802	0.000255	-0.003412	0.001730	-67.134883	-64.887504	44.389038
59918	8.824422	-3.903671	1.517190	-0.001315	-0.000775	0.000003	-67.136983	-64.888008	44.390585
59919	8.824439	-3.903674	1.517087	0.000775	-0.001315	-0.000022	-67.142399	-64.887740	44.396105
59920	8.813196	-3.925153	1.541748	0.003149	0.003647	-0.001757	-67.136125	-64.888189	44.391228
59921	8.803115	-3.891624	1.518111	0.002089	-0.000540	-0.000025	-67.139916	-64.887750	44.395797
59922	8.824353	-3.903550	1.517908	0.005065	0.006487	0.003572	-67.131877	-64.884753	44.390183
59923	8.783132	-3.880755	1.593085	0.002955	0.007035	0.001826	-67.127514	-64.881652	44.386229
59924	8.802577	-3.892265	1.519588	0.000856	-0.001347	0.007062	-67.132367	-64.878557	44.392191
59925	8.824282	-3.904756	1.543470	0.002670	0.001533	0.003536	-67.135167	-64.875772	44.396100
59926	8.802749	-3.893213	1.544395	0.001121	0.004162	0.003580	-67.132011	-64.873288	44.393383
59927	8.801400	-3.893135	1.495950	0.001916	0.002840	0.005329	-67.134627	-64.869267	44.396636
59928	8.823643	-3.905780	1.544532	0.001121	0.004162	0.003580	-67.131472	-64.866784	44.393920
59929	8.811002	-3.927268	1.520732	0.003771	0.005704	0.005345	-67.129797	-64.862114	44.393647
59930	8.800600	-3.894241	1.497777	0.008256	0.010117	0.005355	-67.116701	-64.857366	44.384465
59931	8.800875	-3.894672	1.523276	0.005586	0.008584	0.001819	-67.109132	-64.853927	44.378852
59932	8.789282	-3.916542	1.548792	0.006961	0.009334	0.007128	-67.098505	-64.848417	44.371578
59933	8.821484	-3.907316	1.524875	0.008276	0.010109	0.007124	-67.090160	-64.841829	44.366690
59934	8.800221	-3.896190	1.551285	0.009357	0.014287	0.007160	-67.072620	-64.835195	44.353294
59935	8.799755	-3.896597	1.552906	0.009337	0.014295	0.005389	-67.058144	-64.828590	44.342208
59936	8.799314	-3.896972	1.554460	0.012994	0.011117	0.007093	-67.042061	-64.822697	44.332724
59937	8.798259	-3.897371	1.531460	0.009629	0.010868	0.010660	-67.033784	-64.814073	44.328761
59938	8.798268	-3.898162	1.557395	0.015624	0.012665	0.007085	-67.014465	-64.807836	44.317365
59939	8.818436	-3.910545	1.534201	0.009976	0.016347	0.014254	-67.001569	-64.796095	44.308438
59940	8.796836	-3.899873	1.561193	0.015990	0.018136	0.012449	-66.978481	-64.785801	44.293106
59941	8.817433	-3.912565	1.562716	0.016223	0.014732	0.012410	-66.962963	-64.775382	44.285545
59942	8.794925	-3.901224	1.540771	0.014096	0.015287	0.008890	-66.942481	-64.767599	44.271891
59943	8.783472	-3.923588	1.591611	0.013341	0.016595	0.010679	-66.925728	-64.757677	44.261076
59944	8.804931	-3.881123	1.520328	0.018079	0.017595	0.012418	-66.902087	-64.747512	44.246450
59945	8.801770	-3.936493	1.522315	0.016532	0.020225	0.012454	-66.880313	-64.735841	44.231866
59946	8.793084	-3.904601	1.598138	0.014115	0.015280	0.010654	-66.860715	-64.727122	44.219197
59947	8.758212	-3.914520	1.551726	0.013591	0.013185	0.012407	-66.848494	-64.717058	44.213379
59948	8.812169	-3.917568	1.552186	0.012995	0.011114	0.007080	-66.832496	-64.711157	44.203980
59949	8.800373	-3.939457	1.578084	0.007484	0.011431	0.005357	-66.822365	-64.705194	44.196665
59950	8.811845	-3.918523	1.579221	0.011137	0.008252	0.007067	-66.810625	-64.699944	44.190798
59951	8.789630	-3.906890	1.556550	0.007484	0.011431	0.005355	-66.800487	-64.693981	44.183367
59952	8.777471	-3.928401	1.557816	0.009768	0.007496	0.001760	-66.787845	-64.691696	44.175634
59953	8.789494	-3.907545	1.583211	0.009065	0.008789	0.008857	-66.781424	-64.684481	44.173426
59954	8.788624	-3.907782	1.559988	0.010328	0.009579	0.003543	-66.767000	-64.680785	44.164076
59955	8.788857	-3.908046	1.585506	0.005591	0.008580	0.001802	-66.759429	-64.677341	44.158125
59956	8.809366	-3.920049	1.561802	0.008817	0.012199	0.007118	-66.744671	-64.671168	44.147446
59957	8.808930	-3.920433	1.563299	0.012204	0.012435	0.005322	-66.730709	-64.664987	44.138953
59958	8.820340	-3.899480	1.564900	0.009902	0.016376	0.007143	-66.710711	-64.657853	44.123164
59959	8.754289	-3.919202	1.616766	0.011235	0.017144	0.008908	-66.693817	-64.648725	44.110704
59960	8.774582	-3.931518	1.593553	0.013783	0.009793	0.008824	-66.679729	-64.642195	44.103913
59961	8.795437	-3.943937	1.594331	0.006958	0.009338	0.007103	-66.673108	-64.635783	44.100234
59962	8.752837	-3.920807	1.620727	0.007731	0.008022	0.007086	-66.663629	-64.630569	44.094706
59963	8.794249	-3.944696	1.571745	0.002435	0.004940	0.003561	-66.662753	-64.627022	44.094111
59964	8.762820	-3.899726	1.548748	0.003751	0.005713	0.003557	-66.656430	-64.624187	44.089552
59965	8.818060	-3.902681	1.597057	0.006069	0.001766	0.003507	-66.656990	-64.621384	44.093200
59966	8.805977	-3.924219	1.597701	0.005839	0.005170	0.003536	-66.650064	-64.618683	44.089297
59967	8.751247	-3.922009	1.599231	0.001892	0.002852	0.003548	-66.651830	-64.615619	44.091522
59968	8.763017	-3.900887	1.599303	0.002105	-0.000548	0.001749	-66.652528	-64.615157	44.093689
59969	8.784670	-3.913120	1.623374	0.000576	0.002079	0.003552	-66.655890	-64.612265	44.096774
59970	8.783608	-3.913224	1.574530	0.002367	-0.003962	0.005258	-66.661900	-64.610731	44.104988
59971	8.792482	-3.946592	1.549599	0.000789	-0.001321	0.001753	-66.668045	-64.609548	44.111662
59972	8.795348	-3.892335	1.574209	0.000016	-0.000005	0.001769	-66.669347	-64.608952	44.113173
59973	8.762562	-3.901950	1.599202	0.002088	-0.000543	-0.000021	-66.673019	-64.608527	44.117760
59974	8.771527	-3.935093	1.574315	0.000246	-0.003409	0.001740	-66.677948	-64.608718	44.123432
59975	8.792834	-3.947147	1.573506	-0.001070	-0.004182	0.001744	-66.688297	-64.608190	44.133330
59976	8.783912	-3.914147	1.597814	-0.000314	-0.005493	-0.000042	-66.695006	-64.609791	44.140617
59977	8.795457	-3.892731	1.572621	-0.004262	-0.007811	-0.000030	-66.710363	-64.611022	44.153945
59978	8.805996	-3.926041	1.620377	-0.004541	-0.004392	-0.005309	-66.715762	-64.615144	44.157101
59979	8.783898	-3.913745	1.571613	0.002334	-0.003952	0.001719	-66.723905	-64.614586	44.166623
59980	8.805712	-3.925845	1.595164	-0.002403	-0.004950	-0.000022	-66.731222	-64.616050	44.173258
59981	8.783985	-3.913944	1.570632	-0.003702	-0.005727	0.001751	-66.744786	-64.615872	44.184920
59982	8.784086	-3.913994	1.569942	-0.002963	-0.007033	-0.001804	-66.753887	-64.618745	44.193175
59983	8.794167	-3.947251	1.593136	-0.005594	-0.008579	-0.001797	-66.770012	-64.621073	44.206724
59984	8.784871	-3.914102	1.592645	-0.002929	-0.007043	0.001734	-66.780794	-64.622084	44.216861
59985	8.784465	-3.914112	1.567528	-0.005807	-0.005179	0.000003	-66.794134	-64.622696	44.227228
59986	8.785049	-3.914319	1.591127	-0.003489	-0.009127	-0.000049	-66.806704	-64.625114	44.238988
59987	8.817417	-3.904696	1.540951	-0.006579	-0.003863	0.000020	-66.819009	-64.625422	44.247448
59988	8.806556	-3.926282	1.589417	-0.001876	-0.002856	-0.001779	-66.822872	-64.627335	44.250594
59989	8.805654	-3.926032	1.540274	-0.001842	-0.002866	0.001760	-66.832191	-64.626508	44.258722
59990	8.773405	-3.935759	1.589564	-0.000790	0.001321	-0.001752	-66.830806	-64.627465	44.256747
59991	8.797165	-3.893121	1.589491	0.000561	0.002083	0.001783	-66.833264	-64.625518	44.258575
59992	8.805936	-3.926404	1.565180	0.002980	0.007028	0.003575	-66.825913	-64.622382	44.252388
59993	8.772521	-3.936012	1.566460	0.003736	0.005717	0.001788	-66.822501	-64.619608	44.249838
59994	8.784198	-3.914939	1.566958	0.004542	0.004391	0.005310	-66.818009	-64.616153	44.247807
59995	8.805335	-3.927015	1.567028	0.002403	0.004950	0.000023	-66.815391	-64.614471	44.245886
59996	8.783913	-3.915171	1.567973	0.001104	0.004172	0.001796	-66.811443	-64.612915	44.242276
59997	8.793251	-3.948436	1.567932	0.002632	0.001545	-0.000008	-66.812474	-64.612026	44.244503
59998	8.783253	-3.915212	1.544212	0.001121	0.004167	0.003565	-66.809363	-64.609540	44.241831
59999	8.771621	-3.936944	1.569158	0.003209	0.003624	0.003544	-66.809431	-64.606314	44.243125
60000	8.805049	-3.927993	1.593534	0.003769	0.005707	0.005326	-66.803932	-64.602553	44.239489
60001	8.804392	-3.927950	1.569980	0.004790	0.009904	-0.001725	-66.793605	-64.600677	44.230433
60002	8.804209	-3.928035	1.570792	0.004542	0.004392	0.005309	-66.789118	-64.597221	44.228406
60003	8.771262	-3.937674	1.596631	0.004017	0.011219	-0.001709	-66.777750	-64.595041	44.217300
60004	8.804372	-3.928206	1.596749	0.002648	0.001540	0.001761	-66.775823	-64.594097	44.216907
60005	8.782545	-3.916127	1.573246	0.003703	0.005726	-0.001752	-66.770750	-64.593182	44.213069
60006	8.771015	-3.937525	1.598354	0.002420	0.004945	0.001791	-66.765195	-64.591453	44.208514
60007	8.772956	-3.882891	1.574627	0.003948	0.002317	-0.000012	-66.764562	-64.590397	44.209365
60008	8.804203	-3.927867	1.598511	0.000494	0.002102	-0.005295	-66.759889	-64.593042	44.204565
60009	8.803808	-3.927478	1.574426	0.003175	0.003633	0.000005	-66.758239	-64.591686	44.203589
60010	8.803752	-3.927456	1.574793	-0.000229	0.003404	0.000029	-66.755070	-64.591232	44.199996
60011	8.803604	-3.927576	1.575324	0.005068	0.006485	0.003552	-66.750856	-64.587354	44.197825
60012	8.803399	-3.927759	1.576017	0.001647	0.006261	0.001807	-66.744296	-64.585318	44.191667
60013	8.803711	-3.927938	1.601042	0.001631	0.006265	0.000037	-66.740610	-64.583347	44.187531
60014	8.781851	-3.915891	1.577698	0.001631	0.006265	0.000037	-66.733213	-64.582241	44.180435
60015	8.781330	-3.915674	1.553945	0.000842	0.007586	-0.001716	-66.727708	-64.580892	44.174264
60016	8.803039	-3.927516	1.578624	0.002931	0.007042	-0.001736	-66.717861	-64.580543	44.165282
60017	8.760375	-3.903614	1.579985	0.000544	0.002088	0.000012	-66.719428	-64.579530	44.166711
60018	8.781743	-3.915297	1.579770	-0.002365	0.003961	-0.005259	-66.714349	-64.581732	44.159648
60019	8.803506	-3.927273	1.603803	-0.001284	-0.000781	0.003542	-66.721820	-64.579514	44.166405
60020	8.770316	-3.936707	1.604192	-0.000576	-0.002079	-0.003551	-66.723220	-64.582185	44.167650
60021	8.794264	-3.893782	1.603859	-0.002120	0.000552	-0.003519	-66.726325	-64.583389	44.168843
60022	8.803385	-3.926602	1.578973	-0.002664	-0.001536	-0.003531	-66.728330	-64.585926	44.169433
60023	8.749444	-3.924037	1.604117	0.000213	-0.003400	-0.001798	-66.735260	-64.587109	44.176455
60024	8.782369	-3.914183	1.579052	-0.000821	0.001329	-0.005292	-66.732196	-64.589925	44.172602
60025	8.782030	-3.913938	1.554360	-0.003703	-0.005727	0.001752	-66.745665	-64.589774	44.184435
60026	8.782559	-3.914025	1.578386	-0.001348	-0.000763	-0.003535	-66.746059	-64.592138	44.184077
60027	8.782773	-3.913683	1.578045	-0.004539	-0.004393	-0.005309	-66.755134	-64.595396	44.190455
60028	8.804383	-3.925186	1.576928	-0.005082	-0.006481	-0.005322	-66.763157	-64.599994	44.196173
60029	8.783366	-3.912912	1.576653	-0.005855	-0.005165	-0.005306	-66.773837	-64.603424	44.203435
60030	8.795144	-3.891001	1.551414	-0.005099	-0.006476	-0.007092	-66.781027	-64.608953	44.208220
60031	8.772651	-3.933359	1.599630	-0.004326	-0.007792	-0.007109	-66.792939	-64.613946	44.217711
60032	8.784474	-3.911429	1.574161	-0.004853	-0.009886	-0.005353	-66.804606	-64.619327	44.227607
60033	8.785335	-3.911130	1.597376	-0.009589	-0.010884	-0.007095	-66.822910	-64.624994	44.240662
60034	8.840320	-3.913030	1.595155	-0.009835	-0.007474	-0.008835	-66.833108	-64.631663	44.245772
60035	8.806554	-3.921835	1.545810	-0.004047	-0.011211	-0.001832	-66.851138	-64.634633	44.262415
60036	8.785461	-3.909724	1.545553	-0.006858	-0.000446	-0.005260	-66.853525	-64.637835	44.260768
60037	8.807506	-3.921374	1.568953	-0.005083	-0.006481	-0.005325	-66.865251	-64.641581	44.269873
60038	8.798781	-3.888010	1.593051	-0.006612	-0.003855	-0.003521	-66.872115	-64.644634	44.273337
60039	8.807980	-3.920856	1.567584	-0.005066	-0.006486	-0.003556	-66.884650	-64.647458	44.282816
60040	8.808268	-3.920565	1.566694	-0.007714	-0.008027	-0.005319	-66.895936	-64.652396	44.290474
60041	8.819456	-3.898651	1.517136	-0.004754	-0.000993	-0.003511	-66.902204	-64.653950	44.293720
60042	8.796809	-3.941383	1.565714	-0.006612	-0.003855	-0.003522	-66.909074	-64.657002	44.297189
60043	8.798946	-3.886449	1.541232	-0.001349	-0.000762	-0.003536	-66.913135	-64.658523	44.300135
60044	8.797622	-3.941026	1.589463	-0.005296	-0.003082	-0.003526	-66.918390	-64.661403	44.302652
60045	8.799296	-3.885933	1.540533	-0.001892	-0.002851	-0.003550	-66.925089	-64.663411	44.308001
60046	8.799967	-3.885748	1.564644	-0.004771	-0.000988	-0.005282	-66.926880	-64.666746	44.307019
60047	8.809141	-3.918470	1.539590	-0.002665	-0.001536	-0.003533	-66.932558	-64.668441	44.311229
60048	8.821619	-3.897024	1.563810	-0.002896	0.001869	-0.003501	-66.930939	-64.670196	44.307662
60049	8.809886	-3.918073	1.563827	-0.000576	-0.002078	-0.003554	-66.936000	-64.672033	44.312130
60050	8.789168	-3.906073	1.588645	-0.002896	0.001869	-0.003501	-66.934381	-64.673788	44.308563
60051	8.800811	-3.884182	1.563784	-0.005099	-0.006475	-0.007098	-66.945254	-64.678476	44.316920
60052	8.789666	-3.905261	1.587885	-0.002123	0.000553	-0.003519	-66.944649	-64.680536	44.314965
60053	8.810727	-3.916637	1.562689	-0.004540	-0.004392	-0.005314	-66.953723	-64.683829	44.321249
60054	8.768314	-3.892482	1.563325	-0.001367	-0.000756	-0.005307	-66.953297	-64.687126	44.319971
60055	8.811175	-3.915935	1.561918	-0.002958	-0.007034	-0.001810	-66.966055	-64.689165	44.331126
60056	8.790034	-3.903825	1.561948	-0.005544	0.000327	-0.005265	-66.966836	-64.692197	44.328536
60057	8.823399	-3.894094	1.561066	-0.001101	-0.004172	-0.001799	-66.975303	-64.693580	44.336205
60058	8.789801	-3.903346	1.536976	-0.001315	-0.000774	0.000003	-66.977385	-64.694080	44.337735
60059	8.811223	-3.915041	1.536397	0.002828	-0.001845	-0.003579	-66.980194	-64.695891	44.341733
60060	8.790939	-3.903339	1.585563	-0.002631	-0.001547	0.000007	-66.983895	-64.696563	44.344219
60061	8.811864	-3.914999	1.560378	-0.001874	-0.002857	-0.001781	-66.991363	-64.697655	44.350155
60062	8.790623	-3.902995	1.560710	-0.000017	0.000006	-0.001770	-66.990993	-64.698917	44.349794
60063	8.812061	-3.914651	1.560138	-0.003439	-0.000220	-0.003516	-66.995648	-64.700335	44.352312
60064	8.791304	-3.902848	1.584744	-0.003172	-0.003636	-0.000008	-67.001984	-64.701482	44.357369
60065	8.790839	-3.902707	1.560215	0.000542	0.002089	0.000015	-67.003399	-64.700516	44.358603
60066	8.812663	-3.914780	1.583931	-0.006576	-0.003868	0.000016	-67.011956	-64.701701	44.363960
60067	8.823554	-3.893252	1.534768	-0.000756	0.001309	0.001788	-67.015831	-64.699986	44.366843
60068	8.791732	-3.903329	1.608650	-0.002862	0.001857	0.000039	-67.015883	-64.699879	44.365146
60069	8.790761	-3.903024	1.559858	0.000000	-0.000000	-0.000000	-67.019923	-64.699380	44.369616
60070	8.790324	-3.902792	1.535390	-0.001333	-0.000768	-0.001767	-67.021172	-64.700812	44.370214
60071	8.812141	-3.914829	1.559241	0.000017	-0.000006	0.001770	-67.026008	-64.699397	44.374521
60072	8.823952	-3.893565	1.559256	0.000542	0.002089	0.000015	-67.023839	-64.699250	44.372525
60073	8.790267	-3.902856	1.535552	0.002089	-0.000542	-0.000021	-67.027216	-64.698903	44.376254
60074	8.802580	-3.881783	1.559777	0.004444	-0.004499	0.003465	-67.031795	-64.698410	44.384195
60075	8.833249	-3.927294	1.558495	-0.002330	-0.004975	0.007054	-67.046032	-64.695334	44.397262
60076	8.811773	-3.915732	1.559053	0.003714	0.005725	0.000023	-67.037992	-64.694370	44.390783
60077	8.810660	-3.915533	1.510809	0.000345	0.005481	0.003588	-67.037380	-64.690789	44.388998
60078	8.822748	-3.894704	1.535718	0.005855	0.005165	0.005312	-67.031240	-64.687160	44.385976
60079	8.822945	-3.895197	1.560880	0.002203	0.008344	0.003599	-67.026394	-64.682908	44.382263
60080	8.822570	-3.895686	1.561779	0.005658	0.008558	0.008884	-67.018276	-64.676635	44.376928
60081	8.788910	-3.905792	1.563358	0.002779	0.010421	0.007152	-67.012424	-64.670063	44.371226
60082	8.842973	-3.908772	1.563485	0.004637	0.013283	0.007163	-66.998819	-64.663640	44.359173
60083	8.799355	-3.885410	1.541515	0.007268	0.014830	0.007156	-66.985537	-64.656084	44.348546
60084	8.807773	-3.919048	1.518509	0.008369	0.019002	0.008953	-66.964289	-64.647433	44.330400
60085	8.787190	-3.908211	1.594313	0.008895	0.021096	0.007195	-66.943113	-64.638434	44.312608
60086	8.795644	-3.941698	1.571460	0.006478	0.016151	0.005399	-66.924462	-64.632290	44.296135
60087	8.806614	-3.920575	1.548657	0.008566	0.015608	0.005379	-66.908726	-64.625514	44.282357
60088	8.818567	-3.899515	1.574776	0.006972	0.018256	0.000102	-66.884958	-64.621684	44.260533
60089	8.784563	-3.908958	1.552583	0.005935	0.014062	0.005383	-66.872454	-64.615225	44.249942
60090	8.784675	-3.909193	1.578588	0.003553	0.018030	-0.001648	-66.850080	-64.612362	44.227489
60091	8.818054	-3.899851	1.603986	0.002499	0.013842	0.001865	-66.838144	-64.607816	44.215082
60092	8.784600	-3.909338	1.605787	0.003256	0.012532	0.000078	-66.822871	-64.605278	44.200300
60093	8.805226	-3.921186	1.582165	0.003287	0.012522	0.003617	-66.812777	-64.600103	44.190594
60094	8.762735	-3.897687	1.608621	0.001941	0.011759	0.000080	-66.799122	-64.597736	44.176769
60095	8.762107	-3.897602	1.585215	0.001413	0.009665	0.001837	-66.792370	-64.594147	44.168741
60096	8.804515	-3.921456	1.585448	0.007449	0.011442	0.001809	-66.776739	-64.590939	44.156220
60097	8.792504	-3.942650	1.586570	0.000052	0.008907	-0.003470	-66.769085	-64.590328	44.145860
60098	8.807187	-3.866619	1.612206	0.000365	0.014400	-0.003430	-66.751745	-64.589207	44.126954
60099	8.762096	-3.896985	1.613792	0.002899	0.007054	-0.005274	-66.743642	-64.589958	44.118278
60100	8.804450	-3.920128	1.589089	-0.001048	0.004735	-0.005266	-66.736946	-64.591988	44.110260
60101	8.783284	-3.907828	1.589665	-0.004221	0.001100	-0.005273	-66.739526	-64.594054	44.110763
60102	8.838027	-3.909785	1.588719	-0.005009	0.002421	-0.007028	-66.736824	-64.597534	44.104654
60103	8.805047	-3.918763	1.589148	-0.003448	-0.000216	-0.005289	-66.740464	-64.599936	44.106141
60104	8.804890	-3.918074	1.564712	-0.005797	0.003741	-0.008783	-66.735911	-64.604041	44.097484
60105	8.816850	-3.896492	1.564777	-0.001532	0.002626	0.001801	-66.738598	-64.602056	44.098892
60106	8.771706	-3.927228	1.565862	-0.000722	0.010223	-0.003456	-66.726490	-64.601890	44.085091
60107	8.817565	-3.896385	1.615063	-0.004371	0.013401	-0.005178	-66.715613	-64.601151	44.070217
60108	8.783965	-3.905349	1.591993	0.000825	0.007592	-0.003487	-66.705521	-64.601595	44.059628
60109	8.783995	-3.904993	1.592701	-0.004140	0.009997	-0.005207	-66.698160	-64.601639	44.047753
60110	8.805362	-3.916518	1.592935	-0.000491	0.006819	-0.003485	-66.689679	-64.602255	44.038114
60111	8.805097	-3.915856	1.569088	-0.002622	0.007377	-0.008778	-66.682795	-64.604773	44.029593
60112	8.805263	-3.915206	1.569780	-0.002839	0.010775	-0.006980	-66.669602	-64.606330	44.013248
60113	8.794660	-3.936471	1.643781	-0.000505	0.006824	-0.005255	-66.663719	-64.607121	44.006404
60114	8.817664	-3.892980	1.595860	-0.001214	0.017042	-0.006944	-66.642665	-64.607233	43.982389
60115	8.775010	-3.868751	1.597816	-0.002825	0.010770	-0.005212	-66.633700	-64.607107	43.969947
60116	8.827106	-3.925379	1.597635	0.001921	0.011765	-0.001693	-66.619212	-64.605652	43.955188
60117	8.772186	-3.922530	1.574926	-0.000505	0.006824	-0.005257	-66.613286	-64.606441	43.948115
60118	8.817349	-3.891183	1.575147	-0.000750	0.010234	-0.007000	-66.599482	-64.608123	43.932419
60119	8.763747	-3.888393	1.625515	0.002331	0.004978	-0.008828	-66.592239	-64.611199	43.926106
60120	8.772745	-3.920502	1.576859	0.000242	0.005520	-0.008812	-66.582215	-64.614905	43.915224
60121	8.742894	-3.874954	1.627073	0.002099	0.008383	-0.008802	-66.571357	-64.617207	43.904352
60122	8.722177	-3.862512	1.652258	0.002809	-0.001835	-0.007112	-66.568823	-64.621693	43.903390
60123	8.827766	-3.920443	1.552496	0.002255	-0.003919	-0.008895	-66.571458	-64.626848	43.907710
60124	8.764501	-3.884218	1.577933	0.002796	-0.001830	-0.008883	-66.568075	-64.632263	43.905799
60125	8.795679	-3.928400	1.577429	0.007282	0.002582	-0.008877	-66.560551	-64.635937	43.900465
60126	8.743881	-3.870416	1.579112	0.013522	0.000970	-0.012467	-66.546190	-64.642598	43.893206
60127	8.820961	-3.883639	1.627170	0.013769	-0.002439	-0.010724	-66.539682	-64.648399	43.893674
60128	8.821076	-3.882246	1.603138	0.015070	-0.001660	-0.012498	-66.527328	-64.655675	43.889619
60129	8.842464	-3.892757	1.578985	0.016178	0.002508	-0.008934	-66.514746	-64.659394	43.884865
60130	8.809915	-3.901252	1.605170	0.019642	0.011644	-0.010662	-66.485885	-64.662665	43.865444
60131	8.758200	-3.843603	1.632114	0.015984	0.005899	-0.003598	-66.472258	-64.662802	43.860258
60132	8.768169	-3.876304	1.657183	0.019082	0.000640	-0.003653	-66.459307	-64.664904	43.858086
60133	8.800692	-3.866258	1.608236	0.015659	-0.008508	0.003389	-66.465213	-64.664680	43.873776
60134	8.812834	-3.845158	1.632550	0.013349	-0.004568	0.005200	-66.465603	-64.663322	43.882730
60135	8.789334	-3.888499	1.656946	0.006815	-0.008452	0.010527	-66.479924	-64.659333	43.902078
60136	8.830738	-3.912588	1.582192	0.007270	-0.015256	0.008707	-66.497344	-64.658575	43.926023
60137	8.830255	-3.913086	1.556890	0.004159	-0.009993	0.006990	-66.513199	-64.656786	43.946099
60138	8.842378	-3.892179	1.580890	0.011247	-0.004025	0.003442	-66.513338	-64.656225	43.953443
60139	8.830065	-3.913501	1.556931	0.008677	0.003327	0.001736	-66.509296	-64.654179	43.953278
60140	8.830603	-3.913742	1.606832	0.015032	0.010599	0.003513	-66.491079	-64.650241	43.942711
60141	8.746132	-3.866486	1.683073	0.014991	0.010609	-0.001800	-66.473596	-64.648388	43.931213
60142	8.736486	-3.833322	1.684017	0.008643	-0.005580	0.006991	-66.478662	-64.646320	43.942359
60143	8.787869	-3.890585	1.633209	-0.002724	-0.019356	0.006978	-66.508777	-64.646702	43.972597
60144	8.799847	-3.869772	1.631118	-0.006696	-0.021672	0.003447	-66.538770	-64.650166	44.001601
60145	8.842379	-3.893950	1.603323	-0.008058	-0.031350	0.006932	-66.585234	-64.653278	44.047407
60146	8.788301	-3.892596	1.626075	-0.008188	-0.019055	0.010553	-66.616607	-64.652393	44.076990
60147	8.862916	-3.907582	1.549353	-0.009270	-0.023233	0.010531	-66.656386	-64.651743	44.113721
60148	8.809060	-3.906400	1.597321	-0.006811	-0.009381	0.008836	-66.675398	-64.649551	44.130501
60149	8.850847	-3.930613	1.546432	-0.003745	-0.014634	0.005237	-66.699964	-64.649736	44.153887
60150	8.778571	-3.862516	1.620228	-0.003157	-0.003640	0.001768	-66.707122	-64.649959	44.159866
60151	8.788066	-3.896077	1.618995	-0.003745	-0.014634	0.005236	-66.731681	-64.650127	44.184073
60152	8.874995	-3.889298	1.567273	-0.005834	-0.014093	0.005254	-66.753652	-64.650877	44.204746
60153	8.799892	-3.875954	1.616125	-0.011003	-0.008294	0.007102	-66.776233	-64.648640	44.221601
60154	8.842006	-3.900580	1.589200	-0.008714	-0.021149	0.012303	-66.811054	-64.647263	44.254669
60155	8.841737	-3.901956	1.587318	-0.016976	-0.010089	0.014213	-66.842416	-64.641671	44.278015
60156	8.850020	-3.936373	1.536476	-0.016760	-0.013489	0.012414	-66.873372	-64.638495	44.301706
60157	8.828424	-3.925711	1.535346	-0.017253	-0.006673	0.008927	-66.898599	-64.634918	44.318161
60158	8.807738	-3.915035	1.583412	-0.013865	-0.006437	0.007133	-66.917541	-64.632932	44.330393
60159	8.776701	-3.870894	1.583267	-0.014854	-0.001722	0.008946	-66.935883	-64.628224	44.341106
60160	8.798242	-3.883827	1.606177	-0.013634	-0.009841	0.007102	-66.958457	-64.627014	44.357504
60161	8.755251	-3.861354	1.605825	-0.018737	-0.004061	0.016034	-66.984902	-64.619099	44.373815
60162	8.785671	-3.907992	1.603199	-0.019704	-0.020530	0.012367	-67.025311	-64.617498	44.406105
60163	8.827628	-3.933113	1.575579	-0.022238	-0.013184	0.014212	-67.063015	-64.612564	44.433484
60164	8.815521	-3.955977	1.573069	-0.024195	-0.024937	0.012356	-67.110881	-64.611932	44.471182
60165	8.898942	-4.004050	1.471001	-0.023091	-0.011841	0.005377	-67.143320	-64.611360	44.490503
60166	8.869038	-3.959755	1.519682	-0.019042	0.008295	-0.001559	-67.144737	-64.610662	44.480053
60167	8.794089	-3.945457	1.570724	-0.011146	0.021859	-0.010348	-67.125518	-64.610891	44.450278
60168	8.715428	-3.789176	1.671959	-0.020291	0.016424	-0.003253	-67.117814	-64.609275	44.428941
60169	8.808327	-3.869682	1.571311	-0.023634	-0.013933	0.005350	-67.152963	-64.609187	44.452018
60170	8.820469	-3.849759	1.593701	-0.031611	-0.006295	0.012550	-67.184420	-64.604285	44.466850
60171	8.807181	-3.872648	1.543044	-0.034178	-0.007867	0.019629	-67.225593	-64.595285	44.491710
60172	8.836639	-3.920036	1.516249	-0.032186	0.003870	0.025029	-67.251874	-64.581528	44.500450
60173	8.835533	-3.922710	1.515782	-0.018782	0.008184	0.026745	-67.269538	-64.565201	44.508266
60174	8.825568	-3.892825	1.565897	-0.022193	0.029131	0.032270	-67.265381	-64.542023	44.489640
60175	8.745513	-3.936291	1.568191	-0.023566	0.019447	0.035718	-67.277449	-64.518474	44.487885
60176	8.779624	-3.875758	1.568841	-0.019950	0.016278	0.033890	-67.287027	-64.497285	44.485893
60177	8.766344	-3.901025	1.593953	-0.027680	0.020504	0.042815	-67.303495	-64.469783	44.484383
60178	8.764456	-3.905178	1.594167	-0.023371	0.007113	0.042651	-67.329201	-64.445989	44.498093
60179	8.783139	-3.920609	1.544867	-0.023852	0.013939	0.039177	-67.349080	-64.421857	44.503969
60180	8.784140	-3.870752	1.570166	-0.023186	0.015957	0.053331	-67.369767	-64.390460	44.512237
60181	8.704165	-3.916322	1.620265	-0.027892	0.014953	0.055103	-67.398080	-64.357686	44.524837
60182	8.746612	-3.890824	1.595283	-0.028749	0.007364	0.056787	-67.432916	-64.326348	44.545270
60183	8.732214	-3.917815	1.594462	-0.037380	0.004034	0.062087	-67.481808	-64.292258	44.576289
60184	8.774567	-3.893174	1.568257	-0.034822	-0.003344	0.065515	-67.535699	-64.258632	44.614022
60185	8.697869	-3.885948	1.665689	-0.051738	0.004452	0.065664	-67.593719	-64.222537	44.645875
60186	8.689338	-3.805593	1.688043	-0.065389	-0.026582	0.075966	-67.695045	-64.188398	44.716862
60187	8.857516	-3.323310	1.856428	-0.130617	-0.029579	0.104442	-67.852403	-64.139070	44.807947
60188	8.533111	-3.995592	1.744205	-0.210390	-0.074416	0.120020	-68.108001	-64.091627	44.958122
60189	9.000861	-3.715166	1.504970	-0.235417	-0.089026	0.125020	-68.398249	-64.043659	45.130736
60190	8.445202	-4.258710	1.611398	-0.274965	-0.048312	0.114944	-68.658584	-63.992823	45.245144
60191	8.910804	-4.031990	1.394871	-0.213006	-0.112719	0.101111	-68.950048	-63.961798	45.433359
60192	8.755425	-4.070125	1.479052	-0.271708	-0.026605	0.090261	-69.173103	-63.919261	45.508422
60193	8.967545	-3.336681	1.772693	-0.342434	-0.047698	0.068601	-69.453098	-63.891787	45.601786
60194	8.851594	-3.592065	1.704763	-0.555695	0.080232	0.026988	-69.695123	-63.861567	45.516793
60195	9.087377	-3.623761	1.586509	-0.642295	0.068366	-0.021940	-69.982632	-63.859543	45.428375
60196	9.484228	-3.180713	1.540328	-0.801257	0.276524	-0.101304	-70.098381	-63.860328	45.045980
60197	8.727768	-3.762704	1.522558	-0.980527	0.373120	-0.135682	-70.199776	-63.860591	44.534016
60198	8.828369	-4.259948	1.287560	-1.018205	0.346971	-0.163232	-70.337789	-63.881819	44.038006
60199	8.781016	-4.132872	1.117104	-0.985542	0.421770	-0.189847	-70.366838	-63.902640	43.446020
60200	8.354252	-4.852077	1.249157	-0.901419	0.354856	-0.162234	-70.428923	-63.922306	42.940148
60201	8.061955	-5.092852	1.409898	-0.767872	0.297129	-0.132129	-70.492470	-63.936483	42.521192
60202	7.644239	-6.044563	0.877896	-0.306665	-0.167108	-0.031020	-70.841540	-63.985260	42.714203
60203	9.836303	-4.305641	0.069673	-0.077241	-0.085089	-0.015307	-70.977710	-64.009166	42.815826
60204	8.378130	-4.612360	1.558866	-0.050896	0.066965	-0.022836	-70.924218	-64.009318	42.723934
60205	9.169695	-4.223585	0.837340	0.039247	-0.021968	-0.056631	-70.907824	-64.043773	42.730035
60206	8.719526	-4.374282	1.318482	0.034637	0.111414	-0.087238	-70.730787	-64.070316	42.555290
60207	8.905785	-4.176656	1.224101	0.071240	0.055927	-0.106723	-70.589540	-64.117084	42.442953
60208	8.798092	-4.219581	1.277720	0.065403	0.103048	-0.125886	-70.388035	-64.165659	42.260731
60209	8.869050	-4.180360	1.219607	0.084389	0.117310	-0.153092	-70.151140	-64.225223	42.050613
60210	8.833219	-4.097175	1.339870	0.098004	0.148460	-0.154880	-69.866830	-64.279848	41.797367
60211	8.732579	-3.976442	1.439845	0.093190	0.138237	-0.148570	-69.601310	-64.331972	41.561271
60212	8.746733	-3.697896	1.553991	0.105887	0.122207	-0.138426	-69.346595	-64.382012	41.346086
60213	8.565442	-3.925279	1.616116	0.043272	0.094267	-0.104446	-69.175711	-64.418577	41.183408
60214	8.662027	-3.743628	1.615488	0.047818	0.028582	-0.084240	-69.080853	-64.458157	41.108689
60215	8.648845	-3.866684	1.605987	0.016992	0.007580	-0.063072	-69.039104	-64.490089	41.072542
60216	8.803965	-3.875535	1.457940	0.005995	-0.031857	-0.042099	-69.053811	-64.519458	41.092701
60217	8.780560	-3.969126	1.446388	-0.003673	-0.021933	-0.034852	-69.069077	-64.542336	41.106618
60218	8.848540	-3.944796	1.421749	-0.002958	-0.032547	-0.026429	-69.096503	-64.563455	41.135175
60219	8.836285	-4.018556	1.411678	-0.002450	-0.030872	-0.017459	-69.128663	-64.578847	41.168572
60220	8.880354	-4.040230	1.406830	-0.003759	-0.031566	-0.019311	-69.158586	-64.595940	41.199377
60221	8.893523	-4.012506	1.357426	-0.003218	-0.029312	-0.022751	-69.187234	-64.613833	41.228392
60222	8.916512	-4.015292	1.281432	0.004163	-0.017850	-0.022011	-69.196046	-64.629570	41.240846
60223	8.886515	-3.963671	1.237416	0.019264	0.019949	-0.030507	-69.152885	-64.641585	41.204635
60224	8.680973	-3.909269	1.588512	0.026716	0.049355	-0.032514	-69.068295	-64.649223	41.128028
60225	8.779874	-3.920055	1.467809	0.019940	-0.008275	-0.026435	-69.058306	-64.664811	41.128960
60226	8.847590	-3.886824	1.349241	0.015024	0.011715	-0.022132	-69.027363	-64.674567	41.104310
60227	8.659811	-3.946851	1.614806	0.011957	0.034735	-0.021195	-68.975561	-64.678527	41.053925
60228	8.803533	-3.923170	1.446753	0.005982	-0.024207	-0.015126	-68.993423	-64.691907	41.077535
60229	8.814133	-3.954722	1.442977	-0.000211	0.004138	-0.015823	-68.985474	-64.699272	41.067961
60230	8.803496	-3.969990	1.392181	0.004210	-0.009050	-0.019837	-68.985169	-64.712058	41.070352
60231	8.849065	-3.936964	1.395080	0.001364	0.001763	-0.021218	-68.976644	-64.722797	41.061142
60232	8.859578	-3.970170	1.417150	0.008206	0.011227	-0.022369	-68.949970	-64.732766	41.036904
60233	8.851073	-3.923670	1.300367	0.019492	0.016310	-0.025362	-68.912738	-64.742725	41.007438
60234	8.761071	-4.003892	1.516501	0.013556	0.050059	-0.024044	-68.838223	-64.745555	40.933697
60235	8.830023	-3.920442	1.453991	0.016617	0.009591	-0.032867	-68.806896	-64.760890	40.908942
60236	8.832701	-3.860808	1.437741	0.014604	0.045676	-0.031338	-68.733463	-64.768467	40.837073
60237	8.810396	-3.896394	1.389054	0.022667	0.028851	-0.024726	-68.680346	-64.775434	40.792069
60238	8.733883	-3.890175	1.491149	0.011413	0.050103	-0.013470	-68.611578	-64.772486	40.723340
60239	8.766816	-3.881217	1.519820	0.019182	0.010175	-0.011421	-68.587468	-64.776226	40.708197
60240	8.821455	-3.881846	1.522276	0.008202	0.028351	-0.007411	-68.547863	-64.774560	40.669673
60241	8.776988	-3.910148	1.496790	0.011042	0.008653	-0.006401	-68.532343	-64.775938	40.658875
60242	8.831910	-3.906773	1.450004	0.006078	0.019831	-0.004292	-68.504990	-64.774383	40.632550
60243	8.831862	-3.904301	1.427806	0.010775	0.020619	0.001224	-68.479473	-64.769181	40.610533
60244	8.831946	-3.899809	1.381192	0.012598	0.014599	0.001019	-68.456683	-64.765885	40.593379
60245	8.709356	-3.933590	1.551474	0.007379	0.037905	0.007195	-68.416261	-64.753857	40.552730
60246	8.861882	-3.951399	1.454714	0.010193	-0.008219	0.001745	-68.420971	-64.754977	40.564455
60247	8.819808	-3.878614	1.511238	0.001088	0.030687	0.004905	-68.391300	-64.745680	40.531708
60248	8.817879	-3.931033	1.484232	0.017555	0.012068	0.004623	-68.370167	-64.740988	40.519524
60249	8.817442	-3.929386	1.462311	0.007868	0.030866	0.012235	-68.339716	-64.727739	40.490208
60250	8.805116	-3.951545	1.462808	0.012312	0.017677	0.008253	-68.316909	-64.719923	40.472847
60251	8.815506	-3.935266	1.515885	0.010218	0.026937	0.012136	-68.289540	-64.707549	40.448425
60252	8.793743	-3.920092	1.470365	0.007595	0.016648	0.008058	-68.270535	-64.700048	40.432278
60253	8.814598	-3.932320	1.471538	0.007859	0.022058	0.010072	-68.249112	-64.689801	40.412936
60254	8.770425	-3.914452	1.523764	0.006266	0.015709	0.011532	-68.233507	-64.680646	40.399706
60255	8.824339	-3.916999	1.525726	0.004964	0.015009	0.009681	-68.221509	-64.672101	40.388955
60256	8.824045	-3.915491	1.502806	0.007322	0.011158	0.007815	-68.208763	-64.665889	40.379554
60257	8.811548	-3.940057	1.526417	0.005710	0.013381	0.016750	-68.201343	-64.653931	40.374344
60258	8.789886	-3.925200	1.479772	0.005473	0.008209	0.009411	-68.193695	-64.647496	40.369411
60259	8.810748	-3.937728	1.480109	0.008596	0.011619	0.014988	-68.185808	-64.636850	40.365514
60260	8.810059	-3.938784	1.481400	0.005210	0.011530	0.011317	-68.175449	-64.628694	40.357414
60261	8.831184	-3.949085	1.457562	0.006521	0.012309	0.011391	-68.166366	-64.619815	40.350877
60262	8.786742	-3.933476	1.533493	0.005729	0.013540	0.013194	-68.154311	-64.610231	40.341228
60263	8.798109	-3.908880	1.488376	0.007030	0.014240	0.015042	-68.144417	-64.598999	40.334118
60264	8.806378	-3.949587	1.559954	0.005719	0.013461	0.014966	-68.133269	-64.588488	40.325464
60265	8.806476	-3.944309	1.487991	0.001508	0.005635	0.014506	-68.135927	-64.579377	40.328749
60266	8.827310	-3.957047	1.487942	0.005452	0.008051	0.012954	-68.130089	-64.571090	40.325805
60267	8.783621	-3.935100	1.490638	0.006491	0.012071	0.016708	-68.123679	-64.559436	40.322211
60268	8.794455	-3.914928	1.494064	0.007823	0.013008	0.013233	-68.111075	-64.549942	40.313278
60269	8.791928	-3.970484	1.490583	0.006491	0.012072	0.016706	-68.104668	-64.538292	40.309690
60270	8.780998	-3.940979	1.518878	0.004659	0.009283	0.014753	-68.098730	-64.528784	40.306131
60271	8.823529	-3.963142	1.494138	0.007294	0.010918	0.013127	-68.091545	-64.519283	40.302187
60272	8.779935	-3.940907	1.496994	0.008616	0.011775	0.011426	-68.079076	-64.511010	40.293904
60273	8.790928	-3.920389	1.500487	0.012022	0.012021	0.011545	-68.067248	-64.502115	40.287823
60274	8.833379	-3.942533	1.476393	0.010175	0.017808	0.017051	-68.049706	-64.489559	40.274906
60275	8.777636	-3.944088	1.502094	0.013842	0.014730	0.015267	-68.035499	-64.478108	40.267340
60276	8.798340	-3.956690	1.503170	0.011771	0.015421	0.011671	-68.017309	-64.468920	40.254717
60277	8.776148	-3.946017	1.505718	0.009666	0.015876	0.013396	-68.003392	-64.458216	40.244826
60278	8.796867	-3.958579	1.506814	0.010990	0.016732	0.011695	-67.984224	-64.448730	40.230621
60279	8.785966	-3.928672	1.535871	0.012290	0.017432	0.013541	-67.967156	-64.437614	40.218895
60280	8.783649	-3.981973	1.508636	0.009653	0.015799	0.015164	-67.951374	-64.426483	40.207591
60281	8.784054	-3.932923	1.563812	0.010458	0.014643	0.011589	-67.937587	-64.417002	40.198348
60282	8.781772	-3.986140	1.536550	0.012278	0.017354	0.015309	-67.918663	-64.405456	40.185227
60283	8.771807	-3.949977	1.492666	0.010197	0.017966	0.013486	-67.902204	-64.394250	40.172850
60284	8.770580	-3.953300	1.518998	0.009391	0.019123	0.017057	-67.883789	-64.381392	40.158456
60285	8.747529	-3.947168	1.570270	0.011745	0.015265	0.015204	-67.870226	-64.369855	40.150274
60286	8.790588	-3.965390	1.497637	0.010407	0.014333	0.018674	-67.857282	-64.357169	40.142590
60287	8.789304	-3.968898	1.523711	0.013825	0.014653	0.017022	-67.844031	-64.344800	40.136077
60288	8.821396	-3.960662	1.527109	0.011990	0.020524	0.020741	-67.824295	-64.329677	40.121862
60289	8.753743	-3.983715	1.550841	0.013031	0.015888	0.018816	-67.810959	-64.316089	40.114747
60290	8.807678	-3.984950	1.529244	0.012797	0.019366	0.017164	-67.790462	-64.303111	40.100198
60291	8.763615	-3.963161	1.533435	0.018046	0.031132	0.023120	-67.759417	-64.283934	40.076625
60292	8.783715	-3.976550	1.535940	0.020632	0.023794	0.022919	-67.732194	-64.266938	40.059589
60293	8.760248	-3.970719	1.588120	0.016461	0.024944	0.021043	-67.707992	-64.250198	40.042577
60294	8.759581	-3.969979	1.566282	0.013590	0.018130	0.015355	-67.687668	-64.238437	40.028718
60295	8.747055	-3.992341	1.566319	0.017256	0.015045	0.013584	-67.670547	-64.227799	40.020105
60296	8.758034	-3.971797	1.570322	0.013100	0.016270	0.009937	-67.650130	-64.219310	40.005827
60297	8.766780	-4.007550	1.593533	0.013057	0.007379	0.009598	-67.642033	-64.212454	40.004546
60298	8.757413	-3.970867	1.548853	0.010749	0.011469	0.006122	-67.626523	-64.207030	39.994220
60299	8.756252	-3.975223	1.598851	0.012337	0.008995	0.002531	-67.613873	-64.203564	39.987428
60300	8.756434	-3.973257	1.575540	0.009941	0.003966	0.004036	-67.606114	-64.200881	39.985197
60301	8.756239	-3.973369	1.576345	0.011269	0.004818	0.002337	-67.598560	-64.198429	39.983399
60302	8.756476	-3.971389	1.552805	0.012812	0.002117	0.004063	-67.591197	-64.196135	39.983435
60303	8.765959	-4.004655	1.550899	0.012018	0.003354	0.005857	-67.586398	-64.192139	39.985163
60304	8.767289	-3.952597	1.580563	0.013591	0.000804	0.004039	-67.580017	-64.190145	39.986785
60305	8.766648	-3.954932	1.605419	0.005207	0.002878	0.005609	-67.579524	-64.186386	39.988953
60306	8.733725	-3.962817	1.580144	0.008093	0.001102	0.003864	-67.575887	-64.184419	39.990124
60307	8.776380	-3.986497	1.579219	0.007544	-0.001061	0.005541	-67.578322	-64.181558	39.997056
60308	8.745052	-3.942224	1.582400	0.005146	-0.006088	0.007049	-67.585683	-64.179475	40.008568
60309	8.776054	-3.987409	1.578730	0.004627	-0.008102	0.005181	-67.597320	-64.178343	40.023848
60310	8.742905	-3.997363	1.576645	0.000702	-0.010354	0.003190	-67.610153	-64.179234	40.038612
60311	8.755129	-3.974163	1.553304	0.000961	-0.013681	0.001300	-67.628242	-64.181372	40.058757
60312	8.776659	-3.986062	1.551539	-0.001925	-0.011905	0.003044	-67.644216	-64.182674	40.075338
60313	8.765391	-4.005562	1.524447	-0.001084	-0.004252	0.001581	-67.653270	-64.182605	40.084139
60314	8.787978	-3.967227	1.576648	0.001772	-0.006177	0.003380	-67.661005	-64.182479	40.093919
60315	8.766470	-3.955963	1.576679	-0.000885	-0.007877	0.006778	-67.676250	-64.180446	40.109689
60316	8.776078	-3.989539	1.573208	-0.003497	-0.009353	0.004861	-67.691147	-64.180224	40.124073
60317	8.764730	-4.009192	1.546112	0.000458	-0.006952	0.003306	-67.703038	-64.179828	40.136998
60318	8.744460	-3.947607	1.599469	-0.000335	-0.005714	0.005101	-67.712245	-64.178686	40.147073
60319	8.754547	-3.978950	1.571656	-0.001147	-0.013217	0.003019	-67.731771	-64.179801	40.167443
60320	8.754992	-3.977268	1.546108	-0.003253	-0.012754	0.004741	-67.750202	-64.180374	40.185908
60321	8.809500	-3.979969	1.545474	-0.001725	-0.015530	0.008237	-67.774936	-64.179217	40.211805
60322	8.786392	-4.021111	1.516055	-0.005040	-0.006652	0.003134	-67.786982	-64.179315	40.222040
60323	8.785984	-4.023494	1.539629	-0.000856	-0.007728	0.003232	-67.800417	-64.179122	40.235731
60324	8.798549	-3.998034	1.492640	0.002120	-0.000388	-0.003495	-67.798528	-64.181380	40.235043
60325	8.754982	-3.978538	1.542895	0.004476	0.004414	0.000313	-67.794285	-64.180102	40.232698
60326	8.766631	-3.957180	1.545390	0.003162	0.003639	0.000241	-67.789056	-64.179506	40.228961
60327	8.809014	-3.982565	1.568953	0.001620	0.006340	-0.001484	-67.783529	-64.178769	40.223305
60328	8.787505	-3.970833	1.570189	0.004462	0.004339	0.002084	-67.777613	-64.177042	40.219633
60329	8.787684	-3.968977	1.546565	0.004204	0.007666	0.003975	-67.771581	-64.173124	40.215020
60330	8.753874	-3.980904	1.570459	0.007610	0.007903	0.004096	-67.760859	-64.169557	40.208013
60331	8.732185	-3.969381	1.572161	0.003976	0.011142	0.002321	-67.750416	-64.165763	40.198448
60332	8.763458	-4.012361	1.545105	0.002827	-0.002075	0.005341	-67.753925	-64.163700	40.204206
60333	8.763309	-4.012630	1.545248	0.003926	0.002251	0.001988	-67.753100	-64.162011	40.205337
60334	8.774900	-3.991514	1.547467	0.001285	0.000626	0.003615	-67.753760	-64.160277	40.206949
60335	8.775138	-3.989756	1.523309	0.002598	0.001401	0.003688	-67.755371	-64.157875	40.209746
60336	8.774561	-3.992003	1.548128	0.004997	0.006427	0.002179	-67.746909	-64.155644	40.203586
60337	8.785623	-3.972991	1.575257	0.006282	0.007053	0.005794	-67.741149	-64.150896	40.200611
60338	8.729940	-3.975364	1.624007	0.007060	0.005740	0.005771	-67.733869	-64.146910	40.197078
60339	8.742492	-3.948554	1.553566	0.003853	0.001879	0.010845	-67.737439	-64.140610	40.202985
60340	8.761121	-4.017318	1.572808	0.004917	-0.002613	0.005390	-67.740356	-64.138638	40.209418
60341	8.784708	-3.973207	1.552598	0.003868	0.001954	0.009073	-67.743019	-64.133262	40.214268
60342	8.772198	-3.997286	1.575181	0.005424	-0.000673	0.009027	-67.745150	-64.128940	40.220150
60343	8.793550	-4.007838	1.550585	0.006466	0.003355	0.012759	-67.746426	-64.121306	40.225140
60344	8.761590	-3.965986	1.578623	0.003090	0.003267	0.009095	-67.745613	-64.116093	40.226265
60345	8.782476	-3.978608	1.578624	0.006224	0.006756	0.012876	-67.743353	-64.107660	40.227213
60346	8.749627	-3.985000	1.529299	0.004404	0.004042	0.009166	-67.740974	-64.102242	40.227434
60347	8.769741	-4.001538	1.578065	0.005477	0.008218	0.009355	-67.735960	-64.095361	40.224790
60348	8.748259	-3.988472	1.555332	0.009660	0.007139	0.009453	-67.727318	-64.089118	40.221397
60349	8.747775	-3.989170	1.556264	0.006254	0.006905	0.009331	-67.723285	-64.082536	40.220308
60350	8.758683	-3.970531	1.583322	0.005732	0.004890	0.007465	-67.718464	-64.077835	40.218659
60351	8.746494	-3.992564	1.581934	0.004388	0.003969	0.010935	-67.719417	-64.071043	40.221958
60352	8.757692	-3.972293	1.584384	0.005135	0.002508	0.014454	-67.720658	-64.063155	40.226670
60353	8.723649	-3.984823	1.607574	0.004107	-0.001447	0.008953	-67.726770	-64.058591	40.235501
60354	8.756726	-3.974423	1.584383	0.003718	-0.007378	0.019367	-67.741782	-64.050242	40.254625
60355	8.744371	-3.997142	1.582109	0.002747	-0.002442	0.014193	-67.752071	-64.043118	40.267136
60356	8.700634	-3.976936	1.607414	0.010007	-0.008926	0.017743	-67.764423	-64.035963	40.287311
60357	8.745340	-3.945712	1.585860	0.008109	-0.012007	0.022888	-67.785913	-64.026295	40.315872
60358	8.763862	-4.013784	1.579623	0.007257	-0.019657	0.024352	-67.814436	-64.017951	40.352287
60359	8.773534	-4.044863	1.527290	0.006004	-0.011539	0.024604	-67.837306	-64.007261	40.380938
60360	8.729562	-4.025289	1.552311	0.009186	-0.007832	0.023067	-67.851246	-63.997031	40.402363
60361	8.762376	-4.015585	1.528889	0.006571	-0.009305	0.021153	-67.869808	-63.987679	40.426773
60362	8.771317	-4.050186	1.525920	0.006378	-0.005684	0.015958	-67.879850	-63.980754	40.442075
60363	8.782106	-4.032199	1.552285	0.010086	0.000037	0.016286	-67.884052	-63.971966	40.452775
60364	8.760182	-4.021471	1.553286	0.005948	0.001339	0.010879	-67.884454	-63.966221	40.457075
60365	8.737918	-4.012536	1.578792	0.007027	0.005514	0.011065	-67.882143	-63.959028	40.458360
60366	8.737867	-4.011299	1.555045	0.008053	0.000870	0.009157	-67.881087	-63.954298	40.462380
60367	8.737507	-4.011918	1.555472	0.005202	0.002800	0.007361	-67.881142	-63.949648	40.465714
60368	8.736807	-4.014394	1.580215	0.005992	0.001557	0.005569	-67.878935	-63.946675	40.467140
60369	8.736575	-4.014842	1.580361	0.007764	-0.004547	0.007179	-67.885384	-63.943714	40.478719
60370	8.746288	-4.046406	1.553587	0.001811	0.002642	0.005472	-67.884352	-63.940558	40.478785
60371	8.757922	-4.025461	1.555687	0.007018	-0.003087	0.003662	-67.888111	-63.939153	40.486897
60372	8.723829	-4.039155	1.602992	0.002837	-0.002002	0.003565	-67.890691	-63.938011	40.491638
60373	8.790874	-4.016496	1.556990	0.004152	-0.001230	0.003635	-67.894061	-63.936220	40.497408
60374	8.736147	-4.014490	1.556473	0.003902	0.002100	0.005519	-67.892439	-63.933156	40.498151
60375	8.779064	-4.036445	1.531244	0.006782	0.000315	0.003776	-67.892662	-63.930953	40.502323
60376	8.735726	-4.015143	1.557154	0.003126	0.003415	0.005541	-67.890067	-63.927593	40.501489
60377	8.768225	-4.008092	1.583254	0.005217	0.002872	0.005589	-67.889231	-63.923880	40.503580
60378	8.756115	-4.029808	1.581786	0.000261	0.005273	0.005515	-67.886252	-63.920133	40.500490
60379	8.777581	-4.040087	1.557360	0.004442	0.004187	0.005611	-67.884428	-63.916130	40.500714
60380	8.755973	-4.028637	1.558435	0.001051	0.004030	0.003723	-67.881556	-63.913603	40.498247
60381	8.755413	-4.030848	1.583019	0.001300	0.000700	0.001840	-67.883612	-63.912348	40.500896
60382	8.756147	-4.026954	1.534663	0.000305	0.005489	0.000206	-67.878036	-63.911373	40.494943
60383	8.756471	-4.024969	1.510845	0.002396	0.004946	0.000254	-67.874188	-63.910053	40.491569
60384	8.733731	-4.019182	1.585044	0.000831	0.007505	0.002067	-67.866948	-63.907654	40.484098
60385	8.767140	-4.007891	1.562718	0.003696	0.005646	0.002094	-67.862384	-63.905206	40.480612
60386	8.776538	-4.041036	1.560771	0.002396	0.004946	0.000254	-67.856223	-63.904321	40.475340
60387	8.733742	-4.017383	1.562492	0.002396	0.004946	0.000254	-67.852367	-63.903010	40.471618
60388	8.743140	-4.050528	1.560547	0.003696	0.005646	0.002094	-67.845514	-63.900998	40.466405
60389	8.754407	-4.031286	1.587460	0.003711	0.005718	0.000324	-67.840068	-63.899470	40.462182
60390	8.733792	-4.015490	1.540023	0.001621	0.006262	0.000275	-67.832938	-63.898289	40.455337
60391	8.754191	-4.031346	1.588498	0.000525	0.002015	0.001861	-67.834009	-63.896762	40.455708
60392	8.732782	-4.019526	1.589393	0.001096	0.004246	-0.001586	-67.828542	-63.897004	40.450378
60393	8.765926	-4.010075	1.590947	-0.000015	-0.000072	0.001769	-67.832127	-63.895956	40.454238
60394	8.754035	-4.031429	1.589150	-0.000235	0.003402	0.000113	-67.829086	-63.895479	40.450762
60395	8.767090	-4.004206	1.518423	0.003946	0.002316	0.000211	-67.827175	-63.894745	40.451357
60396	8.753853	-4.031547	1.589853	0.001050	0.004031	0.003722	-67.824310	-63.892217	40.448896
60397	8.744563	-3.996773	1.568357	0.002600	0.001400	0.003679	-67.825665	-63.889861	40.451133
60398	8.732088	-4.020399	1.590997	-0.000281	0.003187	0.005420	-67.825226	-63.886614	40.450524
60399	8.753636	-4.030645	1.566353	-0.000266	0.003259	0.003651	-67.826164	-63.883866	40.450659
60400	8.774405	-4.044685	1.590336	0.000525	0.002015	0.001861	-67.824961	-63.882761	40.449714
60401	8.732022	-4.019229	1.567351	-0.001566	0.002559	0.001811	-67.826580	-63.881127	40.450502
60402	8.786924	-4.019715	1.543936	0.001315	0.000772	0.000070	-67.825480	-63.881241	40.450176
60403	8.731036	-4.023283	1.616439	-0.001784	0.006033	0.000155	-67.822712	-63.879759	40.444545
60404	8.720071	-4.040425	1.566273	0.006068	0.001916	-0.003278	-67.816174	-63.881402	40.441196
60405	8.743851	-3.997543	1.570364	0.000031	0.000143	-0.003538	-67.817136	-63.883143	40.441749
60406	8.774797	-4.042302	1.567272	-0.000000	0.000000	0.000000	-67.817594	-63.883461	40.442319
60407	8.731693	-4.020556	1.592765	0.000016	0.000072	-0.001769	-67.819368	-63.884276	40.443725
60408	8.764915	-4.010961	1.594275	-0.000219	0.003474	-0.001657	-67.815461	-63.884721	40.439294
60409	8.753020	-4.032236	1.592685	0.001065	0.004103	0.001952	-67.813939	-63.882694	40.437792
60410	8.765623	-4.007162	1.546120	0.000759	-0.001387	0.001748	-67.816234	-63.882385	40.440893
60411	8.753214	-4.030654	1.568686	-0.001816	0.005889	0.003693	-67.815223	-63.879056	40.437911
60412	8.764887	-4.009561	1.571052	0.001081	0.004174	0.000183	-67.810626	-63.878373	40.433541
60413	8.731220	-4.020989	1.594265	-0.000775	0.001315	0.000021	-67.812328	-63.877978	40.434532
60414	8.731608	-4.019033	1.570162	-0.001009	0.004718	0.000133	-67.808319	-63.877204	40.429484
60415	8.743438	-3.997630	1.572441	-0.000203	0.003546	-0.003426	-67.805722	-63.878143	40.426555
60416	8.731245	-4.020650	1.594983	0.000016	0.000072	-0.001769	-67.805313	-63.879384	40.426169
60417	8.753156	-4.030200	1.570176	-0.001502	0.002846	-0.005266	-67.803430	-63.881476	40.422032
60418	8.731486	-4.020081	1.595099	-0.003390	-0.000157	-0.001889	-67.805166	-63.882830	40.421863
60419	8.765712	-4.006331	1.547772	-0.002802	0.002146	-0.007106	-67.803922	-63.886042	40.417912
60420	8.741789	-4.050491	1.568194	-0.001299	-0.000700	-0.001840	-67.805071	-63.887487	40.418422
60421	8.765513	-4.007816	1.572011	-0.002074	0.000615	-0.001819	-67.807380	-63.888220	40.419186
60422	8.720658	-4.038272	1.568553	-0.004673	-0.000785	-0.005499	-67.808938	-63.891625	40.418000
60423	8.787235	-4.018942	1.571157	-0.002043	0.000759	-0.005358	-67.809533	-63.894200	40.417267
60424	8.711516	-4.004427	1.570841	-0.005464	0.000458	-0.003709	-67.810989	-63.896386	40.415462
60425	8.788038	-4.016281	1.546530	-0.002583	-0.001328	-0.005449	-67.814100	-63.899463	40.417246
60426	8.690153	-3.993757	1.595476	-0.002802	0.002146	-0.007106	-67.810702	-63.903086	40.411734
60427	8.732722	-4.018950	1.618107	-0.006074	-0.010522	-0.004118	-67.826451	-63.907467	40.424884
60428	8.734401	-4.012574	1.544168	-0.004962	-0.006203	-0.007474	-67.833175	-63.913091	40.429265
60429	8.755304	-4.027783	1.591400	-0.005502	-0.008290	-0.007566	-67.844545	-63.918801	40.438058
60430	8.777580	-4.036942	1.565500	-0.004711	-0.009533	-0.009357	-67.853910	-63.926143	40.445540
60431	8.744490	-4.047585	1.587690	-0.004391	-0.003971	-0.010922	-67.858542	-63.932706	40.447752
60432	8.790358	-4.014018	1.566265	-0.001777	-0.002498	-0.009011	-67.858753	-63.938346	40.446914
60433	8.747688	-3.991544	1.591257	0.000026	-0.008458	-0.010937	-67.865676	-63.945887	40.454080
60434	8.736774	-4.009896	1.564774	-0.000143	0.003836	-0.010505	-67.857414	-63.950951	40.444853
60435	8.758504	-4.020933	1.564098	-0.002331	-0.004658	-0.007334	-67.863119	-63.955748	40.449771
60436	8.748956	-3.989016	1.590621	-0.002522	-0.001039	-0.012530	-67.860616	-63.962940	40.445438
60437	8.759403	-4.019262	1.563362	-0.001555	-0.005973	-0.007356	-67.867311	-63.968039	40.451871
60438	8.717116	-3.994934	1.563934	-0.005706	-0.004745	-0.010995	-67.871338	-63.975216	40.452775
60439	8.772550	-3.994417	1.539798	-0.002316	-0.004586	-0.009105	-67.876206	-63.980952	40.456342
60440	8.727618	-4.026451	1.560208	-0.004946	-0.006132	-0.009247	-67.882081	-63.987501	40.459787
60441	8.772983	-3.995000	1.562935	-0.003107	-0.003344	-0.007314	-67.886798	-63.992023	40.462066
60442	8.773011	-3.996227	1.586727	-0.000748	-0.007142	-0.010920	-67.890633	-63.999677	40.465915
60443	8.762161	-4.014616	1.559839	-0.006483	-0.003431	-0.010975	-67.895785	-64.006152	40.467508
60444	8.731187	-3.971140	1.586652	-0.007067	-0.005736	-0.005758	-67.903996	-64.010762	40.472199
60445	8.741164	-4.003642	1.583398	-0.003631	-0.005358	-0.009179	-67.910344	-64.016687	40.477146
60446	8.775162	-3.991462	1.559738	-0.004960	-0.006204	-0.007480	-67.917102	-64.022312	40.481562
60447	8.742421	-4.000333	1.557697	-0.005722	-0.004817	-0.009228	-67.924113	-64.028175	40.484998
60448	8.776025	-3.990092	1.558390	-0.005722	-0.004817	-0.009229	-67.929027	-64.034429	40.486877
60449	8.743258	-3.999052	1.556288	-0.006290	-0.007051	-0.005781	-67.940271	-64.038947	40.494118
60450	8.776821	-3.989032	1.556619	-0.006036	-0.010380	-0.007668	-67.952127	-64.045568	40.503519
60451	8.765947	-4.007677	1.529170	-0.008113	-0.009766	-0.009487	-67.965689	-64.052627	40.512467
60452	8.765678	-4.010936	1.576774	-0.010428	-0.005751	-0.011191	-67.973463	-64.060123	40.514527
60453	8.800179	-3.996525	1.528567	-0.006246	-0.006831	-0.011095	-67.982144	-64.067411	40.519630
60454	8.745777	-3.995449	1.551379	-0.007023	-0.005517	-0.011073	-67.987770	-64.074794	40.521470
60455	8.767685	-4.006339	1.550049	-0.005709	-0.004743	-0.011002	-67.993868	-64.081585	40.523834
60456	8.789617	-4.017210	1.548631	-0.005469	-0.008145	-0.011120	-68.001460	-64.089557	40.528851
60457	8.780491	-3.983297	1.550599	-0.008817	0.000512	-0.010912	-68.003652	-64.095174	40.524927
60458	8.747389	-3.994109	1.573058	-0.007037	-0.005591	-0.009304	-68.010154	-64.101634	40.527733
60459	8.770071	-4.000964	1.523091	-0.008563	-0.002816	-0.012801	-68.014994	-64.108950	40.527953
60460	8.813375	-4.023518	1.521306	-0.005172	-0.002655	-0.010911	-68.016507	-64.115632	40.526402
60461	8.761041	-3.968000	1.549342	-0.007716	0.004835	-0.014267	-68.011864	-64.122076	40.517558
60462	8.761607	-3.966820	1.549164	-0.002274	-0.004361	-0.014429	-68.012028	-64.130994	40.516352
60463	8.728703	-3.977239	1.571636	-0.008549	-0.002743	-0.014575	-68.015952	-64.139247	40.514920
60464	8.774168	-3.945292	1.574392	-0.009341	-0.001503	-0.012781	-68.017762	-64.146677	40.511044
60465	8.772748	-3.998571	1.568840	-0.007824	-0.012947	-0.014931	-68.032323	-64.157307	40.522245
60466	8.785616	-3.974066	1.545245	-0.011713	-0.006380	-0.014815	-68.039947	-64.166863	40.523319
60467	8.741529	-4.003639	1.540916	-0.013764	-0.005619	-0.020179	-68.047516	-64.178734	40.521485
60468	8.799236	-3.948163	1.520838	-0.009649	-0.007067	-0.011227	-68.056306	-64.186529	40.525169
60469	8.754492	-3.980279	1.541188	-0.005951	-0.001341	-0.010893	-68.058914	-64.192531	40.524870
60470	8.723519	-3.936720	1.568179	-0.008335	-0.006292	-0.011156	-68.066136	-64.200123	40.527647
60471	8.776557	-3.992421	1.563190	-0.010198	-0.009230	-0.009553	-68.080267	-64.207096	40.536393
60472	8.767766	-3.956656	1.540286	-0.010198	-0.009230	-0.009554	-68.092506	-64.214464	40.543555
60473	8.777971	-3.989002	1.536491	-0.008885	-0.008454	-0.009483	-68.105047	-64.221228	40.551438
60474	8.799777	-4.000175	1.534969	-0.008620	-0.003114	-0.005723	-68.111352	-64.225252	40.553015
60475	8.778293	-3.990143	1.559257	-0.007063	-0.005740	-0.005772	-68.121628	-64.229486	40.559284
60476	8.791133	-3.964052	1.512038	-0.003861	-0.001877	-0.010847	-68.121580	-64.235969	40.556834
60477	8.758074	-3.974936	1.534607	-0.006501	-0.003502	-0.009220	-68.127612	-64.241532	40.560984
60478	8.770155	-3.952977	1.536125	-0.005979	-0.001489	-0.007352	-68.129897	-64.246074	40.559778
60479	8.791881	-3.964193	1.534938	-0.005749	-0.004965	-0.005701	-68.138652	-64.250106	40.565769
60480	8.759437	-3.971291	1.508666	-0.008606	-0.003040	-0.007497	-68.144090	-64.255057	40.566392
60481	8.771093	-3.951622	1.534253	-0.004204	-0.007666	-0.003979	-68.155701	-64.258734	40.577509
60482	8.783028	-3.930105	1.535422	-0.007088	-0.005891	-0.002230	-68.165747	-64.261491	40.584213
60483	8.780874	-3.986430	1.554210	-0.005531	-0.008517	-0.002280	-68.179616	-64.264427	40.596572
60484	8.793610	-3.960614	1.506635	-0.006271	-0.006978	-0.007572	-68.188038	-64.270255	40.601992
60485	8.772475	-3.948572	1.506567	-0.003683	-0.005653	-0.002111	-68.197934	-64.272480	40.613113
60486	8.793807	-3.962058	1.529408	-0.005505	-0.008366	-0.005825	-68.208226	-64.277674	40.621096
60487	8.772358	-3.952093	1.553462	-0.005518	-0.008442	-0.004053	-68.221325	-64.281584	40.630738
60488	8.782713	-3.982825	1.525370	-0.003193	-0.012455	-0.002357	-68.236349	-64.285800	40.645442
60489	8.804410	-3.994319	1.523609	-0.008389	-0.006592	-0.004076	-68.249077	-64.289304	40.654954
60490	8.816387	-3.972748	1.524641	-0.007610	-0.007904	-0.004101	-68.260839	-64.293480	40.663231
60491	8.783563	-3.981981	1.522683	-0.003890	-0.002025	-0.007306	-68.264482	-64.297729	40.665126
60492	8.795234	-3.962195	1.548593	-0.000252	-0.005263	-0.005538	-68.268479	-64.302108	40.669462
60493	8.784133	-3.981071	1.521769	-0.004449	-0.004265	-0.003859	-68.276405	-64.305006	40.674840
60494	8.784766	-3.978533	1.496937	-0.000240	-0.005187	-0.007311	-68.279533	-64.310311	40.678219
60495	8.775433	-3.944826	1.499133	-0.004412	-0.004037	-0.009177	-68.284834	-64.315996	40.680763
60496	8.784911	-3.981344	1.544407	-0.004179	-0.007514	-0.007528	-68.292703	-64.321910	40.686899
60497	8.785958	-3.976576	1.495140	-0.003112	-0.003337	-0.007332	-68.297355	-64.326452	40.691146
60498	8.754508	-3.935389	1.546718	-0.004413	-0.004037	-0.009178	-68.300785	-64.332508	40.692206
60499	8.786716	-3.975399	1.493818	-0.006050	-0.010531	-0.004155	-68.316465	-64.336868	40.707142
60500	8.798436	-3.955661	1.519308	-0.007285	-0.002188	-0.009199	-68.319486	-64.342543	40.705924
60501	8.810794	-3.931665	1.496466	-0.004437	-0.004189	-0.005633	-68.326463	-64.346351	40.711418
60502	8.777597	-3.943077	1.518963	-0.004449	-0.004265	-0.003861	-68.332515	-64.349624	40.715365
60503	8.787568	-3.975824	1.515643	-0.005762	-0.005041	-0.003934	-68.342134	-64.352746	40.721961
60504	8.799849	-3.952037	1.492665	-0.003657	-0.005501	-0.005660	-68.348315	-64.357237	40.726553
60505	8.799758	-3.953781	1.516542	-0.004695	-0.000864	-0.003737	-68.352696	-64.359341	40.729903
60506	8.799930	-3.953516	1.516238	-0.003915	-0.002176	-0.003763	-68.356173	-64.362119	40.731333
60507	8.799751	-3.955434	1.540192	-0.006020	-0.001717	-0.002037	-68.363037	-64.363515	40.735521
60508	8.778731	-3.941570	1.516323	-0.003394	-0.000164	-0.001892	-68.364808	-64.364871	40.735389
60509	8.800521	-3.951105	1.491170	-0.004185	0.001072	-0.000093	-68.368260	-64.364674	40.734252
60510	8.788538	-3.974526	1.513425	-0.004174	0.001148	-0.001865	-68.369032	-64.365739	40.732517
60511	8.800260	-3.953159	1.515254	-0.004719	-0.001017	-0.000192	-68.375103	-64.366015	40.735226
60512	8.800396	-3.952972	1.514946	-0.003904	-0.002100	-0.005536	-68.377711	-64.369721	40.735699
60513	8.779062	-3.941123	1.515568	-0.003652	0.003160	0.000006	-68.378723	-64.369018	40.734483
60514	8.778939	-3.941405	1.515546	-0.003441	-0.000470	0.005199	-68.383981	-64.366662	40.738189
60515	8.800224	-3.953436	1.514736	-0.004977	0.002308	0.001706	-68.387311	-64.365244	40.737109
60516	8.788467	-3.974998	1.512593	-0.004730	-0.001093	0.001580	-68.392407	-64.364947	40.739815
60517	8.788062	-3.977317	1.536835	-0.003664	0.003084	0.001779	-68.394113	-64.363300	40.738927
60518	8.788276	-3.975505	1.512371	-0.006055	-0.001946	0.003280	-68.401662	-64.362277	40.743512
60519	8.799857	-3.954388	1.514383	-0.003898	0.006562	0.000132	-68.398978	-64.360767	40.738893
60520	8.809791	-3.985413	1.487827	-0.000504	0.006725	0.002024	-68.393169	-64.358584	40.732190
60521	8.778165	-3.942971	1.515958	-0.003652	0.003161	0.000006	-68.394102	-64.357884	40.730789
60522	8.766408	-3.964362	1.514242	-0.001806	0.006026	0.000178	-68.389005	-64.356831	40.724048
60523	8.756281	-3.933431	1.541656	-0.002327	0.004014	-0.001694	-68.387408	-64.356850	40.720352
60524	8.799137	-3.956819	1.540139	-0.006044	-0.001870	0.001506	-68.394084	-64.356756	40.723977
60525	8.778021	-3.943173	1.516263	-0.003406	-0.000240	-0.000120	-68.398456	-64.356841	40.725399
60526	8.788058	-3.974184	1.489147	-0.002884	0.001771	0.001752	-68.399390	-64.355848	40.724662
60527	8.778236	-3.941302	1.491974	-0.003652	0.003161	0.000006	-68.400249	-64.355133	40.723819
60528	8.799581	-3.953095	1.491440	-0.002351	0.003860	0.001852	-68.398603	-64.353646	40.720560
60529	8.778058	-3.941555	1.492354	-0.003652	0.003161	0.000005	-68.399421	-64.352934	40.719161
60530	8.787054	-3.978834	1.538668	0.000821	0.007578	0.000325	-68.391163	-64.351475	40.710582
60531	8.777227	-3.945764	1.542008	0.000299	0.005567	-0.001547	-68.386434	-64.351111	40.704410
60532	8.777461	-3.943746	1.518015	-0.001584	0.002471	0.003598	-68.386659	-64.348987	40.703713
60533	8.787072	-3.977023	1.515373	-0.002884	0.001771	0.001751	-68.389436	-64.347633	40.706681
60534	8.808370	-3.988868	1.514978	0.001588	0.006189	0.002072	-68.383049	-64.345537	40.700665
60535	8.777061	-3.944286	1.518927	-0.001026	0.004713	0.000152	-68.380759	-64.344466	40.695595
60536	8.776924	-3.944386	1.519458	0.000808	0.007501	0.002097	-68.373376	-64.342079	40.687979
60537	8.798255	-3.956154	1.519070	-0.002093	0.000536	-0.000048	-68.376141	-64.341953	40.689756
60538	8.798310	-3.955941	1.519311	0.000325	0.005721	-0.005092	-68.367849	-64.343771	40.680824
60539	8.786926	-3.975191	1.493136	-0.003443	-0.000471	0.005196	-68.374928	-64.341080	40.686565
60540	8.764981	-3.966052	1.518074	-0.000025	-0.000154	0.003545	-68.377148	-64.339538	40.689073
60541	8.776550	-3.944966	1.520112	-0.002885	0.001772	0.001751	-68.379751	-64.338192	40.690189
60542	8.798154	-3.954862	1.495172	-0.001597	0.002393	0.005370	-68.380847	-64.335140	40.690451
60543	8.818665	-3.971194	1.543351	-0.001051	0.004559	0.003697	-68.380302	-64.332215	40.687632
60544	8.764651	-3.965203	1.494331	-0.000792	0.001235	0.001798	-68.380652	-64.331310	40.687579
60545	8.785290	-3.981294	1.542375	-0.001572	0.002548	0.001824	-68.381764	-64.329803	40.686281
60546	8.775809	-3.946262	1.521022	-0.000246	0.003401	0.000126	-68.378667	-64.329332	40.682749
60547	8.797186	-3.957858	1.520825	0.002927	0.007119	-0.001400	-68.370669	-64.328566	40.674624
60548	8.785757	-3.977077	1.494989	-0.000259	0.003324	0.001898	-68.368443	-64.327167	40.672052
60549	8.785670	-3.977156	1.495292	0.001847	0.002865	0.000173	-68.366549	-64.326426	40.672931
60550	8.775558	-3.946190	1.522660	-0.000233	0.003478	-0.001647	-68.362581	-64.326882	40.668440
60551	8.797361	-3.955606	1.497869	-0.001546	0.002702	-0.001721	-68.361906	-64.327202	40.666941
60552	8.763947	-3.967168	1.521124	0.001872	0.003019	-0.003372	-68.356482	-64.328674	40.662174
60553	8.818629	-3.968852	1.521814	-0.000508	-0.001934	-0.003645	-68.359630	-64.331012	40.666005
60554	8.764590	-3.964361	1.496921	-0.002300	0.004169	-0.005240	-68.354500	-64.333235	40.658911
60555	8.785805	-3.977776	1.520738	0.001339	0.000930	-0.003471	-68.353389	-64.334904	40.656604
60556	8.754768	-3.932704	1.524362	0.000572	0.002320	-0.005218	-68.348670	-64.337506	40.651793
60557	8.797870	-3.955486	1.523035	0.000831	-0.001004	-0.007116	-68.348382	-64.341502	40.651470
60558	8.798084	-3.955025	1.522997	-0.002067	0.000690	-0.003593	-68.347696	-64.343583	40.649455
60559	8.776852	-3.942906	1.523707	0.000051	0.000309	-0.007091	-68.346431	-64.347286	40.648128
60560	8.854609	-3.947343	1.426145	0.001870	-0.005640	-0.009040	-68.348111	-64.353606	40.651240
60561	8.699768	-3.936722	1.621845	0.002199	0.026059	0.002870	-68.321357	-64.346552	40.622704
60562	8.842249	-3.972281	1.474362	0.006017	-0.015602	-0.009293	-68.331592	-64.355115	40.637943
60563	8.709916	-3.968793	1.619315	-0.012231	0.008936	-0.005384	-68.328525	-64.356098	40.626192
60564	8.868076	-3.874141	1.482732	0.003951	-0.006252	-0.007219	-68.330491	-64.361579	40.630945
60565	8.764457	-4.015587	1.517891	-0.001768	0.006257	-0.005142	-68.324472	-64.362964	40.624737
60566	8.800069	-3.948971	1.499468	-0.001312	-0.009436	-0.005742	-68.333638	-64.368331	40.634131
60567	8.790239	-3.917620	1.526034	-0.001274	-0.000545	-0.005393	-68.334904	-64.371308	40.635973
60568	8.778831	-3.938443	1.523848	-0.002574	-0.001244	-0.007240	-68.335045	-64.375740	40.634554
60569	8.766944	-3.961616	1.546131	0.000533	0.002089	0.000100	-68.334611	-64.375243	40.634162
60570	8.788849	-3.971010	1.520830	-0.004978	-0.006353	-0.003967	-68.343245	-64.379012	40.640635
60571	8.833799	-3.939741	1.523772	0.000793	-0.001235	-0.001799	-68.345566	-64.380237	40.643318
60572	8.779735	-3.935430	1.498642	-0.001820	-0.002711	-0.003720	-68.348457	-64.383105	40.645428
60573	8.801074	-3.948798	1.521879	0.001846	-0.005793	-0.005496	-68.353597	-64.387238	40.653548
60574	8.768570	-3.955887	1.496030	0.000038	0.000232	-0.005319	-68.351450	-64.390335	40.651252
60575	8.822992	-3.959479	1.520941	0.000818	-0.001080	-0.005345	-68.352079	-64.393419	40.652522
60576	8.758848	-3.924058	1.523211	0.001883	0.003097	-0.005146	-68.345766	-64.395818	40.646779
60577	8.813633	-3.925443	1.523910	-0.000481	-0.001780	-0.007192	-68.347015	-64.400018	40.648260
60578	8.802274	-3.946086	1.521972	0.001908	0.003252	-0.008692	-68.338949	-64.404272	40.640588
60579	8.780982	-3.933963	1.523026	0.001857	0.002943	-0.001600	-68.335963	-64.404528	40.636483
60580	8.781063	-3.933708	1.523217	0.002118	-0.000380	-0.003498	-68.334105	-64.406785	40.635829
60581	8.803002	-3.942902	1.498223	0.000025	0.000154	-0.003546	-68.334409	-64.408661	40.634728
60582	8.780967	-3.935263	1.547537	0.000793	-0.001235	-0.001799	-68.335011	-64.410193	40.635960
60583	8.802879	-3.944541	1.522479	0.000025	0.000154	-0.003547	-68.335429	-64.412062	40.636356
60584	8.802972	-3.944313	1.522533	-0.000768	0.001389	-0.001748	-68.334031	-64.413012	40.634378
60585	8.791777	-3.963320	1.496134	-0.000507	-0.001935	-0.003646	-68.337014	-64.415382	40.636952
60586	8.802881	-3.945887	1.546775	0.001338	0.000932	-0.003473	-68.334155	-64.417347	40.634693
60587	8.781934	-3.931739	1.523284	-0.000742	0.001543	-0.005294	-68.332551	-64.419825	40.632884
60588	8.782032	-3.931441	1.523485	-0.000236	0.003478	-0.001648	-68.328567	-64.420280	40.628378
60589	8.803516	-3.942922	1.522990	0.001325	0.000854	-0.001699	-68.328299	-64.420987	40.631233
60590	8.792311	-3.961917	1.496711	0.000026	0.000154	-0.003547	-68.327023	-64.423156	40.629896
60591	8.803444	-3.944404	1.547357	0.000819	-0.001080	-0.005346	-68.327482	-64.426214	40.632915
60592	8.804002	-3.941891	1.522851	-0.001819	-0.002712	-0.003720	-68.330375	-64.429082	40.635028
60593	8.782835	-3.929704	1.523336	0.001625	-0.002237	-0.008919	-68.329953	-64.434314	40.634459
60594	8.816240	-3.919420	1.524335	-0.002350	-0.004801	-0.003820	-68.335433	-64.437677	40.639102
60595	8.783659	-3.926716	1.498504	0.001338	0.000932	-0.003473	-68.334145	-64.439325	40.639433
60596	8.793266	-3.961523	1.520039	-0.002599	-0.001400	-0.003695	-68.336038	-64.441902	40.639942
60597	8.783592	-3.928312	1.522566	-0.000519	-0.002012	-0.001873	-68.339686	-64.443308	40.644339
60598	8.817141	-3.916221	1.499580	0.000557	0.002244	-0.003447	-68.335823	-64.444982	40.640471
60599	8.805238	-3.939458	1.521999	0.002106	-0.000457	-0.001725	-68.336343	-64.446015	40.641113
60600	8.795064	-3.908576	1.549177	0.000519	0.002012	0.001873	-68.335112	-64.444905	40.640140
60601	8.761889	-3.918327	1.548245	-0.000486	0.006879	-0.001523	-68.329129	-64.444311	40.631661
60602	8.771987	-3.949280	1.521329	0.000224	-0.003555	0.003422	-68.334951	-64.443554	40.638319
60603	8.762005	-3.916756	1.523841	-0.001363	-0.001086	0.007020	-68.342301	-64.440091	40.645613
60604	8.826583	-3.949988	1.496967	-0.000839	-0.007733	0.003222	-68.353296	-64.440323	40.657328
60605	8.804723	-3.940799	1.521510	-0.002650	-0.001709	0.003399	-68.360226	-64.438866	40.664610
60606	8.816636	-3.917648	1.498821	-0.002401	-0.005110	0.003274	-68.369217	-64.438515	40.673112
60607	8.795085	-3.906348	1.499236	-0.002118	0.000380	0.003499	-68.373621	-64.436626	40.674587
60608	8.804096	-3.943914	1.544895	-0.001088	-0.004333	0.003347	-68.381026	-64.436071	40.682165
60609	8.804325	-3.942165	1.520268	0.001524	-0.002855	0.005268	-68.387858	-64.433870	40.693205
60610	8.826271	-3.949923	1.471079	0.002351	0.004801	0.003820	-68.383330	-64.431135	40.689740
60611	8.793426	-3.914132	1.572170	-0.004460	0.004315	0.003576	-68.384717	-64.428344	40.689004
60612	8.803996	-3.941174	1.496929	0.002870	0.006812	0.005693	-68.378481	-64.424186	40.683974
60613	8.781548	-3.934248	1.546827	0.001026	0.003946	0.005519	-68.377930	-64.420436	40.684040
60614	8.803401	-3.942187	1.497761	0.000481	0.001780	0.007193	-68.379325	-64.416541	40.685953
60615	8.781606	-3.931173	1.498849	0.001545	0.005958	0.007392	-68.377108	-64.411406	40.683000
60616	8.780796	-3.934085	1.523787	0.000739	0.007115	0.010964	-68.374084	-64.404376	40.680177
60617	8.791730	-3.915563	1.550455	-0.000039	-0.000232	0.005319	-68.378697	-64.401613	40.685492
60618	8.813208	-3.925810	1.525423	-0.002950	0.001384	0.010616	-68.384005	-64.395979	40.689564
60619	8.780040	-3.934420	1.499507	-0.000374	-0.006031	0.012186	-68.398242	-64.390773	40.705356
60620	8.779274	-3.937569	1.523556	-0.002950	0.001384	0.010615	-68.403543	-64.385139	40.709421
60621	8.822095	-3.959700	1.497762	0.000703	-0.001776	0.010612	-68.411885	-64.379914	40.718874
60622	8.778355	-3.939511	1.523832	0.004134	0.007279	0.012857	-68.407561	-64.371843	40.716767
60623	8.798926	-3.954200	1.548051	0.003094	0.003256	0.009112	-68.408168	-64.366333	40.719644
60624	8.777768	-3.939065	1.500609	0.001534	0.005880	0.009162	-68.405265	-64.360524	40.717460
60625	8.798264	-3.953928	1.524807	0.003575	0.005036	0.016301	-68.406930	-64.350852	40.720210
60626	8.764892	-3.962573	1.499879	0.001288	0.009281	0.009286	-68.400452	-64.344260	40.713904
60627	8.775296	-3.946408	1.551325	0.002821	0.006502	0.012780	-68.399316	-64.336124	40.714839
60628	8.807755	-3.937987	1.553218	0.000168	0.004796	0.016177	-68.401481	-64.326807	40.717408
60629	8.796435	-3.954375	1.478774	0.002794	0.006348	0.016324	-68.401993	-64.316848	40.717639
60630	8.794946	-3.959993	1.528202	0.005420	0.007900	0.016471	-68.397837	-64.306720	40.716535
60631	8.784363	-3.928507	1.531872	0.004614	0.009059	0.020039	-68.395939	-64.294177	40.717291
60632	8.793241	-3.963050	1.530091	0.005420	0.007900	0.016468	-68.391785	-64.284050	40.716189
60633	8.749557	-3.941213	1.532288	0.001988	0.007508	0.019888	-68.392984	-64.271947	40.716752
60634	8.791511	-3.966211	1.531838	0.005941	0.009911	0.018337	-68.387129	-64.260401	40.714093
60635	8.769623	-3.953949	1.509067	0.000687	0.006810	0.018040	-68.389060	-64.249409	40.716179
60636	8.811697	-3.978741	1.508476	0.005434	0.007976	0.014692	-68.384042	-64.240211	40.714126
60637	8.789121	-3.970529	1.534367	0.003314	0.008361	0.018186	-68.382903	-64.228790	40.716499
60638	8.755077	-3.981835	1.533824	0.004064	0.006894	0.021703	-68.382931	-64.216087	40.719177
60639	8.765544	-3.964338	1.560712	-0.001162	0.003948	0.017863	-68.388997	-64.205822	40.722810
60640	8.753504	-3.985048	1.534455	-0.002219	-0.000152	0.015893	-68.397847	-64.197700	40.731288
60641	8.730808	-3.978755	1.583558	-0.004804	-0.001471	0.010430	-68.408690	-64.192536	40.738020
60642	8.731042	-3.977327	1.558365	-0.008741	-0.012379	0.002778	-68.429022	-64.193977	40.755102
60643	8.743195	-3.954512	1.534338	-0.010391	-0.018873	0.007794	-68.461197	-64.193854	40.784018
60644	8.821831	-3.910851	1.488548	-0.006491	-0.016780	0.013329	-68.489680	-64.190589	40.811586
60645	8.830885	-3.945625	1.484844	-0.001506	-0.001852	0.024721	-68.505235	-64.177896	40.824784
60646	8.741029	-3.961767	1.555588	-0.004403	-0.000153	0.028237	-68.520643	-64.163186	40.839161
60647	8.794966	-3.964257	1.531267	-0.002890	-0.011593	0.026067	-68.548200	-64.151706	40.871295
60648	8.760907	-3.976259	1.528792	-0.007864	-0.009277	0.027762	-68.575388	-64.139155	40.896560
60649	8.769234	-4.013999	1.548967	-0.012345	-0.013686	0.027438	-68.611232	-64.127416	40.929140
60650	8.801952	-4.004774	1.524256	-0.011541	-0.014845	0.023868	-68.644922	-64.118092	40.959296
60651	8.791918	-3.972092	1.500717	-0.010566	-0.019792	0.029025	-68.687058	-64.106757	41.000069
60652	8.757823	-3.984380	1.497506	-0.018094	-0.010052	0.029153	-68.721445	-64.093596	41.026832
60653	8.853777	-4.015321	1.518760	-0.011446	-0.027601	0.033999	-68.774871	-64.081271	41.076662
60654	8.941531	-4.003220	1.421844	-0.014424	0.003940	0.044007	-68.798046	-64.057260	41.093304
60655	8.874436	-3.977226	1.472606	-0.004375	0.003622	0.067368	-68.826998	-64.020546	41.123791
60656	8.861307	-3.953373	1.500084	-0.005017	0.009416	0.090603	-68.858441	-63.970496	41.155638
60657	8.866311	-3.996328	1.497755	-0.012899	0.008569	0.129259	-68.912849	-63.899790	41.202157
60658	9.007853	-3.934797	1.336720	0.028245	0.024956	0.147168	-68.931741	-63.816278	41.241289
60659	8.881846	-3.872501	1.517560	0.013452	0.053135	0.200806	-68.952122	-63.698059	41.271166
60660	9.074236	-3.254974	1.849255	-0.012759	0.002526	0.333997	-69.095233	-63.519166	41.422826
60661	8.919588	-3.967163	1.516563	-0.055339	-0.003408	0.439729	-69.311153	-63.284522	41.623241
60662	9.072058	-3.670769	1.644215	-0.075432	-0.016844	0.531407	-69.583773	-63.003123	41.880436
60663	9.243405	-3.972428	1.572651	-0.095550	0.003163	0.625724	-69.878934	-62.666338	42.147614
60664	9.674621	-3.887490	1.643417	-0.101563	0.079250	0.708182	-70.121946	-62.269824	42.356097
60665	9.833644	-3.813449	2.137938	-0.089625	0.227628	0.816372	-70.242952	-61.785865	42.428153
60666	10.438620	-3.519963	2.401031	-0.230265	0.226121	0.941923	-70.484650	-61.234334	42.553102
60667	11.817438	-4.584500	2.285338	-0.392800	0.168773	1.261675	-70.975925	-60.520354	42.853602
60668	11.757871	-4.242069	1.340738	-0.363985	0.308002	1.536075	-71.387909	-59.630667	43.088380
60669	10.839012	-4.521669	1.580186	-0.448811	0.555462	1.766751	-71.679022	-58.570292	43.122248
60670	10.131864	-5.052297	1.634424	-0.446666	0.605101	1.953560	-71.966967	-57.398986	43.160067
60671	9.340905	-5.437880	1.472419	-0.420574	0.644002	2.073529	-72.230996	-56.155500	43.185646
60672	7.037031	-4.952333	1.447508	-0.368654	0.499172	2.060273	-72.565544	-54.944124	43.335247
60673	6.656198	-5.083620	1.105310	-0.411821	-0.131808	2.148061	-73.405926	-53.789638	44.078439
60674	9.471818	-4.165037	1.447062	-0.140768	-0.682667	2.038398	-74.424700	-52.776050	45.248755
60675	10.773858	-3.126051	0.566027	0.032968	-0.737387	1.843918	-75.292415	-51.866894	46.368463
60676	10.145330	-2.341093	1.733875	0.173084	-0.606051	1.770024	-75.931107	-50.971093	47.312383
60677	10.858554	-1.930194	1.319321	0.530213	-0.498167	1.550173	-76.225320	-50.178184	48.085989
60678	11.977195	-2.747348	1.242668	0.654648	-0.394018	1.158996	-76.297963	-49.587010	48.671530
60679	13.309921	-1.699829	0.823885	0.840218	-0.319339	0.474631	-76.101346	-49.367350	49.045573
60680	12.688978	-1.190492	0.606944	0.845852	-0.128707	-0.098862	-75.684344	-49.440536	49.134717
60681	10.991335	-0.964828	0.331305	0.864107	-0.007362	-0.535591	-75.104153	-49.739715	49.022251
60682	9.251750	-1.051801	0.012525	0.840517	0.021467	-0.732272	-74.477847	-50.141636	48.833235
60683	8.153697	-1.118267	-0.301942	0.803786	-0.030609	-0.805657	-73.886783	-50.592004	48.662961
60684	7.761845	-1.197141	-0.520018	0.743596	-0.151024	-0.829446	-73.398653	-51.072663	48.582960
60685	8.057343	-1.290677	-0.599931	0.656472	-0.306962	-0.867490	-73.054803	-51.600984	48.623421
60686	8.625307	-1.365691	-0.536098	0.550038	-0.416689	-0.936689	-72.830249	-52.184382	48.738625
60687	9.062713	-1.500820	-0.466078	0.436504	-0.464929	-1.025202	-72.686037	-52.826231	48.871094
60688	9.369526	-1.664624	-0.357936	0.318690	-0.460589	-1.109856	-72.586672	-53.512203	48.975146
60689	9.512938	-1.825456	-0.328745	0.199811	-0.440577	-1.197852	-72.521569	-54.244738	49.035191
60690	9.465751	-1.907955	-0.300303	0.078735	-0.410581	-1.274219	-72.483634	-55.012055	49.044058
60691	9.397957	-2.055639	-0.322974	-0.047218	-0.403959	-1.342810	-72.496569	-55.817725	49.025738
60692	9.375471	-2.230311	-0.300544	-0.168938	-0.428395	-1.402076	-72.583425	-56.657982	49.013844
60693	9.674096	-2.513784	-0.215518	-0.287983	-0.475897	-1.479467	-72.762186	-57.550875	49.028983
60694	9.946938	-2.753763	-0.092437	-0.388532	-0.523099	-1.576745	-73.018303	-58.502769	49.068534
60695	10.195018	-2.950829	0.094294	-0.469619	-0.548467	-1.695688	-73.321681	-59.526322	49.107239
