// General information: 
//  MT Manager version: 2022.2.0 
//  XDA version: 2022.2.0 build 7381 rev 124627 built on 2023-07-19
// Device information: 
//  DeviceId: 00B4BB52
//  ProductCode: MTW2-3A7G6
//  Firmware Version: 4.6.0
//  Hardware Version: 2.0.0
// Device settings: 
//  Filter Profile: human(46.1)
//  Option Flags: Orientation Smoother Disabled, Position/Velocity Smoother Disabled, Continuous Zero Rotation Update Disabled, AHS Disabled, ICC Disabled
// Coordinate system: ENU
PacketCounter	Acc_X	Acc_Y	Acc_Z	Gyr_X	Gyr_Y	Gyr_Z	Roll	Pitch	Yaw
02471	8.964791	3.878748	2.082358	-0.263917	-0.058018	-0.030346	52.065290	-70.970238	59.072362
02472	8.676932	4.178017	2.255200	-0.246126	-0.047584	-0.030371	52.021496	-70.972629	58.975265
02473	8.371702	4.525880	2.411866	-0.295662	-0.048916	-0.068289	51.991432	-70.957902	58.833635
02474	8.120880	4.586253	2.571920	-0.392192	-0.082810	-0.129778	52.011344	-70.927859	58.580579
02475	8.214580	4.595553	2.641070	-0.501549	-0.130038	-0.217506	52.120539	-70.874134	58.166675
02476	8.470262	4.289792	2.693899	-0.616256	-0.150986	-0.286606	52.257643	-70.796777	57.653476
02477	8.754004	4.043321	2.636694	-0.645771	-0.152785	-0.329672	52.422138	-70.699398	57.093069
02478	8.776594	3.834517	2.682118	-0.671294	-0.124598	-0.366395	52.566255	-70.575674	56.538392
02479	8.696886	3.708823	2.644681	-0.739319	-0.116586	-0.416337	52.707019	-70.425213	55.945434
02480	8.782459	3.482477	2.560798	-0.800395	-0.116109	-0.463899	52.850599	-70.253147	55.311755
02481	8.742602	3.193538	2.377349	-0.877664	-0.137065	-0.494048	53.000038	-70.073178	54.624047
02482	9.263040	3.026794	2.259405	-0.928707	-0.192036	-0.486299	53.173120	-69.915835	53.879356
02483	9.366600	2.832017	1.990362	-0.956026	-0.188704	-0.449439	53.286784	-69.772778	53.180527
02484	9.174475	2.897455	1.969037	-0.897408	-0.181766	-0.429409	53.399648	-69.636933	52.517778
02485	9.107475	3.186759	2.093304	-0.912323	-0.182004	-0.452553	53.521524	-69.489174	51.835636
02486	8.931479	3.045806	1.972100	-0.998896	-0.183603	-0.478668	53.611987	-69.330351	51.133426
02487	9.119508	2.973580	1.790404	-1.011590	-0.208628	-0.511225	53.749822	-69.163601	50.371977
02488	9.098660	2.862134	1.737930	-1.021629	-0.171266	-0.552986	53.864481	-68.965204	49.628308
02489	9.006550	2.604631	1.732198	-1.056099	-0.189052	-0.579171	53.996569	-68.759199	48.843720
02490	9.255742	2.112185	1.620005	-1.130061	-0.232395	-0.607703	54.151857	-68.554727	47.987682
02491	9.757521	1.647803	1.292170	-1.086632	-0.267081	-0.615171	54.370649	-68.356475	47.088892
02492	9.942707	1.373210	1.439271	-0.951288	-0.144796	-0.605261	54.503948	-68.121981	46.364351
02493	10.100453	1.178713	1.576090	-0.851177	-0.185191	-0.554806	54.692105	-67.922868	45.641368
02494	10.761996	1.188008	1.853968	-0.720299	-0.198708	-0.431037	54.861955	-67.786151	45.018288
02495	10.021380	1.756690	1.795453	-0.475150	-0.137911	-0.351539	55.035152	-67.665255	44.542774
02496	9.588810	2.412087	3.243791	-0.385756	0.098435	-0.333761	54.971951	-67.475626	44.377918
02497	8.438510	2.811828	2.888046	-0.521418	0.183571	-0.411491	54.797021	-67.220909	44.249602
02498	8.992280	3.438131	3.309868	-0.723964	0.009968	-0.453451	54.730331	-67.004776	43.877644
02499	7.856566	1.949808	2.171534	-0.971587	-0.026546	-0.482553	54.582551	-66.786655	43.438944
02500	7.377723	1.924603	1.510717	-0.881556	-0.058397	-0.591387	54.599713	-66.529239	42.876056
02501	8.701238	0.903903	1.428765	-1.261436	-0.773175	-0.449463	55.058660	-66.572530	41.593852
02502	9.861481	-0.580062	0.226589	-1.533296	-0.694235	-0.433179	55.265512	-66.595421	40.417001
02503	10.137121	-1.720014	-1.154158	-1.670423	-0.820035	-0.265210	55.409344	-66.736417	39.223896
02504	12.012599	-3.658832	-1.333895	-2.035738	-0.974127	-0.094808	55.394927	-67.008004	37.977158
02505	16.206598	-6.218603	-2.231379	-2.016828	-1.399810	0.247942	55.631548	-67.578310	36.473915
02506	13.904947	-7.794143	-7.760755	-1.036801	-0.712740	0.464536	55.498116	-68.028131	35.982309
02507	13.051337	1.427188	-3.816747	2.671073	1.130764	-0.014953	55.732064	-67.654806	37.388175
02508	5.662709	6.210710	9.112519	2.298995	2.118429	0.130536	54.565153	-67.021794	40.085974
02509	6.922459	7.661070	7.575645	-1.614360	-1.280787	0.114582	54.984673	-67.498346	38.634214
02510	10.761488	0.535885	-1.680731	-2.225692	-1.541431	0.206007	55.324257	-68.099258	36.895985
02511	11.307286	0.737844	-2.574903	0.582481	0.340846	0.296964	55.021552	-68.126962	37.587839
02512	8.220240	3.808352	4.109169	1.162083	0.803857	0.214512	54.582041	-67.961279	38.785470
02513	8.057764	4.411511	4.481091	-0.492527	-0.289559	0.108280	54.550393	-68.107645	38.521314
02514	9.678049	2.018279	0.508511	-0.674096	-0.399737	0.083989	54.564793	-68.279030	38.095663
02515	9.471128	2.226517	0.958861	0.312189	0.198431	0.128624	54.408503	-68.272582	38.462435
02516	8.323993	3.589254	3.604108	0.234909	0.156696	0.101736	54.278827	-68.266975	38.752772
02517	8.753210	3.124476	2.611473	-0.399243	-0.266325	0.040484	54.332304	-68.374447	38.455042
02518	9.415065	2.404506	1.175679	-0.166305	-0.135776	0.051104	54.357619	-68.442950	38.331186
02519	8.935869	2.937921	2.258702	0.129645	0.051533	0.078618	54.309172	-68.461943	38.469114
02520	8.794506	3.251324	2.698617	-0.106515	-0.112995	0.075004	54.321994	-68.533978	38.395581
02521	9.115410	2.810342	1.894459	-0.191820	-0.190172	0.095973	54.360610	-68.641769	38.242013
02522	9.069679	2.825289	1.929513	-0.015201	-0.081797	0.127624	54.344271	-68.727869	38.256038
02523	9.066416	3.041411	2.240549	-0.050999	-0.103422	0.133418	54.328762	-68.824123	38.247287
02524	8.769968	2.511389	2.253515	-0.191043	-0.160957	0.063813	54.361990	-68.906953	38.100137
02525	9.346797	2.973555	1.910608	-0.123374	-0.131834	0.005489	54.450453	-68.953070	37.935531
02526	9.207370	2.719447	1.757754	-0.112783	-0.131906	0.026393	54.527035	-69.008646	37.790087
02527	8.949544	2.774796	2.175921	-0.031028	-0.056642	0.011022	54.573140	-69.032219	37.727618
02528	9.114999	2.961283	2.293916	-0.109815	-0.168362	-0.038872	54.753360	-69.069211	37.473089
02529	9.490057	2.827817	1.397253	-0.257847	-0.193069	-0.044911	54.885545	-69.111513	37.179376
02530	9.357977	2.609687	1.607430	-0.001973	-0.028421	-0.008877	54.930931	-69.116084	37.135407
02531	9.041468	3.070026	2.268505	-0.004367	0.003382	-0.020279	54.946267	-69.105084	37.122266
02532	9.253890	2.895457	1.805602	-0.166042	-0.098523	-0.011230	54.985906	-69.131592	36.983835
02533	9.356403	2.727460	1.582553	-0.033198	0.002901	0.011143	54.958213	-69.135485	36.999067
02534	9.159497	2.926771	1.968157	0.014864	0.049944	0.026714	54.886154	-69.130937	37.091116
02535	9.143285	2.882679	2.029667	-0.033429	0.014023	0.033506	54.825305	-69.141637	37.141693
02536	9.133510	2.797760	1.910620	-0.014684	0.025510	0.039612	54.755127	-69.151123	37.213604
02537	9.031210	2.815333	2.114127	0.005960	0.035596	0.038928	54.685530	-69.157179	37.297685
02538	9.072919	2.889391	2.090642	-0.036271	0.004108	0.027414	54.639773	-69.167999	37.330224
02539	9.117555	2.805464	1.965537	-0.047020	-0.001285	0.023246	54.598673	-69.178908	37.351326
02540	9.098538	2.807246	1.995394	-0.026316	0.014842	0.016146	54.555212	-69.180885	37.387508
02541	9.169711	2.846577	1.934348	-0.047690	0.006426	0.014084	54.512226	-69.184946	37.410215
02542	9.238548	2.799847	1.842619	-0.035431	0.014615	0.017259	54.462826	-69.187498	37.447162
02543	9.153375	2.800831	1.997804	-0.001914	0.041644	0.024130	54.394075	-69.184493	37.525494
02544	9.053159	2.865539	2.112509	-0.020967	0.032206	0.019763	54.329209	-69.182309	37.587853
02545	9.098838	2.796276	2.009380	-0.036670	0.018095	0.014045	54.278261	-69.182423	37.625836
02546	9.093217	2.793644	2.071347	-0.030664	0.014942	0.018925	54.229702	-69.185587	37.664805
02547	9.170382	2.833167	1.950789	-0.039665	0.004286	0.018404	54.190066	-69.192332	37.688848
02548	9.161372	2.803767	1.971628	-0.022992	0.018456	0.012374	54.147363	-69.191253	37.726254
02549	9.069832	2.823959	2.055007	-0.012128	0.013404	0.014926	54.115419	-69.193313	37.758947
02550	9.070007	2.822482	2.056265	-0.036257	-0.000711	0.006671	54.093568	-69.196011	37.765914
02551	9.094195	2.784854	2.078877	-0.034633	-0.008354	0.004055	54.084910	-69.200328	37.759903
02552	9.142634	2.802847	2.003725	-0.044477	-0.013328	-0.001516	54.081003	-69.203467	37.742638
02553	9.118047	2.766323	1.971267	-0.031125	-0.002738	-0.003789	54.074436	-69.202258	37.736540
02554	9.064785	2.819088	2.117246	-0.023731	-0.005483	-0.006163	54.076943	-69.200605	37.725127
02555	9.111297	2.824619	2.021367	-0.056347	-0.025644	-0.010548	54.089888	-69.203958	37.682698
02556	9.119851	2.779824	1.991147	-0.037533	-0.014552	-0.014748	54.103163	-69.201366	37.651309
02557	9.123116	2.807317	2.031795	-0.031370	-0.007435	-0.016350	54.113300	-69.195905	37.627192
02558	9.140478	2.790726	1.983526	-0.042027	-0.008572	-0.020617	54.121864	-69.188576	37.598086
02559	9.161257	2.800915	1.976209	-0.023880	0.000435	-0.014833	54.125326	-69.181176	37.585699
02560	9.131172	2.837427	2.014434	-0.027413	-0.003314	-0.013349	54.129403	-69.175455	37.570350
02561	9.131945	2.778970	2.024340	-0.020921	-0.000063	-0.010380	54.131234	-69.170290	37.561522
02562	9.068821	2.824068	2.059316	-0.008634	-0.000174	-0.004776	54.134666	-69.167495	37.558372
02563	9.058684	2.855574	2.068278	-0.026206	-0.021108	-0.001385	54.151217	-69.173570	37.530556
02564	9.141673	2.805909	2.003825	-0.023911	-0.030081	0.009073	54.170208	-69.187240	37.501397
02565	9.091646	2.830998	2.047386	-0.003229	-0.021946	0.014824	54.186688	-69.201119	37.487743
02566	9.123067	2.865912	2.018524	-0.018382	-0.033299	0.019824	54.203358	-69.220857	37.464461
02567	9.150418	2.801247	1.937818	-0.020612	-0.028046	0.022050	54.211016	-69.240136	37.449594
02568	9.225163	2.795051	1.903502	-0.006262	-0.006488	0.022335	54.199578	-69.252054	37.463801
02569	9.152180	2.796459	1.936411	0.006642	0.002168	0.032306	54.176717	-69.265975	37.498270
02570	9.075289	2.810468	2.049401	0.014818	0.003849	0.026237	54.161173	-69.276236	37.529780
02571	9.083515	2.822201	2.009980	0.001170	-0.004706	0.030262	54.145372	-69.291508	37.553345
02572	9.115856	2.797133	1.992084	0.002587	-0.006131	0.029347	54.132263	-69.306557	37.574754
02573	9.077960	2.802850	2.048005	0.007751	-0.003635	0.029196	54.119813	-69.320970	37.598761
02574	9.090841	2.782281	2.058036	0.003478	-0.012119	0.023996	54.119301	-69.335543	37.607249
02575	9.138020	2.786176	1.960704	-0.004545	-0.024523	0.018032	54.135436	-69.351786	37.593173
02576	9.117801	2.775356	1.966351	0.002546	-0.025280	0.017432	54.156467	-69.367729	37.578066
02577	9.164738	2.819071	1.988954	0.008402	-0.022572	0.013654	54.181574	-69.381282	37.562335
02578	9.235903	2.786615	1.912461	0.008985	-0.028103	0.026792	54.201497	-69.402516	37.552357
02579	9.182855	2.784046	1.914684	0.046341	-0.013816	0.039269	54.214718	-69.425039	37.572547
02580	9.096863	2.829268	2.034423	0.046710	-0.019504	0.050151	54.224789	-69.454249	37.596180
02581	9.161533	2.780177	1.996124	0.034799	-0.033298	0.057822	54.238965	-69.491925	37.608282
02582	9.259821	2.813040	1.841088	0.058590	-0.029699	0.070271	54.250449	-69.533907	37.637662
02583	9.251619	2.765666	1.834790	0.091322	-0.029407	0.102362	54.252137	-69.590997	37.697646
02584	9.204368	2.784735	1.875673	0.113376	-0.012233	0.108735	54.238339	-69.645016	37.787462
02585	9.269585	2.790033	1.826910	0.116892	-0.016269	0.119912	54.221941	-69.705864	37.882315
02586	9.279498	2.721567	1.772366	0.156119	-0.002513	0.146112	54.185804	-69.773973	38.021978
02587	9.175701	2.692273	1.908533	0.210060	0.024448	0.166686	54.127866	-69.842851	38.217890
02588	9.075481	2.749465	2.075445	0.197643	0.012390	0.163454	54.079433	-69.913918	38.395863
02589	9.070251	2.711597	2.090063	0.171103	-0.000376	0.157490	54.037456	-69.986763	38.550843
02590	9.033848	2.697415	2.121397	0.160224	-0.010183	0.143010	54.013735	-70.055864	38.679547
02591	9.157809	2.744677	1.975796	0.132966	-0.041839	0.141583	54.016460	-70.135247	38.763599
02592	9.294503	2.712462	1.848975	0.166438	-0.061305	0.176919	54.029309	-70.237277	38.857082
02593	9.282769	2.675157	1.767037	0.211581	-0.052248	0.211680	54.023867	-70.352673	38.997549
02594	9.233664	2.629202	1.872418	0.225177	-0.036709	0.219253	53.997135	-70.466040	39.168637
02595	9.154263	2.579572	1.896959	0.222908	-0.013155	0.207773	53.948783	-70.566415	39.361312
02596	9.168334	2.620971	1.970659	0.224307	-0.000910	0.185245	53.904780	-70.651871	39.549971
02597	9.202329	2.629446	1.916623	0.198601	-0.014987	0.184412	53.865159	-70.741954	39.718422
02598	9.212207	2.556205	1.861411	0.195261	-0.018158	0.188018	53.822576	-70.834434	39.887747
02599	9.205651	2.561103	1.843964	0.210500	-0.000487	0.184193	53.768630	-70.919423	40.078390
02600	9.169091	2.574707	1.974585	0.211816	0.004608	0.184724	53.706225	-71.002562	40.278541
02601	9.130695	2.545987	1.986259	0.165467	-0.005965	0.165791	53.649818	-71.080788	40.444313
02602	9.224961	2.506598	1.900834	0.121670	-0.004755	0.152318	53.578391	-71.152020	40.599225
02603	9.193476	2.491494	1.874396	0.144608	0.003881	0.146726	53.513937	-71.217983	40.760728
02604	9.144559	2.527223	1.995184	0.149414	0.003693	0.137978	53.459768	-71.279621	40.914081
02605	9.174801	2.523973	1.923556	0.078560	-0.022904	0.117907	53.421510	-71.341364	41.007857
02606	9.222272	2.456956	1.836010	0.071078	-0.007197	0.096599	53.377982	-71.387613	41.102508
02607	9.183776	2.448629	1.870791	0.081599	0.010778	0.074609	53.338705	-71.417890	41.199145
02608	9.138237	2.488775	1.934585	0.059663	0.013391	0.053358	53.304009	-71.437182	41.277543
02609	9.184705	2.515544	1.937324	0.019169	0.001078	0.033263	53.284086	-71.451753	41.316008
02610	9.248677	2.448395	1.825135	0.004042	0.007219	0.017044	53.262895	-71.456462	41.346535
02611	9.207268	2.489768	1.831234	0.016183	0.025327	0.016906	53.224730	-71.455199	41.402433
02612	9.163688	2.503405	1.948700	0.016000	0.020418	0.006800	53.202801	-71.450669	41.440966
02613	9.214438	2.530991	1.893350	-0.011456	0.004958	0.001119	53.192812	-71.449138	41.450440
02614	9.256268	2.457783	1.790189	-0.012817	0.004102	-0.001933	53.185624	-71.446198	41.456009
02615	9.210179	2.458068	1.886891	0.008341	0.010245	0.001601	53.179268	-71.443072	41.473617
02616	9.182268	2.496770	1.923424	-0.015687	-0.005752	-0.005523	53.187574	-71.441869	41.461108
02617	9.188375	2.450825	1.895665	-0.032587	-0.004218	-0.016615	53.196147	-71.435350	41.438230
02618	9.219730	2.486293	1.867930	-0.041271	-0.002897	-0.027537	53.208372	-71.423066	41.406122
02619	9.230207	2.470072	1.880581	-0.041101	0.002931	-0.034000	53.220008	-71.406113	41.374862
02620	9.204959	2.451113	1.871280	-0.062910	0.015999	-0.053813	53.220774	-71.375285	41.341756
02621	9.210833	2.467765	1.835273	-0.091732	0.023652	-0.074569	53.216355	-71.332607	41.296812
02622	9.243543	2.477159	1.863364	-0.082072	0.038057	-0.082546	53.205229	-71.281028	41.264653
02623	9.180040	2.531986	1.901692	-0.083130	0.031260	-0.085008	53.205800	-71.230954	41.219619
02624	9.223981	2.523371	1.940826	-0.102089	0.014271	-0.082092	53.214656	-71.187745	41.154220
02625	9.265403	2.515382	1.828659	-0.092690	0.010755	-0.078744	53.230778	-71.147572	41.086944
02626	9.287294	2.542543	1.843288	-0.069654	0.010369	-0.062950	53.243917	-71.114478	41.036628
02627	9.233652	2.562809	1.870771	-0.063718	0.009651	-0.054188	53.253244	-71.085949	40.994055
02628	9.272941	2.568412	1.836504	-0.060428	0.001633	-0.042878	53.263115	-71.065059	40.952764
02629	9.259309	2.530672	1.838404	-0.036897	0.015462	-0.033757	53.259524	-71.043917	40.940085
02630	9.249200	2.565241	1.849127	-0.031889	0.016027	-0.029910	53.253494	-71.024048	40.932889
02631	9.249425	2.522354	1.882681	-0.031222	0.016770	-0.023245	53.240932	-71.007286	40.933135
02632	9.185084	2.558275	1.898563	-0.021276	0.023506	-0.024207	53.225345	-70.987471	40.942476
02633	9.195483	2.541659	1.912405	-0.039345	0.010744	-0.025062	53.217982	-70.971943	40.932299
02634	9.213764	2.537456	1.886547	-0.049650	0.014000	-0.027085	53.201681	-70.954067	40.925201
02635	9.181139	2.504614	1.916898	-0.027582	0.018188	-0.028785	53.194871	-70.934278	40.921567
02636	9.183422	2.579378	1.927897	-0.054132	0.009371	-0.034439	53.189444	-70.914618	40.900243
02637	9.241120	2.519779	1.877041	-0.057575	0.011587	-0.039333	53.184656	-70.892256	40.876284
02638	9.190131	2.551932	1.924414	-0.033068	0.019488	-0.033144	53.176591	-70.869718	40.870519
02639	9.190105	2.612709	1.915437	-0.045418	0.005703	-0.027461	53.174755	-70.854824	40.850801
02640	9.245935	2.538674	1.843932	-0.059060	0.003237	-0.029679	53.169830	-70.839457	40.825947
02641	9.245044	2.540365	1.846071	-0.033966	0.017494	-0.025459	53.157009	-70.821433	40.824803
02642	9.205521	2.553328	1.905281	-0.034118	0.027729	-0.026195	53.130645	-70.799250	40.837775
02643	9.196515	2.542347	1.948115	-0.049052	0.020468	-0.029144	53.108949	-70.778518	40.836877
02644	9.181322	2.549328	1.920817	-0.051380	0.041100	-0.046679	53.075429	-70.742346	40.846957
02645	9.200671	2.561290	1.917979	-0.057780	0.043745	-0.055990	53.044739	-70.701306	40.850289
02646	9.229960	2.600131	1.895944	-0.058953	0.045472	-0.052887	53.007436	-70.660781	40.859785
02647	9.220013	2.590783	1.940735	-0.038166	0.041490	-0.042625	52.977957	-70.626633	40.873746
02648	9.198976	2.599109	1.973261	-0.041000	0.032257	-0.036034	52.951746	-70.598375	40.882392
02649	9.200969	2.586947	1.897699	-0.036437	0.032339	-0.036618	52.929377	-70.570128	40.889870
02650	9.180140	2.594873	1.929694	-0.029187	0.034052	-0.031044	52.902819	-70.543527	40.906064
02651	9.194511	2.606209	1.984669	-0.029070	0.026097	-0.026358	52.882800	-70.522126	40.915530
02652	9.189279	2.579976	1.947322	-0.017841	0.019776	-0.013049	52.863679	-70.508678	40.930735
02653	9.192892	2.608292	1.989428	-0.014133	0.015506	-0.009898	52.849849	-70.498456	40.942716
02654	9.198141	2.608032	1.931712	-0.024113	0.012744	-0.011354	52.834580	-70.488214	40.950024
02655	9.208981	2.590402	1.944936	-0.010056	0.017393	-0.010954	52.821716	-70.476853	40.963460
02656	9.188973	2.596619	1.974964	-0.010541	0.019211	-0.011439	52.806007	-70.464331	40.979487
02657	9.172764	2.588040	1.925291	-0.025665	0.009994	-0.010352	52.793160	-70.455808	40.983417
02658	9.205026	2.578857	1.930682	-0.017414	0.021966	-0.014920	52.773407	-70.440740	40.999559
02659	9.175641	2.617113	1.969600	-0.008716	0.018216	-0.007877	52.757326	-70.430496	41.017229
02660	9.186390	2.599502	1.983170	-0.018325	0.021616	-0.013547	52.736209	-70.416173	41.034267
02661	9.205112	2.594837	1.957301	-0.007590	0.018806	-0.007027	52.719232	-70.406108	41.053575
02662	9.175957	2.632577	1.995618	-0.004309	0.012355	-0.002010	52.706797	-70.400255	41.069924
02663	9.173607	2.618908	1.976676	-0.008114	0.008428	-0.002706	52.698616	-70.395759	41.079577
02664	9.206192	2.609216	1.981226	-0.009298	0.011834	-0.005904	52.687800	-70.388310	41.091174
02665	9.211839	2.608552	1.922800	-0.007416	0.006840	0.000007	52.679418	-70.385600	41.101467
02666	9.182211	2.587026	1.971165	0.014305	0.015355	0.004163	52.667824	-70.381514	41.128247
02667	9.176181	2.587411	2.031679	-0.000449	0.010576	0.007350	52.651509	-70.380851	41.151199
02668	9.192298	2.612629	1.953196	0.008149	0.000330	0.010543	52.649371	-70.384889	41.164196
02669	9.153754	2.622515	2.009087	0.016088	0.002154	0.012535	52.648231	-70.389515	41.181097
02670	9.187053	2.611601	2.011933	-0.000803	-0.010055	0.012389	52.652435	-70.398003	41.181916
02671	9.234461	2.612460	1.915452	0.004398	-0.009303	0.018511	52.653404	-70.409331	41.189466
02672	9.203536	2.575576	1.942129	0.021288	0.001190	0.024973	52.643574	-70.419642	41.218615
02673	9.160235	2.644024	2.046537	0.020376	0.000837	0.026347	52.633039	-70.431015	41.248091
02674	9.205032	2.571351	1.940638	0.006059	-0.016227	0.028510	52.633296	-70.448991	41.257269
02675	9.216226	2.595437	1.919521	0.028968	-0.011114	0.035850	52.633651	-70.468846	41.280406
02676	9.156973	2.595276	1.982290	0.025424	-0.002612	0.032571	52.623515	-70.483936	41.312383
02677	9.124055	2.544345	1.988712	0.010297	-0.008401	0.021018	52.624203	-70.496092	41.323813
02678	9.130780	2.584682	2.048351	0.002467	0.001401	0.003930	52.623843	-70.496745	41.331461
02679	9.128765	2.570851	2.027932	-0.012768	-0.012595	-0.005154	52.642395	-70.498441	41.309918
02680	9.131008	2.584990	2.046941	-0.034445	-0.023373	-0.013266	52.669629	-70.499873	41.265856
02681	9.189262	2.569449	1.961272	-0.038198	-0.029565	-0.017937	52.707983	-70.501626	41.207847
02682	9.212845	2.592685	1.971981	-0.034015	-0.019474	-0.021454	52.738473	-70.497955	41.160593
02683	9.182045	2.617394	1.987571	-0.036695	-0.024519	-0.014984	52.768298	-70.499283	41.112545
02684	9.177847	2.590740	1.946081	-0.033474	-0.025259	-0.018638	52.803783	-70.498884	41.060321
02685	9.201525	2.613716	1.956658	-0.036209	-0.026318	-0.014511	52.835753	-70.501032	41.010293
02686	9.178049	2.592240	1.943129	-0.037335	-0.026893	-0.015369	52.867945	-70.502671	40.959216
02687	9.191736	2.588393	1.972904	-0.041357	-0.031029	-0.018302	52.906767	-70.504696	40.898792
02688	9.234883	2.605861	1.954981	-0.040440	-0.032382	-0.013369	52.942337	-70.509124	40.842246
02689	9.197880	2.588841	1.910050	-0.032670	-0.020323	-0.012085	52.966265	-70.510272	40.802904
02690	9.157085	2.586443	1.945314	-0.038364	-0.019237	-0.018688	52.991237	-70.507714	40.758863
02691	9.199644	2.604687	1.929067	-0.053519	-0.010517	-0.031059	53.009016	-70.496789	40.713370
02692	9.231864	2.596652	1.933047	-0.051811	-0.003536	-0.032177	53.019075	-70.482637	40.676970
02693	9.208179	2.635334	1.911529	-0.039578	0.000382	-0.029010	53.028711	-70.468889	40.648585
02694	9.189760	2.596815	1.971039	-0.041543	-0.006271	-0.019842	53.036146	-70.461321	40.621208
02695	9.218634	2.619482	1.924199	-0.042029	-0.004446	-0.020326	53.042142	-70.453210	40.595192
02696	9.216078	2.606734	1.904867	-0.032105	0.000558	-0.014875	53.041335	-70.445562	40.582296
02697	9.186388	2.585821	1.953203	-0.028942	0.002082	-0.014546	53.040799	-70.437850	40.571169
02698	9.178746	2.632166	1.983292	-0.036025	0.002901	-0.013937	53.033810	-70.429825	40.562449
02699	9.187592	2.600998	1.975627	-0.032385	0.004348	-0.019446	53.033124	-70.419088	40.549386
02700	9.206250	2.596923	1.949162	-0.046617	0.009980	-0.020560	53.017370	-70.405593	40.543527
02701	9.183888	2.589815	1.959657	-0.036077	0.020860	-0.027354	53.000997	-70.385547	40.544868
02702	9.143953	2.602004	2.019243	-0.038731	0.029741	-0.031975	52.975463	-70.360015	40.554188
02703	9.178074	2.666951	2.036007	-0.059747	0.021458	-0.039798	52.956827	-70.334070	40.543530
02704	9.250099	2.621353	1.886121	-0.058902	0.010127	-0.026129	52.939248	-70.317980	40.532132
02705	9.208490	2.618812	1.924893	-0.031136	0.021895	-0.013168	52.910778	-70.304060	40.549328
02706	9.216194	2.673353	2.008184	-0.031062	0.016146	-0.004528	52.880641	-70.295763	40.568208
02707	9.209096	2.573174	1.960154	-0.037229	0.015577	0.001012	52.843107	-70.290498	40.591326
02708	9.164275	2.600672	1.948552	-0.020637	0.029776	0.003000	52.794351	-70.280911	40.636331
02709	9.162009	2.627593	2.051595	-0.033013	0.023441	-0.006441	52.756474	-70.269511	40.662383
02710	9.163176	2.600158	1.954401	-0.044680	0.013745	-0.006863	52.723942	-70.260966	40.675522
02711	9.186073	2.622396	1.969327	-0.028879	0.023091	-0.011469	52.693802	-70.247384	40.695873
02712	9.194909	2.590695	1.962774	-0.031909	0.013572	-0.007167	52.669140	-70.238756	40.708427
02713	9.237253	2.608104	1.949170	-0.025377	0.018581	-0.010564	52.645906	-70.227150	40.723574
02714	9.094651	2.602579	2.087829	-0.007749	0.025126	-0.005275	52.618660	-70.215362	40.753586
02715	9.067296	2.653387	2.147017	-0.042322	-0.000028	-0.014735	52.613331	-70.208327	40.739388
02716	9.233846	2.595824	1.933786	-0.078356	-0.021468	-0.019319	52.618181	-70.206351	40.692296
02717	9.188471	2.565964	1.930398	-0.029115	0.014224	-0.021606	52.609023	-70.191227	40.690208
02718	9.116445	2.686754	2.095687	-0.046254	0.007651	-0.032757	52.608396	-70.173004	40.668482
02719	9.229531	2.586799	1.918492	-0.078891	-0.001587	-0.033204	52.601861	-70.158100	40.633286
02720	9.218564	2.561710	1.939833	-0.028766	0.022232	-0.032094	52.592206	-70.135106	40.631806
02721	9.072254	2.688646	2.138823	-0.041679	0.018217	-0.031739	52.580597	-70.113986	40.624671
02722	9.070803	2.631624	2.150656	-0.084576	-0.010852	-0.041481	52.589611	-70.098238	40.569331
02723	9.135998	2.633330	2.028350	-0.103807	-0.014288	-0.054489	52.605063	-70.078065	40.495548
02724	9.173480	2.627152	1.974013	-0.096297	-0.000618	-0.061659	52.613734	-70.049563	40.433415
02725	9.053086	2.645998	2.125487	-0.091457	0.009721	-0.068707	52.619561	-70.014556	40.377374
02726	9.059038	2.704052	2.209372	-0.129548	-0.017199	-0.083199	52.650257	-69.982001	40.271502
02727	9.178044	2.667932	1.961476	-0.181148	-0.054062	-0.085187	52.699833	-69.961613	40.114175
02728	9.283469	2.617925	1.811409	-0.126795	-0.029914	-0.076430	52.741154	-69.936503	39.998638
02729	9.231468	2.689238	1.978788	-0.078071	-0.000049	-0.063984	52.761824	-69.906989	39.934922
02730	9.177711	2.706756	2.005376	-0.083985	-0.014531	-0.045261	52.778620	-69.890731	39.871582
02731	9.099167	2.667571	2.128192	-0.071489	-0.014512	-0.037446	52.795812	-69.878325	39.815572
02732	9.149336	2.759852	2.064034	-0.107961	-0.044067	-0.034091	52.825010	-69.877379	39.724386
02733	9.260061	2.635237	1.841378	-0.099381	-0.043541	-0.019024	52.844950	-69.883409	39.648427
02734	9.223340	2.657150	1.917673	-0.041655	-0.009659	-0.009832	52.846343	-69.881615	39.627314
02735	9.149754	2.700712	2.071381	-0.048288	-0.018891	-0.006447	52.852978	-69.884862	39.596705
02736	9.185006	2.664982	1.973122	-0.069563	-0.035064	-0.004044	52.864610	-69.894499	39.547661
02737	9.164014	2.655462	1.980091	-0.028874	-0.011684	-0.003784	52.870882	-69.896465	39.529287
02738	9.137258	2.704051	2.037598	-0.027494	-0.023212	0.003954	52.884301	-69.905652	39.504011
02739	9.192347	2.702199	2.031109	-0.052007	-0.036848	0.003691	52.901717	-69.919729	39.459660
02740	9.204543	2.643807	1.919352	-0.033651	-0.023827	0.009467	52.907207	-69.931643	39.439074
02741	9.187867	2.659636	1.967009	-0.020197	-0.015262	0.013596	52.906534	-69.942786	39.433391
02742	9.240859	2.644226	1.940880	-0.012983	-0.011884	0.012965	52.905623	-69.952173	39.432227
02743	9.208288	2.652316	1.937847	0.009284	0.009210	0.019487	52.885620	-69.957554	39.465104
02744	9.173894	2.685527	2.036134	0.020494	0.016650	0.021878	52.859692	-69.961144	39.510988
02745	9.211117	2.661723	1.959519	-0.004134	-0.003025	0.027969	52.839245	-69.974624	39.536151
02746	9.209731	2.646034	1.939579	0.031944	0.022432	0.032813	52.802193	-69.981190	39.600852
02747	9.175599	2.678308	2.037962	0.040666	0.018498	0.039859	52.769082	-69.992632	39.666809
02748	9.191673	2.644718	1.969338	0.033449	0.015139	0.040483	52.734632	-70.005198	39.729650
02749	9.213808	2.650536	1.962030	0.054491	0.021047	0.044476	52.701724	-70.017834	39.803811
02750	9.198978	2.619282	2.041014	0.071311	0.033151	0.044882	52.662070	-70.026122	39.895260
02751	9.137602	2.662370	2.076673	0.066483	0.024707	0.045510	52.630332	-70.037928	39.975476
02752	9.157860	2.654915	2.048451	0.065101	0.013919	0.051041	52.605196	-70.055675	40.047682
02753	9.174229	2.620853	1.978900	0.072603	0.015306	0.048609	52.585617	-70.072135	40.118675
02754	9.188761	2.612901	2.009406	0.084311	0.012341	0.043452	52.580608	-70.086964	40.181166
02755	9.187493	2.597853	1.987880	0.090049	0.012599	0.033435	52.588899	-70.097459	40.233135
02756	9.226615	2.587926	1.930957	0.082318	0.025157	0.022630	52.586604	-70.098352	40.291518
02757	9.206889	2.592744	1.960393	0.095281	0.051490	0.008948	52.572569	-70.084169	40.370422
02758	9.116646	2.631094	2.065097	0.097521	0.066738	-0.000330	52.548941	-70.060124	40.460770
02759	9.144484	2.655996	2.021667	0.069030	0.059062	-0.012217	52.530896	-70.033658	40.527961
02760	9.183339	2.603988	1.999017	0.067835	0.064354	-0.021722	52.514048	-70.000697	40.593029
02761	9.101788	2.671842	2.086291	0.088253	0.080238	-0.022874	52.491065	-69.961988	40.677224
02762	9.080249	2.680098	2.118734	0.058862	0.058074	-0.022380	52.477816	-69.930905	40.733017
02763	9.105717	2.633414	2.064322	0.041187	0.043350	-0.025374	52.476411	-69.903913	40.765557
02764	9.135483	2.672519	2.040498	0.046871	0.043998	-0.025059	52.476487	-69.876521	40.799863
02765	9.137933	2.702028	2.083682	0.042584	0.038331	-0.013659	52.471033	-69.856602	40.837578
02766	9.187550	2.675931	2.040761	0.035844	0.031316	-0.006221	52.462657	-69.842195	40.874166
02767	9.184976	2.663389	2.022380	0.044599	0.033906	0.004777	52.446374	-69.832188	40.924653
02768	9.174843	2.695402	2.033592	0.045851	0.036921	0.011870	52.419662	-69.824032	40.986889
02769	9.168327	2.694698	2.095221	0.054396	0.039325	0.020627	52.387288	-69.819312	41.060505
02770	9.121499	2.649513	2.072056	0.047031	0.031708	0.021358	52.358712	-69.817262	41.125450
02771	9.144713	2.670731	2.086279	0.042264	0.031455	0.019652	52.330054	-69.814825	41.187702
02772	9.090243	2.670709	2.092211	0.047728	0.030114	0.024055	52.301293	-69.814534	41.253272
02773	9.103623	2.664722	2.124885	0.030904	0.019714	0.017403	52.282747	-69.815169	41.297814
02774	9.143000	2.654141	2.069320	0.015753	0.004031	0.014426	52.276999	-69.819643	41.319345
02775	9.112149	2.676577	2.086130	0.011696	0.003927	0.009119	52.274794	-69.822051	41.334750
02776	9.145292	2.666255	2.089462	0.003631	-0.002090	0.007155	52.276579	-69.825375	41.340856
02777	9.120339	2.630103	2.056238	-0.003520	-0.007738	0.003820	52.285092	-69.829467	41.335552
02778	9.130502	2.656949	2.036825	-0.006946	-0.005442	-0.001099	52.292828	-69.830225	41.328861
02779	9.132528	2.670169	2.056737	-0.001768	-0.004761	0.005070	52.297479	-69.833840	41.328740
02780	9.156083	2.691909	2.068826	-0.005130	-0.006487	0.002478	52.304134	-69.836585	41.324310
02781	9.183655	2.641137	2.011110	-0.007245	-0.005193	0.006979	52.304362	-69.841214	41.325558
02782	9.131247	2.655219	2.035741	0.000348	0.004433	0.002145	52.300990	-69.839983	41.335153
02783	9.133083	2.668502	2.056435	-0.006456	0.003220	0.000954	52.297031	-69.838934	41.341343
02784	9.176102	2.685334	2.041218	-0.007103	-0.000966	0.006888	52.291530	-69.841744	41.348658
02785	9.194097	2.666008	1.993039	0.002354	0.001809	0.014277	52.281640	-69.847227	41.366542
02786	9.133757	2.665751	2.057014	0.001865	0.003636	0.013800	52.268985	-69.851555	41.386950
02787	9.153749	2.659466	2.029115	0.003254	0.000396	0.019224	52.256615	-69.859773	41.408024
02788	9.154269	2.657728	2.029048	0.001217	-0.000547	0.019731	52.243061	-69.868252	41.428992
02789	9.146612	2.642506	2.068247	-0.000598	0.000500	0.016154	52.231271	-69.875039	41.447096
02790	9.166615	2.636204	2.040283	-0.001719	-0.000074	0.015289	52.219681	-69.881337	41.464179
02791	9.159352	2.680145	2.069630	-0.004877	-0.001591	0.014932	52.209172	-69.888303	41.478306
02792	9.186996	2.628612	2.012258	-0.004167	-0.001428	0.011325	52.201639	-69.893280	41.489574
02793	9.167726	2.632403	2.040195	0.000395	-0.001368	0.010788	52.197839	-69.898290	41.499772
02794	9.117262	2.659909	2.085111	-0.005965	0.001399	0.001431	52.195266	-69.897795	41.504660
02795	9.150305	2.649701	2.088571	-0.015380	-0.007173	0.002685	52.197376	-69.901173	41.498938
02796	9.168137	2.630997	2.040161	-0.010878	-0.003092	-0.000177	52.199087	-69.901527	41.496267
02797	9.137190	2.653964	2.057006	-0.010673	-0.002886	0.002058	52.199189	-69.903115	41.495555
02798	9.150614	2.648618	2.088594	-0.019086	-0.002839	-0.000475	52.196171	-69.903246	41.492912
02799	9.189927	2.638361	2.032666	-0.013419	-0.003989	0.006169	52.192112	-69.907079	41.494955
02800	9.135777	2.638646	2.036962	-0.004372	-0.001635	0.009088	52.186851	-69.911116	41.503677
02801	9.149844	2.691796	2.058665	-0.002822	0.001134	0.008105	52.180660	-69.914027	41.514454
02802	9.138252	2.650170	2.057178	-0.007264	-0.006965	0.013288	52.176297	-69.921836	41.520454
02803	9.136810	2.635433	2.036488	-0.003190	-0.005081	0.012275	52.173576	-69.928814	41.527312
02804	9.172192	2.637665	2.059539	-0.002437	-0.010721	0.017307	52.172760	-69.939762	41.532480
02805	9.133765	2.645701	2.114513	-0.010510	-0.016722	0.015339	52.177318	-69.952217	41.527122
02806	9.115423	2.608827	2.020771	-0.011985	-0.021725	0.012326	52.189480	-69.964776	41.512652
02807	9.195833	2.641886	2.047796	-0.015691	-0.017390	0.009170	52.197851	-69.974670	41.500075
02808	9.131818	2.615222	2.070171	-0.014614	-0.011013	0.001397	52.205755	-69.978518	41.488536
02809	9.101069	2.638188	2.086398	-0.019102	-0.013302	-0.002060	52.217922	-69.981890	41.469838
02810	9.148335	2.681821	2.110175	-0.031132	-0.029214	0.001622	52.238789	-69.992226	41.434431
02811	9.236767	2.629699	1.986621	-0.035780	-0.037503	0.004558	52.265162	-70.007074	41.390447
02812	9.212072	2.593100	1.952126	-0.016661	-0.013727	0.008212	52.268737	-70.014957	41.382269
02813	9.155778	2.620070	2.056201	-0.002535	-0.000898	0.006346	52.266877	-70.017782	41.388602
02814	9.146544	2.651186	2.065219	-0.019246	-0.008817	0.005926	52.265060	-70.022908	41.384585
02815	9.162466	2.618752	1.996194	-0.024858	-0.011672	0.001603	52.268408	-70.027359	41.371766
02816	9.145201	2.636241	2.044153	-0.014684	-0.008763	0.005384	52.269662	-70.032220	41.367262
02817	9.178399	2.625721	2.047112	-0.030750	-0.012492	-0.000960	52.273137	-70.035797	41.350717
02818	9.184586	2.625602	1.987795	-0.015780	0.002931	-0.000193	52.264561	-70.034031	41.356005
02819	9.127876	2.653194	2.093093	-0.018721	0.003414	-0.004630	52.258632	-70.030368	41.356798
02820	9.139128	2.634916	2.104784	-0.041462	-0.007750	-0.013852	52.261842	-70.026159	41.333890
02821	9.195581	2.607550	2.000416	-0.040278	-0.011193	-0.010678	52.267594	-70.024872	41.309110
02822	9.176515	2.671488	2.019008	-0.021749	-0.004337	-0.006677	52.270916	-70.022716	41.298099
02823	9.141096	2.608899	2.005083	-0.028772	-0.007516	-0.003796	52.272039	-70.023258	41.285259
02824	9.156515	2.616874	2.056986	-0.027014	-0.004547	-0.002538	52.268614	-70.023052	41.278219
02825	9.114082	2.658397	2.063238	-0.028346	-0.005314	-0.005640	52.269011	-70.021986	41.266410
02826	9.156443	2.616874	2.057306	-0.050171	-0.016082	-0.016252	52.279919	-70.019609	41.230000
02827	9.183933	2.626279	1.989913	-0.038665	-0.012415	-0.009364	52.286838	-70.019340	41.204960
02828	9.166409	2.644453	2.038127	-0.030458	-0.012684	-0.009072	52.297879	-70.019022	41.180427
02829	9.172595	2.644934	1.978080	-0.043308	-0.020693	-0.006454	52.309661	-70.022971	41.147382
02830	9.162778	2.617557	1.996330	-0.028003	-0.011339	-0.005110	52.316619	-70.023976	41.128690
02831	9.129686	2.666975	2.113577	-0.034168	-0.008319	-0.012220	52.323769	-70.020975	41.106147
02832	9.143117	2.622902	2.024325	-0.053538	-0.017724	-0.018882	52.337320	-70.017967	41.064872
02833	9.175968	2.613727	2.027112	-0.046877	-0.020754	-0.017623	52.357885	-70.016859	41.020305
02834	9.146780	2.651170	2.064191	-0.053255	-0.017913	-0.026973	52.379600	-70.010237	40.970515
02835	9.183474	2.629977	1.987148	-0.058870	-0.022533	-0.025012	52.402586	-70.006384	40.916055
02836	9.151789	2.595201	2.013451	-0.039779	-0.009292	-0.022886	52.417300	-69.998592	40.881927
02837	9.157664	2.695463	2.065556	-0.043147	-0.010977	-0.025495	52.435301	-69.990474	40.842356
02838	9.172897	2.665541	1.996389	-0.063846	-0.024735	-0.022672	52.455245	-69.988165	40.787983
02839	9.170286	2.594289	1.985030	-0.044550	-0.009493	-0.024604	52.469708	-69.979921	40.751320
02840	9.185618	2.662688	2.028039	-0.040760	-0.005593	-0.023837	52.480086	-69.970393	40.721203
02841	9.179320	2.624085	1.967089	-0.048826	-0.013356	-0.019548	52.492036	-69.965791	40.684603
02842	9.194364	2.633145	2.019320	-0.031781	0.000750	-0.023201	52.499013	-69.954336	40.663579
02843	9.112237	2.685163	2.082998	-0.041041	-0.001724	-0.028386	52.509341	-69.941659	40.633450
02844	9.156077	2.658521	2.097853	-0.053665	-0.007705	-0.029877	52.520641	-69.930114	40.594471
02845	9.157443	2.634775	1.998160	-0.055909	-0.008812	-0.031626	52.534301	-69.918424	40.551719
02846	9.141200	2.667418	2.067973	-0.038727	-0.002765	-0.030678	52.548717	-69.904787	40.518530
02847	9.179458	2.660421	2.012261	-0.052959	-0.009308	-0.027202	52.560402	-69.895275	40.479674
02848	9.167173	2.621197	2.010885	-0.045944	-0.007945	-0.023762	52.570492	-69.886583	40.446684
02849	9.141430	2.685052	2.090279	-0.029469	-0.000261	-0.025502	52.582735	-69.874691	40.421562
02850	9.134919	2.647345	2.029511	-0.053378	-0.009641	-0.031703	52.598163	-69.862971	40.378345
02851	9.169020	2.653121	2.053806	-0.051144	-0.004822	-0.042584	52.619787	-69.844882	40.329997
02852	9.177937	2.682988	2.036045	-0.049311	-0.007739	-0.032715	52.636057	-69.832030	40.288357
02853	9.181228	2.673001	1.956531	-0.042925	-0.008772	-0.029682	52.654978	-69.821179	40.247898
02854	9.196089	2.682419	2.008865	-0.030381	-0.000592	-0.024156	52.665080	-69.809734	40.224379
02855	9.197446	2.696896	2.030189	-0.024561	0.002383	-0.017555	52.669205	-69.800529	40.210891
02856	9.154141	2.680135	2.046637	-0.029614	0.004172	-0.017486	52.667523	-69.790466	40.200395
02857	9.132238	2.672126	2.055485	-0.022602	0.005515	-0.014031	52.665558	-69.781777	40.194591
02858	9.172570	2.677732	2.020691	-0.020570	0.006455	-0.014527	52.663436	-69.772269	40.190085
02859	9.164377	2.663978	2.060462	-0.018167	-0.000509	-0.008213	52.665965	-69.768323	40.182197
02860	9.183721	2.719203	2.023948	-0.023141	-0.002762	-0.005860	52.665588	-69.765966	40.174261
02861	9.189501	2.661397	1.973497	-0.014097	-0.000487	-0.002895	52.665407	-69.764434	40.171748
02862	9.173724	2.691777	2.043416	-0.009277	0.007994	-0.003508	52.657466	-69.759411	40.180340
02863	9.140466	2.701538	2.041310	-0.001355	0.009710	-0.001416	52.650600	-69.755011	40.192733
02864	9.163584	2.664351	2.063504	-0.007580	0.002680	0.000106	52.646794	-69.753481	40.197954
02865	9.130571	2.673657	2.060888	-0.008280	0.002476	0.003713	52.640058	-69.753929	40.205979
02866	9.130577	2.673389	2.061214	-0.010449	-0.000821	-0.002059	52.640972	-69.752630	40.204417
02867	9.171414	2.678071	2.025484	-0.014512	-0.002695	-0.001074	52.641555	-69.752694	40.200834
02868	9.151814	2.682346	2.054133	-0.001281	0.007528	-0.005438	52.640600	-69.746953	40.206863
02869	9.140028	2.701149	2.043786	-0.006801	-0.001157	-0.001221	52.643840	-69.746416	40.205158
02870	9.171106	2.678380	2.026468	-0.009327	-0.000263	-0.001186	52.643884	-69.745320	40.205208
02871	9.139984	2.701012	2.044164	0.001747	0.002944	0.001291	52.644594	-69.744500	40.211419
02872	9.192590	2.686891	2.018881	-0.006925	-0.007234	0.005126	52.648672	-69.748703	40.208636
02873	9.159768	2.695945	2.015752	0.007564	0.005902	0.007903	52.642833	-69.749865	40.225381
02874	9.152212	2.680476	2.054799	0.009892	0.001115	0.018239	52.633876	-69.757137	40.246761
02875	9.193563	2.683821	2.018534	0.008640	-0.003658	0.017405	52.631488	-69.765949	40.260483
02876	9.139699	2.683034	2.022785	0.020058	0.003945	0.022079	52.621214	-69.773983	40.289473
02877	9.151802	2.662851	2.033453	0.019563	0.005779	0.021619	52.609426	-69.781430	40.319881
02878	9.171762	2.656985	2.005229	0.016621	0.004467	0.023477	52.595184	-69.789915	40.350997
02879	9.195491	2.677319	2.018387	0.025510	0.014822	0.021875	52.575347	-69.794326	40.393610
02880	9.153117	2.657875	2.034048	0.023421	0.005632	0.024692	52.562376	-69.802952	40.427520
02881	9.155497	2.669277	2.054743	0.023973	0.012065	0.022820	52.544136	-69.808746	40.467488
02882	9.144261	2.686340	2.044368	0.028531	0.012111	0.022289	52.528323	-69.814014	40.507546
02883	9.144710	2.684625	2.044615	0.027413	0.009710	0.027718	52.510283	-69.822846	40.549397
02884	9.178228	2.672989	2.047851	0.025170	0.008600	0.025968	52.493354	-69.831003	40.588586
02885	9.157341	2.662231	2.055668	0.026292	0.009164	0.026838	52.476132	-69.839616	40.628877
02886	9.157795	2.660418	2.055993	0.026219	0.013208	0.024548	52.455407	-69.845510	40.672747
02887	9.142773	2.651047	2.004577	0.022435	0.009331	0.023754	52.438654	-69.852654	40.710179
02888	9.168507	2.684366	2.038218	0.021031	0.010789	0.024658	52.417806	-69.859434	40.751010
02889	9.135606	2.633323	2.044604	0.029304	0.018755	0.022629	52.394360	-69.862763	40.799761
02890	9.178561	2.649727	2.030382	0.021100	0.020898	0.016010	52.369260	-69.862071	40.845161
02891	9.159086	2.652977	2.059855	0.025868	0.021126	0.017718	52.345585	-69.862329	40.892058
02892	9.137627	2.643160	2.068943	0.022643	0.023674	0.015047	52.318859	-69.860215	40.940131
02893	9.158942	2.651165	2.062826	0.022434	0.023494	0.012806	52.294979	-69.857401	40.985150
02894	9.176387	2.632868	2.015853	0.022153	0.025515	0.014579	52.266163	-69.854414	41.035152
02895	9.147179	2.668006	2.055296	0.024886	0.024811	0.016782	52.238278	-69.852926	41.085936
02896	9.160506	2.661720	2.088217	0.022436	0.023509	0.012797	52.213824	-69.849820	41.131466
02897	9.115460	2.630463	2.084749	0.014727	0.023811	0.006638	52.191073	-69.844073	41.170581
02898	9.123124	2.644581	2.047472	0.010034	0.021384	0.000911	52.173539	-69.836322	41.201172
02899	9.159515	2.661282	2.093120	0.008772	0.016601	0.000094	52.162551	-69.830137	41.224123
02900	9.135773	2.639690	2.081520	0.000923	0.012674	-0.006010	52.157175	-69.822312	41.236204
02901	9.125806	2.671895	2.092144	0.001621	0.011030	-0.003308	52.152213	-69.816542	41.248371
02902	9.177991	2.658104	2.068186	-0.003778	0.008411	-0.005430	52.148847	-69.810477	41.255442
02903	9.154340	2.636514	2.056222	-0.005813	0.007475	-0.004936	52.145559	-69.805218	41.261286
02904	9.142525	2.655512	2.046199	-0.001743	0.009347	-0.005925	52.142686	-69.798600	41.269076
02905	9.168894	2.645113	2.110213	-0.001254	0.017985	-0.003799	52.128012	-69.790158	41.289836
02906	9.120221	2.647627	2.056448	-0.008750	0.008000	-0.009385	52.126096	-69.782448	41.292327
02907	9.164242	2.619893	2.071708	-0.013800	0.009793	-0.009327	52.119584	-69.774386	41.296728
02908	9.142701	2.670911	2.071385	-0.000544	0.007707	-0.009065	52.122427	-69.766923	41.299158
02909	9.151912	2.639998	2.062551	-0.008466	0.005984	-0.011161	52.125391	-69.759371	41.296719
02910	9.174799	2.662934	2.076123	-0.012948	0.003741	-0.014652	52.131320	-69.750777	41.288286
02911	9.123700	2.691199	2.122098	-0.005941	0.005090	-0.011191	52.136844	-69.743525	41.284658
02912	9.139122	2.661535	2.053559	-0.017854	-0.000709	-0.016315	52.146988	-69.735742	41.268735
02913	9.191207	2.648503	2.029376	-0.011198	0.006699	-0.013373	52.149595	-69.726934	41.265005
02914	9.140056	2.676616	2.075690	-0.002442	0.011003	-0.008628	52.146895	-69.718511	41.272186
02915	9.159176	2.672997	2.048735	-0.004967	0.011899	-0.008600	52.142167	-69.710035	41.280082
02916	9.158702	2.673543	2.050140	-0.006657	0.015374	-0.005924	52.129146	-69.701297	41.295694
02917	9.117169	2.669500	2.087411	0.002178	0.017476	-0.005191	52.118470	-69.692400	41.314298
02918	9.118577	2.683123	2.109225	-0.011070	0.009090	-0.007126	52.111762	-69.685328	41.320483
02919	9.139699	2.692257	2.102660	-0.010374	0.007442	-0.004423	52.105433	-69.680304	41.326783
02920	9.118025	2.683492	2.111138	-0.009678	0.005793	-0.001720	52.098417	-69.676836	41.334147
02921	9.137601	2.678897	2.083540	-0.012070	-0.001398	0.002895	52.094951	-69.678227	41.336358
02922	9.149186	2.659987	2.094516	-0.011989	-0.003598	-0.001119	52.097506	-69.678336	41.332105
02923	9.147317	2.646672	2.074344	-0.018022	0.001862	-0.001993	52.091292	-69.676368	41.333610
02924	9.135773	2.664960	2.063993	-0.010526	0.001374	0.001939	52.085709	-69.676109	41.338928
02925	9.127724	2.650305	2.103229	-0.015429	-0.003076	0.000271	52.084852	-69.676903	41.336301
02926	9.135921	2.664245	2.064264	-0.019213	-0.006966	-0.000523	52.086812	-69.678468	41.328268
02927	9.157503	2.672697	2.056590	-0.013818	-0.004348	0.001608	52.087155	-69.680313	41.325347
02928	9.159523	2.685417	2.076860	-0.015076	-0.009134	0.000785	52.092889	-69.683232	41.315817
02929	9.157816	2.671984	2.056121	-0.014023	-0.004529	-0.000632	52.095467	-69.684128	41.310386
02930	9.159716	2.684975	2.076581	-0.014229	-0.004710	-0.002872	52.099764	-69.683836	41.302906
02931	9.169407	2.653260	2.066804	-0.011703	-0.005607	-0.002900	52.107145	-69.684084	41.293773
02932	9.146409	2.690401	2.045020	-0.008834	-0.002094	-0.000740	52.109312	-69.683835	41.291861
02933	9.118779	2.680192	2.112076	-0.015143	-0.005085	-0.001508	52.112765	-69.684529	41.284813
02934	9.149957	2.657252	2.094622	-0.019132	-0.009154	-0.004545	52.121270	-69.685043	41.269850
02935	9.159969	2.684620	2.075924	-0.011498	-0.005422	-0.000663	52.126412	-69.686235	41.263228
02936	9.138670	2.675513	2.083202	-0.016195	-0.009686	-0.000096	52.133025	-69.688948	41.252078
02937	9.160220	2.684174	2.075390	-0.009954	-0.002650	-0.001616	52.136570	-69.688732	41.248101
02938	9.138901	2.674955	2.082901	-0.013120	-0.005994	0.004305	52.136253	-69.692136	41.246218
02939	9.160592	2.683257	2.074936	-0.010309	-0.008905	0.002498	52.143331	-69.695979	41.238259
02940	9.159089	2.669542	2.053620	-0.007510	-0.013667	0.006997	52.153057	-69.703298	41.229096
02941	9.159505	2.668681	2.052883	-0.004502	-0.005932	0.009111	52.153546	-69.709086	41.231707
02942	9.173200	2.662384	2.083878	-0.006320	-0.004837	0.005535	52.154545	-69.712640	41.232577
02943	9.138646	2.658323	2.059830	0.000687	-0.003503	0.009005	52.155131	-69.717526	41.238254
02944	9.097942	2.653001	2.095089	-0.003304	-0.007568	0.005967	52.160791	-69.722236	41.235997
02945	9.151164	2.697445	2.060606	-0.010666	-0.015156	0.006610	52.171419	-69.730132	41.224033
02946	9.161311	2.664791	2.049876	-0.001909	-0.010873	0.011367	52.176796	-69.738446	41.222929
02947	9.163679	2.676858	2.069560	-0.000365	-0.008103	0.010415	52.181073	-69.745585	41.224030
02948	9.144595	2.680080	2.096921	-0.005554	-0.010529	0.010520	52.184751	-69.753396	41.222511
02949	9.160878	2.648515	2.026980	0.000963	-0.007364	0.013528	52.185913	-69.761682	41.227738
02950	9.165139	2.673457	2.067492	-0.002052	-0.004630	0.013096	52.181900	-69.768585	41.236555
02951	9.142192	2.650464	2.054214	-0.001346	-0.004434	0.009492	52.181985	-69.774016	41.241524
02952	9.144409	2.662627	2.074507	-0.007517	-0.003192	0.008677	52.177282	-69.778414	41.247739
02953	9.144675	2.661722	2.074495	-0.009128	-0.001916	0.007342	52.171857	-69.781986	41.253822
02954	9.143002	2.647851	2.053978	-0.004568	-0.001881	0.006822	52.168998	-69.785084	41.259871
02955	9.145153	2.660211	2.074326	-0.008355	-0.005762	0.006023	52.169997	-69.789409	41.259586
02956	9.156785	2.641039	2.085268	-0.011013	0.003224	0.001484	52.162264	-69.788297	41.266894
02957	9.188191	2.676909	2.059722	-0.012557	0.000458	0.002433	52.156627	-69.788810	41.271110
02958	9.143532	2.645583	2.054544	-0.008845	-0.003928	0.005562	52.155033	-69.792056	41.273200
02959	9.145571	2.658139	2.075142	-0.007998	0.000492	0.001913	52.152462	-69.792322	41.276933
02960	9.157097	2.639109	2.086342	-0.013047	0.002294	0.001973	52.144240	-69.791757	41.283520
02961	9.165308	2.652821	2.047535	-0.008148	-0.005580	0.008259	52.142978	-69.797027	41.285768
02962	9.137905	2.642005	2.114635	-0.003721	0.002539	0.003173	52.138650	-69.796919	41.293900
02963	9.126485	2.660240	2.103997	-0.013819	-0.004318	0.001601	52.138939	-69.798732	41.291023
02964	9.157693	2.636751	2.086709	-0.013894	-0.002123	0.005619	52.132174	-69.801370	41.295540
02965	9.138253	2.640363	2.115183	-0.006245	0.003441	0.003203	52.125724	-69.801176	41.304475
02966	9.136743	2.686178	2.086222	-0.015148	-0.005052	-0.001514	52.128659	-69.801618	41.297890
02967	9.177462	2.631368	2.059024	-0.016061	-0.005427	-0.000151	52.130684	-69.803023	41.291797
02968	9.146507	2.653984	2.076331	-0.004069	-0.001864	0.000978	52.133666	-69.803470	41.291926
02969	9.154627	2.668157	2.037375	-0.011784	-0.003382	0.001110	52.134417	-69.804725	41.289799
02970	9.144764	2.640290	2.055869	-0.010032	-0.000436	0.002401	52.130866	-69.805314	41.293249
02971	9.146775	2.652992	2.076418	-0.002458	-0.003142	0.002311	52.135518	-69.807028	41.292661
02972	9.168277	2.661613	2.068862	-0.015006	-0.000824	-0.001558	52.133379	-69.805962	41.291570
02973	9.154901	2.666924	2.037757	-0.006386	-0.000782	0.003246	52.131981	-69.807268	41.295031
02974	9.147021	2.651932	2.076691	-0.005689	-0.002437	0.005943	52.129991	-69.810162	41.299469
02975	9.137593	2.683036	2.086542	-0.012066	-0.001366	0.002889	52.126397	-69.811511	41.301801
02976	9.164869	2.633679	2.028269	-0.007997	0.000498	0.001912	52.123330	-69.811550	41.305977
02977	9.127744	2.654829	2.105373	-0.010239	-0.000612	0.000161	52.122463	-69.811399	41.306524
02978	9.137673	2.682250	2.087204	-0.012690	-0.001900	-0.003829	52.125149	-69.809685	41.301707
02979	9.164868	2.633227	2.028861	-0.012274	-0.001543	0.000648	52.123788	-69.810077	41.301530
02980	9.135739	2.668979	2.067036	-0.008413	0.000142	-0.002566	52.125204	-69.808216	41.300676
02981	9.166694	2.646168	2.049939	-0.010937	0.001045	-0.002537	52.124474	-69.806258	41.300646
02982	9.155104	2.664838	2.039575	-0.010937	0.001046	-0.002537	52.123304	-69.804092	41.301006
02983	9.178063	2.627477	2.061312	-0.005680	-0.000582	-0.000358	52.125506	-69.803692	41.301055
02984	9.147012	2.650176	2.078972	-0.010729	0.001224	-0.000298	52.122095	-69.802475	41.303930
02985	9.135446	2.668829	2.068524	-0.010655	-0.000965	-0.004319	52.125697	-69.800418	41.299456
02986	9.158374	2.631546	2.090283	-0.012971	0.000117	-0.002051	52.124039	-69.798799	41.299095
02987	9.137277	2.681775	2.089545	-0.011992	-0.003552	-0.001136	52.127005	-69.799090	41.294479
02988	9.168326	2.658888	2.072145	-0.007923	-0.001689	-0.002111	52.130517	-69.798079	41.291692
02989	9.144949	2.636987	2.059284	-0.012482	-0.001716	-0.001594	52.131380	-69.797515	41.289015
02990	9.146788	2.650041	2.080129	-0.011145	0.000873	-0.004777	52.132444	-69.794396	41.286868
02991	9.137078	2.681861	2.090307	-0.016335	-0.001542	-0.004680	52.133829	-69.792374	41.281282
02992	9.140727	2.611396	2.019366	-0.020537	0.004691	-0.008261	52.128148	-69.786337	41.280589
02993	9.165576	2.646666	2.054290	-0.008264	0.016689	-0.007197	52.114171	-69.776764	41.296303
02994	9.145531	2.651385	2.083941	-0.016044	0.008768	-0.011057	52.108735	-69.768028	41.298091
02995	9.143111	2.639129	2.064692	-0.014500	0.011536	-0.012000	52.102107	-69.758094	41.302173
02996	9.115318	2.688583	2.124778	-0.010016	0.013751	-0.008494	52.091581	-69.748762	41.313069
02997	9.185147	2.657947	2.051976	-0.022220	-0.002293	-0.007291	52.092983	-69.745822	41.303875
02998	9.140084	2.627490	2.047396	-0.009319	0.012094	-0.005798	52.082325	-69.738293	41.315338
02999	9.147309	2.679752	2.130851	-0.005814	0.007519	-0.004914	52.078843	-69.732974	41.321360
03000	9.131731	2.672803	2.079764	-0.021165	0.002313	-0.008694	52.076139	-69.727579	41.317109
03001	9.160663	2.637411	2.042372	-0.013875	0.001611	-0.006997	52.077252	-69.723396	41.313313
03002	9.131280	2.673378	2.081006	-0.005117	0.005859	-0.002218	52.073231	-69.719679	41.320269
03003	9.162193	2.650681	2.064180	-0.011426	0.002892	-0.003003	52.070372	-69.716850	41.322202
03004	9.148745	2.656238	2.033288	-0.007998	0.000500	0.001904	52.067329	-69.716883	41.326355
03005	9.121120	2.645405	2.100781	-0.004703	0.006208	0.002262	52.059251	-69.715267	41.337952
03006	9.142584	2.653881	2.093668	-0.012066	-0.001362	0.002872	52.055230	-69.716393	41.340662
03007	9.148817	2.655020	2.034556	-0.005127	0.003994	0.004080	52.047876	-69.716376	41.351232
03008	9.166020	2.674794	2.107455	-0.006877	0.001053	0.002781	52.043963	-69.716609	41.356998
03009	9.162297	2.648498	2.066519	-0.007998	0.000501	0.001903	52.041309	-69.716838	41.360816
03010	9.144704	2.665149	2.115392	-0.002742	-0.001136	0.004086	52.041195	-69.718433	41.365057
03011	9.164341	2.660646	2.087461	-0.006247	0.003442	0.003202	52.034703	-69.718211	41.374022
03012	9.141122	2.638231	2.074623	-0.004569	-0.001893	0.006809	52.031868	-69.721302	41.380047
03013	9.153137	2.678073	2.077042	-0.001905	0.001427	0.006747	52.026939	-69.723392	41.390004
03014	9.164806	2.658769	2.087811	-0.003656	-0.001514	0.005447	52.025463	-69.725734	41.395139
03015	9.132056	2.667901	2.084628	-0.003449	-0.001340	0.007687	52.022128	-69.729222	41.402440
03016	9.155251	2.629805	2.106097	-0.001904	0.001427	0.006747	52.016816	-69.731114	41.412734
03017	9.130617	2.653497	2.063891	-0.003100	-0.007400	0.008176	52.020617	-69.736958	41.412651
03018	9.132764	2.665747	2.084281	-0.003025	0.000876	0.005869	52.016172	-69.738648	41.421336
03019	9.144451	2.646423	2.094955	-0.002045	-0.002797	0.006780	52.016275	-69.742237	41.425835
03020	9.187544	2.663584	2.079785	-0.008421	-0.001709	0.003719	52.013952	-69.743868	41.428962
03021	9.131365	2.651161	2.063584	-0.004983	-0.002238	0.002329	52.015935	-69.745249	41.429660
03022	9.133373	2.663711	2.084217	-0.005266	-0.000227	0.004113	52.013230	-69.746535	41.435121
03023	9.176452	2.680873	2.069114	-0.008845	-0.003923	0.005536	52.011995	-69.749957	41.436893
03024	9.145293	2.643761	2.094640	-0.002676	-0.005185	0.006357	52.014696	-69.754004	41.438174
03025	9.153563	2.657783	2.055633	-0.007300	-0.001156	0.004597	52.011854	-69.756025	41.442599
03026	9.145676	2.642567	2.094479	-0.006811	-0.002992	0.005052	52.010748	-69.758710	41.445411
03027	9.132484	2.647750	2.063014	-0.004287	-0.003899	0.005023	52.012579	-69.761890	41.446707
03028	9.154116	2.656245	2.055158	-0.011012	-0.007206	-0.000245	52.019294	-69.763669	41.438618
03029	9.136608	2.672978	2.103694	-0.008139	-0.003716	0.001934	52.021650	-69.765390	41.437011
03030	9.154392	2.655528	2.054858	-0.011577	-0.003186	0.003324	52.019703	-69.767362	41.437809
03031	9.133016	2.646301	2.062516	-0.011360	-0.001144	-0.000732	52.019610	-69.766970	41.436813
03032	9.146369	2.640332	2.094269	-0.013742	0.003988	-0.000735	52.011515	-69.764580	41.442841
03033	9.144820	2.686403	2.065727	-0.014026	-0.004459	-0.000674	52.013895	-69.765383	41.437601
03034	9.148102	2.653195	2.115727	-0.017585	0.006045	-0.010119	52.010058	-69.758030	41.436745
03035	9.143978	2.627869	2.075188	-0.020392	-0.001493	-0.010031	52.014101	-69.753559	41.425822
03036	9.169098	2.662953	2.109059	-0.015560	-0.005351	-0.006035	52.021469	-69.752069	41.414259
03037	9.112671	2.651263	2.093020	-0.021306	-0.001868	-0.008672	52.024135	-69.748342	41.404257
03038	9.132008	2.647616	2.065291	-0.014995	0.001091	-0.007880	52.025701	-69.743747	41.399224
03039	9.135618	2.673729	2.107037	-0.017943	-0.000215	-0.006038	52.025746	-69.740625	41.394066
03040	9.123515	2.633585	2.105228	-0.029293	0.000522	-0.013070	52.024770	-69.733887	41.383010
03041	9.152617	2.658012	2.059545	-0.023538	-0.001083	-0.016730	52.032865	-69.726239	41.365869
03042	9.101484	2.685912	2.106024	-0.029491	0.002236	-0.021609	52.037813	-69.715039	41.348375
03043	9.133911	2.677276	2.109933	-0.041412	-0.005336	-0.020512	52.044449	-69.707178	41.321857
03044	9.170745	2.657493	2.033239	-0.031106	-0.008795	-0.018390	52.058858	-69.701317	41.293287
03045	9.131311	2.666439	2.089757	-0.027322	-0.004927	-0.017566	52.070235	-69.694639	41.270350
03046	9.162091	2.644852	2.072092	-0.036639	-0.015581	-0.020533	52.091775	-69.690193	41.230793
03047	9.181315	2.642015	2.043935	-0.023539	-0.001055	-0.016742	52.099779	-69.682520	41.213718
03048	9.120655	2.701216	2.100155	-0.020522	-0.003798	-0.016321	52.112133	-69.675826	41.193799
03049	9.149570	2.666576	2.062014	-0.030690	-0.008439	-0.013923	52.122358	-69.672022	41.169943
03050	9.160889	2.648587	2.072636	-0.019823	-0.005463	-0.013632	52.134576	-69.667127	41.150597
03051	9.141009	2.653398	2.101147	-0.019265	0.000982	-0.015466	52.141295	-69.659311	41.137528
03052	9.129171	2.672875	2.090884	-0.020528	-0.005675	-0.010034	52.149940	-69.656117	41.121561
03053	9.150496	2.682201	2.083344	-0.015554	-0.005323	-0.006060	52.157546	-69.654770	41.109790
03054	9.113733	2.666411	2.038838	-0.018500	-0.006633	-0.004222	52.163008	-69.654541	41.098456
03055	9.170007	2.678534	2.055008	-0.021233	-0.005886	-0.006435	52.168402	-69.653221	41.085594
03056	9.127115	2.660749	2.070035	-0.014434	-0.004773	-0.005182	52.174832	-69.651903	41.075712
03057	9.128935	2.673747	2.090799	-0.010652	-0.000912	-0.004348	52.178237	-69.649779	41.071420
03058	9.171821	2.691662	2.075631	-0.017307	-0.010140	-0.001084	52.185689	-69.652201	41.058692
03059	9.160243	2.650837	2.072615	-0.008760	-0.006098	0.001483	52.190980	-69.654537	41.053561
03060	9.107795	2.664258	2.097739	-0.010445	-0.000747	-0.002107	52.191868	-69.653195	41.052027
03061	9.170136	2.678351	2.054674	-0.013598	-0.002220	-0.002510	52.193435	-69.652361	41.047877
03062	9.148611	2.669476	2.062514	-0.004839	0.003877	-0.003992	52.193677	-69.648543	41.050459
03063	9.154145	2.708014	2.125055	-0.009817	0.001638	-0.001675	52.191909	-69.646732	41.052203
03064	9.148435	2.669505	2.063258	-0.012477	-0.001673	-0.001630	52.192311	-69.645932	41.049946
03065	9.128843	2.673330	2.091733	-0.002105	0.003131	-0.001780	52.193237	-69.643547	41.053520
03066	9.171559	2.691298	2.077261	-0.011714	0.004933	-0.001214	52.185623	-69.640615	41.060279
03067	9.159720	2.650570	2.075265	-0.002182	0.005295	0.002255	52.180041	-69.639294	41.070742
03068	9.099169	2.708671	2.132142	-0.000217	0.012180	-0.006774	52.175445	-69.631299	41.081309
03069	9.139681	2.654932	2.104982	-0.020604	-0.003489	-0.006013	52.177843	-69.629321	41.071979
03070	9.147468	2.670276	2.066546	-0.009527	0.001537	-0.009763	52.183715	-69.623712	41.065691
03071	9.150942	2.696536	2.108364	-0.008407	0.002083	-0.008881	52.189010	-69.618477	41.060791
03072	9.145227	2.658456	2.046178	-0.021785	-0.012315	-0.004626	52.199875	-69.620058	41.041683
03073	9.176459	2.695396	2.020550	-0.000281	0.003899	-0.004499	52.203464	-69.616168	41.043498
03074	9.139085	2.715959	2.098228	-0.002884	0.006972	-0.000434	52.197697	-69.612873	41.053685
03075	9.146852	2.671409	2.067808	-0.010029	-0.000420	0.002372	52.194480	-69.613610	41.056875
03076	9.170115	2.692906	2.081546	0.003630	0.010080	0.002618	52.185778	-69.610605	41.074176
03077	9.148636	2.683567	2.089745	-0.000855	0.006001	0.005381	52.177152	-69.610448	41.088670
03078	9.133340	2.676227	2.038364	-0.000855	0.006001	0.005380	52.168238	-69.610124	41.103455
03079	9.146773	2.669774	2.070268	-0.001348	0.007841	0.004932	52.157518	-69.609116	41.119942
03080	9.136992	2.701005	2.081269	-0.004288	0.008429	0.000476	52.148324	-69.605718	41.132928
03081	9.158104	2.650541	2.082422	-0.002676	0.007135	0.001807	52.140659	-69.603541	41.145336
03082	9.128803	2.685573	2.121462	0.000057	0.006385	0.004021	52.133093	-69.602464	41.159242
03083	9.167891	2.677658	2.065568	-0.008489	0.002350	0.001444	52.128254	-69.601803	41.165120
03084	9.169759	2.690104	2.086730	0.003702	0.006019	0.004875	52.122415	-69.601240	41.179412
03085	9.113440	2.677740	2.071091	0.002718	0.009698	0.003977	52.112672	-69.599141	41.197327
03086	9.159789	2.661666	2.106057	-0.003096	0.004913	0.003614	52.105478	-69.598396	41.208908
03087	9.148186	2.680067	2.096198	0.002718	0.009699	0.003977	52.095731	-69.596293	41.226799
03088	9.126642	2.670852	2.104464	-0.000642	0.008065	0.001329	52.088279	-69.593405	41.240157
03089	9.157781	2.707531	2.079793	-0.003374	0.008815	-0.000886	52.080718	-69.589412	41.252024
03090	9.126245	2.670843	2.106197	-0.001341	0.009743	-0.001362	52.073380	-69.584714	41.264833
03091	9.139398	2.665027	2.138355	-0.003580	0.008654	-0.003128	52.068029	-69.579763	41.274127
03092	9.114189	2.690044	2.097297	-0.010720	0.003162	-0.006618	52.068284	-69.575008	41.273100
03093	9.123583	2.659002	2.087775	-0.011419	0.004842	-0.009310	52.068910	-69.568603	41.271232
03094	9.103653	2.663419	2.116700	-0.012538	0.004298	-0.010193	52.070125	-69.561832	41.268070
03095	9.157665	2.663424	2.113057	-0.019542	0.003033	-0.013700	52.072426	-69.554079	41.259582
03096	9.165257	2.679244	2.075175	-0.015270	0.005052	-0.012410	52.073252	-69.546040	41.255164
03097	9.145144	2.683994	2.104428	-0.014428	0.009503	-0.016027	52.072825	-69.534957	41.252555
03098	9.131251	2.690812	2.074264	-0.012825	0.006304	-0.008403	52.069751	-69.528288	41.253794
03099	9.146099	2.698173	2.127197	-0.008759	0.008162	-0.009353	52.067908	-69.520694	41.256213
03100	9.130504	2.691942	2.076085	-0.011213	0.005009	-0.007072	52.066072	-69.515083	41.257118
03101	9.141671	2.673717	2.087642	-0.011778	0.010917	-0.009777	52.059567	-69.506325	41.262735
03102	9.142917	2.687297	2.109881	-0.010936	0.015370	-0.013392	52.051327	-69.494208	41.270644
03103	9.124508	2.704684	2.160400	-0.011357	0.013146	-0.011586	52.044087	-69.483847	41.277283
03104	9.141724	2.689078	2.112781	-0.013727	0.007834	-0.013343	52.043313	-69.474407	41.275515
03105	9.118009	2.668101	2.100477	-0.013029	0.006152	-0.010652	52.042673	-69.466930	41.274172
03106	9.138888	2.678088	2.094215	-0.014919	0.011362	-0.016485	52.039918	-69.454827	41.273790
03107	9.140103	2.691911	2.116185	-0.017997	0.005822	-0.014642	52.040568	-69.445663	41.267926
03108	9.127939	2.711711	2.106912	-0.013800	0.011910	-0.015602	52.036964	-69.433766	41.269135
03109	9.137010	2.681381	2.098191	-0.018564	0.011738	-0.017349	52.032710	-69.421293	41.268291
03110	9.114880	2.673570	2.107096	-0.017156	0.010286	-0.018261	52.031638	-69.408768	41.264742
03111	9.150760	2.690653	2.153088	-0.017156	0.010289	-0.018263	52.030790	-69.396395	41.261167
03112	9.105576	2.720144	2.140767	-0.022554	0.005815	-0.014155	52.028143	-69.387300	41.255995
03113	9.124690	2.717472	2.113552	-0.021974	0.001822	-0.017748	52.034211	-69.378142	41.241945
03114	9.149208	2.693538	2.156073	-0.010298	0.005411	-0.008442	52.033714	-69.371771	41.241979
03115	9.145329	2.727964	2.107697	-0.021362	0.002292	-0.011019	52.033252	-69.365485	41.235234
03116	9.141435	2.703006	2.066987	-0.018007	0.003922	-0.008362	52.030049	-69.359674	41.233439
03117	9.101763	2.710768	2.124404	-0.011782	0.010943	-0.009786	52.023543	-69.350894	41.239014
03118	9.134285	2.701759	2.128717	-0.023468	0.005441	-0.012806	52.019551	-69.342541	41.234719
03119	9.122130	2.721333	2.119626	-0.014093	0.013936	-0.013813	52.011911	-69.330885	41.240110
03120	9.146437	2.697479	2.162894	-0.017866	0.010080	-0.014670	52.007318	-69.320054	41.239886
03121	9.111114	2.695341	2.140220	-0.020026	0.004924	-0.014193	52.007415	-69.311403	41.233302
03122	9.132077	2.705246	2.133755	-0.017295	0.004167	-0.011973	52.007701	-69.303876	41.228213
03123	9.131514	2.706259	2.134883	-0.017155	0.010325	-0.018275	52.006789	-69.291477	41.224615
03124	9.107678	2.685609	2.122870	-0.018984	0.009549	-0.015562	52.003025	-69.280431	41.222821
03125	9.138255	2.723706	2.099043	-0.018070	0.009941	-0.016921	52.000776	-69.268777	41.219925
03126	9.135891	2.712021	2.079653	-0.018781	0.009706	-0.013320	51.994854	-69.258688	41.220563
03127	9.109317	2.713963	2.168572	-0.012190	0.010659	-0.014283	51.992661	-69.247973	41.221264
03128	9.095397	2.720982	2.138563	-0.019402	0.007324	-0.013764	51.989637	-69.238524	41.218422
03129	9.127804	2.712390	2.142952	-0.019186	0.009411	-0.017816	51.988212	-69.226653	41.214021
03130	9.113787	2.719625	2.113127	-0.012687	0.012510	-0.014732	51.983765	-69.214937	41.216816
03131	9.105050	2.705453	2.153228	-0.023744	0.009397	-0.017329	51.979293	-69.203291	41.212784
03132	9.112307	2.722095	2.116327	-0.021078	0.014655	-0.023653	51.975784	-69.186791	41.209433
03133	9.105022	2.721176	2.177551	-0.020582	0.012815	-0.023209	51.974513	-69.171283	41.204053
03134	9.102242	2.769572	2.151127	-0.022194	0.014124	-0.024548	51.971822	-69.154567	41.199141
03135	9.130905	2.736456	2.114393	-0.025961	0.010271	-0.025416	51.972530	-69.138962	41.188585
03136	9.108697	2.728837	2.123175	-0.014626	0.009455	-0.018319	51.973928	-69.126705	41.183936
03137	9.129282	2.739603	2.117320	-0.011759	0.014868	-0.022393	51.974509	-69.110838	41.181960
03138	9.120370	2.725812	2.157524	-0.019681	0.011285	-0.018282	51.970808	-69.097952	41.179669
03139	9.088290	2.749270	2.176712	-0.017153	0.010376	-0.018304	51.969832	-69.085517	41.176140
03140	9.089415	2.762917	2.198573	-0.017908	0.001814	-0.012450	51.972942	-69.078606	41.167644
03141	9.093714	2.753669	2.119262	-0.022346	0.006027	-0.011968	51.968267	-69.070562	41.164796
03142	9.129805	2.710824	2.172503	-0.014842	0.007379	-0.014277	51.968250	-69.060863	41.161529
03143	9.088028	2.765134	2.201518	-0.025612	0.000326	-0.012395	51.968812	-69.054638	41.151093
03144	9.064784	2.684718	2.195988	-0.030275	-0.001973	-0.018209	51.974598	-69.046465	41.132143
03145	9.085615	2.754187	2.181657	-0.030313	-0.010288	-0.015965	51.988256	-69.042373	41.104698
03146	9.106890	2.764053	2.174034	-0.035408	-0.016776	-0.013683	52.004363	-69.041462	41.071546
03147	9.101870	2.726690	2.110960	-0.033176	-0.015692	-0.011904	52.018990	-69.041100	41.041310
03148	9.126672	2.761351	2.144763	-0.031361	-0.016851	-0.008323	52.032570	-69.042631	41.013347
03149	9.105354	2.752218	2.151640	-0.036002	-0.012778	-0.010086	52.040469	-69.042057	40.988566
03150	9.136690	2.730316	2.133756	-0.026565	-0.008359	-0.008806	52.047226	-69.040374	40.970852
03151	9.113319	2.767996	2.112982	-0.026364	-0.008214	-0.006560	52.052007	-69.039782	40.955423
03152	9.138398	2.742967	2.154393	-0.023134	-0.010830	-0.003891	52.059121	-69.041189	40.939431
03153	9.125066	2.749141	2.123123	-0.019456	-0.002885	-0.005256	52.060386	-69.039309	40.932109
03154	9.116997	2.733735	2.161750	-0.016428	-0.005643	-0.004835	52.066092	-69.038462	40.921739
03155	9.105328	2.752455	2.151446	-0.014494	-0.002581	-0.001245	52.066159	-69.038290	40.918550
03156	9.125004	2.749048	2.123513	-0.017225	-0.001807	-0.003473	52.065631	-69.036706	40.914367
03157	9.095588	2.724322	2.169370	-0.013899	-0.006553	-0.004858	52.074032	-69.036297	40.902764
03158	9.126703	2.761618	2.144287	-0.018256	-0.006431	-0.002127	52.077129	-69.036949	40.894066
03159	9.125088	2.748896	2.123348	-0.015110	-0.004961	-0.001698	52.080066	-69.037411	40.887507
03160	9.117161	2.733177	2.161763	-0.010350	-0.004802	0.000066	52.083756	-69.038481	40.883024
03161	9.125261	2.748390	2.123261	-0.014292	-0.002437	0.001001	52.081689	-69.039270	40.882487
03162	9.125350	2.747922	2.123482	-0.007799	0.000639	0.004109	52.076705	-69.040252	40.888859
03163	9.107404	2.763308	2.172828	-0.005971	0.001433	0.001398	52.074468	-69.039857	40.893511
03164	9.097737	2.734814	2.190875	-0.013972	0.001934	0.003257	52.065202	-69.039997	40.900680
03165	9.117447	2.731078	2.163209	-0.007384	0.002884	0.002311	52.059586	-69.039498	40.907970
03166	9.119148	2.743274	2.184453	-0.009117	-0.000034	0.000966	52.057530	-69.039296	40.910398
03167	9.125467	2.746056	2.125393	-0.010732	0.001278	-0.000368	52.054356	-69.038153	40.912813
03168	9.094364	2.708481	2.150705	-0.009616	0.001814	0.000525	52.050241	-69.037100	40.917139
03169	9.127084	2.758198	2.147064	-0.006173	0.001295	-0.000852	52.050117	-69.035737	40.919243
03170	9.103909	2.736533	2.133780	-0.013367	-0.000068	-0.006652	52.052671	-69.032105	40.914126
03171	9.117119	2.730457	2.165376	0.002147	0.005162	-0.000451	52.052380	-69.029559	40.921762
03172	9.085673	2.752486	2.183562	-0.009319	-0.000171	-0.001283	52.052439	-69.028389	40.921801
03173	9.123276	2.733456	2.106792	-0.002911	0.006993	-0.000409	52.047056	-69.025217	40.931608
03174	9.105059	2.749217	2.156719	0.002881	0.011774	0.000013	52.038839	-69.020422	40.947997
03175	9.126210	2.758519	2.150365	-0.006555	0.007374	-0.001283	52.031716	-69.016718	40.957342
03176	9.104666	2.749238	2.158349	-0.000382	0.006078	-0.000430	52.028754	-69.013731	40.966101
03177	9.084741	2.752626	2.187261	-0.001582	0.009635	-0.003561	52.023894	-69.008194	40.976335
03178	9.105901	2.762013	2.180761	-0.009201	0.004060	-0.001275	52.019035	-69.005536	40.981715
03179	9.102461	2.736994	2.139357	-0.001615	0.001313	-0.001335	52.021937	-69.003943	40.983321
03180	9.072657	2.771610	2.178406	-0.008903	0.002075	-0.003082	52.021246	-69.001169	40.984418
03181	9.103923	2.749680	2.160921	-0.005259	0.001694	-0.002209	52.022405	-68.999044	40.985739
03182	9.093812	2.781043	2.171883	-0.007788	0.002610	-0.002189	52.020903	-68.996484	40.988390
03183	9.115371	2.731057	2.171967	-0.007490	0.000625	-0.003997	52.023677	-68.993926	40.986683
03184	9.103572	2.749957	2.162043	-0.003528	0.004612	-0.000862	52.021044	-68.991259	40.993160
03185	9.062404	2.743764	2.197970	-0.006471	0.003283	0.000953	52.016726	-68.989998	40.999729
03186	9.121439	2.734152	2.113830	-0.008605	0.000091	-0.004891	52.020199	-68.987106	40.996549
03187	9.081931	2.740683	2.170397	-0.010434	-0.000703	-0.002182	52.021162	-68.985832	40.994952
03188	9.083584	2.753151	2.191402	-0.014195	-0.004552	-0.003069	52.025219	-68.985399	40.987716
03189	9.121377	2.734148	2.114103	-0.018254	-0.006414	-0.002149	52.028394	-68.986155	40.979003
03190	9.103287	2.749938	2.163269	-0.007691	0.000491	-0.006246	52.033162	-68.982509	40.974997
03191	9.085159	2.765873	2.212406	-0.009636	-0.004534	-0.003551	52.040349	-68.981970	40.967469
03192	9.091502	2.769231	2.152789	-0.021503	-0.010134	-0.008892	52.052120	-68.980873	40.947484
03193	9.111241	2.766255	2.124196	-0.008637	-0.008229	-0.002672	52.063396	-68.982023	40.935988
03194	9.106575	2.775830	2.204144	-0.012069	-0.005735	-0.007590	52.074204	-68.979963	40.922825
03195	9.122967	2.747846	2.133796	-0.019484	-0.011173	-0.003062	52.083094	-68.981973	40.907304
03196	9.082038	2.741488	2.168930	-0.009233	-0.004260	0.000945	52.085969	-68.983249	40.904380
03197	9.103519	2.750542	2.161526	-0.010348	-0.004792	0.000050	52.089735	-68.984418	40.899633
03198	9.126750	2.771981	2.174836	-0.024457	-0.013429	-0.000791	52.096270	-68.988138	40.883445
03199	9.153270	2.712235	2.093903	-0.008617	-0.001877	0.001400	52.096372	-68.988893	40.883962
03200	9.072592	2.771407	2.178937	-0.006385	-0.000810	0.003189	52.094763	-68.989969	40.887588
03201	9.125460	2.758345	2.153769	-0.018051	-0.006267	0.000094	52.095827	-68.991681	40.881003
03202	9.090875	2.755033	2.129645	-0.008733	-0.006105	0.001382	52.100763	-68.993804	40.876178
03203	9.106067	2.760816	2.181585	-0.016022	-0.005334	-0.000367	52.102299	-68.994975	40.870610
03204	9.102855	2.735509	2.139581	-0.016436	-0.007579	0.001425	52.104519	-68.997636	40.863966
03205	9.134037	2.772586	2.114687	-0.012877	-0.003869	0.000068	52.105739	-68.998489	40.860689
03206	9.127842	2.768986	2.174066	-0.013790	-0.004266	0.001421	52.105577	-68.999983	40.858221
03207	9.111275	2.749936	2.100913	-0.013088	-0.005980	0.004108	52.105451	-69.003402	40.856030
03208	9.146132	2.752478	2.124872	-0.008203	0.000374	-0.000394	52.104689	-69.002442	40.857634
03209	9.113103	2.761801	2.121999	-0.002942	-0.001329	0.001813	52.107001	-69.003188	40.859418
03210	9.105210	2.745909	2.160291	-0.004674	-0.004240	0.000460	52.112913	-69.004238	40.856037
03211	9.091848	2.752187	2.129171	-0.012964	0.000230	-0.002163	52.111302	-69.002639	40.855337
03212	9.157929	2.733077	2.135403	-0.001413	0.001450	0.000916	52.111961	-69.001893	40.859585
03213	9.103464	2.733277	2.139841	-0.002731	0.000785	-0.002228	52.115615	-69.000070	40.859655
03214	9.126453	2.755079	2.153743	-0.006174	0.001305	-0.000853	52.115339	-68.998575	40.861983
03215	9.116363	2.786372	2.164768	-0.002116	0.003166	-0.001770	52.116109	-68.996119	40.865720
03216	9.103268	2.733255	2.140704	-0.004855	0.001970	0.002291	52.112925	-68.995812	40.871973
03217	9.105041	2.745245	2.161849	-0.007298	-0.001207	0.004541	52.110101	-68.997750	40.876304
03218	9.114836	2.772928	2.144448	-0.007501	-0.001339	0.002292	52.109298	-68.998607	40.878382
03219	9.072154	2.753970	2.159148	-0.005971	0.001439	0.001396	52.107009	-68.998194	40.883208
03220	9.146419	2.750049	2.126780	-0.006393	-0.002789	0.009476	52.101961	-69.002810	40.890512
03221	9.113644	2.758675	2.123745	-0.003451	-0.001461	0.007664	52.098763	-69.006246	40.897668
03222	9.104180	2.729762	2.141280	-0.003950	0.000388	0.007226	52.093431	-69.008726	40.906776
03223	9.104340	2.728977	2.141600	-0.005863	0.003688	0.007705	52.082756	-69.010372	40.920268
03224	9.127547	2.749832	2.155811	-0.003631	0.004750	0.009496	52.070381	-69.012341	40.937116
03225	9.082909	2.777439	2.143164	0.000225	0.006476	0.006331	52.061151	-69.012377	40.953061
03226	9.093021	2.745507	2.132783	-0.007096	-0.001071	0.006788	52.056130	-69.015171	40.959905
03227	9.106671	2.738143	2.163987	-0.004163	-0.001725	0.011265	52.049515	-69.020325	40.970523
03228	9.106854	2.737428	2.164122	-0.004855	0.001973	0.002290	52.046322	-69.020014	40.976784
03229	9.116623	2.765099	2.146960	-0.005566	0.001708	0.005892	52.039792	-69.021531	40.985941
03230	9.107034	2.736328	2.164755	-0.003536	0.002637	0.005434	52.033682	-69.022406	40.996137
03231	9.108880	2.748072	2.185925	-0.007097	-0.001069	0.006787	52.028727	-69.025306	41.002991
03232	9.115405	2.750599	2.126656	-0.005981	-0.000538	0.007682	52.022886	-69.028314	41.011396
03233	9.148663	2.740327	2.129676	-0.002538	-0.001061	0.006308	52.020983	-69.030999	41.017801
03234	9.096065	2.752421	2.155070	-0.001506	0.003566	0.004977	52.015356	-69.031338	41.028723
03235	9.097800	2.764376	2.176450	-0.006267	0.003426	0.003206	52.008846	-69.031029	41.037488
03236	9.065130	2.714003	2.180353	-0.000010	-0.001981	0.006287	52.009407	-69.033915	41.042702
03237	9.098064	2.763433	2.176546	-0.008618	-0.001863	0.001393	52.009463	-69.034655	41.042961
03238	9.085116	2.710029	2.151950	-0.011680	-0.007417	0.003180	52.012602	-69.038056	41.038253
03239	9.106475	2.778230	2.137660	-0.008534	-0.005958	0.003618	52.015472	-69.041241	41.035293
03240	9.129973	2.740089	2.157942	-0.011763	-0.003319	0.000954	52.015784	-69.042191	41.033561
03241	9.095376	2.736787	2.133947	-0.011062	-0.005035	0.003638	52.016096	-69.045058	41.031921
03242	9.075840	2.739471	2.162100	-0.009734	-0.002390	0.000496	52.016897	-69.045474	41.030911
03243	9.109035	2.729544	2.164899	-0.012796	-0.007943	0.002282	52.020891	-69.048753	41.024345
03244	9.105496	2.763900	2.116100	-0.013082	-0.003978	-0.002192	52.024122	-69.048515	41.018679
03245	9.132287	2.750803	2.178477	-0.006588	-0.000932	0.000935	52.024664	-69.048718	41.020013
03246	9.103943	2.751010	2.095113	-0.016440	-0.007548	0.001406	52.026871	-69.051364	41.013383
03247	9.107735	2.715991	2.143674	-0.002325	0.001054	0.002270	52.026289	-69.051471	41.017978
03248	9.120933	2.768540	2.168393	-0.007797	0.000652	0.004100	52.021293	-69.052442	41.024364
03249	9.129377	2.724202	2.136692	-0.012889	-0.005827	0.006341	52.019000	-69.056807	41.024928
03250	9.099938	2.757861	2.175780	-0.001504	0.003564	0.004979	52.013361	-69.057147	41.035862
03251	9.088634	2.716730	2.172452	-0.009328	-0.002123	0.004992	52.009993	-69.059600	41.039397
03252	9.119822	2.753816	2.147877	-0.004558	-0.000004	0.000478	52.010961	-69.059166	41.041383
03253	9.096827	2.731733	2.134237	-0.009328	-0.002123	0.004991	52.007579	-69.061616	41.045366
03254	9.131712	2.734043	2.158252	-0.004355	0.000128	0.002726	52.006436	-69.062151	41.049738
03255	9.130117	2.721197	2.137364	-0.010444	-0.002651	0.004094	52.003847	-69.064378	41.052111
03256	9.108941	2.711207	2.144604	-0.003451	-0.001459	0.007658	52.000547	-69.067700	41.059347
03257	9.132269	2.732125	2.158326	-0.000304	-0.000004	0.008098	51.996963	-69.070806	41.068674
03258	9.120758	2.750333	2.148364	-0.010324	0.001579	0.004120	51.989399	-69.071458	41.076259
03259	9.152172	2.727811	2.130666	0.003257	0.003697	0.006751	51.984698	-69.072642	41.089232
03260	9.101291	2.752230	2.177249	0.001846	0.005150	0.007668	51.976616	-69.073634	41.104836
03261	9.109639	2.707963	2.145737	-0.006182	-0.000665	0.005430	51.972882	-69.075764	41.111322
03262	9.119491	2.735530	2.128576	0.000729	0.004622	0.006771	51.965608	-69.076537	41.125375
03263	9.121282	2.747340	2.149970	0.002760	0.005548	0.006315	51.958871	-69.076882	41.140522
03264	9.099979	2.737530	2.157511	-0.001006	0.001716	0.005414	51.955286	-69.078068	41.149562
03265	9.100016	2.737158	2.157829	0.004587	0.006342	0.003611	51.951129	-69.076903	41.163024
03266	9.133007	2.727322	2.161276	-0.002204	0.005284	0.002295	51.945527	-69.075421	41.173488
03267	9.080263	2.739680	2.187092	0.000029	0.006341	0.004087	51.938353	-69.074479	41.186977
03268	9.119588	2.733280	2.131050	-0.001411	0.001453	0.000917	51.939000	-69.073728	41.191237
03269	9.101838	2.689109	2.187018	-0.002325	0.001056	0.002269	51.938368	-69.073824	41.196241
03270	9.091945	2.720150	2.197931	-0.007705	-0.001455	0.000035	51.939653	-69.073702	41.195957
03271	9.100024	2.735820	2.159488	-0.012587	-0.005815	-0.001763	51.944937	-69.074399	41.188370
03272	9.100138	2.735579	2.159316	-0.011267	-0.005154	0.001381	51.947304	-69.076191	41.184743
03273	9.102072	2.747586	2.179847	-0.012008	-0.011760	0.000892	51.957508	-69.080191	41.172107
03274	9.122003	2.744136	2.151001	-0.010272	-0.008853	0.002250	51.964012	-69.083680	41.164662
03275	9.132183	2.712373	2.139752	-0.010567	-0.006871	0.004063	51.966316	-69.087375	41.161443
03276	9.122625	2.742882	2.149962	-0.008871	-0.012290	0.007613	51.972731	-69.094497	41.154953
03277	9.089930	2.751901	2.146338	-0.009359	-0.008453	0.000897	51.980562	-69.097333	41.146551
03278	9.113426	2.713896	2.166095	-0.015856	-0.011487	-0.002234	51.991133	-69.099726	41.131329
03279	9.119822	2.717372	2.106196	-0.016557	-0.009766	-0.004917	52.001737	-69.100389	41.115431
03280	9.109965	2.748571	2.116832	-0.010851	-0.002902	-0.000406	52.003338	-69.100579	41.112879
03281	9.103752	2.744990	2.176101	-0.015938	-0.007386	-0.004456	52.011038	-69.100604	41.100686
03282	9.092359	2.704321	2.172347	-0.016028	-0.005276	-0.000393	52.012469	-69.101636	41.095142
03283	9.113873	2.713312	2.164943	-0.019794	-0.009102	-0.001299	52.017085	-69.103695	41.083569
03284	9.039844	2.716765	2.197223	-0.018579	-0.008693	-0.010748	52.030660	-69.101254	41.063462
03285	9.100449	2.720491	2.133157	-0.028932	-0.013438	-0.010725	52.043885	-69.100588	41.037600
03286	9.123581	2.742540	2.146338	-0.023877	-0.015286	-0.010772	52.062242	-69.100457	41.009124
03287	9.123562	2.743039	2.145781	-0.024873	-0.011583	-0.011638	52.076417	-69.098714	40.984676
03288	9.141432	2.728068	2.096154	-0.024464	-0.011324	-0.007143	52.086399	-69.098822	40.964805
03289	9.103950	2.746588	2.173253	-0.017877	-0.010401	-0.008075	52.099913	-69.098278	40.946878
03290	9.088776	2.741231	2.120712	-0.024669	-0.011446	-0.009394	52.111996	-69.097408	40.924631
03291	9.123635	2.744131	2.144074	-0.019203	-0.013042	-0.004944	52.124978	-69.099198	40.904777
03292	9.122045	2.731733	2.122503	-0.017263	-0.010014	-0.001333	52.132185	-69.101467	40.892293
03293	9.123907	2.743849	2.143280	-0.016231	-0.005390	-0.002649	52.135700	-69.101604	40.884187
03294	9.130220	2.747254	2.083671	-0.017058	-0.009885	0.000914	52.140805	-69.104844	40.874079
03295	9.102819	2.733941	2.150070	-0.011967	-0.003415	-0.001308	52.143202	-69.104897	40.870581
03296	9.104687	2.746042	2.170855	-0.021526	-0.011980	-0.002678	52.151540	-69.107247	40.854272
03297	9.136066	2.724133	2.152348	-0.020700	-0.007480	-0.006242	52.158290	-69.106494	40.840800
03298	9.120947	2.718366	2.100032	-0.017556	-0.008030	0.000480	52.161315	-69.108885	40.832613
03299	9.126336	2.754986	2.162919	-0.011674	-0.005386	-0.003129	52.167903	-69.108809	40.823964
03300	9.136455	2.723484	2.151519	-0.020616	-0.013573	0.002244	52.174127	-69.113944	40.810477
03301	9.142829	2.726771	2.091746	-0.009234	-0.004213	0.000915	52.176989	-69.115283	40.807463
03302	9.125128	2.741609	2.140947	-0.006999	-0.003166	0.002710	52.178244	-69.116972	40.807645
03303	9.070942	2.741295	2.145126	-0.015734	-0.009227	0.004053	52.180439	-69.121493	40.801159
03304	9.073063	2.693758	2.172449	-0.012054	0.000692	-0.003519	52.179959	-69.119008	40.800098
03305	9.088015	2.758999	2.218140	-0.021645	-0.014185	-0.009007	52.196667	-69.119356	40.774795
03306	9.112058	2.747954	2.108613	-0.027439	-0.018921	-0.009471	52.216126	-69.121062	40.742959
03307	9.110421	2.735878	2.086751	-0.019204	-0.013010	-0.004965	52.229107	-69.122817	40.722824
03308	9.135473	2.769793	2.120871	-0.016676	-0.013936	-0.004991	52.244699	-69.124797	40.701727
03309	9.145545	2.738693	2.109103	-0.019204	-0.013006	-0.004967	52.257662	-69.126539	40.681898
03310	9.132234	2.745203	2.077540	-0.009644	-0.006457	0.002690	52.261338	-69.129373	40.677867
03311	9.108584	2.756033	2.185862	-0.007116	-0.007385	0.002664	52.267531	-69.132601	40.673610
03312	9.136262	2.768766	2.118811	-0.014819	-0.008820	0.002696	52.271048	-69.136267	40.666576
03313	9.090345	2.724740	2.090758	-0.007406	-0.007417	0.010762	52.269674	-69.143174	40.668931
03314	9.099882	2.725513	2.201963	-0.006790	-0.003040	0.004957	52.268839	-69.145837	40.671478
03315	9.073232	2.738342	2.139204	-0.017087	-0.018179	0.003057	52.281869	-69.153043	40.652180
03316	9.106630	2.728427	2.140917	-0.021854	-0.016284	-0.004991	52.297326	-69.155839	40.628058
03317	9.095175	2.747351	2.129883	-0.017709	-0.018539	-0.003694	52.316626	-69.160096	40.602333
03318	9.149915	2.747052	2.124019	-0.023503	-0.023267	-0.004163	52.338712	-69.165708	40.570108
03319	9.148522	2.734585	2.101510	-0.017912	-0.020661	0.000327	52.356770	-69.172532	40.545763
03320	9.158518	2.762469	2.083255	-0.005497	-0.008708	0.003983	52.364340	-69.176739	40.540110
03321	9.139419	2.764490	2.110766	-0.003873	-0.012044	0.011581	52.369821	-69.185649	40.537030
03322	9.163339	2.725439	2.130044	0.003159	-0.002575	0.012994	52.366740	-69.191798	40.548077
03323	9.138562	2.749923	2.088627	0.003867	-0.004302	0.015668	52.363618	-69.199847	40.560215
03324	9.143078	2.713287	2.136214	0.004164	-0.008278	0.020116	52.361353	-69.211223	40.571003
03325	9.110701	2.721131	2.132866	0.008550	-0.002097	0.021507	52.352899	-69.221155	40.591068
03326	9.091878	2.722280	2.160403	0.009219	-0.010134	0.020059	52.355788	-69.233154	40.599440
03327	9.112144	2.717914	2.130805	-0.002671	-0.015611	0.014678	52.363365	-69.244718	40.595226
03328	9.142019	2.741997	2.083915	0.003625	-0.012732	0.015567	52.370306	-69.255588	40.595837
03329	9.135067	2.724215	2.120666	0.001481	-0.019869	0.022243	52.378359	-69.272065	40.593836
03330	9.134108	2.710135	2.098172	0.007813	-0.008676	0.020978	52.377837	-69.283972	40.604992
03331	9.132904	2.755402	2.069971	0.010470	-0.007388	0.027268	52.371395	-69.298359	40.623861
03332	9.172483	2.720868	2.141134	0.011582	-0.004865	0.021892	52.367588	-69.309348	40.640834
03333	9.157849	2.713424	2.088275	0.009972	-0.005533	0.026840	52.358996	-69.322890	40.662336
03334	9.094495	2.683474	2.109607	0.015975	0.001315	0.023277	52.348963	-69.332342	40.688651
03335	9.108507	2.734423	2.134180	0.008060	-0.000228	0.021067	52.338242	-69.341416	40.711283
03336	9.126643	2.717791	2.084488	0.002252	-0.002952	0.014334	52.333756	-69.348303	40.723265
03337	9.119300	2.700405	2.122432	0.008138	-0.002322	0.016995	52.329358	-69.356260	40.739451
03338	9.129368	2.727721	2.104808	0.006802	-0.000971	0.007581	52.331361	-69.359390	40.747283
03339	9.127784	2.714700	2.083517	-0.001604	-0.002661	0.011218	52.327147	-69.364842	40.756321
03340	9.120253	2.697737	2.121734	0.010785	0.002959	0.010742	52.323755	-69.368029	40.772356
03341	9.143734	2.718419	2.135530	0.006229	0.002977	0.011224	52.317239	-69.371513	40.788393
03342	9.163446	2.714572	2.107385	0.006852	0.005347	0.011695	52.307824	-69.374295	40.808455
03343	9.111192	2.726226	2.133207	0.013234	0.004128	0.014781	52.300602	-69.378983	40.829613
03344	9.127205	2.697839	2.062797	0.003079	0.001544	0.010781	52.294449	-69.382681	40.843879
03345	9.164190	2.711673	2.107880	0.009506	0.008634	0.011711	52.282552	-69.384410	40.868425
03346	9.129385	2.708369	2.084745	0.006771	0.009442	0.009492	52.270193	-69.384753	40.891581
03347	9.123494	2.703812	2.144746	0.011536	0.009552	0.011255	52.258750	-69.385941	40.916245
03348	9.102208	2.693756	2.152644	0.004740	0.008529	0.009945	52.245904	-69.386806	40.938679
03349	9.143160	2.699302	2.117646	0.002501	0.007488	0.008152	52.234637	-69.387303	40.958055
03350	9.110180	2.708501	2.115466	0.003698	0.005908	0.004980	52.228979	-69.386837	40.972169
03351	9.135298	2.682458	2.156991	-0.003308	0.004758	0.001423	52.223931	-69.385237	40.981955
03352	9.127710	2.692945	2.066955	-0.008411	0.000305	-0.002633	52.225186	-69.383289	40.981272
03353	9.129469	2.705176	2.088519	0.001378	0.008958	0.000986	52.218189	-69.380022	40.995525
03354	9.119555	2.736354	2.100316	-0.002892	0.007001	-0.000353	52.212421	-69.376755	41.005724
03355	9.150525	2.714421	2.082685	-0.005132	0.005960	-0.002147	52.208231	-69.373121	41.013322
03356	9.109392	2.708213	2.119226	0.002417	0.013572	-0.000320	52.197578	-69.367561	41.031992
03357	9.128690	2.705156	2.091945	-0.002060	0.009498	0.002363	52.186689	-69.364721	41.047575
03358	9.120745	2.688741	2.131016	-0.000860	0.005927	0.005462	52.177965	-69.364462	41.062179
03359	9.122479	2.700823	2.152816	-0.000446	0.010161	-0.002584	52.171838	-69.359155	41.074365
03360	9.108788	2.707736	2.122429	-0.012056	0.000719	-0.003506	52.171325	-69.356667	41.073339
03361	9.118387	2.676633	2.111931	-0.003101	0.006877	-0.002601	52.167607	-69.352491	41.080138
03362	9.119937	2.748692	2.127633	-0.006539	0.009408	-0.007494	52.163542	-69.345144	41.086287
03363	9.127553	2.705601	2.096327	-0.013670	0.002048	-0.004831	52.161686	-69.341672	41.086031
03364	9.121246	2.702055	2.156491	-0.007450	0.009015	-0.006144	52.156317	-69.335074	41.093015
03365	9.109330	2.721453	2.147204	-0.011352	0.000990	-0.007105	52.159150	-69.330935	41.089168
03366	9.148145	2.716013	2.091047	-0.012967	0.002320	-0.008429	52.160781	-69.325656	41.085293
03367	9.126518	2.707109	2.098883	-0.011640	0.002966	-0.005285	52.159384	-69.321645	41.085116
03368	9.147714	2.716581	2.092196	-0.013670	0.002051	-0.004833	52.157585	-69.318087	41.084477
03369	9.106698	2.710346	2.128058	-0.012183	-0.003497	-0.003557	52.162014	-69.317131	41.078461
03370	9.159014	2.698036	2.103053	-0.011305	0.009309	-0.009262	52.156995	-69.309019	41.082712
03371	9.096406	2.742201	2.140472	-0.015205	-0.000712	-0.003958	52.156730	-69.306905	41.079886
03372	9.156744	2.686350	2.083162	-0.017028	0.000495	-0.007528	52.157378	-69.302675	41.074574
03373	9.125313	2.708617	2.102174	-0.006956	0.007172	-0.005718	52.154021	-69.296988	41.079977
03374	9.119007	2.705095	2.162139	-0.014501	-0.000438	-0.007556	52.157258	-69.293073	41.073446
03375	9.126679	2.721617	2.124280	-0.016116	0.000894	-0.008880	52.159124	-69.288167	41.066906
03376	9.116713	2.693658	2.142029	-0.014789	0.001538	-0.005735	52.158135	-69.284382	41.064715
03377	9.126134	2.722465	2.125537	-0.015286	0.005390	-0.012430	52.158384	-69.276288	41.061210
03378	9.106199	2.726257	2.154380	-0.015747	-0.003172	-0.014776	52.170873	-69.270067	41.044022
03379	9.125431	2.724191	2.126343	-0.022622	-0.002093	-0.012027	52.175489	-69.264783	41.029991
03380	9.125065	2.724920	2.126979	-0.019555	0.003442	-0.013778	52.176950	-69.256689	41.022259
03381	9.122839	2.713534	2.106567	-0.017443	0.000262	-0.012032	52.181721	-69.250579	41.012597
03382	9.104856	2.729181	2.156354	-0.021006	-0.003418	-0.010708	52.187693	-69.246284	40.999153
03383	9.137684	2.719875	2.159441	-0.019057	-0.000407	-0.007088	52.187753	-69.242649	40.993697
03384	9.100793	2.705534	2.115009	-0.021295	-0.001442	-0.008887	52.189505	-69.238484	40.984587
03385	9.143393	2.724519	2.100743	-0.016655	-0.005559	-0.007167	52.197150	-69.236617	40.971902
03386	9.123732	2.727685	2.129151	-0.010855	-0.000840	-0.006692	52.202127	-69.233233	40.965740
03387	9.143110	2.725081	2.101248	-0.022495	0.000136	-0.005716	52.198259	-69.230016	40.961537
03388	9.110013	2.734700	2.098897	-0.007705	-0.001414	0.000025	52.199505	-69.229875	40.961296
03389	9.102099	2.718505	2.137307	-0.010647	-0.000717	-0.004445	52.202242	-69.227524	40.957638
03390	9.101995	2.718656	2.137555	-0.020590	-0.003164	-0.006220	52.203976	-69.225169	40.948979
03391	9.121359	2.716127	2.109631	-0.014998	0.001435	-0.007991	52.204942	-69.220461	40.944592
03392	9.122962	2.728704	2.131146	-0.019887	-0.002882	-0.009819	52.210068	-69.216378	40.932735
03393	9.132533	2.698119	2.120397	-0.023119	-0.000211	-0.012466	52.212496	-69.210227	40.921876
03394	9.132161	2.758143	2.114755	-0.014625	-0.004632	-0.007625	52.220688	-69.207751	40.909964
03395	9.110762	2.689694	2.128181	-0.011851	0.002873	-0.007542	52.221335	-69.202746	40.907597
03396	9.112190	2.761759	2.143840	-0.015620	-0.000927	-0.008472	52.225316	-69.198586	40.899579
03397	9.108431	2.737765	2.101768	-0.015327	-0.004910	-0.004031	52.230008	-69.197905	40.891134
03398	9.100527	2.721555	2.140118	-0.008410	0.000323	-0.002649	52.231249	-69.195943	40.890466
03399	9.047924	2.733968	2.165870	-0.017356	-0.005824	-0.003584	52.235450	-69.195781	40.880154
03400	9.141472	2.728173	2.104357	-0.026012	-0.013936	-0.006348	52.247020	-69.197146	40.857646
03401	9.108441	2.737969	2.101454	-0.019181	-0.004601	-0.007156	52.251982	-69.194926	40.847003
03402	9.100483	2.721878	2.139891	-0.017442	-0.001716	-0.005778	52.253365	-69.192261	40.840647
03403	9.143193	2.740581	2.125546	-0.024562	-0.009078	-0.003146	52.256916	-69.193441	40.827908
03404	9.129745	2.747397	2.094404	-0.021622	-0.007761	-0.004943	52.262340	-69.193274	40.814666
03405	9.114121	2.714579	2.170837	-0.018556	-0.004246	-0.000413	52.261049	-69.193997	40.811039
03406	9.122085	2.730560	2.132521	-0.022945	-0.010408	-0.001829	52.265998	-69.196169	40.797495
03407	9.139912	2.715511	2.082791	-0.024562	-0.009068	-0.003152	52.269536	-69.197339	40.785150
03408	9.135818	2.723221	2.163114	-0.011681	-0.005316	-0.003165	52.276102	-69.197120	40.776781
03409	9.112532	2.761086	2.143255	-0.024353	-0.008949	-0.000905	52.277527	-69.199260	40.766352
03410	9.140189	2.714847	2.082443	-0.018556	-0.004238	-0.000417	52.276332	-69.199908	40.762071
03411	9.132236	2.757796	2.114887	-0.009443	-0.004285	-0.001364	52.281199	-69.200217	40.756337
03412	9.120773	2.717178	2.110811	-0.014498	-0.002408	-0.001310	52.280971	-69.199819	40.753509
03413	9.122591	2.729176	2.132125	-0.015826	-0.003035	-0.004462	52.283571	-69.198295	40.746997
03414	9.108940	2.736275	2.101501	-0.013675	0.002098	-0.004845	52.281699	-69.194715	40.746432
03415	9.112592	2.701171	2.150090	-0.012974	0.002386	-0.008443	52.283102	-69.189473	40.742927
03416	9.122030	2.729991	2.133484	-0.019681	-0.002720	-0.007588	52.286063	-69.186339	40.733510
03417	9.119934	2.718433	2.112823	-0.016829	0.002701	-0.011568	52.287739	-69.179564	40.727497
03418	9.119591	2.719032	2.113530	-0.016620	0.002815	-0.009319	52.287446	-69.173705	40.723437
03419	9.144224	2.753096	2.149531	-0.019856	0.005496	-0.011961	52.284411	-69.165771	40.719893
03420	9.117049	2.708114	2.094010	-0.018150	0.000052	-0.008458	52.285737	-69.161271	40.713163
03421	9.139911	2.730100	2.108635	-0.009416	0.006075	-0.009755	52.285973	-69.154140	40.712976
03422	9.100421	2.736124	2.166255	-0.010124	0.007817	-0.012423	52.286302	-69.145120	40.712234
03423	9.117679	2.722298	2.117575	-0.016829	0.002711	-0.011574	52.288010	-69.138362	40.706747
03424	9.120972	2.746906	2.160685	-0.008089	0.006702	-0.006604	52.285479	-69.132371	40.710312
03425	9.107121	2.754288	2.130604	-0.012645	0.006726	-0.006133	52.279751	-69.126651	40.714963
03426	9.108820	2.707213	2.158458	-0.011325	0.009385	-0.009246	52.274612	-69.118523	40.719336
03427	9.086825	2.757776	2.161056	-0.016910	0.004789	-0.007496	52.269986	-69.112859	40.719273
03428	9.119562	2.748596	2.164481	-0.017737	0.002316	-0.010232	52.270477	-69.106761	40.713688
03429	9.138778	2.746518	2.136841	-0.015501	0.003341	-0.008427	52.269230	-69.101182	40.711072
03430	9.118957	2.749478	2.165913	-0.017529	0.002428	-0.007984	52.267640	-69.096064	40.707841
03431	9.113198	2.714038	2.103081	-0.014799	0.003638	-0.012025	52.269761	-69.088756	40.702471
03432	9.129921	2.731797	2.177154	-0.015917	0.003128	-0.012930	52.272800	-69.081151	40.695274
03433	9.108104	2.723250	2.185184	-0.022299	0.004388	-0.016034	52.273400	-69.071765	40.686790
03434	9.119605	2.733173	2.067662	-0.018327	0.008290	-0.012837	52.268851	-69.062392	40.686237
03435	9.112971	2.729711	2.128268	-0.014687	0.009906	-0.018226	52.269264	-69.050073	40.682711
03436	9.114140	2.742887	2.150594	-0.012360	0.006819	-0.014238	52.271156	-69.040581	40.678922
03437	9.121469	2.760225	2.113510	-0.014474	0.007974	-0.009712	52.266225	-69.032815	40.681042
03438	9.113171	2.744302	2.152895	-0.008683	0.012683	-0.009205	52.258689	-69.023548	40.689605
03439	9.081422	2.766377	2.172747	-0.011120	0.009510	-0.007000	52.251353	-69.016456	40.696227
03440	9.094679	2.759546	2.204481	-0.016319	-0.001163	-0.004911	52.251879	-69.013990	40.691470
03441	9.120192	2.761536	2.117308	-0.008997	0.004268	0.001004	52.244625	-69.012359	40.699600
03442	9.114072	2.756822	2.177106	-0.004147	0.002283	-0.001297	52.244750	-69.010322	40.702743
03443	9.102308	2.775703	2.167682	-0.014787	-0.000438	0.000494	52.240212	-69.010113	40.704034
03444	9.098789	2.751348	2.125656	-0.012552	0.000584	0.002303	52.234235	-69.010303	40.708554
03445	9.112321	2.743881	2.157024	-0.012759	0.000479	0.000052	52.230159	-69.009563	40.711158
03446	9.130173	2.729035	2.107682	-0.011551	-0.003124	0.003136	52.228372	-69.011431	40.711804
03447	9.118515	2.747625	2.098201	-0.003115	0.004861	0.003694	52.221315	-69.010803	40.723097
03448	9.081151	2.764163	2.176692	-0.007879	0.004781	0.001909	52.213423	-69.009340	40.732536
03449	9.098968	2.749336	2.127493	-0.009523	-0.002208	0.002693	52.211982	-69.010749	40.733677
03450	9.130362	2.727398	2.108979	-0.007495	-0.001293	0.002252	52.211165	-69.011574	40.735773
03451	9.120483	2.758071	2.120567	-0.001204	0.001556	0.003181	52.209632	-69.011896	40.742453
03452	9.091256	2.731856	2.166238	-0.004030	0.006505	-0.001224	52.204778	-69.008408	40.751000
03453	9.132014	2.738849	2.131384	-0.002412	0.005161	0.000097	52.201109	-69.006064	40.760012
03454	9.141479	2.767282	2.115266	0.003085	0.011825	0.002445	52.190704	-69.002369	40.778873
03455	9.100388	2.760074	2.151782	-0.002589	0.011342	0.002004	52.177893	-68.998711	40.797037
03456	9.108368	2.716954	2.120173	0.005113	0.012741	0.002004	52.167984	-68.994491	40.816611
03457	9.088302	2.778707	2.144103	0.005527	0.012953	0.006505	52.153811	-68.992301	40.841936
03458	9.098133	2.747353	2.133617	-0.003206	0.008978	0.001513	52.144027	-68.989180	40.856270
03459	9.132831	2.749452	2.158383	0.010083	0.012928	0.006041	52.132939	-68.986786	40.879676
03460	9.099728	2.758405	2.156707	0.007056	0.013678	0.011912	52.113986	-68.986712	40.910132
03461	9.101523	2.769429	2.178970	0.007056	0.013679	0.011911	52.094864	-68.986687	40.940953
03462	9.109767	2.725490	2.147309	0.011819	0.013761	0.013698	52.076906	-68.987384	40.973268
03463	9.113395	2.748333	2.190634	0.007762	0.011933	0.014577	52.057822	-68.989183	41.004360
03464	9.100095	2.754309	2.160388	0.002881	0.007633	0.012717	52.042844	-68.991589	41.027995
03465	9.090545	2.724916	2.177930	0.008762	0.010270	0.009146	52.031299	-68.991526	41.050811
03466	9.100336	2.752558	2.161606	0.003380	0.005779	0.013134	52.018399	-68.994769	41.072526
03467	9.079215	2.742184	2.168878	0.006496	0.000912	0.009445	52.016241	-68.998126	41.085086
03468	9.110701	2.719843	2.150504	0.000941	0.004652	0.009072	52.006992	-68.999930	41.101392
03469	9.122262	2.759544	2.155264	0.007233	0.007502	0.010002	51.997011	-69.001221	41.122261
03470	9.071698	2.723433	2.208078	0.011291	0.009331	0.009122	51.988140	-69.001396	41.144514
03471	9.081500	2.751359	2.191409	-0.006794	-0.003037	0.004916	51.987159	-69.004095	41.147023
03472	9.097752	2.724478	2.120531	-0.002442	-0.003173	0.002203	51.991485	-69.005558	41.146711
03473	9.081846	2.750638	2.190880	0.002819	-0.004950	0.004409	51.998739	-69.008708	41.146557
03474	9.099862	2.736058	2.140743	-0.010383	-0.010971	-0.004203	52.013582	-69.010029	41.130108
03475	9.121360	2.745483	2.133093	0.000086	-0.004115	0.002181	52.020330	-69.011875	41.128886
03476	9.068902	2.757380	2.158243	-0.001445	-0.006884	0.003038	52.028832	-69.015023	41.124714
03477	9.135201	2.737730	2.163249	-0.009028	-0.004057	0.003106	52.029505	-69.017290	41.123971
03478	9.100557	2.734944	2.139213	0.000910	-0.001641	0.004918	52.031454	-69.019439	41.128262
03479	9.081138	2.736967	2.167418	-0.003647	-0.001612	0.005381	52.030202	-69.021858	41.133041
03480	9.081357	2.736389	2.167229	-0.010559	-0.006825	0.003963	52.032566	-69.025403	41.129850
03481	9.111059	2.702345	2.127267	-0.006999	-0.003142	0.002665	52.033676	-69.027129	41.130122
03482	9.083380	2.747761	2.188129	-0.007616	-0.003464	-0.004086	52.041167	-69.025853	41.123246
03483	9.095177	2.728607	2.197533	-0.018794	-0.012654	-0.000613	52.049712	-69.029438	41.108310
03484	9.101495	2.732983	2.137728	-0.012088	-0.007547	-0.001445	52.057027	-69.030794	41.098880
03485	9.144365	2.751571	2.123272	-0.009028	-0.004054	0.003104	52.057636	-69.033038	41.098578
03486	9.091956	2.763167	2.148693	-0.013705	-0.008245	0.003495	52.060308	-69.036870	41.093128
03487	9.135118	2.721854	2.139836	-0.008701	0.000275	0.005426	52.053857	-69.038635	41.100959
03488	9.123502	2.740396	2.130471	-0.003112	0.004869	0.003691	52.046952	-69.037936	41.112264
03489	9.062912	2.735718	2.194781	-0.013463	0.002246	-0.002624	52.042867	-69.035374	41.113485
03490	9.094120	2.714186	2.176401	-0.013910	-0.006303	-0.005020	52.050960	-69.034676	41.102103
03491	9.084127	2.745678	2.187641	-0.018793	-0.008550	-0.013144	52.066201	-69.031158	41.080303
03492	9.121437	2.729452	2.109190	-0.021355	-0.015941	-0.011019	52.086904	-69.031141	41.050849
03493	9.123130	2.742082	2.129893	-0.012501	-0.005703	-0.012213	52.101553	-69.027049	41.033861
03494	9.115099	2.726208	2.167672	-0.016059	-0.009382	-0.010920	52.117455	-69.024762	41.012796
03495	9.112954	2.774439	2.140763	-0.017470	-0.007928	-0.009992	52.129830	-69.022452	40.994819
03496	9.121036	2.731920	2.107730	-0.012500	-0.007748	-0.005954	52.141283	-69.021834	40.980703
03497	9.101406	2.734772	2.135818	-0.010059	-0.004575	-0.008153	52.152228	-69.019162	40.968482
03498	9.112728	2.775645	2.140158	-0.012380	-0.003526	-0.005879	52.158697	-69.017092	40.959778
03499	9.103013	2.747294	2.157026	-0.010145	-0.002509	-0.004067	52.163398	-69.015539	40.955487
03500	9.093343	2.718883	2.173783	-0.013909	-0.006293	-0.005026	52.171471	-69.014827	40.944126
03501	9.104749	2.759512	2.178075	-0.017555	-0.005856	-0.005909	52.177565	-69.013619	40.933438
03502	9.122567	2.745160	2.128341	-0.017759	-0.008012	-0.001900	52.182595	-69.014924	40.922973
03503	9.079898	2.726202	2.142449	-0.011263	-0.003014	-0.004975	52.188062	-69.013130	40.916344
03504	9.116249	2.800025	2.182118	-0.024259	-0.010951	-0.005089	52.195757	-69.014023	40.899036
03505	9.130745	2.702496	2.095106	-0.016645	-0.005445	-0.007257	52.203151	-69.012071	40.887579
03506	9.112634	2.776472	2.139488	-0.005674	-0.000475	-0.000444	52.204878	-69.011387	40.888068
03507	9.089589	2.754854	2.125284	-0.017551	-0.007904	0.000347	52.207650	-69.013722	40.880477
03508	9.101331	2.735574	2.135109	-0.018848	-0.000175	-0.004903	52.205556	-69.010914	40.876974
03509	9.104789	2.759387	2.178069	-0.012056	0.000807	-0.003553	52.204809	-69.008441	40.875813
03510	9.102905	2.747580	2.157119	-0.026876	-0.005878	-0.007244	52.206986	-69.006575	40.862810
03511	9.099235	2.723945	2.114847	-0.020584	-0.003039	-0.006306	52.208418	-69.004212	40.855185
03512	9.143589	2.754963	2.122216	-0.017438	-0.001620	-0.005838	52.209690	-69.001488	40.848942
03513	9.110322	2.764971	2.119984	-0.015825	-0.000908	-0.010778	52.215388	-68.996336	40.838528
03514	9.100550	2.736587	2.137140	-0.010731	0.001418	-0.000396	52.211943	-68.995010	40.841455
03515	9.125381	2.769791	2.172955	-0.017438	-0.001617	-0.005840	52.213021	-68.992340	40.836477
03516	9.121613	2.746307	2.130950	-0.016410	0.003009	-0.007102	52.210575	-68.987418	40.834847
03517	9.066965	2.746669	2.136155	-0.008500	0.004493	-0.004842	52.208692	-68.983067	40.837403
03518	9.103403	2.760947	2.181882	-0.012557	0.002671	-0.003969	52.205990	-68.979682	40.838413
03519	9.121011	2.746950	2.132695	-0.019672	-0.002623	-0.007659	52.208653	-68.976548	40.828701
03520	9.099458	2.737876	2.140138	-0.011561	0.001024	-0.009405	52.213428	-68.971281	40.822312
03521	9.110529	2.778854	2.145350	-0.014883	0.005783	-0.007953	52.209210	-68.965069	40.823891
03522	9.079262	2.741144	2.169997	-0.016618	0.002917	-0.009358	52.208811	-68.959158	40.819941
03523	9.080701	2.753611	2.191890	-0.018559	-0.000046	-0.013015	52.213944	-68.952692	40.809367
03524	9.123169	2.773098	2.178020	-0.023226	-0.006297	-0.006382	52.217883	-68.951363	40.796711
03525	9.098167	2.740234	2.142607	-0.021613	-0.005578	-0.011323	52.226258	-68.947616	40.780470
03526	9.111069	2.793074	2.168778	-0.017235	0.000563	-0.009857	52.228722	-68.942305	40.773072
03527	9.119114	2.750587	2.136116	-0.025253	-0.007202	-0.005951	52.231985	-68.941546	40.759842
03528	9.097640	2.741309	2.143472	-0.017235	0.000567	-0.009858	52.234441	-68.936232	40.752452
03529	9.087484	2.772529	2.155539	-0.008410	0.000381	-0.002677	52.235463	-68.934300	40.751528
03530	9.132368	2.743699	2.167645	-0.015016	-0.008836	0.000293	52.240999	-68.936884	40.742200
03531	9.058515	2.745584	2.200608	-0.017316	0.000549	0.000493	52.233831	-68.936330	40.745075
03532	9.060322	2.757221	2.221987	-0.027603	-0.012418	-0.007864	52.243800	-68.936476	40.723269
03533	9.138618	2.748281	2.108008	-0.031156	-0.016092	-0.006588	52.254704	-68.938544	40.698671
03534	9.117400	2.738679	2.114679	-0.013698	-0.006157	-0.002808	52.260672	-68.938783	40.689690
03535	9.121006	2.762127	2.157271	-0.017638	-0.003760	-0.001850	52.260504	-68.938674	40.685291
03536	9.107608	2.769053	2.126307	-0.020481	-0.009200	0.002089	52.261707	-68.942198	40.677251
03537	9.107807	2.768581	2.126069	-0.015517	-0.006969	-0.000124	52.264942	-68.943989	40.670026
03538	9.078885	2.741676	2.170901	-0.015309	-0.006874	0.002128	52.266337	-68.946714	40.664956
03539	9.110003	2.779416	2.146859	-0.019070	-0.010644	0.001151	52.270719	-68.950376	40.653761
03540	9.098861	2.738503	2.141871	-0.014399	-0.006463	0.000784	52.273379	-68.952349	40.647895
03541	9.108600	2.766860	2.124910	-0.019279	-0.010735	-0.001103	52.279797	-68.955018	40.635071
03542	9.097471	2.726074	2.119689	-0.018777	-0.012590	-0.000696	52.288518	-68.958467	40.620024
03543	9.161632	2.754320	2.098180	-0.010429	-0.002597	0.004012	52.285780	-68.960611	40.623198
03544	9.121005	2.746247	2.133627	-0.006574	-0.002950	0.007148	52.282989	-68.964236	40.627977
03545	9.089970	2.766839	2.152364	-0.008810	-0.003952	0.005329	52.281573	-68.967450	40.629339
03546	9.103688	2.759013	2.183138	-0.007200	-0.003228	0.000391	52.284909	-68.968110	40.627168
03547	9.111618	2.775501	2.145069	-0.010837	-0.004860	0.005762	52.283032	-68.971849	40.628253
03548	9.121732	2.744195	2.133158	-0.009436	-0.004229	-0.001429	52.287926	-68.972035	40.623040
03549	9.102280	2.746182	2.161531	-0.008611	-0.001778	0.001326	52.287704	-68.972670	40.623727
03550	9.123695	2.755518	2.154350	-0.007817	-0.005586	-0.000113	52.293926	-68.973928	40.618086
03551	9.121971	2.743605	2.132896	-0.010847	-0.002778	-0.000494	52.295278	-68.974096	40.615232
03552	9.092569	2.776327	2.173241	-0.008903	0.000173	0.003171	52.291093	-68.974824	40.620073
03553	9.110321	2.762074	2.123760	-0.010230	-0.000419	0.000008	52.289519	-68.974378	40.621950
03554	9.079129	2.783015	2.142767	-0.011547	-0.003093	0.003100	52.287735	-68.976219	40.622596
03555	9.122298	2.742080	2.133457	-0.013783	-0.004092	0.001280	52.287320	-68.977643	40.619805
03556	9.110681	2.760717	2.123981	-0.006165	-0.000683	0.005396	52.283683	-68.979679	40.625740
03557	9.104897	2.754850	2.183354	-0.007283	-0.001183	0.004486	52.280649	-68.981546	40.631203
03558	9.112765	2.771345	2.145570	-0.013167	-0.001732	0.001783	52.277533	-68.982312	40.632282
03559	9.144132	2.749532	2.126911	-0.010930	-0.000732	0.003602	52.272676	-68.983616	40.637262
03560	9.068495	2.739587	2.138752	-0.006583	-0.000866	0.000891	52.273123	-68.983674	40.638565
03561	9.112947	2.770258	2.146199	-0.014996	-0.000464	-0.001787	52.270575	-68.982456	40.637692
03562	9.121073	2.727611	2.113142	-0.011673	-0.005221	-0.003254	52.277025	-68.982163	40.629441
03563	9.122885	2.739281	2.134542	-0.008203	0.000494	-0.000425	52.275972	-68.981217	40.631445
03564	9.136162	2.791152	2.160630	-0.009635	-0.006396	0.002566	52.279665	-68.983974	40.627396
03565	9.101362	2.788685	2.136899	-0.009613	0.001944	0.000511	52.275215	-68.982933	40.632035
03566	9.113050	2.769467	2.146781	-0.006385	0.001311	-0.003110	52.276858	-68.980415	40.632178
03567	9.070374	2.750338	2.161041	-0.016229	-0.005174	-0.002798	52.280064	-68.980382	40.624599
03568	9.113002	2.769454	2.147001	-0.014704	-0.002408	-0.003636	52.281806	-68.978929	40.619530
03569	9.132435	2.767463	2.118726	-0.008120	-0.001543	-0.004526	52.286898	-68.976819	40.615415
03570	9.105181	2.752640	2.184953	-0.006908	-0.005169	-0.001463	52.294382	-68.977319	40.608980
03571	9.111227	2.757753	2.125487	-0.009018	-0.004038	0.003068	52.294986	-68.979527	40.608559
03572	9.132587	2.767133	2.118502	-0.008413	0.000406	-0.002678	52.296139	-68.977522	40.607983
03573	9.090005	2.747716	2.132732	-0.003635	-0.001634	0.005368	52.294917	-68.979938	40.612455
03574	9.111489	2.756793	2.125609	-0.005872	-0.002631	0.003547	52.295432	-68.981819	40.614121
03575	9.113444	2.768035	2.146959	-0.009519	-0.002178	0.002662	52.293947	-68.983202	40.616404
03576	9.111688	2.755979	2.125812	-0.001702	0.003398	0.002785	52.290433	-68.982625	40.624946
03577	9.104053	2.738487	2.163824	-0.011045	-0.004943	0.003498	52.290589	-68.985361	40.623755
03578	9.110172	2.743301	2.104441	-0.006781	-0.003039	0.004888	52.289841	-68.987993	40.626217
03579	9.135298	2.775743	2.140038	-0.002726	-0.001225	0.004025	52.289883	-68.989661	40.630516
03580	9.124133	2.734652	2.135147	-0.008599	-0.003855	0.007571	52.286606	-68.993795	40.634570
03581	9.114416	2.764815	2.146981	0.002656	0.001175	0.006326	52.284799	-68.995665	40.643909
03582	9.093294	2.754593	2.154032	-0.003426	-0.001544	0.007619	52.281712	-68.999011	40.650935
03583	9.122937	2.720874	2.113783	-0.003927	0.000315	0.007214	52.276324	-69.001582	40.660414
03584	9.052846	2.745683	2.189794	-0.002401	0.003080	0.006379	52.269495	-69.002744	40.672077
03585	9.107335	2.745052	2.185526	-0.014577	-0.000268	0.002714	52.262825	-69.003488	40.675789
03586	9.113409	2.749858	2.126364	-0.013074	-0.005843	0.003926	52.262655	-69.006667	40.673769
03587	9.127237	2.741851	2.156784	-0.007726	-0.009696	0.002024	52.271665	-69.010404	40.665657
03588	9.102111	2.768173	2.116066	-0.010137	-0.004528	0.002154	52.273246	-69.012319	40.663564
03589	9.114029	2.748601	2.125328	-0.007609	-0.005481	0.002126	52.277252	-69.014622	40.660816
03590	9.094698	2.750321	2.153560	-0.006991	-0.003124	0.002633	52.278540	-69.016262	40.660968
03591	9.118045	2.771000	2.167775	-0.007690	-0.003443	0.006227	52.276349	-69.019710	40.663818
03592	9.106943	2.729723	2.162738	-0.006979	-0.005212	0.008882	52.274398	-69.024914	40.667446
03593	9.136315	2.755552	2.117524	-0.004043	-0.003898	0.007110	52.274036	-69.028929	40.671510
03594	9.115316	2.745086	2.124353	-0.001595	-0.002815	0.011183	52.270227	-69.034335	40.680432
03595	9.136991	2.753661	2.117067	-0.003833	-0.003808	0.009361	52.267797	-69.039329	40.686476
03596	9.127766	2.723900	2.133360	-0.001595	-0.002814	0.011183	52.263981	-69.044734	40.695404
03597	9.118214	2.753687	2.145155	-0.000976	-0.000458	0.011690	52.257082	-69.049608	40.708098
03598	9.116661	2.741053	2.123789	0.001960	0.000854	0.009918	52.252114	-69.053153	40.720441
03599	9.099323	2.753896	2.173508	0.000433	-0.001908	0.010751	52.248608	-69.058117	40.730532
03600	9.107613	2.710561	2.140218	-0.001897	0.001223	0.006782	52.243862	-69.060111	40.740270
03601	9.097810	2.740862	2.152479	-0.001989	0.005348	0.004635	52.235976	-69.059758	40.753810
03602	9.129118	2.718964	2.133871	-0.000778	0.001720	0.007693	52.230445	-69.061989	40.765074
03603	9.109493	2.780090	2.157840	-0.005254	-0.000267	0.004050	52.227859	-69.063335	40.770059
03604	9.096380	2.727449	2.131567	-0.002016	-0.002990	0.006678	52.228124	-69.066759	40.774357
03605	9.100305	2.750182	2.174100	-0.001108	-0.002583	0.005337	52.229481	-69.069503	40.778193
03606	9.086927	2.757259	2.143009	-0.009640	-0.006377	0.002555	52.233170	-69.072249	40.774149
03607	9.137831	2.733330	2.095331	-0.017343	-0.007724	0.002531	52.233885	-69.075524	40.768863
03608	9.132087	2.727411	2.154562	-0.001198	0.001541	0.003190	52.232450	-69.075779	40.775483
03609	9.089232	2.767636	2.164118	-0.009231	-0.004109	0.000810	52.235111	-69.077007	40.772635
03610	9.130493	2.715041	2.132983	-0.010549	-0.006782	0.003894	52.237532	-69.080501	40.769390
03611	9.120808	2.745282	2.144899	-0.005543	0.001683	0.005899	52.230764	-69.081999	40.779080
03612	9.107422	2.752176	2.114079	-0.008311	-0.005788	0.005715	52.231619	-69.085969	40.778886
03613	9.121244	2.743988	2.144700	-0.007902	-0.003522	0.003971	52.231427	-69.088416	40.780238
03614	9.107801	2.750984	2.113999	-0.002395	0.003082	0.006380	52.224546	-69.089574	40.791954
03615	9.100294	2.733118	2.151825	-0.005573	-0.006654	0.007937	52.225787	-69.094929	40.792996
03616	9.100584	2.732448	2.151447	-0.008522	-0.005875	0.003462	52.228694	-69.097910	40.790476
03617	9.141641	2.739319	2.115598	-0.001516	-0.004849	0.007077	52.230904	-69.102239	40.793073
03618	9.110653	2.760138	2.134368	-0.004965	-0.002211	0.002200	52.232663	-69.103363	40.793963
03619	9.122542	2.740495	2.143648	-0.004255	-0.003981	0.004853	52.234299	-69.106370	40.794889
03620	9.099630	2.718685	2.128890	-0.004164	-0.008104	0.006998	52.239100	-69.111734	40.793013
03621	9.123178	2.739062	2.142772	-0.004952	-0.004298	0.008445	52.237413	-69.116484	40.798069
03622	9.123464	2.738315	2.142507	-0.006283	-0.004882	0.005283	52.238752	-69.119940	40.798600
03623	9.119970	2.714467	2.099388	-0.003755	-0.005838	0.005254	52.242521	-69.123788	40.798173
03624	9.112223	2.756317	2.132601	-0.000774	0.001719	0.007692	52.236959	-69.126020	40.809467
03625	9.124252	2.736253	2.141786	-0.007102	-0.009410	0.008766	52.239795	-69.132699	40.807975
03626	9.120723	2.712423	2.098756	-0.003436	0.000551	0.001369	52.239912	-69.132477	40.811559
03627	9.122685	2.723739	2.120195	-0.002726	-0.001219	0.004021	52.239902	-69.134140	40.815866
03628	9.122785	2.723299	2.120327	-0.005752	0.001598	0.003648	52.235350	-69.134582	40.823028
03629	9.093606	2.755793	2.160852	-0.005874	-0.002615	0.003540	52.235667	-69.136532	40.825641
03630	9.090011	2.732115	2.117903	-0.006495	-0.004968	0.003030	52.239060	-69.138998	40.823844
03631	9.111476	2.741277	2.110769	-0.004344	0.000145	0.002709	52.237717	-69.139590	40.827952
03632	9.127066	2.744900	2.163013	-0.002726	-0.001218	0.004021	52.237901	-69.141189	40.831900
03633	9.090380	2.730954	2.117816	-0.006994	-0.003109	0.002629	52.238966	-69.142880	40.832493
03634	9.123673	2.720504	2.120096	-0.004120	-0.001853	0.011203	52.232489	-69.147956	40.842714
03635	9.083131	2.712199	2.155656	-0.003013	0.000730	0.005871	52.228311	-69.149781	40.851416
03636	9.104545	2.721323	2.148790	-0.010231	-0.000379	0.000005	52.226894	-69.149267	40.852475
03637	9.124012	2.719070	2.120476	-0.011972	-0.003226	-0.001416	52.229003	-69.149182	40.848468
03638	9.114122	2.749967	2.132685	-0.011153	0.001304	-0.004898	52.229575	-69.145857	40.846835
03639	9.094498	2.752322	2.161522	-0.017661	-0.001573	-0.008113	52.232619	-69.142155	40.838321
03640	9.125455	2.731517	2.142708	-0.019613	-0.004506	-0.011786	52.241590	-69.137748	40.822511
03641	9.109849	2.727902	2.090548	-0.018480	-0.006100	-0.004634	52.246322	-69.137203	40.812283
03642	9.138593	2.784165	2.169278	-0.011576	0.001133	-0.009401	52.250995	-69.131897	40.806001
03643	9.165905	2.739818	2.107575	-0.022324	-0.007811	-0.001527	52.252696	-69.133357	40.796318
03644	9.101774	2.711219	2.129247	-0.001178	0.011968	-0.005079	52.246473	-69.126209	40.808072
03645	9.043035	2.717864	2.215616	-0.019370	0.003926	-0.011568	52.245149	-69.119001	40.803704
03646	9.110585	2.741346	2.114523	-0.031885	-0.003678	-0.017606	52.251434	-69.111666	40.783241
03647	9.148972	2.738388	2.058420	-0.019384	0.006026	-0.017813	52.253377	-69.100907	40.774723
03648	9.163827	2.743466	2.111860	-0.010229	0.012154	-0.014509	52.250427	-69.089421	40.777426
03649	9.089365	2.746531	2.146447	-0.018841	0.010414	-0.013200	52.243224	-69.079207	40.779315
03650	9.106322	2.733886	2.098082	-0.012757	0.013118	-0.014483	52.237668	-69.067395	40.783257
03651	9.101669	2.740788	2.180245	-0.019052	0.010333	-0.015455	52.232517	-69.056187	40.782529
03652	9.105127	2.735871	2.100681	-0.017052	0.002896	-0.013859	52.236031	-69.048244	40.774125
03653	9.118235	2.729095	2.132413	-0.013786	0.008504	-0.013260	52.234043	-69.038672	40.774295
03654	9.107861	2.760719	2.145505	-0.017341	0.004844	-0.012009	52.233387	-69.030884	40.770178
03655	9.119170	2.742194	2.155788	-0.017341	0.004845	-0.012010	52.232533	-69.023157	40.766539
03656	9.076151	2.723513	2.170740	-0.016920	0.005014	-0.007506	52.227796	-69.017349	40.767052
03657	9.077693	2.735628	2.192743	-0.026609	-0.005486	-0.015443	52.236985	-69.011701	40.746800
03658	9.085125	2.753723	2.155163	-0.028637	-0.006383	-0.015019	52.245856	-69.006488	40.725547
03659	9.063572	2.744802	2.162279	-0.030163	-0.009140	-0.014198	52.256150	-69.002675	40.701925
03660	9.088370	2.778321	2.197986	-0.041762	-0.016316	-0.021600	52.275225	-68.997960	40.661686
03661	9.115678	2.735136	2.135605	-0.046935	-0.018598	-0.021670	52.293897	-68.994077	40.618567
03662	9.130819	2.770899	2.059757	-0.044291	-0.015335	-0.021584	52.310323	-68.989016	40.579610
03663	9.111025	2.773771	2.088359	-0.025087	-0.002690	-0.016278	52.317787	-68.981995	40.562123
03664	8.984444	2.756730	2.275879	-0.028929	-0.004409	-0.013178	52.322434	-68.976915	40.545211
03665	8.956984	2.742443	2.341885	-0.071052	-0.031187	-0.041420	52.360035	-68.968448	40.466757
03666	9.119813	2.747848	2.074808	-0.103084	-0.055628	-0.055220	52.420847	-68.962188	40.344148
03667	8.989523	2.709652	2.217324	-0.064820	-0.032429	-0.050956	52.472043	-68.949776	40.255307
03668	8.935404	2.812837	2.362123	-0.103673	-0.045155	-0.080641	52.542985	-68.928217	40.121459
03669	9.107907	2.731126	2.085671	-0.166801	-0.089539	-0.088840	52.637162	-68.918354	39.923772
03670	9.054923	2.688065	2.113497	-0.108626	-0.044875	-0.095157	52.717613	-68.889942	39.776658
03671	9.048227	2.818760	2.185444	-0.122937	-0.053142	-0.098638	52.802224	-68.862785	39.615635
03672	9.136137	2.799702	2.078169	-0.150133	-0.079520	-0.104555	52.907608	-68.841903	39.416239
03673	9.188886	2.779387	1.947032	-0.121756	-0.054388	-0.101972	52.996723	-68.813457	39.251678
03674	9.154046	2.822507	2.068157	-0.090361	-0.026129	-0.084350	53.054721	-68.783210	39.139769
03675	9.142269	2.858435	2.080666	-0.094757	-0.032316	-0.075585	53.109321	-68.759136	39.028743
03676	9.191582	2.840755	2.032441	-0.088878	-0.025802	-0.058237	53.144297	-68.740673	38.942408
03677	9.179455	2.803577	2.027280	-0.068163	-0.012636	-0.047397	53.165755	-68.722697	38.883561
03678	9.129645	2.839166	2.098236	-0.055146	-0.000816	-0.036591	53.171381	-68.705557	38.849446
03679	9.135975	2.858995	2.062341	-0.058441	0.001756	-0.028832	53.165028	-68.691149	38.826682
03680	9.068161	2.834711	2.165694	-0.044122	0.001755	-0.023420	53.162310	-68.679167	38.808298
03681	9.106114	2.833448	2.109755	-0.053031	-0.004231	-0.024560	53.162338	-68.668787	38.781655
03682	9.156159	2.812972	2.062563	-0.057291	-0.006071	-0.025995	53.163508	-68.658312	38.750994
03683	9.122404	2.823124	2.061862	-0.025018	0.007916	-0.011899	53.154165	-68.649557	38.750831
03684	9.123884	2.834595	2.084687	-0.032975	0.000161	-0.008143	53.146249	-68.645128	38.744880
03685	9.111669	2.853652	2.076787	-0.022902	0.004442	0.000156	53.131602	-68.643093	38.751871
03686	9.115410	2.875056	2.121072	-0.015237	0.005529	0.010588	53.111089	-68.645404	38.770358
03687	9.074421	2.794160	2.138745	-0.016153	-0.001054	0.007621	53.100203	-68.648682	38.776958
03688	9.052386	2.843012	2.142798	-0.012421	-0.003498	0.004367	53.097353	-68.651246	38.778212
03689	9.114228	2.861225	2.100210	-0.015048	-0.006735	0.004237	53.096776	-68.654947	38.774789
03690	9.096226	2.802024	2.131828	-0.011519	-0.003070	0.003029	53.095118	-68.656750	38.775318
03691	9.100042	2.823970	2.175058	-0.015701	-0.006877	-0.002543	53.100208	-68.657356	38.766884
03692	9.117721	2.811403	2.124240	-0.014331	-0.014704	0.002567	53.110992	-68.662949	38.752325
03693	9.107771	2.841356	2.136578	-0.010618	-0.002641	0.001692	53.110333	-68.664050	38.751837
03694	9.094096	2.848899	2.105889	-0.015435	-0.009020	0.005950	53.110842	-68.669238	38.747631
03695	9.079923	2.811739	2.180571	-0.015047	-0.006729	0.004234	53.110243	-68.672927	38.745051
03696	9.054390	2.838215	2.140688	-0.018232	-0.014495	0.009791	53.112195	-68.681759	38.737576
03697	9.098246	2.797392	2.129288	-0.016850	-0.007579	0.006906	53.109201	-68.686963	38.736749
03698	9.088252	2.827127	2.142178	-0.014785	-0.000285	0.000427	53.104695	-68.686616	38.738326
03699	9.086423	2.815559	2.120962	-0.021361	-0.001120	0.001290	53.096471	-68.687021	38.740015
03700	9.126993	2.823807	2.085722	-0.016975	-0.003425	0.004812	53.090530	-68.689763	38.741785
03701	9.075598	2.773914	2.116095	-0.012578	0.009014	0.000351	53.076273	-68.686252	38.755033
03702	9.109417	2.835204	2.137731	-0.018565	0.004363	-0.002552	53.066776	-68.682940	38.759644
03703	9.109286	2.835077	2.138460	-0.019778	-0.000306	-0.003646	53.062826	-68.680792	38.758291
03704	9.098112	2.794592	2.133535	-0.010169	0.012206	-0.001775	53.048255	-68.675135	38.773512
03705	9.089397	2.836229	2.169493	-0.018520	0.010765	-0.008617	53.036416	-68.666891	38.780584
03706	9.136023	2.792664	2.078960	-0.018347	0.004413	-0.000297	53.025006	-68.664593	38.787384
03707	9.085126	2.813844	2.128782	0.004724	0.022836	0.002290	53.002774	-68.657196	38.819668
03708	9.076435	2.855202	2.164937	-0.016451	0.009468	-0.002801	52.988748	-68.652007	38.830443
03709	9.103791	2.812554	2.103235	-0.014725	0.012277	-0.001330	52.970957	-68.646590	38.846191
03710	9.045459	2.815546	2.190946	0.000556	0.025196	0.001026	52.944918	-68.637721	38.880328
03711	9.019118	2.843020	2.153419	-0.027504	0.006752	-0.005645	52.930097	-68.632239	38.885702
03712	9.100770	2.801401	2.086774	-0.027333	0.009003	-0.009619	52.916428	-68.624089	38.889400
03713	9.072649	2.844081	2.151488	-0.014041	0.012667	-0.004929	52.901784	-68.616882	38.901400
03714	9.084215	2.825168	2.161794	-0.027253	0.007058	-0.013767	52.894102	-68.607508	38.898717
03715	9.122352	2.823790	2.105950	-0.022480	0.007038	-0.011953	52.887370	-68.599023	38.897657
03716	9.133896	2.804970	2.116275	-0.014773	0.014494	-0.007566	52.872708	-68.589912	38.910152
03717	9.068727	2.834991	2.136055	-0.013780	0.019125	-0.008729	52.854064	-68.578726	38.927562
03718	9.060823	2.817240	2.175284	-0.016713	0.011650	-0.011304	52.844921	-68.568890	38.932936
03719	9.074895	2.854549	2.101815	-0.018826	0.006552	-0.011069	52.840111	-68.560990	38.932776
03720	9.081051	2.828085	2.171254	-0.013521	0.016962	-0.000238	52.816881	-68.554365	38.955250
03721	9.032781	2.800692	2.245956	-0.025825	0.011791	-0.010424	52.801407	-68.544938	38.961613
03722	9.108570	2.856963	2.130344	-0.032799	0.002519	-0.012187	52.794458	-68.537860	38.954728
03723	9.104477	2.835498	2.088246	-0.020971	0.009825	-0.012752	52.786160	-68.528073	38.956227
03724	9.038480	2.820677	2.213036	-0.018861	0.014929	-0.012986	52.773510	-68.516330	38.964050
03725	9.099387	2.840860	2.172657	-0.033481	0.010774	-0.020889	52.764106	-68.502495	38.958928
03726	9.135477	2.829319	2.095668	-0.026905	0.011613	-0.021738	52.758407	-68.487909	38.954327
03727	9.113387	2.820651	2.104676	-0.016796	0.022263	-0.019451	52.744021	-68.470750	38.965436
03728	9.147301	2.823889	2.131038	-0.018944	0.025532	-0.021132	52.726278	-68.451613	38.978684
03729	9.130451	2.823086	2.081701	-0.013312	0.028163	-0.026876	52.713635	-68.429014	38.989843
03730	9.072527	2.839142	2.192355	0.008313	0.041887	-0.027573	52.698373	-68.401260	39.017223
03731	9.039416	2.862007	2.215402	-0.005443	0.031742	-0.030773	52.689613	-68.375651	39.028751
03732	9.028801	2.835302	2.233758	-0.004110	0.026109	-0.031911	52.689244	-68.351397	39.032461
03733	9.009661	2.850092	2.286136	-0.002474	0.018571	-0.034935	52.700894	-68.328431	39.023270
03734	9.087676	2.861050	2.195063	-0.012693	0.005943	-0.043650	52.728956	-68.305826	38.991093
03735	9.051358	2.862776	2.172362	-0.004490	0.011538	-0.038862	52.750942	-68.283543	38.970348
03736	9.086598	2.879002	2.219229	-0.000155	0.017593	-0.037236	52.767162	-68.259814	38.958642
03737	9.060715	2.850140	2.183823	-0.024210	0.002877	-0.040683	52.789171	-68.239660	38.925939
03738	9.065075	2.860763	2.125965	-0.012489	0.012151	-0.037078	52.804342	-68.217886	38.907750
03739	9.047514	2.887074	2.199537	0.005473	0.020266	-0.042984	52.825419	-68.190660	38.893766
03740	9.026535	2.891691	2.229331	-0.015822	0.004611	-0.044204	52.853356	-68.168237	38.859762
03741	9.064063	2.893759	2.173135	-0.022092	0.001871	-0.045261	52.881526	-68.146352	38.821771
03742	9.086882	2.859066	2.191700	-0.009382	0.009655	-0.047136	52.909807	-68.120833	38.791361
03743	9.052103	2.872210	2.190611	-0.013709	0.003613	-0.048776	52.943657	-68.096717	38.752318
03744	9.017237	2.885699	2.189344	-0.009194	0.005814	-0.055453	52.983399	-68.068706	38.709660
03745	9.020227	2.782938	2.216377	-0.004019	-0.008052	-0.074575	53.057938	-68.036785	38.631565
03746	9.157543	2.808390	2.058182	0.015356	-0.033935	-0.109536	53.202605	-67.997603	38.490904
03747	9.435877	2.972082	1.929947	0.056910	-0.004545	-0.122610	53.348058	-67.942284	38.374364
03748	9.154773	2.759115	1.955012	0.048633	0.026074	-0.149486	53.476176	-67.863970	38.272028
03749	9.026264	2.797764	2.310834	0.130584	0.059399	-0.173163	53.632286	-67.763389	38.190105
03750	8.944011	2.877540	2.340730	0.103443	0.001066	-0.232920	53.886862	-67.654757	37.984897
03751	9.001392	2.837667	2.173541	0.091706	-0.021196	-0.285295	54.199914	-67.529033	37.709146
03752	9.066956	2.868816	2.135267	0.137782	-0.017598	-0.322882	54.562215	-67.383890	37.408231
03753	9.125732	3.024608	2.090797	0.180193	0.003900	-0.373549	54.960172	-67.207280	37.093876
03754	9.159445	3.081619	1.991327	0.223107	0.021246	-0.407307	55.384039	-67.008140	36.778430
03755	9.211834	3.190979	2.033161	0.285217	0.098007	-0.433989	55.772156	-66.770751	36.540190
