// General information: 
//  MT Manager version: 2022.2.0 
//  XDA version: 2022.2.0 build 7381 rev 124627 built on 2023-07-19
// Device information: 
//  DeviceId: 00B4BB4E
//  ProductCode: MTW2-3A7G6
//  Firmware Version: 4.6.0
//  Hardware Version: 2.0.0
// Device settings: 
//  Filter Profile: human(46.1)
//  Option Flags: Orientation Smoother Disabled, Position/Velocity Smoother Disabled, Continuous Zero Rotation Update Disabled, AHS Disabled, ICC Disabled
// Coordinate system: ENU
PacketCounter	Acc_X	Acc_Y	Acc_Z	Gyr_X	Gyr_Y	Gyr_Z	Roll	Pitch	Yaw
61147	9.757708	0.019386	-0.695992	0.020863	0.007146	-0.020536	176.981265	-85.838429	125.319405
61148	9.750948	0.044556	-0.694089	0.014191	0.004824	-0.018016	176.893262	-85.839454	125.417546
61149	9.723219	0.090094	-0.710494	0.009163	0.007938	-0.019012	176.789831	-85.842348	125.527980
61150	9.723253	0.091872	-0.709806	-0.003081	0.006266	-0.018005	176.690544	-85.844161	125.626491
61151	9.711945	0.113618	-0.673713	-0.004858	0.008066	-0.013839	176.619499	-85.847276	125.696398
61152	9.737486	0.097805	-0.688674	-0.007770	0.007600	-0.012908	176.556114	-85.850095	125.757023
61153	9.711510	0.066691	-0.694347	-0.015145	0.010769	-0.017517	176.448642	-85.854614	125.857543
61154	9.762583	0.034027	-0.724940	-0.014186	0.006861	-0.013763	176.375221	-85.856934	125.924250
61155	9.725235	0.022831	-0.695650	-0.005339	0.002960	-0.012148	176.319403	-85.857164	125.978613
61156	9.720232	-0.029045	-0.683410	0.007445	0.007096	-0.012636	176.266274	-85.859597	126.035529
61157	9.685649	0.039356	-0.698395	0.010359	0.007565	-0.013567	176.205791	-85.862398	126.103587
61158	9.660161	0.057685	-0.682107	0.003995	0.004171	-0.012220	176.155165	-85.863229	126.156970
61159	9.723542	0.104065	-0.704135	-0.011701	-0.000436	-0.010802	176.108068	-85.861554	126.198935
61160	9.718516	0.052144	-0.692424	-0.023093	-0.000720	-0.010453	176.058892	-85.859623	126.235207
61161	9.736746	0.009700	-0.729059	-0.016135	0.002483	-0.009079	176.021328	-85.859680	126.265065
61162	9.731767	-0.042352	-0.717018	-0.015285	0.003879	-0.009733	175.981101	-85.860409	126.298348
61163	9.713555	0.002170	-0.679959	-0.004741	0.002770	-0.009427	175.947151	-85.860614	126.331128
61164	9.753252	-0.010844	-0.675693	-0.007395	0.003892	-0.011869	175.893945	-85.861285	126.381688
61165	9.725427	0.034272	-0.692489	-0.009373	0.000234	-0.014449	175.819134	-85.859827	126.452776
61166	9.699454	0.002849	-0.699088	-0.007029	0.000176	-0.010836	175.776011	-85.858417	126.492996
61167	9.690294	0.054161	-0.730381	-0.016409	0.001618	-0.012965	175.708146	-85.857804	126.553078
61168	9.715834	0.038447	-0.746095	-0.019856	-0.001309	-0.012551	175.645546	-85.855396	126.604897
61169	9.729549	-0.006972	-0.748874	-0.021916	-0.000382	-0.012273	175.581262	-85.853661	126.658225
61170	9.706341	-0.015201	-0.700106	-0.014169	0.006873	-0.013752	175.508760	-85.855949	126.725946
61171	9.755185	-0.021088	-0.763567	-0.005433	0.008285	-0.016543	175.414851	-85.858960	126.818445
61172	9.725139	-0.005467	-0.712972	-0.002797	0.007892	-0.021360	175.286260	-85.861402	126.945942
61173	9.739328	-0.000555	-0.692497	0.004207	0.008440	-0.017784	175.187687	-85.864417	127.048655
61174	9.704236	0.018532	-0.729846	0.005735	0.005058	-0.018577	175.088486	-85.865421	127.153914
61175	9.737425	0.079408	-0.701732	0.004888	0.003662	-0.017924	174.992269	-85.865675	127.254656
61176	9.730544	0.104390	-0.700044	-0.005909	0.003172	-0.014858	174.916964	-85.865659	127.327502
61177	9.749253	0.112259	-0.713835	-0.010401	0.008740	-0.015334	174.828787	-85.868923	127.411399
61178	9.706930	0.104731	-0.772094	-0.011248	0.007344	-0.014680	174.748891	-85.871321	127.486590
61179	9.709310	0.079400	-0.738678	-0.010658	0.007147	-0.011963	174.688158	-85.873838	127.542824
61180	9.755958	0.043125	-0.735457	-0.001281	0.005711	-0.009833	174.653058	-85.875562	127.578773
61181	9.692745	-0.001514	-0.712715	0.009478	0.008131	-0.007839	174.635663	-85.878855	127.603123
61182	9.746912	0.038072	-0.666000	0.007195	0.005535	-0.009250	174.609227	-85.880454	127.633391
61183	9.714153	0.029567	-0.670714	0.008044	0.006933	-0.009902	174.575490	-85.882950	127.673301
61184	9.704937	0.080571	-0.701471	0.005446	0.005399	-0.010144	174.541094	-85.884532	127.712385
61185	9.697769	0.055270	-0.722041	-0.004464	0.004374	-0.012792	174.479152	-85.885406	127.773388
61186	9.751608	0.045810	-0.698023	-0.009397	0.002900	-0.016644	174.386390	-85.885073	127.860277
61187	9.770056	0.003943	-0.734344	-0.000701	0.006248	-0.014372	174.312560	-85.886915	127.935359
61188	9.718624	-0.010088	-0.724758	-0.006219	0.004972	-0.020941	174.185980	-85.887632	128.060448
61189	9.725601	-0.031424	-0.725541	0.007767	0.006812	-0.021042	174.063508	-85.889383	128.189163
61190	9.713907	-0.059183	-0.711921	0.016559	0.005582	-0.021626	173.945013	-85.890273	128.318600
61191	9.707236	0.015927	-0.687573	0.025887	0.006813	-0.021692	173.827589	-85.891946	128.452662
61192	9.725968	0.024305	-0.701175	0.022926	0.008998	-0.022961	173.698095	-85.894715	128.596842
61193	9.712109	0.073134	-0.697756	0.022398	0.006542	-0.023477	173.564506	-85.896077	128.745104
61194	9.726067	0.028548	-0.699636	0.019120	0.009787	-0.023578	173.427636	-85.899148	128.894218
61195	9.791670	0.155981	-0.765297	0.026754	0.008227	-0.022335	173.303785	-85.901496	129.035220
61196	9.738192	0.268279	-0.743291	-0.014569	0.013229	-0.016989	173.195788	-85.906959	129.136185
61197	9.684295	0.124648	-0.710894	-0.014249	0.012169	-0.018157	173.077459	-85.911795	129.248096
61198	9.761243	-0.080517	-0.701951	0.005357	0.011464	-0.021790	172.943129	-85.915864	129.385745
61199	9.798779	-0.172035	-0.651961	0.024494	0.019065	-0.023595	172.796176	-85.924197	129.548606
61200	9.714775	-0.039097	-0.701396	0.053491	0.016954	-0.025081	172.656795	-85.931153	129.719876
61201	9.708052	0.085881	-0.654017	0.055624	0.013387	-0.023148	172.536042	-85.936237	129.874350
61202	9.712806	0.141003	-0.664466	0.039521	0.015104	-0.024983	172.391113	-85.942101	130.043972
61203	9.731508	0.099788	-0.699659	0.019645	0.014931	-0.025245	172.230491	-85.947846	130.217744
61204	9.712866	0.045927	-0.706156	0.013234	0.014166	-0.026111	172.060769	-85.952962	130.395264
61205	9.682616	0.062244	-0.655093	0.022312	0.014556	-0.030048	171.862616	-85.958035	130.608192
61206	9.694349	0.044805	-0.689094	0.029954	0.013013	-0.028795	171.681051	-85.962258	130.807945
61207	9.715473	0.077096	-0.647404	0.030651	0.008237	-0.028925	171.503341	-85.963747	131.005166
61208	9.734203	0.086060	-0.660784	0.033788	0.012252	-0.028164	171.330459	-85.967475	131.199056
61209	9.731845	0.115425	-0.692533	0.025370	0.010469	-0.033810	171.107298	-85.969710	131.438808
61210	9.720190	0.138637	-0.656061	0.028506	0.014486	-0.033049	170.888988	-85.974215	131.676322
61211	9.713145	0.165024	-0.653901	0.016416	0.005494	-0.032717	170.675415	-85.973608	131.901316
61212	9.713145	0.167703	-0.653218	0.012791	0.009063	-0.024413	170.523147	-85.975670	132.061506
61213	9.706187	0.143627	-0.673544	0.006490	0.003697	-0.028129	170.343155	-85.974389	132.247135
61214	9.724855	0.152597	-0.687552	0.007071	0.003505	-0.025412	170.186863	-85.973143	132.407730
61215	9.759984	0.138091	-0.649061	0.007972	0.002252	-0.023861	170.044182	-85.971393	132.556808
61216	9.738844	0.160376	-0.667358	0.000060	0.002189	-0.021748	169.916170	-85.969754	132.686703
61217	9.720138	0.156304	-0.652845	-0.001940	0.001176	-0.026525	169.748301	-85.967076	132.855339
61218	9.708536	0.128924	-0.639599	-0.009276	0.000917	-0.021698	169.616945	-85.964649	132.982116
61219	9.720256	0.110938	-0.675056	-0.016169	-0.004990	-0.020880	169.495512	-85.959025	133.096028
61220	9.720211	0.113070	-0.675353	-0.008050	-0.001395	-0.021312	169.370885	-85.955292	133.215898
61221	9.729465	0.121615	-0.743679	-0.010645	-0.002945	-0.021555	169.244765	-85.950714	133.337683
61222	9.743221	0.176914	-0.702002	-0.008046	-0.001392	-0.021310	169.122034	-85.946955	133.457036
61223	9.783008	0.165463	-0.697813	-0.011338	0.001838	-0.021423	168.989720	-85.945044	133.584633
61224	9.675365	0.182091	-0.623553	-0.012435	-0.000428	-0.024650	168.836811	-85.941438	133.732185
61225	9.724446	0.177229	-0.687422	-0.027734	0.001894	-0.019910	168.707300	-85.939682	133.847555
61226	9.710392	0.176240	-0.707020	-0.038486	-0.000590	-0.021920	168.561625	-85.936277	133.973355
61227	9.743036	0.188076	-0.701667	-0.040251	-0.001472	-0.015567	168.464937	-85.933091	134.048629
61228	9.766598	0.149872	-0.772205	-0.035628	0.001836	-0.017789	168.350419	-85.931479	134.145035
61229	9.764755	0.072187	-0.727422	-0.033551	0.000928	-0.018057	168.234270	-85.929329	134.243670
61230	9.739246	0.041020	-0.733801	-0.015213	0.004550	-0.016991	168.133341	-85.929334	134.338758
61231	9.739291	0.042696	-0.733111	0.003969	0.009576	-0.016577	168.036071	-85.932182	134.440019
61232	9.730048	0.037787	-0.664257	0.010510	0.005784	-0.018555	167.934923	-85.932643	134.549043
61233	9.671236	0.096455	-0.631184	0.009614	0.007044	-0.020101	167.817204	-85.933622	134.674045
61234	9.703933	0.108072	-0.625088	0.004625	0.007462	-0.018909	167.707575	-85.934895	134.787704
61235	9.722620	0.116556	-0.638651	-0.009417	0.008200	-0.021031	167.569497	-85.936370	134.922185
61236	9.701804	0.089113	-0.678833	-0.017437	0.002683	-0.025646	167.402205	-85.934149	135.081716
61237	9.741272	0.128153	-0.652112	-0.022994	0.003302	-0.027166	167.216752	-85.932060	135.255892
61238	9.757761	0.114370	-0.721198	-0.024407	0.002100	-0.029227	167.019003	-85.928982	135.442085
61239	9.767529	0.067401	-0.689230	-0.021617	0.007179	-0.027295	166.826643	-85.928957	135.623978
61240	9.760767	0.043637	-0.709677	-0.006920	0.004335	-0.027505	166.649061	-85.927216	135.799538
61241	9.727701	0.086454	-0.692141	0.016675	0.009171	-0.030989	166.446082	-85.927723	136.014073
61242	9.710708	0.162260	-0.721470	0.032135	0.009652	-0.026800	166.285267	-85.928975	136.194445
61243	9.717022	0.240852	-0.677173	0.037894	0.012567	-0.023592	166.145574	-85.932294	136.357721
61244	9.713967	0.319323	-0.686724	0.023061	0.009221	-0.022869	166.010781	-85.933852	136.508000
61245	9.758015	0.360983	-0.693403	0.006012	0.011357	-0.019032	165.890454	-85.937079	136.633546
61246	9.725393	0.352731	-0.697770	-0.005997	0.010416	-0.014188	165.804929	-85.940428	136.717555
61247	9.723363	0.330723	-0.751837	-0.013013	0.009066	-0.010533	165.744435	-85.943552	136.772189
61248	9.725988	0.304997	-0.718095	-0.013951	0.009573	-0.004839	165.728563	-85.947662	136.780105
61249	9.747280	0.285583	-0.698567	-0.022759	0.010740	-0.004278	165.708052	-85.952595	136.789059
61250	9.742686	0.282687	-0.663113	-0.020307	0.016878	-0.001180	165.703504	-85.961322	136.783618
61251	9.700857	0.272927	-0.721068	-0.025388	0.008431	0.002716	165.741115	-85.965961	136.732795
61252	9.710793	0.222587	-0.688185	-0.024254	0.018797	0.010481	165.822027	-85.977378	136.638697
61253	9.704219	0.195157	-0.707550	-0.028534	0.014427	0.011532	165.916029	-85.986573	136.529538
61254	9.725556	0.174024	-0.687720	-0.031730	0.012319	0.015813	166.049393	-85.995131	136.379542
61255	9.742703	0.099551	-0.656282	-0.028806	0.012822	0.014897	166.174193	-86.003864	136.239356
61256	9.743331	0.048599	-0.677339	-0.017975	0.013412	0.011875	166.283103	-86.012449	136.121824
61257	9.724742	0.041026	-0.661895	-0.013503	0.010538	0.010168	166.384376	-86.019232	136.014014
61258	9.724859	0.040053	-0.660233	0.001663	0.023596	0.010642	166.475978	-86.033279	135.924879
61259	9.718265	0.012711	-0.679590	0.000244	0.011623	0.006229	166.552228	-86.040116	135.850050
61260	9.739019	0.041799	-0.637436	0.010086	0.015379	0.006710	166.633635	-86.049042	135.775803
61261	9.757796	0.047855	-0.650341	0.004342	0.012474	0.003497	166.689089	-86.055980	135.724173
61262	9.722755	0.064235	-0.687397	0.012816	0.012356	0.004108	166.757193	-86.062853	135.664435
61263	9.704159	0.057300	-0.671840	0.017763	0.014615	0.000730	166.794195	-86.070615	135.639011
61264	9.743586	0.093534	-0.643943	0.020164	0.012649	-0.000705	166.827237	-86.077046	135.619112
61265	9.724960	0.086881	-0.628664	0.018797	0.008776	-0.000576	166.865526	-86.081378	135.592991
61266	9.750431	0.119987	-0.620676	0.026530	0.016115	-0.002015	166.885031	-86.089540	135.589727
61267	9.691966	0.127157	-0.609101	0.011937	0.017050	-0.006871	166.852303	-86.097669	135.630850
61268	9.729433	0.141098	-0.636330	0.006892	0.009356	-0.010226	166.806288	-86.100982	135.681908
61269	9.692075	0.129073	-0.606959	-0.000076	0.008764	-0.013822	166.725426	-86.103572	135.764377
61270	9.704687	0.060724	-0.663859	-0.007001	0.005502	-0.015224	166.637931	-86.104096	135.849574
61271	9.711379	0.088810	-0.642408	-0.000786	0.002774	-0.016026	166.550168	-86.103038	135.938553
61272	9.744008	0.100166	-0.636513	0.003549	0.004481	-0.014874	166.473231	-86.103038	136.019146
61273	9.722839	0.121554	-0.654713	0.016170	0.002552	-0.014792	166.405774	-86.102006	136.097509
61274	9.750064	0.179351	-0.592787	0.015982	-0.000972	-0.016477	166.333625	-86.098730	136.180181
61275	9.754190	0.233990	-0.604773	0.017206	-0.003288	-0.016096	166.267899	-86.094257	136.257405
61276	9.723416	0.248678	-0.555316	0.008259	0.002462	-0.012695	166.215802	-86.093383	136.315598
61277	9.714871	0.200057	-0.631294	-0.008654	0.000010	-0.011735	166.164387	-86.091332	136.363626
61278	9.696147	0.194644	-0.617151	-0.018829	-0.002701	-0.011056	166.120926	-86.087813	136.398087
61279	9.716073	0.102677	-0.676108	-0.019489	-0.000584	-0.008723	166.089097	-86.085840	136.420262
61280	9.716698	0.053902	-0.698402	-0.013644	0.000420	-0.010552	166.046434	-86.084102	136.456482
61281	9.712571	0.001953	-0.686527	-0.000217	0.002576	-0.013310	165.982067	-86.083249	136.522338
61282	9.700535	0.022960	-0.650940	0.018147	0.003569	-0.010012	165.955676	-86.083372	136.561121
61283	9.733164	0.033660	-0.645016	0.024553	0.004371	-0.009127	165.935829	-86.084094	136.596579
61284	9.743904	0.114272	-0.635724	0.032992	-0.003837	-0.013044	165.907558	-86.079638	136.644343
61285	9.709947	0.204994	-0.596907	0.035775	0.001251	-0.011106	165.884488	-86.078347	136.689476
61286	9.706732	0.282352	-0.607527	0.026782	-0.001110	-0.012240	165.854397	-86.075541	136.736467
61287	9.725372	0.289866	-0.622116	0.012501	-0.004683	-0.008835	165.848562	-86.071268	136.750959
61288	9.750614	0.323683	-0.616051	0.002033	-0.009014	-0.004797	165.880822	-86.065119	136.721563
61289	9.718626	0.264357	-0.644602	-0.013518	-0.007604	-0.003968	165.905290	-86.059905	136.690738
61290	9.707181	0.234787	-0.632357	-0.013804	-0.009215	-0.000607	165.962125	-86.054220	136.627301
61291	9.731226	0.195143	-0.703919	-0.022469	-0.012637	-0.002907	165.999917	-86.046352	136.577978
61292	9.719777	0.165381	-0.691792	-0.008059	-0.006294	0.002607	166.079798	-86.042705	136.494492
61293	9.754887	0.148622	-0.654012	-0.008952	-0.005035	0.001061	166.141742	-86.039603	136.428722
61294	9.682341	0.151996	-0.664422	-0.002731	-0.007754	0.000260	166.208461	-86.034808	136.361485
61295	9.719649	0.165083	-0.693672	0.002494	-0.007302	0.002956	166.296370	-86.030690	136.276261
61296	9.728120	0.214670	-0.618247	-0.008058	-0.006293	0.002608	166.375289	-86.027063	136.194226
61297	9.730946	0.194224	-0.708030	-0.007781	-0.008108	0.008681	166.504401	-86.023247	136.061797
61298	9.754031	0.196808	-0.635089	-0.017484	-0.005688	0.007687	166.617389	-86.020579	135.939946
61299	9.733455	0.166116	-0.676185	-0.015886	-0.000956	0.011435	166.749992	-86.021075	135.799362
61300	9.769241	0.098771	-0.660596	-0.016256	-0.008002	0.008068	166.870678	-86.017131	135.670415
61301	9.717917	0.081652	-0.652497	-0.009565	-0.005586	0.005589	166.968523	-86.014244	135.568303
61302	9.717887	0.081157	-0.653002	-0.004902	-0.004934	0.005571	167.070016	-86.011635	135.465041
61303	9.721953	0.133804	-0.665397	-0.006267	-0.008810	0.005701	167.176235	-86.006937	135.356429
61304	9.754526	0.143165	-0.660572	-0.007822	-0.005436	0.006488	167.284335	-86.004173	135.245753
61305	9.740560	0.139252	-0.680857	-0.006080	-0.005286	0.007386	167.397382	-86.001628	135.130403
61306	9.726589	0.135299	-0.701180	-0.004007	-0.006194	0.007118	167.513620	-85.998466	135.013312
61307	9.747793	0.114556	-0.683063	-0.005892	-0.001763	0.009071	167.633764	-85.998067	134.890955
61308	9.696485	0.097369	-0.674665	-0.002828	-0.005840	0.005303	167.734463	-85.994832	134.789094
61309	9.747746	0.113223	-0.683947	0.007059	-0.004744	0.007978	167.858276	-85.992598	134.670496
61310	9.735728	0.132238	-0.649077	0.003810	-0.004188	0.010061	167.997842	-85.990850	134.533974
61311	9.761657	0.114610	-0.665010	0.006730	-0.003687	0.009145	168.128752	-85.989309	134.408071
61312	9.735711	0.130393	-0.649699	0.008427	-0.000868	0.007849	168.248006	-85.989165	134.295745
61313	9.681878	0.139617	-0.673831	0.002587	-0.001869	0.009683	168.377707	-85.988668	134.168675
61314	9.714484	0.148655	-0.668749	-0.006926	-0.006690	0.008036	168.498333	-85.985199	134.044692
61315	9.728400	0.151256	-0.649656	-0.013329	-0.007488	0.007159	168.607616	-85.981222	133.928948
61316	9.695735	0.140644	-0.655912	-0.010692	-0.008598	0.009602	168.742161	-85.976844	133.790141
61317	9.733034	0.153139	-0.685252	-0.017989	-0.008134	0.007180	168.849479	-85.972472	133.673690
61318	9.681693	0.135905	-0.677235	-0.015680	-0.008188	0.010790	168.989210	-85.968435	133.526934
61319	9.718989	0.148249	-0.706591	-0.022081	-0.008982	0.009914	169.116778	-85.963847	133.387830
61320	9.728731	0.097406	-0.676025	-0.026173	-0.009830	0.012648	169.267598	-85.958995	133.223748
61321	9.714723	0.092927	-0.696596	-0.013695	-0.007185	0.015569	169.441693	-85.955966	133.042817
61322	9.726110	0.121370	-0.710319	-0.014540	-0.008591	0.016217	169.624572	-85.952141	132.853129
61323	9.735342	0.119906	-0.657214	-0.016327	-0.006067	0.013129	169.775550	-85.949415	132.693858
61324	9.695949	0.082471	-0.684283	-0.017220	-0.004805	0.011585	169.913868	-85.947156	132.546727
61325	9.703150	0.058395	-0.686170	-0.020045	-0.007209	0.007457	170.018780	-85.943168	132.431502
61326	9.750213	0.020962	-0.683978	-0.011901	-0.006272	0.009228	170.143543	-85.939839	132.301992
61327	9.717049	0.060124	-0.667588	-0.011053	-0.004864	0.008581	170.258908	-85.937251	132.181453
61328	9.691123	0.076098	-0.652483	-0.017452	-0.005651	0.007708	170.367641	-85.934073	132.065160
61329	9.695753	0.078876	-0.687473	-0.018112	-0.014303	0.007692	170.484147	-85.926034	131.939420
61330	9.721105	0.111156	-0.681753	-0.018574	-0.008670	0.011718	170.628246	-85.921433	131.787046
61331	9.718972	0.087330	-0.737807	-0.018484	-0.010574	0.006670	170.730734	-85.915368	131.675144
61332	9.735420	0.063173	-0.686431	-0.015846	-0.011690	0.009110	170.856737	-85.908799	131.540256
61333	9.714156	0.082578	-0.705756	-0.013305	-0.007467	0.007168	170.961540	-85.904504	131.429007
61334	9.749297	0.064979	-0.668381	-0.012409	-0.008729	0.008712	171.083152	-85.899565	131.302182
61335	9.753923	0.067713	-0.703168	-0.008646	-0.006826	0.007144	171.189163	-85.895600	131.192396
61336	9.728009	0.083655	-0.688153	-0.011887	-0.006265	0.009234	171.312023	-85.892081	131.065344
61337	9.713973	0.079945	-0.708575	-0.008886	-0.007674	0.003263	171.387908	-85.887272	130.985624
61338	9.739795	0.062649	-0.724930	-0.006334	-0.006888	0.010752	171.525415	-85.883458	130.845637
61339	9.727892	0.081795	-0.690023	-0.022140	-0.003606	0.005553	171.606587	-85.881125	130.753000
61340	9.683748	0.041790	-0.683059	-0.017675	-0.006485	0.003837	171.682994	-85.877003	130.669363
61341	9.695570	0.021665	-0.719090	-0.015933	-0.006341	0.004733	171.764153	-85.873034	130.580306
61342	9.709922	-0.025150	-0.722588	-0.008557	-0.008726	0.002094	171.833904	-85.867443	130.507679
61343	9.723461	0.027574	-0.681133	-0.003902	-0.008089	0.002068	171.902649	-85.862250	130.437978
61344	9.728064	0.030896	-0.715885	-0.003056	-0.006682	0.001421	171.967106	-85.857745	130.373016
61345	9.720415	0.103908	-0.692641	0.009819	-0.007024	-0.001894	172.011207	-85.852830	130.335904
61346	9.741566	0.083929	-0.675078	0.002578	-0.009210	-0.002114	172.054403	-85.846583	130.296038
61347	9.720310	0.104094	-0.694083	0.007099	-0.004000	0.000719	172.113872	-85.843586	130.241955
61348	9.760142	0.090764	-0.690451	-0.003349	-0.004859	-0.004650	172.128742	-85.839586	130.226593
61349	9.746078	0.088173	-0.710883	-0.001473	-0.009288	-0.006615	172.131670	-85.833009	130.224275
61350	9.701514	0.098700	-0.681652	-0.002452	-0.006122	-0.003107	172.160166	-85.828436	130.195872
61351	9.720511	0.056019	-0.719119	-0.003867	-0.007320	-0.005171	172.170789	-85.823089	130.184464
61352	9.706433	0.053419	-0.739688	-0.004385	-0.009781	-0.005692	172.182458	-85.816297	130.173247
61353	9.727589	0.033841	-0.722184	0.002856	-0.007594	-0.005474	172.194813	-85.810770	130.163965
61354	9.713515	0.031133	-0.742670	0.011320	-0.007724	-0.004882	172.219141	-85.805103	130.147201
61355	9.708837	0.028147	-0.709308	0.003702	-0.006187	-0.006121	172.225418	-85.800324	130.144499
61356	9.708791	0.028656	-0.709917	0.012166	-0.006316	-0.005530	172.243535	-85.795433	130.134676
61357	9.755412	0.042202	-0.685550	0.010235	-0.009976	-0.008114	172.242130	-85.788349	130.143429
61358	9.734107	0.063113	-0.704813	0.009339	-0.008712	-0.009656	172.230349	-85.781777	130.163211
61359	9.701374	0.054389	-0.711157	0.004442	-0.010198	-0.013507	172.184478	-85.774147	130.213223
61360	9.719941	0.062165	-0.726285	0.006375	-0.006537	-0.010923	172.158397	-85.768788	130.245651
61361	9.708466	0.033496	-0.714138	-0.001108	-0.009573	-0.015019	172.097394	-85.761389	130.307650
61362	9.719793	0.064781	-0.728032	0.004445	-0.010195	-0.013506	172.055890	-85.753711	130.355784
61363	9.701075	0.059537	-0.714809	0.005102	-0.012303	-0.015843	171.995486	-85.744689	130.420752
61364	9.712390	0.091026	-0.728650	0.003496	-0.006261	-0.017238	171.919712	-85.738987	130.501430
61365	9.698284	0.089383	-0.749159	0.005621	-0.009840	-0.015321	171.861398	-85.731394	130.564600
61366	9.740294	0.100509	-0.690968	0.002140	-0.010128	-0.017108	171.790407	-85.723438	130.638569
61367	9.719378	0.072548	-0.732829	0.002469	-0.011181	-0.018275	171.709871	-85.714830	130.722215
61368	9.765969	0.087356	-0.708812	0.002471	-0.011179	-0.018275	171.632760	-85.706165	130.803900
61369	9.751843	0.085908	-0.729532	-0.001667	-0.009360	-0.017723	171.552631	-85.698618	130.884762
61370	9.735851	0.054358	-0.683241	0.000863	-0.005137	-0.019670	171.456654	-85.693272	130.982923
61371	9.723631	0.083039	-0.770316	-0.000251	-0.008159	-0.015661	171.392009	-85.686564	131.049073
61372	9.718980	0.081188	-0.737185	-0.002504	-0.010764	-0.017072	171.321401	-85.678161	131.120264
61373	9.737500	0.089599	-0.752415	-0.007543	-0.007685	-0.018062	171.234512	-85.671501	131.204532
61374	9.756031	0.098114	-0.767427	-0.006699	-0.006276	-0.018710	171.144399	-85.665558	131.293773
61375	9.741931	0.096834	-0.787607	-0.005013	-0.003460	-0.020008	171.039999	-85.661095	131.397058
61376	9.730566	0.068960	-0.775035	0.004956	-0.004273	-0.022409	170.926656	-85.655739	131.513272
61377	9.718683	0.090542	-0.740006	0.002854	-0.004138	-0.014896	170.866058	-85.651329	131.577149
61378	9.718633	0.092342	-0.740448	0.000306	-0.004917	-0.022375	170.751915	-85.645715	131.693535
61379	9.718584	0.094403	-0.740823	-0.000353	-0.002810	-0.020038	170.650044	-85.641564	131.796965
61380	9.711234	0.119685	-0.739830	-0.002603	-0.005416	-0.021448	170.541683	-85.635766	131.905614
61381	9.718476	0.098528	-0.741700	-0.004672	-0.004508	-0.021171	170.431509	-85.630519	132.014890
61382	9.715654	0.127386	-0.774750	-0.008482	-0.003747	-0.021786	170.316041	-85.625605	132.127831
61383	9.704326	0.099882	-0.762181	-0.007545	-0.004231	-0.027480	170.157894	-85.619865	132.283570
61384	9.732365	0.108955	-0.723040	-0.003552	-0.001475	-0.025176	170.019272	-85.615791	132.423255
61385	9.725006	0.134379	-0.721744	0.006892	-0.000594	-0.019825	169.921630	-85.612812	132.526610
61386	9.718254	0.109937	-0.743006	-0.000908	-0.002589	-0.022742	169.803660	-85.608414	132.647574
61387	9.746296	0.118649	-0.703846	-0.000905	-0.002587	-0.022741	169.683146	-85.603982	132.769389
61388	9.720338	0.137492	-0.688285	-0.019904	-0.001468	-0.023626	169.546589	-85.600082	132.897515
61389	9.750734	0.126918	-0.738325	-0.030044	-0.004177	-0.022907	169.410835	-85.594694	133.017872
61390	9.769244	0.136107	-0.753008	-0.025387	-0.003522	-0.022939	169.279716	-85.589662	133.137985
61391	9.758662	0.058990	-0.762817	-0.027181	-0.000992	-0.026017	169.119097	-85.585687	133.284928
61392	9.728869	0.025069	-0.735714	-0.021859	-0.002437	-0.028386	168.949921	-85.580680	133.446631
61393	9.757641	-0.015160	-0.718916	-0.005893	0.001293	-0.030953	168.762932	-85.577377	133.632258
61394	9.811653	-0.021973	-0.695427	0.011526	-0.004521	-0.033818	168.575581	-85.570415	133.827819
61395	9.847085	-0.035598	-0.658024	0.043133	-0.007529	-0.032910	168.416323	-85.561845	134.013810
61396	9.859599	0.070011	-0.593836	0.066402	-0.004239	-0.033077	168.266773	-85.555094	134.203943
61397	9.836583	0.192179	-0.567568	0.067828	-0.003024	-0.031010	168.129742	-85.549198	134.381834
61398	9.666703	0.290348	-0.493515	0.053721	-0.008498	-0.032583	167.984218	-85.539963	134.559873
61399	9.609575	0.329803	-0.551400	0.034845	-0.020824	-0.033618	167.838114	-85.523713	134.727916
61400	9.641909	0.342781	-0.548711	0.008292	-0.032440	-0.028650	167.733720	-85.501441	134.838445
61401	9.617207	0.391955	-0.602808	-0.034090	-0.032782	-0.024313	167.635049	-85.479582	134.919296
61402	9.587308	0.444699	-0.744911	-0.061592	-0.040464	-0.023063	167.543823	-85.453603	134.977150
61403	9.612308	0.308356	-0.864529	-0.098877	-0.043846	-0.017708	167.473286	-85.426355	134.992546
61404	9.619540	0.158328	-0.847856	-0.101101	-0.034894	-0.023976	167.347552	-85.403299	135.063737
61405	9.612769	0.005261	-0.851184	-0.081489	-0.044220	-0.024935	167.238917	-85.374926	135.127351
61406	9.720093	-0.091355	-0.764481	-0.056653	-0.044259	-0.025931	167.139798	-85.346490	135.196154
61407	9.711033	-0.095389	-0.700221	-0.041169	-0.034095	-0.031722	166.994029	-85.322881	135.320210
61408	9.677411	-0.052380	-0.686178	-0.005229	-0.034553	-0.036982	166.838209	-85.298444	135.478915
61409	9.649387	0.024903	-0.772881	0.011797	-0.036600	-0.040900	166.667580	-85.272177	135.658373
61410	9.745567	0.028865	-0.694494	0.011229	-0.045225	-0.040916	166.514732	-85.241169	135.822190
61411	9.736031	0.155413	-0.651789	0.001136	-0.039099	-0.042851	166.333009	-85.213165	136.006666
61412	9.707697	0.233190	-0.739034	-0.042710	-0.044158	-0.042130	166.143561	-85.182466	136.175020
61413	9.710361	0.249457	-0.898816	-0.054159	-0.038414	-0.053332	165.864799	-85.153279	136.425102
61414	9.636167	0.227367	-0.844753	-0.056695	-0.039952	-0.053555	165.591283	-85.123222	136.671098
61415	9.685164	0.097604	-0.892269	-0.067183	-0.047800	-0.051124	165.341495	-85.088950	136.884634
61416	9.732340	-0.013479	-0.850830	-0.040265	-0.043341	-0.045739	165.138986	-85.058030	137.068215
61417	9.713556	0.064396	-0.884215	-0.019963	-0.040519	-0.045065	164.948143	-85.028551	137.249762
61418	9.712094	0.198531	-0.909294	-0.005537	-0.044907	-0.042031	164.796812	-84.997129	137.401830
61419	9.694505	0.348410	-0.864657	0.001367	-0.040809	-0.047901	164.605073	-84.966968	137.596562
61420	9.683017	0.402780	-0.899440	0.005078	-0.039686	-0.042263	164.452242	-84.938288	137.753970
61421	9.692500	0.406344	-0.849653	-0.007422	-0.040494	-0.040033	164.307932	-84.909419	137.896049
61422	9.712842	0.439712	-0.812123	-0.025725	-0.028152	-0.031873	164.185482	-84.888710	138.007687
61423	9.749162	0.457011	-0.843819	-0.067534	-0.032313	-0.026289	164.079615	-84.866450	138.076599
61424	9.747333	0.387881	-0.924973	-0.083392	-0.036087	-0.023624	163.990274	-84.842600	138.121492
61425	9.711255	0.327039	-0.922320	-0.085257	-0.040528	-0.018960	163.934593	-84.816957	138.129822
61426	9.741737	0.156643	-0.889235	-0.073321	-0.040288	-0.016667	163.901986	-84.791896	138.124778
61427	9.744922	0.131670	-0.860258	-0.041108	-0.031077	-0.014250	163.883959	-84.772204	138.120699
61428	9.682573	0.166256	-0.884822	-0.045997	-0.038708	-0.017564	163.858004	-84.747792	138.121472
61429	9.737151	0.189959	-0.931625	-0.040718	-0.031256	-0.022627	163.790690	-84.726665	138.167114
61430	9.709312	0.338197	-0.938611	-0.029155	-0.030002	-0.019184	163.750178	-84.706819	138.192927
61431	9.727250	0.347401	-0.956060	-0.040376	-0.033119	-0.016572	163.722856	-84.685632	138.198604
61432	9.776724	0.416338	-0.945017	-0.046885	-0.023237	-0.014988	163.685967	-84.670129	138.210668
61433	9.746925	0.461242	-0.962814	-0.059310	-0.017881	-0.013204	163.641652	-84.657863	138.222516
61434	9.721410	0.398217	-0.904811	-0.066007	-0.018493	-0.005614	163.640923	-84.646476	138.187183
61435	9.732529	0.349006	-0.875611	-0.074960	-0.012845	-0.002070	163.644347	-84.638775	138.142078
61436	9.748349	0.223012	-0.837285	-0.071954	-0.014992	-0.000836	163.661747	-84.630067	138.084636
61437	9.756910	0.151038	-0.863567	-0.070888	-0.012768	0.002394	163.693280	-84.623124	138.013639
61438	9.750526	0.156263	-0.952592	-0.048646	-0.017024	0.003150	163.750663	-84.613931	137.929677
61439	9.723428	0.221779	-0.914537	-0.035837	-0.017239	-0.000291	163.793859	-84.604088	137.867135
61440	9.715614	0.245077	-0.914399	-0.027322	-0.020013	0.002378	163.863411	-84.593102	137.782919
61441	9.673908	0.275943	-0.829911	-0.029046	-0.020149	0.001506	163.925354	-84.581930	137.705453
61442	9.736887	0.194057	-0.834066	-0.039959	-0.015441	0.000321	163.967582	-84.573126	137.641564
61443	9.752029	0.147999	-0.839520	-0.033988	-0.019769	0.002760	164.032826	-84.562348	137.557935
61444	9.730920	0.118606	-0.882487	-0.026389	-0.021273	0.003903	164.112758	-84.550880	137.463984
61445	9.698177	0.108364	-0.889620	-0.012100	-0.022146	-0.002549	164.163170	-84.537941	137.407850
61446	9.690573	0.163492	-0.956209	-0.012460	-0.026407	-0.008122	164.189593	-84.521752	137.375699
61447	9.748543	0.127442	-0.903654	-0.006086	-0.019446	-0.007791	164.208527	-84.509478	137.354646
61448	9.703236	0.186263	-0.851212	-0.002860	-0.019955	-0.009917	164.219447	-84.496567	137.343599
61449	9.666764	0.204023	-0.890444	0.010602	-0.023108	-0.008517	164.249526	-84.482159	137.320954
61450	9.640665	0.220566	-0.876147	0.017757	-0.020896	-0.008372	164.282364	-84.468969	137.299697
61451	9.709489	0.246168	-0.902173	0.010165	-0.019387	-0.009505	164.300356	-84.456459	137.288943
61452	9.709475	0.278024	-0.970118	0.011444	-0.016398	-0.002413	164.356019	-84.446666	137.241078
61453	9.717920	0.205685	-0.997220	0.021454	-0.019824	-0.002758	164.419166	-84.434954	137.191454
61454	9.717729	0.205497	-0.999116	0.037596	-0.017943	0.000563	164.508677	-84.424755	137.124668
61455	9.688756	0.167324	-0.973801	0.051544	-0.018640	0.002489	164.616321	-84.414481	137.047656
61456	9.734509	0.229057	-0.928047	0.057423	-0.021136	0.009970	164.774595	-84.403911	136.923171
61457	9.726697	0.250410	-0.928324	0.066089	-0.020421	0.014330	164.959236	-84.394384	136.777164
61458	9.715121	0.298964	-0.960777	0.053652	-0.020364	0.009417	165.109969	-84.384091	136.658117
61459	9.708285	0.271143	-0.983874	0.043434	-0.012428	0.012633	165.259165	-84.378664	136.534677
61460	9.709134	0.220382	-1.008170	0.046460	-0.007570	0.006163	165.367796	-84.374925	136.453691
61461	9.721420	0.119525	-1.001647	0.071295	-0.004102	0.006622	165.486544	-84.373197	136.376886
61462	9.686915	0.175316	-0.894439	0.090480	-0.004343	0.011170	165.643735	-84.371935	136.272584
61463	9.682231	0.249808	-0.904081	0.094453	-0.001587	0.013445	165.810473	-84.372529	136.160890
61464	9.688155	0.354481	-0.926658	0.075993	-0.004228	0.013788	165.973845	-84.371640	136.042011
61465	9.694875	0.378875	-0.906324	0.054152	-0.009846	0.014561	166.135335	-84.367732	135.912387
61466	9.673756	0.347351	-0.948002	0.034534	-0.006727	0.016228	166.291997	-84.365714	135.776330
61467	9.693704	0.253696	-1.009295	0.020556	-0.006048	0.014298	166.427229	-84.363817	135.653747
61468	9.658090	0.188387	-1.003883	0.021346	-0.010791	0.014137	166.569741	-84.359190	135.524287
61469	9.688452	0.094143	-1.011916	0.036150	-0.010052	0.015417	166.725320	-84.355149	135.390235
61470	9.753543	0.112973	-1.003132	0.046227	-0.007304	0.014599	166.879681	-84.352459	135.263202
61471	9.761101	0.088124	-1.005485	0.053993	-0.004471	0.010215	167.008477	-84.350792	135.166335
61472	9.738274	0.155971	-1.000726	0.070788	-0.001937	0.009019	167.138326	-84.350325	135.078148
61473	9.705679	0.144055	-1.005869	0.082490	-0.002509	0.007396	167.264904	-84.349353	134.999918
61474	9.664668	0.204984	-0.986446	0.089124	-0.000037	0.004843	167.379226	-84.349383	134.937861
61475	9.649483	0.249694	-0.983404	0.081049	-0.001802	0.010413	167.521094	-84.349149	134.843436
61476	9.649485	0.248077	-0.983802	0.064505	-0.002689	0.008265	167.643901	-84.348085	134.758592
61477	9.682852	0.207570	-1.002324	0.049551	-0.006919	0.005307	167.745100	-84.344323	134.686900
61478	9.713172	0.113987	-1.009386	0.046217	-0.003728	0.005243	167.841457	-84.342284	134.618134
61479	9.732967	0.020856	-1.069665	0.049358	-0.001572	0.000937	167.911165	-84.340970	134.577975
61480	9.730022	-0.002804	-1.124774	0.070486	0.002690	0.000832	167.988747	-84.341984	134.542176
61481	9.751202	0.026265	-1.084191	0.093101	0.000144	-0.001744	168.066260	-84.341302	134.519359
61482	9.696673	0.034661	-1.106590	0.118916	0.005113	-0.001915	168.153244	-84.343325	134.501833
61483	9.725504	0.040322	-1.067056	0.133390	0.009637	-0.001625	168.243274	-84.347975	134.489634
61484	9.706635	0.081796	-1.028561	0.140022	0.020167	0.000340	168.337542	-84.358702	134.476934
61485	9.677283	0.123163	-1.043325	0.153922	0.018779	-0.001526	168.429403	-84.368489	134.474717
61486	9.732166	0.142456	-1.085660	0.164387	0.023242	-0.005664	168.500344	-84.380250	134.499611
61487	9.790699	0.105615	-1.027886	0.168710	0.027708	-0.006735	168.560828	-84.394458	134.537437
61488	9.930535	-0.006625	-0.984017	0.178152	0.049513	-0.003449	168.621970	-84.421238	134.580095
61489	9.856153	-0.108599	-0.996218	0.192941	0.064558	-0.009234	168.639080	-84.455869	134.675445
61490	9.805161	-0.076986	-0.957124	0.215810	0.076400	-0.007751	168.665121	-84.497260	134.774718
61491	9.809301	0.004215	-1.028469	0.239098	0.087999	-0.014629	168.648275	-84.544455	134.930735
61492	9.703978	0.045403	-1.011111	0.227572	0.089452	-0.020197	168.590142	-84.591763	135.121325
61493	9.587958	0.057183	-0.980326	0.238705	0.090351	-0.023199	168.515518	-84.639277	135.335125
61494	9.536490	0.061484	-0.873423	0.265030	0.081446	-0.027015	168.443229	-84.681267	135.561529
61495	9.700920	0.160528	-0.699114	0.285747	0.081197	-0.027858	168.373929	-84.723057	135.797020
61496	9.794881	0.394216	-0.592604	0.280329	0.092701	-0.027040	168.291262	-84.771309	136.042704
61497	9.670470	0.634668	-0.512142	0.209508	0.096531	-0.025104	168.169861	-84.821954	136.286614
61498	9.623093	0.778881	-0.622732	0.102203	0.069762	-0.030680	167.985550	-84.856826	136.531788
61499	9.701949	0.759296	-0.731393	0.008271	0.049991	-0.025325	167.802996	-84.881240	136.721304
61500	9.792799	0.593379	-0.971237	-0.061419	0.052143	-0.019343	167.615025	-84.907487	136.876179
61501	9.815667	0.247290	-1.092492	-0.071318	0.057044	-0.022563	167.390571	-84.936074	137.061963
61502	9.733535	0.018161	-1.130782	-0.035617	0.067276	-0.020992	167.181192	-84.970467	137.253144
61503	9.600435	-0.103287	-1.062858	0.046247	0.062922	-0.022315	167.012405	-85.002251	137.450648
61504	9.669471	-0.059173	-0.871552	0.133450	0.044888	-0.024716	166.904689	-85.023571	137.637004
61505	9.715602	0.208140	-0.650660	0.164482	0.048309	-0.022438	166.821319	-85.047115	137.816754
61506	9.770003	0.480525	-0.499212	0.141541	0.038384	-0.018910	166.763269	-85.065521	137.957930
61507	9.748676	0.654641	-0.487003	0.076990	0.038179	-0.019252	166.663719	-85.083795	138.103595
61508	9.715163	0.648160	-0.610564	-0.021614	0.033301	-0.013747	166.551693	-85.100015	138.205049
61509	9.743018	0.534573	-0.785999	-0.091408	0.026517	-0.005111	166.464173	-85.113636	138.241795
61510	9.732535	0.304754	-0.939748	-0.117746	0.025856	-0.002402	166.381484	-85.127210	138.258556
61511	9.718145	-0.005874	-1.013106	-0.101648	0.023010	0.002884	166.345340	-85.139951	138.237850
61512	9.676296	-0.250263	-1.050846	-0.022738	0.026332	0.007044	166.378047	-85.155060	138.193434
61513	9.687646	-0.300158	-1.014829	0.081037	0.037195	0.010875	166.476955	-85.176774	138.142239
61514	9.626955	-0.041945	-0.930852	0.168462	0.037086	0.014079	166.649960	-85.198796	138.066974
61515	9.653748	0.215643	-0.697399	0.193946	0.026759	0.011127	166.833446	-85.214698	137.995826
61516	9.763464	0.348460	-0.498009	0.162883	0.022555	0.005016	166.967391	-85.227398	137.956539
61517	9.746048	0.446430	-0.596768	0.108272	0.023626	0.007215	167.081775	-85.241019	137.905478
61518	9.710666	0.381989	-0.586455	0.044563	0.013958	0.003916	167.154459	-85.248772	137.859680
61519	9.709043	0.278195	-0.592438	0.001903	0.003735	0.002506	167.207287	-85.250670	137.809233
61520	9.778504	0.177020	-0.833709	-0.013259	0.002061	0.008236	167.294210	-85.252311	137.715849
61521	9.692763	0.047137	-0.956799	0.001337	0.014908	0.013004	167.400689	-85.261761	137.611243
61522	9.610869	-0.032681	-0.971076	0.038578	0.012200	0.012991	167.534570	-85.269636	137.500577
61523	9.609790	-0.062301	-0.902051	0.095027	0.010751	0.018995	167.742396	-85.277450	137.348143
61524	9.690587	0.063618	-0.865102	0.123234	0.011050	0.024514	168.005791	-85.286001	137.156193
61525	9.677252	0.131819	-0.809187	0.138417	0.012122	0.026052	168.285946	-85.295302	136.956133
61526	9.686215	0.257330	-0.659833	0.133909	0.014978	0.027706	168.573576	-85.306267	136.745985
61527	9.644922	0.317206	-0.643128	0.093892	0.012536	0.025869	168.828355	-85.315621	136.545796
61528	9.697311	0.280616	-0.672420	0.043852	0.006085	0.023583	169.049934	-85.320988	136.350213
61529	9.702571	0.153424	-0.800091	0.010412	0.011355	0.014713	169.183104	-85.328352	136.224054
61530	9.723730	-0.020848	-0.806088	0.002489	0.009139	0.011796	169.296593	-85.334088	136.113085
61531	9.752480	-0.140437	-0.860529	0.017481	0.006624	0.011720	169.419984	-85.338427	136.000802
61532	9.712432	-0.129325	-0.863939	0.052016	0.015757	0.011395	169.551221	-85.347815	135.900540
61533	9.661654	-0.069960	-0.900206	0.081971	0.022164	0.006108	169.653528	-85.360293	135.846485
61534	9.675912	0.010724	-0.926450	0.106076	0.024872	0.004911	169.760153	-85.374121	135.801969
61535	9.701578	0.119715	-0.844942	0.119450	0.028375	0.003315	169.857522	-85.389802	135.774414
61536	9.759722	0.239351	-0.758506	0.103503	0.031505	0.009052	169.984390	-85.407768	135.708077
61537	9.744195	0.207611	-0.828692	0.083648	0.038522	0.004621	170.058822	-85.429297	135.682956
61538	9.712044	0.195939	-0.829899	0.064256	0.039214	0.003553	170.115981	-85.451058	135.664021
61539	9.707376	0.116641	-0.865298	0.046709	0.046277	0.002711	170.146831	-85.476773	135.661390
61540	9.693011	-0.119929	-0.857080	0.036088	0.045045	-0.002693	170.136392	-85.501212	135.694111
61541	9.703686	-0.244922	-0.892210	0.081588	0.045315	-0.006832	170.119790	-85.525446	135.759122
61542	9.652901	-0.339220	-0.829138	0.147798	0.045314	-0.011645	170.107867	-85.549153	135.857515
61543	9.650938	-0.160309	-0.711736	0.197714	0.043972	-0.016162	170.090827	-85.571707	135.989697
61544	9.676876	0.105702	-0.605036	0.188499	0.040543	-0.021073	170.038321	-85.591783	136.152161
61545	9.648336	0.303329	-0.596971	0.143265	0.038862	-0.029174	169.899400	-85.610133	136.375289
61546	9.657524	0.231482	-0.613154	0.092374	0.032311	-0.034368	169.702338	-85.624165	136.627497
61547	9.708090	0.020231	-0.594563	0.058986	0.032733	-0.046145	169.395040	-85.637171	136.971054
61548	9.687923	-0.162785	-0.653989	0.056018	0.032196	-0.045233	169.093744	-85.649792	137.306911
61549	9.654242	-0.195632	-0.709599	0.099812	0.023260	-0.058250	168.730405	-85.655846	137.730119
61550	9.700934	-0.098394	-0.732228	0.123673	0.021031	-0.057500	168.390821	-85.660502	138.143240
61551	9.809011	-0.030769	-0.608679	0.171351	0.013592	-0.064800	168.033303	-85.659974	138.601713
61552	9.735071	0.180253	-0.697033	0.158489	0.020846	-0.058482	167.705695	-85.664033	139.022826
61553	9.758087	0.270503	-0.672226	0.137700	0.011923	-0.065911	167.323257	-85.662012	139.486954
61554	9.751918	0.247944	-0.690398	0.143959	0.016705	-0.066108	166.937430	-85.662375	139.958105
61555	9.661101	0.170447	-0.756832	0.116588	0.009715	-0.065666	166.549188	-85.658682	140.415923
61556	9.818797	-0.075812	-0.496918	0.207496	0.029297	-0.073797	166.120893	-85.664520	140.966174
61557	9.578906	0.332327	-0.795104	0.213293	0.022763	-0.053084	165.856484	-85.669371	141.355367
61558	9.689323	0.526578	-0.861889	0.124252	-0.008354	-0.049751	165.625655	-85.657265	141.659752
61559	9.832971	0.463055	-0.303807	0.165849	0.013337	-0.065323	165.262963	-85.654847	142.120255
61560	9.584588	0.446537	-0.947983	0.102449	0.015230	-0.054094	164.944535	-85.654907	142.499965
61561	9.641241	0.495876	-0.939011	0.051094	-0.006429	-0.044617	164.706624	-85.644287	142.769391
61562	9.783751	0.405438	-0.433801	-0.006579	-0.001429	-0.030284	164.532626	-85.638512	142.941606
61563	9.840219	0.162199	-0.745419	-0.000531	-0.000262	-0.032071	164.345250	-85.633086	143.130690
61564	9.660780	-0.047816	-0.652491	0.042601	0.011918	-0.047566	164.048280	-85.631878	143.454497
61565	9.578063	0.034642	-0.521346	0.100597	0.017202	-0.050018	163.753981	-85.633080	143.808927
61566	9.538543	0.661547	-0.844759	0.059789	-0.015432	-0.033583	163.625604	-85.618870	143.973531
61567	9.838424	0.876157	-0.626603	-0.004191	-0.024499	-0.027046	163.525455	-85.600722	144.073035
61568	9.897099	0.690183	-0.710813	-0.082010	-0.006785	-0.018192	163.408932	-85.593717	144.144266
61569	9.743893	0.428123	-0.929283	-0.151872	-0.002032	-0.013623	163.273251	-85.590075	144.194544
61570	9.740899	0.129018	-0.570100	-0.104866	0.006070	-0.029933	163.033014	-85.588135	144.376720
61571	9.701338	0.139267	-0.819265	-0.085548	-0.005002	-0.033319	162.802566	-85.579523	144.560161
61572	9.729432	0.256367	-0.777621	-0.059185	0.002321	-0.020843	162.661718	-85.576976	144.668906
61573	9.706087	0.431153	-0.776316	-0.051499	-0.005591	-0.011469	162.607412	-85.571709	144.695248
61574	9.773226	0.507399	-0.782740	-0.062376	-0.004975	-0.011970	162.543761	-85.566670	144.724731
61575	9.720860	0.466940	-0.703662	-0.096182	0.002705	-0.012405	162.439032	-85.565770	144.775970
61576	9.712999	0.312222	-0.656127	-0.119681	0.003724	-0.014302	162.306839	-85.565065	144.841267
61577	9.688614	0.280104	-0.660043	-0.140512	-0.002360	-0.012957	162.184322	-85.561288	144.884872
61578	9.666355	0.196655	-0.682929	-0.160202	0.000149	-0.009179	162.073064	-85.559514	144.905884
61579	9.645218	0.140519	-0.652834	-0.151854	-0.005052	-0.017654	161.917523	-85.553423	144.976094
61580	9.715479	0.088603	-0.750031	-0.156851	-0.007334	-0.014235	161.790139	-85.546666	145.015210
61581	9.731755	0.148746	-0.746452	-0.145336	-0.010994	-0.019788	161.637763	-85.536932	145.085993
61582	9.833241	0.186433	-0.766758	-0.135516	-0.008353	-0.015904	161.513953	-85.529305	145.133785
61583	9.759890	0.266423	-0.826396	-0.117996	-0.001718	-0.015181	161.388415	-85.525424	145.193361
61584	9.717432	0.331859	-0.811758	-0.126929	0.005387	-0.015427	161.241133	-85.525323	145.269633
61585	9.706176	0.382046	-0.845101	-0.138963	0.008359	-0.016337	161.072018	-85.526669	145.360870
61586	9.698932	0.330871	-0.794963	-0.144989	0.003697	-0.016083	160.913844	-85.525492	145.437686
61587	9.699710	0.255876	-0.744837	-0.132232	0.009828	-0.004302	160.828230	-85.529858	145.449036
61588	9.697989	0.127756	-0.680202	-0.136664	0.004452	-0.006987	160.735925	-85.530782	145.464565
61589	9.748488	0.043292	-0.693935	-0.126043	0.008466	-0.003784	160.660558	-85.534506	145.469193
61590	9.754335	0.072341	-0.673469	-0.112196	0.008419	-0.004195	160.591934	-85.538104	145.475031
61591	9.698185	0.028534	-0.804878	-0.114024	0.004681	-0.006666	160.512628	-85.539233	145.490517
61592	9.709778	0.085622	-0.765242	-0.096790	0.001497	-0.006863	160.451292	-85.538581	145.497902
61593	9.725791	0.040919	-0.764986	-0.066663	0.005589	-0.009747	160.375533	-85.539605	145.537049
61594	9.731600	0.070153	-0.744828	-0.043502	0.003528	-0.011759	160.305918	-85.539104	145.583363
61595	9.707620	0.140650	-0.744076	-0.016712	0.005449	-0.010376	160.254742	-85.539924	145.626559
61596	9.696612	0.293063	-0.772165	-0.011538	0.002545	-0.009253	160.223261	-85.539373	145.652993
61597	9.693178	0.421516	-0.678363	-0.013130	0.003248	-0.006318	160.207644	-85.539790	145.662580
61598	9.671395	0.440650	-0.697434	-0.023902	0.003934	-0.006775	160.182715	-85.540466	145.675336
61599	9.718255	0.379562	-0.623755	-0.031347	0.007037	-0.000450	160.187784	-85.544064	145.653706
61600	9.733274	0.307736	-0.677216	-0.051549	0.003504	0.001329	160.204083	-85.546081	145.609220
61601	9.695284	0.268780	-0.701421	-0.040118	0.006230	0.006090	160.251494	-85.550510	145.540078
61602	9.708053	0.247026	-0.735501	-0.032335	-0.003862	0.010343	160.359646	-85.550288	145.414504
61603	9.667772	0.257899	-0.740831	-0.026993	-0.005852	0.015304	160.508517	-85.549943	145.251138
61604	9.666992	0.334145	-0.789732	-0.009837	-0.009091	0.015074	160.675127	-85.547747	145.079857
61605	9.654270	0.353963	-0.755995	-0.012757	-0.003475	0.015324	160.826431	-85.548621	144.922233
61606	9.689816	0.338918	-0.717522	-0.024971	-0.010246	0.013483	160.975841	-85.545427	144.759506
61607	9.738033	0.302703	-0.713933	-0.042121	-0.015823	0.016614	161.148604	-85.539783	144.563480
61608	9.753905	0.255579	-0.716055	-0.061363	-0.023433	0.011162	161.291462	-85.528937	144.386407
61609	9.708786	0.265129	-0.688867	-0.065772	-0.022630	0.007788	161.404207	-85.517905	144.236986
61610	9.737281	0.197503	-0.725871	-0.065328	-0.026317	0.008904	161.534338	-85.505021	144.070394
61611	9.774861	0.132519	-0.709170	-0.067857	-0.021748	0.008036	161.644194	-85.494464	143.922667
61612	9.891154	0.095924	-0.783842	-0.053200	-0.005428	0.003390	161.694238	-85.491904	143.843377
61613	9.979967	0.050602	-0.896054	-0.050033	0.013723	0.000577	161.681386	-85.499278	143.828982
61614	9.901037	0.102031	-0.971541	-0.049783	0.029661	0.000911	161.636025	-85.515353	143.847357
61615	9.694923	0.056631	-0.964589	-0.012753	0.034492	0.001598	161.603665	-85.534206	143.873956
61616	9.704318	0.058921	-0.907528	0.032288	0.033421	0.000892	161.596174	-85.552317	143.901512
61617	9.659634	0.068453	-0.874964	0.070431	0.035076	-0.001812	161.585885	-85.570870	143.953776
61618	9.676892	0.149297	-0.689675	0.100275	0.041072	0.000270	161.594844	-85.593024	144.003902
61619	9.710865	0.288675	-0.620777	0.100863	0.040956	0.002996	161.621736	-85.615644	144.036360
61620	9.750745	0.353507	-0.660328	0.086686	0.038630	0.002990	161.647714	-85.636966	144.061603
61621	9.709524	0.441298	-0.588121	0.056501	0.033716	0.002041	161.659442	-85.655478	144.083776
61622	9.722478	0.419694	-0.619656	0.020694	0.026569	0.001740	161.667174	-85.670018	144.089398
61623	9.703138	0.387245	-0.656663	-0.010799	0.023906	0.000329	161.651287	-85.682886	144.100594
61624	9.697535	0.359572	-0.674152	-0.018523	0.022545	0.001215	161.642230	-85.695143	144.100521
61625	9.656500	0.345507	-0.731018	-0.039402	0.018525	0.007482	161.674540	-85.706375	144.046948
61626	9.715985	0.262191	-0.690590	-0.040050	0.015125	0.003177	161.685252	-85.714947	144.014672
61627	9.745774	0.220471	-0.669612	-0.027041	0.017127	0.005018	161.710438	-85.724972	143.975347
61628	9.755558	0.223812	-0.736347	-0.019219	0.013207	0.008621	161.777611	-85.733476	143.898422
61629	9.726947	0.290268	-0.700188	-0.010469	0.016909	0.010916	161.856361	-85.744430	143.814906
61630	9.679798	0.349990	-0.649393	-0.018557	0.016616	0.012932	161.948028	-85.755542	143.713820
61631	9.682586	0.401657	-0.661794	-0.035803	0.016334	0.011546	162.019131	-85.766277	143.623420
61632	9.696454	0.405215	-0.640414	-0.056711	0.014973	0.015565	162.113148	-85.776935	143.498040
61633	9.706778	0.330158	-0.658998	-0.086590	0.014551	0.020030	162.223082	-85.788165	143.339529
61634	9.711308	0.227610	-0.697835	-0.099664	0.009044	0.016596	162.315269	-85.795734	143.191322
61635	9.735244	0.157451	-0.697565	-0.095377	0.007363	0.016154	162.409483	-85.802326	143.043528
61636	9.711373	0.044713	-0.654382	-0.094161	0.010401	0.012131	162.469164	-85.809832	142.931067
61637	9.703513	0.067186	-0.652929	-0.079932	0.012754	0.012185	162.530656	-85.818660	142.824959
61638	9.697465	0.117100	-0.719559	-0.075423	0.006442	0.008984	162.587498	-85.823446	142.726122
61639	9.673722	0.185952	-0.717745	-0.073156	0.009154	0.010376	162.648325	-85.829980	142.624575
61640	9.680441	0.238420	-0.642586	-0.079247	0.007134	0.008325	162.696842	-85.835017	142.531894
61641	9.742029	0.285905	-0.664637	-0.100492	0.009338	0.000207	162.665514	-85.839909	142.507043
61642	9.744287	0.235804	-0.683656	-0.117701	0.014663	0.005456	162.652923	-85.848576	142.453547
61643	9.755367	0.187838	-0.648588	-0.125907	0.016194	0.001425	162.600067	-85.857427	142.435681
61644	9.760367	0.190793	-0.681048	-0.125434	0.012528	0.002535	162.566050	-85.864429	142.399171
61645	9.711761	0.123096	-0.691284	-0.115406	0.013931	0.005292	162.553783	-85.872708	142.346643
61646	9.716762	0.125696	-0.724085	-0.094470	0.009945	0.005722	162.567953	-85.878848	142.279650
61647	9.730531	0.130064	-0.703157	-0.091832	0.011596	0.005985	162.580227	-85.885969	142.216061
61648	9.738553	0.106930	-0.702379	-0.066988	0.013120	0.006480	162.608685	-85.893972	142.150564
61649	9.750165	0.161059	-0.660384	-0.052633	0.013628	0.012596	162.689376	-85.903328	142.040901
61650	9.768899	0.167093	-0.672991	-0.041173	0.019608	0.007951	162.728956	-85.915118	141.979022
61651	9.745255	0.235879	-0.669687	-0.040889	0.012349	0.007394	162.780313	-85.922876	141.905515
61652	9.700229	0.244914	-0.639013	-0.041117	0.016958	0.010177	162.843871	-85.933583	141.819566
61653	9.724724	0.278079	-0.631326	-0.050845	0.013852	0.013515	162.933769	-85.943183	141.701705
61654	9.729806	0.279537	-0.663891	-0.063929	0.013911	0.016677	163.042664	-85.953292	141.557253
61655	9.724179	0.251126	-0.682909	-0.069105	0.010687	0.016179	163.151270	-85.961571	141.410151
61656	9.713576	0.220254	-0.667987	-0.069975	0.011941	0.014626	163.246525	-85.970228	141.276023
61657	9.732426	0.147043	-0.634638	-0.059093	0.009369	0.021143	163.403751	-85.978558	141.085934
61658	9.727460	0.221469	-0.645867	-0.055266	0.011368	0.019603	163.548923	-85.987662	140.910207
61659	9.706031	0.238674	-0.663793	-0.051237	0.011572	0.024130	163.730532	-85.997613	140.700192
61660	9.738451	0.247598	-0.657068	-0.048759	0.009655	0.022747	163.909494	-86.006216	140.494408
61661	9.784526	0.260576	-0.630588	-0.063562	0.009548	0.025006	164.097393	-86.015097	140.271013
61662	9.775997	0.178135	-0.636976	-0.067939	0.013235	0.030502	164.320824	-86.026782	140.009764
61663	9.746737	0.217707	-0.654105	-0.059870	0.010822	0.030692	164.555423	-86.037121	139.741684
61664	9.708791	0.176994	-0.678935	-0.060929	0.014007	0.034148	164.812975	-86.049611	139.449780
61665	9.688225	0.217603	-0.642125	-0.061043	0.010481	0.032506	165.065044	-86.059870	139.163522
61666	9.720542	0.146725	-0.589369	-0.058924	0.009622	0.032271	165.321599	-86.069472	138.874058
61667	9.693328	0.135896	-0.628289	-0.059365	0.004481	0.033983	165.601814	-86.076435	138.560557
61668	9.725720	0.143541	-0.622134	-0.050288	0.004345	0.037376	165.917457	-86.083632	138.216425
61669	9.731623	0.167356	-0.601134	-0.052507	0.001693	0.035972	166.225530	-86.089090	137.878944
61670	9.785496	0.155644	-0.575971	-0.059138	0.005392	0.037865	166.540487	-86.096680	137.530548
61671	9.766082	0.121339	-0.615862	-0.065901	0.005557	0.038105	166.852933	-86.104322	137.180998
61672	9.757534	0.116917	-0.669087	-0.057713	0.006657	0.039942	167.186424	-86.112655	136.815648
61673	9.685191	0.115258	-0.678569	-0.051688	0.013979	0.037620	167.490305	-86.124678	136.482852
61674	9.693090	0.088829	-0.678245	-0.044149	0.009047	0.037288	167.808738	-86.133716	136.140055
61675	9.673629	0.054866	-0.718154	-0.045662	0.004286	0.033572	168.103092	-86.139579	135.820276
61676	9.693235	0.082517	-0.676965	-0.031420	0.007319	0.037481	168.436022	-86.147446	135.470559
61677	9.685551	0.102211	-0.675516	-0.028079	0.004138	0.037637	168.776753	-86.153441	135.114401
61678	9.718831	0.133735	-0.614567	-0.022887	0.004562	0.029282	169.052940	-86.158593	134.826540
61679	9.751250	0.141529	-0.608438	-0.031717	0.002939	0.031965	169.347802	-86.163056	134.514270
61680	9.767343	0.171586	-0.655232	-0.053267	0.005757	0.032271	169.631055	-86.169004	134.201708
61681	9.764166	0.115671	-0.642402	-0.066411	0.002377	0.033790	169.923764	-86.173125	133.871676
61682	9.712272	0.071653	-0.688326	-0.063828	0.006667	0.031863	170.197760	-86.179336	133.562251
61683	9.760134	0.033174	-0.683611	-0.061568	0.009334	0.033290	170.480628	-86.187123	133.244868
61684	9.740594	-0.000365	-0.723489	-0.047132	0.007740	0.034378	170.786635	-86.193935	132.912991
61685	9.720212	0.039719	-0.686627	-0.028758	0.011636	0.035595	171.107302	-86.203008	132.576571
61686	9.757761	0.049918	-0.713632	-0.015920	0.013394	0.037441	171.452514	-86.213065	132.223515
61687	9.729775	0.112688	-0.675388	-0.009498	0.014273	0.038366	171.808035	-86.223597	131.863232
61688	9.714591	0.155210	-0.671934	-0.005512	0.017097	0.040699	172.186256	-86.235697	131.482455
61689	9.742068	0.158578	-0.630427	-0.008795	0.017625	0.042754	172.580579	-86.248153	131.083700
61690	9.757542	0.108097	-0.630598	-0.013812	0.017986	0.043900	172.986109	-86.260643	130.670972
61691	9.717671	0.116466	-0.633713	-0.016210	0.017263	0.047507	173.423357	-86.272839	130.224954
61692	9.736583	0.118544	-0.646245	-0.007674	0.014569	0.050382	173.898210	-86.283384	129.746576
61693	9.717959	0.107000	-0.630955	-0.015442	0.009809	0.049590	174.366357	-86.290982	129.270045
61694	9.694188	0.092377	-0.581844	-0.015777	0.010876	0.050753	174.846994	-86.298936	128.780740
61695	9.665467	0.130271	-0.598848	-0.021300	0.008767	0.051384	175.332265	-86.305510	128.283694
61696	9.705573	0.112559	-0.593264	-0.034438	0.005438	0.052892	175.828476	-86.309899	127.767826
61697	9.758362	0.074573	-0.622721	-0.051569	0.007444	0.056578	176.346375	-86.315361	127.220712
61698	9.741124	0.012934	-0.629840	-0.066986	0.006848	0.052275	176.820625	-86.319954	126.708537
61699	9.748714	-0.015068	-0.630191	-0.066421	0.006671	0.054999	177.319104	-86.324323	126.172362
61700	9.742633	-0.046587	-0.650480	-0.063990	0.007417	0.051406	177.789331	-86.328650	125.665677
61701	9.744041	-0.101067	-0.671874	-0.056868	0.006164	0.050020	178.251246	-86.332059	125.171631
61702	9.727582	-0.138655	-0.624309	-0.037474	0.006790	0.047770	178.706394	-86.335473	124.695583
61703	9.766525	-0.179522	-0.673687	-0.024323	0.010102	0.046274	179.154591	-86.340595	124.233973
61704	9.830092	-0.113414	-0.638973	-0.002183	0.007691	0.041443	179.575059	-86.344021	123.812984
61705	9.758691	-0.091160	-0.594121	0.001121	0.004476	0.041581	179.997927	-86.345469	123.391365
61706	9.743760	-0.048599	-0.591365	0.000230	0.008422	0.037843	-179.611150	-86.348922	123.001291
61707	9.770061	-0.068549	-0.605809	-0.008965	0.005155	0.032773	-179.272267	-86.350446	122.658040
61708	9.786612	-0.038616	-0.652397	-0.017426	0.002547	0.034292	-178.923296	-86.350265	122.299849
61709	9.684035	-0.075318	-0.635637	-0.015721	0.008069	0.030822	-178.604795	-86.353223	121.973142
61710	9.683029	-0.101425	-0.690022	-0.000005	0.004793	0.025061	-178.327970	-86.354215	121.697204
61711	9.667679	-0.186647	-0.664566	-0.000560	0.007676	0.020158	-178.096003	-86.356938	121.465913
61712	9.713814	-0.175050	-0.637961	0.006190	0.007447	0.019923	-177.860475	-86.359403	121.234952
61713	9.688763	-0.210352	-0.644298	0.010343	0.005642	0.019419	-177.628996	-86.360859	121.010410
61714	9.728679	-0.225204	-0.638633	0.028818	0.010152	0.013424	-177.437350	-86.364918	120.836393
61715	9.727541	-0.176430	-0.615350	0.015967	0.013853	0.007184	-177.308942	-86.371302	120.718361
61716	9.735052	-0.200461	-0.614643	0.018734	0.021650	0.006949	-177.175531	-86.382064	120.596925
61717	9.639535	-0.151600	-0.675473	0.012280	0.015359	-0.000705	-177.119052	-86.389505	120.548851
61718	9.649251	-0.201140	-0.642109	0.013820	0.014656	-0.003670	-177.087049	-86.396554	120.526211
61719	9.655567	-0.174244	-0.619624	0.020234	0.015488	-0.002737	-177.044073	-86.404125	120.496234
61720	9.647032	-0.100808	-0.595228	0.025066	0.011561	-0.005562	-177.024072	-86.409456	120.492053
61721	9.657320	-0.020469	-0.585201	0.014320	0.008996	-0.007677	-177.032458	-86.413457	120.510143
61722	9.693885	0.043336	-0.589991	0.009136	0.016666	-0.005883	-177.022029	-86.421721	120.506445
61723	9.687755	0.017466	-0.609848	-0.013407	0.006569	-0.011160	-177.079416	-86.424435	120.557715
61724	9.727685	0.005613	-0.604341	-0.014804	0.005350	-0.013234	-177.155521	-86.426432	120.626925
61725	9.735157	-0.016125	-0.604651	-0.030394	0.009391	-0.014719	-177.254200	-86.430852	120.709814
61726	9.751335	-0.110908	-0.627807	-0.032465	0.010297	-0.014466	-177.349869	-86.435706	120.788538
61727	9.732556	-0.115921	-0.612901	-0.018622	0.008782	-0.016083	-177.455061	-86.439796	120.884711
61728	9.732635	-0.114377	-0.611937	-0.007876	0.011352	-0.013963	-177.531979	-86.445222	120.958773
61729	9.692811	-0.099763	-0.615877	-0.007195	0.009232	-0.016288	-177.632800	-86.449554	121.057126
61730	9.683248	-0.048832	-0.646826	0.011708	0.010112	-0.010129	-177.664039	-86.454167	121.096607
61731	9.710532	-0.040913	-0.605635	0.012217	0.015275	-0.011796	-177.710360	-86.461844	121.151497
61732	9.705352	-0.043179	-0.570374	0.011371	0.011175	-0.008966	-177.730829	-86.467035	121.180004
61733	9.728238	0.017454	-0.595137	0.012234	0.012596	-0.009604	-177.758087	-86.473126	121.215804
61734	9.676988	0.001687	-0.586079	-0.004918	0.009188	-0.012663	-177.823177	-86.477261	121.279675
61735	9.724411	-0.033158	-0.581244	-0.013937	0.009456	-0.016064	-177.926956	-86.481686	121.377117
61736	9.731088	-0.078251	-0.636369	-0.023622	0.009164	-0.014950	-178.024450	-86.485841	121.462723
61737	9.687326	-0.116389	-0.628487	-0.018809	0.010607	-0.022152	-178.188014	-86.491017	121.617265
61738	9.694888	-0.137438	-0.628548	-0.013259	0.010025	-0.020575	-178.332462	-86.495736	121.755850
61739	9.773442	-0.111328	-0.595508	-0.007913	0.011267	-0.025062	-178.517771	-86.501283	121.938430
61740	9.735809	-0.122343	-0.566495	-0.002364	0.010686	-0.023485	-178.683900	-86.506372	122.105046
61741	9.766922	-0.059852	-0.537378	0.000918	0.010148	-0.025534	-178.869891	-86.511215	122.293378
61742	9.730159	-0.014589	-0.608239	0.002125	0.010512	-0.027333	-179.070690	-86.516182	122.497278
61743	9.721280	0.061070	-0.584170	-0.006685	0.008951	-0.024670	-179.254111	-86.520255	122.678668
61744	9.728814	0.040357	-0.584523	-0.016544	0.005111	-0.025246	-179.447492	-86.522027	122.864385
61745	9.768026	0.006497	-0.633937	-0.011008	0.007216	-0.025855	-179.645421	-86.525037	123.057828
61746	9.770292	-0.017136	-0.600281	-0.017077	0.008005	-0.030143	-179.885762	-86.528396	123.290264
61747	9.785388	-0.060601	-0.601790	-0.008237	0.004205	-0.028426	179.892923	-86.529589	123.508726
61748	9.740189	-0.048180	-0.572304	0.007511	0.006414	-0.027432	179.691584	-86.531931	123.716117
61749	9.726671	-0.049131	-0.591931	0.007009	0.001249	-0.025769	179.504019	-86.531347	123.909517
61750	9.711604	-0.000396	-0.589617	0.013072	0.003154	-0.023666	179.341642	-86.531765	124.081197
61751	9.702512	0.074986	-0.566259	0.008748	0.001413	-0.024854	179.163776	-86.531211	124.265878
61752	9.742467	0.064432	-0.560980	-0.004230	0.004322	-0.023884	178.989104	-86.532240	124.439961
61753	9.736485	0.040112	-0.581714	-0.011492	0.002054	-0.024186	178.805866	-86.531991	124.618405
61754	9.738074	-0.007521	-0.603689	-0.011822	0.000428	-0.020836	178.656439	-86.530753	124.762758
61755	9.738077	-0.005321	-0.603664	-0.015284	0.000108	-0.022660	178.486027	-86.529351	124.926177
61756	9.732786	-0.006516	-0.569532	-0.014587	0.003445	-0.018260	178.358820	-86.529857	125.047020
61757	9.730520	0.021961	-0.602220	-0.008877	0.000960	-0.021719	178.200882	-86.528909	125.201621
61758	9.730528	0.024101	-0.602004	-0.008361	0.003444	-0.021192	178.049560	-86.529291	125.349848
61759	9.686902	-0.014079	-0.594956	-0.008873	0.000964	-0.021717	177.891753	-86.528293	125.504320
61760	9.711688	0.021519	-0.587847	-0.005921	-0.001196	-0.020417	177.750598	-86.526001	125.643704
61761	9.724599	0.003682	-0.622681	-0.005765	0.005033	-0.020913	177.600778	-86.527305	125.791958
61762	9.719312	0.002465	-0.588457	-0.011803	0.000439	-0.020829	177.452257	-86.525896	125.935639
61763	9.727543	0.004887	-0.534550	-0.011107	-0.001673	-0.023152	177.281157	-86.523254	126.102146
61764	9.723925	-0.045799	-0.523044	-0.023553	-0.004428	-0.026192	177.077462	-86.518872	126.294063
61765	9.699161	-0.076849	-0.530729	-0.003648	-0.006675	-0.023513	176.910405	-86.513291	126.460802
61766	9.705043	-0.047598	-0.510472	0.000683	-0.010368	-0.029047	176.698367	-86.505348	126.675261
61767	9.722083	0.011903	-0.503524	-0.001540	-0.015698	-0.028299	176.494191	-86.494373	126.880401
61768	9.666703	0.073645	-0.507993	-0.001522	-0.018385	-0.026113	176.314951	-86.481850	127.060436
61769	9.637732	0.119171	-0.527897	-0.012393	-0.024520	-0.029924	176.097646	-86.465686	127.272505
61770	9.624647	0.141794	-0.495247	-0.026209	-0.025746	-0.026123	175.911966	-86.448876	127.444857
61771	9.669305	0.078926	-0.427206	-0.038291	-0.029557	-0.030314	175.683557	-86.429724	127.653195
61772	9.650344	0.075181	-0.416293	-0.046034	-0.034306	-0.031131	175.450644	-86.407728	127.861464
61773	9.659604	0.005571	-0.443631	-0.062534	-0.048769	-0.033821	175.196040	-86.377334	128.082142
61774	9.756446	0.040393	-0.430477	-0.068874	-0.052290	-0.032556	174.957285	-86.344910	128.283237
61775	9.726527	0.063448	-0.508515	-0.081592	-0.056658	-0.032215	174.720293	-86.309981	128.475339
61776	9.734014	0.100578	-0.614816	-0.086708	-0.059794	-0.032741	174.484335	-86.273145	128.663546
61777	9.826568	0.059301	-0.646342	-0.090090	-0.062766	-0.032357	174.254638	-86.234626	128.843475
61778	9.827161	0.047033	-0.828829	-0.107722	-0.049736	-0.028956	174.038428	-86.203671	129.000120
61779	9.721977	0.042440	-0.849959	-0.094436	-0.042831	-0.028744	173.826446	-86.176640	129.159812
61780	9.719289	-0.079842	-0.920658	-0.062642	-0.047502	-0.032579	173.609062	-86.146654	129.343614
61781	9.750681	-0.145992	-0.874682	-0.008758	-0.034804	-0.030505	173.428805	-86.124003	129.520720
61782	9.747079	-0.101048	-0.733241	0.035841	-0.026183	-0.026287	173.304688	-86.106495	129.667627
61783	9.767844	0.033938	-0.683752	0.064543	-0.032212	-0.022041	173.237671	-86.085836	129.773335
61784	9.748831	0.124234	-0.539835	0.082822	-0.028376	-0.020836	173.190054	-86.067433	129.870710
61785	9.776450	0.212458	-0.547202	0.067023	-0.031412	-0.014538	173.187079	-86.047729	129.913652
61786	9.689172	0.284777	-0.503518	0.035877	-0.037749	-0.010329	173.208953	-86.024698	129.914220
61787	9.717206	0.219923	-0.545099	0.000353	-0.040453	-0.011644	173.200596	-86.000047	129.924268
61788	9.755187	0.162281	-0.654944	-0.028756	-0.044997	-0.009865	173.195921	-85.972902	129.913813
61789	9.739268	0.113627	-0.789541	-0.037871	-0.045549	-0.005998	173.216152	-85.945734	129.873247
61790	9.697447	0.024055	-0.809465	-0.017667	-0.046123	-0.006773	173.243369	-85.918170	129.837454
61791	9.717210	-0.097870	-0.806208	0.023217	-0.044809	-0.007814	173.282552	-85.891299	129.812975
61792	9.772835	-0.076316	-0.852351	0.055051	-0.035147	-0.007660	173.333480	-85.869926	129.795429
61793	9.764012	0.019852	-0.777112	0.068927	-0.039254	-0.007163	173.397955	-85.846255	129.771849
61794	9.760160	0.119495	-0.735704	0.078856	-0.029158	-0.007124	173.460958	-85.828325	129.756332
61795	9.759939	0.119498	-0.738628	0.065941	-0.028978	-0.003881	173.539185	-85.810714	129.717248
61796	9.724270	0.055774	-0.735272	0.054132	-0.023052	-0.006810	173.583350	-85.796306	129.705704
61797	9.758265	0.017139	-0.753911	0.045945	-0.018691	-0.012971	173.570262	-85.783966	129.746691
61798	9.741289	-0.038649	-0.763873	0.042494	-0.019008	-0.014768	173.543214	-85.771350	129.800269
61799	9.748929	-0.060404	-0.766808	0.044011	-0.016986	-0.019914	173.474577	-85.759527	129.895848
61800	9.759660	-0.028621	-0.781257	0.055383	-0.013770	-0.022362	173.392189	-85.749348	130.011311
61801	9.706768	0.005522	-0.752001	0.061119	-0.016199	-0.025843	173.288283	-85.737558	130.152090
61802	9.718698	0.140562	-0.755987	0.063499	-0.010025	-0.022739	173.205958	-85.729448	130.272733
61803	9.682556	0.231576	-0.718649	0.045572	-0.014939	-0.025039	173.099267	-85.718396	130.407374
61804	9.731464	0.221715	-0.661873	0.012541	-0.016157	-0.026037	172.969217	-85.706498	130.545996
61805	9.761396	0.108365	-0.722943	0.009570	-0.014013	-0.027319	172.825151	-85.695765	130.697437
61806	9.715150	0.096493	-0.749742	0.008022	-0.013338	-0.024354	172.704465	-85.685560	130.824782
61807	9.704250	0.068883	-0.738037	0.014596	-0.014345	-0.028481	172.556270	-85.674501	130.983255
61808	9.737535	0.185146	-0.723674	0.021887	-0.014721	-0.026040	172.433161	-85.663318	131.120423
61809	9.717661	0.156959	-0.766025	0.008435	-0.017063	-0.023318	172.324235	-85.651055	131.235979
61810	9.740874	0.169457	-0.815897	0.006350	-0.016180	-0.023057	172.217247	-85.639279	131.348661
61811	9.768251	0.178525	-0.777988	0.012668	-0.018777	-0.012762	172.192085	-85.626838	131.382645
61812	9.726170	0.162475	-0.717191	0.010534	-0.015212	-0.014691	172.149687	-85.616221	131.432929
61813	9.712428	0.080274	-0.693807	0.031378	-0.018598	-0.010598	172.151399	-85.604048	131.450713
61814	9.753649	0.092094	-0.636148	0.027740	-0.017045	-0.007372	172.174579	-85.592938	131.444388
61815	9.717900	0.187784	-0.721298	0.010462	-0.018686	-0.005283	172.203472	-85.581130	131.422890
61816	9.717520	0.267700	-0.768249	0.017624	-0.022577	-0.004519	172.247357	-85.567151	131.390865
61817	9.731162	0.271595	-0.750319	0.004376	-0.015208	-0.000639	172.302944	-85.557672	131.339095
61818	9.691064	0.204869	-0.711572	-0.015484	-0.021174	-0.007680	172.302454	-85.544197	131.331461
61819	9.701857	0.156023	-0.681799	-0.027916	-0.021262	-0.001732	172.337143	-85.531194	131.282092
61820	9.714278	0.136292	-0.719263	-0.035758	-0.026834	0.004728	172.420231	-85.515494	131.179614
61821	9.718807	0.139332	-0.756000	-0.037431	-0.029678	0.006024	172.512816	-85.498284	131.066700
61822	9.720172	0.168568	-0.825850	-0.030974	-0.031471	0.009103	172.633405	-85.480199	130.929064
61823	9.723061	0.141693	-0.795990	-0.042914	-0.031800	0.006692	172.727888	-85.461799	130.811088
61824	9.719695	0.167574	-0.831646	-0.039664	-0.026894	0.011322	172.853492	-85.446491	130.664431
61825	9.707505	0.113056	-0.875969	-0.022564	-0.023375	0.014234	173.004144	-85.433372	130.501801
61826	9.754848	0.149915	-0.797947	-0.021550	-0.023828	0.008567	173.115789	-85.419513	130.378610
61827	9.808760	0.140161	-0.775689	-0.032024	-0.014029	0.016589	173.268201	-85.411813	130.208771
61828	9.736558	0.067378	-0.864009	-0.030825	-0.013647	0.014785	173.409160	-85.404135	130.051490
61829	9.682377	0.075133	-0.889611	-0.018838	-0.018713	0.010491	173.528702	-85.393305	129.922203
61830	9.745173	0.145370	-0.858326	-0.009109	-0.021023	0.011485	173.663554	-85.381144	129.783391
61831	9.695228	0.229402	-0.841192	-0.017694	-0.021816	0.018087	173.838298	-85.368970	129.599375
61832	9.750290	0.321808	-0.808755	-0.038923	-0.020834	0.024614	174.046208	-85.357632	129.369683
61833	9.711782	0.282305	-0.836787	-0.065264	-0.014137	0.027955	174.255501	-85.350307	129.123653
61834	9.729304	0.104441	-0.818378	-0.069544	-0.015870	0.026821	174.456018	-85.341823	128.884271
61835	9.717294	-0.030897	-0.817120	-0.066335	-0.008289	0.029273	174.668625	-85.337763	128.634294
61836	9.756109	-0.148572	-0.824908	-0.065333	-0.017603	0.026299	174.867448	-85.328079	128.398312
61837	9.728181	-0.157791	-0.865871	-0.040735	-0.010205	0.026071	175.072418	-85.322620	128.170710
61838	9.703249	-0.113826	-0.917939	-0.023854	-0.007567	0.025094	175.279604	-85.318504	127.950947
61839	9.689133	-0.046692	-0.860756	-0.004059	-0.004397	0.023199	175.481415	-85.316096	127.747597
61840	9.701356	0.004418	-0.818874	0.004350	-0.001740	0.021617	175.676885	-85.315002	127.555555
61841	9.676714	-0.031398	-0.825584	0.001511	0.003919	0.022031	175.869200	-85.317183	127.364933
61842	9.707518	0.026991	-0.797546	0.004997	-0.001144	0.017107	176.033009	-85.316162	127.204967
61843	9.753812	0.039212	-0.772531	0.006788	-0.003667	0.020185	176.219171	-85.313840	127.023553
61844	9.724399	0.079753	-0.790118	0.001846	-0.005998	0.023556	176.428142	-85.310190	126.816469
61845	9.708896	0.123728	-0.788017	-0.001966	-0.005270	0.022934	176.628668	-85.306941	126.615608
61846	9.688818	0.091556	-0.829311	-0.013057	-0.004133	0.019902	176.802310	-85.304126	126.435461
61847	9.728945	0.077263	-0.825636	-0.019089	-0.006028	0.017868	176.957526	-85.300185	126.270217
61848	9.699594	0.038411	-0.798946	-0.027353	-0.005161	0.021136	177.131191	-85.296737	126.081585
61849	9.716529	0.020580	-0.868687	-0.022756	-0.001783	0.018931	177.289764	-85.295177	125.910863
61850	9.727320	-0.030922	-0.837629	-0.013046	-0.004128	0.019905	177.462318	-85.292195	125.731557
61851	9.728861	-0.009532	-0.782879	-0.013590	-0.003909	0.017203	177.614473	-85.289296	125.572544
61852	9.707234	0.008589	-0.801400	-0.018155	0.001597	0.016728	177.760386	-85.289429	125.417270
61853	9.682500	-0.026485	-0.808271	-0.026208	-0.002087	0.017150	177.904202	-85.287505	125.259369
61854	9.714919	-0.017377	-0.802970	-0.025019	-0.001709	0.015342	178.037012	-85.285652	125.112984
61855	9.730291	-0.064786	-0.805914	-0.023483	-0.002377	0.012368	178.149019	-85.283412	124.988566
61856	9.724047	-0.092298	-0.827281	-0.022295	-0.002000	0.010559	178.249981	-85.281255	124.875557
61857	9.702407	-0.073442	-0.846006	-0.016056	-0.004667	0.009743	178.348275	-85.277622	124.769168
61858	9.727129	-0.040643	-0.839424	-0.003006	-0.001344	0.008133	178.443508	-85.275788	124.673630
61859	9.714912	0.058113	-0.848110	0.005048	0.002337	0.007713	178.538316	-85.276106	124.582870
61860	9.739594	0.011073	-0.796980	-0.005632	-0.000234	0.005703	178.614656	-85.274831	124.504282
61861	9.727141	-0.042506	-0.839195	-0.008605	0.001920	0.004438	178.679007	-85.274846	124.436234
61862	9.720930	-0.069472	-0.860093	0.000690	0.003291	0.004390	178.749381	-85.275578	124.367628
61863	9.705494	-0.103368	-0.812807	0.004243	0.004414	-0.001040	178.782764	-85.276942	124.338040
61864	9.721012	-0.069771	-0.859140	0.009929	0.007346	0.002160	178.842604	-85.279950	124.285355
61865	9.719603	-0.020139	-0.836097	0.011318	0.003165	-0.002502	178.870124	-85.280579	124.265717
61866	9.735010	-0.066237	-0.838385	0.007998	0.006365	-0.002602	178.895754	-85.282965	124.245902
61867	9.721176	-0.069141	-0.857341	0.011497	0.010173	-0.010213	178.868890	-85.287520	124.280936
61868	9.687357	-0.028953	-0.839358	0.016494	0.009815	-0.011401	178.837939	-85.291789	124.323063
61869	9.689008	-0.005000	-0.783419	0.016900	0.006087	-0.010383	178.813461	-85.293999	124.358810
61870	9.715288	-0.020207	-0.798416	0.013090	0.006821	-0.011004	178.783554	-85.296552	124.397774
61871	9.710716	-0.022672	-0.763633	0.015115	0.008617	-0.013458	178.736184	-85.300169	124.455464
61872	9.732456	0.038843	-0.788658	0.015465	0.007573	-0.014622	178.682226	-85.303103	124.519954
61873	9.706275	0.056273	-0.772262	0.006657	0.008662	-0.014057	178.625660	-85.306730	124.582007
61874	9.678505	0.050538	-0.811462	-0.002672	-0.001594	-0.011332	178.585669	-85.304448	124.622021
61875	9.686237	0.028587	-0.812452	0.001660	0.009020	-0.012870	178.534368	-85.308289	124.675919
61876	9.681643	0.026291	-0.777780	0.002414	0.004246	-0.013016	178.484529	-85.309324	124.728823
61877	9.709457	-0.038384	-0.815504	0.003308	0.002983	-0.011478	178.444909	-85.309721	124.771948
61878	9.765063	0.056573	-0.780498	0.009550	0.000320	-0.012289	178.404939	-85.308514	124.819029
61879	9.718755	0.043607	-0.805647	0.002122	0.002608	-0.009668	178.377343	-85.308720	124.849407
61880	9.701802	0.067812	-0.857901	-0.005990	0.001602	-0.011435	178.334198	-85.308257	124.890747
61881	9.701818	0.068863	-0.857639	-0.006688	0.003693	-0.009105	178.305257	-85.309091	124.917410
61882	9.752781	0.007236	-0.821962	-0.005738	-0.000255	-0.005384	178.304838	-85.307662	124.915997
61883	9.755873	-0.018760	-0.789140	-0.001144	0.003121	-0.007588	178.289781	-85.308194	124.931916
61884	9.670966	0.003478	-0.763011	0.004538	0.006061	-0.004386	178.300943	-85.310400	124.924840
61885	9.689538	0.010955	-0.776772	0.006969	0.004129	-0.005821	178.302654	-85.311539	124.928599
61886	9.714244	0.045098	-0.769651	0.003562	0.001129	-0.005426	178.306996	-85.310903	124.927774
61887	9.738936	0.079211	-0.762646	-0.008168	0.001677	-0.003950	178.313606	-85.310669	124.917916
61888	9.681848	0.035639	-0.774851	-0.015441	0.002091	-0.006361	178.300326	-85.310569	124.923853
61889	9.726652	0.027372	-0.804646	-0.020577	-0.001067	-0.006860	178.280083	-85.308715	124.933804
61890	9.740638	-0.041261	-0.862431	-0.016976	0.002761	-0.003386	178.286536	-85.309049	124.919049
61891	9.711349	-0.077896	-0.834868	-0.012381	0.006139	-0.005588	178.278359	-85.311343	124.921606
61892	9.706742	-0.080727	-0.800370	0.001776	0.003659	-0.008501	178.259679	-85.312104	124.942860
61893	9.695952	-0.030146	-0.831288	0.006425	0.004352	-0.008521	178.242155	-85.313323	124.965605
61894	9.695977	-0.029342	-0.831026	0.008018	0.000999	-0.009313	178.221954	-85.312544	124.991969
61895	9.751451	0.065395	-0.795969	0.005938	0.001886	-0.009042	178.201046	-85.312341	125.017831
61896	9.729851	0.085913	-0.814023	-0.001196	0.005811	-0.009768	178.171334	-85.314308	125.048446
61897	9.751523	0.067526	-0.794907	-0.013171	0.008217	-0.014340	178.100991	-85.317628	125.112923
61898	9.699181	0.028285	-0.840599	-0.024004	0.007499	-0.011326	178.046809	-85.320527	125.154976
61899	9.720869	0.009863	-0.821426	-0.020541	0.007816	-0.009537	178.005790	-85.323703	125.185794
61900	9.720938	0.010973	-0.820605	-0.012974	0.009047	-0.010470	177.963422	-85.327499	125.222326
61901	9.724051	0.065266	-0.830885	-0.014429	0.015911	-0.007990	177.934603	-85.335338	125.244416
61902	9.687101	0.052086	-0.800913	-0.020803	0.015063	-0.008864	177.897333	-85.342608	125.271347
61903	9.755353	-0.025150	-0.833431	-0.018721	0.014178	-0.009134	177.858277	-85.349428	125.301241
61904	9.743047	-0.004680	-0.796340	-0.015178	0.020693	-0.007835	177.829770	-85.359941	125.322597
61905	9.718507	0.042331	-0.845456	-0.013744	0.019207	-0.003596	177.831137	-85.369759	125.314794
61906	9.720025	0.065586	-0.788664	-0.008639	0.013480	-0.000421	177.860667	-85.376301	125.281685
61907	9.720159	0.065797	-0.786985	-0.009446	0.020947	-0.002447	177.872288	-85.387139	125.266067
61908	9.669366	0.048558	-0.776552	-0.014225	0.016745	-0.004118	177.871662	-85.395470	125.260006
61909	9.686397	0.025505	-0.722399	-0.005934	0.018573	0.001524	177.914297	-85.405032	125.215292
61910	9.697294	0.055627	-0.733662	-0.016548	0.013298	0.001675	177.954652	-85.411510	125.166788
61911	9.697381	0.055773	-0.732492	-0.028940	0.010558	-0.001248	177.966632	-85.416421	125.139605
61912	9.717701	0.013584	-0.768644	-0.026592	0.002428	-0.002196	177.976452	-85.416595	125.115955
61913	9.717734	0.014064	-0.768213	-0.033713	0.006360	-0.002919	177.974859	-85.419069	125.099644
61914	9.719517	-0.035356	-0.790056	-0.029580	0.009961	0.003267	178.020176	-85.423665	125.038666
61915	9.668649	-0.052664	-0.780597	-0.024118	0.009399	-0.006290	177.999241	-85.427811	125.047275
61916	9.749040	-0.076763	-0.771311	-0.022224	0.007695	-0.010429	177.951348	-85.430835	125.084033
61917	9.727519	-0.055956	-0.788829	-0.017093	0.010855	-0.009917	177.907978	-85.435738	125.119186
61918	9.761698	-0.013657	-0.848662	-0.007993	0.011422	-0.013815	177.842829	-85.440819	125.181437
61919	9.690549	0.012581	-0.802092	-0.009231	0.013735	-0.014183	177.772304	-85.447271	125.248350
61920	9.697175	-0.031859	-0.857419	-0.006314	0.014273	-0.015093	177.697790	-85.453943	125.320957
61921	9.712331	-0.004032	-0.781461	0.002264	0.003477	-0.016863	177.617216	-85.454447	125.404556
61922	9.712369	-0.002660	-0.780990	0.000020	0.006224	-0.011557	177.573968	-85.456580	125.449446
61923	9.718403	0.025224	-0.759412	0.005584	0.000280	-0.016764	177.496950	-85.455242	125.531386
61924	9.738691	0.064292	-0.839861	0.010008	0.005526	-0.013918	177.442572	-85.456908	125.593172
61925	9.675244	0.067123	-0.795367	0.004663	0.006918	-0.011571	177.400290	-85.459491	125.639737
61926	9.723269	0.032560	-0.791906	-0.001168	0.005842	-0.009751	177.369344	-85.461440	125.671601
61927	9.731127	0.010489	-0.792711	-0.011691	0.006766	-0.010091	177.328326	-85.463970	125.707498
61928	9.771356	-0.000951	-0.787759	-0.000329	0.007269	-0.010389	177.292702	-85.466714	125.744530
61929	9.739074	-0.010511	-0.792481	0.001833	0.012587	-0.011139	177.249762	-85.472543	125.790128
61930	9.731351	0.013616	-0.789906	0.000996	0.011163	-0.010500	177.212617	-85.477509	125.829449
61931	9.706918	-0.018813	-0.795734	0.007973	0.015320	-0.016296	177.134635	-85.484750	125.913726
61932	9.717778	0.012673	-0.807052	0.017840	0.013791	-0.011446	177.099090	-85.491186	125.961119
61933	9.710049	0.036751	-0.804426	0.017357	0.011325	-0.011972	177.058973	-85.496256	126.012806
61934	9.736996	0.117197	-0.685641	0.013202	0.013098	-0.011432	177.020906	-85.502290	126.060070
61935	9.711391	0.061726	-0.746850	0.004273	0.010662	-0.012574	176.968942	-85.506957	126.116119
61936	9.700712	0.032473	-0.733327	-0.002352	0.005460	-0.007946	176.950085	-85.508724	126.135169
61937	9.721235	-0.009125	-0.769380	0.000164	0.009739	-0.009861	176.915757	-85.512941	126.171167
61938	9.723040	0.022246	-0.835288	0.004724	0.004231	-0.009391	176.890860	-85.513958	126.200344
61939	9.730126	0.072759	-0.758497	0.001983	0.001833	-0.013516	176.833996	-85.513534	126.259992
61940	9.737997	0.050743	-0.759481	0.005209	0.006701	-0.008863	176.812192	-85.515977	126.286342
61941	9.696738	0.041290	-0.818310	-0.001205	0.008541	-0.011923	176.762331	-85.519436	126.337133
61942	9.711675	0.068746	-0.742528	0.003840	0.005503	-0.010925	176.725107	-85.521123	126.378165
61943	9.719574	0.046771	-0.743240	-0.001203	0.008542	-0.011923	176.675124	-85.524576	126.429079
61944	9.733386	0.051238	-0.722699	-0.002349	0.005462	-0.007945	176.656068	-85.526336	126.448331
61945	9.730371	0.078752	-0.754746	-0.007346	0.005804	-0.006769	176.641330	-85.528392	126.460361
61946	9.698077	0.068860	-0.759904	-0.015791	0.005832	-0.007388	176.618447	-85.530382	126.475727
61947	9.724545	0.053878	-0.774892	-0.022155	0.004976	-0.008274	176.584539	-85.531912	126.498476
61948	9.743167	0.061809	-0.788327	-0.016853	0.008960	-0.003889	176.585257	-85.535810	126.489556
61949	9.745204	0.012721	-0.810157	-0.021492	0.008262	-0.003878	176.582468	-85.539369	126.481472
61950	9.708119	-0.001077	-0.781175	-0.014416	0.007036	-0.005322	176.574920	-85.542116	126.482244
61951	9.708186	-0.000676	-0.780341	-0.007038	0.010133	-0.001205	176.599236	-85.546837	126.455279
61952	9.718985	0.030002	-0.791915	-0.007613	0.013061	-0.006077	176.587423	-85.553004	126.464239
61953	9.724953	0.056971	-0.769530	-0.011677	0.009435	-0.001195	176.609532	-85.557326	126.436823
61954	9.751489	0.041530	-0.783910	-0.009689	0.013948	-0.005806	176.598121	-85.564009	126.444187
61955	9.722110	0.084704	-0.799600	-0.009159	0.013719	-0.003105	176.605782	-85.570715	126.432709
61956	9.743825	0.065668	-0.779837	-0.009331	0.012908	-0.006972	176.586379	-85.576763	126.448293
61957	9.727349	0.009625	-0.787187	-0.016047	0.013095	-0.006695	176.563803	-85.582990	126.463184
61958	9.751906	0.044016	-0.778563	-0.012117	0.015878	-0.004369	176.560680	-85.590826	126.460840
61959	9.743167	0.044765	-0.830687	-0.002353	0.019747	-0.003852	176.564023	-85.600955	126.457604
61960	9.763733	0.177857	-0.775857	-0.020124	0.023743	0.002270	176.602288	-85.613514	126.409148
61961	9.690609	0.076564	-0.795187	-0.022198	0.024631	0.002540	176.639995	-85.626652	126.360044
61962	9.741993	-0.065968	-0.713929	-0.006416	0.016122	0.001030	176.680609	-85.634805	126.317110
61963	9.741192	-0.088845	-0.767152	-0.001561	0.026545	0.002253	176.727648	-85.649023	126.270506
61964	9.677568	-0.007532	-0.764801	0.017750	0.024558	0.002071	176.786809	-85.662030	126.222859
61965	9.708817	0.155482	-0.722383	0.014666	0.023207	-0.000892	176.821413	-85.674232	126.198052
61966	9.721888	0.056412	-0.711634	-0.009134	0.025346	-0.007914	176.789617	-85.687368	126.226175
61967	9.705512	0.000473	-0.717925	-0.018409	0.023950	-0.007907	176.751715	-85.699770	126.255076
61968	9.690014	-0.032706	-0.669163	-0.015092	0.020753	-0.007806	176.718953	-85.710280	126.280744
61969	9.716655	-0.047592	-0.682643	-0.011816	0.020256	-0.009873	176.671084	-85.720500	126.323427
61970	9.740341	-0.035487	-0.728877	-0.014860	0.016202	-0.010670	176.618261	-85.728310	126.369345
61971	9.697318	0.004960	-0.764437	-0.017062	0.013577	-0.012102	176.552934	-85.734628	126.426519
61972	9.732566	0.070281	-0.768232	-0.018652	0.016936	-0.011301	176.492392	-85.742828	126.478000
61973	9.724905	0.014393	-0.721422	-0.015731	0.017482	-0.012200	176.424818	-85.751367	126.538190
61974	9.719273	-0.010815	-0.740949	-0.005613	0.020313	-0.012832	176.357831	-85.761434	126.603623
61975	9.719432	-0.009516	-0.738871	-0.000132	0.022445	-0.013464	176.286408	-85.772753	126.676634
61976	9.705949	-0.011777	-0.756538	0.005870	0.024345	-0.011394	176.234452	-85.785168	126.733590
61977	9.725520	0.019340	-0.712973	0.013302	0.022080	-0.013992	176.166078	-85.796247	126.811260
61978	9.736397	0.050878	-0.723397	0.008310	0.022422	-0.012826	176.104713	-85.807498	126.879051
61979	9.744467	0.029115	-0.722648	0.004874	0.022112	-0.014627	176.025765	-85.818557	126.962479
61980	9.712367	0.019688	-0.726192	0.000850	0.027398	-0.012393	175.960011	-85.832656	127.030382
61981	9.744820	0.031796	-0.717753	-0.002710	0.023574	-0.015896	175.865008	-85.844483	127.125548
61982	9.717730	0.026306	-0.755429	-0.000112	0.022458	-0.013459	175.792188	-85.855701	127.199981
61983	9.718552	0.050354	-0.698049	-0.000594	0.019987	-0.013993	175.714564	-85.865539	127.278936
61984	9.699391	0.021762	-0.737374	0.000251	0.021421	-0.014624	175.632564	-85.876099	127.362781
61985	9.740259	0.113616	-0.719059	0.000412	0.022230	-0.010756	175.579080	-85.887347	127.418109
61986	9.740413	0.114579	-0.716811	-0.011655	0.023791	-0.008170	175.539377	-85.899534	127.452704
61987	9.713468	0.028296	-0.711024	-0.002112	0.017938	-0.008859	175.501725	-85.908408	127.490708
61988	9.775359	-0.002811	-0.685716	0.017410	0.025706	-0.007756	175.480387	-85.921705	127.523587
61989	9.721747	0.006658	-0.707791	0.027050	0.026078	-0.008904	175.453559	-85.935225	127.567490
61990	9.663510	0.115190	-0.684624	0.026602	0.020900	-0.007272	175.444129	-85.945798	127.593709
61991	9.711783	0.080420	-0.679482	0.026122	0.018429	-0.007805	175.430220	-85.954997	127.624126
61992	9.711925	0.080994	-0.677381	0.014505	0.025169	-0.006860	175.414199	-85.968025	127.650003
61993	9.700820	0.028475	-0.718088	-0.002430	0.016274	-0.005534	175.403526	-85.976097	127.660775
61994	9.722989	0.032350	-0.642372	0.016462	0.020772	-0.008820	175.375342	-85.986523	127.699970
61995	9.760475	0.047424	-0.668136	0.002823	0.022977	-0.003286	175.381468	-85.998526	127.696919
61996	9.655933	0.038690	-0.683019	-0.002939	0.016509	-0.008235	175.349494	-86.006545	127.728767
61997	9.760709	0.048606	-0.664621	0.012730	0.016086	-0.005126	175.350751	-86.014527	127.736286
61998	9.736560	0.015297	-0.670205	-0.000248	0.021621	-0.006260	175.332925	-86.025556	127.755499
61999	9.715167	0.035372	-0.687089	0.003451	0.014671	-0.005151	175.329538	-86.032728	127.762345
62000	9.725992	0.066186	-0.698130	0.002220	0.016989	-0.005520	175.322225	-86.041147	127.772436
62001	9.696692	0.028976	-0.670135	-0.000676	0.013730	-0.002464	175.339276	-86.047908	127.756426
62002	9.734177	0.043558	-0.696396	0.012166	0.018987	0.001079	175.390978	-86.057773	127.713072
62003	9.702079	0.032878	-0.700689	0.001864	0.018034	-0.004354	175.391100	-86.066903	127.715489
62004	9.742802	0.043808	-0.638874	0.013226	0.018571	-0.004581	175.396899	-86.076269	127.718758
62005	9.731740	0.071356	-0.723769	-0.002053	0.015240	-0.006701	175.377071	-86.083695	127.738921
62006	9.715946	0.037729	-0.675863	0.006048	0.013560	-0.002706	175.397750	-86.090286	127.723152
62007	9.710856	0.034227	-0.640686	-0.003234	0.012140	-0.002740	175.412418	-86.096124	127.708061
62008	9.708136	0.061254	-0.672146	0.007281	0.011244	-0.002335	175.438579	-86.101408	127.687506
62009	9.756395	0.026245	-0.667342	0.001024	0.016604	-0.003723	175.444562	-86.109750	127.683565
62010	9.729462	0.019740	-0.705959	-0.002534	0.012766	-0.007237	175.422963	-86.115680	127.705243
62011	9.732338	-0.006530	-0.672088	0.004335	0.013404	-0.003610	175.433931	-86.122200	127.698208
62012	9.697447	0.009861	-0.709305	0.006876	0.017710	-0.005497	175.428994	-86.131032	127.708591
62013	9.738078	0.020895	-0.647618	0.014829	0.015221	-0.005365	175.429942	-86.138509	127.717625
62014	9.727451	-0.008914	-0.633501	0.013962	0.016497	-0.006900	175.417947	-86.146584	127.739150
62015	9.749016	0.052359	-0.656998	0.019815	0.017603	-0.008673	175.391957	-86.155271	127.778047
62016	9.698207	0.034860	-0.647551	0.013604	0.017544	-0.005734	175.388803	-86.163997	127.790504
62017	9.711802	0.039007	-0.625901	0.023979	0.015842	-0.009185	175.361810	-86.171652	127.832795
62018	9.714631	0.093047	-0.635740	0.006762	0.014194	-0.007198	175.344420	-86.178397	127.855593
62019	9.717211	0.044318	-0.657000	0.002822	0.014105	-0.011715	175.284607	-86.184939	127.918628
62020	9.749524	0.056330	-0.649086	-0.002948	0.021943	-0.012574	175.209743	-86.195851	127.993451
62021	9.770894	0.015178	-0.683549	-0.006720	0.019956	-0.011059	175.145306	-86.205755	128.055639
62022	9.752309	0.009088	-0.667672	-0.000864	0.021065	-0.012828	175.069288	-86.216140	128.132812
62023	9.738983	0.006871	-0.685650	0.000350	0.021459	-0.014620	174.976250	-86.226714	128.227723
62024	9.720403	0.000904	-0.669681	0.003785	0.021784	-0.012802	174.901688	-86.237496	128.306105
62025	9.712534	0.024950	-0.666342	0.021533	0.020501	-0.009908	174.861547	-86.247748	128.360165
62026	9.723399	0.056266	-0.676744	0.020652	0.024491	-0.013608	174.786706	-86.260023	128.448510
62027	9.688641	0.073202	-0.713325	0.025319	0.022500	-0.011415	174.733290	-86.271329	128.518045
62028	9.715652	0.081419	-0.671361	0.020070	0.015780	-0.013676	174.663686	-86.278617	128.600805
62029	9.756068	0.093278	-0.609581	0.014700	0.017152	-0.011374	174.608256	-86.286865	128.666260
62030	9.726611	0.033906	-0.636613	0.010040	0.019147	-0.013566	174.530416	-86.296066	128.751514
62031	9.707972	0.027879	-0.621141	0.010787	0.014349	-0.013727	174.453765	-86.302576	128.835987
62032	9.734845	0.013191	-0.634639	0.009333	0.018526	-0.009072	174.415074	-86.311660	128.881603
62033	9.745669	0.044424	-0.645451	0.005903	0.018201	-0.010891	174.356814	-86.320515	128.944840
62034	9.719061	0.084094	-0.573241	-0.000336	0.020845	-0.010131	174.300649	-86.330856	129.002412
62035	9.700384	0.055118	-0.612588	-0.001336	0.021308	-0.015533	174.193452	-86.341205	129.110530
62036	9.692443	0.056574	-0.664437	-0.004993	0.022840	-0.012325	174.112365	-86.352545	129.190398
62037	9.703337	0.031200	-0.575637	-0.003045	0.021149	-0.016442	173.995017	-86.362726	129.307703
62038	9.727552	0.043705	-0.621445	-0.003028	0.018437	-0.014276	173.900665	-86.371421	129.401992
62039	9.708910	0.037834	-0.605762	-0.002175	0.019878	-0.014901	173.797727	-86.380946	129.505355
62040	9.711663	0.092618	-0.615187	0.004554	0.019722	-0.015120	173.697869	-86.390300	129.609511
62041	9.760039	0.058838	-0.609456	-0.001672	0.019649	-0.012199	173.618834	-86.399844	129.689211
62042	9.711879	0.095038	-0.611396	0.003839	0.019099	-0.010626	173.558958	-86.409112	129.752894
62043	9.757564	0.087521	-0.638592	0.009729	0.014790	-0.008052	173.528407	-86.416147	129.790558
62044	9.693307	0.089223	-0.594313	0.007769	0.019198	-0.006100	173.511389	-86.425760	129.813555
62045	9.693408	0.089796	-0.592579	0.007286	0.016716	-0.006636	173.490089	-86.433981	129.840547
62046	9.693495	0.090384	-0.591068	0.001789	0.014553	-0.006045	173.474783	-86.440952	129.858396
62047	9.744486	0.109149	-0.597000	-0.002738	0.017357	-0.004380	173.467558	-86.449684	129.865531
62048	9.747379	0.059989	-0.617768	-0.008612	0.018953	-0.004791	173.453028	-86.459241	129.876626
62049	9.774350	0.044783	-0.630806	-0.001398	0.021284	-0.004467	173.441521	-86.470203	129.888820
62050	9.742351	0.034388	-0.635118	-0.002743	0.020076	-0.006542	173.412826	-86.480284	129.917475
62051	9.686127	0.013264	-0.592059	-0.004208	0.015340	-0.010318	173.351625	-86.487476	129.977844
62052	9.726618	-0.020987	-0.640324	0.012914	0.022420	-0.005513	173.338540	-86.498956	129.999850
62053	9.750796	0.013287	-0.630644	0.022219	0.021158	-0.003271	173.351378	-86.509924	130.001210
62054	9.702641	0.048654	-0.632529	0.021729	0.021392	-0.005971	173.340078	-86.520789	130.026496
62055	9.697301	0.045509	-0.596784	0.023695	0.016986	-0.007919	173.314715	-86.529074	130.066975
62056	9.750932	0.037737	-0.569800	0.021617	0.017868	-0.007669	173.291019	-86.537818	130.104602
62057	9.710823	0.050247	-0.573324	0.014530	0.016349	-0.004134	173.296479	-86.545992	130.108939
62058	9.705696	0.024034	-0.592901	0.024191	0.019479	-0.007377	173.275006	-86.555672	130.145829
62059	9.721700	0.081630	-0.582843	0.016379	0.008412	-0.007779	173.255828	-86.559085	130.175911
62060	9.740566	0.089291	-0.595378	0.012946	0.017003	-0.001183	173.289178	-86.567772	130.151410
62061	9.686858	0.120902	-0.564219	-0.000753	0.010239	-0.004171	173.292310	-86.572467	130.149308
62062	9.721894	0.082692	-0.579432	-0.002953	0.007586	-0.005623	173.284997	-86.575497	130.156417
62063	9.754051	0.094162	-0.572125	-0.009566	0.011267	-0.003719	173.286227	-86.580807	130.151163
62064	9.730105	0.060504	-0.578599	-0.004056	0.010722	-0.002136	173.307975	-86.585856	130.128530
62065	9.705854	0.129581	-0.574335	-0.005759	0.005123	0.001278	173.366015	-86.588001	130.068549
62066	9.722086	0.083513	-0.576089	-0.004904	0.006565	0.000654	173.418691	-86.590866	130.014458
62067	9.746124	0.117304	-0.568010	-0.003185	0.004014	0.003734	173.503047	-86.592532	129.929591
62068	9.754266	0.093761	-0.568505	-0.003802	0.009637	0.007758	173.621212	-86.597593	129.810509
62069	9.732947	0.112287	-0.586370	-0.003683	0.013170	0.009458	173.750812	-86.604814	129.680034
62070	9.783952	0.129699	-0.592345	-0.002827	0.014612	0.008835	173.875548	-86.612743	129.554931
62071	9.754849	0.068158	-0.619611	-0.016167	0.018447	0.010940	174.008067	-86.623027	129.414369
62072	9.730946	0.033339	-0.625536	-0.013348	0.015479	0.008370	174.122655	-86.631390	129.293405
62073	9.739049	-0.070195	-0.581024	-0.007966	0.016835	0.003927	174.194883	-86.640314	129.217948
62074	9.725508	-0.051128	-0.544523	0.005375	0.012999	0.001824	174.260040	-86.646866	129.157250
62075	9.731114	-0.047791	-0.577233	0.010027	0.011009	0.004034	174.349979	-86.652463	129.074380
62076	9.720207	0.024503	-0.552310	0.019326	0.015184	0.001964	174.422977	-86.660259	129.013836
62077	9.731029	0.054499	-0.563465	0.011741	0.013895	0.002787	174.499579	-86.667420	128.945311
62078	9.704195	0.069949	-0.547230	0.012966	0.014292	0.001002	174.560932	-86.674647	128.892769
62079	9.720199	0.126653	-0.537186	0.004156	0.012607	0.003610	174.643060	-86.681107	128.814356
62080	9.706851	0.042619	-0.512142	-0.008938	0.009146	0.005007	174.736527	-86.685603	128.717092
62081	9.755328	0.087100	-0.551088	-0.005511	0.012197	0.004677	174.824616	-86.691871	128.627160
62082	9.755408	0.086689	-0.549736	-0.008815	0.015400	0.004545	174.908621	-86.699895	128.539435
62083	9.755880	0.063312	-0.603694	-0.012729	0.009863	0.004336	174.991927	-86.704798	128.450153
62084	9.750373	0.059209	-0.568642	-0.007956	0.014126	0.006087	175.093584	-86.712155	128.345248
62085	9.726441	0.024832	-0.574835	-0.010524	0.015237	0.003630	175.167217	-86.720075	128.266922
62086	9.721363	-0.001967	-0.594567	-0.005504	0.017638	0.000354	175.210974	-86.729147	128.221419
62087	9.734724	0.001727	-0.572531	-0.003789	0.020524	-0.000891	175.239483	-86.739863	128.192156
62088	9.719122	0.024776	-0.623462	0.001718	0.019975	0.000701	175.289438	-86.750282	128.144597
62089	9.721711	-0.001738	-0.588849	-0.000113	0.018995	-0.004082	175.289575	-86.759973	128.145862
62090	9.748300	0.005871	-0.546538	0.004171	0.020770	-0.002867	175.304605	-86.770676	128.134674
62091	9.788584	-0.005735	-0.539177	-0.002677	0.020109	-0.006540	175.277427	-86.780888	128.161826
62092	9.756624	-0.016247	-0.543378	-0.000717	0.027348	-0.002214	175.290860	-86.795378	128.149447
62093	9.721727	0.022862	-0.524945	-0.004261	0.023483	-0.005754	175.267706	-86.807553	128.171660
62094	9.714274	0.023393	-0.576882	0.007484	0.020292	-0.004890	175.264388	-86.817888	128.180753
62095	9.735703	0.004557	-0.555629	0.003332	0.024776	-0.006564	175.235868	-86.830763	128.212697
62096	9.703753	-0.005713	-0.559905	0.007862	0.021970	-0.008212	175.196773	-86.841896	128.257832
62097	9.727858	0.028831	-0.550130	0.012141	0.021026	-0.004831	175.194073	-86.852711	128.268969
62098	9.722885	0.002646	-0.569130	0.010561	0.027121	-0.006208	175.172441	-86.866879	128.298156
62099	9.736227	0.006892	-0.546336	0.017664	0.025926	-0.007554	175.139872	-86.880358	128.342376
62100	9.757648	-0.011741	-0.524797	0.013385	0.024151	-0.008772	175.095072	-86.892705	128.396413
62101	9.744590	-0.014466	-0.542727	0.010333	0.022773	-0.011774	175.015934	-86.904173	128.483063
62102	9.747758	-0.062868	-0.562748	0.009494	0.026775	-0.015476	174.894494	-86.917671	128.611609
62103	9.731416	-0.095183	-0.513749	0.007304	0.026841	-0.019098	174.730281	-86.931061	128.781718
62104	9.718404	-0.096755	-0.531463	0.012588	0.024665	-0.025225	174.506285	-86.942791	129.014744
62105	9.737447	-0.087133	-0.542782	0.022258	0.022365	-0.024101	174.298713	-86.953283	129.236849
62106	9.710577	-0.069001	-0.525743	0.028529	0.025178	-0.029142	174.037876	-86.964979	129.515904
62107	9.721490	-0.035960	-0.535875	0.035644	0.023994	-0.030477	173.764099	-86.975907	129.811982
62108	9.683305	0.055335	-0.495528	0.034685	0.021739	-0.033716	173.457500	-86.985210	130.140398
62109	9.710437	0.042693	-0.508163	0.028809	0.020611	-0.031994	173.163674	-86.993949	130.452626
62110	9.740163	0.083230	-0.532444	0.025012	0.018602	-0.030512	172.886766	-87.001515	130.745776
62111	9.753365	0.089850	-0.510331	0.019143	0.020192	-0.030956	172.595934	-87.009928	131.049456
62112	9.748494	0.066207	-0.529569	0.012795	0.022008	-0.034104	172.264797	-87.018994	131.389841
62113	9.746046	0.015753	-0.515890	0.018888	0.022070	-0.025927	172.022372	-87.028701	131.644897
62114	9.754332	-0.004314	-0.514906	0.017350	0.019218	-0.035732	171.676613	-87.035873	132.002537
62115	9.714239	0.010678	-0.518587	0.030568	0.020828	-0.031046	171.383406	-87.044301	132.315140
62116	9.693044	0.032763	-0.535826	0.035608	0.020533	-0.032134	171.082023	-87.052333	132.638829
62117	9.765356	0.034539	-0.521228	0.057025	0.026792	-0.023828	170.869503	-87.064628	132.885812
62118	9.711331	0.147541	-0.534134	0.062062	0.023783	-0.022746	170.677541	-87.075227	133.115114
62119	9.754012	0.111125	-0.493490	0.065392	0.020603	-0.022585	170.491525	-87.084054	133.340354
62120	9.712908	0.147891	-0.442218	0.076058	0.020624	-0.018187	170.361400	-87.093230	133.515767
62121	9.718795	0.152479	-0.474556	0.062536	0.012714	-0.011356	170.311723	-87.098632	133.602852
62122	9.720302	0.229846	-0.429906	0.058489	0.018018	-0.009192	170.275568	-87.107185	133.674097
62123	9.773632	0.222896	-0.402026	0.038651	0.022771	-0.014203	170.160196	-87.117979	133.813256
62124	9.771249	0.171073	-0.387996	0.020878	0.023924	-0.017283	169.998774	-87.129055	133.988350
62125	9.761686	0.118827	-0.428028	0.016689	0.022948	-0.014652	169.863268	-87.139869	134.135067
62126	9.760394	0.043499	-0.469099	0.022960	0.020339	-0.015340	169.729888	-87.149077	134.283256
62127	9.708525	0.049976	-0.405159	0.043628	0.021678	-0.019126	169.559640	-87.158677	134.480208
62128	9.692042	0.018022	-0.356766	0.046465	0.015996	-0.019493	169.399792	-87.164967	134.668405
62129	9.680353	0.092700	-0.332594	0.037894	0.012383	-0.021952	169.212019	-87.168975	134.879613
62130	9.706297	0.081557	-0.433984	0.045114	0.009341	-0.017227	169.090398	-87.171712	135.028738
62131	9.721727	0.140111	-0.425161	0.045843	0.001807	-0.015191	169.006772	-87.170460	135.140231
62132	9.769073	0.209728	-0.410135	0.041651	0.000830	-0.012562	168.954938	-87.168902	135.217505
62133	9.712284	0.268339	-0.414539	0.028492	-0.002728	-0.011243	168.916515	-87.165523	135.273787
62134	9.720492	0.325801	-0.460922	0.010658	-0.007055	-0.010004	168.893655	-87.159809	135.304276
62135	9.747626	0.310868	-0.475985	-0.012499	-0.006498	-0.004848	168.912767	-87.155014	135.279438
62136	9.819772	0.310539	-0.463864	-0.026599	-0.002527	0.005475	169.033533	-87.153544	135.144744
62137	9.725193	0.273884	-0.396132	-0.037740	-0.005067	0.000538	169.095640	-87.150136	135.062378
62138	9.740460	0.230340	-0.486162	-0.041374	-0.005434	0.009728	169.261822	-87.147463	134.873745
62139	9.708515	0.218200	-0.493156	-0.058596	-0.003698	0.013194	169.451576	-87.146145	134.651607
62140	9.730937	0.174508	-0.529026	-0.058976	-0.005358	0.016525	169.683649	-87.144156	134.386886
62141	9.715522	0.195333	-0.582653	-0.048690	-0.004268	0.022089	169.980309	-87.143324	134.063392
62142	9.732067	0.147420	-0.584545	-0.046857	-0.000530	0.024710	170.301870	-87.144730	133.716032
62143	9.739267	0.145635	-0.530378	-0.048464	0.000127	0.027648	170.653326	-87.146727	133.337803
62144	9.728647	0.112748	-0.517364	-0.037302	0.005377	0.030422	171.035373	-87.151780	132.935363
62145	9.693314	0.148650	-0.501319	-0.033476	0.007412	0.028954	171.399161	-87.157774	132.553389
62146	9.733597	0.134114	-0.494707	-0.048584	0.008305	0.032203	171.793103	-87.164371	132.132567
62147	9.738493	0.157819	-0.472810	-0.052780	0.004615	0.037004	172.245892	-87.169152	131.650413
62148	9.718207	0.070700	-0.501914	-0.056541	0.008051	0.034150	172.661649	-87.175439	131.203202
62149	9.723938	-0.008786	-0.490689	-0.054476	0.001742	0.038255	173.135186	-87.178308	130.699306
62150	9.719091	-0.038692	-0.511930	-0.042029	-0.001596	0.030842	173.537028	-87.178547	130.274409
62151	9.766397	-0.053147	-0.452130	-0.030991	0.000079	0.031922	173.954125	-87.179706	129.840495
62152	9.774572	-0.078973	-0.452955	-0.021273	0.003252	0.028752	174.338300	-87.182285	129.445099
62153	9.723617	-0.099789	-0.446076	-0.016452	-0.001419	0.022106	174.652389	-87.181771	129.122660
62154	9.763757	-0.113718	-0.440481	-0.011418	-0.001722	0.021022	174.958538	-87.180889	128.811041
62155	9.704609	-0.111326	-0.432839	-0.004575	-0.001032	0.024728	175.309162	-87.180547	128.458834
62156	9.694137	-0.064013	-0.465194	-0.002728	-0.009002	0.021095	175.627321	-87.175339	128.140254
62157	9.691818	-0.039450	-0.499010	-0.000271	-0.010927	0.019703	175.929556	-87.168935	127.838962
62158	9.731913	-0.053100	-0.494361	-0.000370	-0.011749	0.015840	176.188003	-87.161787	127.581436
62159	9.725960	-0.058119	-0.461570	0.003445	-0.009730	0.014369	176.427410	-87.155735	127.345178
62160	9.712840	-0.063221	-0.482931	0.007984	-0.012535	0.012743	176.653196	-87.147921	127.125121
62161	9.725846	-0.060490	-0.463658	0.021879	-0.008410	0.006936	176.814995	-87.142294	126.977140
62162	9.717649	-0.038257	-0.463712	0.015864	-0.013095	0.006942	176.977316	-87.133914	126.825196
62163	9.693152	0.030238	-0.462220	0.020301	-0.016723	0.001453	177.079153	-87.123330	126.736344
62164	9.721493	0.011023	-0.390343	0.009393	-0.014829	0.002082	177.181748	-87.113792	126.640508
62165	9.719159	0.037325	-0.424717	-0.006669	-0.016174	0.002099	177.273815	-87.103524	126.545965
62166	9.746163	0.021567	-0.441021	-0.008500	-0.019892	-0.000524	177.338157	-87.091002	126.478136
62167	9.706822	0.010334	-0.503826	-0.009363	-0.021338	0.000096	177.407534	-87.077715	126.404765
62168	9.673786	0.022413	-0.457648	-0.005582	-0.024764	0.002953	177.513610	-87.062483	126.296837
62169	9.692590	0.029507	-0.473906	-0.011223	-0.030495	0.001805	177.603655	-87.043982	126.201702
62170	9.741091	0.074137	-0.516578	-0.009879	-0.029271	0.003891	177.717381	-87.026177	126.083697
62171	9.749085	0.050701	-0.520321	-0.010618	-0.027169	0.006212	177.852257	-87.009660	125.944014
62172	9.762881	0.030806	-0.557966	-0.007789	-0.030143	0.003658	177.961999	-86.991325	125.831104
62173	9.733031	-0.007102	-0.534432	-0.003855	-0.024581	0.003881	178.071598	-86.976214	125.720609
62174	9.738678	-0.003972	-0.570862	-0.003495	-0.028349	0.004888	178.193966	-86.958902	125.597553
62175	9.751655	-0.000812	-0.553202	-0.001659	-0.024632	0.007511	178.341449	-86.943800	125.450376
62176	9.759643	-0.024350	-0.556710	0.007060	-0.026470	0.003240	178.449069	-86.927520	125.348410
62177	9.706194	-0.016522	-0.584950	0.005471	-0.023095	0.004016	178.560365	-86.913213	125.241559
62178	9.724225	0.013538	-0.545586	-0.000777	-0.020460	0.004728	178.675389	-86.900360	125.127340
62179	9.705210	0.005911	-0.534044	-0.000034	-0.022556	0.002410	178.764528	-86.886320	125.039518
62180	9.715856	0.035881	-0.548911	0.000819	-0.023829	0.003955	178.871273	-86.871498	124.934430
62181	9.745140	-0.006596	-0.532922	-0.007623	-0.021139	0.001043	178.939858	-86.858239	124.862835
62182	9.712979	-0.017548	-0.541495	-0.016927	-0.019894	-0.001246	178.980128	-86.845620	124.814487
62183	9.737478	-0.006356	-0.590968	-0.022062	-0.020404	-0.004009	178.986986	-86.832726	124.796425
62184	9.726590	-0.036179	-0.580488	-0.023780	-0.023290	-0.002763	179.007593	-86.818130	124.763581
62185	9.715700	-0.065727	-0.570225	-0.029025	-0.024618	-0.009388	178.955780	-86.802767	124.800286
62186	9.740158	-0.053905	-0.619825	-0.023755	-0.017845	-0.007090	178.931210	-86.791253	124.812908
62187	9.740041	-0.052913	-0.621734	-0.015902	-0.021126	-0.010751	178.873011	-86.777873	124.863540
62188	9.748051	-0.074868	-0.624809	-0.014557	-0.019906	-0.008669	178.838360	-86.765160	124.891430
62189	9.731532	-0.107743	-0.580178	-0.001075	-0.017467	-0.011198	178.784133	-86.753866	124.946595
62190	9.710120	-0.087279	-0.600921	0.007753	-0.015764	-0.013786	178.710399	-86.743447	125.026298
62191	9.747144	-0.048167	-0.574694	0.008126	-0.016809	-0.014946	178.624490	-86.732472	125.118478
62192	9.725718	-0.027432	-0.595397	0.014012	-0.015672	-0.016671	178.526408	-86.722054	125.226105
62193	9.711825	-0.006511	-0.562047	0.013157	-0.017114	-0.016047	178.433694	-86.710870	125.327990
62194	9.677175	0.010570	-0.602998	0.007650	-0.016576	-0.017644	178.323990	-86.699900	125.443744
62195	9.730483	0.004522	-0.578988	-0.000164	-0.016801	-0.026725	178.119238	-86.688680	125.650210
62196	9.732911	0.060210	-0.592053	0.002522	-0.014364	-0.022565	177.958875	-86.678848	125.813667
62197	9.735348	0.036039	-0.560670	-0.011064	-0.014909	-0.026053	177.756309	-86.668649	126.011693
62198	9.767298	0.049745	-0.555661	-0.015714	-0.015646	-0.026105	177.553231	-86.657933	126.207310
62199	9.708145	0.056881	-0.548920	-0.018651	-0.016213	-0.025238	177.357346	-86.646929	126.394293
62200	9.753283	0.074102	-0.524160	-0.021217	-0.023264	-0.021202	177.205449	-86.631920	126.535968
62201	9.670535	-0.113032	-0.436946	-0.012762	-0.020503	-0.022636	177.042873	-86.618473	126.692969
62202	9.791539	-0.089031	-0.522730	0.002359	-0.030338	-0.034375	176.783969	-86.598978	126.955667
62203	9.815623	0.004897	-0.616878	-0.040554	-0.015976	-0.025568	176.577990	-86.587952	127.140201
62204	9.756772	0.068943	-0.709691	-0.041881	-0.019903	-0.025477	176.377216	-86.574590	127.318715
62205	9.797683	-0.042868	-0.717089	-0.035621	-0.017073	-0.030530	176.130143	-86.562668	127.547254
62206	9.774955	-0.256378	-0.692627	-0.018732	-0.006102	-0.037733	175.819794	-86.556607	127.848703
62207	9.742999	-0.263829	-0.699443	0.025575	-0.001325	-0.038691	175.521961	-86.553192	128.163223
62208	9.700406	-0.019851	-0.627831	0.079205	-0.003203	-0.033057	175.311742	-86.548826	128.420671
62209	9.722652	0.143177	-0.554396	0.078856	0.000584	-0.034049	175.087989	-86.546569	128.691563
62210	9.710073	0.321754	-0.520457	0.059418	-0.003837	-0.033615	174.862620	-86.541722	128.953084
62211	9.754154	0.442803	-0.483800	0.024398	-0.007162	-0.032558	174.629474	-86.534993	129.202128
62212	9.778801	0.376805	-0.487526	-0.020486	-0.002849	-0.025900	174.431645	-86.530977	129.389945
62213	9.737266	0.234811	-0.492190	-0.052467	-0.002077	-0.024016	174.231481	-86.527522	129.561829
62214	9.706879	0.100011	-0.564926	-0.061375	-0.007331	-0.023104	174.041553	-86.521079	129.718750
62215	9.702983	-0.027430	-0.597925	-0.050340	-0.011089	-0.017757	173.911066	-86.512802	129.822051
62216	9.711810	-0.071518	-0.655080	-0.022436	-0.006581	-0.017462	173.796464	-86.507066	129.925506
62217	9.703481	-0.046899	-0.654716	0.002427	-0.008909	-0.015837	173.712802	-86.500125	130.012185
62218	9.729890	-0.037821	-0.615421	0.019221	-0.012330	-0.016094	173.641929	-86.491179	130.096102
62219	9.739114	0.096793	-0.618018	0.029955	-0.006080	-0.012224	173.605260	-86.486067	130.151502
62220	9.726816	0.193457	-0.540091	0.026167	-0.008103	-0.010732	173.583952	-86.479836	130.189225
62221	9.718445	0.217287	-0.539912	0.013930	-0.010186	-0.009959	173.563596	-86.472529	130.219084
62222	9.723298	0.244783	-0.519873	-0.003330	-0.014704	-0.005911	173.576521	-86.462873	130.205590
62223	9.718264	0.218543	-0.542648	-0.023535	-0.017079	-0.003156	173.604508	-86.452077	130.165508
62224	9.708845	0.142090	-0.641901	-0.036418	-0.016268	0.003798	173.689010	-86.442119	130.061168
62225	9.730281	0.123056	-0.624657	-0.032816	-0.021297	-0.001083	173.734267	-86.429046	129.998453
62226	9.755065	0.054270	-0.630014	-0.024638	-0.019389	0.004652	173.834936	-86.417356	129.884495
62227	9.712514	0.012093	-0.625476	-0.009735	-0.014879	0.008023	173.968854	-86.408480	129.746193
62228	9.717898	0.015165	-0.660853	0.005339	-0.015748	0.004677	174.082407	-86.398849	129.636982
62229	9.708985	0.060672	-0.606147	0.009514	-0.017484	0.004186	174.193750	-86.388228	129.532349
62230	9.690140	0.052665	-0.594158	0.010375	-0.018758	0.005725	174.321304	-86.376905	129.412037
62231	9.705442	0.109404	-0.587416	-0.005760	-0.020947	0.001983	174.405842	-86.364160	129.325491
62232	9.756056	0.128024	-0.596980	-0.017614	-0.024065	0.001609	174.483771	-86.349573	129.239124
62233	9.732193	0.093869	-0.606849	-0.037435	-0.024746	0.001064	174.544023	-86.334597	129.158726
62234	9.697908	0.029338	-0.603871	-0.038567	-0.018897	0.002386	174.611165	-86.322971	129.070833
62235	9.716950	0.014029	-0.674678	-0.029002	-0.019240	-0.002549	174.638641	-86.310932	129.028117
62236	9.735096	0.045018	-0.635424	-0.032501	-0.025826	-0.003908	174.658395	-86.295013	128.991030
62237	9.733225	-0.030824	-0.681556	-0.021024	-0.021669	-0.002377	174.693447	-86.281594	128.945302
62238	9.706073	-0.015178	-0.668634	-0.011247	-0.020407	0.000400	174.758407	-86.269002	128.875503
62239	9.702645	0.034598	-0.648274	-0.006321	-0.024223	-0.002420	174.802843	-86.254119	128.828810
62240	9.758237	0.080121	-0.636750	-0.004123	-0.024287	0.001190	174.880941	-86.239343	128.749954
62241	9.721044	0.042184	-0.666599	0.000508	-0.020816	-0.000933	174.938689	-86.226472	128.693842
62242	9.747552	0.049845	-0.628403	-0.007929	-0.020863	-0.001630	174.986252	-86.213513	128.643275
62243	9.734421	0.023332	-0.705877	-0.006689	-0.023176	-0.001254	175.038140	-86.199273	128.588901
62244	9.745500	-0.026155	-0.676426	-0.005744	-0.018206	-0.000181	175.097277	-86.187889	128.528439
62245	9.732046	-0.029824	-0.698234	-0.004896	-0.016759	-0.000806	175.148595	-86.177327	128.475664
62246	9.737290	-0.025939	-0.733639	0.010256	-0.014111	-0.002488	175.192968	-86.168166	128.438561
62247	9.753487	-0.048681	-0.682078	0.013661	-0.011048	-0.002827	175.233131	-86.160763	128.407621
62248	9.734719	-0.055844	-0.669454	0.019433	-0.013416	-0.006276	175.249946	-86.151785	128.403243
62249	9.731399	-0.005707	-0.648007	0.023686	-0.008907	-0.007242	175.256698	-86.145394	128.411545
62250	9.741727	0.025225	-0.661465	0.018668	-0.008615	-0.006114	175.271412	-86.139171	128.409260
62251	9.760062	0.056374	-0.620953	0.011827	-0.009297	-0.009754	175.250420	-86.132438	128.438560
62252	9.741333	0.049782	-0.607840	-0.000319	-0.005129	-0.009411	175.223591	-86.128050	128.466608
62253	9.770635	0.065517	-0.689923	0.001016	-0.003919	-0.007340	175.213113	-86.124501	128.479162
62254	9.751939	0.059183	-0.676266	-0.000843	0.000547	-0.016433	175.123528	-86.123029	128.570626
62255	9.719901	0.049451	-0.682576	-0.004622	-0.001476	-0.014929	175.044283	-86.120501	128.648868
62256	9.706248	0.070083	-0.647548	-0.004997	-0.000437	-0.013768	174.974934	-86.118568	128.716820
62257	9.736507	0.006450	-0.685182	0.002112	-0.001592	-0.015146	174.897996	-86.115949	128.796616
62258	9.733496	0.034322	-0.718077	0.008109	-0.002351	-0.010880	174.861943	-86.113044	128.838425
62259	9.724862	0.081202	-0.661829	0.017398	-0.000848	-0.010813	174.829751	-86.111064	128.882151
62260	9.726849	0.135671	-0.673578	0.015974	-0.005580	-0.014577	174.770127	-86.106144	128.952756
62261	9.736843	0.190143	-0.631512	0.012776	-0.004317	-0.008683	174.755931	-86.102292	128.975790
62262	9.731783	0.164192	-0.653182	0.003955	-0.003337	-0.008214	174.741157	-86.098975	128.994495
62263	9.723423	0.187706	-0.652266	-0.002667	-0.002421	-0.004140	174.754703	-86.096443	128.980855
62264	9.740064	0.142137	-0.654920	-0.011845	-0.003123	-0.000349	174.796180	-86.093628	128.933471
62265	9.738028	0.089181	-0.643940	-0.020866	-0.006468	-0.005431	174.791544	-86.088718	128.927603
62266	9.729960	0.089408	-0.698313	-0.023973	-0.001684	0.002159	174.846025	-86.086863	128.860594
62267	9.751611	0.070306	-0.679913	-0.020731	-0.008383	0.000589	174.892981	-86.081168	128.803091
62268	9.746552	0.043614	-0.701742	-0.015151	-0.002663	0.001691	174.949024	-86.078753	128.739867
62269	9.700877	0.051331	-0.673146	-0.009643	-0.003185	0.003259	175.020495	-86.076151	128.664159
62270	9.722538	0.031918	-0.654660	-0.010487	-0.004631	0.003885	175.098680	-86.072696	128.581216
62271	9.744473	-0.010542	-0.691469	-0.002047	-0.004575	0.004574	175.186195	-86.069350	128.493788
62272	9.746449	0.042364	-0.703253	0.002596	-0.003825	0.004606	175.277182	-86.066377	128.405725
62273	9.748433	0.095311	-0.714959	-0.007931	-0.003013	0.004169	175.356615	-86.063886	128.323018
62274	9.731775	0.140814	-0.712629	-0.011260	0.000166	0.004046	175.432030	-86.063151	128.242542
62275	9.735071	0.090993	-0.735160	-0.014680	-0.000175	0.002228	175.489480	-86.062178	128.177994
62276	9.723758	-0.073071	-0.666818	-0.018293	0.007564	0.004964	175.563719	-86.065688	128.094630
62277	9.707424	-0.050535	-0.718941	-0.000662	0.005596	0.004019	175.640430	-86.068080	128.018826
62278	9.720815	-0.047225	-0.698353	0.016592	0.004665	0.004236	175.730394	-86.069896	127.939566
62279	9.735949	0.032349	-0.633912	0.019525	0.005245	0.003359	175.813577	-86.072044	127.868869
62280	9.711028	0.100639	-0.629600	0.013265	0.007847	0.004114	175.899189	-86.075651	127.792278
62281	9.730017	0.084695	-0.698103	0.002290	0.003456	0.005302	175.989934	-86.076841	127.704104
62282	9.748716	0.091639	-0.711574	-0.002729	0.003744	0.006431	176.088095	-86.078175	127.605515
62283	9.719729	0.053274	-0.684735	-0.013743	0.004795	0.003295	176.152275	-86.080034	127.534760
62284	9.709401	0.022677	-0.671806	-0.009193	0.002023	0.001632	176.207799	-86.080167	127.475032
62285	9.682707	0.014787	-0.711852	-0.006129	0.000681	0.006773	176.307687	-86.079792	127.372859
62286	9.736398	0.006258	-0.686731	-0.000246	-0.000883	0.007180	176.416029	-86.078490	127.265679
62287	9.696065	0.017147	-0.691707	0.011595	0.002232	0.007529	176.531527	-86.079002	127.158037
62288	9.719508	0.073726	-0.628862	0.011860	0.000393	0.002510	176.607476	-86.078208	127.090172
62289	9.719507	0.073224	-0.628933	0.001841	-0.001749	0.006929	176.714302	-86.076399	126.985621
62290	9.697836	0.091856	-0.647982	-0.010019	-0.002142	0.004419	176.794279	-86.074221	126.900963
62291	9.738165	0.079762	-0.643107	-0.020055	-0.001562	0.006677	176.886181	-86.072489	126.798796
62292	9.754775	0.033304	-0.645689	-0.023362	-0.001100	0.008716	176.994103	-86.071029	126.679007
62293	9.709388	0.017673	-0.672133	-0.022138	-0.000690	0.006930	177.086383	-86.069779	126.575265
62294	9.704324	-0.009507	-0.693658	-0.015878	-0.003294	0.006175	177.178294	-86.066944	126.475707
62295	9.731279	-0.025425	-0.709005	-0.011236	-0.002546	0.006207	177.271371	-86.064589	126.377426
62296	9.731266	-0.026073	-0.709160	-0.005260	-0.000592	0.008311	177.385373	-86.063356	126.261645
62297	9.725933	-0.030542	-0.675443	-0.007440	-0.003244	0.006865	177.486132	-86.060594	126.157844
62298	9.737200	-0.080707	-0.644151	-0.004903	0.001092	0.004989	177.572047	-86.060205	126.070376
62299	9.727065	-0.134497	-0.686933	0.000508	-0.002960	0.004857	177.660369	-86.057535	125.983605
62300	9.713687	-0.138874	-0.707175	0.024578	-0.000507	0.006551	177.776579	-86.056246	125.882652
62301	9.734190	-0.055665	-0.677120	0.039143	-0.001143	0.000466	177.849790	-86.054500	125.833216
62302	9.744312	-0.002749	-0.634576	0.039638	-0.001376	0.003165	177.946774	-86.052607	125.760094
62303	9.726839	0.122918	-0.676175	0.028984	0.001367	-0.003291	177.982148	-86.052212	125.742752
62304	9.689478	0.108039	-0.648634	0.018009	-0.003016	-0.002102	178.023505	-86.049270	125.713120
62305	9.703053	0.088924	-0.684264	-0.006430	-0.007160	-0.000475	178.064300	-86.044046	125.670004
62306	9.699482	-0.074712	-0.562934	-0.017802	-0.007786	-0.000287	178.101003	-86.038458	125.624801
62307	9.697327	-0.363937	-0.507998	0.034569	-0.008042	-0.010137	178.085515	-86.032542	125.661649
62308	9.752177	-0.237749	-0.539067	0.058568	-0.009092	-0.010134	178.085045	-86.025968	125.696940
62309	9.696584	-0.069274	-0.653405	0.025312	-0.012250	-0.008031	178.082896	-86.017683	125.715101
62310	9.707740	0.118098	-0.668045	0.034441	-0.020511	-0.009190	178.080188	-86.004597	125.739336
62311	9.758297	0.137865	-0.677522	-0.001446	-0.017144	-0.013859	178.016532	-85.993395	125.803785
62312	9.751487	0.013431	-0.799220	-0.023867	-0.014012	-0.018967	177.898442	-85.983834	125.909513
62313	9.681254	0.045760	-0.878305	-0.009325	-0.011190	-0.012321	177.841800	-85.976059	125.962407
62314	9.729598	0.035628	-0.820411	0.008673	-0.011473	-0.016591	177.762172	-85.968001	126.049018
62315	9.732567	0.010262	-0.788551	0.029925	-0.006046	-0.012333	177.726706	-85.963163	126.103228
62316	9.720949	0.083626	-0.765391	0.037622	-0.003907	-0.009324	177.720375	-85.959512	126.131854
62317	9.760027	0.175203	-0.749663	0.045058	0.000077	-0.001298	177.781143	-85.958429	126.098285
62318	9.714412	0.182961	-0.720767	0.036240	0.001060	-0.000823	177.841928	-85.957851	126.059995
62319	9.744449	0.140640	-0.702923	0.025818	0.002672	0.002596	177.922408	-85.958329	125.995613
62320	9.793166	0.105555	-0.698502	0.024290	0.009546	0.005068	178.020986	-85.962721	125.911916
62321	9.785980	0.047977	-0.651660	0.004615	0.018603	0.005782	178.110994	-85.972370	125.825803
62322	9.756336	0.066600	-0.722501	0.006173	0.023404	-0.001497	178.142458	-85.984586	125.799240
62323	9.764829	0.043635	-0.721300	0.002485	0.024904	0.001700	178.197004	-85.997757	125.747457
62324	9.746587	0.012893	-0.760354	-0.000541	0.020801	0.000889	178.244838	-86.008487	125.699753
62325	9.760372	-0.006508	-0.793362	0.004110	0.021557	0.000922	178.295381	-86.019721	125.652917
62326	9.749252	0.042771	-0.822505	0.015196	0.029484	0.001423	178.355855	-86.035439	125.602473
62327	9.754547	0.069204	-0.798145	0.020790	0.035214	0.002522	178.426737	-86.054514	125.544830
62328	9.773201	0.099244	-0.753332	0.028495	0.037364	0.005540	178.528697	-86.074814	125.460949
62329	9.727806	0.106305	-0.720889	0.035356	0.038072	0.009188	178.664735	-86.095605	125.346367
62330	9.743125	0.185525	-0.653593	0.033277	0.038945	0.009440	178.803649	-86.116815	125.227450
62331	9.751713	0.161216	-0.650958	0.020776	0.038711	0.015256	178.985419	-86.137999	125.058663
62332	9.757384	0.163230	-0.681073	0.003494	0.039626	0.015006	179.157275	-86.159594	124.889183
62333	9.736873	0.100822	-0.651777	-0.010725	0.039216	0.019904	179.364630	-86.181028	124.676673
62334	9.711328	0.011340	-0.643651	-0.016123	0.040551	0.022183	179.591982	-86.203130	124.441389
62335	9.698283	0.005396	-0.660092	-0.011546	0.035065	0.022705	179.828201	-86.222082	124.199492
62336	9.722671	0.014137	-0.704676	-0.001459	0.029059	0.024810	-179.908195	-86.237443	123.935764
62337	9.760376	0.026528	-0.729065	0.005001	0.036241	0.025294	-179.635005	-86.256918	123.666327
62338	9.711094	0.104924	-0.619761	-0.003427	0.030751	0.028916	-179.332150	-86.273065	123.361744
62339	9.722390	0.052621	-0.584886	-0.014714	0.033651	0.030764	-179.016733	-86.290825	123.038681
62340	9.768889	0.018178	-0.665252	-0.009943	0.035224	0.034672	-178.659619	-86.309192	122.675849
62341	9.838699	0.040585	-0.682636	-0.007156	0.041200	0.040518	-178.244395	-86.330859	122.257126
62342	9.801565	0.078146	-0.750078	-0.003407	0.052159	0.047435	-177.755398	-86.358369	121.766345
62343	9.715908	0.093486	-0.721897	0.002874	0.049562	0.046714	-177.263727	-86.384224	121.276805
62344	9.681028	0.127115	-0.701647	0.023126	0.041051	0.052644	-176.703805	-86.404656	120.729581
62345	9.656974	0.110658	-0.650506	0.051351	0.032817	0.056606	-176.090241	-86.419974	120.145760
62346	9.687344	0.265157	-0.520697	0.056414	0.021669	0.064180	-175.405649	-86.428060	119.494022
62347	9.793540	0.504585	-0.546357	0.063788	0.016730	0.074905	-174.621692	-86.432397	118.746628
62348	9.742465	0.660705	-0.571849	0.018541	0.014039	0.089201	-173.733632	-86.433558	117.868047
62349	9.768589	0.785022	-0.464497	-0.050138	0.013070	0.109939	-172.696827	-86.431978	116.801914
62350	9.824052	0.718863	-0.546879	-0.115203	0.018785	0.132063	-171.489351	-86.430378	115.526077
62351	9.785041	0.445803	-0.823855	-0.151225	0.027772	0.145040	-170.173191	-86.431152	114.122014
62352	9.695063	0.220144	-0.839909	-0.150425	0.040177	0.157944	-168.718167	-86.435247	112.578042
62353	9.691938	0.197547	-0.714307	-0.095054	0.032906	0.180020	-167.046014	-86.430191	110.849544
62354	9.778705	0.261490	-0.722778	-0.054116	0.035304	0.205503	-165.124163	-86.419449	108.895064
62355	9.770800	0.310133	-0.606960	-0.055322	0.048610	0.218688	-163.067573	-86.409884	106.804151
62356	9.781467	0.447442	-0.636022	-0.071426	0.047515	0.252079	-160.750862	-86.388614	104.442503
62357	9.852063	0.576233	-0.672649	-0.094834	0.054248	0.283706	-158.191070	-86.358492	101.824600
62358	9.725554	0.678314	-0.514167	-0.160826	0.090622	0.292412	-155.511941	-86.337924	99.048921
62359	9.608812	0.643363	-0.631408	-0.209793	0.086355	0.301824	-152.839415	-86.304685	96.251897
62360	9.747063	0.592015	-0.795533	-0.218291	0.068092	0.313738	-150.216654	-86.250695	93.499730
62361	9.887357	0.423143	-0.707156	-0.237633	0.101911	0.321984	-147.469078	-86.202567	90.611207
62362	9.837383	0.200837	-0.780281	-0.244019	0.103754	0.334756	-144.705881	-86.142118	87.703118
62363	9.804978	0.028817	-0.756698	-0.234081	0.105579	0.357440	-141.871333	-86.065350	84.729045
62364	9.799356	-0.211150	-0.772113	-0.215065	0.102404	0.380696	-139.019572	-85.968745	81.748273
62365	9.807736	-0.320247	-0.787055	-0.159586	0.108994	0.393594	-136.168330	-85.859770	78.799571
62366	9.791816	-0.240865	-0.694208	-0.103397	0.118755	0.410995	-133.295800	-85.737289	75.861308
62367	9.833758	-0.116008	-0.672743	-0.052012	0.116925	0.425814	-130.500216	-85.597290	73.029299
62368	9.854712	0.174880	-0.599241	-0.026598	0.121691	0.450989	-127.733177	-85.437613	70.239890
62369	9.839471	0.450119	-0.498836	-0.048789	0.119539	0.473348	-125.093758	-85.256773	67.565175
62370	9.866786	0.544736	-0.607662	-0.106116	0.096565	0.500509	-122.719006	-85.046398	65.122274
62371	9.810862	0.656071	-0.608634	-0.145410	0.063597	0.539994	-120.617086	-84.798907	62.929910
62372	9.901012	0.963372	-0.350649	-0.173141	-0.025226	0.584701	-119.065665	-84.497900	61.273444
62373	10.255310	1.267813	-0.614062	-0.159860	-0.068729	0.646453	-117.728132	-84.150045	59.838756
62374	10.433716	0.889792	-0.955759	-0.203711	0.019532	0.691137	-116.050811	-83.798717	58.036120
62375	10.309018	0.498683	-0.836606	-0.165122	0.077623	0.721447	-114.212159	-83.440032	56.092295
62376	10.710460	0.585368	-0.338286	-0.064933	0.116371	0.760798	-112.277059	-83.062628	54.107585
62377	10.919691	0.557295	-0.081455	0.014786	0.149885	0.805849	-110.290086	-82.660214	52.115119
62378	10.781754	0.500898	0.051645	0.034259	0.142766	0.853730	-108.466551	-82.222772	50.296748
62379	10.841095	0.224393	-0.014322	0.027388	0.138196	0.891244	-106.815099	-81.756797	48.646366
62380	10.802403	-0.402164	-0.086638	0.067057	0.126062	0.937351	-105.318225	-81.257634	47.173080
62381	10.680922	-1.027282	-0.084714	0.163319	0.117065	0.975152	-103.926279	-80.730633	45.860002
62382	10.466236	-1.526742	0.021868	0.278925	0.109006	1.005176	-102.620716	-80.181427	44.699506
62383	10.497759	-1.953179	0.139052	0.391176	0.087645	1.012597	-101.443404	-79.621194	43.732823
62384	10.775723	-2.100962	0.057337	0.513236	0.080755	0.999509	-100.335463	-79.064606	42.906003
62385	11.144450	-1.860782	-0.126008	0.572353	0.094893	0.957215	-99.267563	-78.530185	42.153169
62386	10.961664	-1.595911	-0.075824	0.584770	0.088739	0.907664	-98.310151	-78.021080	41.518890
62387	10.670628	-1.588432	-0.004118	0.550329	0.075195	0.904831	-97.471944	-77.510265	40.985353
62388	10.268273	-1.782063	-0.113759	0.545506	0.084868	0.938195	-96.656838	-76.979895	40.471434
62389	9.810245	-2.177765	-0.122101	0.578005	0.066324	0.941251	-95.917885	-76.444821	40.053948
62390	9.469010	-2.630422	0.143739	0.675201	0.025416	0.912421	-95.267566	-75.923099	39.783992
62391	9.198977	-2.815542	0.351624	0.684126	-0.004622	0.865269	-94.719197	-75.425828	39.624095
62392	8.925474	-3.010280	0.185183	0.634718	-0.035433	0.818253	-94.295273	-74.954019	39.563131
