// General information: 
//  MT Manager version: 2022.2.0 
//  XDA version: 2022.2.0 build 7381 rev 124627 built on 2023-07-19
// Device information: 
//  DeviceId: 00B4BB4F
//  ProductCode: MTW2-3A7G6
//  Firmware Version: 4.6.0
//  Hardware Version: 2.0.0
// Device settings: 
//  Filter Profile: human(46.1)
//  Option Flags: Orientation Smoother Disabled, Position/Velocity Smoother Disabled, Continuous Zero Rotation Update Disabled, AHS Disabled, ICC Disabled
// Coordinate system: ENU
PacketCounter	Acc_X	Acc_Y	Acc_Z	Gyr_X	Gyr_Y	Gyr_Z	Roll	Pitch	Yaw
42599	8.872848	-3.818690	1.367640	-0.018113	-0.011348	-0.007368	-69.830959	-65.412261	41.946897
42600	8.893895	-3.773567	1.341776	-0.016628	-0.019407	-0.009302	-69.859827	-65.421490	41.968208
42601	8.918107	-3.838418	1.362330	-0.018616	-0.013416	-0.011014	-69.882205	-65.430564	41.979043
42602	8.895448	-3.772850	1.361997	-0.020350	-0.016375	-0.007448	-69.910469	-65.438189	41.997340
42603	8.886363	-3.795480	1.408189	-0.020839	-0.018461	-0.009288	-69.940711	-65.447204	42.022529
42604	8.886960	-3.794946	1.405860	-0.020365	-0.016356	-0.009258	-69.968213	-65.455792	42.039977
42605	8.876253	-3.815604	1.354096	-0.024334	-0.024342	-0.005771	-70.009087	-65.464155	42.068295
42606	8.898955	-3.825706	1.350235	-0.026128	-0.027225	-0.009431	-70.052680	-65.474954	42.099799
42607	8.932650	-3.814152	1.370617	-0.030470	-0.031779	-0.009504	-70.103857	-65.486732	42.137602
42608	8.911348	-3.855957	1.292914	-0.027939	-0.030086	-0.014905	-70.149602	-65.501016	42.170325
42609	8.995905	-3.784313	1.169201	-0.021498	0.013905	-0.025014	-70.135414	-65.512253	42.141490
42610	8.685652	-3.775287	1.518494	-0.020885	0.041444	-0.028166	-70.086836	-65.519743	42.075004
42611	8.750269	-3.695187	1.519812	-0.004834	-0.015244	-0.027353	-70.096491	-65.537900	42.083729
42612	8.783764	-3.734749	1.442862	-0.021824	-0.022615	-0.014809	-70.129985	-65.550679	42.106829
42613	8.850634	-3.764439	1.412402	-0.017887	-0.054472	-0.013566	-70.199631	-65.569057	42.171456
42614	8.948721	-3.780781	1.307429	-0.023951	-0.042058	-0.013347	-70.258143	-65.584796	42.220688
42615	8.928908	-3.824034	1.302499	-0.019141	-0.035395	-0.013244	-70.306104	-65.599294	42.259384
42616	8.950635	-3.778953	1.299590	-0.020650	-0.027319	-0.013101	-70.345413	-65.612023	42.289596
42617	8.897270	-3.780187	1.321941	-0.010867	-0.028472	-0.005918	-70.383796	-65.621175	42.324454
42618	8.941965	-3.800522	1.318257	-0.010979	-0.014057	-0.007462	-70.404217	-65.628297	42.340008
42619	8.910439	-3.812216	1.341538	-0.012160	-0.009353	-0.009182	-70.418926	-65.635521	42.348309
42620	8.909577	-3.757209	1.341385	-0.008019	-0.015860	-0.003890	-70.441334	-65.641056	42.367903
42621	8.877440	-3.768757	1.339880	-0.009761	-0.018805	-0.002135	-70.468963	-65.646238	42.395467
42622	8.867398	-3.790832	1.337202	-0.006127	-0.027374	-0.000499	-70.505481	-65.652138	42.431739
42623	8.985257	-3.763671	1.235535	-0.002972	-0.018112	-0.002142	-70.528484	-65.657205	42.456298
42624	8.856214	-3.758172	1.335465	-0.002817	0.007281	-0.001663	-70.521257	-65.657103	42.446635
42625	8.888284	-3.745593	1.310828	-0.002634	-0.001568	-0.005445	-70.522967	-65.660760	42.449605
42626	8.868613	-3.790782	1.358756	-0.005501	0.000124	0.000016	-70.526533	-65.661118	42.450100
42627	8.900670	-3.778449	1.333502	-0.002721	-0.007112	-0.001935	-70.535978	-65.664001	42.458187
42628	8.900304	-3.777751	1.308411	-0.008568	-0.003595	-0.001854	-70.544954	-65.666079	42.462691
42629	8.890503	-3.800457	1.331855	-0.006443	-0.004088	-0.000061	-70.553931	-65.667303	42.471581
42630	8.879388	-3.768727	1.356534	-0.003154	-0.009263	0.001639	-70.568052	-65.668575	42.485136
42631	8.911443	-3.756601	1.330655	-0.002808	-0.012657	0.001572	-70.585783	-65.670598	42.503399
42632	8.913479	-3.811714	1.352271	-0.004625	-0.015513	-0.003901	-70.605891	-65.676049	42.522599
42633	8.902923	-3.832732	1.326455	-0.001490	-0.006227	-0.007346	-70.611645	-65.681628	42.530373
42634	8.826871	-3.822608	1.327405	0.002029	-0.014660	-0.016557	-70.621609	-65.693754	42.542623
42635	8.997007	-3.735479	1.154275	0.002574	-0.001352	-0.032572	-70.608495	-65.712078	42.529995
42636	8.807471	-3.755241	1.428296	-0.013270	0.046383	-0.029804	-70.548519	-65.719736	42.455898
42637	8.796108	-3.719793	1.405819	0.003456	-0.022621	-0.025757	-70.563326	-65.738343	42.479354
42638	8.872764	-3.725640	1.353679	-0.018943	-0.004420	-0.019925	-70.571608	-65.750342	42.476575
42639	8.853004	-3.768324	1.350813	-0.009816	-0.033000	-0.018699	-70.609482	-65.767139	42.515072
42640	8.962055	-3.763003	1.296747	-0.021356	-0.020520	-0.014810	-70.640669	-65.779435	42.535895
42641	8.941185	-3.804703	1.244541	-0.014727	-0.025274	-0.018543	-70.672133	-65.794677	42.563532
42642	8.910530	-3.762790	1.341631	-0.013709	-0.015515	-0.021972	-70.689948	-65.809888	42.574494
42643	8.922284	-3.792204	1.289419	-0.015585	-0.023940	-0.022139	-70.718839	-65.826856	42.596349
42644	8.933891	-3.767932	1.287368	-0.017206	-0.015749	-0.031017	-70.735170	-65.847000	42.603485
42645	8.923408	-3.733067	1.286630	-0.011196	-0.013806	-0.027382	-70.747242	-65.864796	42.614572
42646	8.893183	-3.744022	1.334398	-0.012325	-0.009173	-0.023669	-70.755963	-65.879722	42.616433
42647	8.903357	-3.718800	1.284560	-0.007718	-0.013549	-0.020157	-70.768721	-65.893614	42.627521
42648	8.905260	-3.718730	1.331946	-0.009274	-0.011071	-0.012865	-70.782562	-65.903052	42.636905
42649	8.928924	-3.781988	1.303655	-0.008549	-0.017881	-0.011200	-70.804799	-65.912957	42.655467
42650	8.885928	-3.760998	1.328054	-0.010115	-0.009760	-0.014647	-70.816805	-65.923110	42.662312
42651	8.831156	-3.707645	1.353303	-0.004895	-0.026445	-0.009584	-70.848348	-65.933789	42.690858
42652	8.843143	-3.738581	1.325058	-0.008778	-0.028881	-0.011435	-70.884149	-65.945792	42.724599
42653	8.854172	-3.715889	1.322201	-0.000003	-0.039761	-0.002650	-70.931772	-65.955122	42.777583
42654	8.822456	-3.675523	1.393565	0.000879	-0.046741	0.011671	-70.993471	-65.957925	42.845738
42655	8.921154	-3.748610	1.310360	-0.003444	-0.076822	0.020080	-71.097485	-65.961790	42.958292
42656	8.995478	-3.756545	1.204156	-0.002769	-0.063692	0.018534	-71.184768	-65.963924	43.052167
42657	8.973894	-3.748802	1.224337	-0.007407	-0.045020	0.022571	-71.253315	-65.960442	43.122550
42658	8.930042	-3.730828	1.246471	-0.000995	-0.040898	0.020814	-71.312787	-65.957053	43.187090
42659	8.973926	-3.753431	1.241201	-0.002140	-0.036242	0.022726	-71.367719	-65.951716	43.251819
42660	8.972889	-3.807973	1.163704	0.002284	-0.026153	0.021114	-71.407454	-65.945420	43.296808
42661	8.906656	-3.726182	1.239507	0.006359	-0.012671	0.019581	-71.427509	-65.937501	43.325601
42662	8.907419	-3.729316	1.287159	0.006290	-0.018220	0.023073	-71.456059	-65.928677	43.360858
42663	8.951015	-3.805302	1.233303	0.003620	-0.025382	0.024733	-71.495313	-65.920288	43.407780
42664	8.982136	-3.794946	1.206608	-0.002510	-0.012928	0.021427	-71.521752	-65.911381	43.435209
42665	8.938604	-3.777606	1.256249	-0.003181	-0.006165	0.023389	-71.540954	-65.900269	43.453002
42666	8.959211	-3.789442	1.230109	-0.004940	-0.009090	0.023331	-71.564855	-65.889621	43.476129
42667	8.914963	-3.771465	1.255515	-0.006131	-0.004384	0.021634	-71.583087	-65.879019	43.497832
42668	8.934908	-3.782522	1.205025	-0.007890	-0.007308	0.021576	-71.605770	-65.868997	43.517776
42669	8.914068	-3.776350	1.278547	-0.010168	0.002006	0.025414	-71.619497	-65.855247	43.528097
42670	8.889659	-3.767007	1.230156	-0.006551	-0.006540	0.025197	-71.641903	-65.843112	43.548583
42671	8.878381	-3.791435	1.229046	-0.009475	-0.004782	0.025252	-71.663627	-65.830693	43.566190
42672	8.878377	-3.794004	1.252683	-0.012554	-0.002874	0.014466	-71.680684	-65.823729	43.577046
42673	8.920095	-3.760988	1.226903	-0.013152	-0.010480	0.014294	-71.707401	-65.818333	43.596838
42674	8.953392	-3.805335	1.223396	-0.019815	-0.005673	0.014440	-71.731980	-65.811881	43.611380
42675	8.952147	-3.806253	1.197964	-0.016739	-0.001958	0.016314	-71.750686	-65.803806	43.621245
42676	8.928974	-3.743451	1.224449	-0.022064	0.009242	0.011180	-71.757175	-65.796449	43.614543
42677	8.906900	-3.788176	1.199462	-0.020775	0.010059	0.011190	-71.761407	-65.788991	43.606662
42678	8.907701	-3.790813	1.248770	-0.018885	0.018481	0.011374	-71.754976	-65.779872	43.587790
42679	8.885728	-3.782439	1.274365	-0.020878	0.004534	0.012863	-71.767027	-65.772526	43.587056
42680	8.982449	-3.802163	1.221478	-0.024350	-0.001363	0.016354	-71.789710	-65.764255	43.596675
42681	8.916929	-3.826983	1.221940	-0.030985	0.009051	0.009403	-71.800577	-65.757964	43.589582
42682	8.980705	-3.804148	1.196384	-0.028277	0.016184	0.009555	-71.801590	-65.750252	43.572968
42683	8.991120	-3.836837	1.171702	-0.035598	0.033388	0.002767	-71.783308	-65.743260	43.529046
42684	8.925076	-3.806899	1.201112	-0.029863	0.044287	0.001186	-71.747989	-65.735059	43.471582
42685	8.958292	-3.849933	1.202011	-0.028544	0.050712	-0.005902	-71.701578	-65.729583	43.404915
42686	8.992441	-3.945652	1.177629	-0.018449	0.057495	-0.022052	-71.634551	-65.731600	43.319838
42687	8.969652	-3.877946	1.185562	-0.000663	0.069237	-0.041727	-71.535055	-65.742226	43.209424
42688	8.969268	-3.819154	1.194520	0.006025	0.089987	-0.052129	-71.402586	-65.754545	43.067963
42689	8.907047	-3.839860	1.277243	0.013711	0.094947	-0.055686	-71.258187	-65.767806	42.918887
42690	8.939508	-3.820906	1.237342	0.020001	0.099230	-0.068300	-71.099613	-65.786892	42.757615
42691	8.908000	-3.773383	1.298442	0.022862	0.111810	-0.064457	-70.925701	-65.801419	42.582462
42692	8.855081	-3.769165	1.334764	0.025706	0.110163	-0.071787	-70.748746	-65.819941	42.404665
42693	8.900623	-3.783017	1.343629	0.025099	0.102584	-0.073814	-70.580171	-65.840822	42.237327
42694	8.871473	-3.841666	1.352009	0.024334	0.095246	-0.092117	-70.412708	-65.872744	42.069134
42695	8.907849	-3.873937	1.334533	0.033469	0.078074	-0.117874	-70.249569	-65.921730	41.912824
42696	9.018380	-3.854072	1.195366	0.039840	0.093624	-0.148423	-70.049509	-65.983894	41.718790
42697	9.054584	-3.774212	1.257414	0.055176	0.129138	-0.165953	-69.789023	-66.048221	41.470700
42698	8.994844	-3.782898	1.296604	0.059185	0.142683	-0.171289	-69.505905	-66.112197	41.198122
42699	8.979783	-3.810776	1.336010	0.074908	0.154953	-0.191178	-69.188572	-66.183833	40.899380
42700	9.051536	-3.820100	1.303262	0.079636	0.173082	-0.223757	-68.829049	-66.268402	40.556424
42701	9.076704	-3.700592	1.399094	0.088449	0.204544	-0.245319	-68.413641	-66.357017	40.159664
42702	8.986460	-3.713993	1.445432	0.080018	0.212016	-0.258320	-67.984291	-66.449726	39.741214
42703	9.074605	-3.803283	1.391220	0.085043	0.215623	-0.282298	-67.532787	-66.553192	39.301760
42704	9.060515	-3.767672	1.513926	0.106526	0.249913	-0.304069	-67.011401	-66.658966	38.800221
42705	9.656289	-3.486543	1.322531	0.109799	0.191586	-0.276069	-66.570168	-66.761428	38.395133
42706	9.741798	-3.943520	1.023706	0.066183	0.335465	-0.198649	-66.016003	-66.788772	37.833409
42707	6.379365	-7.406717	-1.476010	-0.138945	0.247871	0.240098	-65.925592	-66.605677	37.654630
42708	4.968664	-9.336433	-1.582191	0.337319	-0.121223	0.100336	-65.933497	-66.581926	37.873889
42709	8.346981	-8.062870	-1.362419	0.384267	-0.365434	0.054313	-66.186401	-66.638755	38.395480
42710	7.748073	-8.263361	-1.525429	0.507443	-0.271918	0.014469	-66.234412	-66.694425	38.764453
42711	7.647263	-7.454219	-1.628173	0.441786	-0.405706	-0.023972	-66.465304	-66.800570	39.291156
42712	7.816729	-7.187775	-1.459162	0.395663	-0.441199	-0.047095	-66.757057	-66.926095	39.854997
42713	8.457072	-6.883175	-1.256713	0.301893	-0.420460	-0.047534	-67.081845	-67.045877	40.393401
42714	9.220028	-6.364146	-0.941143	0.183218	-0.257668	0.017321	-67.308210	-67.094356	40.753215
42715	8.371037	-5.512397	-0.598918	0.027197	-0.150029	0.020965	-67.492938	-67.116530	40.969890
42716	8.817196	-5.394369	-0.839221	-0.145098	-0.042176	0.046959	-67.653833	-67.101282	41.054342
42717	8.950969	-5.289346	-0.389321	-0.268395	0.039743	-0.000659	-67.759110	-67.093186	41.001706
42718	8.570567	-5.064192	-0.367601	-0.397312	0.121771	-0.061261	-67.803011	-67.099699	40.802283
42719	8.099708	-5.113857	-0.227307	-0.491723	0.067669	-0.103594	-67.948505	-67.140259	40.654434
42720	8.006232	-5.034645	-0.078347	-0.558933	-0.010877	-0.114073	-68.225097	-67.203623	40.607116
42721	8.155353	-4.957166	0.180771	-0.590770	-0.079234	-0.110497	-68.610667	-67.279344	40.658206
42722	8.439266	-4.891874	0.628745	-0.583566	-0.104076	-0.088383	-69.034855	-67.348504	40.755612
42723	8.655359	-4.856742	0.955976	-0.551155	-0.089426	-0.028985	-69.453497	-67.382313	40.867081
42724	8.884800	-4.490444	1.347554	-0.489351	-0.058475	-0.005448	-69.807273	-67.397296	40.946635
42725	8.997329	-3.835711	1.664008	-0.457453	-0.015327	-0.016014	-70.083737	-67.409022	40.962228
42726	9.238321	-3.131239	1.989072	-0.483484	0.004907	-0.045488	-70.333771	-67.432985	40.933050
42727	9.418787	-2.605226	2.070642	-0.561016	0.047914	-0.072870	-70.561347	-67.463235	40.831453
42728	9.405861	-2.158161	2.185209	-0.675117	0.115776	-0.085513	-70.758718	-67.487886	40.626411
42729	9.607706	-2.116871	2.111464	-0.770648	0.224407	-0.077078	-70.874282	-67.487463	40.273572
42730	9.887121	-1.726860	2.294416	-0.856407	0.393171	-0.085173	-70.813898	-67.460029	39.677031
42731	9.918964	-1.519031	2.342597	-0.949454	0.552944	-0.078143	-70.604863	-67.397782	38.861569
42732	9.773926	-1.350861	2.454529	-1.023831	0.676149	-0.080728	-70.279913	-67.312070	37.873907
42733	9.622106	-1.333154	2.733834	-1.062971	0.746421	-0.094872	-69.887008	-67.217703	36.787586
42734	9.873944	-1.238041	3.128540	-1.028853	0.798706	-0.131424	-69.395504	-67.129483	35.614788
42735	9.716396	-1.223358	3.594189	-0.965436	0.886616	-0.157153	-68.752029	-67.032419	34.315624
42736	9.491722	-1.212968	3.863512	-0.877475	0.871700	-0.182710	-68.071105	-66.946391	33.029670
42737	9.621575	-1.054119	4.483368	-0.701937	0.869077	-0.235934	-67.273615	-66.882594	31.725596
42738	9.312141	-0.787425	5.226858	-0.559915	0.813483	-0.266714	-66.451442	-66.840377	30.482677
42739	8.860077	-0.727613	5.966953	-0.317190	0.565668	-0.330523	-65.761464	-66.882627	29.534735
42740	8.491616	0.117274	6.329162	-0.104038	0.196147	-0.295974	-65.416627	-66.991014	29.095199
42741	9.029388	-0.089490	6.378018	0.156324	-0.086765	-0.090828	-65.383507	-67.059428	29.156543
42742	11.958535	2.913555	7.517165	0.371740	0.026143	-0.160559	-65.047547	-67.137082	29.023098
42743	9.051041	3.141619	5.764052	0.160228	0.175095	0.003251	-64.742939	-67.093290	28.792153
42744	6.054542	-1.192930	2.001600	-0.288549	-0.292135	0.416632	-65.503673	-66.947549	29.438924
42745	9.574679	-3.454211	1.495977	-0.179292	-0.532618	0.457961	-66.510101	-66.832419	30.421511
42746	10.036182	-4.956602	0.560959	-0.293093	-0.222363	0.374213	-67.147753	-66.685842	30.932758
42747	7.848075	-3.943811	2.545355	-0.056544	-0.194213	0.180981	-67.511138	-66.633545	31.293286
42748	8.853596	-3.425368	1.942171	-0.182581	-0.577011	0.162265	-68.407063	-66.671837	32.155213
42749	9.853152	-4.258018	0.438923	-0.171863	-0.479091	0.153462	-69.173389	-66.689655	32.882518
42750	9.321343	-3.622418	1.049033	-0.095290	-0.280013	0.108834	-69.627994	-66.688126	33.318124
42751	9.342571	-3.688374	0.816884	-0.075195	-0.218753	0.106726	-69.993398	-66.674469	33.669155
42752	9.319883	-3.823093	0.951874	-0.062349	-0.106341	0.091304	-70.203743	-66.646412	33.859384
42753	9.404166	-4.046794	0.738424	-0.027079	-0.035747	0.045272	-70.284674	-66.629404	33.930680
42754	9.325422	-3.931287	0.881365	0.017572	0.102638	-0.015560	-70.140185	-66.618276	33.784283
42755	9.005647	-3.777247	1.279577	0.044346	0.147497	-0.036421	-69.915147	-66.609505	33.566824
42756	8.957513	-3.696410	1.280555	0.062251	0.143283	-0.042930	-69.682315	-66.604633	33.352047
42757	8.957812	-3.569696	1.364981	0.065598	0.154380	-0.038371	-69.435971	-66.594825	33.124617
42758	8.845588	-3.583663	1.448332	0.062034	0.147792	-0.029968	-69.204019	-66.581380	32.910632
42759	8.749512	-3.565260	1.609135	0.051216	0.110850	-0.024047	-69.026866	-66.572095	32.749588
42760	8.773244	-3.564435	1.569221	0.034091	0.059028	-0.023159	-68.924048	-66.572745	32.658865
42761	8.842708	-3.582892	1.523482	0.017413	0.020293	-0.021346	-68.879356	-66.580452	32.621071
42762	8.850771	-3.497584	1.488260	0.004076	-0.007348	-0.014892	-68.879547	-66.590326	32.623868
42763	8.946863	-3.580694	1.427923	-0.007551	-0.021063	-0.007409	-68.906832	-66.599114	32.648925
42764	8.998727	-3.641728	1.343829	-0.003804	-0.024330	-0.003690	-68.937874	-66.606498	32.680418
42765	8.964299	-3.596689	1.323377	-0.004211	-0.004474	-0.002422	-68.945146	-66.609195	32.685753
42766	8.938385	-3.602257	1.419871	-0.001310	-0.006468	0.001323	-68.955080	-66.610216	32.695803
42767	8.916637	-3.589691	1.395546	-0.002359	-0.011533	0.011942	-68.976851	-66.606683	32.718089
42768	8.948335	-3.578075	1.397177	-0.001976	-0.020547	0.013214	-69.010219	-66.604232	32.753257
42769	8.901853	-3.565078	1.421031	-0.000631	-0.013665	0.033962	-69.044048	-66.589347	32.789764
42770	8.984017	-3.616875	1.340816	0.005689	-0.020613	0.035775	-69.083727	-66.574819	32.836601
42771	8.983692	-3.616373	1.315892	0.011190	-0.004323	0.039054	-69.101559	-66.555282	32.863064
42772	8.949308	-3.636637	1.337213	0.011464	0.002572	0.048699	-69.115306	-66.529085	32.885254
42773	8.923439	-3.638504	1.386647	0.014130	-0.000686	0.041318	-69.127963	-66.507587	32.907920
42774	8.978070	-3.631472	1.341198	0.011517	-0.002635	0.044676	-69.146127	-66.484602	32.934968
42775	9.001675	-3.702175	1.356894	0.013745	0.002838	0.039673	-69.153833	-66.463262	32.952001
42776	8.950930	-3.636127	1.391499	0.010496	0.008499	0.032473	-69.153127	-66.444539	32.957835
42777	8.916939	-3.655022	1.413351	0.009305	0.002595	0.026498	-69.157486	-66.430302	32.968446
42778	8.912476	-3.603532	1.421663	0.008365	-0.007392	0.029452	-69.176071	-66.416434	32.993998
42779	8.938206	-3.666028	1.388187	0.005685	-0.009618	0.036457	-69.202090	-66.399346	33.025983
42780	8.937089	-3.669103	1.387255	0.006544	-0.016244	0.034247	-69.234735	-66.384699	33.065747
42781	8.968892	-3.655659	1.365345	0.007869	-0.009780	0.032919	-69.257976	-66.369527	33.096073
42782	8.959198	-3.676781	1.337057	0.009640	-0.006560	0.029577	-69.274748	-66.355405	33.120455
42783	8.959071	-3.675432	1.313092	0.012274	0.000876	0.026569	-69.279433	-66.341469	33.133286
42784	8.933018	-3.679162	1.386838	0.013170	0.005231	0.025076	-69.277645	-66.327366	33.139618
42785	8.932870	-3.677592	1.363608	0.011862	0.004260	0.026754	-69.278503	-66.312644	33.148014
42786	8.963082	-3.670691	1.391510	0.012371	0.001294	0.021095	-69.280134	-66.301473	33.157580
42787	8.962183	-3.672537	1.392426	0.007713	0.010919	0.023229	-69.273606	-66.287290	33.155316
42788	8.915485	-3.658956	1.418871	0.007723	0.005567	0.021050	-69.272659	-66.275277	33.159160
42789	8.937939	-3.666764	1.394604	0.005515	0.000243	0.024220	-69.280863	-66.262728	33.171613
42790	8.927546	-3.690854	1.390996	0.000070	0.000580	0.020202	-69.289978	-66.252180	33.181659
42791	8.925958	-3.696198	1.415282	0.000569	0.002965	0.016723	-69.294230	-66.243095	33.186700
42792	8.936672	-3.668121	1.370959	0.003096	-0.000864	0.016649	-69.301721	-66.234743	33.196867
42793	8.970534	-3.714472	1.390079	-0.001916	0.001581	0.012798	-69.307269	-66.228041	33.201769
42794	8.948490	-3.702190	1.367066	0.000728	0.009012	0.009790	-69.300940	-66.221365	33.195353
42795	8.948087	-3.702796	1.368061	0.005497	0.010644	0.004724	-69.287507	-66.217154	33.184155
42796	8.911593	-3.665489	1.398370	0.005497	0.010644	0.004723	-69.274138	-66.212861	33.173032
42797	8.886980	-3.663858	1.448212	0.003687	0.007290	0.009881	-69.268201	-66.206565	33.168891
42798	8.924526	-3.694943	1.371312	0.002384	0.000968	0.009386	-69.270527	-66.201735	33.172971
42799	8.910374	-3.667768	1.400165	0.006179	0.003321	0.011629	-69.268789	-66.195307	33.174980
42800	8.923708	-3.696697	1.371909	0.001950	-0.001139	0.009221	-69.273845	-66.190993	33.181772
42801	8.922469	-3.701190	1.396098	0.002384	0.000968	0.009385	-69.276106	-66.186243	33.185776
42802	8.922232	-3.701758	1.396111	-0.001343	-0.001107	0.003501	-69.280380	-66.184988	33.189650
42803	8.910154	-3.666696	1.376281	0.004976	-0.002586	0.005671	-69.283763	-66.182948	33.196504
42804	8.946130	-3.704682	1.347498	0.004664	0.006567	0.002571	-69.274850	-66.180635	33.189727
42805	8.895968	-3.639340	1.405868	0.004563	0.006152	0.008033	-69.268951	-66.175559	33.186176
42806	8.922217	-3.699709	1.373489	0.006686	0.000352	0.005976	-69.267988	-66.172681	33.189355
42807	8.921956	-3.700250	1.373723	0.002417	0.001107	0.007563	-69.269225	-66.168879	33.192261
42808	8.907055	-3.676419	1.426649	0.005004	0.002906	0.006023	-69.266148	-66.165458	33.192077
42809	8.875583	-3.686022	1.399516	0.001446	-0.003522	0.012696	-69.275911	-66.159844	33.203695
42810	8.933019	-3.737736	1.393505	0.002021	-0.006215	0.003406	-69.284403	-66.159675	33.214290
42811	8.967842	-3.714053	1.324033	0.005177	-0.001757	-0.005253	-69.281651	-66.163321	33.214563
42812	8.940570	-3.657461	1.381166	0.002620	0.001937	-0.003361	-69.276808	-66.165125	33.210955
42813	8.943908	-3.710933	1.373334	0.002654	0.002075	-0.005181	-69.270888	-66.167956	33.206184
42814	8.939915	-3.660230	1.406107	0.004800	0.007120	-0.004714	-69.257886	-66.169433	33.195022
42815	8.888739	-3.716570	1.396211	0.007290	0.003150	-0.002964	-69.249021	-66.170857	33.189936
42816	8.898384	-3.694175	1.400390	0.001745	0.003076	-0.001517	-69.244143	-66.171442	33.185741
42817	8.944461	-3.708922	1.375161	0.001987	-0.001312	-0.016434	-69.237534	-66.180987	33.179800
42818	8.940800	-3.657559	1.407431	-0.000672	0.001967	-0.009080	-69.231903	-66.185848	33.173268
42819	8.922813	-3.697412	1.375803	0.000542	-0.002832	-0.007471	-69.232087	-66.190900	33.173849
42820	8.955203	-3.683854	1.379345	0.000359	0.012225	-0.015686	-69.210360	-66.197214	33.150371
42821	8.900153	-3.689276	1.402066	0.000257	0.011812	-0.010225	-69.191651	-66.200762	33.130122
42822	8.921998	-3.701412	1.426582	-0.000917	0.011395	-0.015829	-69.171577	-66.207315	33.107654
42823	8.914014	-3.717959	1.399360	-0.000331	0.003348	-0.027295	-69.155575	-66.221722	33.089999
42824	9.005255	-3.684901	1.308800	0.002799	0.002316	-0.036311	-69.134888	-66.241088	33.069192
42825	8.950221	-3.691806	1.355644	0.002097	0.020344	-0.038885	-69.091384	-66.258221	33.023014
42826	8.938436	-3.656637	1.362070	0.005889	0.022701	-0.036649	-69.043867	-66.273584	32.974838
42827	8.948847	-3.631315	1.368655	0.008414	0.035073	-0.032032	-68.981890	-66.283996	32.912446
42828	8.924139	-3.630208	1.444998	0.006123	0.034828	-0.023045	-68.925735	-66.289550	32.854989
42829	8.892404	-3.640878	1.445087	0.009822	0.031418	-0.017510	-68.874139	-66.292904	32.804823
42830	8.925432	-3.623083	1.427355	0.008065	0.033695	-0.013825	-68.822552	-66.293724	32.753573
42831	8.881995	-3.664011	1.471835	0.005444	0.031755	-0.010466	-68.776360	-66.293210	32.706569
42832	8.906581	-3.664840	1.425143	0.004667	0.011614	-0.019120	-68.751066	-66.301410	32.681910
42833	8.939028	-3.650554	1.429711	0.003375	0.016136	-0.017095	-68.721901	-66.307659	32.652210
42834	8.930740	-3.667716	1.403571	0.007090	0.018220	-0.011205	-68.690902	-66.310248	32.622840
42835	8.942255	-3.705011	1.448998	0.001420	0.011775	-0.026678	-68.663582	-66.322509	32.593935
42836	8.951109	-3.618959	1.413932	0.006625	0.015520	-0.031587	-68.626404	-66.336525	32.557531
42837	8.906912	-3.597408	1.416687	0.002637	0.017825	-0.022553	-68.592923	-66.345307	32.522667
42838	8.942790	-3.636990	1.413354	0.002869	0.013753	-0.013620	-68.568568	-66.350093	32.497918
42839	8.908167	-3.659477	1.483846	-0.000130	0.015332	-0.011898	-68.544770	-66.353701	32.471896
42840	8.934807	-3.653252	1.387931	0.002818	0.008123	-0.012141	-68.527991	-66.358872	32.455388
42841	8.943648	-3.633559	1.416744	-0.001797	0.012528	-0.014026	-68.507528	-66.364195	32.431966
42842	8.854615	-3.659282	1.484103	0.000663	0.008427	-0.010440	-68.492415	-66.368390	32.415929
42843	8.947063	-3.688500	1.434011	-0.005461	-0.000269	-0.024256	-68.484713	-66.381850	32.404147
42844	8.945501	-3.628681	1.417544	-0.004127	-0.004652	-0.028107	-68.479781	-66.398209	32.396228
42845	8.933500	-3.594626	1.421467	-0.003307	-0.000572	-0.025963	-68.470370	-66.412641	32.383931
42846	8.979192	-3.611762	1.420561	-0.000932	0.005899	-0.016218	-68.456432	-66.420444	32.368185
42847	8.946689	-3.626876	1.441999	-0.004815	0.008613	-0.012651	-68.443065	-66.425846	32.350630
42848	8.972401	-3.624361	1.369846	-0.000187	0.009704	-0.010423	-68.426834	-66.429757	32.332849
42849	8.914300	-3.641186	1.464773	-0.000948	0.016747	-0.013711	-68.400793	-66.434005	32.303884
42850	8.923946	-3.617939	1.469940	-0.000177	0.015197	-0.010083	-68.378000	-66.436570	32.278951
42851	8.948559	-3.619266	1.422306	-0.003188	0.011281	-0.008703	-68.362326	-66.439296	32.259899
42852	8.926099	-3.609299	1.423861	-0.001599	0.013810	-0.002927	-68.345501	-66.438337	32.240589
42853	8.970036	-3.631673	1.447934	-0.000335	0.009152	-0.003127	-68.333493	-66.438540	32.227319
42854	8.924866	-3.612784	1.449929	-0.001749	0.013258	0.004371	-68.320972	-66.433808	32.212611
42855	8.926470	-3.606005	1.402721	-0.000133	0.010433	0.007982	-68.312679	-66.427823	32.203520
42856	8.937126	-3.645573	1.447733	0.002489	0.012378	0.004615	-68.298933	-66.423145	32.190122
42857	8.955635	-3.601640	1.456467	0.002451	0.012240	0.006439	-68.286218	-66.417596	32.177820
42858	8.944724	-3.628061	1.478240	0.002460	0.017733	0.006779	-68.267023	-66.410628	32.158458
42859	8.913287	-3.637790	1.452262	0.007458	0.009810	0.010314	-68.256297	-66.403530	32.151456
42860	8.954176	-3.603639	1.460487	0.004531	0.011663	0.008384	-68.244109	-66.396993	32.141034
42861	8.934850	-3.648694	1.453903	0.004522	0.006170	0.008044	-68.238403	-66.391875	32.137674
42862	8.921394	-3.617670	1.459087	0.005377	0.010388	0.008365	-68.227283	-66.385618	32.128944
42863	8.943408	-3.627991	1.459442	0.003171	0.005060	0.011551	-68.225410	-66.378870	32.128923
42864	8.941960	-3.632541	1.483947	0.004472	0.000539	0.009529	-68.227361	-66.374086	32.133894
42865	8.920145	-3.620175	1.460510	0.002354	0.000980	0.009405	-68.229875	-66.369346	32.138150
42866	8.965709	-3.636493	1.435621	0.001432	0.001980	0.013072	-68.233534	-66.362371	32.143084
42867	8.933339	-3.650086	1.432688	0.001976	0.004502	0.007759	-68.231182	-66.357758	32.141792
42868	8.931943	-3.654466	1.457268	0.007019	0.002207	0.009811	-68.229779	-66.352470	32.144695
42869	8.942018	-3.629416	1.437499	0.004484	0.006032	0.009865	-68.225155	-66.346410	32.142492
42870	8.909634	-3.642911	1.434854	0.003210	0.005198	0.009723	-68.222258	-66.340533	32.141381
42871	8.940140	-3.634712	1.462737	0.002782	0.003089	0.009563	-68.222039	-66.335260	32.142923
42872	8.931285	-3.654139	1.435162	0.001469	0.002118	0.011245	-68.224617	-66.329228	32.146701
42873	8.916862	-3.626910	1.463843	0.002821	0.003227	0.007738	-68.223324	-66.324896	32.147094
42874	8.941129	-3.629838	1.415046	-0.000207	-0.006180	0.008782	-68.235736	-66.321937	32.160561
42875	8.930377	-3.656334	1.435219	-0.002650	0.003414	0.005525	-68.236277	-66.318743	32.159534
42876	8.930086	-3.657070	1.435157	0.002301	-0.004650	0.010888	-68.246411	-66.314338	32.172084
42877	8.915764	-3.629815	1.463329	-0.000155	-0.000549	0.007295	-68.251187	-66.311043	32.177241
42878	8.960482	-3.649511	1.462170	0.000260	-0.003933	0.007117	-68.259789	-66.308491	32.186843
42879	8.915339	-3.631017	1.462940	-0.000116	-0.000412	0.005471	-68.263491	-66.306137	32.190852
42880	8.927182	-3.666712	1.482660	-0.002586	-0.001804	0.001540	-68.268443	-66.306101	32.194687
42881	8.951706	-3.669009	1.433836	0.002118	-0.000442	0.000123	-68.268315	-66.306599	32.195911
42882	8.906771	-3.649944	1.434758	-0.001274	-0.000833	-0.000142	-68.270525	-66.307252	32.197573
42883	8.924715	-3.609305	1.466217	0.002494	-0.003964	0.001769	-68.275249	-66.307620	32.204332
42884	8.917266	-3.624320	1.414018	-0.001313	-0.000971	0.001682	-68.278529	-66.307332	32.207138
42885	8.970586	-3.625108	1.440794	-0.001351	-0.001108	0.003506	-68.282832	-66.306170	32.211031
42886	8.906515	-3.650813	1.434133	-0.000116	-0.000412	0.005470	-68.286579	-66.303746	32.215095
42887	8.937259	-3.642305	1.461450	0.000728	-0.001687	0.005452	-68.291333	-66.301671	32.220782
42888	8.939197	-3.635397	1.412978	-0.001781	-0.003217	0.003346	-68.298407	-66.300973	32.227438
42889	8.936919	-3.643272	1.461122	0.002354	0.000980	0.009400	-68.300899	-66.296230	32.231672
42890	8.947225	-3.617914	1.440930	0.003353	0.000253	0.002088	-68.300216	-66.295466	32.233069
42891	8.915053	-3.631037	1.437728	-0.001038	0.000589	0.009135	-68.304995	-66.290947	32.237679
42892	8.951213	-3.669446	1.408768	0.001494	-0.003238	0.009080	-68.312979	-66.287199	32.247379
42893	8.936906	-3.642189	1.436983	-0.000194	-0.000686	0.009116	-68.318809	-66.282960	32.253665
42894	8.959015	-3.652549	1.436653	0.002784	0.003088	0.009558	-68.318614	-66.277618	32.255240
42895	8.935100	-3.647545	1.461583	0.003589	0.001676	0.011363	-68.320495	-66.271683	32.259580
42896	8.912127	-3.639069	1.462506	0.000175	0.006642	0.013258	-68.319272	-66.263619	32.258398
42897	8.917264	-3.686555	1.406348	0.001102	-0.005209	0.007096	-68.328856	-66.261412	32.269597
42898	8.957440	-3.656061	1.437536	0.001980	0.004501	0.007752	-68.326539	-66.256733	32.268350
42899	8.901671	-3.663370	1.459194	-0.002648	0.003416	0.005523	-68.327073	-66.253537	32.267316
42900	8.934426	-3.647689	1.438455	0.001962	-0.000992	0.007415	-68.331253	-66.250200	32.273155
42901	8.923599	-3.674164	1.458856	-0.001843	0.002003	0.007327	-68.333902	-66.246343	32.274936
42902	8.911403	-3.639461	1.439053	-0.000999	0.000728	0.007309	-68.337645	-66.242698	32.278444
42903	8.934583	-3.646116	1.414538	0.000236	0.001423	0.009273	-68.340739	-66.237926	32.282012
42904	8.920237	-3.618871	1.443077	-0.000608	0.002699	0.009291	-68.342822	-66.232809	32.283953
42905	8.910218	-3.642118	1.439672	0.000981	0.005229	0.015059	-68.343665	-66.224152	32.285527
42906	8.908518	-3.647341	1.463886	-0.003823	-0.001896	0.019782	-68.358173	-66.214419	32.299032
42907	8.921869	-3.677001	1.435337	-0.003274	0.000624	0.014474	-68.366729	-66.207046	32.306372
42908	8.929804	-3.659900	1.463067	-0.001627	-0.002066	0.016259	-68.378479	-66.199223	32.318240
42909	8.952779	-3.667145	1.438342	-0.001117	0.000317	0.012773	-68.385346	-66.192820	32.325085
42910	8.927741	-3.666037	1.487186	-0.001528	0.003701	0.012950	-68.388484	-66.185541	32.327603
42911	8.907853	-3.646821	1.415493	0.000079	0.000874	0.016558	-68.395794	-66.177003	32.335682
42912	8.938115	-3.639465	1.443196	0.003021	0.004509	0.018821	-68.398150	-66.166427	32.340195
42913	8.928781	-3.659771	1.415912	0.003375	0.006343	0.022623	-68.399864	-66.153504	32.344224
42914	8.903290	-3.659462	1.465435	0.000847	0.010174	0.022674	-68.398474	-66.139680	32.343279
42915	8.948178	-3.677110	1.441527	0.003791	0.013808	0.024936	-68.392064	-66.123951	32.338684
42916	8.914098	-3.695367	1.463377	0.003373	0.006343	0.022617	-68.393811	-66.110965	32.342754
42917	8.936730	-3.703149	1.439477	0.001335	0.007063	0.018849	-68.394025	-66.099901	32.343864
42918	8.922037	-3.676629	1.468498	-0.000742	0.007647	0.016902	-68.393840	-66.089685	32.343241
42919	8.909563	-3.642643	1.449195	0.000981	0.005229	0.015045	-68.394650	-66.081033	32.344782
42920	8.908920	-3.643983	1.449780	-0.000702	0.007784	0.015079	-68.393411	-66.071759	32.343031
42921	8.921014	-3.677401	1.446021	0.002504	0.002127	0.022292	-68.400513	-66.059901	32.352411
42922	8.919095	-3.682948	1.470532	-0.002098	0.006544	0.020398	-68.404086	-66.048055	32.355049
42923	8.941632	-3.691022	1.446582	0.002450	0.007347	0.026265	-68.406833	-66.032980	32.359631
42924	8.918184	-3.683603	1.447692	0.002055	0.005376	0.024284	-68.411260	-66.019310	32.365810
42925	8.906475	-3.711531	1.468877	0.001243	0.012147	0.024633	-68.408171	-66.004092	32.363248
42926	8.906541	-3.709884	1.445880	0.004281	0.010695	0.021098	-68.403445	-65.990998	32.360804
42927	8.905729	-3.711446	1.446869	0.004809	0.007720	0.015460	-68.399273	-65.981599	32.359293
42928	8.914628	-3.690796	1.451271	0.001739	0.003680	0.018658	-68.403239	-65.971284	32.364770
42929	8.911833	-3.699170	1.500496	0.003362	0.016452	0.006726	-68.385335	-65.964696	32.347317
42930	8.913451	-3.692879	1.453197	0.005576	0.000812	0.016928	-68.389710	-65.955909	32.355651
42931	8.925728	-3.725729	1.449441	0.000303	0.007055	0.007770	-68.385283	-65.950746	32.351033
42932	8.912508	-3.694694	1.454369	0.003655	0.007299	0.009856	-68.379669	-65.944356	32.347223
42933	8.909840	-3.702802	1.503369	0.001538	0.007748	0.009730	-68.374640	-65.938003	32.342721
42934	8.903128	-3.714607	1.428074	0.002938	0.008987	0.004412	-68.364854	-65.934155	32.333892
42935	8.887857	-3.690425	1.481383	0.003778	0.007709	0.004396	-68.356072	-65.930650	32.326684
42936	8.923916	-3.728535	1.453379	0.000427	0.007465	0.002309	-68.348550	-65.928244	32.318758
42937	8.888473	-3.687338	1.458853	0.002098	0.010265	0.004427	-68.337702	-65.924180	32.308234
42938	8.899739	-3.723380	1.479675	0.000697	0.009027	0.009744	-68.331687	-65.917483	32.302128
42939	8.856785	-3.697275	1.433150	0.000863	0.009572	0.002466	-68.321451	-65.914608	32.291498
42940	8.900266	-3.720468	1.457277	0.003820	0.007845	0.002575	-68.311667	-65.911978	32.283223
42941	8.909694	-3.698540	1.461814	0.000427	0.007465	0.002308	-68.304122	-65.909632	32.275266
42942	8.908411	-3.702351	1.486488	0.002947	0.003630	0.002260	-68.299711	-65.908061	32.272329
42943	8.921028	-3.734323	1.482807	0.001267	0.006187	0.002291	-68.293201	-65.905994	32.266032
42944	8.886783	-3.689386	1.463962	0.002544	0.007016	0.002433	-68.285073	-65.903613	32.258770
42945	8.900662	-3.717416	1.436114	-0.001554	0.002965	-0.005427	-68.280356	-65.906336	32.252668
42946	8.898572	-3.724289	1.484403	-0.001192	-0.000557	-0.003781	-68.280437	-65.908868	32.252053
42947	8.899810	-3.720410	1.460205	0.000882	-0.001142	-0.001835	-68.280918	-65.910550	32.253174
42948	8.877544	-3.710393	1.460607	0.000126	0.000408	-0.005459	-68.278297	-65.913770	32.250428
42949	8.909850	-3.697315	1.463963	-0.001066	-0.000148	-0.009240	-68.275199	-65.919181	32.246405
42950	8.911291	-3.692950	1.439746	-0.000268	-0.001563	-0.007436	-68.274212	-65.923872	32.245201
42951	8.891245	-3.740083	1.456205	-0.001066	-0.000148	-0.009240	-68.271112	-65.929283	32.241173
42952	8.933237	-3.704715	1.463352	0.000210	0.000681	-0.009099	-68.266387	-65.934383	32.236174
42953	8.900485	-3.719876	1.483998	0.001497	-0.003847	-0.011107	-68.265337	-65.941572	32.236005
42954	8.911757	-3.692900	1.463498	-0.003015	0.000845	-0.016647	-68.258671	-65.950654	32.226858
42955	8.888802	-3.685560	1.487817	0.000263	-0.004540	-0.013070	-68.258219	-65.959035	32.226567
42956	8.912857	-3.690521	1.462801	-0.003172	-0.005057	-0.011518	-68.261119	-65.966640	32.227797
42957	8.913366	-3.689534	1.462192	-0.002331	-0.006335	-0.011535	-68.265029	-65.974584	32.230656
42958	8.913800	-3.688707	1.461629	-0.001979	-0.004500	-0.007737	-68.268382	-65.980058	32.233131
42959	8.923632	-3.666166	1.465075	-0.000393	-0.001971	-0.001978	-68.270523	-65.981989	32.235267
42960	8.891626	-3.678637	1.461599	-0.002158	0.000312	0.001694	-68.272723	-65.981423	32.236367
42961	8.890467	-3.682452	1.485562	-0.002594	-0.001796	0.001537	-68.277588	-65.981447	32.240106
42962	8.891374	-3.679413	1.461179	-0.005759	-0.000752	0.010527	-68.287323	-65.976404	32.247196
42963	8.904954	-3.708554	1.432414	-0.002397	-0.005864	0.010463	-68.301175	-65.972537	32.260902
42964	8.912207	-3.694258	1.483868	-0.000072	-0.005630	0.001488	-68.309176	-65.973338	32.269662
42965	8.890917	-3.681105	1.459698	-0.003029	-0.003903	0.001379	-68.316732	-65.973891	32.276074
42966	8.913307	-3.691009	1.458822	-0.000954	-0.004488	0.003324	-68.324747	-65.973472	32.284296
42967	8.880074	-3.707491	1.479208	0.000281	-0.003795	0.005286	-68.332132	-65.971921	32.292596
42968	8.914247	-3.688075	1.433931	-0.003029	-0.003903	0.001379	-68.339713	-65.972413	32.299042
42969	8.911944	-3.695662	1.481950	0.004109	-0.001307	0.005711	-68.342133	-65.970108	32.304309
42970	8.904400	-3.710817	1.429992	-0.000882	0.001142	0.001836	-68.342676	-65.969290	32.304394
42971	8.891441	-3.679424	1.434187	0.002791	-0.002273	0.007389	-68.347800	-65.966295	32.311795
42972	8.911428	-3.696904	1.481956	0.004109	-0.001307	0.005710	-68.350243	-65.963932	32.317093
42973	8.890891	-3.680664	1.434414	0.004016	0.003778	0.011501	-68.349388	-65.957467	32.318716
42974	8.910633	-3.698501	1.482749	0.003217	0.005192	0.009697	-68.346472	-65.951607	32.317586
42975	8.901640	-3.717879	1.455492	0.004451	0.005885	0.011658	-68.342928	-65.944613	32.316537
42976	8.910688	-3.696818	1.460113	0.006122	0.008686	0.013776	-68.336115	-65.935842	32.312962
42977	8.877008	-3.713921	1.481479	0.004419	0.000392	0.011326	-68.338986	-65.930187	32.318919
42978	8.919452	-3.676462	1.464727	0.001588	0.002528	0.005757	-68.338317	-65.926988	32.319228
42979	8.909459	-3.699378	1.461127	0.003101	-0.000573	0.013003	-68.343883	-65.920643	32.327315
42980	8.931327	-3.710191	1.461135	0.005687	0.006579	0.013616	-68.339758	-65.912402	32.326410
42981	8.876340	-3.713974	1.458827	0.001899	0.004228	0.011372	-68.339519	-65.905912	32.327369
42982	8.907917	-3.702538	1.462524	0.001462	0.002120	0.011214	-68.341987	-65.899893	32.331035
42983	8.896737	-3.729241	1.482969	0.001865	-0.001266	0.011041	-68.348149	-65.894739	32.338995
42984	8.941288	-3.684900	1.418099	0.003571	0.007028	0.013488	-68.344640	-65.886472	32.337437
42985	8.872128	-3.725355	1.508517	0.003134	0.004921	0.013330	-68.343794	-65.878791	32.338521
42986	8.896312	-3.728773	1.460189	0.003183	-0.000301	0.009362	-68.347276	-65.874271	32.344379
42987	8.929126	-3.713618	1.439408	0.002703	-0.002544	0.011023	-68.354461	-65.869395	32.353985
42988	8.892478	-3.676517	1.468464	0.003698	0.007436	0.008028	-68.347819	-65.863949	32.349073
42989	8.936794	-3.696828	1.468289	0.006089	0.003192	0.013438	-68.347384	-65.856575	32.352467
42990	8.936087	-3.698213	1.469108	0.004320	0.010837	0.019253	-68.341644	-65.844433	32.348934
42991	8.902034	-3.715929	1.490803	0.005518	0.006036	0.020882	-68.341667	-65.832495	32.352460
42992	8.903371	-3.710574	1.443426	0.002959	0.009738	0.022745	-68.339661	-65.818725	32.352165
42993	8.900143	-3.719777	1.492496	0.003359	0.006352	0.022571	-68.341340	-65.805820	32.356158
42994	8.868305	-3.730413	1.465731	0.000447	0.008218	0.020640	-68.341583	-65.793492	32.356751
42995	8.930411	-3.711216	1.497139	0.001642	0.003417	0.022270	-68.347573	-65.781368	32.364387
42996	8.867745	-3.730475	1.442546	0.001728	0.003688	0.018633	-68.351498	-65.771066	32.369820
42997	8.928767	-3.714821	1.498001	0.002081	0.005524	0.022423	-68.354804	-65.758414	32.374796
42998	8.888382	-3.743976	1.443154	0.002919	0.004245	0.022407	-68.359149	-65.745985	32.381441
42999	8.896036	-3.727453	1.471527	0.002919	0.004245	0.022405	-68.363470	-65.733612	32.388080
43000	8.895050	-3.729495	1.472313	0.004195	0.010431	0.024688	-68.360838	-65.718661	32.387874
43001	8.894060	-3.731463	1.473309	0.003841	0.008594	0.020896	-68.358783	-65.706173	32.388055
43002	8.893031	-3.733582	1.474148	0.004506	0.006774	0.028148	-68.361906	-65.690152	32.394359
43003	8.859941	-3.748013	1.471406	-0.002108	0.006569	0.020342	-68.365387	-65.678387	32.396875
43004	8.868805	-3.727823	1.475568	0.002476	0.002139	0.022241	-68.372361	-65.666491	32.406131
43005	8.858202	-3.751847	1.472102	-0.000477	0.003874	0.022127	-68.378905	-65.654344	32.413033
43006	8.867136	-3.731570	1.476129	0.001284	0.001583	0.018463	-68.385440	-65.644577	32.421058
43007	8.922040	-3.727127	1.455177	-0.000831	0.002038	0.018335	-68.392571	-65.634836	32.428406
43008	8.879350	-3.763341	1.448376	0.002036	0.005391	0.024221	-68.396866	-65.621197	32.434447
43009	8.874341	-3.714955	1.481391	0.008958	0.011897	0.021447	-68.388241	-65.607717	32.430649
43010	8.884732	-3.752401	1.502617	0.001246	0.012168	0.024556	-68.385184	-65.592471	32.428121
43011	8.851666	-3.766709	1.499729	-0.003479	0.000119	0.021679	-68.397622	-65.581353	32.439634
43012	8.916288	-3.740457	1.482392	-0.002948	0.002495	0.018201	-68.405358	-65.571531	32.446320
43013	8.874888	-3.772806	1.451098	-0.005506	0.000845	0.017918	-68.416341	-65.562261	32.454988
43014	8.883981	-3.752397	1.454736	-0.000441	-0.001348	0.018157	-68.427112	-65.553272	32.466588
43015	8.883281	-3.754043	1.454765	-0.003784	0.003777	0.018212	-68.433801	-65.543228	32.471614
43016	8.882643	-3.755453	1.455018	0.000578	0.003269	0.013019	-68.436188	-65.536003	32.474645
43017	8.893496	-3.792041	1.475365	-0.003164	0.006423	0.011104	-68.436120	-65.529189	32.472571
43018	8.880484	-3.761006	1.480062	0.000318	0.007061	0.007741	-68.431773	-65.523978	32.468040
43019	8.912242	-3.749399	1.484130	0.002477	0.006739	0.006053	-68.425773	-65.519788	32.463030
43020	8.868369	-3.726700	1.461567	-0.000074	0.010449	0.007910	-68.417769	-65.513773	32.454234
43021	8.879171	-3.763153	1.482482	-0.001043	0.011326	0.013368	-68.411821	-65.504720	32.447032
43022	8.864771	-3.736055	1.511670	-0.000208	0.010044	0.013354	-68.406894	-65.495889	32.441532
43023	8.877886	-3.765527	1.484148	0.000184	0.006657	0.013184	-68.405618	-65.487918	32.440283
43024	8.853721	-3.760610	1.509031	-0.003744	0.003914	0.016389	-68.411286	-65.478762	32.444200
43025	8.876627	-3.768292	1.484661	-0.004143	0.001943	0.014418	-68.418562	-65.471126	32.449653
43026	8.867578	-3.787749	1.456846	-0.004799	0.003764	0.007172	-68.420747	-65.466912	32.449078
43027	8.877072	-3.766404	1.460701	-0.003129	0.001200	0.007145	-68.424946	-65.463307	32.451762
43028	8.874344	-3.774307	1.509125	-0.002240	0.005412	0.007455	-68.423871	-65.458596	32.449214
43029	8.854134	-3.757816	1.461475	-0.000970	0.000877	0.005458	-68.426423	-65.455956	32.451464
43030	8.875061	-3.771720	1.485317	-0.001760	0.002294	0.003656	-68.426959	-65.453926	32.450989
43031	8.841571	-3.787838	1.506043	-0.002204	0.000188	0.003501	-68.430122	-65.452475	32.453078
43032	8.861065	-3.744024	1.513680	0.000400	0.001971	0.001970	-68.429020	-65.451411	32.452163
43033	8.850024	-3.769833	1.533772	-0.003494	-0.005995	0.001221	-68.439083	-65.452476	32.461095
43034	8.851304	-3.766468	1.508602	-0.008267	-0.012813	0.002300	-68.460348	-65.454348	32.479311
43035	8.874902	-3.773129	1.482685	-0.006198	-0.013406	0.004241	-68.482012	-65.455360	32.499282
43036	8.897297	-3.783299	1.481145	-0.000990	-0.009841	0.001178	-68.495128	-65.457200	32.513121
43037	8.851672	-3.767055	1.504976	-0.005529	-0.010625	-0.004676	-68.509056	-65.462375	32.525035
43038	8.866906	-3.791391	1.451451	-0.003415	-0.011083	-0.004549	-68.522385	-65.467527	32.537581
43039	8.852347	-3.766362	1.502737	-0.003415	-0.011083	-0.004550	-68.535693	-65.472728	32.550016
43040	8.853851	-3.762531	1.477274	-0.001444	-0.017305	-0.001120	-68.556752	-65.477353	32.572299
43041	8.886284	-3.750292	1.479084	-0.001445	-0.017305	-0.001121	-68.577825	-65.482029	32.594577
43042	8.879115	-3.765019	1.425518	-0.002279	-0.016023	-0.001108	-68.597885	-65.486371	32.615234
43043	8.844801	-3.784520	1.469044	-0.001478	-0.012082	0.002833	-68.614661	-65.487836	32.632726
43044	8.874404	-3.718593	1.478926	-0.001934	-0.019546	0.000534	-68.639409	-65.492032	32.658753
43045	8.863610	-3.744496	1.497524	-0.003691	-0.017253	0.004192	-68.664141	-65.493845	32.683559
43046	8.877461	-3.773125	1.467296	-0.005817	-0.022153	0.001922	-68.694815	-65.497834	32.713651
43047	8.878793	-3.769928	1.441021	-0.006739	-0.021141	0.005565	-68.726509	-65.499715	32.744286
43048	8.910981	-3.758295	1.442725	-0.003635	-0.011759	0.004518	-68.744953	-65.500146	32.762310
43049	8.911041	-3.758658	1.441404	-0.003203	-0.015011	0.002530	-68.766037	-65.502363	32.783415
43050	8.878921	-3.771099	1.437164	0.000304	-0.003659	0.003456	-68.772249	-65.501677	32.790478
43051	8.910916	-3.759348	1.440381	-0.000963	0.000876	0.005459	-68.774769	-65.499028	32.792768
43052	8.886040	-3.757304	1.489114	-0.001841	0.002022	0.007289	-68.777295	-65.495115	32.794430
43053	8.886909	-3.754261	1.465195	0.001597	0.002523	0.005741	-68.776548	-65.491977	32.794624
43054	8.876738	-3.776939	1.461850	0.003236	0.005181	0.009668	-68.773547	-65.486138	32.793409
43055	8.900891	-3.780390	1.413942	0.004962	0.008110	0.009965	-68.766276	-65.479586	32.788658
43056	8.853429	-3.768685	1.464062	0.004573	0.011498	0.010137	-68.755331	-65.472186	32.779554
43057	8.875094	-3.779667	1.464779	0.000215	0.012010	0.015327	-68.748644	-65.461960	32.772305
43058	8.873257	-3.784456	1.489981	0.005364	0.010080	0.011934	-68.739733	-65.453893	32.765934
43059	8.874912	-3.778379	1.442793	0.001049	0.010728	0.015309	-68.734062	-65.443942	32.760315
43060	8.859440	-3.754866	1.496236	0.003250	0.010540	0.011807	-68.725778	-65.435847	32.753299
43061	8.897146	-3.786834	1.420254	0.002804	0.008434	0.011649	-68.720144	-65.428327	32.748929
43062	8.862076	-3.807111	1.466216	0.002906	0.014063	0.010163	-68.707205	-65.420376	32.736578
43063	8.858900	-3.754007	1.475349	0.004127	0.009392	0.009976	-68.698950	-65.413548	32.730214
43064	8.893230	-3.796568	1.471586	0.005392	0.004857	0.007976	-68.694344	-65.408680	32.728591
43065	8.869361	-3.790857	1.496885	-0.000013	0.010582	0.006094	-68.685290	-65.403676	32.718596
43066	8.868952	-3.791441	1.497835	0.007119	0.007785	0.008272	-68.676419	-65.398039	32.713371
43067	8.861054	-3.806889	1.446621	0.000330	0.007059	0.007736	-68.672036	-65.392894	32.708618
43068	8.880360	-3.763435	1.455089	0.007610	0.010025	0.006614	-68.659525	-65.387675	32.699697
43069	8.870124	-3.786004	1.452215	0.005391	0.004857	0.007974	-68.654915	-65.382854	32.698142
43070	8.878449	-3.768154	1.480733	0.003322	0.005452	0.006034	-68.649928	-65.378898	32.694795
43071	8.856949	-3.755199	1.457865	0.005452	0.010351	0.008299	-68.639043	-65.372759	32.686355
43072	8.878785	-3.765847	1.458458	0.005793	0.006828	0.009942	-68.632822	-65.366430	32.683209
43073	8.868379	-3.788673	1.455911	0.007582	0.015250	0.010562	-68.616048	-65.358058	32.669647
43074	8.844263	-3.783166	1.481999	0.008415	0.013967	0.010547	-68.600308	-65.349913	32.657680
43075	8.868352	-3.786783	1.434841	0.007923	0.011727	0.012204	-68.588228	-65.341404	32.649426
43076	8.875072	-3.773177	1.488172	0.007788	0.011324	0.017642	-68.579167	-65.330026	32.644410
43077	8.866832	-3.789368	1.437406	0.006552	0.010636	0.015686	-68.570731	-65.319892	32.639033
43078	8.850044	-3.769402	1.515172	0.009991	0.011131	0.014141	-68.559048	-65.310420	32.632521
43079	8.862932	-3.799009	1.488190	0.011566	0.008297	0.017738	-68.551403	-65.299674	32.631535
43080	8.906805	-3.820149	1.488553	0.009095	0.006921	0.013830	-68.544984	-65.291250	32.630250
43081	8.849116	-3.769501	1.494435	0.004438	0.011099	0.015553	-68.537172	-65.281085	32.624312
43082	8.860884	-3.802592	1.491234	0.004465	0.005873	0.011606	-68.533612	-65.274066	32.623255
43083	8.870206	-3.781539	1.495938	0.009589	0.009160	0.012168	-68.523560	-65.266112	32.618120
43084	8.858441	-3.808224	1.517327	0.006935	0.007249	0.015511	-68.518775	-65.256722	32.617271
43085	8.859033	-3.805833	1.493959	0.005251	0.004456	0.013403	-68.517232	-65.249091	32.619099
43086	8.872077	-3.835256	1.466538	0.006195	0.008800	0.011897	-68.509436	-65.241302	32.614468
43087	8.857877	-3.807833	1.495719	0.004914	0.007979	0.011755	-68.503267	-65.233809	32.610998
43088	8.889535	-3.796687	1.500012	0.005792	0.006829	0.009930	-68.497091	-65.227482	32.607896
43089	8.844492	-3.777537	1.501503	0.005792	0.006829	0.009929	-68.490907	-65.221210	32.604556
43090	8.877501	-3.762646	1.481506	0.006221	0.003573	0.007951	-68.487348	-65.216622	32.604607
43091	8.865965	-3.788935	1.502347	-0.000165	0.004828	0.009378	-68.486639	-65.211059	32.603780
43092	8.856893	-3.808096	1.475030	0.004557	0.006141	0.007975	-68.481083	-65.205919	32.600581
43093	8.865117	-3.790387	1.503687	0.005792	0.006829	0.009928	-68.474917	-65.199645	32.597499
43094	8.832459	-3.803204	1.500990	0.002397	0.006471	0.009658	-68.470986	-65.193538	32.594727
43095	8.854323	-3.813922	1.501236	0.001994	0.004499	0.007693	-68.468661	-65.188940	32.593643
43096	8.863861	-3.792659	1.505367	0.001498	0.002260	0.009352	-68.469962	-65.183881	32.596067
43097	8.852391	-3.818712	1.526250	0.001753	0.008287	0.002422	-68.461015	-65.181301	32.587271
43098	8.841137	-3.783413	1.506459	0.000288	-0.003656	0.003459	-68.467147	-65.180628	32.594254
43099	8.874371	-3.829325	1.526079	0.003254	-0.000042	0.005704	-68.468442	-65.178041	32.598177
43100	8.872993	-3.772259	1.509746	-0.000590	-0.002504	0.005283	-68.474578	-65.176153	32.604611
43101	8.875169	-3.826803	1.501993	-0.000118	0.004962	0.007563	-68.472902	-65.171533	32.602868
43102	8.852576	-3.817395	1.502712	0.000760	0.003811	0.005740	-68.471196	-65.168073	32.601513
43103	8.852362	-3.817801	1.502943	0.001188	0.000555	0.003764	-68.472103	-65.166404	32.603313
43104	8.853441	-3.814637	1.478850	-0.000141	-0.000399	0.005435	-68.475623	-65.163992	32.607148
43105	8.853219	-3.815030	1.479161	0.005483	0.005122	0.004338	-68.469063	-65.161055	32.603432
43106	8.882615	-3.810650	1.531297	-0.000569	0.002858	0.007410	-68.469976	-65.156906	32.604124
43107	8.840232	-3.784179	1.484161	0.004558	0.006140	0.007972	-68.464433	-65.151827	32.600598
43108	8.852170	-3.816820	1.480821	0.001614	0.007888	0.007854	-68.458509	-65.146383	32.595133
43109	8.861725	-3.795420	1.485311	0.002492	0.006737	0.006031	-68.452560	-65.142204	32.590018
43110	8.841485	-3.839968	1.478568	0.002896	0.008709	0.007994	-68.445026	-65.136512	32.583588
43111	8.860912	-3.796656	1.486999	0.005008	0.008245	0.008123	-68.436868	-65.130905	32.577542
43112	8.850511	-3.819300	1.484339	0.003797	0.012919	0.008297	-68.424123	-65.124164	32.565937
43113	8.848814	-3.823515	1.509299	0.002825	0.003215	0.007678	-68.422818	-65.119844	32.566591
43114	8.848524	-3.823934	1.509937	0.000925	0.009572	0.002429	-68.412905	-65.116934	32.556293
43115	8.860679	-3.795338	1.466154	0.004058	0.003902	0.009629	-68.410971	-65.111431	32.556776
43116	8.839072	-3.843582	1.483596	0.004628	0.011635	0.008283	-68.399234	-65.104966	32.546806
43117	8.847329	-3.825729	1.512390	0.003323	0.005453	0.006017	-68.394320	-65.101064	32.543506
43118	8.858218	-3.800693	1.492726	0.001661	0.008022	0.006039	-68.387416	-65.096556	32.536988
43119	8.845422	-3.830195	1.537839	0.002089	0.004765	0.004065	-68.383118	-65.093836	32.533703
43120	8.846441	-3.826977	1.514423	0.002991	0.008975	0.004368	-68.373603	-65.090017	32.525146
43121	8.823924	-3.817284	1.515374	0.002919	0.003480	0.004054	-68.370269	-65.087574	32.523185
43122	8.854636	-3.809121	1.543542	0.002588	0.007002	0.002405	-68.362358	-65.085216	32.516142
43123	8.879163	-3.812528	1.495628	0.004057	0.003903	0.009627	-68.360458	-65.079718	32.516640
43124	8.824302	-3.815114	1.493106	0.000831	0.009308	0.006047	-68.352572	-65.074932	32.508514
43125	8.844874	-3.829273	1.517771	0.003725	0.007425	0.007977	-68.346079	-65.069563	32.504003
43126	8.830867	-3.801473	1.546613	0.001161	0.005785	0.007696	-68.342793	-65.064643	32.501159
43127	8.844138	-3.830579	1.518761	0.001088	0.000291	0.007384	-68.345729	-65.061105	32.505145
43128	8.832848	-3.795594	1.498900	0.000758	0.003813	0.005734	-68.344042	-65.057648	32.503809
43129	8.844965	-3.827920	1.495155	0.002516	0.001507	0.002092	-68.342353	-65.056675	32.503364
43130	8.824949	-3.872021	1.487894	0.001685	0.002792	0.002102	-68.339653	-65.055367	32.501496
43131	8.853449	-3.809645	1.523637	0.001782	0.003057	-0.001519	-68.334964	-65.055981	32.497564
43132	8.821195	-3.821589	1.520409	0.000403	0.001973	0.001961	-68.333873	-65.054921	32.496660
43133	8.843370	-3.831705	1.520393	0.001734	0.002925	0.000291	-68.330202	-65.054600	32.493878
43134	8.831010	-3.799698	1.524756	0.001734	0.002925	0.000291	-68.326500	-65.054228	32.490935
43135	8.854523	-3.806180	1.500647	0.002564	0.001640	0.000281	-68.323822	-65.054185	32.489767
43136	8.843217	-3.831770	1.521117	-0.000049	-0.000132	0.001811	-68.325331	-65.053651	32.491446
43137	8.830865	-3.799932	1.525019	-0.002613	-0.001772	0.001530	-68.330038	-65.053656	32.495161
43138	8.844446	-3.828479	1.496794	0.001282	0.000820	0.000140	-68.328935	-65.053810	32.494800
43139	8.854368	-3.806660	1.500342	-0.002283	-0.005294	0.003180	-68.338279	-65.053692	32.503652
43140	8.854347	-3.806828	1.500045	-0.002112	0.000465	-0.000130	-68.339404	-65.054065	32.503602
43141	8.854354	-3.806842	1.499964	-0.001282	-0.000820	-0.000140	-68.341515	-65.054769	32.504899
43142	8.853043	-3.810393	1.524126	0.000452	0.002105	0.000151	-68.339421	-65.054645	32.502920
43143	8.842966	-3.832526	1.520671	0.002919	0.003480	0.004053	-68.336076	-65.052195	32.501161
43144	8.854073	-3.807170	1.500791	0.002186	0.005029	0.000442	-68.329774	-65.051298	32.495637
43145	8.821730	-3.819190	1.497877	0.003419	0.005717	0.002393	-68.322838	-65.049268	32.489857
43146	8.852465	-3.810949	1.526089	0.004250	0.004432	0.002383	-68.316922	-65.047464	32.486062
43147	8.842417	-3.832927	1.522852	0.000122	0.005627	-0.001500	-68.310255	-65.047527	32.478733
43148	8.832669	-3.793842	1.479009	0.002515	0.001507	0.002092	-68.308546	-65.046496	32.478484
43149	8.843538	-3.829553	1.499409	0.000855	0.004078	0.002111	-68.304841	-65.044953	32.475153
43150	8.840862	-3.836643	1.547955	0.000501	0.002237	-0.001660	-68.301745	-65.045765	32.472100
43151	8.831170	-3.797476	1.504015	0.001734	0.002925	0.000291	-68.298056	-65.045453	32.468710
43152	8.829875	-3.800929	1.528263	0.000879	-0.001153	-0.001820	-68.298548	-65.047069	32.469853
43153	8.857125	-3.857847	1.471841	0.001612	-0.002702	0.001791	-68.302044	-65.047135	32.474982
43154	8.863306	-3.785523	1.507982	0.001429	0.011810	0.000761	-68.288567	-65.044630	32.461066
43155	8.817078	-3.830144	1.573577	0.000781	-0.001417	0.001801	-68.291093	-65.044428	32.464314
43156	8.820954	-3.819628	1.501331	-0.003321	0.005141	0.000039	-68.287638	-65.043720	32.458450
43157	8.841788	-3.833382	1.525360	0.002014	-0.000730	0.003752	-68.289531	-65.042333	32.461657
43158	8.852972	-3.808025	1.505114	0.000452	0.002105	0.000150	-68.287439	-65.042209	32.459679
43159	8.842989	-3.829996	1.501510	0.001282	0.000820	0.000140	-68.286333	-65.042415	32.459098
43160	8.841570	-3.833692	1.525840	0.001636	0.002661	0.003912	-68.284639	-65.040171	32.458309
43161	8.829057	-3.801991	1.530345	0.005482	0.005119	0.004333	-68.278087	-65.037235	32.454085
43162	8.852476	-3.808654	1.506440	-0.000378	0.003390	0.000160	-68.275005	-65.036833	32.450492
43163	8.842464	-3.830624	1.502999	0.003846	0.002459	0.000421	-68.270697	-65.036531	32.448621
43164	8.841072	-3.834153	1.527567	0.002186	0.005029	0.000440	-68.264400	-65.035632	32.443101
43165	8.840998	-3.834155	1.527993	0.001734	0.002925	0.000290	-68.260677	-65.035312	32.439730
43166	8.818680	-3.824110	1.528632	0.003016	0.003744	0.000431	-68.255370	-65.034691	32.435827
43167	8.842285	-3.830442	1.504515	0.002211	-0.000202	-0.003490	-68.253266	-65.037049	32.434675
43168	8.850989	-3.811833	1.532433	0.000000	-0.000000	0.000000	-68.253770	-65.037452	32.435276
43169	8.842385	-3.830106	1.504785	0.003115	0.004008	-0.003191	-68.246523	-65.038741	32.430155
43170	8.839816	-3.836920	1.553230	0.000879	-0.001153	-0.001820	-68.247013	-65.040357	32.431295
43171	8.842599	-3.829597	1.504825	0.000477	-0.003127	-0.003780	-68.249122	-65.043488	32.433879
43172	8.827845	-3.804236	1.557034	0.001430	0.001215	-0.005292	-68.245003	-65.046449	32.430285
43173	8.875077	-3.816996	1.508430	0.001282	0.000820	0.000140	-68.243863	-65.046633	32.430371
43174	8.852780	-3.807037	1.508735	-0.000049	-0.000132	0.001811	-68.245373	-65.046100	32.432051
43175	8.830529	-3.797084	1.508757	-0.003016	-0.003744	-0.000431	-68.251711	-65.047571	32.437430
43176	8.851503	-3.810742	1.532173	-0.003065	-0.003876	0.001380	-68.259036	-65.048062	32.443616
43177	8.820501	-3.819567	1.504145	-0.004873	-0.001701	0.006831	-68.267428	-65.045236	32.450153
43178	8.876060	-3.814872	1.482710	-0.002884	-0.007794	0.008463	-68.282356	-65.042787	32.464841
43179	8.818732	-3.824575	1.527172	-0.005703	-0.000416	0.006840	-68.289681	-65.039659	32.470185
43180	8.854413	-3.863532	1.498720	-0.001709	0.002439	0.001830	-68.289210	-65.038571	32.468630
43181	8.842031	-3.831714	1.502771	-0.004274	0.000800	0.001549	-68.291981	-65.038033	32.468873
43182	8.864252	-3.841786	1.502617	-0.000329	0.003522	-0.001651	-68.287896	-65.038568	32.464203
43183	8.850689	-3.813009	1.531236	0.001504	0.006711	-0.004981	-68.277646	-65.040256	32.453761
43184	8.808619	-3.846450	1.524545	0.000222	0.005891	-0.005122	-68.268953	-65.042135	32.444358
43185	8.853611	-3.804849	1.484089	0.001151	0.004870	-0.008753	-68.259286	-65.046208	32.434874
43186	8.796668	-3.813210	1.529647	-0.001439	0.008462	-0.005104	-68.248609	-65.047530	32.422234
43187	8.830357	-3.797199	1.509479	0.001480	0.001348	-0.007102	-68.243496	-65.051452	32.418576
43188	8.850186	-3.813910	1.557178	-0.004700	-0.006537	-0.002533	-68.253017	-65.054590	32.426151
43189	8.797356	-3.811876	1.529015	-0.003722	-0.007426	-0.007974	-68.260501	-65.060839	32.432895
43190	8.842350	-3.831311	1.527305	-0.010584	-0.013630	-0.008828	-68.278646	-65.068832	32.446263
43191	8.820721	-3.820568	1.525717	-0.010608	-0.018993	-0.010951	-68.302094	-65.079170	32.464710
43192	8.820089	-3.823475	1.547519	-0.013721	-0.023002	-0.007763	-68.333288	-65.088575	32.490483
43193	8.858094	-3.857600	1.492232	-0.014430	-0.026682	-0.015312	-68.365618	-65.102839	32.515391
43194	8.856715	-3.802477	1.497097	-0.013600	-0.027966	-0.015326	-68.399053	-65.117307	32.543704
43195	8.846506	-3.826865	1.514328	-0.016164	-0.029606	-0.015611	-68.435773	-65.132308	32.574334
43196	8.880963	-3.810280	1.490665	-0.013197	-0.025993	-0.013371	-68.467667	-65.145305	32.601197
43197	8.859587	-3.799263	1.488237	-0.009803	-0.025637	-0.013104	-68.497407	-65.158147	32.627110
43198	8.840604	-3.842148	1.478177	-0.012248	-0.021650	-0.014883	-68.523125	-65.171027	32.647762
43199	8.872489	-3.832578	1.503103	-0.009375	-0.028893	-0.015086	-68.555427	-65.185550	32.678161
43200	8.862256	-3.796001	1.480653	-0.007216	-0.018634	-0.010702	-68.576727	-65.195561	32.697117
43201	8.862998	-3.795078	1.478572	-0.008902	-0.021426	-0.012809	-68.601301	-65.207314	32.719048
43202	8.895868	-3.782236	1.480166	-0.002136	-0.015485	-0.008331	-68.617158	-65.215395	32.735211
43203	8.854288	-3.815437	1.471693	-0.003302	-0.010678	-0.009965	-68.627359	-65.223374	32.744768
43204	8.863583	-3.796191	1.498084	-0.007216	-0.018634	-0.010708	-68.648713	-65.233377	32.763777
43205	8.887756	-3.801765	1.471798	-0.006766	-0.016529	-0.010556	-68.667488	-65.242898	32.780651
43206	8.854968	-3.816513	1.490809	-0.007598	-0.015244	-0.010544	-68.685241	-65.252102	32.795451
43207	8.889055	-3.799946	1.468645	-0.005775	-0.012051	-0.013874	-68.696672	-65.262451	32.804289
43208	8.844034	-3.782343	1.492069	-0.008292	-0.013559	-0.015969	-68.710440	-65.274198	32.814261
43209	8.889409	-3.800995	1.489816	-0.005347	-0.015306	-0.015856	-68.724529	-65.286309	32.825044
43210	8.867947	-3.789717	1.488618	-0.010406	-0.013096	-0.016099	-68.738934	-65.298027	32.834383
43211	8.892183	-3.795029	1.462411	-0.005101	-0.019096	-0.010592	-68.759824	-65.308074	32.855567
43212	8.869411	-3.787570	1.485357	-0.006563	-0.010632	-0.015679	-68.769378	-65.319054	32.861989
43213	8.839130	-3.794879	1.456516	-0.009215	-0.012543	-0.012338	-68.784224	-65.328704	32.872167
43214	8.863326	-3.800198	1.430425	-0.008788	-0.015797	-0.014320	-68.801691	-65.340028	32.885892
43215	8.927135	-3.778768	1.459903	-0.010476	-0.008004	-0.010344	-68.812843	-65.347643	32.892059
43216	8.841050	-3.791955	1.452474	-0.009106	-0.006914	-0.013829	-68.820391	-65.356863	32.894669
43217	8.861251	-3.747338	1.459108	-0.005978	-0.007362	-0.002687	-68.831720	-65.360261	32.903845
43218	8.872742	-3.782598	1.478116	-0.009284	-0.007452	-0.006580	-68.843276	-65.365718	32.910751
43219	8.909861	-3.755985	1.384238	-0.004337	-0.004705	0.001233	-68.852284	-65.366500	32.916610
43220	8.872890	-3.782652	1.477085	-0.003823	0.002894	0.001715	-68.852396	-65.365385	32.914370
43221	8.897303	-3.785834	1.428835	0.000337	0.007060	0.007732	-68.847954	-65.360222	32.910346
43222	8.872176	-3.783796	1.478446	0.000851	0.014659	0.008213	-68.834617	-65.353202	32.896254
43223	8.850594	-3.770927	1.455865	0.002066	0.009986	0.008027	-68.825850	-65.347273	32.888133
43224	8.863771	-3.799815	1.428681	-0.000341	0.014107	0.004445	-68.812151	-65.342378	32.872891
43225	8.847253	-3.779467	1.506376	0.002380	0.011687	0.013619	-68.803929	-65.333134	32.865641
43226	8.871359	-3.783084	1.459040	0.000064	0.016077	0.006411	-68.788608	-65.326778	32.848866
43227	8.870853	-3.783787	1.460291	0.003302	0.010673	0.009979	-68.779323	-65.319678	32.840846
43228	8.845571	-3.781964	1.509980	0.000311	0.012285	0.011676	-68.770659	-65.311294	32.831551
43229	8.847468	-3.775599	1.462738	0.002898	0.008703	0.008010	-68.763072	-65.305646	32.825902
43230	8.859355	-3.808403	1.459369	-0.000588	0.008075	0.011365	-68.759680	-65.298301	32.821843
43231	8.868713	-3.787419	1.463870	0.001525	0.007612	0.011492	-68.755615	-65.291035	32.817726
43232	8.868191	-3.788332	1.464670	0.002852	0.008568	0.009821	-68.748988	-65.284412	32.812275
43233	8.891098	-3.795627	1.441422	0.005437	0.015569	0.012238	-68.733845	-65.275083	32.799295
43234	8.833430	-3.806097	1.487883	0.003119	0.010135	0.017221	-68.728598	-65.264182	32.795530
43235	8.898341	-3.779725	1.471691	0.005369	0.010075	0.011913	-68.719707	-65.256171	32.789047
43236	8.832025	-3.808474	1.490140	0.002783	0.013659	0.015574	-68.709838	-65.245416	32.779980
43237	8.863462	-3.797803	1.494711	0.003995	0.008986	0.015393	-68.704698	-65.235774	32.777585
43238	8.861488	-3.802638	1.520026	0.004111	0.014614	0.013902	-68.692222	-65.225712	32.766484
43239	8.863197	-3.796768	1.473029	0.003117	0.010136	0.017214	-68.687032	-65.214872	32.762495
43240	8.862489	-3.798077	1.473917	0.003590	0.007016	0.013424	-68.683436	-65.206646	32.760845
43241	8.874120	-3.831382	1.470595	-0.000278	0.009781	0.016942	-68.680567	-65.196035	32.757380
43242	8.837614	-3.794215	1.499948	0.004468	0.005865	0.011599	-68.676977	-65.189023	32.756291
43243	8.859338	-3.805347	1.499963	0.000908	-0.000253	0.014629	-68.683835	-65.181708	32.764594
43244	8.872410	-3.834817	1.471960	-0.003106	0.006573	0.009258	-68.682713	-65.175798	32.761442
43245	8.870759	-3.839248	1.496273	-0.000234	-0.000671	0.009054	-68.688275	-65.171553	32.767837
43246	8.860567	-3.800970	1.452175	-0.001942	0.001765	0.010890	-68.692767	-65.165774	32.771605
43247	8.882363	-3.812060	1.451876	-0.001159	0.000346	0.012688	-68.699324	-65.159389	32.778040
43248	8.881819	-3.813224	1.452149	-0.001916	0.007125	0.013020	-68.698575	-65.151356	32.776049
43249	8.847830	-3.829920	1.472913	-0.002893	-0.002578	0.012391	-68.709338	-65.145738	32.785892
43250	8.857392	-3.809036	1.476276	-0.008354	-0.002332	0.010180	-68.721897	-65.141189	32.794503
43251	8.869387	-3.841955	1.471563	-0.004534	-0.005234	0.008473	-68.734773	-65.138212	32.804763
43252	8.799884	-3.819812	1.520173	-0.009542	-0.002883	0.006417	-68.746954	-65.135785	32.812207
43253	8.855518	-3.814936	1.498162	-0.011305	-0.011167	0.003988	-68.768757	-65.136400	32.831135
43254	8.855488	-3.815556	1.496757	-0.014294	-0.009550	0.005682	-68.791011	-65.135747	32.846681
43255	8.944564	-3.734599	1.413475	-0.004059	-0.012821	0.018997	-68.817237	-65.128701	32.873937
43256	8.944574	-3.794600	1.429776	-0.008989	0.021419	0.033356	-68.813122	-65.106846	32.863768
43257	8.840261	-3.790435	1.500858	0.003392	0.007229	0.038910	-68.820765	-65.084991	32.875566
43258	8.894078	-3.789065	1.480909	0.001434	0.014218	0.053728	-68.828038	-65.053743	32.884537
43259	8.917196	-3.915676	1.489852	-0.001729	0.010075	0.058707	-68.844063	-65.020786	32.898951
43260	8.939606	-3.862859	1.402873	0.014891	0.025801	0.066288	-68.835880	-64.980430	32.899381
43261	8.878249	-3.881218	1.475281	0.010326	0.035491	0.068306	-68.820173	-64.937045	32.888563
43262	8.887779	-3.857968	1.434067	0.014837	0.025669	0.068062	-68.812990	-64.895769	32.890063
43263	8.905510	-3.877731	1.461285	0.013254	0.038966	0.072319	-68.793483	-64.849549	32.875323
43264	8.871749	-3.777026	1.553465	0.012921	0.032806	0.081016	-68.785037	-64.799875	32.874215
43265	8.890075	-3.795420	1.555231	-0.005524	0.010500	0.105625	-68.823232	-64.741756	32.911402
43266	9.073504	-3.858596	1.361634	0.009490	0.024447	0.125665	-68.845671	-64.669955	32.942280
43267	9.130088	-3.794342	1.380734	0.005760	0.059910	0.163643	-68.846760	-64.570632	32.944946
43268	9.118348	-3.532113	1.503837	0.039018	0.085069	0.256366	-68.840745	-64.416454	32.963096
43269	9.226490	-3.645079	1.357940	-0.002754	0.073594	0.377440	-68.923163	-64.200012	33.052641
43270	9.368304	-3.803509	1.311530	0.043768	0.152877	0.462636	-68.926504	-63.921574	33.084288
43271	9.186562	-3.736777	1.583116	0.033234	0.191544	0.564333	-68.935945	-63.580918	33.113918
43272	9.666377	-4.204351	1.750523	0.039758	0.238307	0.683370	-68.940157	-63.166865	33.144157
43273	9.754738	-4.023643	1.725281	0.085227	0.300256	0.805349	-68.902635	-62.674988	33.155682
43274	11.077300	-4.228617	2.255887	0.008087	0.221598	1.002985	-69.065850	-62.093412	33.345155
43275	11.110751	-4.509990	1.050593	0.022331	0.167350	1.277149	-69.369894	-61.375805	33.704048
43276	9.694226	-4.387359	1.255678	0.016282	0.336549	1.455652	-69.562590	-60.527527	33.935182
43277	9.116683	-4.541522	1.041167	0.184418	0.161507	1.529579	-69.835245	-59.673996	34.371493
43278	9.882665	-2.341727	1.725608	0.372061	0.054957	1.503539	-70.069387	-58.854323	34.891950
43279	9.993133	-1.857439	1.791657	0.386830	-0.296780	1.406433	-70.552598	-58.153426	35.718588
43280	14.591910	-4.215156	1.124989	0.630507	-0.760912	0.894963	-71.119559	-57.812561	36.813360
43281	16.270274	-0.628119	1.868040	0.871303	-0.522873	0.225985	-71.137422	-57.787555	37.424443
43282	13.985819	-0.928854	1.588807	0.841766	-0.108175	-0.149401	-70.704173	-57.889103	37.482429
43283	10.976793	-0.139012	1.317301	0.969704	0.121185	-0.337782	-69.940265	-58.048721	37.236714
43284	8.335152	-0.310133	0.619811	0.953885	0.196007	-0.308362	-69.125699	-58.175375	36.921094
43285	7.747551	-0.177799	0.369907	0.965289	-0.046804	-0.275011	-68.521356	-58.332861	36.860794
43286	8.478248	0.094104	0.115786	0.893613	-0.204627	-0.259816	-68.097458	-58.514919	36.964256
43287	9.213572	0.199822	0.030837	0.800605	-0.284574	-0.299952	-67.781000	-58.736397	37.130855
43288	9.593685	0.292395	-0.037152	0.676254	-0.222904	-0.337845	-67.467382	-58.964418	37.217191
43289	9.367870	0.323913	-0.145197	0.538207	-0.132518	-0.365005	-67.141547	-59.187723	37.196797
43290	9.068141	0.228048	-0.254732	0.382958	-0.048834	-0.364291	-66.828474	-59.391181	37.087913
43291	8.862489	0.047274	-0.354552	0.241676	-0.017241	-0.367886	-66.564189	-59.589855	36.941831
43292	8.674455	-0.148425	-0.379860	0.092978	-0.062451	-0.401609	-66.410328	-59.815541	36.825378
43293	8.732612	-0.400535	-0.349188	-0.044696	-0.182811	-0.459602	-66.420053	-60.100060	36.806967
43294	9.177410	-0.701584	-0.211181	-0.159121	-0.325321	-0.550636	-66.590736	-60.464116	36.898568
43295	9.586301	-0.950524	0.081580	-0.257887	-0.428775	-0.671916	-66.869946	-60.916192	37.049237
43296	9.929451	-1.167411	0.308364	-0.329372	-0.496677	-0.803716	-67.208838	-61.451625	37.220681
43297	9.954479	-1.410722	0.457749	-0.386986	-0.526135	-0.925242	-67.569591	-62.058336	37.378401
43298	9.847337	-1.650986	0.570035	-0.424365	-0.561345	-1.025870	-67.957106	-62.724523	37.541363
43299	9.704921	-1.865161	0.701947	-0.448992	-0.583572	-1.109094	-68.360471	-63.440262	37.705115
43300	9.583435	-2.108585	0.805039	-0.456575	-0.597522	-1.163785	-68.775132	-64.186453	37.875722
43301	9.570311	-2.314493	0.861517	-0.452248	-0.611586	-1.198947	-69.204776	-64.954904	38.064416
43302	9.563906	-2.464102	0.918875	-0.434910	-0.626433	-1.230635	-69.646773	-65.741564	38.276597
43303	9.618614	-2.613794	1.023868	-0.409748	-0.625405	-1.256571	-70.082466	-66.542446	38.496160
43304	9.670942	-2.779924	1.077279	-0.380004	-0.618150	-1.266012	-70.509582	-67.345155	38.723762
43305	9.634363	-2.990918	1.200255	-0.346084	-0.612608	-1.251653	-70.939687	-68.139555	38.974096
43306	9.658474	-3.188208	1.177007	-0.322733	-0.610380	-1.235722	-71.385597	-68.922961	39.254586
43307	9.921708	-3.408011	1.244304	-0.296350	-0.609833	-1.217803	-71.851564	-69.696887	39.571028
43308	10.361305	-3.659234	1.300394	-0.278707	-0.592318	-1.245419	-72.297108	-70.480663	39.875093
43309	10.733328	-3.893983	1.358739	-0.252652	-0.511475	-1.297312	-72.602227	-71.279321	40.044668
43310	10.550096	-4.015020	1.382155	-0.224286	-0.408321	-1.340458	-72.714618	-72.082554	40.027734
43311	9.985707	-4.095872	1.241412	-0.211661	-0.347795	-1.350966	-72.710967	-72.882418	39.896599
43312	9.576615	-4.226775	1.219212	-0.225673	-0.342935	-1.320144	-72.717602	-73.663410	39.768555
43313	9.516075	-4.432508	1.245646	-0.241866	-0.373935	-1.289643	-72.807110	-74.434158	39.717388
43314	9.654789	-4.707528	1.349086	-0.245897	-0.379892	-1.274125	-72.922924	-75.196287	39.691447
43315	9.685848	-5.019883	1.404647	-0.240483	-0.367621	-1.280024	-73.009654	-75.960704	39.638607
43316	9.451921	-5.199023	1.393948	-0.228866	-0.388522	-1.315733	-73.114430	-76.747098	39.611527
43317	9.096321	-5.296002	1.374886	-0.226343	-0.464925	-1.372522	-73.369853	-77.578329	39.740373
43318	8.720294	-5.288614	1.316922	-0.236066	-0.545274	-1.407767	-73.845893	-78.440686	40.088786
43319	8.570435	-5.380973	1.398999	-0.261190	-0.591211	-1.401799	-74.542219	-79.307108	40.645815
43320	8.485983	-5.601446	1.558860	-0.274596	-0.580816	-1.376837	-75.343834	-80.155732	41.300605
43321	8.468840	-5.823033	1.790096	-0.276612	-0.511837	-1.331578	-76.081581	-80.968700	41.887708
43322	8.302452	-6.041337	1.971239	-0.264419	-0.434031	-1.294228	-76.676306	-81.748319	42.336050
43323	7.902244	-6.173811	2.125355	-0.238616	-0.358484	-1.256126	-77.080707	-82.496998	42.606205
43324	7.352327	-6.238326	2.194478	-0.205492	-0.272431	-1.179518	-77.215723	-83.190963	42.623657
43325	6.773363	-6.411615	2.192651	-0.162864	-0.201406	-1.036159	-77.143870	-83.796457	42.457367
43326	6.263850	-6.629514	2.063888	-0.115242	-0.128399	-0.851707	-76.847454	-84.288854	42.092997
43327	5.814189	-6.812792	2.039919	-0.064881	-0.071886	-0.642439	-76.423083	-84.657383	41.629266
43328	5.546982	-6.984517	1.974866	-0.021587	-0.050964	-0.425174	-76.116417	-84.901327	41.308944
43329	8.162609	-8.709777	3.399887	-0.069925	-0.033476	-0.103445	-76.210453	-84.964206	41.363117
43330	7.207856	-11.484666	1.256837	0.330807	1.108983	1.404552	-71.974827	-84.015907	37.298448
43331	-0.238265	-9.774282	5.254656	0.350977	1.782174	1.348812	-65.875782	-82.926730	31.362370
43332	5.936157	-0.080254	1.813204	1.665041	-0.209336	1.027444	-67.591863	-82.433580	34.054405
43333	17.161874	2.376085	-2.518191	0.344737	0.842214	1.514619	-66.639509	-81.446862	33.292103
43334	6.897750	-1.567440	-0.746895	0.033200	1.553161	1.908520	-64.425486	-80.083150	31.068485
43335	7.731062	-1.223032	0.314089	0.205125	0.330039	1.616669	-65.513856	-79.164332	32.294425
43336	10.002864	-1.502277	-0.847078	-0.246013	0.586961	1.704168	-66.120287	-78.136245	32.769203
43337	9.917816	-2.731276	0.817055	-0.299568	0.511190	1.649902	-66.791237	-77.153148	33.280361
43338	10.202571	-2.721495	1.064606	-0.259307	0.634609	1.622227	-67.066065	-76.155946	33.410153
43339	11.894004	-4.046904	2.544413	-0.258455	0.651072	1.755493	-67.392056	-75.084653	33.593836
43340	10.566040	-3.365412	1.218582	-0.026159	0.833994	1.672259	-67.152573	-74.016710	33.329877
43341	9.832330	-2.734285	1.447215	-0.191553	0.592533	1.585938	-67.391556	-73.047923	33.464663
43342	11.134953	-4.409510	1.755166	-0.357176	0.442400	1.414999	-67.834749	-72.202160	33.714646
43343	10.665838	-4.720813	2.053454	-0.137340	0.522843	1.327809	-67.941109	-71.385053	33.743808
43344	9.530407	-3.438234	2.034225	-0.059703	0.502637	1.283105	-68.001476	-70.595949	33.771518
43345	11.960303	-4.702380	2.941379	-0.163467	0.291457	1.188644	-68.368919	-69.902071	34.062446
43346	13.204305	-5.988573	0.711671	-0.018101	0.506992	1.029922	-68.240923	-69.246792	33.914841
43347	10.224834	-5.042470	1.372578	0.075277	0.707998	0.600317	-67.556101	-68.775909	33.227596
43348	8.932878	-3.309791	2.048839	0.051682	0.519870	0.427097	-67.066553	-68.435653	32.733667
43349	9.310232	-3.972124	1.630105	-0.061205	0.406025	0.389634	-66.784499	-68.139513	32.392372
43350	8.284505	-3.859570	2.387378	0.030393	0.296476	0.281066	-66.539141	-67.924769	32.146625
43351	8.627897	-3.236417	2.070786	-0.004333	-0.034647	0.226973	-66.713884	-67.813676	32.332629
43352	9.358273	-3.476187	1.105232	-0.036710	-0.008410	0.224413	-66.870188	-67.697813	32.478821
43353	8.940986	-3.551158	1.554595	-0.034858	0.074634	0.211928	-66.910981	-67.569751	32.501379
43354	9.022740	-3.669216	1.449008	-0.015345	-0.001550	0.155656	-67.006692	-67.488441	32.595483
43355	9.231337	-3.540201	1.327080	-0.010325	0.034616	0.126376	-67.037290	-67.414434	32.622253
43356	8.972155	-3.597901	1.464278	-0.012631	0.061650	0.107285	-67.024593	-67.344466	32.600701
43357	8.933827	-3.501215	1.578295	-0.003661	0.028330	0.084020	-67.036465	-67.294206	32.611340
43358	8.938349	-3.423362	1.516639	-0.009955	0.007625	0.082595	-67.077150	-67.249335	32.649309
43359	8.949553	-3.459925	1.488576	-0.020221	-0.005065	0.088694	-67.142765	-67.204044	32.707951
43360	9.010806	-3.566283	1.427988	-0.021383	-0.011063	0.082783	-67.213179	-67.163196	32.771095
43361	9.041750	-3.554416	1.381007	-0.012273	-0.004376	0.070761	-67.263490	-67.127176	32.818106
43362	9.012676	-3.497491	1.388351	0.000011	0.018530	0.070773	-67.277941	-67.086084	32.833842
43363	9.044868	-3.547799	1.410518	-0.001622	0.021300	0.067122	-67.287946	-67.046292	32.843742
43364	9.028919	-3.521982	1.416809	0.011563	0.037544	0.065017	-67.269002	-67.004034	32.830405
43365	8.989297	-3.489888	1.449107	0.015661	0.047224	0.073065	-67.239977	-66.955361	32.808663
43366	8.915743	-3.477256	1.527056	0.016795	0.036623	0.079930	-67.227074	-66.905424	32.805142
43367	9.027664	-3.522532	1.456538	0.024314	0.030332	0.085549	-67.220634	-66.853899	32.813331
43368	9.025880	-3.524021	1.412585	0.016703	0.052784	0.086159	-67.191146	-66.797083	32.791709
43369	8.872970	-3.577683	1.627733	0.007484	0.050638	0.079966	-67.166529	-66.743997	32.769631
43370	8.849308	-3.568589	1.582345	0.014401	0.002646	0.067034	-67.190196	-66.708420	32.804420
43371	9.002000	-3.517956	1.472080	0.008364	-0.016142	0.069419	-67.241516	-66.675727	32.865563
43372	8.922621	-3.518162	1.469380	-0.006099	0.005186	0.075062	-67.277713	-66.635325	32.901225
43373	8.917995	-3.531197	1.517339	0.005107	-0.015324	0.083893	-67.336970	-66.594762	32.969017
43374	8.960992	-3.555211	1.491139	-0.006086	-0.015795	0.092338	-67.407242	-66.549822	33.041847
43375	8.965756	-3.668471	1.452480	-0.004241	-0.012401	0.085256	-67.468513	-66.507835	33.106039
43376	8.922385	-3.586201	1.509815	0.001816	-0.015386	0.078124	-67.526104	-66.470265	33.170023
43377	8.911216	-3.612509	1.480804	-0.002909	-0.022219	0.079322	-67.595143	-66.433512	33.243560
43378	8.944072	-3.660778	1.475109	0.000622	-0.021381	0.072230	-67.657354	-66.400316	33.311874
43379	8.988733	-3.680021	1.423982	-0.002117	-0.024378	0.059093	-67.718099	-66.374689	33.376890
43380	8.948505	-3.589492	1.432475	0.012386	-0.018378	0.056572	-67.761852	-66.349090	33.432441
43381	8.928502	-3.515077	1.490382	0.010483	-0.000332	0.073782	-67.793292	-66.310421	33.473371
43382	8.967096	-3.671976	1.473568	0.008455	-0.009655	0.087824	-67.843896	-66.266323	33.533976
43383	8.973433	-3.594231	1.410751	0.027264	0.001045	0.083940	-67.868770	-66.221945	33.578265
43384	8.942325	-3.727956	1.445450	0.009726	0.028107	0.080522	-67.869310	-66.173550	33.584990
43385	8.851624	-3.633941	1.579805	0.020396	0.015429	0.071387	-67.874522	-66.132725	33.603510
43386	8.946372	-3.718009	1.451995	0.012346	-0.007600	0.060662	-67.906632	-66.102572	33.646407
43387	8.962813	-3.681525	1.482447	0.011694	-0.000384	0.053648	-67.927022	-66.074565	33.676084
43388	8.964881	-3.736787	1.452388	0.013662	0.003323	0.041146	-67.935699	-66.052410	33.694187
43389	8.974085	-3.714858	1.432375	0.015129	0.010088	0.034242	-67.932131	-66.032449	33.699812
43390	9.009720	-3.753139	1.382011	0.018342	0.014512	0.023680	-67.916288	-66.017160	33.694018
43391	8.901791	-3.635166	1.444575	0.019596	0.041262	0.015879	-67.864111	-66.000226	33.649241
43392	9.232246	-3.731773	1.475848	0.037537	0.042311	0.009678	-67.797417	-65.986352	33.599819
43393	8.419028	-3.344463	1.839177	0.003367	0.059214	0.030335	-67.740364	-65.957823	33.539510
43394	9.184418	-3.947459	1.013193	0.054332	-0.039495	0.041563	-67.776890	-65.944755	33.613641
43395	8.764592	-3.645310	1.699123	-0.037143	0.081967	0.032600	-67.717282	-65.910079	33.525091
43396	8.937286	-3.671263	1.509772	0.055245	-0.019935	0.026104	-67.722463	-65.900978	33.565484
43397	8.942641	-3.778616	1.475145	-0.005090	0.050256	0.025721	-67.678912	-65.876813	33.514620
43398	8.902737	-3.687284	1.512200	0.031905	0.005346	0.018572	-67.663850	-65.866215	33.518190
43399	8.879502	-3.678538	1.515010	0.008592	0.036025	0.013098	-67.623269	-65.851819	33.479158
43400	8.876559	-3.685101	1.566570	0.029214	0.018503	0.011708	-67.590887	-65.841988	33.462058
43401	8.863293	-3.653920	1.572034	0.011733	0.014305	0.014119	-67.574714	-65.831779	33.451744
43402	8.966937	-3.658043	1.454457	0.019166	0.002565	0.017683	-67.569833	-65.822263	33.458475
43403	8.842017	-3.700966	1.568896	0.012037	0.021377	0.023571	-67.549770	-65.805502	33.444085
43404	8.897664	-3.694333	1.524797	0.020482	0.003499	0.015977	-67.542206	-65.796686	33.448702
43405	8.888245	-3.714715	1.498721	0.010845	0.010089	0.013868	-67.531421	-65.787530	33.443735
43406	8.886652	-3.718510	1.523798	0.015000	-0.001706	0.011766	-67.531077	-65.782084	33.452825
43407	8.920354	-3.701482	1.479165	0.013403	0.011745	0.014091	-67.516996	-65.772447	33.445850
43408	8.952736	-3.687661	1.459555	0.018401	0.014735	0.019992	-67.499371	-65.759044	33.438128
43409	8.893374	-3.640411	1.490124	0.019770	0.031843	0.024473	-67.463114	-65.739500	33.410829
43410	8.913058	-3.655443	1.517853	0.031373	0.029764	0.036011	-67.428274	-65.714315	33.392373
43411	8.853402	-3.669420	1.591543	0.024833	0.030601	0.044763	-67.400567	-65.684299	33.377628
43412	8.890480	-3.703661	1.494520	0.038182	0.015489	0.046718	-67.383837	-65.656588	33.383320
43413	8.873610	-3.681153	1.549667	0.025179	0.037792	0.052357	-67.351322	-65.620966	33.363508
43414	8.851496	-3.729606	1.547201	0.042235	0.014157	0.054174	-67.337487	-65.589608	33.374931
43415	8.952511	-3.740539	1.456447	0.042747	0.032448	0.060433	-67.305174	-65.550891	33.366386
43416	8.890787	-3.758470	1.555619	0.045071	0.043197	0.057361	-67.257579	-65.511428	33.342510
43417	8.899034	-3.737947	1.539824	0.051787	0.038435	0.057542	-67.211901	-65.472906	33.324963
43418	8.871618	-3.737898	1.594029	0.048037	0.046857	0.059462	-67.159618	-65.431504	33.297787
43419	8.902100	-3.727477	1.578357	0.046729	0.040639	0.057282	-67.114373	-65.392616	33.277517
43420	8.810450	-3.751170	1.626206	0.038836	0.039495	0.049457	-67.071205	-65.358117	33.254552
43421	8.898192	-3.732811	1.563738	0.043611	0.025992	0.054643	-67.043473	-65.323882	33.251576
43422	8.933594	-3.771238	1.492977	0.042986	0.049070	0.059148	-66.991827	-65.282117	33.221883
43423	8.903552	-3.717124	1.553795	0.051865	0.054634	0.063517	-66.931049	-65.236779	33.187726
43424	8.898842	-3.724923	1.585750	0.052863	0.075048	0.069798	-66.849603	-65.183532	33.131420
43425	8.870378	-3.725584	1.642484	0.057332	0.065137	0.071464	-66.778014	-65.131604	33.088773
43426	8.863663	-3.796939	1.545110	0.056068	0.075020	0.077175	-66.698914	-65.074418	33.037030
43427	8.806599	-3.741611	1.680638	0.057721	0.072454	0.077133	-66.622091	-65.017800	32.988817
43428	8.808643	-3.793667	1.610274	0.051773	0.065155	0.072819	-66.555006	-64.965093	32.947568
43429	8.814904	-3.777263	1.620649	0.051636	0.059562	0.074386	-66.495317	-64.912812	32.914378
43430	8.866438	-3.837782	1.649648	0.053114	0.060773	0.067216	-66.430061	-64.864014	32.875964
43431	8.909135	-3.801346	1.590719	0.059886	0.066791	0.071442	-66.356522	-64.811587	32.832668
43432	8.847980	-3.813630	1.644872	0.060933	0.081914	0.073806	-66.266892	-64.754422	32.772231
43433	8.862533	-3.778019	1.684287	0.063973	0.076294	0.082827	-66.186555	-64.693779	32.723965
43434	8.791977	-3.810613	1.711641	0.055528	0.083486	0.086120	-66.104957	-64.629722	32.668928
43435	8.777373	-3.838987	1.717434	0.054107	0.066452	0.079972	-66.040314	-64.572806	32.631729
43436	8.829165	-3.841173	1.703834	0.049998	0.052908	0.081045	-65.993593	-64.518475	32.611756
43437	8.953220	-3.864849	1.593170	0.045408	0.047889	0.089626	-65.959380	-64.460810	32.602717
43438	8.856007	-3.895030	1.691293	0.046245	0.086585	0.087236	-65.881305	-64.395352	32.545582
43439	8.792111	-3.853906	1.750605	0.049779	0.072536	0.086968	-65.816754	-64.333292	32.505661
43440	8.824394	-3.841536	1.689718	0.048356	0.080804	0.083457	-65.742525	-64.271107	32.454076
43441	8.826640	-3.831622	1.750382	0.050581	0.087216	0.098232	-65.667663	-64.199661	32.403173
43442	8.756658	-3.862485	1.753456	0.049350	0.086497	0.096259	-65.593597	-64.129391	32.352342
43443	8.721509	-3.815104	1.864334	0.041100	0.079422	0.097277	-65.532722	-64.060236	32.310888
43444	8.722437	-3.870604	1.794150	0.030676	0.068806	0.110730	-65.495920	-63.986578	32.289547
43445	8.703865	-3.849215	1.827557	0.032896	0.057862	0.099654	-65.464332	-63.921283	32.275409
43446	8.790692	-3.838139	1.767604	0.022635	0.047526	0.107703	-65.453555	-63.854257	32.277895
43447	8.730436	-3.961648	1.806965	0.017201	0.053094	0.109266	-65.440817	-63.785086	32.274726
43448	8.691886	-3.927386	1.813431	0.013032	0.038172	0.095891	-65.439755	-63.726444	32.281911
43449	8.762603	-3.891118	1.826837	0.012844	0.037913	0.101258	-65.441691	-63.665060	32.292323
43450	8.748037	-3.865241	1.808419	0.002000	0.034572	0.105843	-65.455464	-63.602087	32.309019
43451	8.760400	-3.836807	1.864927	-0.026570	0.028566	0.130857	-65.503799	-63.527495	32.346040
43452	8.748127	-3.976927	1.828401	0.003550	0.005801	0.137591	-65.561592	-63.454782	32.412941
43453	8.722655	-3.920282	1.785038	-0.033235	0.016540	0.155240	-65.637281	-63.370280	32.476329
43454	8.683212	-3.883722	1.934777	-0.014955	-0.004626	0.161215	-65.726812	-63.287615	32.566977
43455	8.774000	-3.984111	1.808318	-0.037435	-0.019012	0.173684	-65.849384	-63.201736	32.680268
43456	8.771236	-4.049925	1.751941	-0.038994	-0.005754	0.181041	-65.961771	-63.108808	32.781233
43457	8.707705	-4.069127	1.770463	-0.029749	-0.003696	0.185201	-66.067970	-63.013132	32.881282
43458	8.687270	-4.055631	1.795758	-0.025935	-0.001366	0.187206	-66.169754	-62.915787	32.978915
43459	8.610844	-4.044227	1.841313	-0.035065	-0.003207	0.179248	-66.274406	-62.822957	33.073975
43460	8.648785	-4.025731	1.821095	-0.038276	-0.016149	0.185769	-66.396281	-62.729598	33.186415
43461	8.741410	-4.062474	1.798204	-0.050078	-0.023499	0.188265	-66.532729	-62.636491	33.307737
43462	8.771614	-4.117022	1.719929	-0.046949	-0.013079	0.206591	-66.663948	-62.531250	33.425302
43463	8.695812	-4.214064	1.729783	-0.041369	0.006352	0.212743	-66.774147	-62.418256	33.522881
43464	8.706931	-4.138326	1.764694	-0.029078	0.011945	0.218950	-66.873496	-62.300650	33.616267
43465	8.650181	-4.195106	1.806709	-0.044552	0.022082	0.223423	-66.972700	-62.178334	33.699570
43466	8.667328	-4.219251	1.734496	-0.031880	0.015343	0.229295	-67.073019	-62.054362	33.792447
43467	8.594995	-4.142468	1.863064	-0.046189	0.029887	0.230364	-67.166761	-61.926511	33.868693
43468	8.697048	-4.161615	1.821750	-0.059581	0.004972	0.255409	-67.302278	-61.790881	33.983708
43469	8.837240	-4.324438	1.645321	-0.072136	0.025102	0.287065	-67.436995	-61.633946	34.089802
43470	8.789707	-4.416051	1.637573	-0.047402	0.064447	0.309215	-67.526833	-61.456555	34.161138
43471	8.687712	-4.340326	1.819335	-0.034505	0.100297	0.326836	-67.580729	-61.261950	34.200065
43472	8.684896	-4.241260	1.840741	-0.037465	0.097392	0.368938	-67.655066	-61.045650	34.260471
43473	8.670717	-4.263899	1.946938	-0.065983	0.097557	0.393203	-67.754040	-60.816411	34.330497
43474	8.829668	-4.281869	1.919106	-0.079239	0.090197	0.441315	-67.884643	-60.563166	34.428255
43475	9.133568	-4.444084	1.888204	-0.123915	0.097541	0.508688	-68.057388	-60.272442	34.545294
43476	9.479118	-4.583918	1.841824	-0.135243	0.149074	0.589914	-68.216311	-59.927356	34.639278
43477	9.325207	-4.713428	1.809951	-0.146159	0.203906	0.688460	-68.364485	-59.518085	34.713926
43478	9.216150	-4.604459	2.030358	-0.147443	0.173323	0.753024	-68.560537	-59.080708	34.843731
43479	9.073005	-4.616377	2.010606	-0.173764	0.148980	0.841885	-68.818909	-58.600733	35.029355
43480	8.873127	-4.678000	1.930651	-0.191180	0.179825	0.907680	-69.075855	-58.078776	35.202582
43481	8.756109	-4.783421	1.953176	-0.200190	0.176762	0.976174	-69.355751	-57.520365	35.397842
43482	8.698964	-4.741661	2.047046	-0.213755	0.180374	1.031715	-69.649740	-56.930873	35.601876
43483	8.335413	-4.868154	2.017507	-0.231498	0.196019	1.078058	-69.946529	-56.312847	35.798488
43484	8.428431	-5.049210	1.953487	-0.230030	0.170659	1.098404	-70.259914	-55.688195	36.017564
43485	8.425669	-5.197354	1.859295	-0.226254	0.203588	1.130798	-70.545406	-55.039146	36.207031
43486	8.283380	-5.326352	1.828802	-0.207843	0.220160	1.155100	-70.806064	-54.373262	36.380528
43487	8.159578	-5.381108	1.810736	-0.197607	0.239282	1.178618	-71.045179	-53.690684	36.536119
43488	8.513315	-5.644684	1.877265	-0.170085	0.253774	1.189651	-71.253996	-52.999037	36.674982
43489	8.431611	-5.523811	1.720845	-0.144444	0.341974	1.226399	-71.388711	-52.271072	36.740391
43490	7.710449	-5.872491	1.682425	-0.127384	0.414136	1.242772	-71.464408	-51.520915	36.743885
43491	8.129164	-5.963492	1.776336	-0.069686	0.407957	1.221700	-71.505445	-50.783394	36.745350
43492	8.301935	-6.063380	1.746906	-0.050799	0.510858	1.248997	-71.473968	-50.012259	36.666775
43493	7.646043	-6.280394	1.790374	-0.030967	0.552930	1.272888	-71.411798	-49.220507	36.561905
43494	7.553481	-6.305776	1.813417	0.014434	0.522908	1.262287	-71.343236	-48.439856	36.481865
43495	7.549995	-6.388539	2.168998	0.027536	0.553626	1.258201	-71.250672	-47.655776	36.378653
43496	7.744151	-6.564890	2.204394	0.069900	0.575838	1.238613	-71.120569	-46.878011	36.256111
43497	7.640888	-6.273139	2.218433	0.060175	0.616413	1.222187	-70.974079	-46.101473	36.101703
43498	7.622633	-6.570736	2.287460	0.067197	0.637431	1.210721	-70.814782	-45.326845	35.933024
43499	7.223388	-6.420840	2.255870	0.055279	0.658354	1.220483	-70.658264	-44.542744	35.756304
43500	6.682033	-6.521931	2.164892	0.044934	0.646647	1.236749	-70.522123	-43.751682	35.597866
43501	6.558520	-6.902413	2.247876	0.009417	0.558031	1.244728	-70.457295	-42.973157	35.511344
43502	6.613191	-6.831114	2.329077	0.036681	0.462446	1.234183	-70.424589	-42.218519	35.494133
43503	6.783118	-6.634376	2.319390	0.004216	0.491848	1.239845	-70.397936	-41.455255	35.457830
43504	6.108851	-6.844405	2.386664	0.013814	0.491833	1.242489	-70.367179	-40.690469	35.423125
43505	5.806873	-6.850884	2.323505	0.015167	0.443991	1.236087	-70.357370	-39.938428	35.421429
43506	5.751880	-6.911515	2.410316	0.019471	0.423660	1.225258	-70.352514	-39.196059	35.431382
43507	5.690573	-6.993729	2.365746	0.015018	0.375346	1.210389	-70.368703	-38.471098	35.470953
43508	5.413464	-6.960179	2.374264	0.016229	0.344113	1.214407	-70.397136	-37.749884	35.532154
43509	5.588727	-7.099713	2.580744	0.010248	0.292197	1.204708	-70.447696	-37.043914	35.625099
43510	5.866091	-7.052610	2.674435	0.003578	0.281018	1.199568	-70.503893	-36.342717	35.722644
43511	5.630402	-7.130349	2.754706	-0.014903	0.309887	1.202146	-70.557771	-35.634616	35.799833
43512	5.393729	-7.303441	2.775481	-0.037855	0.272047	1.191979	-70.636134	-34.939064	35.898006
43513	5.385518	-7.275029	2.788799	-0.053106	0.233762	1.184666	-70.734408	-34.254674	36.017533
43514	5.487403	-7.308241	2.901603	-0.082561	0.236400	1.181304	-70.845588	-33.571352	36.132087
43515	5.129706	-7.304900	2.788506	-0.103752	0.240391	1.185569	-70.965495	-32.884860	36.242468
43516	5.103741	-7.459121	2.881310	-0.134874	0.210652	1.187362	-71.111133	-32.202643	36.369617
43517	5.120203	-7.541560	2.859605	-0.159732	0.179919	1.191707	-71.278945	-31.523533	36.514192
43518	5.376546	-7.566735	3.007579	-0.188467	0.180319	1.190120	-71.459651	-30.844763	36.654710
43519	5.299082	-7.678331	3.032075	-0.211055	0.227641	1.183772	-71.634289	-30.160575	36.760596
43520	4.813559	-7.595690	2.897691	-0.235660	0.264891	1.180511	-71.808418	-29.471110	36.839321
43521	4.861352	-8.017077	2.764381	-0.268669	0.250329	1.183331	-72.003826	-28.782573	36.924602
43522	4.548802	-8.118434	2.741381	-0.275763	0.236694	1.181997	-72.204754	-28.096821	37.014821
43523	4.428974	-8.057852	2.652080	-0.289945	0.219424	1.170133	-72.415161	-27.420361	37.109983
43524	4.605124	-8.355868	2.659114	-0.307809	0.198646	1.188105	-72.640619	-26.737249	37.217918
43525	4.419172	-8.394807	2.491917	-0.292868	0.197639	1.207515	-72.856658	-26.043412	37.326538
43526	4.509447	-8.430710	2.536643	-0.306213	0.186388	1.230669	-73.082433	-25.338318	37.442715
43527	4.615427	-8.751046	2.447643	-0.302628	0.182952	1.275279	-73.307565	-24.609012	37.565355
43528	4.438075	-8.443772	2.376115	-0.279391	0.190723	1.328978	-73.518429	-23.848437	37.689195
43529	4.927810	-8.832577	2.539661	-0.298121	0.206638	1.405861	-73.738523	-23.042712	37.813150
43530	5.137871	-9.223201	2.699206	-0.288280	0.248225	1.486536	-73.945610	-22.185436	37.922248
43531	5.290039	-9.272078	2.578203	-0.284708	0.272663	1.561467	-74.146961	-21.282807	38.025566
43532	5.331606	-9.557066	2.471064	-0.290140	0.307207	1.680191	-74.348194	-20.308876	38.124231
43533	5.267256	-9.779980	2.364248	-0.280674	0.309286	1.824953	-74.548505	-19.254565	38.241016
43534	5.274747	-9.962570	2.417082	-0.278500	0.293071	1.966718	-74.754261	-18.123840	38.385255
43535	5.053656	-10.314302	2.367880	-0.297769	0.248792	2.123730	-74.981770	-16.912589	38.574337
43536	4.904114	-10.567058	2.242712	-0.300882	0.126330	2.267002	-75.231269	-15.639097	38.849558
43537	4.639189	-10.504228	2.003679	-0.321688	-0.031512	2.455997	-75.515283	-14.282691	39.235739
43538	4.707134	-10.690439	1.971809	-0.356251	-0.233285	2.660055	-75.841627	-12.839381	39.757079
43539	4.674773	-10.635911	1.953761	-0.360574	-0.418508	2.861938	-76.182862	-11.306840	40.400622
43540	5.104731	-10.738449	1.775861	-0.355759	-0.583664	3.086161	-76.524123	-9.667761	41.155675
43541	5.382574	-10.518261	1.850018	-0.306956	-0.686044	3.297141	-76.826638	-7.920778	41.983548
43542	5.142212	-10.174684	1.680019	-0.241818	-0.723021	3.513804	-77.070392	-6.053404	42.848453
43543	4.421420	-9.587118	1.516781	-0.143070	-0.756943	3.703023	-77.231816	-4.082074	43.746867
43544	4.119382	-9.075400	1.209523	-0.048284	-0.787439	3.878026	-77.308976	-2.014474	44.678135
43545	3.596302	-9.052652	0.945109	0.070019	-0.765028	4.077354	-77.284136	0.167249	45.619807
43546	3.023065	-8.838233	0.653749	0.251204	-0.760287	4.280522	-77.117916	2.462059	46.588419
43547	2.593909	-11.032332	1.644494	0.295020	-0.649032	4.571125	-76.887521	4.929459	47.541965
43548	4.922940	-15.035521	1.140442	0.504201	-1.001008	3.986130	-76.485054	7.019582	48.632196
43549	6.994335	-11.240562	2.150153	0.656177	-1.124136	3.013645	-75.967576	8.542205	49.678684
43550	7.296278	-11.205967	2.193295	0.615224	-1.161625	1.772010	-75.473923	9.361610	50.585444
43551	7.762321	-10.380930	2.663348	0.583070	-1.047150	0.360134	-75.035494	9.407117	51.226924
43552	6.762875	-10.672378	3.291454	0.602470	-0.746702	-0.878254	-74.645106	8.809168	51.512166
43553	5.826976	-11.389649	3.914114	0.632769	-0.505367	-1.822118	-74.282876	7.724190	51.511626
43554	5.844511	-12.041587	4.436398	0.734088	-0.209090	-2.501108	-73.896358	6.312837	51.232203
43555	5.624419	-12.713711	4.775117	0.931235	0.178824	-3.023697	-73.419332	4.677420	50.643827
43556	5.313214	-13.280431	5.331244	1.192551	0.599775	-3.474758	-72.795788	2.871876	49.734863
43557	5.107094	-14.305403	5.235452	1.564488	1.108712	-3.853704	-71.942044	0.957955	48.460100
43558	3.361472	-14.298142	4.846396	2.109243	1.743830	-4.042894	-70.733898	-0.917446	46.772657
43559	0.769892	-13.083776	4.343015	2.516973	2.102642	-3.862487	-69.233810	-2.586686	44.882475
43560	-2.008095	-11.842503	3.354144	2.755729	2.173290	-3.358070	-67.548606	-3.917413	43.013573
43561	-4.744026	-9.940563	2.571300	2.762132	1.854219	-2.759927	-65.841675	-4.951570	41.407536
43562	-5.642174	-7.986403	1.870573	2.546352	1.203923	-2.216487	-64.273243	-5.812611	40.241657
43563	-5.129086	-6.643570	1.498623	2.155974	0.468965	-1.805618	-62.961595	-6.621981	39.537139
43564	-3.406909	-6.114534	1.733455	1.744288	-0.289082	-1.641241	-61.926375	-7.532714	39.246962
43565	-0.364607	-6.003954	2.337610	1.396310	-0.914701	-1.757687	-61.123554	-8.669687	39.227345
43566	3.418284	-6.011058	2.936799	1.149745	-1.204240	-2.129123	-60.465919	-10.071607	39.234672
43567	6.289380	-5.779202	3.447451	0.974008	-1.023254	-2.649783	-59.860416	-11.682155	38.983418
43568	6.928884	-5.832417	3.637187	0.819507	-0.554764	-3.155694	-59.247960	-13.402439	38.325770
43569	5.257676	-5.728510	3.206713	0.709323	-0.105209	-3.565649	-58.585895	-15.185290	37.290660
43570	2.573214	-5.419475	2.467930	0.520717	0.126535	-3.709170	-57.947721	-16.955169	36.063492
43571	-0.279777	-5.232246	1.817282	0.303648	0.040043	-3.613084	-57.411510	-18.694508	34.880536
43572	-2.298947	-4.914477	1.550713	0.060483	-0.378429	-3.363440	-57.071074	-20.432937	33.967612
43573	-2.484787	-5.082168	1.791160	-0.176276	-0.979258	-3.030308	-56.986991	-22.196954	33.458633
43574	-0.555624	-5.033660	2.082416	-0.338196	-1.463141	-2.710467	-57.120693	-23.956561	33.305462
43575	1.843241	-4.700796	2.436714	-0.459233	-1.683721	-2.531872	-57.396229	-25.700452	33.335056
43576	4.298666	-4.354192	2.594937	-0.581996	-1.700515	-2.562103	-57.747375	-27.462440	33.374610
43577	5.958658	-4.328395	2.941381	-0.711427	-1.574420	-2.743517	-58.117153	-29.275429	33.294950
43578	6.776066	-4.876866	3.074061	-0.769511	-1.357366	-2.959441	-58.424115	-31.127090	33.028735
43579	5.558635	-5.166187	3.092224	-0.757198	-1.047826	-3.100137	-58.597688	-32.957441	32.538196
43580	3.534028	-5.519237	2.898169	-0.695547	-0.942686	-3.063472	-58.693121	-34.737853	31.994120
43581	1.859461	-5.798130	2.831704	-0.573954	-1.038663	-2.870370	-58.775079	-36.454580	31.570012
43582	1.926655	-6.061092	2.792729	-0.386438	-1.331578	-2.642419	-58.897082	-38.145349	31.406025
43583	3.369748	-5.685817	2.683532	-0.203625	-1.533375	-2.458208	-59.035357	-39.807172	31.440391
43584	4.877149	-5.356787	2.674553	-0.034516	-1.615375	-2.397956	-59.130879	-41.461868	31.556749
43585	6.020028	-5.094250	2.415390	0.096114	-1.611778	-2.452010	-59.141371	-43.143589	31.654153
43586	6.132610	-4.775158	2.203515	0.189472	-1.576309	-2.535430	-59.060933	-44.854350	31.694702
43587	5.891060	-5.074771	2.068389	0.203873	-1.607462	-2.584028	-58.972340	-46.599826	31.734093
43588	5.728823	-5.237483	2.075647	0.176447	-1.600797	-2.544313	-58.907987	-48.322261	31.784020
43589	5.845029	-5.392309	2.243242	0.121847	-1.573742	-2.449863	-58.892758	-49.992000	31.856119
43590	6.518453	-5.613713	2.389759	0.038789	-1.495092	-2.347237	-58.918505	-51.586484	31.918080
43591	6.882873	-5.557204	2.458631	-0.035501	-1.337710	-2.269952	-58.919625	-53.098102	31.893733
43592	6.806566	-5.778100	2.733835	-0.101097	-1.242432	-2.223705	-58.911885	-54.557223	31.812441
43593	6.614025	-6.183695	2.971671	-0.128130	-1.253811	-2.172711	-58.946397	-55.996297	31.765035
43594	6.760022	-6.455611	3.277507	-0.112385	-1.296021	-2.111655	-59.030956	-57.416273	31.789205
43595	6.990665	-6.766849	3.565876	-0.066876	-1.285060	-2.013672	-59.132044	-58.786383	31.863057
43596	7.176278	-6.846568	3.796536	-0.013409	-1.246018	-1.899005	-59.234355	-60.086994	31.972992
43597	7.389041	-6.822593	3.810714	0.000475	-1.196770	-1.783038	-59.355567	-61.317415	32.112212
43598	7.548908	-6.780628	3.846705	-0.012790	-1.126652	-1.661363	-59.497274	-62.465760	32.264595
43599	7.824030	-6.668125	3.844072	-0.047551	-1.067280	-1.559404	-59.672317	-63.547665	32.430385
43600	8.155862	-6.448959	3.622974	-0.116466	-0.987254	-1.480506	-59.866101	-64.565816	32.571715
43601	8.166476	-6.308181	3.430448	-0.198691	-0.912803	-1.405306	-60.087896	-65.526352	32.690713
43602	8.321633	-6.190857	3.196589	-0.306922	-0.868900	-1.343121	-60.376546	-66.441974	32.814235
43603	8.607804	-6.672794	3.130550	-0.441938	-0.830484	-1.258174	-60.771603	-67.305245	32.968407
43604	8.464066	-7.174271	3.379912	-0.504897	-0.823968	-1.170142	-61.276571	-68.120910	33.201535
43605	8.644240	-7.631740	3.631041	-0.525524	-0.850443	-1.072922	-61.924558	-68.894913	33.574276
43606	8.815559	-7.935861	3.928165	-0.483779	-0.816484	-0.971709	-62.611390	-69.605841	34.012366
43607	8.774199	-7.980107	4.042219	-0.373871	-0.722668	-0.863727	-63.218726	-70.236300	34.430878
43608	8.552171	-7.783066	4.012552	-0.219198	-0.623515	-0.747687	-63.707126	-70.779606	34.815781
43609	8.255646	-7.308063	3.773416	-0.057770	-0.504510	-0.616604	-64.043344	-71.225223	35.136328
43610	7.814913	-6.664593	3.368821	0.072427	-0.420076	-0.496432	-64.277875	-71.586554	35.427599
43611	7.613859	-5.935977	2.758625	0.158220	-0.372874	-0.361567	-64.500658	-71.866682	35.757663
43612	7.760331	-5.292708	2.266123	0.156998	-0.352953	-0.277662	-64.763601	-72.097500	36.128799
43613	8.081673	-4.796724	1.811657	0.070281	-0.318402	-0.234317	-65.061862	-72.297288	36.484345
43614	7.967808	-4.369958	1.533760	-0.055991	-0.262972	-0.216286	-65.361826	-72.473391	36.765448
43615	7.503834	-4.219818	1.331139	-0.186323	-0.220289	-0.185059	-65.695667	-72.622950	37.003486
43616	6.742713	-4.060752	1.381656	-0.314621	-0.209057	-0.122537	-66.135435	-72.736351	37.275358
43617	6.552259	-4.157086	1.697739	-0.401024	-0.232316	-0.040566	-66.730224	-72.811568	37.657518
43618	22.426361	-15.625853	9.342057	-0.525714	0.839119	0.483065	-65.981701	-72.365610	36.557427
43619	-5.885487	-4.410397	1.360778	0.323064	2.839202	1.335936	-62.383750	-70.967941	32.962509
43620	4.898389	-4.688540	9.877840	-0.871831	0.581498	1.024835	-62.811183	-70.293738	32.886132
43621	12.225221	-5.988396	3.228556	-0.492927	-0.722967	0.849499	-64.721200	-70.040478	34.616370
43622	11.930358	-6.007034	5.476259	-0.357315	0.659007	0.827376	-64.552186	-69.450805	34.218043
43623	8.006649	-5.260654	4.843382	0.132848	-0.317284	0.660375	-65.337402	-69.185172	35.138761
43624	11.088735	-2.721508	-0.607322	0.138774	-0.494926	0.449068	-66.213474	-69.067304	36.161506
43625	11.643148	-3.400712	-0.509892	-0.131517	0.165274	0.514732	-66.372078	-68.759310	36.250795
43626	9.822673	-4.396171	0.682910	-0.039686	0.435099	0.328684	-66.006949	-68.486794	35.834316
43627	8.806470	-3.421986	2.257779	0.038024	0.394211	0.229104	-65.601792	-68.274618	35.421989
43628	8.383629	-3.411017	2.352720	0.024430	0.160656	0.221257	-65.509995	-68.121545	35.338238
43629	8.882021	-3.210006	1.840248	-0.003645	-0.010796	0.216659	-65.654153	-68.011178	35.491452
43630	9.156692	-3.371960	1.394296	-0.037453	-0.026051	0.213494	-65.833889	-67.906209	35.662252
43631	9.241420	-3.423357	1.294716	-0.012884	0.014569	0.200147	-65.938284	-67.798236	35.767053
43632	9.151289	-3.388668	1.422327	-0.001545	0.071600	0.205196	-65.965228	-67.674577	35.795254
43633	9.059266	-3.483116	1.521655	0.008283	0.076593	0.192561	-65.972889	-67.556046	35.808730
43634	8.997312	-3.503119	1.527399	0.011803	0.066500	0.173976	-65.980616	-67.449911	35.824457
43635	9.041891	-3.458973	1.512387	0.013953	0.044314	0.164302	-66.009539	-67.353687	35.864501
43636	9.027288	-3.303734	1.404500	0.026730	0.063835	0.161277	-66.004699	-67.254818	35.875899
43637	9.177234	-3.200299	1.397065	0.026356	0.090002	0.212902	-65.996183	-67.122509	35.883100
43638	8.968567	-3.625760	1.603294	0.014480	0.140185	0.238965	-65.946837	-66.965174	35.838563
43639	8.800691	-3.580262	1.663100	0.065111	0.069813	0.215027	-65.942257	-66.836473	35.874198
43640	9.053249	-3.486466	1.462473	0.051815	0.064515	0.227159	-65.958015	-66.702977	35.923696
43641	8.936665	-3.568816	1.539892	0.058774	0.107853	0.202398	-65.903824	-66.571994	35.901404
43642	8.799508	-3.513280	1.722445	0.051846	0.090577	0.201728	-65.874272	-66.445719	35.901614
43643	8.791455	-3.529527	1.730326	0.041474	0.051275	0.186047	-65.889420	-66.336522	35.944137
43644	8.924537	-3.470476	1.668598	0.030378	0.020155	0.199663	-65.954750	-66.227788	36.034548
43645	9.116923	-3.641648	1.400663	0.027400	0.032584	0.212377	-66.013146	-66.109137	36.115607
43646	9.051874	-3.666311	1.478996	0.045432	0.086096	0.213573	-65.998176	-65.977706	36.127754
43647	8.885435	-3.675256	1.632005	0.061848	0.095144	0.197651	-65.955082	-65.852175	36.119420
43648	8.858609	-3.790546	1.661055	0.048917	0.080003	0.166029	-65.920714	-65.747047	36.112513
43649	8.860523	-3.961621	1.589183	0.062306	0.067736	0.102611	-65.860320	-65.677624	36.085475
43650	8.723828	-3.547164	1.857234	0.060612	0.063488	0.067966	-65.787984	-65.627624	36.044239
43651	8.649538	-3.650047	1.807310	0.046969	0.020417	0.054271	-65.766262	-65.594554	36.049993
43652	8.732639	-3.585430	1.814054	0.023031	-0.023908	0.047544	-65.805683	-65.575751	36.107820
43653	8.838862	-3.709788	1.662760	0.006778	-0.043268	0.035927	-65.870709	-65.567198	36.183563
43654	9.072535	-3.731892	1.518506	0.019606	-0.049710	0.048901	-65.942339	-65.553670	36.274625
43655	9.163773	-3.770692	1.372570	0.046353	0.012632	0.061333	-65.933318	-65.518711	36.293948
43656	8.877935	-3.742094	1.664676	0.055579	0.069465	0.049590	-65.847711	-65.476942	36.234909
43657	8.839238	-3.648299	1.674890	0.067760	0.039223	0.047735	-65.789104	-65.442867	36.213216
43658	8.893902	-3.703089	1.656083	0.055268	0.047582	0.043821	-65.726098	-65.409202	36.178799
43659	8.838913	-3.761890	1.658161	0.052376	0.044022	0.034615	-65.664296	-65.380826	36.143885
43660	8.900003	-3.685707	1.668694	0.045877	0.034450	0.032496	-65.616017	-65.356147	36.119734
43661	8.943244	-3.707220	1.650327	0.049967	0.047955	0.030926	-65.549422	-65.328734	36.078012
43662	8.817139	-3.684056	1.751047	0.038966	0.048171	0.030592	-65.488719	-65.301769	36.035819
43663	8.816072	-3.685239	1.731528	0.040238	0.029023	0.034056	-65.450968	-65.277192	36.019695
43664	8.780519	-3.700966	1.782532	0.026024	0.029102	0.022764	-65.415376	-65.258823	35.996969
43665	8.790594	-3.679246	1.761333	0.014943	-0.001472	0.016725	-65.417694	-65.250535	36.009003
43666	8.802881	-3.711789	1.735898	0.007183	-0.011827	0.012781	-65.434020	-65.247118	36.031555
43667	8.813070	-3.690435	1.735738	-0.005553	-0.019894	0.005092	-65.462879	-65.249274	36.059886
43668	8.868563	-3.688680	1.710755	-0.005856	-0.031003	0.010414	-65.507132	-65.251640	36.104963
43669	8.869457	-3.688832	1.683447	-0.006707	-0.029751	0.012208	-65.551477	-65.252406	36.149616
43670	8.836283	-3.702859	1.703599	-0.009993	-0.024604	0.012159	-65.591767	-65.252317	36.187720
43671	8.803371	-3.716525	1.723234	-0.013100	-0.039177	0.002873	-65.645665	-65.260154	36.238858
43672	8.825236	-3.671870	1.697069	-0.013236	-0.044713	0.004621	-65.706760	-65.268717	36.297819
43673	8.850462	-3.736072	1.666408	-0.020266	-0.041884	-0.002801	-65.765003	-65.280110	36.349213
43674	8.792881	-3.686234	1.735107	-0.025081	-0.048595	-0.001202	-65.834415	-65.292574	36.409848
43675	8.883904	-3.725811	1.681445	-0.016211	-0.068322	0.002451	-65.923181	-65.307356	36.497387
43676	8.874424	-3.691891	1.627505	-0.021824	-0.053777	0.000627	-65.997700	-65.320002	36.565682
43677	8.817220	-3.698908	1.741941	-0.024066	-0.058848	0.002309	-66.080283	-65.332551	36.641445
43678	8.888168	-3.725300	1.614027	-0.023436	-0.071099	0.000362	-66.175518	-65.349269	36.731505
43679	8.956250	-3.755582	1.583777	-0.026039	-0.052843	0.000489	-66.251625	-65.361286	36.798882
43680	8.857650	-3.737646	1.601053	-0.015653	-0.046130	-0.006405	-66.310634	-65.375698	36.853976
43681	8.945623	-3.723842	1.599214	-0.014807	-0.047379	-0.008217	-66.369822	-65.390965	36.909805
43682	8.859693	-3.736728	1.591866	-0.022639	-0.037868	-0.010124	-66.421629	-65.405389	36.952562
43683	8.926270	-3.711012	1.566134	-0.013628	-0.037437	-0.018943	-66.463496	-65.423970	36.990073
43684	8.927363	-3.709726	1.562946	-0.016746	-0.021365	-0.015201	-66.490526	-65.437262	37.009288
43685	8.838318	-3.726930	1.679747	-0.019940	-0.016067	-0.022464	-66.509767	-65.452797	37.017936
43686	8.884060	-3.688085	1.606316	-0.007615	-0.035362	-0.022399	-66.544132	-65.473059	37.050960
43687	8.919292	-3.671826	1.531753	-0.009563	-0.018663	-0.009553	-66.566912	-65.482394	37.070032
43688	8.877107	-3.762888	1.598150	-0.005392	-0.019670	-0.005837	-66.590257	-65.490363	37.092338
43689	8.865907	-3.729546	1.597502	0.000705	-0.017442	-0.016520	-66.602301	-65.503078	37.106073
43690	8.887830	-3.682978	1.573658	0.004285	-0.026095	-0.011112	-66.624916	-65.515275	37.133666
43691	8.912339	-3.746787	1.569993	0.003292	-0.010453	-0.009116	-66.631131	-65.522504	37.142622
43692	8.877819	-3.704838	1.618917	0.009282	-0.013724	-0.019878	-66.632241	-65.536497	37.149728
43693	8.887767	-3.625567	1.596936	0.007447	-0.016806	-0.012722	-66.641634	-65.547064	37.164789
43694	8.868986	-3.724497	1.615781	0.003713	-0.008422	-0.005456	-66.647019	-65.552266	37.173085
43695	8.903092	-3.709689	1.567046	0.011074	-0.025381	-0.010938	-66.665165	-65.563840	37.200042
43696	8.945090	-3.677006	1.616923	0.005315	-0.011070	-0.001830	-66.674520	-65.567733	37.213706
43697	8.916927	-3.739007	1.515215	0.015031	-0.012105	-0.001601	-66.679709	-65.571379	37.228919
43698	9.000885	-3.615418	1.498415	0.016625	0.010529	0.007805	-66.662384	-65.565303	37.220396
43699	8.894831	-3.785608	1.563995	0.021808	0.013891	0.004354	-66.636572	-65.559920	37.205822
43700	8.856471	-3.692338	1.666681	0.019300	0.012361	-0.001167	-66.611122	-65.558142	37.190057
43701	8.844548	-3.659310	1.669085	0.016227	0.003222	-0.006801	-66.595279	-65.561044	37.182921
43702	8.857286	-3.690107	1.643709	0.007423	-0.011535	-0.001779	-66.603978	-65.565023	37.197191
43703	8.870735	-3.720060	1.592812	0.003969	-0.017319	-0.005565	-66.619547	-65.571946	37.216842
43704	8.914967	-3.683436	1.544948	0.005614	-0.019890	-0.005559	-66.637079	-65.579810	37.239673
43705	8.893922	-3.729025	1.590168	-0.000102	-0.010815	-0.009205	-66.645647	-65.587166	37.249072
43706	8.872467	-3.717470	1.589209	0.003415	-0.010235	-0.019984	-66.646048	-65.600421	37.251704
43707	8.848880	-3.652032	1.614758	0.006664	-0.015451	-0.016351	-66.652552	-65.612587	37.263092
43708	8.846849	-3.598281	1.664044	0.005094	-0.027423	-0.009302	-66.677303	-65.624123	37.293515
43709	8.904878	-3.648751	1.611662	-0.006130	-0.032936	0.001223	-66.720263	-65.631000	37.336876
43710	8.997896	-3.740542	1.508738	-0.008379	-0.038047	0.004720	-66.772143	-65.637540	37.388602
43711	8.898338	-3.723792	1.553885	-0.006809	-0.006069	-0.007495	-66.779946	-65.642914	37.392938
43712	8.886503	-3.691476	1.577898	0.001396	-0.024275	-0.014798	-66.800508	-65.656606	37.416429
43713	8.910618	-3.698182	1.527575	-0.008422	-0.008738	-0.020257	-66.805988	-65.669302	37.417200
43714	8.878745	-3.709078	1.549821	-0.000737	-0.009156	-0.027332	-66.803932	-65.686181	37.414525
43715	8.844696	-3.666190	1.598691	-0.001217	-0.011301	-0.025563	-66.805629	-65.702250	37.415673
43716	8.901991	-3.659229	1.524970	0.000574	-0.028302	-0.023948	-66.826864	-65.721665	37.439375
43717	8.881805	-3.703491	1.569564	-0.008024	-0.012059	-0.023926	-66.834183	-65.737042	37.442412
43718	8.913411	-3.635011	1.571556	0.002038	-0.016514	-0.021942	-66.841851	-65.752740	37.452147
43719	8.913725	-3.634465	1.594952	-0.001253	-0.006062	-0.012807	-66.843849	-65.760909	37.453603
43720	8.882407	-3.644484	1.568518	-0.002671	-0.012460	-0.009305	-66.855809	-65.769036	37.465084
43721	8.937194	-3.642541	1.568673	-0.001896	-0.008544	0.005274	-66.870130	-65.768238	37.479649
43722	8.895279	-3.675701	1.541241	-0.002611	-0.007034	-0.005601	-66.877565	-65.773190	37.486206
43723	8.872792	-3.666266	1.565139	0.004580	-0.004316	0.000045	-66.880614	-65.774195	37.492478
43724	8.917266	-3.686596	1.564724	-0.000557	-0.007608	-0.000122	-66.890287	-65.776389	37.502779
43725	8.895251	-3.676186	1.564241	-0.002515	-0.001534	-0.005520	-66.891363	-65.779700	37.502430
43726	8.895021	-3.676839	1.588032	-0.005198	-0.008718	-0.003872	-66.903125	-65.784119	37.512105
43727	8.895413	-3.676413	1.586822	-0.005258	-0.014144	-0.007579	-66.919526	-65.791348	37.526835
43728	8.895999	-3.675762	1.585048	-0.008729	-0.019968	-0.009558	-66.943677	-65.801287	37.547874
43729	8.975020	-3.679784	1.487089	-0.000209	-0.011039	0.001648	-66.958165	-65.802951	37.563678
43730	8.897381	-3.673519	1.534293	0.001284	0.000823	0.000042	-66.956991	-65.803162	37.563241
43731	8.984640	-3.658699	1.512863	0.012001	0.009480	0.002227	-66.940706	-65.799919	37.552976
43732	8.896860	-3.673711	1.536853	0.010509	0.022975	0.006014	-66.911252	-65.792007	37.527329
43733	8.928213	-3.663119	1.564484	0.019193	0.012199	0.007871	-66.890498	-65.785177	37.516679
43734	8.894825	-3.676378	1.590196	0.016125	0.028414	0.004401	-66.850682	-65.776880	37.483195
43735	8.839301	-3.679337	1.615757	0.011619	0.012835	0.004076	-66.831643	-65.771902	37.469667
43736	8.914439	-3.632214	1.596088	0.011559	0.007409	0.000371	-66.817039	-65.770453	37.460957
43737	8.904120	-3.654365	1.595841	0.003471	0.005825	0.001975	-66.809821	-65.768159	37.455273
43738	8.926603	-3.663918	1.571779	0.002859	-0.001894	0.007293	-66.814557	-65.765163	37.462307
43739	8.915132	-3.688667	1.619794	0.004700	0.006538	0.007452	-66.808547	-65.759825	37.458718
43740	8.904288	-3.653907	1.548182	0.007535	-0.000709	0.007418	-66.809279	-65.756496	37.464299
43741	8.926522	-3.663828	1.524721	0.006506	0.014896	0.011234	-66.794358	-65.747279	37.452073
43742	8.915169	-3.687827	1.549892	0.015036	0.018549	0.011480	-66.770325	-65.737462	37.435206
43743	8.912059	-3.635173	1.578832	0.013831	0.023190	0.013325	-66.742604	-65.725267	37.413539
43744	8.857442	-3.694501	1.626566	0.008674	0.019863	0.014971	-66.722470	-65.713309	37.396946
43745	8.887325	-3.628930	1.631509	0.012750	0.008046	0.009469	-66.711129	-65.706567	37.392567
43746	8.912337	-3.691494	1.557430	0.005583	0.010682	0.011148	-66.701573	-65.698698	37.385636
43747	8.853869	-3.642535	1.632572	0.007230	0.008112	0.011152	-66.694167	-65.691055	37.382105
43748	8.866514	-3.673674	1.583238	0.004962	-0.002355	0.007336	-66.698248	-65.688147	37.389745
43749	8.921202	-3.671689	1.560568	0.007230	0.008112	0.011150	-66.690840	-65.680504	37.386212
43750	8.864506	-3.677243	1.633588	0.002653	0.012430	0.011098	-66.680917	-65.672264	37.377033
43751	8.964227	-3.636559	1.491776	0.013896	0.003294	0.013056	-66.676257	-65.664712	37.380707
43752	8.896475	-3.665734	1.588673	0.003660	0.027433	0.022185	-66.653888	-65.647233	37.358500
43753	8.928795	-3.653661	1.543321	0.022429	0.012262	0.022431	-66.638633	-65.632717	37.355909
43754	8.949166	-3.666554	1.571005	0.017076	0.043263	0.022689	-66.590523	-65.611365	37.313876
43755	8.862052	-3.737120	1.595032	0.019965	0.036120	0.017225	-66.546462	-65.594153	37.278103
43756	8.843641	-3.599976	1.677377	0.020366	0.038122	0.022688	-66.502562	-65.573947	37.242749
43757	8.823572	-3.700550	1.676312	0.016179	0.019120	0.024167	-66.483921	-65.556952	37.232504
43758	8.866830	-3.665518	1.607158	0.010491	0.008261	0.022088	-66.479964	-65.543878	37.234804
43759	8.900521	-3.708889	1.583460	0.017403	0.014510	0.020513	-66.464129	-65.529855	37.228411
43760	8.897737	-3.655981	1.587947	0.019699	0.025012	0.022497	-66.435790	-65.512731	37.209718
43761	8.941819	-3.676679	1.542629	0.029770	0.025908	0.031800	-66.405451	-65.490168	37.195170
43762	8.951845	-3.711888	1.545829	0.027873	0.042705	0.040986	-66.361452	-65.459269	37.164405
43763	8.904105	-3.696294	1.599643	0.030218	0.053276	0.039331	-66.303337	-65.426453	37.119592
43764	8.868704	-3.712317	1.628340	0.025826	0.048607	0.044590	-66.255769	-65.392280	37.083596
43765	8.878218	-3.748078	1.632563	0.029155	0.043527	0.040985	-66.210499	-65.360817	37.052219
43766	8.873806	-3.697411	1.664081	0.032241	0.047340	0.037464	-66.157330	-65.330647	37.014086
43767	8.838557	-3.712999	1.692263	0.025784	0.043210	0.039060	-66.113577	-65.300245	36.982237
43768	8.870258	-3.702313	1.649285	0.026540	0.036487	0.035384	-66.075174	-65.273659	36.956746
43769	8.866859	-3.707024	1.702385	0.021899	0.040721	0.040724	-66.037479	-65.242946	36.929101
43770	8.855805	-3.730657	1.656387	0.018275	0.029370	0.040521	-66.014607	-65.215315	36.915488
43771	8.853826	-3.734030	1.659362	0.016846	0.023019	0.042231	-66.000741	-65.187927	36.910891
43772	8.887117	-3.778401	1.613256	0.021345	0.033145	0.038804	-65.971047	-65.160311	36.891692
43773	8.916875	-3.770346	1.643303	0.027978	0.042832	0.033617	-65.924156	-65.132801	36.857727
43774	8.868578	-3.698414	1.673934	0.030553	0.044469	0.033683	-65.873968	-65.105202	36.821744
43775	8.901777	-3.742310	1.629776	0.030473	0.044376	0.039092	-65.826854	-65.074445	36.789093
43776	8.887007	-3.713840	1.660203	0.026328	0.050759	0.042633	-65.776730	-65.040666	36.750493
43777	8.836542	-3.645107	1.739652	0.024640	0.044137	0.060602	-65.744290	-64.998709	36.730322
43778	8.891550	-3.701492	1.670781	0.021271	0.034686	0.073081	-65.730615	-64.952791	36.728725
43779	9.174077	-3.677713	1.586467	0.020563	0.023206	0.101871	-65.744748	-64.894207	36.757380
43780	9.119721	-3.795365	1.489632	0.017011	0.092998	0.136485	-65.700496	-64.801436	36.719304
43781	8.951832	-3.741402	1.691884	0.033389	0.103214	0.160356	-65.647937	-64.693462	36.682383
43782	8.968155	-3.764510	1.629481	0.030380	0.101183	0.185400	-65.612055	-64.573201	36.661980
43783	8.798810	-3.946924	1.605688	0.032512	0.131295	0.205283	-65.552324	-64.435118	36.616481
43784	8.842955	-3.495700	2.050378	0.063418	0.111095	0.198669	-65.493989	-64.305569	36.592126
43785	8.869600	-3.557386	1.960515	-0.034370	0.053045	0.292735	-65.600710	-64.140426	36.688811
43786	8.837393	-3.860460	1.709777	-0.035053	0.045426	0.294207	-65.715319	-63.976537	36.793972
43787	8.994518	-3.651120	1.798879	-0.056881	0.031639	0.350731	-65.882727	-63.785938	36.944166
43788	8.828902	-3.881296	1.763512	-0.075988	0.051999	0.387526	-66.054484	-63.571435	37.087260
43789	8.834386	-3.928776	1.764923	-0.072824	0.034154	0.410360	-66.251202	-63.348614	37.260555
43790	8.885212	-3.998047	1.694247	-0.081350	0.055732	0.431125	-66.436736	-63.109960	37.416200
43791	8.810491	-4.092681	1.717450	-0.073348	0.080317	0.438023	-66.592644	-62.861583	37.544076
43792	8.789884	-4.133375	1.746679	-0.061478	0.092925	0.441398	-66.727862	-62.608700	37.656611
43793	8.795282	-4.181653	1.656710	-0.043843	0.116080	0.455687	-66.833713	-62.342679	37.747690
43794	8.815767	-4.193153	1.718545	-0.030969	0.146980	0.473349	-66.907059	-62.060608	37.810591
43795	8.895439	-4.244965	1.857904	-0.027364	0.165033	0.520776	-66.979159	-61.749176	37.874592
43796	9.081913	-4.212800	1.812158	-0.029437	0.184934	0.597938	-67.063298	-61.392818	37.951134
43797	9.252110	-4.517469	1.757490	-0.063873	0.235373	0.677126	-67.148899	-60.983111	38.007104
43798	10.007313	-4.339120	2.342411	-0.075401	0.260343	0.784770	-67.258034	-60.511213	38.082720
43799	10.264656	-4.398762	2.284818	-0.159147	0.283886	0.954054	-67.455124	-59.944278	38.204774
43800	9.171496	-4.467963	1.974561	-0.185382	0.256483	1.080069	-67.732420	-59.316562	38.403105
43801	9.294448	-4.706362	1.946556	-0.182719	0.249386	1.155382	-68.031879	-58.649712	38.630417
43802	9.337443	-4.551052	2.078158	-0.205302	0.294697	1.251644	-68.327576	-57.921603	38.839782
43803	9.305161	-4.618448	2.173674	-0.229650	0.291973	1.360623	-68.663993	-57.135217	39.082628
43804	9.117794	-4.896422	2.005415	-0.267635	0.341231	1.450449	-68.997111	-56.290056	39.297726
43805	9.118617	-5.041795	2.103116	-0.252391	0.339452	1.546882	-69.338659	-55.392820	39.535777
43806	9.248738	-5.136153	2.117201	-0.271527	0.355847	1.650841	-69.693886	-54.435819	39.779800
43807	9.069494	-5.254875	2.009666	-0.271036	0.391152	1.751146	-70.034733	-53.416989	40.009433
43808	9.005086	-5.403150	2.134428	-0.264213	0.414252	1.848857	-70.365481	-52.340299	40.234416
43809	8.837016	-5.459590	2.037126	-0.256754	0.461514	1.964062	-70.672755	-51.191590	40.438384
43810	8.477498	-5.617309	2.140445	-0.252403	0.500470	2.086003	-70.965911	-49.968934	40.630698
43811	8.158303	-5.904352	2.192948	-0.251455	0.522709	2.172556	-71.249509	-48.694665	40.814718
43812	8.387383	-6.222605	2.675086	-0.246459	0.535086	2.189854	-71.513436	-47.408150	40.979752
43813	10.013769	-7.488082	3.085470	-0.311842	0.519736	2.170715	-71.807876	-46.134358	41.138730
43814	9.516488	-7.101526	2.562243	-0.321114	0.549116	2.126031	-72.072035	-44.879103	41.251162
43815	7.734043	-6.491640	2.214821	-0.360778	0.495112	2.246552	-72.398161	-43.567281	41.422497
43816	8.232476	-7.101814	2.152027	-0.357223	0.508604	2.258926	-72.705388	-42.245576	41.573166
43817	8.395517	-7.044744	2.356856	-0.329326	0.557838	2.266776	-72.963310	-40.910919	41.677622
43818	8.129946	-7.060969	2.377364	-0.349904	0.629344	2.270657	-73.192525	-39.561692	41.722152
43819	7.730424	-7.278299	2.343322	-0.351570	0.694740	2.261615	-73.387036	-38.206824	41.711285
43820	7.773146	-7.778419	2.369793	-0.339299	0.746736	2.178173	-73.539407	-36.889051	41.642369
43821	7.359903	-7.512275	2.362237	-0.318361	0.865834	2.064075	-73.618067	-35.615173	41.467124
43822	5.779066	-7.314281	1.655144	-0.298566	0.900451	2.028610	-73.671904	-34.355004	41.262735
43823	4.134470	-7.163043	1.001902	-0.262469	0.883771	2.011822	-73.713921	-33.107312	41.067793
43824	2.712242	-6.976142	0.813336	-0.217806	0.739777	2.034438	-73.787436	-31.870010	40.972397
43825	1.614766	-7.411805	0.839282	-0.230831	0.388989	2.112082	-73.993642	-30.646292	41.115011
43826	1.560983	-7.509236	1.020566	-0.226623	-0.085077	2.169046	-74.346929	-29.464323	41.561192
43827	2.152262	-8.097483	0.740296	-0.250343	-0.499615	2.256872	-74.832294	-28.294348	42.269113
43828	2.845050	-9.219545	1.277654	-0.251255	-0.695469	2.363438	-75.361271	-27.088587	43.097640
43829	3.214244	-12.751897	2.279211	-0.258250	-0.771540	2.514744	-75.900383	-25.802940	43.975677
43830	6.097086	-12.660380	2.369578	0.078793	-1.010268	1.985547	-76.250711	-24.838379	44.900412
43831	7.417370	-10.103181	2.686331	0.057434	-0.734037	1.442161	-76.492937	-24.134772	45.563907
43832	6.801229	-10.072116	3.409258	0.178826	-0.364258	0.734964	-76.524387	-23.774349	45.893822
43833	5.791065	-10.338888	3.683635	0.254873	-0.000427	0.139355	-76.386937	-23.697263	45.914917
43834	3.963264	-10.633534	4.178030	0.344104	0.292865	-0.133748	-76.110277	-23.732182	45.717338
43835	2.234850	-10.887944	4.104948	0.416928	0.429205	-0.095853	-75.760823	-23.726179	45.442543
43836	0.814835	-10.861048	3.796500	0.478478	0.473748	0.147005	-75.380831	-23.577345	45.178807
43837	0.144664	-10.914072	3.284120	0.501450	0.428603	0.525237	-75.024101	-23.223939	45.004175
43838	-0.016119	-11.171567	2.653571	0.501015	0.355307	0.923322	-74.712396	-22.660495	44.941062
43839	-0.016433	-10.999245	2.134421	0.472275	0.202578	1.241589	-74.473479	-21.943822	45.024725
43840	0.361182	-10.637894	1.760326	0.377340	0.017622	1.478697	-74.343377	-21.125434	45.259393
43841	1.195813	-10.483128	1.694296	0.257670	-0.169569	1.628968	-74.326357	-20.252716	45.629139
43842	2.014971	-10.502054	1.810814	0.135961	-0.296217	1.677581	-74.400747	-19.373226	46.078544
43843	2.551800	-10.415259	2.172722	0.042598	-0.382525	1.675065	-74.537163	-18.506774	46.573885
43844	2.915219	-10.677285	2.397116	-0.027435	-0.404197	1.652852	-74.707837	-17.655450	47.073264
43845	2.958011	-10.890486	2.674898	-0.055125	-0.410938	1.632818	-74.886204	-16.813901	47.568428
43846	2.896485	-10.967499	2.851668	-0.045601	-0.408895	1.614497	-75.049569	-15.981652	48.054685
43847	2.667599	-11.222876	2.957368	-0.031536	-0.420147	1.600246	-75.198227	-15.156777	48.540961
43848	2.358342	-11.256282	2.869774	0.004851	-0.470493	1.581540	-75.324850	-14.349389	49.049253
43849	2.315302	-11.140793	2.824123	0.039243	-0.534550	1.583225	-75.433004	-13.548376	49.590948
43850	2.358080	-11.136348	2.748686	0.060754	-0.584874	1.584982	-75.527221	-12.753639	50.158213
43851	2.639845	-11.072075	2.854331	0.082344	-0.626042	1.588005	-75.605964	-11.961291	50.746383
43852	3.303114	-11.169047	2.997275	0.127780	-0.609214	1.560010	-75.647442	-11.182465	51.318318
43853	3.870069	-11.175569	3.169068	0.193073	-0.497094	1.496203	-75.630131	-10.422061	51.816055
43854	4.132414	-10.969093	3.364683	0.271085	-0.365829	1.361863	-75.545369	-9.718869	52.219798
43855	4.077435	-10.656584	3.346649	0.342558	-0.222649	1.177509	-75.397649	-9.097339	52.516887
43856	3.935671	-10.402034	3.304224	0.398489	-0.129384	0.986467	-75.202770	-8.569822	52.734903
43857	3.900646	-10.287403	3.141377	0.427226	-0.090669	0.800670	-74.982688	-8.139590	52.905266
43858	3.829721	-10.188145	3.074071	0.446200	-0.097103	0.593371	-74.747016	-7.826311	53.049436
43859	3.980346	-9.906687	3.039750	0.453550	-0.118342	0.360141	-74.503430	-7.645205	53.170949
43860	4.386619	-9.798612	3.146201	0.439796	-0.088017	0.091039	-74.259830	-7.608928	53.234419
43861	4.946570	-9.934792	3.268904	0.433848	-0.005927	-0.181901	-74.007802	-7.710181	53.209270
43862	5.124370	-9.931744	3.359797	0.434866	0.101283	-0.469853	-73.740690	-7.953060	53.077819
43863	5.412467	-9.847604	3.286794	0.434319	0.199307	-0.774651	-73.458118	-8.346929	52.840837
43864	5.428601	-9.581655	3.236771	0.416025	0.288113	-1.078923	-73.168880	-8.892063	52.501673
43865	5.436014	-9.214039	3.123117	0.401448	0.329063	-1.385338	-72.871675	-9.596748	52.084389
