// General information: 
//  MT Manager version: 2022.2.0 
//  XDA version: 2022.2.0 build 7381 rev 124627 built on 2023-07-19
// Device information: 
//  DeviceId: 00B4BAF3
//  ProductCode: MTW2-3A7G6
//  Firmware Version: 4.6.0
//  Hardware Version: 2.0.0
// Device settings: 
//  Filter Profile: human(46.1)
//  Option Flags: Orientation Smoother Disabled, Position/Velocity Smoother Disabled, Continuous Zero Rotation Update Disabled, AHS Disabled, ICC Disabled
// Coordinate system: ENU
PacketCounter	Acc_X	Acc_Y	Acc_Z	Gyr_X	Gyr_Y	Gyr_Z	Roll	Pitch	Yaw
07568	8.924113	1.127246	2.806325	0.430493	0.232918	-0.818219	34.361382	-71.376319	50.130350
07569	8.896544	1.364513	2.510030	0.587096	0.246494	-0.729617	35.472942	-71.023673	49.311923
07570	8.781817	1.391373	2.319263	0.727730	0.244333	-0.623847	36.493627	-70.701604	48.675004
07571	8.781879	1.638401	2.233027	0.837485	0.239585	-0.536329	37.440880	-70.409516	48.179760
07572	8.815892	1.521907	2.230397	0.838846	0.264175	-0.431657	38.214600	-70.139458	47.870480
07573	8.664442	1.208661	2.302652	0.911704	0.260945	-0.339595	38.904924	-69.903595	47.692206
07574	8.596504	1.307553	2.227637	1.020785	0.223150	-0.251366	39.580245	-69.714615	47.597864
07575	8.546470	1.632773	2.077499	1.121670	0.202839	-0.134176	40.186877	-69.578426	47.636737
07576	8.212493	2.172904	1.777987	1.157418	0.208437	0.011488	40.636218	-69.492900	47.866938
07577	7.909141	2.663206	1.703123	1.088041	0.200774	0.230360	40.797388	-69.494063	48.360878
07578	8.607263	2.292666	1.762119	0.939178	0.157450	0.320221	40.813081	-69.546812	48.920581
07579	8.285468	2.943309	1.385809	0.745648	0.111713	0.398758	40.668471	-69.649682	49.531123
07580	9.063699	1.743439	0.833237	0.367731	-0.019363	0.523891	40.287274	-69.854148	50.164109
07581	10.078053	1.354390	1.123125	0.165555	0.007039	0.459974	39.828586	-70.022950	50.753843
07582	9.554839	2.033441	1.821177	-0.018108	0.098955	0.345945	39.305060	-70.106806	51.301779
07583	9.190815	2.848855	2.363736	-0.059246	0.160204	0.291960	38.757632	-70.143164	51.848218
07584	9.273052	2.724198	2.684084	0.004685	0.029263	0.223782	38.461145	-70.211431	52.168347
07585	9.543271	1.598138	1.707458	-0.035488	-0.047679	0.260463	38.167393	-70.327727	52.459254
07586	9.145243	1.008873	0.799502	-0.011193	-0.032231	0.242417	37.893913	-70.429247	52.744910
07587	9.168235	1.921863	1.175126	0.176513	-0.092696	0.124272	37.934529	-70.517254	52.809557
07588	9.497769	2.841009	2.365185	0.140605	-0.132542	0.080209	38.052997	-70.606881	52.771458
07589	9.662622	2.588625	2.545404	-0.097834	-0.157294	0.122342	38.003736	-70.723404	52.764692
07590	9.488088	1.851449	2.230669	-0.055052	-0.111922	0.147533	37.902421	-70.827434	52.840741
07591	9.353886	2.185507	2.638521	0.044971	-0.077964	0.160476	37.803851	-70.921482	52.972775
07592	9.216456	2.138306	2.685005	0.077198	-0.057145	0.189185	37.666014	-71.015209	53.167521
07593	9.091146	2.260796	2.776015	0.143559	-0.055888	0.208248	37.535655	-71.115745	53.392729
07594	8.958044	2.336678	2.805939	0.133253	-0.043775	0.221062	37.370395	-71.214169	53.650171
07595	8.879371	2.402354	2.885141	0.106570	-0.049216	0.225694	37.184445	-71.317303	53.911434
07596	8.677417	2.465887	2.953916	0.076709	-0.070370	0.221106	37.009326	-71.427345	54.144812
07597	8.702502	2.272661	3.185531	0.025800	-0.104447	0.228707	36.824576	-71.556287	54.355661
07598	8.621611	1.902822	3.203532	0.007057	-0.128494	0.227286	36.655693	-71.694618	54.540108
07599	8.849116	1.345845	3.217578	0.027463	-0.161230	0.237065	36.513522	-71.852148	54.706786
07600	8.987650	1.125628	3.149661	0.157814	-0.177079	0.249373	36.445328	-72.020086	54.875818
07601	8.992880	1.273801	3.231462	0.271211	-0.164151	0.262125	36.405634	-72.187343	55.081255
07602	8.922708	1.010522	3.311644	0.353376	-0.148365	0.294878	36.348971	-72.357390	55.355424
07603	9.170470	1.016711	3.436108	0.515245	-0.154084	0.309713	36.364157	-72.536089	55.649558
07604	9.238460	1.177850	3.608528	0.618205	-0.126854	0.355426	36.340498	-72.716719	56.047509
07605	9.073782	0.602995	3.533746	0.714308	-0.116985	0.426535	36.247515	-72.917811	56.573655
07606	8.799956	0.244181	3.269894	0.929152	-0.113954	0.485461	36.179599	-73.136187	57.203192
07607	8.905926	0.111628	3.155445	1.222985	-0.152934	0.535822	36.235274	-73.390652	57.877197
07608	9.256434	0.133377	3.312439	1.475386	-0.173689	0.569125	36.399941	-73.665342	58.588758
07609	9.275868	0.540477	3.254491	1.656022	-0.166168	0.563238	36.658085	-73.936336	59.308428
07610	9.177066	0.695347	3.018735	1.718339	-0.170880	0.563760	36.950532	-74.209605	60.029764
07611	9.150380	1.047513	2.752794	1.778817	-0.198293	0.537288	37.345981	-74.488444	60.677945
07612	9.200211	2.003898	2.439522	1.837141	-0.230932	0.470170	37.925599	-74.759053	61.170022
07613	9.237620	3.096323	1.770191	1.818922	-0.285467	0.391841	38.698434	-75.028910	61.449419
07614	9.422600	4.047928	0.957312	1.678912	-0.302135	0.330584	39.527630	-75.283957	61.588362
07615	9.048747	4.172349	0.163607	1.379404	-0.290943	0.287077	40.252008	-75.519629	61.656951
07616	8.870768	4.433609	-0.579548	1.134351	-0.379656	0.222882	41.088397	-75.768991	61.466353
07617	9.331502	4.655079	-1.099268	0.817964	-0.464273	0.175360	41.968496	-76.036973	61.042563
07618	10.698513	3.763268	-0.358300	0.467700	-0.421426	0.088944	42.756051	-76.250801	60.509602
07619	11.580025	2.356857	1.490743	0.231543	-0.259559	-0.067809	43.430771	-76.335027	59.952080
07620	10.523041	0.829785	2.961795	0.042402	-0.073492	-0.012644	43.609503	-76.361600	59.795482
07621	9.481723	0.034320	2.753580	-0.121554	-0.222052	0.192649	43.581528	-76.532006	59.753042
07622	9.935480	-0.710341	1.363195	-0.213331	-0.420307	0.368259	43.527656	-76.852945	59.684971
07623	9.755715	-0.433966	1.104526	0.207194	-0.281369	0.249667	43.688971	-77.070489	59.641665
07624	9.537154	1.087599	2.628748	0.598740	-0.258275	0.171679	44.185186	-77.246423	59.486564
07625	9.232574	1.888466	3.440159	0.431146	-0.350204	0.233793	44.641971	-77.485615	59.272026
07626	9.012591	0.971946	2.019216	0.121035	-0.407986	0.324405	44.873830	-77.783498	59.107581
07627	8.991716	0.755792	1.021487	0.351732	-0.445349	0.284934	45.393337	-78.081307	58.782838
07628	9.084547	1.591123	1.195848	0.499417	-0.425974	0.240697	46.070226	-78.351414	58.385545
07629	9.418736	1.791744	0.893822	0.393858	-0.464519	0.272060	46.726356	-78.649887	57.946683
07630	9.296824	1.685437	0.609095	0.335762	-0.430063	0.265071	47.321422	-78.929907	57.538043
07631	9.319399	1.983686	0.743092	0.289631	-0.448624	0.249639	47.984540	-79.210763	57.032108
07632	9.317729	2.192095	0.823406	0.200613	-0.424578	0.237996	48.599069	-79.475283	56.525678
07633	9.433794	1.694984	1.049516	0.078701	-0.429690	0.250240	49.154609	-79.747151	56.007143
07634	9.734507	0.960338	1.159639	0.019181	-0.455537	0.229794	49.816062	-80.017590	55.348372
07635	9.485385	1.171266	0.989251	0.104536	-0.462932	0.171846	50.701501	-80.264766	54.510874
07636	9.457289	1.134329	1.178881	0.092739	-0.434754	0.226368	51.436826	-80.522900	53.820913
07637	9.277718	0.540110	0.780213	0.143941	-0.490471	0.246796	52.348984	-80.809415	52.980515
07638	9.695286	0.994350	0.651528	0.339760	-0.490941	0.220785	53.493248	-81.080569	52.020818
07639	9.773502	1.516787	0.891153	0.350445	-0.458005	0.250626	54.538933	-81.352685	51.166318
07640	9.741264	1.930150	0.692856	0.339673	-0.460859	0.239405	55.677586	-81.616767	50.213631
07641	9.757654	2.173049	0.771285	0.237132	-0.441730	0.244304	56.745009	-81.875489	49.272744
07642	9.835334	1.714705	0.313744	0.083053	-0.441753	0.255586	57.767802	-82.135927	48.289888
07643	9.864064	1.622127	0.215369	0.093121	-0.410506	0.226440	58.810526	-82.371472	47.291826
07644	9.771318	1.773687	0.588288	0.040699	-0.391892	0.211250	59.854570	-82.590344	46.264207
07645	9.701522	1.451521	0.408604	-0.055931	-0.401110	0.243169	60.866543	-82.826542	45.212095
07646	9.727868	1.294743	0.265925	-0.040998	-0.391102	0.239105	61.929193	-83.054191	44.119644
07647	9.670736	1.583737	0.633520	-0.034805	-0.360649	0.232351	62.946366	-83.269170	43.075517
07648	9.529938	1.492851	0.486497	-0.089458	-0.374032	0.246061	64.034317	-83.490940	41.930666
07649	9.582082	1.083714	0.285436	-0.130456	-0.376318	0.250949	65.172058	-83.714549	40.711001
07650	9.844455	0.840049	0.258110	-0.129047	-0.366979	0.226223	66.408696	-83.918798	39.394765
07651	9.894549	0.695090	0.222666	-0.131641	-0.347942	0.220922	67.640490	-84.114280	38.080804
07652	9.889720	0.658289	0.077251	-0.110232	-0.373654	0.199003	69.158589	-84.298783	36.493414
07653	10.030851	0.729179	-0.201686	-0.109234	-0.359595	0.208388	70.678696	-84.482654	34.903524
07654	9.949818	0.736023	-0.465001	-0.084479	-0.322016	0.188361	72.141304	-84.643289	33.387648
07655	9.885164	1.179613	-0.300604	0.018486	-0.272822	0.171018	73.485053	-84.783923	32.049212
07656	9.785641	1.407697	0.024328	-0.021920	-0.256986	0.182333	74.765116	-84.924055	30.753333
07657	9.779479	1.259703	-0.191515	-0.087562	-0.252393	0.191155	76.032067	-85.067198	29.431589
07658	9.759266	1.037835	-0.383975	-0.075322	-0.230940	0.208952	77.216682	-85.213481	28.201396
07659	9.671107	1.269904	-0.216616	0.015905	-0.213652	0.208402	78.407611	-85.356613	27.015982
07660	9.608103	1.686970	0.227179	0.013121	-0.193371	0.214280	79.522788	-85.497369	25.906821
07661	9.658457	1.638721	0.391519	-0.100598	-0.211600	0.232064	80.753328	-85.649586	24.615205
07662	9.659679	1.313507	0.101702	-0.178712	-0.206349	0.238840	81.984233	-85.801474	23.280270
07663	9.762870	1.204874	-0.032733	-0.181803	-0.207830	0.229576	83.326756	-85.947478	21.830240
07664	9.868379	1.027316	-0.093667	-0.237148	-0.196693	0.243301	84.639070	-86.096591	20.380665
07665	9.876955	0.683920	-0.411108	-0.262286	-0.212920	0.266602	86.171723	-86.258808	18.694399
07666	9.918622	0.551429	-0.630189	-0.228644	-0.184118	0.262222	87.608073	-86.413050	17.125956
07667	9.856410	0.895184	-0.408501	-0.126466	-0.130964	0.225187	88.737472	-86.544425	15.922239
07668	9.801152	1.080552	-0.023352	-0.202107	-0.122956	0.237107	89.836136	-86.679499	14.707782
07669	9.763457	0.671789	-0.490692	-0.276492	-0.140047	0.245925	91.166311	-86.819603	13.217205
07670	9.821593	0.456845	-0.565079	-0.250337	-0.094483	0.230028	92.143329	-86.947987	12.097245
07671	9.807932	0.303340	-0.329696	-0.229467	-0.084743	0.223268	93.111552	-87.073337	10.996463
07672	9.721041	0.297933	-0.458532	-0.149137	-0.074838	0.224516	94.103752	-87.197135	9.919605
07673	9.712243	0.861737	-0.193242	-0.101526	-0.053830	0.205886	94.944369	-87.311984	9.020200
07674	9.791755	0.812878	-0.094890	-0.188557	-0.050337	0.225192	95.790750	-87.435758	8.066925
07675	9.785194	0.730072	-0.150366	-0.200041	-0.055754	0.210671	96.772711	-87.551837	6.969713
07676	9.737211	0.702447	-0.216891	-0.201731	-0.031204	0.212079	97.514228	-87.668082	6.114028
07677	9.754205	0.663950	-0.153344	-0.234284	-0.024368	0.213107	98.225907	-87.786630	5.267863
07678	9.776146	0.374732	-0.254353	-0.247615	-0.031529	0.228100	99.161514	-87.910893	4.191799
07679	9.828278	0.351632	-0.342698	-0.188617	-0.021472	0.224057	100.087376	-88.034823	3.157635
07680	9.754616	0.650119	-0.213541	-0.149916	0.007544	0.223269	100.650904	-88.159154	2.510025
07681	9.657316	0.814244	-0.114917	-0.184131	0.013046	0.230814	101.214104	-88.289766	1.841420
07682	9.704137	0.948680	-0.039607	-0.220588	0.014949	0.220357	101.765531	-88.412833	1.165522
07683	9.796851	0.778569	-0.027318	-0.322859	0.023645	0.222222	102.187306	-88.539490	0.558963
07684	9.828611	0.372480	-0.220714	-0.378381	0.006919	0.236743	103.142997	-88.670250	-0.611638
07685	9.681300	0.050307	-0.219767	-0.402772	0.029002	0.208241	103.558838	-88.789398	-1.257995
07686	9.828575	0.240579	-0.130460	-0.387930	0.038009	0.167524	103.531200	-88.885315	-1.450437
07687	9.815800	-0.119890	-0.082984	-0.467966	0.056070	0.157018	102.844559	-88.979466	-1.031434
07688	9.848269	-0.398714	-0.135460	-0.456392	0.032664	0.130185	102.633132	-89.053900	-1.079296
07689	9.946412	-0.573888	-0.247279	-0.453418	0.050946	0.119223	101.668770	-89.126107	-0.374219
07690	9.639358	-0.025746	-0.472552	-0.371747	0.042800	0.056112	100.442096	-89.160045	0.641732
07691	10.354049	-0.150074	1.049502	-0.574857	0.212795	0.048438	92.057452	-89.200596	8.698244
07692	9.501989	-1.037943	-0.021795	-0.607197	-0.065677	0.025426	94.697162	-89.211013	5.712479
07693	9.928035	-0.671387	-1.083241	-0.233246	0.030170	0.071823	93.729469	-89.253022	6.547021
07694	8.787415	-1.442594	0.530495	-0.189394	0.188998	0.020159	85.492964	-89.262223	14.677753
07695	10.044487	-0.560190	-0.441039	-0.040111	-0.157778	0.002694	92.743511	-89.265131	7.404039
07696	9.805635	-0.056598	-0.094369	-0.005110	0.189146	-0.051549	84.764161	-89.231658	15.383114
07697	9.557367	0.301194	0.845815	0.112851	0.004829	-0.092883	85.185669	-89.178590	15.026646
07698	10.042608	0.404329	-0.190426	-0.074707	-0.073178	-0.005752	88.293015	-89.176290	11.878124
07699	9.707673	-0.458241	-0.401205	-0.101775	0.042179	-0.010808	86.792293	-89.169118	13.321099
07700	9.940060	-0.213370	-0.724522	0.011365	-0.022983	-0.042055	87.982974	-89.144232	12.138740
07701	9.962620	-0.263756	-0.765855	-0.064134	0.063783	-0.040653	85.822784	-89.119081	14.262844
07702	9.824017	0.031634	-0.476084	0.042635	0.065958	-0.156641	84.206939	-89.025132	15.905251
07703	9.954758	0.457922	-0.052880	-0.006787	0.089631	-0.136844	82.030677	-88.941410	18.078381
07704	9.864287	0.001581	-0.452640	-0.073344	0.057326	-0.093044	80.873283	-88.882767	19.195879
07705	9.849327	-0.102967	-0.706214	0.040484	0.116292	-0.124200	78.435095	-88.801247	21.658180
07706	9.695407	0.220101	0.089467	0.140804	0.168619	-0.141900	75.212748	-88.699287	24.963904
07707	9.613488	0.337920	0.326484	0.134119	0.107397	-0.107195	73.586352	-88.624317	26.668025
07708	9.689026	0.082167	0.076595	0.163127	0.101365	-0.087403	72.165430	-88.558856	28.184784
07709	9.525533	-0.092271	0.078645	0.249424	0.104642	-0.084331	70.807812	-88.494888	29.686223
07710	9.520995	0.157347	0.265348	0.321361	0.096822	-0.090418	69.829080	-88.427105	30.851394
07711	9.546447	0.535168	0.429821	0.341046	0.092323	-0.099797	69.078124	-88.355990	31.798544
07712	9.605899	0.846468	0.429861	0.297172	0.066088	-0.090397	68.797769	-88.293809	32.251248
07713	9.616270	0.798400	0.189404	0.206819	0.063290	-0.074778	68.411772	-88.241726	32.756390
07714	9.743888	0.847092	0.141559	0.148607	0.058231	-0.086339	68.203313	-88.183190	33.052058
07715	9.820718	0.916555	0.167778	0.053014	0.062934	-0.096813	67.928189	-88.119331	33.358132
07716	9.924404	0.597122	-0.031285	-0.039134	0.060860	-0.088026	67.617131	-88.059209	33.648887
07717	9.913417	0.294052	-0.272359	-0.068445	0.088033	-0.104323	66.981002	-87.985702	34.246572
07718	9.824052	0.184391	-0.096811	-0.057383	0.112484	-0.128615	66.217732	-87.892305	34.979406
07719	9.703249	0.215217	0.021003	-0.053936	0.114598	-0.136610	65.520299	-87.795201	35.646825
07720	9.640267	0.216379	0.097187	-0.025288	0.107152	-0.141135	65.039798	-87.696002	36.115159
07721	9.566993	0.394854	0.232958	0.016738	0.101676	-0.141801	64.674301	-87.598924	36.490978
07722	9.639476	0.565992	0.333444	0.056216	0.088664	-0.128661	64.457993	-87.510514	36.741674
07723	9.672620	0.672509	0.364836	0.075722	0.080835	-0.107480	64.223001	-87.436197	37.020740
07724	9.714122	0.722480	0.301466	0.102584	0.075982	-0.094083	64.016489	-87.368686	37.288261
07725	9.708501	0.762630	0.263645	0.119693	0.075145	-0.077655	63.734734	-87.311051	37.639390
07726	9.700864	0.640616	0.193081	0.114392	0.078921	-0.060608	63.348959	-87.259821	38.093192
07727	9.716099	0.511551	0.116396	0.113324	0.084328	-0.066356	62.934855	-87.205379	38.573202
07728	9.668477	0.440234	0.127709	0.096955	0.085633	-0.071681	62.560855	-87.146452	39.005262
07729	9.760456	0.510403	0.208990	0.087321	0.073069	-0.092797	62.416247	-87.081293	39.200566
07730	9.744358	0.446294	0.232845	0.048073	0.077880	-0.101768	62.272690	-87.009015	39.373879
07731	9.712100	0.452506	0.227189	0.026000	0.080607	-0.116703	62.156586	-86.929679	39.505481
07732	9.721308	0.335384	0.210295	0.018909	0.075049	-0.123062	62.140739	-86.847345	39.534181
07733	9.757857	0.482290	0.307111	0.023768	0.069929	-0.140757	62.242767	-86.758670	39.446052
07734	9.881738	0.423416	0.357002	0.002169	0.067490	-0.131726	62.322389	-86.673968	39.369512
07735	9.827372	0.365023	0.426216	0.027198	0.068450	-0.136398	62.410356	-86.587884	39.297421
07736	9.732918	0.452207	0.493687	0.052571	0.063227	-0.142899	62.594136	-86.498621	39.145433
07737	9.814550	0.519202	0.553281	0.070708	0.050121	-0.151717	62.909606	-86.409515	38.870366
07738	9.828721	0.532344	0.700976	0.073806	0.040864	-0.155488	63.313958	-86.319519	38.509506
07739	9.759163	0.478875	0.623383	0.037575	0.034630	-0.165665	63.755040	-86.226991	38.089483
07740	9.783515	0.263345	0.475264	0.023151	0.036520	-0.197709	64.282134	-86.115981	37.576416
07741	9.740240	-0.022482	0.338251	-0.006741	0.048390	-0.222886	64.752593	-85.990010	37.101386
07742	9.562060	-0.088551	0.260470	-0.003145	0.043935	-0.259782	65.360096	-85.844389	36.492399
07743	9.592856	0.307348	0.315376	0.026119	0.020955	-0.310955	66.250837	-85.678125	35.614640
07744	9.747638	0.735469	0.238622	0.003930	-0.009562	-0.355760	67.403016	-85.492771	34.463115
07745	9.745248	0.977822	0.154596	-0.039145	0.015101	-0.395708	68.374611	-85.280530	33.466282
07746	9.630687	0.994095	0.248258	-0.084467	0.047613	-0.436227	69.137031	-85.037451	32.654394
07747	9.597965	1.088956	0.386443	-0.121154	0.054193	-0.481551	69.857749	-84.769130	31.861544
07748	9.564155	1.071374	0.619195	-0.163529	0.054082	-0.510526	70.544914	-84.483070	31.079083
07749	9.627725	1.121926	0.683758	-0.211316	0.013626	-0.530198	71.378735	-84.194267	30.119930
07750	9.674576	1.123036	0.366185	-0.279069	0.012366	-0.509313	72.066596	-83.914490	29.269434
07751	9.785866	0.876054	0.457242	-0.311787	0.030510	-0.499434	72.559655	-83.637396	28.594174
07752	9.972836	1.087249	0.561645	-0.307478	-0.002420	-0.558196	73.248743	-83.331576	27.725128
07753	10.043812	1.369029	0.676368	-0.363057	0.021687	-0.573226	73.745473	-83.013925	27.015772
07754	9.727715	1.462916	0.842415	-0.483477	0.032941	-0.516594	74.008051	-82.723738	26.473806
07755	9.809685	1.963236	0.775822	-0.604816	0.001021	-0.463521	74.239425	-82.468884	25.891462
07756	9.950592	2.166603	1.112457	-0.872006	0.044292	-0.347151	73.989376	-82.269970	25.641504
07757	10.047774	2.071074	1.391772	-1.130785	0.040941	-0.310687	73.561547	-82.093270	25.419797
07758	10.014116	1.819842	1.391529	-1.369049	0.044634	-0.254541	72.926157	-81.945554	25.271197
07759	9.881036	0.981687	1.539467	-1.493017	0.110824	-0.191230	71.899364	-81.822768	25.444710
07760	9.685102	0.728837	2.180607	-1.439154	0.168213	-0.132909	70.635158	-81.719082	25.890757
07761	9.745770	0.207802	2.947116	-1.464583	0.225072	-0.004387	68.992867	-81.673200	26.702835
07762	9.203400	0.388448	2.785854	-1.285554	0.200738	-0.008240	67.561042	-81.625796	27.407258
07763	9.180942	0.612369	2.618295	-1.120293	0.166121	0.165017	66.089103	-81.676384	28.246630
07764	8.924683	0.196953	2.128205	-0.959588	0.143905	0.330526	64.497068	-81.813661	29.301373
07765	8.938032	-0.103160	1.793071	-0.701284	0.143817	0.451613	62.787133	-82.010225	30.623063
07766	8.765252	-0.171125	1.759606	-0.388441	0.145632	0.558126	60.960810	-82.252824	32.243547
07767	8.775442	0.213199	1.760971	-0.101406	0.108912	0.671480	59.075987	-82.556380	34.086850
07768	8.996101	0.330447	1.457863	0.116289	0.099445	0.799435	56.878356	-82.914676	36.370801
07769	9.203297	0.454450	1.263939	0.359362	0.124413	0.904775	54.191743	-83.303524	39.284756
07770	9.812300	0.737522	1.356124	0.554314	0.085561	0.994215	51.148721	-83.727267	42.668319
07771	10.117364	1.297165	0.609398	0.679858	-0.026712	1.014128	48.117104	-84.182005	46.108983
07772	9.964466	2.036267	-0.751651	0.763227	-0.140502	0.859558	45.754463	-84.597458	48.923732
07773	8.425648	3.251729	-3.180109	1.021627	-0.405949	0.681333	45.173646	-85.040952	50.095095
07774	8.725202	4.634128	-5.144762	1.567526	-0.808743	0.370861	48.433428	-85.513727	47.726979
07775	11.078639	5.872409	-4.761514	2.240679	-0.575150	0.037492	52.904980	-85.741155	44.530371
07776	11.057687	7.279505	-1.634360	2.802850	0.476460	0.230462	50.609040	-85.676217	48.445206
07777	8.684904	8.364720	3.707445	1.691325	0.845752	0.597822	43.888962	-85.600638	56.157034
07778	7.748190	6.685958	1.269476	-0.386618	-0.168143	0.930606	39.134455	-86.027107	60.704673
07779	10.008400	4.516638	-3.167724	-1.608619	-0.664763	1.160752	33.320819	-86.730447	65.606727
07780	9.529833	0.688410	-4.176457	-2.043856	0.033965	1.050508	22.328334	-86.996466	75.445765
07781	8.103910	-2.655401	-1.719892	-0.803880	0.321713	0.650408	14.109383	-86.940628	83.215382
07782	8.572742	-2.235174	1.904334	0.064157	0.173589	0.256362	11.149972	-86.878171	86.218857
07783	8.756030	-1.095145	3.129315	0.008145	0.015478	0.309244	7.922343	-86.901780	89.456338
07784	9.496791	-0.355604	2.793154	-0.149913	-0.307252	0.387106	4.027646	-87.102783	93.273105
07785	9.677665	-1.190531	1.823395	-0.392236	-0.278545	0.579537	-2.921734	-87.268907	100.006263
07786	9.265045	-1.554358	1.355943	-0.139260	-0.318800	0.479896	-9.276867	-87.424636	106.290954
07787	9.656282	-0.508371	0.990117	-0.062582	-0.358261	0.443337	-16.032337	-87.572514	113.017375
07788	9.401370	-0.826733	0.239266	-0.194679	-0.359133	0.468610	-23.897880	-87.677897	120.780537
07789	9.788010	-0.624295	-0.756551	-0.189169	-0.449040	0.421431	-32.505227	-87.793568	129.286530
07790	10.127500	-0.219144	-1.414356	-0.182180	-0.348517	0.341689	-39.850728	-87.842922	136.535345
07791	10.207296	0.240401	-0.849337	-0.242351	-0.248838	0.255521	-45.478027	-87.850847	142.028078
07792	10.414670	0.191694	-0.215368	-0.483950	-0.204680	0.223348	-50.363444	-87.838125	146.641946
07793	10.327968	-0.618471	-0.204227	-0.673507	-0.171345	0.219052	-54.861362	-87.799903	150.757371
07794	10.104900	-1.415780	-0.285532	-0.709654	-0.148845	0.204873	-58.790272	-87.751835	154.284800
07795	10.003226	-1.769160	-0.196135	-0.577952	-0.148384	0.132252	-62.009782	-87.729510	157.175834
07796	9.967702	-1.837399	0.128876	-0.405046	-0.130452	0.121215	-64.739264	-87.704204	159.677586
07797	9.766312	-1.952244	0.409490	-0.247850	-0.143759	0.101025	-67.403252	-87.686008	162.202029
07798	9.797577	-2.028189	0.315452	-0.147627	-0.131610	0.082427	-69.693863	-87.672624	164.412094
07799	9.667746	-2.147100	0.116860	-0.027773	-0.145544	0.063716	-72.009579	-87.666564	166.714221
07800	9.995812	-1.900035	-0.426785	0.094053	-0.182666	0.025271	-74.583137	-87.685465	169.345912
07801	9.990390	-1.644913	-0.842086	0.203481	-0.146240	-0.013605	-76.511003	-87.714769	171.392433
07802	10.078070	-0.948446	-0.715061	0.279617	-0.097412	-0.091178	-77.497816	-87.780658	172.542315
07803	10.020098	-0.385193	-0.409894	0.217444	-0.060134	-0.124291	-77.936830	-87.858298	173.106744
07804	10.102187	-0.113475	-0.349483	0.121091	-0.055373	-0.143142	-78.325360	-87.947450	173.566909
07805	10.058288	-0.085217	-0.337542	0.047631	-0.021333	-0.136232	-78.272202	-88.027058	173.541447
07806	9.868156	-0.169581	-0.326100	0.058100	-0.010833	-0.133611	-78.030949	-88.105640	173.335325
07807	10.026745	0.134253	-0.223788	0.109381	0.014642	-0.144363	-77.259539	-88.185375	172.626636
07808	9.934234	0.078334	0.192314	0.078512	0.058878	-0.133394	-75.666578	-88.254278	171.079890
07809	9.769672	-0.064395	0.333330	0.041316	0.035915	-0.118029	-74.494665	-88.315190	169.931557
07810	9.802403	-0.047231	0.119265	0.059052	0.027984	-0.130123	-73.292921	-88.384989	168.765152
07811	9.824444	-0.041668	0.114312	0.050283	0.029738	-0.126462	-71.997030	-88.450055	167.498009
07812	9.805188	-0.225219	-0.142151	0.035130	0.035064	-0.119997	-70.514004	-88.511445	166.036593
07813	9.782256	-0.250433	-0.169816	0.055853	0.047095	-0.137770	-68.510864	-88.577095	164.065240
07814	9.757654	-0.081264	-0.069218	0.055278	0.053234	-0.141126	-66.122831	-88.642843	161.710176
07815	9.750897	-0.111993	-0.043770	0.049538	0.057984	-0.131909	-63.530091	-88.698494	159.145552
07816	9.837902	-0.158921	-0.199131	0.071018	0.053018	-0.127228	-60.838398	-88.751888	156.495887
07817	9.856425	-0.162605	-0.281036	0.103805	0.070227	-0.123574	-57.593032	-88.793765	153.309688
07818	9.916275	-0.057915	-0.108733	0.134893	0.080334	-0.117016	-53.942411	-88.826607	149.737578
07819	9.917527	-0.014199	0.029579	0.144675	0.090119	-0.118627	-49.902233	-88.850221	145.779901
07820	9.928194	0.108546	0.047955	0.156331	0.099203	-0.117075	-45.494567	-88.865081	141.462946
07821	9.896389	0.106260	0.134897	0.158574	0.100578	-0.114380	-41.092280	-88.870353	137.151096
07822	10.025402	0.008999	0.070291	0.149599	0.100169	-0.104645	-36.845268	-88.867070	132.990997
07823	10.033521	-0.165676	0.035924	0.176463	0.110083	-0.101674	-32.618614	-88.850964	128.865053
07824	9.999398	-0.030863	0.071058	0.203507	0.120419	-0.096552	-28.428394	-88.823297	124.792605
07825	9.815095	0.001594	0.072731	0.210903	0.120180	-0.093365	-24.597422	-88.788304	121.082088
07826	9.833950	-0.018003	0.087309	0.208526	0.117911	-0.089018	-21.048949	-88.749475	117.654311
07827	9.788356	-0.120940	0.308614	0.184384	0.128222	-0.095605	-17.569248	-88.701136	114.279842
07828	9.630985	-0.142514	0.606158	0.158347	0.132657	-0.109652	-13.932903	-88.648605	110.735282
07829	9.640826	-0.098644	1.029450	0.179815	0.105875	-0.133912	-10.188918	-88.608290	107.093702
07830	9.723504	0.074721	1.392655	0.247786	0.059640	-0.140107	-6.540606	-88.589556	103.588298
07831	9.737092	0.269329	1.601110	0.236110	0.005415	-0.109366	-3.861657	-88.595190	101.044285
07832	9.642608	-0.121045	0.689698	0.086610	-0.060540	-0.010951	-3.578427	-88.633401	100.812578
07833	9.448185	-0.520644	-0.034815	0.223273	-0.079154	-0.036859	-2.658833	-88.682882	100.021114
07834	9.755219	-0.253801	0.083661	0.378495	-0.052374	-0.056872	-0.973251	-88.717043	98.553946
07835	9.762955	-0.513597	0.763871	0.367785	-0.094234	-0.056909	0.725048	-88.774157	97.066439
07836	10.313353	-0.824243	0.437397	0.286460	-0.183928	-0.053437	2.626586	-88.881631	95.330553
07837	10.253447	-1.082337	-0.502975	0.259473	-0.137466	-0.040593	4.275112	-88.961894	93.830852
07838	10.111199	-0.569471	-1.015398	0.536098	-0.054956	-0.094073	7.880292	-88.990415	90.534114
07839	10.058124	0.742184	-0.269373	0.760619	0.028497	-0.167466	13.455372	-88.959555	85.394438
07840	10.126117	1.584203	0.481407	0.672288	0.052167	-0.115327	16.988983	-88.915987	82.247297
07841	9.805453	1.276966	1.214214	0.372708	0.095379	-0.038757	17.511135	-88.860097	81.939055
07842	9.262952	0.350402	1.262866	0.311762	0.060211	0.009326	17.058972	-88.831223	82.571869
07843	9.473405	0.005772	0.833357	0.368675	-0.007653	0.046757	16.112575	-88.845971	83.730161
07844	9.652574	-0.892149	0.682142	0.376319	0.057439	0.104625	13.179656	-88.831821	86.881219
07845	9.426828	-1.266729	1.039002	0.717027	0.154014	0.084059	10.521451	-88.758288	89.951351
07846	9.217992	-0.613803	1.368206	0.977812	0.166391	0.107164	7.792258	-88.676656	93.243390
07847	9.098779	1.006362	0.410738	1.091416	0.021148	0.124556	5.308212	-88.675777	96.354023
07848	8.889637	1.311144	-1.454006	0.745622	-0.129143	0.145001	2.338817	-88.758094	99.753244
07849	10.282584	2.593986	-2.634803	0.686233	-0.041574	0.013721	2.421878	-88.785261	100.063859
07850	9.057395	1.917848	-0.807837	0.325070	0.207692	0.054303	1.129475	-88.670455	101.544823
07851	9.557220	1.867529	-0.232652	0.174892	0.013784	-0.031021	1.991865	-88.665120	100.782856
07852	9.251290	1.243031	-0.287449	-0.093018	0.130759	0.036883	1.059402	-88.594040	101.664362
07853	9.154738	1.378882	-0.125852	-0.033022	0.053366	-0.016187	1.394461	-88.566317	101.310698
07854	9.081130	1.496636	-0.413272	-0.195331	0.147638	0.040719	0.408090	-88.485406	102.187622
07855	8.731150	1.554636	-0.297446	-0.122425	0.097695	0.006557	0.191428	-88.432498	102.334616
07856	9.028882	2.064972	-0.215636	-0.153029	0.151388	0.044685	-0.714908	-88.349032	103.155891
07857	8.676176	1.711568	0.179413	-0.165900	0.163946	0.056270	-1.826881	-88.257450	104.173679
07858	9.358159	1.589872	0.566042	-0.148490	0.110537	0.047796	-2.643835	-88.196582	104.908330
07859	9.863871	0.808179	0.628518	-0.301303	0.097955	0.180977	-5.919850	-88.135895	108.013725
07860	9.872299	-0.487652	0.188495	-0.468905	0.022442	0.337677	-11.884169	-88.096901	113.714948
07861	10.276501	-1.003150	-0.525641	-0.332063	-0.044541	0.290671	-17.122415	-88.082856	118.766162
07862	10.321693	-0.407867	0.207097	-0.024686	0.108458	0.163531	-19.138323	-87.998589	120.771538
07863	10.048534	0.182328	1.426003	-0.026946	0.090639	0.173043	-21.287661	-87.918472	122.907215
07864	9.871986	-0.360337	0.974134	-0.329431	-0.005578	0.242647	-24.964684	-87.870789	126.400262
07865	9.737213	-1.175387	0.156150	-0.357490	-0.006200	0.239995	-28.506722	-87.814835	129.740263
07866	9.655203	-1.201568	0.164924	-0.177143	0.021079	0.129073	-30.117471	-87.772110	131.252993
07867	9.684614	-1.022157	0.409023	-0.157650	-0.006776	0.109763	-31.675582	-87.745802	132.722324
07868	9.822761	-1.327245	0.131150	-0.155073	-0.037723	0.096519	-33.238807	-87.738340	134.200123
07869	9.834575	-1.352676	0.100318	-0.063077	-0.014078	0.061527	-34.169513	-87.728068	135.095814
07870	9.815139	-0.914481	0.422423	0.017517	-0.014241	0.025355	-34.580454	-87.730533	135.519312
07871	9.742270	-0.742491	0.605674	0.010897	-0.011806	0.027094	-35.034988	-87.729774	135.980876
07872	9.636610	-0.680256	0.533360	0.036633	-0.032149	0.022895	-35.558902	-87.741110	136.528335
07873	9.556574	-0.426432	0.503175	0.057047	-0.034964	0.003961	-35.914082	-87.758565	136.916925
07874	9.592839	-0.269719	0.435855	0.047704	-0.056696	-0.001476	-36.369135	-87.789140	137.401763
07875	9.610692	-0.309254	0.265340	0.037933	-0.057727	-0.010815	-36.777108	-87.821890	137.832210
07876	9.719546	-0.137135	0.243924	0.052596	-0.063104	-0.020116	-37.087980	-87.861542	138.175529
07877	9.818919	-0.059098	0.302016	0.050693	-0.062244	-0.026804	-37.359243	-87.901706	138.476466
07878	9.990469	0.069892	0.272213	0.038847	-0.058940	-0.024318	-37.608965	-87.940807	138.750690
07879	9.913290	0.081096	0.357744	0.012834	-0.046847	-0.021422	-37.839839	-87.972007	138.989494
07880	9.906464	0.089932	0.412262	-0.004856	-0.044169	-0.024534	-37.980734	-88.004440	139.129762
07881	9.821419	0.010636	0.487873	-0.021904	-0.040000	-0.021304	-38.176175	-88.032457	139.313187
07882	9.761866	-0.104206	0.509744	-0.017819	-0.045773	-0.019478	-38.418000	-88.063777	139.547009
07883	9.615328	-0.135362	0.501115	-0.001438	-0.060821	-0.016467	-38.903322	-88.099312	140.032204
07884	9.581333	-0.152458	0.401828	0.015293	-0.074588	-0.012705	-39.559951	-88.140816	140.700012
07885	9.639618	-0.180200	0.262829	0.044524	-0.083473	-0.001084	-40.536531	-88.180213	141.703044
07886	9.653949	-0.144673	0.171555	0.072254	-0.089155	-0.000236	-41.578573	-88.222592	142.789062
07887	9.729978	-0.024353	0.097590	0.078946	-0.090811	-0.003331	-42.689872	-88.264773	143.946562
07888	9.716825	-0.054971	0.081029	0.062740	-0.083305	0.000087	-43.770492	-88.303269	145.065668
07889	9.744701	0.060208	0.033087	0.058008	-0.077980	-0.012889	-44.691225	-88.342676	146.020472
07890	9.793542	0.204287	0.288764	0.016717	-0.045674	-0.018989	-45.086068	-88.372639	146.427100
07891	9.723604	0.208515	0.315540	-0.038383	-0.068689	-0.021137	-45.880143	-88.411063	147.199912
07892	9.749771	0.045972	0.229713	-0.086238	-0.063968	-0.017917	-46.669583	-88.447548	147.942272
07893	9.750889	-0.081444	0.197393	-0.078710	-0.070315	-0.016590	-47.657391	-88.484042	148.885745
07894	9.728499	-0.116332	0.071281	-0.082742	-0.064831	-0.014920	-48.582576	-88.518906	149.765871
07895	9.681488	-0.071503	0.125800	-0.073512	-0.062079	-0.026452	-49.373627	-88.555748	150.515472
07896	9.713919	-0.022835	0.259449	-0.091473	-0.059921	-0.031570	-50.053878	-88.595417	151.145549
07897	9.821201	-0.078989	0.230636	-0.103689	-0.070508	-0.039142	-50.908354	-88.640426	151.941273
07898	9.824787	-0.059104	0.303621	-0.127451	-0.055613	-0.041757	-51.453466	-88.682675	152.415524
07899	9.739540	-0.229230	0.216245	-0.157269	-0.065202	-0.040542	-52.312502	-88.725957	153.185074
07900	9.609324	-0.426573	0.015593	-0.142026	-0.059925	-0.052693	-52.861896	-88.774385	153.655225
07901	9.668578	-0.308806	0.074278	-0.103751	-0.064024	-0.068051	-53.317956	-88.829486	154.052352
07902	9.740722	-0.384375	0.043197	-0.097209	-0.066442	-0.069827	-53.785937	-88.887829	154.466712
07903	9.791210	-0.392906	-0.128129	-0.069015	-0.068607	-0.078074	-54.245786	-88.948979	154.887520
07904	9.812867	-0.215452	-0.078612	-0.033154	-0.054299	-0.089568	-54.073415	-89.012309	154.698090
07905	9.739005	-0.049710	0.024032	-0.047519	-0.046359	-0.087628	-53.760270	-89.070389	154.358098
07906	9.723972	0.003192	0.094501	-0.054908	-0.038457	-0.091561	-53.014555	-89.129168	153.582785
07907	9.708906	0.056397	0.165303	-0.063124	-0.040876	-0.096213	-52.198762	-89.189105	152.731159
07908	9.695884	0.034561	0.152696	-0.077322	-0.047204	-0.091933	-51.510307	-89.250798	152.000288
07909	9.785545	-0.103248	-0.090406	-0.072750	-0.049806	-0.095575	-50.768333	-89.313320	151.216996
07910	9.820131	-0.172175	-0.074272	-0.054154	-0.049048	-0.092493	-49.835118	-89.375641	150.254637
07911	9.756438	-0.113902	-0.160357	-0.025493	-0.043146	-0.096017	-48.397079	-89.435475	148.802340
07912	9.780036	0.085429	-0.120128	-0.014940	-0.046202	-0.089329	-46.921241	-89.494783	147.319812
07913	9.790413	0.253359	-0.088104	-0.020486	-0.039995	-0.085225	-45.102158	-89.548013	145.489354
07914	9.778183	0.326524	-0.028656	-0.037585	-0.035986	-0.081775	-42.612291	-89.599076	142.979823
07915	9.761593	0.335932	-0.083702	-0.068274	-0.028527	-0.075414	-39.652957	-89.642173	139.981732
07916	9.790063	0.222765	-0.041964	-0.080635	-0.027421	-0.072161	-35.842900	-89.683734	136.127363
07917	9.812112	0.120509	-0.032080	-0.090397	-0.024344	-0.064202	-31.838567	-89.718403	132.071608
07918	9.782599	-0.051952	-0.111324	-0.060441	-0.021799	-0.062627	-26.375805	-89.750633	126.576115
07919	9.733613	0.015445	0.087532	-0.031600	-0.017212	-0.057928	-20.233845	-89.775688	120.416424
07920	9.707744	-0.088863	0.032535	-0.020448	-0.025143	-0.052464	-13.291819	-89.801896	113.464583
07921	9.758259	-0.055638	-0.007607	0.013143	-0.022311	-0.052804	-4.904265	-89.822380	105.084940
07922	9.658891	-0.025392	-0.092264	0.028725	-0.025521	-0.053889	6.361927	-89.839923	93.837090
07923	9.585865	0.060508	-0.069115	0.042445	-0.029254	-0.053350	19.182631	-89.852545	81.041086
07924	10.061854	0.171597	-0.115961	0.108487	-0.031032	-0.071332	37.741367	-89.850596	62.546370
07925	9.695884	0.248011	0.172515	0.002925	0.005900	-0.034972	43.281520	-89.837258	57.008300
07926	9.722816	0.087608	-0.324646	0.018807	-0.049448	-0.058617	59.453268	-89.829111	40.849183
07927	9.928767	0.079827	-0.094007	0.043325	0.016890	-0.045457	61.679885	-89.803094	38.647805
07928	9.645638	0.123193	-0.094955	0.060109	-0.018901	-0.044481	68.484981	-89.784090	31.879026
07929	9.879864	0.284740	-0.108343	0.060458	-0.003986	-0.039105	71.736951	-89.764751	28.662098
07930	9.810216	0.287906	-0.075017	0.085419	0.004716	-0.024447	73.061610	-89.749679	27.388291
07931	9.727551	0.504947	0.037886	0.068190	0.008952	-0.024438	73.557846	-89.735591	26.931547
07932	9.771525	0.348627	-0.083450	0.037248	-0.000822	-0.013795	74.927897	-89.727071	25.584758
07933	9.712774	0.402146	0.097110	0.048491	0.006819	-0.009882	75.092388	-89.721301	25.448476
07934	9.847312	0.584450	0.001947	0.025694	-0.007142	0.001364	76.645733	-89.721896	23.911779
07935	9.813237	0.409765	-0.014622	0.002566	0.012670	0.020261	75.202044	-89.732054	25.357383
07936	9.842307	0.389277	0.010624	0.008444	-0.001090	0.022527	75.436405	-89.743544	25.129819
07937	9.773601	0.371069	-0.185155	-0.006078	0.011818	0.031235	73.505533	-89.759715	27.057654
07938	9.704763	0.218430	-0.165722	-0.014502	0.021400	0.033905	70.079209	-89.773405	30.477671
07939	9.716094	0.069813	-0.067917	-0.001115	0.024171	0.032920	65.627290	-89.786739	34.929412
07940	9.687993	0.031423	-0.035304	0.001490	0.012522	0.033018	62.626413	-89.800217	37.933134
07941	9.744926	-0.003066	-0.075339	0.013066	0.022526	0.032874	57.344080	-89.811537	43.223411
07942	9.667320	-0.075065	0.086610	0.026300	0.016736	0.034033	52.621698	-89.822232	47.962848
07943	9.707057	-0.054353	-0.061922	0.056154	-0.000965	0.026976	50.386951	-89.836510	50.230207
07944	9.713439	0.081525	-0.013944	0.057134	0.010939	0.024987	46.716934	-89.843765	53.934919
07945	9.694053	0.059432	-0.053289	0.032426	0.007525	0.022620	42.960623	-89.851955	57.710249
07946	9.635049	0.063170	0.092700	0.026891	0.019947	0.001272	41.288226	-89.845070	59.399997
07947	9.696232	0.143916	0.202839	0.007346	0.009056	-0.005928	41.726074	-89.841162	58.966785
07948	9.695424	-0.047900	0.060955	-0.023454	-0.004664	-0.006854	44.762160	-89.841442	55.919179
07949	9.729266	-0.065274	-0.064816	-0.010033	0.002141	-0.023629	48.512858	-89.832786	52.163145
07950	9.720111	-0.174251	-0.064607	-0.022975	0.002540	-0.028067	52.763371	-89.819966	47.901364
07951	9.710158	-0.277164	-0.155364	-0.014980	0.007488	-0.036513	56.151402	-89.802148	44.505160
07952	9.716847	-0.332391	-0.158247	0.022505	0.007101	-0.048159	60.234193	-89.776605	40.437126
07953	9.757960	-0.213106	-0.144174	0.042021	0.014293	-0.055954	62.849645	-89.745890	37.846156
07954	9.717552	-0.129388	-0.013258	0.059450	0.019387	-0.059415	64.762324	-89.710163	35.969382
07955	9.719826	-0.000304	-0.043793	0.063946	0.011218	-0.071893	67.330940	-89.671063	33.437796
07956	9.748769	0.084785	0.053596	0.057564	0.022898	-0.073570	68.584851	-89.626535	32.218692
07957	9.684938	0.086642	0.029284	0.046728	0.010632	-0.082093	70.577460	-89.581310	30.253238
07958	9.697483	0.077537	0.003454	0.043243	0.018919	-0.082349	71.735744	-89.532418	29.121536
07959	9.665681	0.034911	-0.043397	0.044615	0.012553	-0.093530	73.180248	-89.479990	27.702971
07960	9.697514	0.047071	-0.028753	0.048649	0.022641	-0.096810	73.939751	-89.422237	26.973139
07961	9.678051	0.084838	-0.031919	0.060276	0.012045	-0.102052	75.100282	-89.364777	25.847508
07962	9.690074	0.174037	0.012851	0.072454	0.016894	-0.099883	75.890597	-89.305954	25.100476
07963	9.666136	0.292405	0.000903	0.078296	0.019749	-0.103973	76.429916	-89.246054	24.606405
07964	9.783672	0.304110	0.034108	0.072239	0.013171	-0.087514	77.048942	-89.194445	24.030536
07965	9.766426	0.142674	-0.019130	0.069285	0.016542	-0.088934	77.433774	-89.143249	23.685794
07966	9.716957	0.201698	-0.139276	0.114423	0.006886	-0.084781	78.155898	-89.093800	23.030964
07967	9.707324	0.462364	0.004890	0.120111	0.013804	-0.077354	78.486052	-89.049333	22.770024
07968	9.715041	0.406003	0.093605	0.081827	0.005022	-0.074726	79.074202	-89.005575	22.230499
07969	9.669932	0.256377	0.106529	0.069008	0.012784	-0.076552	79.341202	-88.961609	22.003430
07970	9.677164	0.204930	0.103866	0.075315	-0.004499	-0.083576	80.177369	-88.913676	21.212097
07971	9.696633	0.140700	-0.017791	0.075782	-0.003487	-0.079363	80.866231	-88.869575	20.566963
07972	9.757201	0.261232	-0.104824	0.097870	0.000701	-0.089129	81.470527	-88.817705	20.020434
07973	9.705396	0.338711	0.003711	0.083067	0.014889	-0.088833	81.616927	-88.766474	19.922035
07974	9.692283	0.320340	-0.094845	0.073960	0.001454	-0.096190	82.139526	-88.710409	19.443500
07975	9.655784	0.402610	-0.025502	0.075058	0.015681	-0.102320	82.273287	-88.651439	19.353149
07976	9.738745	0.391789	0.006447	0.054932	0.006834	-0.100820	82.609303	-88.592238	19.050323
07977	9.784675	0.457907	0.015621	0.044521	0.010166	-0.105416	82.830863	-88.531893	18.854640
07978	9.694879	0.373001	0.078757	0.026200	0.016292	-0.102431	82.907981	-88.471046	18.794318
07979	9.692731	0.194824	0.000097	0.034803	0.006503	-0.101501	83.163270	-88.413156	18.559312
07980	9.700740	0.264020	0.055401	0.053335	0.009432	-0.104567	83.379494	-88.351553	18.375371
07981	9.743996	0.191206	0.019539	0.055373	0.003757	-0.108022	83.680246	-88.290075	18.106659
07982	9.616721	0.186533	-0.032150	0.065821	0.003038	-0.110909	84.002684	-88.225217	17.823587
07983	9.701122	0.247667	0.021294	0.076279	-0.002582	-0.123902	84.416316	-88.154964	17.453905
07984	9.706325	0.298374	0.087680	0.059945	-0.001150	-0.129200	84.790650	-88.079807	17.115504
07985	9.757770	0.245766	-0.111788	0.048554	-0.009512	-0.135142	85.263014	-88.003323	16.671130
07986	9.768222	0.221151	-0.126512	0.053937	0.009124	-0.144408	85.435454	-87.918880	16.531263
07987	9.750776	0.281151	-0.052492	0.060038	0.001659	-0.161783	85.719207	-87.826541	16.282167
07988	9.786630	0.342831	-0.063697	0.051443	0.011132	-0.159247	85.848903	-87.733520	16.183618
07989	9.718102	0.308426	-0.064088	0.048937	0.010569	-0.166590	85.971750	-87.638018	16.089163
07990	9.740448	0.388484	-0.047467	0.058300	0.023822	-0.177471	85.936390	-87.534073	16.159725
07991	9.751812	0.434384	0.053301	0.060979	0.020738	-0.179410	85.937158	-87.430829	16.194359
07992	9.703136	0.446820	-0.010289	0.056235	0.015758	-0.178348	86.006852	-87.326720	16.158575
07993	9.677010	0.452510	-0.081154	0.068431	0.013854	-0.176646	86.090685	-87.225331	16.114330
07994	9.680505	0.441368	-0.127513	0.092398	-0.000268	-0.173857	86.351609	-87.124399	15.907816
07995	9.706786	0.560833	-0.046174	0.122957	0.009483	-0.177445	86.500024	-87.022698	15.830179
07996	9.759678	0.645602	-0.018502	0.135118	0.003277	-0.162053	86.713126	-86.928341	15.696023
07997	9.745423	0.842438	-0.052729	0.159163	0.009322	-0.169153	86.862473	-86.831366	15.638214
07998	9.806153	1.075365	0.129487	0.140471	0.027145	-0.155709	86.817251	-86.739850	15.765843
07999	9.688487	0.941336	0.054813	0.106122	0.003624	-0.136321	86.968843	-86.661829	15.675335
08000	9.845430	1.235333	-0.024341	0.114132	0.013903	-0.129137	87.025219	-86.585906	15.686107
08001	9.727713	1.233975	0.127454	0.076765	0.034749	-0.110925	86.846544	-86.521459	15.909600
08002	9.733954	1.166042	0.048800	0.039314	0.011432	-0.087613	86.865254	-86.469325	15.915190
08003	9.742997	1.114948	0.048952	0.044422	0.030786	-0.073270	86.694527	-86.426509	16.112178
08004	9.751976	1.223220	0.079565	0.039334	0.025433	-0.052681	86.570213	-86.393848	16.261107
08005	9.753231	1.248418	0.069284	0.029064	0.030788	-0.036345	86.377246	-86.372085	16.471576
08006	9.676449	1.256435	0.164282	0.011764	0.038025	-0.023817	86.112162	-86.355351	16.745763
08007	9.654728	1.193746	0.153314	-0.022503	0.030484	-0.004244	85.876782	-86.351836	16.969133
08008	9.654801	1.034293	0.035399	-0.016360	0.028703	0.012220	85.658055	-86.355905	17.180747
08009	9.626708	1.135334	0.204436	-0.013489	0.039692	0.020114	85.327949	-86.365764	17.504207
08010	9.639596	1.026816	0.081558	-0.045944	0.027689	0.028028	85.087680	-86.378747	17.720433
08011	9.623663	0.770092	-0.005323	-0.049734	0.040109	0.039006	84.713670	-86.399154	18.067066
08012	9.667409	0.733293	-0.002844	-0.020692	0.024964	0.039061	84.498814	-86.418420	18.272323
08013	9.748345	0.763761	-0.025334	-0.010850	0.035814	0.044619	84.174037	-86.442055	18.591934
08014	9.698517	0.800108	0.037949	-0.017023	0.032570	0.043182	83.881812	-86.463087	18.876806
08015	9.756893	0.836209	0.022638	-0.037909	0.033735	0.048867	83.548128	-86.489054	19.189791
08016	9.705186	0.851331	0.098852	-0.048083	0.037380	0.046283	83.182182	-86.511320	19.530679
08017	9.696516	0.837738	-0.008500	-0.059736	0.031753	0.051013	82.842472	-86.538408	19.837158
08018	9.673314	0.747918	-0.006722	-0.063567	0.038410	0.053321	82.439675	-86.564324	20.206063
08019	9.705258	0.747642	0.010807	-0.071840	0.041608	0.053936	81.984597	-86.592044	20.621150
08020	9.685947	0.696822	0.079523	-0.071288	0.043444	0.056764	81.511875	-86.619149	21.055652
08021	9.708954	0.685139	0.077437	-0.075432	0.041288	0.055806	81.040612	-86.647547	21.484867
08022	9.681753	0.714182	0.135472	-0.079706	0.047644	0.052595	80.514059	-86.671470	21.968433
08023	9.682887	0.638974	0.118841	-0.106012	0.042240	0.053018	80.005393	-86.697750	22.417542
08024	9.642750	0.618277	0.090374	-0.108543	0.040865	0.047016	79.524076	-86.718717	22.839219
08025	9.629996	0.560921	0.099362	-0.116224	0.030894	0.045345	79.121915	-86.741453	23.175767
08026	9.639264	0.570546	0.031568	-0.120566	0.028985	0.040942	78.752233	-86.759966	23.478704
08027	9.668168	0.620573	0.082507	-0.118147	0.026409	0.032109	78.411056	-86.775526	23.753055
08028	9.631920	0.640576	0.119129	-0.142052	0.024171	0.032387	78.087873	-86.789601	23.997074
08029	9.623210	0.626842	0.101867	-0.141182	0.014088	0.024665	77.867384	-86.802297	24.137323
08030	9.646752	0.778767	0.129262	-0.135763	0.006425	0.023451	77.741378	-86.813410	24.187456
08031	9.609838	0.869208	0.186817	-0.152027	0.006651	0.022870	77.591262	-86.825968	24.250996
08032	9.627426	0.961421	0.159523	-0.163549	-0.005958	0.027065	77.565203	-86.840603	24.185088
08033	9.565910	1.036120	0.235731	-0.180768	-0.003170	0.031673	77.477452	-86.859292	24.169675
08034	9.562057	0.989855	0.260822	-0.186936	-0.018552	0.044703	77.527214	-86.885328	24.014428
08035	9.673510	1.232275	0.318863	-0.197666	-0.011272	0.051559	77.468047	-86.916147	23.960694
08036	9.576928	0.961676	0.235312	-0.257304	-0.015976	0.069044	77.396262	-86.955441	23.886818
08037	9.684495	0.864691	0.146497	-0.250192	-0.024937	0.072366	77.402818	-86.999608	23.737136
08038	9.669162	0.926179	0.117437	-0.254043	-0.022292	0.090560	77.350309	-87.051700	23.645843
08039	9.780949	0.864275	0.095419	-0.263733	-0.020782	0.106682	77.222315	-87.114538	23.623131
08040	9.702999	0.765424	0.175420	-0.255326	-0.017137	0.115641	77.046485	-87.179978	23.654595
08041	9.737638	0.847667	0.200247	-0.259067	-0.037250	0.129294	77.046365	-87.257560	23.506538
08042	9.736653	0.887800	0.143645	-0.253823	-0.031892	0.139530	76.975786	-87.338214	23.433494
08043	9.778560	0.887378	0.177386	-0.269565	-0.014433	0.149428	76.635873	-87.424074	23.619584
08044	9.763790	0.728256	0.168052	-0.296015	-0.022545	0.166418	76.329703	-87.518455	23.758186
08045	9.771262	0.568550	0.059531	-0.297624	-0.021378	0.171010	75.957308	-87.617169	23.960669
08046	9.715684	0.532837	0.064505	-0.298207	-0.014455	0.171765	75.478590	-87.713277	24.270682
08047	9.680107	0.469518	0.073893	-0.299342	-0.017859	0.171714	74.995104	-87.811719	24.583328
08048	9.741037	0.369695	0.086075	-0.309285	-0.025589	0.164106	74.636849	-87.905051	24.766396
08049	9.803914	0.477049	0.174516	-0.322400	-0.010518	0.141505	74.087641	-87.985495	25.131550
08050	9.813635	0.464486	0.286793	-0.385019	-0.007542	0.133078	73.477980	-88.058732	25.522727
08051	9.740445	0.173956	0.216005	-0.438875	-0.014641	0.128837	72.915183	-88.132626	25.834672
08052	9.697269	0.127412	0.191953	-0.431510	-0.021549	0.107714	72.580088	-88.194111	25.924443
08053	9.668373	0.135203	0.165978	-0.438435	-0.022725	0.100318	72.264376	-88.253680	25.989413
08054	9.598848	0.017218	0.040743	-0.423746	-0.035244	0.097149	72.219253	-88.311783	25.793503
08055	9.658365	-0.066043	-0.043012	-0.393901	-0.036881	0.088720	72.254284	-88.367491	25.533106
08056	9.717722	0.080248	0.004182	-0.344113	-0.023471	0.075511	72.172375	-88.411763	25.419624
08057	9.704833	0.326045	0.071145	-0.324316	-0.025641	0.080278	72.089449	-88.460905	25.317125
08058	9.728747	0.276804	-0.067304	-0.307025	-0.037493	0.080830	72.288916	-88.510551	24.943413
08059	9.813580	0.314140	-0.010971	-0.304634	-0.015128	0.071107	72.064484	-88.552844	24.993752
08060	9.746166	0.201347	0.034527	-0.313304	-0.011047	0.070769	71.767217	-88.592359	25.113340
08061	9.824430	0.252567	0.061010	-0.310291	-0.015190	0.053117	71.657189	-88.624865	25.045996
08062	9.867237	0.314416	0.214536	-0.342764	-0.003006	0.031885	71.438943	-88.641777	25.069643
08063	9.918171	0.160378	0.253943	-0.406088	-0.004425	0.017048	71.299781	-88.652739	24.976541
08064	9.838814	-0.123146	0.089059	-0.455294	-0.008997	0.004769	71.362818	-88.656030	24.654317
08065	9.645723	-0.440363	-0.071097	-0.472144	-0.018676	-0.005743	71.694442	-88.657187	24.052443
08066	9.474818	-0.616782	-0.042593	-0.426987	-0.023094	-0.054792	72.539158	-88.630422	22.964507
08067	9.484553	-0.334241	0.152861	-0.352960	-0.043201	-0.096024	74.084544	-88.585621	21.216808
08068	9.595878	-0.311818	0.148157	-0.363684	-0.073931	-0.085615	76.154908	-88.548011	18.939034
08069	9.567082	-0.393578	-0.265053	-0.266199	-0.085559	-0.119561	78.551165	-88.492476	16.389840
08070	9.635400	0.184758	0.191513	-0.193320	-0.020875	-0.149228	79.598907	-88.409537	15.232547
08071	9.589770	0.349359	0.404698	-0.247369	-0.070346	-0.135024	81.415148	-88.340292	13.274220
08072	9.713617	0.128313	0.007052	-0.290841	-0.093472	-0.135781	83.497790	-88.268747	11.025574
08073	9.676695	-0.014136	-0.066844	-0.272374	-0.067991	-0.163176	84.992991	-88.179846	9.373955
08074	9.654303	0.021352	0.154991	-0.279530	-0.069939	-0.193921	86.405245	-88.070454	7.802296
08075	9.575460	0.230790	0.393923	-0.314769	-0.089254	-0.217161	87.958893	-87.948748	6.067687
08076	9.605690	0.461160	0.322160	-0.348553	-0.136530	-0.233174	90.020158	-87.814781	3.806738
08077	9.663169	0.689864	0.181595	-0.355769	-0.150312	-0.249313	92.014230	-87.670266	1.607554
08078	9.615573	0.740392	0.096158	-0.374547	-0.143268	-0.236856	93.664159	-87.528693	-0.257053
08079	9.702578	0.609423	-0.011594	-0.390778	-0.136261	-0.217022	95.053245	-87.398447	-1.871185
08080	9.677663	0.744194	0.061069	-0.354530	-0.115092	-0.218791	96.057840	-87.265199	-3.078664
08081	9.798887	0.942492	0.131447	-0.354681	-0.133580	-0.208649	97.189893	-87.137179	-4.415095
08082	9.969424	1.017371	-0.170506	-0.332470	-0.139536	-0.174891	98.339986	-87.024875	-5.755860
08083	9.953548	0.825961	-0.381652	-0.323589	-0.102833	-0.127117	99.107712	-86.943402	-6.709877
08084	9.897315	0.646481	-0.493453	-0.295665	-0.069693	-0.110350	99.526768	-86.872243	-7.297622
08085	9.827215	0.478895	-0.433799	-0.275054	-0.046190	-0.107232	99.710445	-86.806654	-7.638979
08086	9.738712	0.296750	-0.416433	-0.244908	-0.041478	-0.118360	99.827780	-86.733474	-7.895477
08087	9.723920	0.257019	-0.283522	-0.229608	-0.031433	-0.137566	99.822754	-86.652135	-8.021783
08088	9.634417	0.118732	-0.223641	-0.219192	-0.029700	-0.148806	99.779823	-86.562937	-8.103038
08089	9.553780	0.159733	-0.172054	-0.174959	-0.041653	-0.154273	99.867729	-86.471168	-8.291101
08090	9.527154	0.371357	-0.286248	-0.124354	-0.070829	-0.153630	100.232349	-86.375160	-8.726306
08091	9.602811	0.487434	-0.500952	-0.037954	-0.101116	-0.138611	100.918306	-86.285815	-9.435028
08092	9.757028	0.639871	-0.596865	0.046125	-0.082222	-0.124749	101.477440	-86.204266	-9.967380
08093	9.791818	0.720415	-0.475199	0.099615	-0.043602	-0.099307	101.773790	-86.142805	-10.206754
08094	9.839442	0.851466	-0.346716	0.130544	-0.029003	-0.073216	101.999836	-86.096015	-10.356852
08095	9.786951	0.752149	-0.432133	0.146422	-0.024667	-0.041317	102.256610	-86.069180	-10.529702
08096	9.778196	0.683173	-0.631835	0.203038	-0.027576	-0.022883	102.594372	-86.050630	-10.750155
08097	9.823447	0.826110	-0.592366	0.268297	-0.010307	-0.000664	102.873539	-86.048203	-10.875462
08098	9.706389	0.906915	-0.600135	0.298796	-0.002417	0.037828	103.173827	-86.066627	-11.003353
08099	9.781735	1.000705	-0.671536	0.352666	-0.004061	0.049925	103.548849	-86.093135	-11.176283
08100	9.882896	1.223769	-0.462974	0.378971	0.027512	0.056004	103.691284	-86.125600	-11.099889
08101	9.875328	1.323387	-0.047587	0.375418	0.069129	0.081772	103.542219	-86.179662	-10.734466
08102	9.833850	1.307280	0.200479	0.368184	0.063864	0.118886	103.496827	-86.251976	-10.476012
08103	9.838004	1.120019	0.094380	0.359336	0.054304	0.168313	103.630679	-86.352224	-10.403394
08104	9.810924	0.987838	-0.131671	0.399081	0.052904	0.195576	103.856885	-86.465762	-10.399373
08105	9.782767	1.052860	-0.119820	0.428765	0.062643	0.212693	104.061870	-86.591870	-10.358185
08106	9.738717	1.149837	-0.029008	0.430941	0.056718	0.237005	104.386189	-86.728927	-10.434145
08107	9.639512	1.192804	-0.206941	0.422111	0.035190	0.263085	105.016760	-86.878992	-10.823034
08108	9.634820	1.113901	-0.269601	0.415187	0.049422	0.283125	105.595657	-87.040285	-11.162926
08109	9.695074	1.134537	-0.142433	0.407988	0.069156	0.267347	105.957606	-87.197557	-11.290842
08110	9.745219	1.221650	0.136320	0.357263	0.080076	0.268458	106.184735	-87.355338	-11.311673
08111	9.802221	1.265958	0.316336	0.271354	0.087471	0.281561	106.339948	-87.523307	-11.310976
08112	9.702242	1.097939	0.280344	0.193575	0.060815	0.284044	106.822931	-87.686438	-11.681721
08113	9.741748	0.931726	0.035581	0.140598	0.030396	0.300435	107.869422	-87.854956	-12.647952
08114	9.629000	0.574481	-0.124652	0.090057	0.020073	0.333732	109.386591	-88.036932	-14.112794
08115	9.590577	0.292189	-0.579038	0.106001	-0.007576	0.360928	111.894728	-88.227815	-16.561059
08116	9.689703	0.085471	-0.699572	0.191030	0.022585	0.355259	114.404275	-88.417011	-18.960512
08117	9.674578	0.080901	-0.387342	0.265014	0.052254	0.354078	117.014317	-88.611434	-21.419099
08118	9.554852	-0.067799	-0.484348	0.269012	0.026491	0.396848	121.618094	-88.813972	-25.868204
08119	9.287124	-0.240180	-0.905915	0.340158	0.025508	0.433928	128.923267	-89.023971	-32.979297
08120	9.380686	-0.265711	-0.722523	0.516936	0.047292	0.365751	137.217774	-89.192307	-40.976935
08121	9.802511	0.352457	0.403904	0.667489	0.094417	0.268176	144.321866	-89.329208	-47.698703
08122	9.875859	1.048551	1.551765	0.655208	0.130884	0.228255	151.414986	-89.458668	-54.415181
08123	9.718699	1.100973	1.887073	0.293071	0.017520	0.318549	170.888817	-89.525159	-73.721401
08124	9.690616	0.434775	0.717422	0.052423	-0.109341	0.377974	-165.361795	-89.447389	-97.440023
08125	9.700733	-0.042988	-0.038034	0.064553	-0.103857	0.379034	-149.116628	-89.304288	-113.648705
08126	9.648819	-0.431604	-0.340295	0.101532	-0.100878	0.371203	-139.157545	-89.130802	-123.548932
08127	9.686277	-0.780794	-0.644046	0.143057	-0.095577	0.366467	-132.512215	-88.942789	-130.112777
08128	9.878891	-1.045141	-0.884176	0.266499	-0.081670	0.384312	-127.321317	-88.743119	-135.150405
08129	9.446643	-1.027977	-1.078643	0.435789	-0.050235	0.352968	-123.216373	-88.559586	-139.006287
08130	9.765312	-0.294929	-0.974879	0.620713	-0.002139	0.300081	-119.649571	-88.412055	-142.217019
08131	9.590290	0.001390	-0.475939	0.520162	0.014046	0.400837	-115.589782	-88.210846	-145.979969
08132	9.507078	0.097671	-0.140295	0.516001	-0.009327	0.269817	-113.580276	-88.068310	-147.693171
08133	9.982182	0.924105	0.369852	0.457602	0.069702	0.190104	-111.127863	-87.981664	-149.884263
08134	9.639018	0.381913	1.181541	0.119647	0.064481	0.272737	-108.745130	-87.847973	-152.198394
08135	10.010529	-0.201052	0.299677	-0.069271	-0.095227	0.290191	-108.811217	-87.672089	-152.171541
08136	9.721176	-0.927742	-0.287118	-0.205392	-0.046110	0.306490	-108.285585	-87.497974	-152.813850
08137	9.516436	-1.331328	-0.555464	-0.087093	-0.035655	0.217784	-107.967135	-87.372159	-153.182134
08138	9.721123	-1.250996	-0.616351	0.032481	-0.007307	0.158799	-107.518297	-87.284981	-153.611299
08139	9.726927	-1.394482	-0.535506	0.080210	0.016890	0.164163	-106.765714	-87.197133	-154.318309
08140	9.924787	-1.185909	-0.671541	0.154317	-0.001273	0.154406	-106.259008	-87.112852	-154.735626
08141	9.455591	-1.352675	-0.749400	0.108699	0.032989	0.202581	-105.285646	-87.005537	-155.647473
08142	9.305086	-1.209937	-1.031487	0.259964	-0.009854	0.097451	-105.032764	-86.950917	-155.750099
08143	9.835724	-0.325665	-0.624751	0.370594	0.070590	0.049907	-104.008611	-86.932691	-156.562638
08144	9.814702	-0.040652	0.444204	0.342951	0.109887	0.026070	-102.673279	-86.933502	-157.701664
08145	9.976333	0.259418	0.914190	0.153988	0.057386	0.022865	-101.989371	-86.927155	-158.297763
08146	9.750271	-0.248970	0.577601	-0.080545	0.013217	0.056447	-101.841451	-86.898032	-158.490663
08147	9.693650	-0.750818	-0.000095	-0.096711	-0.028815	0.042114	-102.156083	-86.870445	-158.230622
08148	9.677318	-0.983544	-0.275779	-0.041441	0.003321	0.042905	-102.117092	-86.847754	-158.292016
08149	9.572337	-1.137716	-0.332387	0.077841	0.008936	0.027798	-101.975497	-86.832691	-158.388722
08150	9.707108	-0.849062	-0.262109	0.168402	0.002896	0.023474	-101.864299	-86.820774	-158.402050
08151	9.665694	-0.888066	-0.341485	0.190322	0.000257	0.035644	-101.731191	-86.800271	-158.425713
08152	9.679742	-0.874067	-0.562092	0.243105	-0.026831	0.025658	-101.870860	-86.783604	-158.144932
08153	9.780903	-0.554702	-0.550685	0.302524	0.004671	0.046248	-101.608332	-86.757665	-158.233833
08154	9.609204	-0.183142	-0.186379	0.365432	0.018436	0.013295	-101.253605	-86.753148	-158.378040
08155	9.828876	0.383537	0.303831	0.363564	0.022069	-0.000789	-100.880641	-86.755515	-158.542525
08156	9.748428	0.306861	0.647338	0.172334	0.025077	0.033558	-100.534172	-86.740231	-158.789259
08157	9.851553	0.031433	0.452980	0.073931	-0.017822	0.037400	-100.650788	-86.716812	-158.629587
08158	10.058931	-0.087743	0.220693	0.039245	-0.010307	0.037993	-100.721070	-86.695320	-158.535260
08159	9.980338	-0.242111	0.237493	-0.088923	-0.005989	0.152944	-100.603601	-86.608085	-158.703530
08160	9.501552	-0.686024	-0.357611	-0.012306	-0.037120	0.042248	-100.945373	-86.581345	-158.366807
08161	9.652608	-0.278371	-0.477108	-0.042422	0.024036	0.097562	-100.620831	-86.528521	-158.715850
08162	9.312055	-0.751425	-0.117364	0.000395	0.005719	0.014535	-100.601037	-86.521956	-158.734046
08163	9.775552	-0.509719	-0.170301	-0.036072	-0.001572	0.028207	-100.636389	-86.505425	-158.718897
08164	9.489011	-0.895272	0.002576	-0.022335	-0.009403	0.013613	-100.770385	-86.497757	-158.596073
08165	9.769855	-0.619979	-0.062201	-0.013994	-0.030826	0.005652	-101.100149	-86.490730	-158.273286
08166	9.697701	-0.669015	0.025163	0.023385	-0.001679	-0.002034	-101.163861	-86.492635	-158.194651
08167	9.844275	-0.325062	0.385360	0.033716	-0.015354	-0.014541	-101.360683	-86.498574	-157.977669
08168	9.938421	-0.305962	0.147830	-0.026914	-0.039000	0.015947	-101.761120	-86.486066	-157.590561
08169	10.175366	-0.143829	-0.081797	-0.020315	-0.018889	0.037198	-101.921994	-86.462441	-157.440607
08170	10.271593	0.232170	0.079181	-0.081590	0.013743	0.111444	-101.692214	-86.402479	-157.716297
08171	8.688838	-0.852410	-0.246394	-0.227447	0.009026	0.096443	-101.613364	-86.348870	-157.925446
08172	9.930545	0.141217	-0.596929	-0.023649	-0.041177	-0.063048	-102.162922	-86.380296	-157.386980
08173	9.560836	-0.612046	0.259182	-0.205223	0.086465	0.062149	-101.448718	-86.355033	-158.220005
08174	9.969868	-0.351962	0.018509	-0.105809	-0.087066	0.004392	-102.321589	-86.343252	-157.404722
08175	10.223769	-0.061223	-0.069549	-0.239288	0.044503	0.109999	-101.912355	-86.286424	-157.951752
08176	8.980549	-1.123530	-0.143416	-0.259864	-0.005898	0.057603	-102.060772	-86.254412	-157.950834
08177	9.880563	-0.485065	-0.595427	-0.120735	-0.018709	-0.015575	-102.364386	-86.260302	-157.715457
08178	9.630417	-0.671645	0.264094	-0.173388	0.068937	0.028347	-101.875209	-86.253654	-158.303855
08179	9.877106	-0.605262	0.017655	-0.201256	-0.072314	0.021195	-102.613156	-86.232433	-157.679440
08180	9.924288	-0.775675	-0.380006	-0.256367	0.019678	0.068230	-102.518083	-86.197635	-157.920566
08181	9.241607	-1.303263	-0.157733	-0.178858	0.005132	-0.009173	-102.639253	-86.202822	-157.901395
08182	9.912133	-0.733168	-0.306271	-0.103305	-0.015590	-0.010703	-102.902969	-86.207681	-157.695075
08183	9.509627	-1.045985	0.003298	-0.096435	0.023193	0.018943	-102.771296	-86.199454	-157.881976
08184	9.636773	-0.616506	-0.040007	-0.013115	-0.034960	-0.026972	-103.178046	-86.210827	-157.480538
08185	9.732716	-0.456572	0.135530	-0.041623	0.010904	-0.004241	-103.163094	-86.214003	-157.518985
08186	9.670259	-0.508301	0.011739	-0.029558	-0.045160	0.002627	-103.607365	-86.207335	-157.089400
08187	9.796874	-0.388289	-0.401509	-0.027406	-0.027633	0.020995	-103.856069	-86.191249	-156.855446
08188	9.676031	-0.454455	-0.519541	-0.015481	-0.011174	0.015959	-103.977522	-86.181589	-156.741299
08189	9.832305	-0.204079	-0.355206	-0.027851	-0.002037	0.012998	-104.027625	-86.173424	-156.706639
08190	9.789824	-0.337861	-0.248424	-0.105034	0.009191	0.042202	-103.976777	-86.151996	-156.816591
08191	9.580319	-0.731809	-0.327560	-0.125717	0.005795	0.018731	-104.006264	-86.141729	-156.858793
08192	9.716682	-0.804173	-0.249879	-0.109017	0.016124	-0.005236	-103.998670	-86.147630	-156.927685
08193	9.758389	-0.892920	-0.028638	-0.106344	0.011067	0.004476	-104.002858	-86.146018	-156.984118
08194	9.712925	-0.974035	-0.147450	-0.088390	0.002564	0.003855	-104.076411	-86.144961	-156.959848
08195	9.596672	-0.999285	-0.136020	-0.039387	0.006526	-0.007062	-104.103562	-86.149134	-156.954817
08196	9.646734	-0.913122	-0.167778	0.005430	-0.004399	-0.016070	-104.222273	-86.158132	-156.831435
08197	9.707955	-0.843979	-0.227856	0.034292	-0.008980	-0.007288	-104.336144	-86.160238	-156.697177
08198	9.728828	-0.545202	-0.187183	0.068980	-0.002499	-0.021533	-104.415142	-86.172478	-156.577134
08199	9.716199	-0.493074	-0.202192	0.025739	-0.006917	-0.003716	-104.509742	-86.172869	-156.467103
08200	9.736417	-0.607135	-0.252825	0.018381	-0.005339	-0.011675	-104.620965	-86.179206	-156.343810
08201	9.695528	-0.648423	-0.243260	0.015557	0.004696	-0.014490	-104.648600	-86.187229	-156.306742
08202	9.712045	-0.650863	-0.190959	0.019737	0.001135	-0.022517	-104.729620	-86.200486	-156.212951
08203	9.737488	-0.610293	-0.161578	0.004512	-0.006195	-0.024586	-104.877442	-86.212500	-156.061775
08204	9.702698	-0.680410	-0.260243	0.010395	-0.005464	-0.022537	-105.020589	-86.224756	-155.911101
08205	9.768308	-0.571302	-0.191440	0.032169	0.013887	-0.033623	-105.005880	-86.244714	-155.906932
08206	9.690770	-0.474831	-0.043480	0.017291	0.006272	-0.026587	-105.056784	-86.260929	-155.844748
08207	9.746716	-0.417148	-0.182782	0.007391	-0.002396	-0.026027	-105.177526	-86.274253	-155.719068
08208	9.726761	-0.439943	-0.132030	-0.006982	0.012763	-0.028782	-105.193253	-86.292649	-155.706075
08209	9.742552	-0.432823	-0.170641	-0.022535	-0.002349	-0.030171	-105.342068	-86.308249	-155.569450
08210	9.705908	-0.583264	-0.263039	-0.036569	0.006375	-0.025851	-105.423707	-86.324057	-155.507386
08211	9.748538	-0.571610	-0.229353	-0.018367	0.006398	-0.034127	-105.506261	-86.343147	-155.434770
08212	9.729527	-0.619761	-0.226739	-0.022720	0.009145	-0.024746	-105.554610	-86.358750	-155.398115
08213	9.727075	-0.689296	-0.311302	-0.004682	0.008365	-0.031667	-105.607551	-86.376776	-155.347317
08214	9.698614	-0.622528	-0.146657	0.010694	0.016527	-0.030946	-105.588022	-86.396920	-155.359517
08215	9.690953	-0.687520	-0.171733	0.009411	-0.000714	-0.032498	-105.715558	-86.413996	-155.225889
08216	9.713774	-0.717998	-0.227247	0.015897	0.003628	-0.039350	-105.828583	-86.436756	-155.102298
08217	9.705507	-0.642085	-0.252771	0.036201	0.003069	-0.038805	-105.925771	-86.457869	-154.983703
08218	9.670261	-0.552987	-0.210841	0.042542	0.014287	-0.050592	-105.959730	-86.488461	-154.923993
08219	9.685259	-0.518462	-0.200743	0.031367	0.000661	-0.047517	-106.106690	-86.513971	-154.758315
08220	9.729610	-0.424282	-0.172526	0.028728	0.011132	-0.048204	-106.173610	-86.542721	-154.673603
08221	9.707165	-0.385528	-0.115904	0.019736	0.006122	-0.050934	-106.290546	-86.570949	-154.544689
08222	9.766401	-0.393313	-0.169203	-0.005540	0.007699	-0.045014	-106.403176	-86.597380	-154.433824
08223	9.677650	-0.542741	-0.175337	-0.000615	0.005129	-0.043155	-106.523583	-86.621141	-154.313121
08224	9.698899	-0.538608	-0.273281	0.008538	0.004800	-0.043799	-106.655339	-86.646400	-154.175028
08225	9.694306	-0.423346	-0.170513	0.027256	0.013083	-0.050608	-106.709383	-86.675533	-154.104810
08226	9.692407	-0.367313	-0.072695	0.009321	0.014989	-0.048539	-106.761036	-86.705043	-154.046559
08227	9.723570	-0.460671	-0.192312	-0.003338	0.002110	-0.043055	-106.918238	-86.728201	-153.890576
08228	9.741232	-0.485901	-0.187836	0.005080	0.012748	-0.046030	-106.989337	-86.755952	-153.815272
08229	9.698033	-0.464972	-0.171742	0.006502	0.010816	-0.043602	-107.061884	-86.780841	-153.738439
08230	9.728486	-0.426424	-0.200698	0.000061	0.007987	-0.045071	-107.182166	-86.807251	-153.616664
08231	9.700772	-0.507540	-0.266187	-0.002348	0.012747	-0.045661	-107.249789	-86.833579	-153.549845
08232	9.722885	-0.404719	-0.229857	0.003941	0.016295	-0.051148	-107.307564	-86.864696	-153.488561
08233	9.698978	-0.446714	-0.166726	-0.008343	0.018489	-0.049163	-107.334116	-86.893913	-153.466319
08234	9.720975	-0.450114	-0.172364	-0.009946	0.019610	-0.050230	-107.365212	-86.925090	-153.439735
08235	9.738689	-0.368248	-0.124304	-0.000636	0.020112	-0.052218	-107.381469	-86.956254	-153.423381
08236	9.757696	-0.418587	-0.166909	-0.013952	0.017805	-0.045597	-107.419516	-86.984587	-153.392054
08237	9.714619	-0.503845	-0.192378	-0.002836	0.025321	-0.050674	-107.378233	-87.015799	-153.434581
08238	9.691850	-0.465109	-0.134598	-0.000822	0.019306	-0.050851	-107.410877	-87.047254	-153.401155
08239	9.741155	-0.480924	-0.206857	0.001700	0.021511	-0.049581	-107.403123	-87.077215	-153.407505
08240	9.725327	-0.373732	-0.123082	0.008292	0.026689	-0.057763	-107.374934	-87.113703	-153.429817
08241	9.761721	-0.346275	-0.118922	-0.018768	0.022667	-0.057108	-107.391604	-87.147978	-153.423454
08242	9.710968	-0.384266	-0.218743	-0.031681	0.023123	-0.058033	-107.426169	-87.184003	-153.405891
08243	9.728914	-0.407690	-0.212595	-0.028769	0.028116	-0.064292	-107.413418	-87.223139	-153.434721
08244	9.705209	-0.448578	-0.148485	-0.033280	0.031557	-0.061891	-107.367117	-87.262716	-153.499098
08245	9.688630	-0.519166	-0.191967	-0.024980	0.029119	-0.067541	-107.350624	-87.303799	-153.529499
08246	9.741288	-0.494725	-0.135644	-0.011347	0.023872	-0.062250	-107.380441	-87.342247	-153.504923
08247	9.707104	-0.536235	-0.183456	0.001545	0.023434	-0.061307	-107.392570	-87.378949	-153.491457
08248	9.740946	-0.376288	-0.088432	0.033075	0.024077	-0.064318	-107.403628	-87.418544	-153.460132
08249	9.733556	-0.332067	-0.069549	0.004489	0.020742	-0.061283	-107.447803	-87.454771	-153.412899
08250	9.760499	-0.410761	-0.219534	0.015395	0.020171	-0.062182	-107.510995	-87.492522	-153.339650
08251	9.684733	-0.470159	-0.209788	0.015237	0.026681	-0.063622	-107.486090	-87.531047	-153.355401
08252	9.704953	-0.437927	-0.257429	0.028655	0.022539	-0.068750	-107.540889	-87.572793	-153.282649
08253	9.673985	-0.359472	-0.182658	0.033906	0.028947	-0.072376	-107.511671	-87.616493	-153.292010
08254	9.686109	-0.369138	-0.207673	0.027240	0.025622	-0.075979	-107.559994	-87.662696	-153.226687
08255	9.748555	-0.334182	-0.130337	0.032784	0.033650	-0.082302	-107.510019	-87.712630	-153.257464
08256	9.779101	-0.219071	-0.071599	0.023295	0.032277	-0.078976	-107.483074	-87.761605	-153.270241
08257	9.777156	-0.258716	-0.105392	0.005112	0.032049	-0.070792	-107.417223	-87.804971	-153.332771
08258	9.777171	-0.324408	-0.187337	0.008984	0.032709	-0.070564	-107.351498	-87.849431	-153.392111
08259	9.735666	-0.254711	-0.132296	0.021316	0.037571	-0.071818	-107.193536	-87.894290	-153.537521
08260	9.719965	-0.325194	-0.174826	0.012067	0.036640	-0.066379	-107.039093	-87.937099	-153.684253
08261	9.720249	-0.318625	-0.171105	0.025393	0.038689	-0.069452	-106.836976	-87.980816	-153.871501
08262	9.672725	-0.317444	-0.141557	0.017742	0.038163	-0.071238	-106.664330	-88.026507	-154.032774
08263	9.740705	-0.286992	-0.122946	0.025220	0.032081	-0.073578	-106.572876	-88.071368	-154.109383
08264	9.737054	-0.301209	-0.108236	0.021355	0.038372	-0.073120	-106.389716	-88.118076	-154.279401
08265	9.756771	-0.195072	-0.069737	0.023406	0.033888	-0.081575	-106.297915	-88.167612	-154.357393
08266	9.691482	-0.236978	-0.129415	0.001615	0.040355	-0.070862	-106.062833	-88.213372	-154.590587
08267	9.649773	-0.529405	-0.178606	0.002566	0.030571	-0.073347	-105.986974	-88.257837	-154.664572
08268	9.696453	-0.563409	-0.238003	0.059746	0.031099	-0.077738	-105.906602	-88.305872	-154.709634
08269	9.716922	-0.337324	-0.077366	0.105150	0.042733	-0.080102	-105.565900	-88.355942	-154.989769
08270	9.721061	-0.107457	0.030609	0.091638	0.027063	-0.081828	-105.553225	-88.405567	-154.949515
08271	9.808465	-0.049778	-0.001207	0.071564	0.034711	-0.079706	-105.364671	-88.454152	-155.096682
08272	9.723590	-0.117686	-0.010956	0.047231	0.033444	-0.079259	-105.223609	-88.503356	-155.209864
08273	9.741639	-0.259118	-0.125346	0.033936	0.025528	-0.081680	-105.248570	-88.551634	-155.165007
08274	9.716080	-0.264657	-0.103164	0.067427	0.048658	-0.085507	-104.775763	-88.606536	-155.598483
08275	9.729875	-0.226233	-0.089580	0.076318	0.039555	-0.080553	-104.425072	-88.656225	-155.905096
08276	9.739984	-0.081352	-0.034510	0.082417	0.048983	-0.080492	-103.836257	-88.708199	-156.445669
08277	9.698508	-0.084418	-0.063624	0.066815	0.045080	-0.076596	-103.262417	-88.756283	-156.980919
08278	9.697504	-0.124523	-0.095783	0.059483	0.044625	-0.072814	-102.660777	-88.803158	-157.547413
08279	9.673458	-0.204630	-0.157551	0.062310	0.041173	-0.071405	-102.074405	-88.847603	-158.097761
08280	9.705032	-0.203311	-0.048896	0.075557	0.043299	-0.074410	-101.414867	-88.894938	-158.712979
08281	9.677039	-0.312168	-0.008465	0.071557	0.033364	-0.065643	-100.926881	-88.935031	-159.159605
08282	9.655203	-0.466666	-0.155373	0.093888	0.027233	-0.065021	-100.603330	-88.975134	-159.428411
08283	9.568520	-0.510676	-0.117153	0.134842	0.030154	-0.068896	-100.133455	-89.016607	-159.820648
08284	9.529500	-0.589158	-0.232185	0.176124	0.012328	-0.069063	-100.240512	-89.057392	-159.611693
08285	9.613307	-0.377498	-0.187800	0.246858	0.019298	-0.082878	-100.131904	-89.105627	-159.578417
08286	9.763983	0.077905	0.062849	0.280211	0.009610	-0.095888	-100.491737	-89.161200	-159.057380
08287	9.908778	0.418631	0.251082	0.235790	0.022720	-0.092903	-100.344853	-89.215437	-159.068728
08288	9.892825	0.471750	0.326997	0.148672	0.017607	-0.084391	-100.430237	-89.265384	-158.896911
08289	9.807371	0.222406	-0.009685	0.089765	0.011764	-0.059431	-100.585874	-89.299620	-158.689387
08290	9.754640	0.105564	-0.042718	0.098590	0.019204	-0.066285	-100.495238	-89.339546	-158.722361
08291	9.719278	0.088123	-0.042765	0.091218	0.016554	-0.052889	-100.369274	-89.370596	-158.795626
08292	9.675867	-0.068635	-0.090641	0.097676	0.018921	-0.044433	-100.062371	-89.398187	-159.045361
08293	9.663893	-0.041533	-0.153033	0.121924	0.014172	-0.046653	-99.959921	-89.425475	-159.077516
08294	9.666843	-0.021760	-0.072167	0.129652	0.015292	-0.042670	-99.785953	-89.451697	-159.175868
08295	9.692171	-0.052478	-0.125123	0.135325	0.008449	-0.039763	-99.937771	-89.474532	-158.946065
08296	9.621696	-0.095467	-0.127374	0.146297	0.008521	-0.038396	-100.131746	-89.497654	-158.667163
08297	9.797964	0.025097	-0.118387	0.172946	0.015187	-0.048388	-99.948208	-89.526022	-158.751174
08298	9.776111	0.268706	0.249084	0.146332	0.025100	-0.044746	-99.056636	-89.554322	-159.557834
08299	9.876274	0.359334	0.131675	0.090087	0.011708	-0.044635	-99.061332	-89.580236	-159.501080
08300	9.791423	0.184525	0.143211	0.053178	0.031064	-0.040335	-97.502291	-89.606380	-161.028957
08301	9.797537	0.085235	0.015918	0.028865	0.013301	-0.037098	-97.216084	-89.628129	-161.298193
08302	9.708651	-0.021608	-0.151870	0.039391	0.026056	-0.035395	-95.742284	-89.650809	-162.748323
08303	9.711621	0.046649	-0.035066	0.060607	0.023968	-0.037651	-94.221839	-89.673314	-164.233629
08304	9.698671	0.018849	-0.041052	0.051471	0.021956	-0.027495	-92.706934	-89.690815	-165.718118
08305	9.727693	0.007536	-0.104901	0.063150	0.017929	-0.028637	-91.408608	-89.707557	-166.979839
08306	9.740908	0.137855	-0.024563	0.074518	0.026002	-0.022508	-89.049369	-89.721741	-169.294893
08307	9.770292	0.271386	0.016987	0.061145	0.023333	-0.021651	-86.747192	-89.733846	-171.561623
08308	9.745388	0.263642	-0.053554	0.030070	0.019782	-0.005942	-84.921354	-89.737869	-173.369385
08309	9.738358	0.173870	-0.062312	0.020376	0.025087	-0.007771	-82.323416	-89.741121	-175.955235
08310	9.740781	0.093946	-0.050358	0.001827	0.029952	-0.002175	-79.204833	-89.741339	-179.071874
08311	9.730378	0.031362	-0.011678	0.012680	0.022582	-0.003450	-76.959973	-89.741313	178.690948
08312	9.743332	0.111098	0.034097	0.022696	0.033286	-0.001148	-73.483046	-89.739121	175.228179
08313	9.688476	0.160267	0.156224	0.015428	0.025093	0.003383	-71.248623	-89.733922	173.003012
08314	9.758572	0.012185	0.021785	-0.010036	0.023049	0.014245	-69.770837	-89.724092	171.520663
08315	9.713966	-0.071070	-0.032744	0.014296	0.019127	0.010784	-68.692010	-89.715590	170.450454
08316	9.719918	-0.034400	0.036420	0.013166	0.022251	0.009067	-67.241296	-89.708358	169.008034
08317	9.701107	-0.055258	-0.001907	0.015940	0.019124	0.007072	-66.126755	-89.701586	167.903052
08318	9.752623	-0.029110	-0.037279	0.014680	0.021467	0.006712	-64.765454	-89.695456	166.550746
08319	9.736229	-0.081584	-0.031090	0.022590	0.024470	0.004514	-63.123740	-89.688389	164.922391
08320	9.723382	-0.015682	0.032943	0.020411	0.023743	0.000543	-61.374304	-89.684414	163.186105
08321	9.733892	-0.001372	-0.035787	0.009543	0.024419	-0.002200	-59.532381	-89.680188	161.350062
08322	9.701099	-0.008190	0.044265	0.013542	0.024590	0.004996	-58.045013	-89.673174	159.871199
08323	9.730389	0.025626	0.015999	0.021189	0.026034	0.005518	-56.592774	-89.664177	158.431517
08324	9.713967	0.021734	0.057083	0.012577	0.020465	0.006212	-55.626224	-89.657535	157.473530
08325	9.695224	0.000816	0.018625	0.017744	0.018569	0.010304	-55.130545	-89.648436	156.988448
08326	9.682327	-0.031000	0.012361	0.023217	0.019283	0.006854	-54.347336	-89.641744	156.219677
08327	9.698765	-0.028448	-0.024735	0.024340	0.016161	0.008577	-53.983883	-89.634194	155.870604
08328	9.701051	-0.060928	0.021124	0.020298	0.014935	0.006206	-53.531244	-89.629180	155.430634
08329	9.704600	-0.089390	-0.024479	0.026850	0.011474	0.009306	-53.559019	-89.622866	155.474234
08330	9.752681	-0.084282	-0.048459	0.032455	0.012965	0.004500	-53.169032	-89.619258	155.103067
08331	9.729130	-0.129657	0.015738	0.026328	0.010735	0.001622	-52.858424	-89.616719	154.807977
08332	9.745598	-0.126324	-0.021707	0.052909	0.016325	-0.003466	-51.825654	-89.615521	153.806580
08333	9.671657	-0.096356	0.058578	0.049559	0.017665	-0.004335	-50.738739	-89.613103	152.748475
08334	9.764302	-0.105190	0.021812	0.058794	0.011344	-0.006679	-49.869175	-89.614898	151.913404
08335	9.712657	-0.131025	0.060573	0.063693	0.016964	-0.008988	-48.573017	-89.614506	150.654151
08336	9.741977	-0.047036	0.065732	0.068756	0.008636	-0.012337	-47.532525	-89.619532	149.654240
08337	9.697485	-0.079550	0.045091	0.067568	0.010711	-0.009232	-46.599791	-89.621365	148.760640
08338	9.723239	-0.016184	0.062052	0.067040	0.009955	-0.016911	-45.148793	-89.627459	147.348600
08339	9.713911	-0.024683	0.042715	0.060650	0.006168	-0.017067	-43.970631	-89.634036	146.205605
08340	9.704488	0.015845	0.057951	0.059776	0.010832	-0.021514	-42.073828	-89.641097	144.343780
08341	9.739620	0.041493	0.060322	0.055603	0.008822	-0.022523	-40.252289	-89.648140	142.554505
08342	9.774871	0.018166	0.028076	0.050128	0.008118	-0.019077	-38.549824	-89.654762	140.881842
08343	9.765555	0.009789	0.008784	0.053932	0.008841	-0.018807	-36.876141	-89.659812	139.239470
08344	9.784164	0.032202	0.050055	0.054875	0.012960	-0.020031	-34.707582	-89.663860	137.103425
08345	9.793284	0.093305	0.105772	0.053001	0.012468	-0.018427	-32.773715	-89.666369	135.200332
08346	9.764996	0.162343	0.115528	0.033628	0.015302	-0.021369	-30.296089	-89.668719	132.743113
08347	9.745099	0.091449	0.133431	0.019803	0.009545	-0.015126	-28.756162	-89.670929	131.214946
08348	9.752521	0.036677	0.041214	0.025820	0.012050	-0.015711	-26.890754	-89.672455	129.364747
08349	9.733721	0.066704	0.036773	0.025164	0.017221	-0.018064	-24.718815	-89.670862	127.207632
08350	9.742743	0.127919	0.092838	0.019534	0.017030	-0.021561	-22.111926	-89.670295	124.612987
08351	9.711370	0.078085	0.046633	-0.003128	0.019904	-0.017104	-20.002213	-89.666051	122.501888
08352	9.719614	-0.010840	0.091165	-0.004031	0.016812	-0.020700	-17.551659	-89.664218	120.050041
08353	9.704588	-0.008572	0.040003	-0.011081	0.010441	-0.022352	-15.303280	-89.665052	117.795716
08354	9.721447	-0.052435	-0.032209	-0.002547	0.008270	-0.022179	-12.938267	-89.667054	115.430880
08355	9.678760	-0.017277	0.060923	0.010690	0.018949	-0.027297	-10.031774	-89.662535	112.530903
08356	9.717320	0.029777	0.051538	0.003512	0.011804	-0.027589	-7.103425	-89.661641	109.606093
08357	9.710319	-0.009247	0.077122	0.002907	0.008973	-0.025611	-4.581053	-89.661065	107.085784
08358	9.687986	0.000987	0.084475	0.006760	0.010729	-0.030168	-1.458060	-89.659191	103.967456
08359	9.698428	0.066219	0.048706	0.010779	0.011976	-0.027789	1.226204	-89.655412	101.289761
08360	9.707635	0.078682	0.069909	0.016441	0.010893	-0.015991	2.915164	-89.652148	99.611849
08361	9.679534	0.098297	0.044984	0.023843	0.011839	-0.017553	4.546051	-89.647764	97.995033
08362	9.653700	0.086535	0.064520	0.029915	0.006352	-0.013799	6.015102	-89.646585	96.544595
08363	9.685671	0.041597	0.044346	0.034382	0.001916	-0.011169	7.117617	-89.647785	95.462200
08364	9.698354	0.073775	0.052460	0.046140	0.005401	-0.009605	8.210987	-89.647109	94.396169
08365	9.707558	0.085176	0.072914	0.045451	0.002823	-0.011092	9.307018	-89.647546	93.326600
08366	9.720230	0.117365	0.080728	0.041040	-0.000740	-0.009383	10.472917	-89.650109	92.185206
08367	9.713285	0.076642	0.105332	0.039516	0.000057	-0.007040	11.253837	-89.652297	91.427354
08368	9.716746	0.098265	0.092883	0.037225	-0.001474	-0.009651	12.492242	-89.654919	90.211528
08369	9.727130	0.161404	0.055698	0.032239	-0.000120	-0.006838	13.276921	-89.657069	89.445747
08370	9.677795	0.104524	0.137563	0.017940	-0.006680	-0.008287	14.525057	-89.662565	88.208191
08371	9.708687	0.142190	0.014857	0.014152	0.000330	-0.009437	15.562337	-89.663904	87.179442
08372	9.645340	-0.012729	-0.023922	0.007123	-0.006054	-0.011084	17.120121	-89.668241	85.626477
08373	9.738857	0.080204	-0.085111	0.029988	-0.000633	-0.014279	18.679152	-89.668950	84.085043
08374	9.728373	0.234312	0.167794	0.028695	0.010710	-0.023838	20.902694	-89.661243	81.878706
08375	9.761678	0.257201	0.261030	-0.036416	0.001627	-0.015603	22.430174	-89.659881	80.330774
08376	9.753651	-0.064713	-0.042979	-0.051693	-0.010074	-0.010982	24.165897	-89.665312	78.567136
08377	9.696825	-0.128519	-0.072323	-0.006633	0.005947	-0.019735	25.890663	-89.660169	76.838980
08378	9.692378	-0.049149	0.008428	0.003743	-0.003460	-0.020270	28.193960	-89.659113	74.538129
08379	9.714214	-0.005580	0.035755	0.005006	-0.005796	-0.019886	30.403906	-89.659053	72.331453
08380	9.665361	0.024501	-0.075619	0.014938	-0.001772	-0.021557	32.704172	-89.655700	70.040594
08381	9.729155	0.149241	0.098988	0.022749	0.002503	-0.032030	35.376231	-89.646717	67.381960
08382	9.738302	0.162558	0.118952	-0.020309	-0.004537	-0.027111	38.076798	-89.641510	64.671259
08383	9.734208	0.028404	-0.016346	-0.026276	-0.006041	-0.031355	40.924842	-89.635052	61.808543
08384	9.689472	0.046501	-0.003968	-0.016223	-0.001243	-0.034387	43.709654	-89.624099	59.015311
08385	9.695242	0.039642	0.028493	-0.028314	0.001703	-0.037563	46.202141	-89.610298	56.506986
08386	9.701645	-0.015802	0.026778	-0.027572	-0.001425	-0.044852	49.213390	-89.593268	53.480630
08387	9.651111	0.014113	0.006878	-0.031905	-0.002958	-0.052795	52.336898	-89.572763	50.339200
08388	9.733200	-0.002434	0.040274	-0.047192	0.003088	-0.063040	55.312698	-89.543619	47.337182
08389	9.749771	0.007185	0.001651	-0.055559	0.000292	-0.073353	58.363120	-89.509931	44.255263
08390	9.742341	0.022371	0.060908	-0.067161	0.007327	-0.086779	61.093794	-89.465642	41.485881
08391	9.726543	-0.020764	0.066190	-0.090911	0.008518	-0.097674	63.542387	-89.415148	38.985522
08392	9.654471	-0.128350	0.041974	-0.120786	0.007416	-0.111442	65.970515	-89.356040	36.488839
08393	9.625079	-0.333579	-0.188467	-0.122514	-0.005756	-0.119100	68.638798	-89.295439	33.750613
08394	9.704185	-0.247697	0.005163	-0.063082	0.015562	-0.154407	70.587690	-89.209610	31.765939
08395	9.737689	-0.030629	0.360088	-0.085049	-0.000342	-0.155525	72.686176	-89.125966	29.618939
08396	9.757733	-0.172474	0.046417	-0.109651	-0.019091	-0.160001	75.081888	-89.040937	27.159378
08397	9.783975	-0.089992	-0.030811	-0.064842	-0.017699	-0.173911	77.138222	-88.947276	25.066012
08398	9.748483	0.003159	-0.055799	-0.051295	-0.009241	-0.156844	78.548414	-88.860324	23.627187
08399	9.718850	0.137534	-0.104581	-0.000815	-0.008561	-0.162467	79.773574	-88.770306	22.401739
08400	9.716003	0.421313	-0.035344	0.017866	0.000440	-0.154400	80.604518	-88.682751	21.581566
08401	9.719838	0.526927	-0.025075	-0.011344	-0.000590	-0.153546	81.321848	-88.596315	20.857974
08402	9.779036	0.527530	0.014979	-0.032786	0.007132	-0.146075	81.764654	-88.512496	20.396892
08403	9.712633	0.408574	0.113737	-0.065692	0.005016	-0.142035	82.161116	-88.431856	19.963079
08404	9.744065	0.307151	0.071001	-0.067271	0.004737	-0.134859	82.513843	-88.354410	19.571947
08405	9.649083	0.322430	0.200837	-0.036103	0.005837	-0.130347	82.808822	-88.280216	19.256587
08406	9.747458	0.369985	0.138331	-0.005571	-0.014761	-0.113359	83.446055	-88.216248	18.616708
08407	9.727541	0.394418	-0.038801	0.035602	-0.006135	-0.088667	83.851850	-88.166399	18.231561
08408	9.737411	0.605219	-0.031370	0.082559	-0.014981	-0.085489	84.419856	-88.117925	17.711576
08409	9.763989	0.766046	-0.006555	0.076413	-0.007300	-0.062535	84.783111	-88.082850	17.392369
08410	9.715142	0.816080	-0.039574	0.062229	-0.010751	-0.042138	85.163776	-88.058673	17.047981
08411	9.794186	0.831225	-0.052071	0.049625	-0.003590	-0.037242	85.393802	-88.037743	16.846713
08412	9.741243	0.854265	0.019213	0.029584	-0.000349	-0.019823	85.541165	-88.025662	16.717961
08413	9.781462	0.870028	0.052777	0.004309	-0.002814	-0.009111	85.690572	-88.020728	16.571377
08414	9.733367	0.740592	0.112095	-0.030735	-0.001203	0.004520	85.783920	-88.022555	16.461364
08415	9.705092	0.446550	0.041130	-0.045485	-0.004386	0.012451	85.904545	-88.029989	16.315033
08416	9.671485	0.368145	0.096174	-0.028428	-0.000679	0.011937	85.983564	-88.035992	16.221565
08417	9.710561	0.363742	0.050567	-0.013730	-0.008868	0.017166	86.193936	-88.046275	16.003640
08418	9.641607	0.364446	-0.010225	0.000340	-0.013194	0.028323	86.483902	-88.062191	15.713399
08419	9.749209	0.408235	-0.053912	0.020990	-0.017737	0.028167	86.860312	-88.078984	15.349250
08420	9.757693	0.468125	-0.091893	0.028403	-0.010216	0.034027	87.122693	-88.097871	15.105431
08421	9.805544	0.660435	-0.038411	0.017098	-0.004331	0.034484	87.271117	-88.117791	14.967171
08422	9.741442	0.645646	0.025176	-0.010816	-0.001107	0.039662	87.353708	-88.139675	14.879560
08423	9.758161	0.645095	-0.013465	-0.033398	0.001111	0.047578	87.371075	-88.166933	14.843480
08424	9.722774	0.611908	0.076666	-0.051225	0.001548	0.050581	87.376825	-88.194946	14.809170
08425	9.744652	0.530206	0.048121	-0.076888	-0.001144	0.055760	87.405349	-88.226945	14.737000
08426	9.671410	0.314648	0.012453	-0.086778	0.001128	0.064864	87.387271	-88.263124	14.706058
08427	9.676612	0.228563	0.022293	-0.068354	-0.003185	0.055935	87.462915	-88.295274	14.591639
08428	9.696403	0.195195	0.028004	-0.058021	0.002005	0.058483	87.453956	-88.327798	14.568834
08429	9.710714	0.066966	0.113886	-0.061230	-0.012211	0.059270	87.717394	-88.362066	14.270631
08430	9.711167	-0.069575	-0.115535	-0.027006	-0.019074	0.051616	88.167004	-88.391088	13.807024
08431	9.746324	0.137665	-0.034788	0.025500	-0.003725	0.054394	88.334309	-88.422312	13.654712
08432	9.678243	0.324012	-0.015275	0.033382	-0.015835	0.050420	88.780267	-88.450483	13.229341
08433	9.745706	0.350917	-0.092802	0.023050	-0.014577	0.055324	89.198988	-88.482293	12.824124
08434	9.738456	0.286637	-0.148916	0.009892	-0.008134	0.052588	89.494726	-88.511548	12.534241
08435	9.740172	0.298603	-0.070597	0.007919	-0.008391	0.050731	89.798209	-88.540577	12.235639
08436	9.741908	0.310856	0.008148	0.009794	0.000659	0.046957	89.916998	-88.566492	12.123852
08437	9.701626	0.358215	0.087917	0.002789	-0.005798	0.045295	90.176940	-88.592353	11.865870
08438	9.722788	0.277274	0.057951	-0.018464	-0.011490	0.044813	90.578681	-88.616961	11.454701
08439	9.748294	0.168780	-0.019173	-0.027727	-0.012006	0.043171	90.992340	-88.641473	11.025474
08440	9.728813	0.021811	-0.026586	-0.021070	-0.005797	0.039279	91.278569	-88.662890	10.726899
08441	9.724166	-0.019742	-0.094526	-0.004687	-0.012241	0.034621	91.732985	-88.682370	10.270116
08442	9.719479	-0.061009	-0.162514	0.014601	-0.006819	0.033241	92.079202	-88.700210	9.932372
08443	9.776723	0.071938	-0.110449	0.049425	-0.002409	0.021420	92.324821	-88.712218	9.715457
08444	9.783036	0.230176	-0.077507	0.036797	-0.001621	0.018907	92.554422	-88.721938	9.507996
08445	9.758912	0.218346	-0.150313	0.022435	-0.000574	0.016634	92.739271	-88.731217	9.336400
08446	9.740851	0.143711	-0.134008	0.019514	0.003834	0.010344	92.808538	-88.736178	9.278134
08447	9.712390	0.055159	-0.045919	0.027078	0.013125	0.010044	92.633956	-88.742053	9.468718
08448	9.752639	0.002312	-0.125068	0.052028	0.004591	0.005543	92.701357	-88.744295	9.432315
08449	9.772442	0.144760	-0.118060	0.076961	0.011287	0.002837	92.593414	-88.745991	9.584832
08450	9.694639	0.151274	-0.026949	0.069382	0.001996	0.003148	92.731104	-88.746790	9.487251
08451	9.736893	0.234955	0.029840	0.062025	0.011569	-0.007099	92.595230	-88.742807	9.659146
08452	9.654371	0.204122	0.054134	0.040673	0.004095	-0.001409	92.656586	-88.741026	9.621948
08453	9.769756	0.242831	-0.046837	0.056633	0.004083	-0.007632	92.712337	-88.736540	9.599082
08454	9.749227	0.386470	0.095448	0.066035	-0.002383	-0.006488	92.949375	-88.731693	9.400604
08455	9.835832	0.323035	-0.088399	0.064498	0.009494	0.016877	92.900832	-88.741387	9.486565
08456	9.699063	0.174778	-0.127858	0.095550	0.009721	0.022718	92.878653	-88.753580	9.564566
08457	9.774631	0.381703	-0.092352	0.135028	0.009154	0.020462	92.882346	-88.765313	9.638699
08458	9.753929	0.403344	-0.006504	0.127074	0.009705	0.041068	92.902479	-88.788002	9.692827
08459	9.767510	0.381691	-0.032826	0.118524	0.004034	0.041783	93.065443	-88.811786	9.598194
08460	9.749559	0.356379	-0.073051	0.096565	0.002525	0.043777	93.277382	-88.835831	9.442844
08461	9.803859	0.400023	-0.122672	0.096694	0.009771	0.049837	93.287813	-88.864399	9.488266
08462	9.743085	0.473197	0.042854	0.089117	0.015732	0.051897	93.127853	-88.893537	9.698894
08463	9.713056	0.414975	-0.004075	0.071802	0.008594	0.064790	93.178298	-88.930621	9.690029
08464	9.674633	0.464712	-0.015795	0.072501	0.004447	0.062344	93.366481	-88.965295	9.544709
08465	9.757617	0.488711	-0.039388	0.061457	0.008927	0.074506	93.428464	-89.007946	9.518376
08466	9.689457	0.331697	-0.018252	0.040239	0.001300	0.083672	93.774336	-89.054688	9.196176
08467	9.782631	0.315502	-0.056102	0.031342	0.002104	0.082756	94.109486	-89.101780	8.879385
08468	9.771266	0.343510	0.049733	0.026429	0.011940	0.083319	94.110574	-89.148665	8.894925
08469	9.774043	0.288404	-0.075229	-0.009935	-0.005422	0.087475	94.800290	-89.198070	8.199887
08470	9.801856	0.194904	-0.161711	-0.019121	0.009345	0.087497	94.948917	-89.247273	8.041525
08471	9.781360	0.212112	-0.075264	-0.032511	0.014566	0.083940	94.838026	-89.295558	8.134239
08472	9.714640	0.008563	-0.178069	-0.055566	0.017266	0.079338	94.562929	-89.340495	8.378570
08473	9.665071	-0.007141	-0.059426	-0.040919	0.028214	0.067048	93.613505	-89.379664	9.305049
08474	9.638793	-0.179551	0.041919	-0.044221	0.015048	0.063111	93.286702	-89.415163	9.607486
08475	9.701816	-0.279758	0.093782	-0.032523	0.013109	0.052440	92.985648	-89.445322	9.890361
08476	9.792029	-0.262255	0.011641	-0.021632	-0.000938	0.047354	93.532123	-89.471325	9.331117
08477	9.754591	-0.158046	-0.057082	0.018899	0.012893	0.032015	93.184037	-89.489805	9.690489
08478	9.797030	-0.028481	0.033628	0.007831	0.011946	0.031943	92.886431	-89.507326	9.994677
08479	9.771082	-0.161079	-0.093279	0.008444	0.015787	0.025136	92.260905	-89.521897	10.625506
08480	9.728880	-0.078230	-0.057334	0.020747	0.016668	0.012479	91.539828	-89.528425	11.358525
08481	9.762057	-0.073674	-0.133229	0.019137	0.017709	0.011353	90.698775	-89.534982	12.211014
08482	9.694918	-0.051891	-0.111906	0.028558	0.029704	-0.003699	89.036295	-89.532006	13.891406
08483	9.722507	0.081014	-0.072325	0.020278	0.025631	-0.005728	87.642250	-89.528302	15.297559
08484	9.706684	0.029763	-0.064884	0.015578	0.029521	-0.010473	86.066077	-89.520748	16.884464
08485	9.680148	0.067014	-0.008925	0.026108	0.037401	-0.018946	84.032216	-89.508260	18.933799
08486	9.687599	0.177811	0.082794	0.026562	0.039460	-0.019563	82.014146	-89.494023	20.967169
08487	9.657571	0.194735	0.151500	0.014912	0.035688	-0.017666	80.276736	-89.481258	22.713635
08488	9.678377	0.170940	0.069698	0.012628	0.034143	-0.020276	78.790353	-89.466043	24.208792
08489	9.692538	0.105527	0.012810	0.013382	0.036486	-0.015326	77.142500	-89.453648	25.864830
08490	9.681079	0.127760	-0.049082	0.023604	0.027589	-0.022755	76.227519	-89.437316	26.793950
08491	9.681064	0.129985	-0.045930	0.011589	0.038006	-0.023385	74.756185	-89.419570	28.272440
08492	9.711136	0.117465	-0.107445	0.010615	0.035135	-0.030433	73.670839	-89.397399	29.364477
08493	9.706798	0.149179	-0.057283	-0.002162	0.043203	-0.036015	72.303107	-89.371234	30.731492
08494	9.712443	0.142800	-0.020666	-0.010060	0.041419	-0.042141	71.266095	-89.341196	31.763247
08495	9.734861	0.038497	0.000644	-0.024044	0.042824	-0.038937	70.156123	-89.312961	32.859960
08496	9.779732	0.028014	-0.007613	-0.010043	0.042428	-0.046955	69.327306	-89.279644	33.684585
08497	9.774124	0.110213	0.077261	-0.017137	0.050485	-0.045557	68.181367	-89.245859	34.821242
08498	9.756081	0.093536	0.041667	-0.022521	0.043028	-0.046084	67.463071	-89.212547	35.528855
08499	9.709992	0.094914	-0.020183	-0.011773	0.052459	-0.057238	66.603342	-89.171735	36.382366
08500	9.696422	0.118148	0.011151	-0.031753	0.051301	-0.053486	65.829779	-89.132398	37.139415
08501	9.714509	0.077955	-0.056651	-0.035045	0.048133	-0.071435	65.461145	-89.084919	37.488455
08502	9.677053	0.159712	0.015122	-0.052461	0.060818	-0.083133	64.924270	-89.027700	37.996216
08503	9.579289	0.104247	0.127751	-0.079882	0.063176	-0.104072	64.620924	-88.959554	38.254275
08504	9.629233	-0.062076	0.233716	-0.129397	0.049325	-0.131795	65.068368	-88.879881	37.732776
08505	9.793098	-0.414699	0.001649	-0.156377	0.027452	-0.136264	66.009217	-88.803485	36.702562
08506	9.929755	-0.663508	-0.064702	-0.084162	0.061040	-0.144741	66.192750	-88.714152	36.473238
08507	9.888019	-0.410727	0.189510	0.027485	0.059777	-0.142889	66.397774	-88.626570	36.284353
08508	9.787683	-0.005984	0.153179	0.082823	0.057119	-0.141320	66.668093	-88.539928	36.061578
08509	9.768023	0.343509	0.286252	0.092474	0.051949	-0.139315	66.984229	-88.455957	35.798779
08510	9.715835	0.345245	0.112940	0.048123	0.054288	-0.132449	67.166067	-88.374581	35.646633
08511	9.668736	0.284392	0.029515	0.059135	0.056339	-0.137089	67.319428	-88.290764	35.527547
08512	9.603839	0.357579	0.119646	0.063194	0.059422	-0.140829	67.454091	-88.203838	35.432386
08513	9.600765	0.402487	0.080128	0.053182	0.056528	-0.147478	67.646433	-88.114461	35.270874
08514	9.662481	0.406301	0.034975	0.030244	0.059545	-0.150122	67.793757	-88.022459	35.143150
08515	9.635559	0.337701	0.037255	-0.010703	0.057246	-0.167714	68.031017	-87.922152	34.900049
08516	9.752988	0.170670	0.001101	-0.046814	0.036088	-0.185724	68.634014	-87.816125	34.271960
08517	9.894329	0.137842	0.002301	-0.040767	0.054981	-0.180288	68.890925	-87.709458	33.991921
08518	9.794894	0.329891	0.133604	0.001323	0.050835	-0.182687	69.225262	-87.601733	33.663092
08519	9.831485	0.724826	0.158674	0.028795	0.068359	-0.173584	69.277084	-87.495853	33.628179
08520	9.673731	0.756385	0.251578	0.000256	0.065641	-0.152310	69.257632	-87.401393	33.651336
08521	9.732625	0.843635	0.104971	0.003718	0.054620	-0.140891	69.307283	-87.315817	33.604208
08522	9.736477	0.864807	0.222405	-0.011148	0.067178	-0.129278	69.167489	-87.233367	33.740080
08523	9.675748	0.837211	0.244861	-0.023286	0.058338	-0.115913	69.059251	-87.160410	33.835534
08524	9.611320	0.927112	0.323209	-0.023847	0.070008	-0.101852	68.786392	-87.091968	34.098505
08525	9.570146	0.939318	0.373526	-0.035034	0.049525	-0.093552	68.686300	-87.032752	34.179073
08526	9.634884	1.063093	0.201835	-0.055010	0.047004	-0.085149	68.580262	-86.977908	34.257369
08527	9.760930	1.057010	0.310124	-0.095772	0.056361	-0.074267	68.309250	-86.927509	34.474258
08528	9.560406	0.736821	0.101012	-0.137837	0.036975	-0.078364	68.236757	-86.878419	34.469726
08529	9.812758	0.868091	-0.062443	-0.133239	0.047910	-0.064924	68.001628	-86.834728	34.629199
08530	9.652358	0.606313	0.326874	-0.141567	0.069470	-0.068047	67.584698	-86.784038	34.968398
08531	9.847460	0.556816	0.136007	-0.133552	0.032966	-0.039469	67.403342	-86.757005	35.073847
08532	9.707757	0.346567	0.133937	-0.084660	0.065918	-0.023986	66.896908	-86.730192	35.534651
08533	9.781726	0.658312	0.298900	-0.028865	0.050171	-0.032140	66.596652	-86.703050	35.819281
08534	9.703582	0.685989	0.380633	-0.062454	0.057705	-0.011793	66.141439	-86.684088	36.241655
08535	9.703946	0.508874	0.274355	-0.066327	0.046808	-0.007247	65.759803	-86.670532	36.586312
08536	9.621158	0.367939	0.211086	-0.033338	0.050892	-0.013477	65.397727	-86.651985	36.932944
08537	9.641465	0.450081	0.311473	-0.017100	0.043383	-0.018627	65.127558	-86.633089	37.194209
08538	9.654564	0.396488	0.222189	-0.023843	0.036574	-0.016956	64.918828	-86.616162	37.390531
08539	9.748759	0.446875	0.134070	-0.020349	0.038179	-0.026968	64.731875	-86.594094	37.566578
08540	9.766105	0.509549	0.246184	-0.040988	0.045369	-0.038031	64.526964	-86.564029	37.747750
08541	9.691587	0.382272	0.202377	-0.064136	0.039352	-0.044196	64.380715	-86.532698	37.857896
08542	9.720963	0.353192	0.154101	-0.064346	0.040911	-0.055872	64.278875	-86.494377	37.924373
08543	9.713871	0.386582	0.205212	-0.063865	0.045838	-0.067381	64.176582	-86.449441	37.990644
08544	9.696041	0.441819	0.191487	-0.072265	0.042107	-0.076433	64.146870	-86.400273	37.981028
08545	9.710747	0.272068	0.135985	-0.084270	0.037013	-0.078926	64.152986	-86.351584	37.926966
08546	9.677926	0.292531	0.204620	-0.048629	0.045881	-0.087812	64.149835	-86.295568	37.903436
08547	9.720134	0.375257	0.298956	-0.039377	0.030304	-0.092065	64.282538	-86.241769	37.748288
08548	9.728614	0.485483	0.333926	-0.019175	0.041499	-0.093487	64.348193	-86.183940	37.672568
08549	9.671598	0.474514	0.340492	-0.007845	0.032892	-0.082867	64.438218	-86.134221	37.578282
08550	9.760199	0.542377	0.220017	0.024783	0.032959	-0.078842	64.536486	-86.086045	37.496125
08551	9.748074	0.625746	0.304604	0.041474	0.034549	-0.075015	64.609670	-86.039961	37.447034
08552	9.776383	0.759679	0.288947	0.040190	0.035534	-0.067154	64.652548	-85.997179	37.428710
08553	9.748206	0.820981	0.332511	0.043761	0.035865	-0.068909	64.693871	-85.953930	37.412867
08554	9.714660	0.892409	0.344011	0.018579	0.043609	-0.061391	64.644463	-85.912217	37.472980
08555	9.667464	0.872325	0.291649	-0.000261	0.030064	-0.059600	64.670456	-85.875211	37.447217
08556	9.651179	0.856602	0.253896	-0.006016	0.036909	-0.057076	64.642043	-85.837352	37.473723
08557	9.722643	0.902891	0.295651	-0.011750	0.033677	-0.049733	64.602557	-85.804567	37.507010
08558	9.704036	0.812256	0.326543	-0.020118	0.035813	-0.044490	64.532378	-85.773472	37.566576
08559	9.767731	0.846788	0.347830	-0.018757	0.032474	-0.039325	64.464075	-85.746361	37.624736
08560	9.736656	0.792612	0.392792	-0.030619	0.034003	-0.028885	64.350710	-85.723721	37.721946
08561	9.718199	0.752594	0.367058	-0.021969	0.031078	-0.023794	64.240584	-85.704960	37.820204
08562	9.692577	0.830100	0.398655	-0.008862	0.032378	-0.018186	64.117376	-85.688225	37.939621
08563	9.628246	0.800643	0.384089	-0.007712	0.035466	-0.005587	63.926850	-85.677706	38.126705
08564	9.673855	0.751093	0.308337	0.003811	0.019701	-0.001054	63.842017	-85.672953	38.215209
08565	9.673999	0.841559	0.321215	0.008456	0.023395	0.006349	63.703866	-85.671565	38.359060
08566	9.715085	0.877199	0.346865	0.002826	0.020934	0.012336	63.565171	-85.673338	38.500786
08567	9.674275	0.929885	0.336207	-0.007673	0.021208	0.018356	63.391955	-85.678609	38.670533
08568	9.661497	0.874774	0.341827	-0.021390	0.023216	0.025546	63.178303	-85.686494	38.873190
08569	9.640999	0.808475	0.326718	-0.018848	0.017066	0.028986	62.989048	-85.698181	39.052599
08570	9.612550	0.693113	0.223301	-0.021082	0.013385	0.035901	62.804569	-85.713814	39.225892
08571	9.633149	0.662735	0.231149	-0.008260	0.015476	0.031197	62.622258	-85.726958	39.404414
08572	9.653943	0.670476	0.306363	-0.000691	0.017180	0.031894	62.435654	-85.739450	39.592344
08573	9.725624	0.617693	0.335601	0.000576	0.014104	0.033614	62.256887	-85.754099	39.772382
08574	9.687720	0.675421	0.436211	0.003288	0.020639	0.024778	62.072025	-85.761970	39.960299
08575	9.690698	0.731820	0.493301	-0.017502	0.014780	0.029366	61.891572	-85.774203	40.131636
08576	9.721117	0.657782	0.375205	-0.021865	0.011342	0.027499	61.744185	-85.785895	40.267303
08577	9.751544	0.568787	0.380803	-0.016938	0.017366	0.030888	61.538744	-85.798117	40.464015
08578	9.708323	0.599002	0.381504	-0.005358	0.012441	0.029277	61.385434	-85.810343	40.616062
08579	9.670185	0.619052	0.414421	-0.014677	0.012015	0.023999	61.241888	-85.820490	40.752006
08580	9.669821	0.540756	0.280838	-0.015647	0.006305	0.027845	61.127972	-85.833634	40.857772
08581	9.618570	0.508222	0.316513	-0.002898	0.008649	0.019706	61.029414	-85.842521	40.955372
08582	9.629083	0.538111	0.325829	0.001682	0.004612	0.018913	60.970271	-85.851637	41.016274
08583	9.667974	0.604619	0.305449	0.000835	0.001781	0.011849	60.950822	-85.858484	41.036700
08584	9.688345	0.576216	0.311929	-0.004804	0.000377	0.013044	60.939306	-85.865828	41.046210
08585	9.658258	0.661258	0.308086	-0.000718	0.003566	0.009371	60.916023	-85.870936	41.069588
08586	9.727544	0.680163	0.359029	-0.002942	0.001984	0.006714	60.919131	-85.874687	41.065798
08587	9.696857	0.674687	0.344200	-0.008208	0.001605	0.012113	60.894497	-85.881713	41.086227
08588	9.692152	0.721837	0.379269	-0.013462	0.002277	0.012727	60.866066	-85.888414	41.107668
08589	9.714584	0.623947	0.362928	-0.019475	-0.000150	0.009719	60.856360	-85.894730	41.106659
08590	9.716708	0.553392	0.340133	-0.015688	0.000695	0.010070	60.847501	-85.900511	41.106731
08591	9.696476	0.579680	0.333945	-0.004795	0.001425	0.008261	60.840859	-85.905659	41.111082
08592	9.676522	0.643990	0.394879	-0.011195	-0.003074	0.005833	60.877860	-85.910351	41.068783
08593	9.704717	0.641686	0.297807	-0.008280	-0.007159	0.008687	60.927791	-85.918104	41.014415
08594	9.686837	0.636419	0.335443	-0.009158	-0.002005	0.006390	60.956219	-85.922819	40.981040
08595	9.712593	0.650787	0.317824	-0.014800	-0.003407	0.007585	60.980604	-85.928972	40.948539
08596	9.694406	0.607788	0.288293	-0.018490	-0.003470	0.005894	61.016218	-85.933826	40.902886
08597	9.699493	0.596628	0.320635	-0.003517	-0.000604	0.005194	61.036802	-85.938001	40.880678
08598	9.748530	0.642778	0.364992	-0.005083	0.000131	0.007502	61.048254	-85.942653	40.866864
08599	9.717127	0.546914	0.338656	-0.006044	-0.004528	0.006560	61.089911	-85.948598	40.822077
08600	9.745603	0.582378	0.309175	0.004148	0.000812	0.009339	61.094717	-85.954001	40.819898
08601	9.715216	0.614945	0.361362	0.005139	-0.002508	0.005510	61.132742	-85.958858	40.785178
08602	9.689563	0.599256	0.378382	0.004651	-0.005364	0.007431	61.189248	-85.964974	40.731678
08603	9.702516	0.613681	0.307302	0.008153	-0.005813	0.007021	61.246862	-85.971497	40.679051
08604	9.687368	0.629635	0.332897	0.008440	-0.004521	0.007782	61.299135	-85.977569	40.633135
08605	9.682389	0.639454	0.299849	0.006300	-0.006370	0.008567	61.353966	-85.985015	40.582234
08606	9.735848	0.599338	0.241187	0.001935	-0.009798	0.006696	61.444701	-85.992023	40.493441
08607	9.733526	0.615393	0.319922	0.007565	0.000633	0.005485	61.462373	-85.995993	40.480518
08608	9.690293	0.633001	0.442633	0.003573	-0.001772	0.007817	61.491765	-86.001334	40.453723
08609	9.677158	0.594559	0.321759	-0.003219	-0.008342	0.005971	61.566183	-86.007999	40.377721
08610	9.658924	0.551617	0.291720	0.017093	-0.006429	0.008096	61.636461	-86.014740	40.318184
08611	9.702985	0.608394	0.302984	0.019433	-0.003017	0.004627	61.691009	-86.019267	40.275112
08612	9.662145	0.609453	0.345870	0.014663	-0.009570	0.008123	61.782823	-86.026909	40.191968
08613	9.716381	0.659963	0.297853	0.015737	-0.013162	0.007739	61.897345	-86.035741	40.086656
08614	9.726618	0.637805	0.361415	0.021447	-0.013084	0.014770	61.993169	-86.047608	40.003172
08615	9.730329	0.748225	0.359009	0.024844	-0.014317	0.015702	62.091432	-86.060755	39.919391
08616	9.693812	0.662097	0.299075	0.008799	-0.013578	0.016794	62.177367	-86.073786	39.839220
08617	9.724724	0.665123	0.312871	0.009390	-0.009943	0.013528	62.244001	-86.084645	39.778270
08618	9.673443	0.633501	0.347033	-0.000450	-0.006269	0.019727	62.259819	-86.097220	39.762853
08619	9.745219	0.634694	0.317492	-0.001981	-0.012465	0.012484	62.343422	-86.108215	39.678366
08620	9.739855	0.591021	0.340288	-0.002967	-0.009141	0.016312	62.393508	-86.119825	39.628002
08621	9.729825	0.610675	0.274363	0.003846	-0.010559	0.013386	62.463477	-86.130760	39.560528
08622	9.734125	0.759094	0.339872	-0.000625	-0.005733	0.012840	62.503469	-86.139678	39.521947
08623	9.692901	0.721374	0.315583	-0.024654	-0.009787	0.018611	62.531389	-86.153058	39.480253
08624	9.656213	0.635117	0.256513	-0.027852	-0.006991	0.014999	62.556287	-86.163428	39.439002
08625	9.702258	0.621056	0.244827	-0.025832	-0.006976	0.020339	62.555758	-86.176942	39.425146
08626	9.632959	0.599882	0.193676	-0.026500	-0.009291	0.015376	62.598313	-86.188105	39.367978
08627	9.772390	0.689865	0.237704	-0.021063	-0.009462	0.016859	62.633619	-86.200502	39.320945
08628	9.708294	0.643125	0.342829	-0.043231	-0.002871	0.016286	62.614289	-86.210353	39.317151
08629	9.700565	0.630929	0.321968	-0.051795	-0.009204	0.014655	62.639085	-86.221560	39.263006
08630	9.676668	0.544782	0.316202	-0.055693	-0.001791	0.015641	62.606643	-86.230872	39.263930
08631	9.637495	0.490722	0.212841	-0.047140	-0.012470	0.012513	62.668276	-86.241849	39.175544
08632	9.662823	0.451679	0.250881	-0.034960	-0.004757	0.007609	62.703030	-86.247867	39.121024
08633	9.696469	0.476223	0.253247	-0.025837	-0.013911	0.010783	62.795728	-86.258329	39.013739
08634	9.717188	0.500787	0.202070	-0.009592	-0.014160	0.011775	62.901768	-86.268873	38.901981
08635	9.685456	0.602425	0.276551	-0.008805	-0.010012	0.010617	62.975459	-86.278211	38.823526
08636	9.724706	0.669054	0.254908	-0.014953	-0.014260	0.013742	63.072629	-86.289808	38.717668
08637	9.747774	0.661426	0.248284	-0.015439	-0.008085	0.015659	63.107975	-86.301210	38.673830
08638	9.745815	0.676258	0.326843	-0.026538	-0.009299	0.015387	63.154345	-86.312343	38.613786
08639	9.734121	0.552195	0.306000	-0.026163	-0.008286	0.019595	63.169812	-86.325805	38.583712
08640	9.688848	0.615673	0.260666	-0.024019	-0.006439	0.018808	63.181175	-86.337937	38.559459
08641	9.685704	0.539764	0.327871	-0.032286	-0.010411	0.013151	63.236554	-86.348651	38.485878
08642	9.654249	0.496483	0.244413	-0.023836	-0.013906	0.016128	63.319036	-86.361337	38.389813
08643	9.685190	0.499229	0.258013	-0.009816	-0.015734	0.014453	63.425951	-86.374071	38.277495
08644	9.652450	0.509883	0.320985	-0.002118	-0.013284	0.013800	63.526526	-86.385390	38.175820
08645	9.701701	0.570529	0.240096	0.001365	-0.022775	0.013379	63.703122	-86.399335	38.000103
08646	9.706950	0.558240	0.270834	0.002057	-0.011440	0.018352	63.773943	-86.412552	37.929690
08647	9.732338	0.518438	0.307798	0.007393	-0.020376	0.016379	63.924430	-86.427389	37.783599
08648	9.770242	0.654088	0.308712	0.008081	-0.017011	0.016565	64.053670	-86.440980	37.659534
08649	9.674587	0.565412	0.330149	-0.006234	-0.016467	0.017485	64.161667	-86.455367	37.548197
08650	9.702391	0.562197	0.231704	0.006307	-0.017846	0.021561	64.278518	-86.471784	37.434745
08651	9.714219	0.629059	0.306046	0.003947	-0.021260	0.025033	64.404161	-86.491231	37.311576
08652	9.735031	0.652219	0.253997	0.007534	-0.021999	0.028058	64.532520	-86.511934	37.187150
08653	9.746040	0.680979	0.260795	-0.000642	-0.018268	0.030639	64.610102	-86.533515	37.109503
08654	9.721934	0.593482	0.253157	-0.010205	-0.021265	0.032854	64.705369	-86.556563	37.007665
08655	9.714194	0.580043	0.230806	-0.013001	-0.016376	0.028675	64.769571	-86.576650	36.936331
08656	9.677877	0.530636	0.237961	-0.016910	-0.017989	0.029679	64.848217	-86.597223	36.848190
08657	9.718216	0.472891	0.248429	-0.018962	-0.019048	0.029130	64.932292	-86.618184	36.753531
08658	9.663045	0.381559	0.225671	-0.009550	-0.025875	0.028254	65.092169	-86.639914	36.587359
08659	9.783321	0.390243	0.171119	0.000029	-0.021820	0.021249	65.247022	-86.657417	36.432703
08660	9.743943	0.427566	0.280466	0.007647	-0.019104	0.017139	65.406147	-86.671641	36.278329
08661	9.750944	0.398699	0.231632	0.009483	-0.019616	0.020373	65.553289	-86.688113	36.136828
08662	9.724160	0.451501	0.270582	0.016804	-0.018191	0.015498	65.718471	-86.701228	35.980941
08663	9.696211	0.467117	0.242194	0.017204	-0.016117	0.014919	65.863275	-86.713983	35.846217
08664	9.720843	0.443210	0.155353	0.020110	-0.019162	0.012970	66.052279	-86.726001	35.668770
08665	9.683188	0.465205	0.185630	0.013225	-0.016384	0.007693	66.228873	-86.734984	35.499925
08666	9.751875	0.445935	0.166657	0.018199	-0.017310	0.001504	66.448564	-86.740518	35.290972
08667	9.739912	0.483613	0.179509	0.018792	-0.014730	0.003028	66.633546	-86.746605	35.116922
08668	9.741194	0.520987	0.245557	0.013747	-0.012464	0.000984	66.808051	-86.750656	34.948821
08669	9.705091	0.527671	0.197284	0.010857	-0.008357	-0.001855	66.949735	-86.752678	34.813585
08670	9.715988	0.559267	0.205156	0.007442	-0.008169	0.002018	67.077559	-86.756305	34.688676
08671	9.710808	0.569773	0.171856	0.003536	-0.009777	0.003027	67.209561	-86.761185	34.558938
08672	9.702339	0.506011	0.206390	0.005287	-0.010010	0.002813	67.351348	-86.765570	34.420221
08673	9.701089	0.468230	0.137894	0.012291	-0.010942	0.001959	67.504228	-86.770104	34.274597
08674	9.742920	0.503870	0.160433	0.023899	-0.006902	0.000276	67.637929	-86.772493	34.153773
08675	9.718520	0.526607	0.244829	0.019048	-0.004130	0.000335	67.737518	-86.774648	34.065403
08676	9.732265	0.579217	0.240960	0.014635	-0.008594	0.003270	67.871202	-86.778926	33.940687
08677	9.714648	0.574566	0.278562	0.010592	-0.001675	0.002164	67.936094	-86.781504	33.882217
08678	9.710541	0.515515	0.222495	0.002082	-0.008253	0.004005	68.055805	-86.786017	33.762392
08679	9.686382	0.484015	0.160179	0.015246	-0.004955	0.000002	68.162950	-86.788134	33.664274
08680	9.697293	0.515522	0.168050	0.016084	-0.010118	0.002296	68.316030	-86.792147	33.519906
08681	9.728253	0.519502	0.181835	0.010937	-0.008635	0.001595	68.450093	-86.795864	33.392355
08682	9.751141	0.513116	0.175245	0.020389	-0.006438	0.000704	68.577381	-86.798219	33.276728
08683	9.705421	0.525617	0.186188	0.020985	-0.003857	0.002225	68.669759	-86.801244	33.196694
08684	9.702598	0.504582	0.197528	0.011354	-0.005505	-0.003776	68.800285	-86.801024	33.073045
08685	9.681213	0.494627	0.123487	0.011547	-0.004997	-0.001673	68.912839	-86.802183	32.967388
08686	9.717381	0.488469	0.170256	0.015659	-0.001826	-0.005370	69.016506	-86.800315	32.873302
08687	9.679689	0.512227	0.201848	0.012714	-0.006756	-0.008195	69.170420	-86.798319	32.726890
08688	9.702526	0.506748	0.195484	0.009617	-0.004217	-0.008351	69.303623	-86.795336	32.598792
08689	9.694425	0.497088	0.174387	0.010963	-0.006523	-0.007981	69.453122	-86.793367	32.455795
08690	9.753830	0.538140	0.158982	0.014968	-0.004134	-0.010336	69.595195	-86.789143	32.323208
08691	9.697167	0.520029	0.161327	0.003665	-0.006882	-0.007884	69.743152	-86.787256	32.177567
08692	9.741394	0.525057	0.228355	0.005428	-0.006060	-0.012888	69.906065	-86.782112	32.016531
08693	9.713217	0.543125	0.201025	-0.002077	-0.007983	-0.010104	70.068486	-86.779201	31.853106
08694	9.721246	0.554602	0.220908	0.002122	-0.005085	-0.010357	70.211020	-86.775091	31.712630
08695	9.738796	0.560050	0.182209	-0.001572	-0.005129	-0.012032	70.352368	-86.770541	31.570601
08696	9.698273	0.563089	0.225638	-0.005474	-0.006737	-0.011019	70.508989	-86.766411	31.413459
08697	9.718622	0.589584	0.174852	-0.016672	-0.008706	-0.009909	70.667959	-86.763646	31.245113
08698	9.730589	0.552541	0.159693	-0.007432	-0.008068	-0.008118	70.824422	-86.761303	31.084143
08699	9.747857	0.504586	0.176931	-0.014637	-0.008703	-0.004574	70.966390	-86.761376	30.933994
08700	9.753123	0.494564	0.208665	-0.005281	-0.006226	-0.008916	71.108520	-86.758196	30.788331
08701	9.702061	0.518621	0.187283	-0.007031	-0.005994	-0.008702	71.242189	-86.755488	30.650858
08702	9.705968	0.471032	0.151750	0.000163	-0.006414	-0.007457	71.383790	-86.753134	30.508052
08703	9.660206	0.484237	0.162558	0.010455	-0.009371	-0.006058	71.550904	-86.752438	30.347115
08704	9.716780	0.504097	0.158651	0.023205	-0.008139	-0.009487	71.728491	-86.749157	30.183052
08705	9.684396	0.517250	0.222129	0.019097	-0.011313	-0.005786	71.918050	-86.748899	30.004593
08706	9.696645	0.532928	0.150210	0.022295	-0.013068	-0.006973	72.134255	-86.747833	29.801554
08707	9.711428	0.516651	0.122445	0.024034	-0.014354	-0.002398	72.345385	-86.749881	29.604322
08708	9.712791	0.555131	0.188391	0.026096	-0.011188	-0.011433	72.559092	-86.746055	29.405008
08709	9.712758	0.556173	0.187041	0.016546	-0.014175	-0.009187	72.784624	-86.744276	29.189053
08710	9.738362	0.571885	0.168108	0.019592	-0.008459	-0.007713	72.955840	-86.741883	29.027935
08711	9.709950	0.536710	0.196647	0.015094	-0.012652	-0.008212	73.162535	-86.740300	28.830013
08712	9.711288	0.520715	0.116173	0.019086	-0.011313	-0.005782	73.356308	-86.739415	28.648402
08713	9.693734	0.517099	0.153317	0.030376	-0.008557	-0.008244	73.532026	-86.737072	28.490277
08714	9.692523	0.587454	0.175145	0.020932	-0.010764	-0.007339	73.724679	-86.735152	28.309120
08715	9.726209	0.613620	0.176492	0.018183	-0.015190	-0.008051	73.956377	-86.733909	28.087925
08716	9.707259	0.572055	0.146048	0.011686	-0.012460	-0.004332	74.149872	-86.733784	27.898246
08717	9.701890	0.583100	0.112425	0.013834	-0.010619	-0.005134	74.326733	-86.733351	27.729482
08718	9.749051	0.608860	0.166828	0.008087	-0.012777	-0.002556	74.517479	-86.734268	27.541506
08719	9.715354	0.583701	0.162743	0.007686	-0.014850	-0.001968	74.723393	-86.736163	27.340113
08720	9.726212	0.615459	0.169802	0.013427	-0.013740	0.000245	74.920509	-86.738683	27.151270
08721	9.687151	0.600619	0.133433	0.021416	-0.010009	0.000309	75.081830	-86.741044	27.002423
08722	9.712782	0.615183	0.114390	0.013721	-0.013495	0.005793	75.262513	-86.746457	26.830137
08723	9.700503	0.545055	0.037546	0.022110	-0.007691	0.005268	75.389595	-86.751182	26.715985
08724	9.747755	0.569810	0.092357	0.024655	-0.004825	0.008666	75.484913	-86.756973	26.633224
08725	9.709029	0.661906	0.146740	0.019415	-0.003083	0.004522	75.567835	-86.760602	26.561756
08726	9.690096	0.619209	0.117314	0.009977	-0.005289	0.005433	75.669569	-86.764710	26.466615
08727	9.715651	0.580723	0.155466	0.003289	-0.003068	0.007051	75.737154	-86.769729	26.401255
08728	9.710320	0.590435	0.122607	-0.007996	-0.005821	0.009523	75.823953	-86.776102	26.311293
08729	9.730495	0.562290	0.128281	0.002988	-0.004362	0.006295	75.906493	-86.780871	26.230783
08730	9.730548	0.561408	0.128159	0.006435	0.002384	0.011960	75.915148	-86.787447	26.227757
08731	9.713139	0.556021	0.166601	-0.004648	0.001192	0.011742	75.925121	-86.794465	26.215547
08732	9.682198	0.550850	0.152420	-0.009082	0.007079	0.006418	75.891731	-86.797345	26.244515
08733	9.668607	0.497553	0.156224	-0.011087	-0.002237	0.004573	75.949984	-86.800856	26.180254
08734	9.700833	0.484592	0.091608	-0.014379	-0.000213	0.002314	75.996103	-86.802375	26.127683
08735	9.709963	0.372769	0.145696	-0.018272	-0.000774	-0.001457	76.050795	-86.802324	26.062866
08736	9.711068	0.303494	0.122584	-0.005196	-0.006511	-0.005451	76.183209	-86.800462	25.926145
08737	9.688194	0.310572	0.127713	0.015974	-0.007740	-0.010730	76.349294	-86.796183	25.769412
08738	9.718028	0.385601	0.164492	0.027559	-0.003696	-0.012446	76.489332	-86.789963	25.646251
08739	9.759918	0.475593	0.130271	0.036633	-0.011820	-0.014072	76.714677	-86.784311	25.442018
08740	9.716860	0.510961	0.129003	0.034342	-0.004094	-0.020200	76.878370	-86.773797	25.296847
08741	9.668372	0.557039	0.095613	0.034236	-0.004874	-0.018853	77.042835	-86.764508	25.152212
08742	9.675218	0.639361	0.137956	0.027993	-0.007794	-0.023916	77.247068	-86.752393	24.964905
08743	9.738255	0.633312	0.087004	0.016810	-0.009769	-0.022786	77.456273	-86.741463	24.765455
08744	9.751666	0.635540	0.139068	0.012470	-0.005194	-0.019874	77.613985	-86.731178	24.615242
08745	9.727481	0.713276	0.167189	0.017161	-0.000482	-0.017286	77.718449	-86.722129	24.520901
08746	9.742131	0.697754	0.140447	0.005184	-0.007646	-0.010181	77.872311	-86.717439	24.368339
08747	9.719216	0.704875	0.145580	0.000145	-0.006437	-0.007434	78.003558	-86.714597	24.237405
08748	9.744798	0.667333	0.183654	0.000847	-0.005154	0.002313	78.105524	-86.716593	24.136839
08749	9.705736	0.651703	0.148273	0.003695	-0.002029	0.011253	78.157251	-86.723684	24.087593
08750	9.699203	0.678206	0.194446	0.004140	-0.008214	0.009365	78.276802	-86.729990	23.970398
08751	9.740784	0.605456	0.126743	-0.007137	-0.010970	0.011843	78.409718	-86.738436	23.833615
08752	9.749003	0.614908	0.146132	-0.012676	-0.011569	0.011736	78.549867	-86.746447	23.687514
08753	9.662719	0.520484	0.111229	-0.012176	-0.009760	0.014592	78.663853	-86.756265	23.566803
08754	9.681384	0.453775	0.049135	-0.006095	-0.014568	0.011464	78.839450	-86.764362	23.389877
08755	9.722130	0.558547	0.093458	0.006727	-0.012561	0.006667	79.009140	-86.769994	23.224222
08756	9.707494	0.574458	0.118430	-0.004150	-0.014284	0.013349	79.180914	-86.779173	23.050179
08757	9.716825	0.566983	0.058530	-0.001703	-0.010109	0.008504	79.319075	-86.785524	22.911267
08758	9.738613	0.629398	0.074401	-0.003249	-0.009362	0.010821	79.447266	-86.792668	22.779840
08759	9.741397	0.649405	0.061645	-0.015372	-0.006959	0.010992	79.542339	-86.800058	22.676243
08760	9.674043	0.597338	0.056043	-0.022256	-0.006294	0.015306	79.622759	-86.809377	22.584855
08761	9.707857	0.621340	0.057912	-0.028704	-0.010771	0.012940	79.746212	-86.818236	22.445185
08762	9.741685	0.592843	0.116673	-0.020552	0.002772	0.011599	79.744171	-86.824563	22.437881
08763	9.693356	0.582996	0.140521	-0.032642	-0.004122	0.015266	79.794343	-86.834046	22.369347
08764	9.706458	0.526610	0.046677	-0.029555	-0.006660	0.015423	79.876220	-86.843448	22.273001
08765	9.692919	0.472393	0.049808	-0.027409	-0.004820	0.014616	79.938547	-86.852625	22.195297
08766	9.687534	0.428906	0.073367	-0.022372	-0.006031	0.011863	80.023652	-86.859968	22.096103
08767	9.747932	0.398342	0.034853	-0.020224	-0.004192	0.011057	80.090870	-86.867064	22.017625
08768	9.722400	0.382644	0.052541	-0.008836	-0.000664	0.007226	80.139392	-86.871231	21.966783
08769	9.727875	0.424421	0.028683	-0.004939	0.001991	0.001409	80.169228	-86.872267	21.934515
08770	9.727877	0.424358	0.028920	-0.003091	0.002538	-0.000154	80.199945	-86.871942	21.902641
08771	9.710493	0.472932	0.011178	0.002554	0.003912	-0.001397	80.219244	-86.871205	21.885224
08772	9.706719	0.521805	0.046357	-0.006786	0.003539	-0.006611	80.248447	-86.867149	21.851450
08773	9.689291	0.518117	0.085151	-0.004435	0.005891	-0.005317	80.250237	-86.864005	21.847558
08774	9.691990	0.539699	0.073688	0.000706	0.004413	-0.004625	80.271741	-86.861062	21.825039
08775	9.751272	0.580408	0.058833	0.006048	0.004495	-0.006623	80.296164	-86.857316	21.804494
08776	9.692549	0.648235	0.164843	0.003762	0.010130	-0.003164	80.258255	-86.854588	21.845291
08777	9.742037	0.639659	0.062355	-0.003395	-0.000850	0.008673	80.305297	-86.859997	21.796676
08778	9.711068	0.634669	0.048444	0.006918	0.014531	0.006535	80.206175	-86.862345	21.899100
08779	9.732931	0.697037	0.066357	-0.001886	0.005612	0.012453	80.180691	-86.869262	21.923985
08780	9.742215	0.636695	0.064814	-0.013411	0.010607	0.014141	80.097660	-86.876254	22.001467
08781	9.723228	0.592990	0.036937	-0.015363	0.009279	0.017049	80.017712	-86.885399	22.073164
08782	9.714073	0.597552	0.096890	-0.019902	0.013343	0.017869	79.893429	-86.894223	22.185128
08783	9.715169	0.526206	0.075318	-0.018560	0.011037	0.018242	79.790068	-86.903847	22.278436
08784	9.678721	0.478212	0.085730	-0.022760	0.009189	0.013717	79.714052	-86.910709	22.340657
08785	9.719060	0.474777	0.042533	-0.015571	0.008766	0.014951	79.641437	-86.918697	22.404888
08786	9.695164	0.496596	0.128757	-0.014862	0.013181	0.010329	79.535309	-86.923239	22.504189
08787	9.727332	0.482873	0.065186	-0.012381	0.007007	0.013760	79.484607	-86.930730	22.548305
08788	9.746496	0.523605	0.095312	-0.003374	0.015384	0.014746	79.351851	-86.937497	22.679835
08789	9.721123	0.560072	0.057973	-0.008490	0.007561	0.017530	79.289359	-86.947044	22.737990
08790	9.734949	0.611037	0.055737	-0.006776	0.015581	0.018628	79.144085	-86.955960	22.881070
08791	9.712228	0.615316	0.063241	-0.017171	0.016714	0.023376	78.966412	-86.967786	23.049587
08792	9.716072	0.564765	0.030104	-0.024564	0.016631	0.020040	78.794584	-86.977334	23.208388
08793	9.678677	0.585710	0.064044	-0.022527	0.016635	0.025374	78.607828	-86.990235	23.382923
08794	9.729831	0.560072	0.086212	-0.027537	0.010648	0.022019	78.490834	-87.001605	23.482033
08795	9.709638	0.532350	0.137786	-0.022836	0.015342	0.024620	78.316757	-87.014184	23.643691
08796	9.729769	0.502367	0.145157	-0.024060	0.009124	0.026379	78.206344	-87.028077	23.739302
08797	9.713575	0.478693	0.105287	-0.027063	0.011393	0.029675	78.058420	-87.043916	23.872343
08798	9.702696	0.444376	0.097964	-0.008763	0.013185	0.026341	77.912408	-87.057369	24.014781
08799	9.724802	0.505107	0.116687	-0.009897	0.017057	0.023284	77.724629	-87.068906	24.197574
08800	9.747734	0.496473	0.112362	-0.021708	0.012528	0.022891	77.582437	-87.080328	24.328070
08801	9.706615	0.389210	0.067554	-0.020790	0.017455	0.020379	77.388431	-87.090136	24.510845
08802	9.737661	0.391499	0.084073	-0.015227	0.019094	0.015699	77.193559	-87.096766	24.696913
08803	9.751922	0.320320	0.115987	-0.016359	0.022968	0.012644	76.958645	-87.101480	24.923189
08804	9.691581	0.348951	0.155909	-0.012817	0.015302	0.006094	76.829378	-87.103201	25.043263
08805	9.691567	0.348551	0.157682	-0.008290	0.020540	0.001807	76.653159	-87.102125	25.215396
08806	9.731946	0.346467	0.115284	-0.006406	0.012835	-0.001080	76.573144	-87.100095	25.290450
08807	9.740057	0.357201	0.137332	0.005423	0.018418	-0.005468	76.447660	-87.095213	25.419651
08808	9.742094	0.448365	0.150230	0.008514	0.015873	-0.005315	76.356137	-87.090507	25.516639
08809	9.719203	0.455374	0.157541	0.013868	0.015947	-0.007304	76.268201	-87.084916	25.613089
08810	9.736743	0.460313	0.120891	0.016112	0.017508	-0.004655	76.161274	-87.080262	25.729628
08811	9.728565	0.450579	0.102063	0.014380	0.018802	-0.009231	76.048489	-87.073189	25.851255
08812	9.744745	0.472327	0.144778	0.013971	0.016729	-0.008646	75.960725	-87.066431	25.947666
08813	9.713719	0.469191	0.131500	0.011618	0.014385	-0.009951	75.897156	-87.059554	26.018430
08814	9.696028	0.466009	0.171070	0.009780	0.014895	-0.013184	75.840261	-87.050600	26.081197
08815	9.682613	0.467446	0.119570	0.015521	0.015986	-0.010962	75.765130	-87.042928	26.165779
08816	9.668337	0.538304	0.090974	0.023860	0.012734	-0.011447	75.734636	-87.035122	26.210212
08817	9.709278	0.644897	0.138739	0.017393	0.017586	-0.017311	75.661528	-87.023691	26.293842
08818	9.706302	0.624973	0.151881	0.001645	0.009345	-0.007129	75.644965	-87.018787	26.314675
08819	9.749981	0.522301	0.130407	0.006554	0.015599	-0.007205	75.559925	-87.013240	26.404036
08820	9.718060	0.588390	0.140239	0.010650	0.017710	-0.006112	75.454879	-87.007629	26.514967
08821	9.704167	0.536123	0.145014	0.008281	0.014309	-0.002626	75.372518	-87.004792	26.602637
08822	9.647460	0.517475	0.149191	0.009923	0.013292	-0.001495	75.302296	-87.002439	26.678629
08823	9.666038	0.452340	0.089194	0.011565	0.012275	-0.000364	75.237310	-87.001141	26.750784
08824	9.694075	0.435424	0.116804	0.023403	0.008555	-0.001268	75.225091	-86.999635	26.777257
08825	9.676955	0.484414	0.099634	0.027625	0.012500	-0.006309	75.183654	-86.995006	26.835046
08826	9.709787	0.579678	0.126183	0.026299	0.005502	-0.003210	75.210596	-86.992748	26.825670
08827	9.681712	0.597051	0.100070	0.012520	0.008948	-0.004199	75.192189	-86.989807	26.851731
08828	9.688413	0.570057	0.053912	0.002666	0.004690	-0.002727	75.212334	-86.987976	26.833872
08829	9.725824	0.601788	0.169076	-0.000214	0.008794	-0.005576	75.192116	-86.984295	26.854440
08830	9.709665	0.581149	0.128784	-0.007828	0.006102	-0.001454	75.188359	-86.982952	26.855604
08831	9.664302	0.471515	0.174239	-0.005888	0.006377	0.000437	75.173626	-86.982956	26.867424
08832	9.698099	0.496761	0.177809	-0.000236	0.007743	-0.000784	75.155375	-86.981775	26.887548
08833	9.701947	0.448322	0.143555	0.008295	0.005004	0.000845	75.162056	-86.982206	26.886063
08834	9.710611	0.511581	0.107946	0.010685	-0.000902	0.000832	75.233412	-86.983204	26.815778
08835	9.730600	0.483826	0.114227	0.017315	0.004067	0.005337	75.242680	-86.986260	26.816877
08836	9.755400	0.567765	0.119718	0.022369	0.002850	0.002599	75.279133	-86.987698	26.794403
08837	9.732555	0.573749	0.125685	0.008271	0.003953	0.005637	75.283629	-86.990936	26.795091
08838	9.713575	0.531097	0.097087	0.001681	0.006967	0.005898	75.253850	-86.993529	26.824429
08839	9.692998	0.505256	0.147894	0.001788	0.007748	0.004553	75.217551	-86.995614	26.862249
