// General information: 
//  MT Manager version: 2022.2.0 
//  XDA version: 2022.2.0 build 7381 rev 124627 built on 2023-07-19
// Device information: 
//  DeviceId: 00B4BB4F
//  ProductCode: MTW2-3A7G6
//  Firmware Version: 4.6.0
//  Hardware Version: 2.0.0
// Device settings: 
//  Filter Profile: human(46.1)
//  Option Flags: Orientation Smoother Disabled, Position/Velocity Smoother Disabled, Continuous Zero Rotation Update Disabled, AHS Disabled, ICC Disabled
// Coordinate system: ENU
PacketCounter	Acc_X	Acc_Y	Acc_Z	Gyr_X	Gyr_Y	Gyr_Z	Roll	Pitch	Yaw
43844	9.168593	-2.755070	1.951892	-0.002890	-0.011338	0.000768	-53.296167	-69.915121	-11.329000
43845	9.162177	-2.731666	1.952162	-0.004891	-0.003921	-0.000538	-53.307479	-69.917110	-11.321430
43846	9.145550	-2.761602	1.946782	-0.003496	-0.007064	0.001144	-53.318962	-69.919681	-11.311066
43847	9.148919	-2.759756	1.921929	-0.003496	-0.007063	0.001144	-53.335004	-69.921966	-11.296879
43848	9.159227	-2.734142	1.974169	-0.003496	-0.007063	0.001144	-53.346492	-69.924535	-11.286508
43849	9.145885	-2.762139	1.944443	-0.006552	-0.008561	0.000897	-53.365876	-69.927403	-11.269147
43850	9.172584	-2.753806	1.923262	-0.003542	-0.004767	-0.002492	-53.371105	-69.930857	-11.265469
43851	9.142848	-2.736513	1.920322	-0.004148	-0.000492	-0.002116	-53.376185	-69.932383	-11.263018
43852	9.142960	-2.764017	1.967200	-0.003974	-0.002709	-0.000392	-53.381039	-69.934168	-11.260003
43853	9.166279	-2.730013	1.923558	-0.003102	0.000799	-0.003883	-53.382204	-69.936057	-11.260674
43854	9.169771	-2.755110	1.946294	-0.002065	-0.005533	-0.006359	-53.383937	-69.941551	-11.259817
43855	9.146754	-2.760826	1.942220	-0.001322	-0.002104	-0.007938	-53.383888	-69.946300	-11.261374
43856	9.137234	-2.738672	1.966987	-0.004075	-0.005739	-0.008372	-53.385149	-69.952790	-11.262247
43857	9.147423	-2.759698	1.940674	-0.007523	-0.015100	-0.003590	-53.409097	-69.959956	-11.240699
43858	9.167823	-2.727319	1.920016	-0.006700	-0.009294	-0.010717	-53.414159	-69.968739	-11.239127
43859	9.148358	-2.758413	1.938092	-0.008360	-0.013935	-0.009281	-53.431794	-69.978126	-11.225230
43860	9.175491	-2.749170	1.916016	-0.009940	-0.016198	-0.013391	-53.444940	-69.990496	-11.217028
43861	9.142999	-2.733024	1.936147	-0.005353	-0.010139	-0.012668	-53.452916	-70.000194	-11.213636
43862	9.193344	-2.717285	1.918229	-0.003039	-0.012069	-0.010842	-53.459294	-70.009981	-11.208430
43863	9.153769	-2.752739	1.908857	-0.002983	-0.006744	-0.006499	-53.467384	-70.015638	-11.201105
43864	9.187259	-2.766991	1.886630	0.000758	-0.007141	-0.012176	-53.464104	-70.024358	-11.203862
43865	9.128042	-2.759459	1.927956	-0.001762	-0.007669	-0.006541	-53.472704	-70.030362	-11.195102
43866	9.178230	-2.743770	1.910630	0.001498	-0.003711	-0.013754	-53.463171	-70.038638	-11.204061
43867	9.168770	-2.721351	1.935544	-0.003464	-0.002390	-0.008033	-53.464499	-70.043526	-11.205881
43868	9.175682	-2.744032	1.934051	0.000326	-0.005084	-0.010075	-53.460827	-70.050576	-11.209317
43869	9.146167	-2.726003	1.931074	-0.000895	-0.004159	-0.010031	-53.461217	-70.057003	-11.208778
43870	9.176389	-2.742209	1.933281	0.000022	-0.002947	-0.009886	-53.455181	-70.063238	-11.214914
43871	9.176744	-2.741306	1.932875	-0.001812	-0.005371	-0.010174	-53.457395	-70.070121	-11.212874
43872	9.143817	-2.697851	1.906892	0.001116	-0.003952	-0.008018	-53.453762	-70.075839	-11.215787
43873	9.154066	-2.746216	1.928434	-0.002370	-0.003396	-0.006164	-53.457502	-70.080194	-11.212627
43874	9.180790	-2.737194	1.907760	-0.001631	0.000034	-0.007743	-53.450636	-70.084425	-11.220652
43875	9.160979	-2.740716	1.879952	0.003076	-0.001446	-0.009641	-53.445623	-70.089766	-11.224076
43876	9.161601	-2.692720	1.958281	-0.001019	0.003383	-0.007412	-53.434457	-70.092701	-11.236302
43877	9.181412	-2.734798	1.908205	0.003383	0.004041	-0.009122	-53.422624	-70.095856	-11.244698
43878	9.171691	-2.712658	1.933906	0.001908	0.004804	-0.005257	-53.410001	-70.097312	-11.256689
43879	9.155101	-2.741912	1.929644	0.002035	0.004884	-0.007167	-53.399700	-70.099331	-11.266919
43880	9.175034	-2.709438	1.910865	-0.001757	0.007576	-0.005126	-53.385775	-70.099778	-11.282527
43881	9.155036	-2.713109	1.883788	0.005217	0.006466	-0.008833	-53.370126	-70.102015	-11.295143
43882	9.168651	-2.712175	1.960678	0.000992	0.011214	-0.004693	-53.350411	-70.101017	-11.315233
43883	9.142014	-2.692405	1.934754	0.000024	0.004676	-0.009176	-53.339551	-70.104026	-11.327662
43884	9.148748	-2.715401	1.933784	-0.004149	-0.000497	-0.002111	-53.340094	-70.105844	-11.329341
43885	9.178727	-2.732197	1.936352	-0.003284	0.003014	-0.005600	-53.336624	-70.107742	-11.333771
43886	9.158822	-2.736073	1.908579	-0.002673	-0.001260	-0.005975	-53.333635	-70.111597	-11.338306
43887	9.182275	-2.729192	1.912076	-0.003895	-0.000336	-0.005931	-53.334518	-70.114845	-11.340155
43888	9.189102	-2.751904	1.911094	0.001373	0.003834	-0.011129	-53.317859	-70.119325	-11.356761
43889	9.152756	-2.710603	1.909843	-0.002979	0.000877	-0.005787	-53.316735	-70.122096	-11.360988
43890	9.186109	-2.724757	1.888458	0.002722	0.002991	-0.013081	-53.298515	-70.127760	-11.378432
43891	9.156562	-2.734240	1.933597	-0.000589	0.008950	-0.008798	-53.282897	-70.129132	-11.395900
43892	9.199868	-2.694878	1.918563	0.003638	0.004204	-0.012936	-53.262733	-70.134310	-11.414852
43893	9.173509	-2.702276	1.939808	0.004602	0.010742	-0.008452	-53.242168	-70.134869	-11.432031
43894	9.160092	-2.729267	1.912223	0.003989	0.015016	-0.008075	-53.212669	-70.134103	-11.460694
43895	9.153351	-2.705058	1.914845	0.006000	0.015225	-0.006063	-53.187837	-70.132028	-11.482718
43896	9.170004	-2.702063	1.968297	0.006000	0.015225	-0.006062	-53.158841	-70.130258	-11.509623
43897	9.146600	-2.707886	1.966078	0.006178	0.013008	-0.004340	-53.138467	-70.128175	-11.526165
43898	9.159655	-2.726597	1.918116	0.003074	0.013802	-0.008216	-53.110911	-70.127873	-11.553321
43899	9.162809	-2.723888	1.895428	0.007093	0.014221	-0.004193	-53.088576	-70.125324	-11.573283
43900	9.176053	-2.695375	1.925803	0.003989	0.015015	-0.008069	-53.059103	-70.124528	-11.601920
43901	9.149437	-2.702990	1.947860	0.009180	0.016809	-0.007718	-53.028961	-70.122684	-11.628380
43902	9.172531	-2.695778	1.953428	0.008744	0.018866	-0.005620	-52.994235	-70.119430	-11.659708
43903	9.172314	-2.695091	1.955394	0.008744	0.018866	-0.005618	-52.963737	-70.115928	-11.687694
43904	9.168719	-2.668938	1.934245	0.004469	0.018285	-0.005822	-52.932022	-70.112955	-11.718426
43905	9.151900	-2.698180	1.931413	0.009659	0.020079	-0.005468	-52.899650	-70.108963	-11.747923
43906	9.171503	-2.693394	1.961524	0.007433	0.025036	0.000679	-52.863949	-70.100674	-11.781088
43907	9.124457	-2.706436	1.956346	0.005523	0.020233	0.005928	-52.844593	-70.091404	-11.799219
43908	9.173915	-2.719288	1.988481	0.005790	0.012769	0.001400	-52.826033	-70.087022	-11.815159
43909	9.150243	-2.698205	1.939213	0.009449	0.017623	0.001987	-52.803972	-70.080440	-11.832981
43910	9.153198	-2.723877	1.963911	0.006445	0.013823	0.005366	-52.787519	-70.073879	-11.846283
43911	9.195935	-2.685721	1.949999	0.008227	0.018546	0.002031	-52.765039	-70.066890	-11.862081
43912	9.122388	-2.707175	1.964950	0.006566	0.021527	0.004172	-52.737711	-70.058199	-11.886877
43913	9.168500	-2.694327	1.974241	0.010195	0.013429	-0.000292	-52.718288	-70.054114	-11.902829
43914	9.141566	-2.675250	1.949062	0.008403	0.016330	0.003756	-52.696069	-70.047409	-11.921072
43915	9.144513	-2.700761	1.973901	0.006219	0.018335	0.000022	-52.673076	-70.041453	-11.942459
43916	9.134139	-2.651953	1.953482	0.004305	0.013534	0.005267	-52.658184	-70.035027	-11.955408
43917	9.166954	-2.694941	1.980570	0.005396	0.012531	0.007136	-52.649761	-70.027860	-11.962153
43918	9.163219	-2.697537	2.005746	-0.000708	0.009524	0.006628	-52.644082	-70.022207	-11.968355
43919	9.136287	-2.679168	1.979660	0.000690	0.006384	0.008308	-52.647067	-70.016600	-11.964671
43920	9.125959	-2.733408	1.974367	-0.004938	0.006649	0.010045	-52.650681	-70.010390	-11.963564
43921	9.132247	-2.682965	2.004593	-0.004192	0.002454	0.007759	-52.660916	-70.006400	-11.954145
43922	9.171829	-2.722334	1.982384	-0.001271	0.003878	0.009924	-52.665777	-70.001209	-11.949476
43923	9.151576	-2.727628	1.954861	-0.005722	0.005515	0.007990	-52.673115	-69.996061	-11.946884
43924	9.141298	-2.706973	1.980275	-0.002055	0.002744	0.007867	-52.677877	-69.992200	-11.942798
43925	9.147750	-2.703618	1.932206	-0.002839	0.001610	0.005810	-52.686386	-69.989366	-11.934490
43926	9.164113	-2.701757	1.984430	-0.003321	0.005963	0.004279	-52.684419	-69.986021	-11.938335
43927	9.137368	-2.710532	2.004976	-0.003491	0.000555	0.001843	-52.691045	-69.985396	-11.931471
43928	9.117443	-2.715064	1.976983	-0.003053	-0.001503	-0.000255	-52.693942	-69.986710	-11.929977
43929	9.157331	-2.678915	1.985281	-0.005322	-0.001871	0.001548	-52.704118	-69.987063	-11.923625
43930	9.114164	-2.689856	1.953461	-0.002137	-0.000289	-0.000107	-52.705115	-69.987889	-11.923595
43931	9.143984	-2.707291	1.956001	-0.011389	0.000452	0.005383	-52.719509	-69.985653	-11.914284
43932	9.133960	-2.713988	2.027446	-0.008326	-0.013294	0.004207	-52.744442	-69.989024	-11.892553
43933	9.167352	-2.702182	1.957442	-0.011817	-0.012739	0.006053	-52.776318	-69.991061	-11.863953
43934	9.150819	-2.732814	1.951159	-0.008458	-0.013374	0.006119	-52.803260	-69.993579	-11.840165
43935	9.197455	-2.720645	1.957216	-0.008327	-0.013294	0.004210	-52.831917	-69.996635	-11.814578
43936	9.167619	-2.704048	1.953611	-0.004231	-0.002875	0.003418	-52.840712	-69.996745	-11.807525
43937	9.164267	-2.706554	1.977166	-0.004971	-0.006305	0.004991	-52.859479	-69.997028	-11.789537
43938	9.190705	-2.698874	1.956485	-0.003099	0.001448	0.009633	-52.868106	-69.992803	-11.781973
43939	9.170425	-2.704331	1.928756	0.000914	0.001866	0.013665	-52.881514	-69.986339	-11.768186
43940	9.173145	-2.731137	1.952688	0.000909	0.017114	0.015099	-52.873382	-69.974200	-11.776015
43941	9.135949	-2.719370	1.999469	-0.000180	0.010494	0.012515	-52.875554	-69.965264	-11.772989
43942	9.155365	-2.688776	1.981013	0.001085	0.007273	0.016105	-52.880608	-69.956068	-11.766675
43943	9.128179	-2.698748	2.001932	-0.002100	0.005692	0.017762	-52.894690	-69.946363	-11.752275
43944	9.154236	-2.692058	1.981771	-0.001315	-0.000799	0.019104	-52.914044	-69.938584	-11.732201
43945	9.120435	-2.753404	1.972106	-0.004717	0.002135	0.015410	-52.931883	-69.931196	-11.715152
43946	9.169848	-2.740104	1.955612	-0.001358	0.001498	0.015475	-52.944930	-69.924279	-11.701817
43947	9.149644	-2.745513	1.927549	-0.002054	-0.004882	0.007157	-52.962172	-69.923082	-11.684117
43948	9.176074	-2.690628	1.985430	-0.002663	0.007017	0.008255	-52.962233	-69.917561	-11.685404
43949	9.105893	-2.738051	2.021524	-0.003886	0.000318	0.007579	-52.974421	-69.914413	-11.675907
43950	9.112465	-2.734651	1.972933	-0.004978	-0.006301	0.004992	-52.989386	-69.914979	-11.662737
43951	9.152260	-2.773874	1.949542	-0.007859	-0.010018	0.006459	-53.015725	-69.915891	-11.639520
43952	9.162381	-2.721079	1.954536	-0.001487	-0.006859	0.003145	-53.027651	-69.917491	-11.627457
43953	9.159134	-2.723266	1.978003	-0.002445	-0.005774	-0.000634	-53.038944	-69.920204	-11.617475
43954	9.165741	-2.747016	1.976483	-0.002227	-0.002665	0.005437	-53.048204	-69.919308	-11.608702
43955	9.145836	-2.751607	1.948108	-0.003362	-0.006986	-0.000782	-53.061415	-69.922506	-11.596952
43956	9.152705	-2.700242	1.977705	-0.002007	-0.000207	-0.002017	-53.060447	-69.924177	-11.598933
43957	9.136140	-2.730071	1.972351	-0.001968	-0.010128	0.000897	-53.078365	-69.927686	-11.581264
43958	9.159579	-2.723772	1.975249	-0.003362	-0.006986	-0.000781	-53.087838	-69.931124	-11.572957
43959	9.143146	-2.726037	1.922472	-0.003058	-0.009123	-0.000971	-53.103351	-69.935141	-11.558628
43960	9.166609	-2.746955	1.972538	-0.002969	-0.006745	-0.006514	-53.106904	-69.941121	-11.556383
43961	9.137046	-2.729460	1.968996	-0.003843	-0.010255	-0.003029	-53.122347	-69.946468	-11.542520
43962	9.190402	-2.712473	1.927772	0.000131	0.000080	-0.001911	-53.119896	-69.947993	-11.544776
43963	9.133961	-2.731106	1.992541	0.002573	-0.001770	-0.001996	-53.121980	-69.949950	-11.541167
43964	9.170482	-2.744013	1.947140	0.003971	0.002712	0.000400	-53.116202	-69.949510	-11.544623
43965	9.157213	-2.724586	1.996598	-0.000000	0.000000	-0.000000	-53.119407	-69.949944	-11.541429
43966	9.160553	-2.722597	1.972346	0.002616	-0.004067	0.001636	-53.124083	-69.951269	-11.534583
43967	9.143867	-2.725027	1.920472	0.001398	0.004481	0.002396	-53.123097	-69.949065	-11.535021
43968	9.133786	-2.731414	1.992920	-0.001178	-0.001373	0.003674	-53.128483	-69.948528	-11.529734
43969	9.163727	-2.720969	1.948371	0.001483	-0.000765	-0.003864	-53.128127	-69.950998	-11.529459
43970	9.140478	-2.754573	1.991826	0.004407	0.000655	-0.001701	-53.122704	-69.952228	-11.532273
43971	9.137273	-2.728739	1.968944	0.002400	0.000448	-0.003717	-53.120425	-69.954212	-11.533445
43972	9.160582	-2.722151	1.972828	0.004276	0.000574	0.000210	-53.116977	-69.954594	-11.534235
43973	9.167105	-2.745576	1.972154	0.005804	0.005136	0.000695	-53.111002	-69.952944	-11.537287
43974	9.160421	-2.722047	1.973719	0.003971	0.002712	0.000400	-53.105224	-69.952504	-11.540743
43975	9.163663	-2.719956	1.950084	0.007026	0.004211	0.000654	-53.099658	-69.951191	-11.542606
43976	9.136906	-2.728461	1.971030	0.005542	0.004976	0.004518	-53.094019	-69.948085	-11.544955
43977	9.159968	-2.722484	1.975217	0.004799	0.001547	0.006092	-53.098186	-69.945198	-11.537834
43978	9.163089	-2.720763	1.951655	0.005369	0.007193	0.002797	-53.088244	-69.942117	-11.544870
43979	9.169429	-2.744549	1.951334	0.007549	0.005183	0.006536	-53.086677	-69.937776	-11.542134
43980	9.129351	-2.706346	1.974682	0.007071	0.009538	0.005004	-53.074903	-69.932877	-11.550082
43981	9.195370	-2.736966	1.932993	0.007857	0.010670	0.007064	-53.066768	-69.926406	-11.554166
43982	9.158467	-2.724282	1.979697	0.007988	0.010750	0.005154	-53.053101	-69.921020	-11.563572
43983	9.131574	-2.705535	1.954090	0.007856	0.010670	0.007066	-53.044963	-69.914550	-11.567708
43984	9.124376	-2.710331	2.003622	0.008074	0.013782	0.013138	-53.034984	-69.904463	-11.573135
43985	9.133758	-2.732750	1.979659	0.005759	0.008088	0.010594	-53.034594	-69.897266	-11.570200
43986	9.146622	-2.705959	2.009385	0.004578	0.006717	0.014269	-53.036524	-69.889095	-11.565079
43987	9.132724	-2.735255	1.980970	0.002652	0.001918	0.019519	-53.053997	-69.879937	-11.545082
43988	9.175513	-2.698565	1.965894	0.002441	0.006431	0.014164	-53.057399	-69.871912	-11.539698
43989	9.135018	-2.735980	1.957975	0.002440	0.006431	0.014165	-53.064286	-69.863652	-11.531084
43990	9.161121	-2.728886	1.938365	0.003358	0.007643	0.014315	-53.065783	-69.855140	-11.527169
43991	9.183699	-2.751213	1.990224	0.005324	0.010145	0.012701	-53.064990	-69.846273	-11.524985
43992	9.156703	-2.732936	1.964576	0.005286	0.012441	0.009068	-53.054473	-69.838512	-11.532689
43993	9.119802	-2.693162	1.964056	0.005324	0.010145	0.012703	-53.053674	-69.829645	-11.530506
43994	9.132374	-2.741211	1.962987	0.004406	0.008934	0.012555	-53.051310	-69.821495	-11.530063
43995	9.131779	-2.742290	1.964246	0.005635	0.015632	0.013234	-53.043982	-69.810496	-11.534622
43996	9.124441	-2.747362	2.013700	0.004405	0.008934	0.012558	-53.041623	-69.802344	-11.534173
43997	9.127306	-2.746350	1.990570	0.003318	0.009939	0.010687	-53.040317	-69.794472	-11.533718
43998	9.123721	-2.721607	1.968401	0.000528	0.008600	0.006605	-53.035025	-69.789160	-11.538761
43999	9.149819	-2.741368	1.996029	0.001749	0.007674	0.006565	-53.033566	-69.783956	-11.539430
44000	9.149469	-2.742056	1.996689	-0.002661	0.007025	0.008260	-53.033611	-69.778430	-11.540733
44001	9.149170	-2.742565	1.997360	0.002015	0.007831	0.002741	-53.028215	-69.774924	-11.545511
44002	9.129037	-2.747197	1.970128	-0.001174	0.006256	0.004395	-53.024751	-69.771431	-11.549646
44003	9.125349	-2.749682	1.994936	0.002666	0.008885	0.006716	-53.021375	-69.765741	-11.551815
44004	9.138567	-2.695000	1.977604	-0.003132	0.011380	0.006729	-53.014858	-69.759414	-11.560401
44005	9.124544	-2.751037	1.996750	-0.000826	0.009448	0.008561	-53.014504	-69.752686	-11.561377
44006	9.117659	-2.728251	1.998416	-0.003446	0.005893	0.006200	-53.014485	-69.748492	-11.563228
44007	9.120474	-2.754454	2.021965	-0.001442	0.006099	0.008222	-53.018297	-69.743075	-11.560297
44008	9.143730	-2.721408	1.978908	0.000382	0.000897	0.007801	-53.023776	-69.739870	-11.553950
44009	9.123382	-2.753773	1.998287	-0.003928	0.002623	0.003947	-53.029319	-69.737608	-11.550656
44010	9.123256	-2.754109	1.998398	-0.002574	0.001775	0.001994	-53.029980	-69.736759	-11.551251
44011	9.139902	-2.724726	2.003173	-0.004678	-0.000804	0.005520	-53.041657	-69.734958	-11.541920
44012	9.152845	-2.772154	2.000995	-0.003492	0.000564	0.001844	-53.044205	-69.734594	-11.541064
44013	9.146298	-2.748785	2.001959	-0.002138	-0.000284	-0.000109	-53.048518	-69.735189	-11.537867
44014	9.153024	-2.744920	1.953910	-0.000738	0.004197	0.002294	-53.045403	-69.733369	-11.541365
44015	9.126273	-2.753320	1.974381	0.000000	0.000000	0.000000	-53.048224	-69.733817	-11.538499
44016	9.149564	-2.746984	1.978200	-0.004444	0.001649	-0.001941	-53.046441	-69.734813	-11.542841
44017	9.126335	-2.753068	1.974445	-0.000952	0.001085	-0.003785	-53.044916	-69.736622	-11.545308
44018	9.143162	-2.722941	1.979422	-0.000034	0.002296	-0.003635	-53.038223	-69.738171	-11.552190
44019	9.129582	-2.777910	1.997858	-0.000034	0.002296	-0.003635	-53.034808	-69.739496	-11.555995
44020	9.143254	-2.722353	1.979809	0.001052	0.001290	-0.001763	-53.030487	-69.740534	-11.559687
44021	9.146371	-2.747669	2.003156	0.002888	0.003712	-0.001462	-53.025656	-69.740376	-11.563180
44022	9.119689	-2.755792	2.023681	-0.001086	0.001006	-0.001872	-53.022809	-69.741561	-11.566605
44023	9.173104	-2.738872	1.983321	0.001018	0.003585	-0.005398	-53.015519	-69.743247	-11.573849
44024	9.116669	-2.729612	2.001075	0.001052	0.001290	-0.001763	-53.011196	-69.744284	-11.577542
44025	9.143094	-2.748557	2.028196	0.000884	0.003506	-0.003485	-53.005840	-69.745125	-11.583029
44026	9.156532	-2.767414	1.979404	0.006783	0.003385	-0.009044	-52.988830	-69.748770	-11.596745
44027	9.150065	-2.743256	1.981054	0.003638	0.007140	-0.003034	-52.977803	-69.748148	-11.606443
44028	9.146663	-2.744881	2.005645	0.003324	0.001653	-0.003565	-52.970039	-69.749883	-11.612415
44029	9.140236	-2.720899	2.006848	0.002541	0.000520	-0.005628	-52.965411	-69.752733	-11.616050
44030	9.123595	-2.750226	2.002193	0.003324	0.001653	-0.003565	-52.957645	-69.754467	-11.622025
44031	9.170226	-2.737227	2.009992	0.002407	0.000442	-0.003715	-52.954966	-69.756468	-11.623555
44032	9.113788	-2.728028	2.027649	0.003190	0.001574	-0.001652	-52.949163	-69.757355	-11.627519
44033	9.113875	-2.727701	2.027699	0.003929	-0.002623	-0.003946	-52.949176	-69.760517	-11.625133
44034	9.140739	-2.718997	2.007133	-0.001264	-0.004403	-0.004316	-52.950845	-69.764685	-11.623854
44035	9.147402	-2.742302	2.005801	0.000303	-0.002138	-0.000190	-52.955843	-69.765969	-11.618682
44036	9.150943	-2.740098	1.981369	-0.000044	-0.005330	-0.004356	-52.957926	-69.770476	-11.616216
44037	9.144616	-2.716198	1.981969	0.000874	-0.004118	-0.004206	-52.961258	-69.774273	-11.612335
44038	9.124615	-2.747714	2.000995	-0.000784	-0.001133	-0.002063	-52.960705	-69.776282	-11.613130
44039	9.174659	-2.732929	1.984324	-0.001701	-0.002344	-0.002213	-52.965204	-69.778563	-11.609588
44040	9.141518	-2.717591	2.005490	-0.003224	0.000720	-0.001982	-52.963825	-69.779896	-11.612754
44041	9.174813	-2.732534	1.984156	0.001488	-0.000769	-0.003865	-52.962951	-69.782386	-11.612971
44042	9.131674	-2.742980	1.952662	0.001532	0.004560	0.000491	-52.956394	-69.781262	-11.618751
44043	9.141558	-2.717180	2.005866	-0.002138	-0.000285	-0.000110	-52.960506	-69.781869	-11.615884
44044	9.154895	-2.736551	1.956881	0.000580	0.005644	-0.003294	-52.949602	-69.782102	-11.626877
44045	9.121634	-2.721228	1.978571	-0.001523	0.003064	0.000231	-52.949516	-69.781399	-11.628105
44046	9.148067	-2.740273	2.005541	-0.001870	-0.000128	-0.003935	-52.946581	-69.783917	-11.632101
44047	9.118336	-2.722855	2.002684	-0.002004	-0.000206	-0.002022	-52.948709	-69.785372	-11.631170
44048	9.124980	-2.746216	2.001385	-0.004756	-0.003840	-0.002473	-52.953409	-69.788503	-11.628793
44049	9.171720	-2.733184	2.008676	-0.002519	-0.001182	-0.007909	-52.951512	-69.792987	-11.632428
44050	9.155534	-2.734760	1.956398	-0.005440	-0.002599	-0.010081	-52.947926	-69.799168	-11.639297
44051	9.125678	-2.744508	2.000549	-0.001870	-0.000128	-0.003934	-52.948077	-69.801470	-11.640126
44052	9.122689	-2.718589	1.977332	-0.001433	-0.002186	-0.006037	-52.945474	-69.805660	-11.643501
44053	9.126022	-2.743652	2.000154	-0.001567	-0.002265	-0.004124	-52.947901	-69.808789	-11.641926
44054	9.142929	-2.713493	2.004605	-0.003401	-0.004688	-0.004425	-52.951050	-69.813105	-11.640375
44055	9.103166	-2.749301	1.995372	-0.004319	-0.005900	-0.004574	-52.959135	-69.817692	-11.634449
44056	9.153432	-2.734193	1.978028	-0.002358	-0.011022	-0.006908	-52.967240	-69.825330	-11.626980
44057	9.150386	-2.735727	2.001162	-0.004015	-0.008038	-0.004764	-52.977641	-69.830743	-11.618439
44058	9.101003	-2.722498	1.969533	-0.002491	-0.011101	-0.004995	-52.987730	-69.837532	-11.608939
44059	9.117850	-2.720008	2.020147	-0.001982	-0.017751	0.000170	-53.013679	-69.844036	-11.582909
44060	9.181486	-2.724734	1.952805	-0.004157	-0.015741	-0.003571	-53.031866	-69.851770	-11.565801
44061	9.125468	-2.715466	1.968782	-0.002670	-0.016509	-0.007434	-53.049563	-69.861322	-11.548718
44062	9.159147	-2.730157	1.945886	-0.000798	-0.016381	-0.003501	-53.066719	-69.869241	-11.530660
44063	9.116237	-2.720832	2.037893	-0.003986	-0.017958	-0.001845	-53.092265	-69.876731	-11.506022
44064	9.140063	-2.686987	1.992838	-0.003202	-0.016825	0.000217	-53.114876	-69.883094	-11.483624
44065	9.136981	-2.736431	1.936960	-0.002728	-0.021179	0.001750	-53.147128	-69.890039	-11.451252
44066	9.210372	-2.742958	1.969597	-0.006599	-0.013889	-0.003481	-53.164568	-69.897081	-11.436435
44067	9.167491	-2.753329	1.936872	-0.003101	-0.006825	-0.004608	-53.173079	-69.901995	-11.429215
44068	9.161100	-2.729738	1.937263	-0.002581	-0.005852	0.001276	-53.182621	-69.904094	-11.420356
44069	9.174555	-2.701928	1.965746	-0.001702	-0.002344	-0.002209	-53.186977	-69.906375	-11.416865
44070	9.167818	-2.753147	1.935579	-0.000917	-0.001212	-0.000148	-53.188413	-69.907534	-11.415623
44071	9.171191	-2.704003	1.989813	-0.003180	0.006047	0.002375	-53.187390	-69.904832	-11.418649
44072	9.147834	-2.710383	1.986352	0.001049	0.001291	-0.001763	-53.183046	-69.905872	-11.422362
44073	9.154453	-2.706585	1.938248	-0.006197	0.002253	0.005753	-53.191669	-69.902925	-11.417026
44074	9.124294	-2.717459	1.982776	-0.000568	0.001979	0.004014	-53.192811	-69.901079	-11.415884
44075	9.160746	-2.730977	1.937190	-0.004237	-0.002868	0.003420	-53.204520	-69.900964	-11.406235
44076	9.150715	-2.710023	1.962173	-0.006197	0.002254	0.005754	-53.210172	-69.898225	-11.403725
44077	9.150555	-2.710539	1.962207	-0.001485	0.000767	0.003866	-53.216151	-69.896655	-11.398322
44078	9.153605	-2.736477	1.985356	-0.005147	0.003545	0.003991	-53.217929	-69.894282	-11.399297
44079	9.100292	-2.726185	1.979045	-0.005279	0.003465	0.005903	-53.224598	-69.890852	-11.395480
44080	9.176553	-2.731219	1.989178	-0.003017	-0.003794	0.003378	-53.233779	-69.891278	-11.387272
44081	9.136678	-2.693155	2.011461	-0.004191	0.002459	0.007774	-53.242822	-69.887339	-11.380536
44082	9.129688	-2.745142	1.981290	-0.006508	-0.003233	0.005225	-53.255029	-69.886723	-11.371236
44083	9.146212	-2.716209	1.985865	-0.005373	0.001088	0.011450	-53.269901	-69.881563	-11.358802
44084	9.139098	-2.768590	1.955651	-0.001409	-0.003828	0.011135	-53.285454	-69.878436	-11.342826
44085	9.119050	-2.726643	2.005733	-0.004020	0.000242	0.009497	-53.298750	-69.874461	-11.331383
44086	9.148852	-2.717194	1.960944	-0.003113	-0.006171	0.008926	-53.316143	-69.873147	-11.314486
44087	9.151915	-2.743519	1.983426	-0.003283	-0.003953	0.007204	-53.332105	-69.871662	-11.299935
44088	9.131870	-2.748614	1.954964	-0.005251	-0.006455	0.008820	-53.350976	-69.870491	-11.282767
44089	9.155109	-2.742937	1.958059	-0.002716	-0.005931	0.003189	-53.365345	-69.871521	-11.269221
44090	9.175054	-2.739083	1.985276	-0.001628	-0.006937	0.005060	-53.379238	-69.872240	-11.255146
44091	9.171815	-2.714043	1.961839	0.002044	-0.002093	0.005654	-53.388370	-69.870828	-11.244395
44092	9.131731	-2.750369	1.953142	0.001220	-0.000927	-0.000042	-53.388332	-69.871838	-11.243418
44093	9.151594	-2.746162	1.981248	0.003540	0.004764	0.002507	-53.385040	-69.869526	-11.244892
44094	9.178100	-2.738141	1.961090	0.003264	-0.003019	0.005612	-53.391728	-69.868652	-11.235504
44095	9.148146	-2.721335	1.958490	0.002490	0.003473	0.004271	-53.392293	-69.865963	-11.233110
44096	9.134396	-2.777173	1.976765	-0.000227	-0.002457	0.007461	-53.401996	-69.864046	-11.222641
44097	9.177641	-2.739636	1.961152	0.002962	-0.000882	0.005803	-53.409150	-69.862148	-11.213584
44098	9.147653	-2.723005	1.958472	0.001610	-0.000035	0.007758	-53.415036	-69.859266	-11.206061
44099	9.154068	-2.746831	1.957469	0.002138	0.000284	0.000106	-53.415920	-69.859589	-11.203717
44100	9.144184	-2.725318	1.982717	0.002138	0.000284	0.000107	-53.413977	-69.860118	-11.204209
44101	9.150704	-2.748804	1.981694	0.000000	0.000000	-0.000000	-53.416317	-69.860588	-11.201723
44102	9.150878	-2.721242	1.934605	0.002138	0.000284	0.000107	-53.414374	-69.861117	-11.202215
44103	9.144153	-2.725251	1.982953	0.003057	0.001495	0.000255	-53.413308	-69.860951	-11.201077
44104	9.144186	-2.725055	1.983074	0.000264	0.000159	-0.003826	-53.408933	-69.863331	-11.205303
44105	9.157424	-2.744424	1.933888	0.000786	0.001131	0.002062	-53.411271	-69.862463	-11.202316
44106	9.147380	-2.723210	1.959466	0.003107	0.006822	0.004611	-53.404766	-69.858686	-11.207075
44107	9.140567	-2.727418	2.007923	0.000302	-0.002138	-0.000190	-53.409360	-69.859975	-11.202339
44108	9.157134	-2.744937	1.934535	0.000786	0.001131	0.002062	-53.408950	-69.859315	-11.202024
44109	9.150341	-2.749086	1.982982	-0.000603	0.004275	0.000381	-53.406583	-69.858152	-11.204910
44110	9.160375	-2.743024	1.910823	0.002440	-0.001854	-0.000084	-53.406972	-69.859499	-11.202735
44111	9.126944	-2.755453	1.979616	0.001101	0.006618	0.002591	-53.402733	-69.856527	-11.207005
44112	9.143577	-2.725667	1.985040	0.003805	0.004923	-0.001318	-53.392690	-69.856126	-11.215107
44113	9.156744	-2.745046	1.936223	0.000617	0.003349	0.000339	-53.390721	-69.855301	-11.216994
44114	9.143469	-2.725417	1.985880	0.001800	0.004719	-0.003338	-53.380203	-69.855898	-11.226827
44115	9.136873	-2.701779	1.987459	-0.000905	0.006413	0.000572	-53.375432	-69.853916	-11.232787
44116	9.129920	-2.753003	1.957894	0.001969	0.002501	-0.001615	-53.369202	-69.854478	-11.237949
44117	9.139928	-2.727219	2.011098	0.002006	0.000205	0.002020	-53.371904	-69.853945	-11.233393
44118	9.149958	-2.721254	1.938936	-0.000302	0.002138	0.000191	-53.369113	-69.853801	-11.236277
44119	9.149687	-2.748825	1.986355	-0.000604	0.004275	0.000381	-53.366722	-69.852649	-11.239433
44120	9.176241	-2.740516	1.966468	0.004893	0.003917	0.000554	-53.359065	-69.851729	-11.244331
44121	9.149512	-2.748657	1.987395	0.000278	0.007783	-0.003105	-53.348461	-69.850973	-11.255774
44122	9.166156	-2.718796	1.992854	0.003540	0.004764	0.002509	-53.342341	-69.848865	-11.259860
44123	9.135850	-2.776411	1.959739	-0.001074	0.008630	-0.001151	-53.333292	-69.846917	-11.270042
44124	9.142593	-2.725075	1.990373	0.003673	0.004844	0.000596	-53.325216	-69.845659	-11.276131
44125	9.149170	-2.721037	1.942953	0.005207	0.009403	0.001086	-53.313668	-69.842433	-11.286215
44126	9.118922	-2.731460	1.988247	0.002018	0.007829	0.002742	-53.304808	-69.839167	-11.294150
44127	9.138875	-2.699762	1.969667	0.002453	0.005771	0.000639	-53.298946	-69.837356	-11.297861
44128	9.131880	-2.750967	1.940423	0.004422	0.008272	-0.000976	-53.284692	-69.835645	-11.310074
44129	9.141753	-2.725109	1.994185	0.002453	0.005771	0.000639	-53.278813	-69.833859	-11.315316
44130	9.144935	-2.723284	1.970741	0.003104	0.006823	0.004614	-53.272344	-69.830076	-11.320041
44131	9.124582	-2.755349	1.990622	0.003539	0.004764	0.002511	-53.268920	-69.827780	-11.321636
44132	9.121263	-2.729870	1.968350	0.000763	0.011052	-0.000851	-53.253412	-69.825058	-11.337419
44133	9.150877	-2.746959	1.972149	0.004121	0.010409	-0.000783	-53.239509	-69.822333	-11.349692
44134	9.114389	-2.706202	1.971248	-0.000906	0.006413	0.000572	-53.232087	-69.820546	-11.357881
44135	9.140680	-2.725540	1.998510	0.001703	0.002343	0.002213	-53.232383	-69.819211	-11.356818
44136	9.143991	-2.723630	1.974639	-0.000302	0.002138	0.000191	-53.229600	-69.819065	-11.359696
44137	9.150426	-2.747414	1.973608	-0.001319	-0.001448	0.005589	-53.239501	-69.817475	-11.349838
44138	9.153680	-2.745788	1.949612	-0.000737	0.004197	0.002295	-53.236359	-69.815656	-11.353364
44139	9.143598	-2.724511	1.975246	0.001099	0.006618	0.002595	-53.232031	-69.812672	-11.356806
44140	9.146538	-2.750162	1.998966	0.000013	0.007624	0.000723	-53.222716	-69.810400	-11.366451
44141	9.149756	-2.748206	1.975613	0.002151	0.007908	0.000832	-53.214516	-69.807793	-11.374000
44142	9.116420	-2.732943	1.997659	0.001367	0.006777	-0.001231	-53.203665	-69.806706	-11.384456
44143	9.139594	-2.726574	2.002064	0.003673	0.004843	0.000600	-53.198226	-69.805269	-11.388578
44144	9.096036	-2.764767	2.017891	-0.001656	0.002986	0.002145	-53.196987	-69.803935	-11.390638
44145	9.192780	-2.710161	1.962050	0.005496	-0.000359	0.000178	-53.196536	-69.804459	-11.387820
44146	9.119316	-2.758260	2.021998	-0.002038	0.002091	-0.005657	-53.189350	-69.807011	-11.396449
44147	9.172989	-2.713933	1.934438	-0.000302	0.002138	0.000191	-53.189113	-69.806666	-11.396515
44148	9.152501	-2.773269	2.001025	-0.000302	0.002138	0.000191	-53.186332	-69.806519	-11.399390
44149	9.172951	-2.713772	1.934841	0.003324	0.001653	-0.003566	-53.181089	-69.808067	-11.402891
44150	9.122751	-2.755490	1.998802	0.003023	0.003791	-0.003375	-53.171012	-69.808987	-11.411511
44151	9.149384	-2.747002	1.979006	0.003672	0.004844	0.000601	-53.165482	-69.807536	-11.415456
44152	9.145830	-2.748995	2.003804	0.004288	0.008193	0.000943	-53.153225	-69.804964	-11.425626
44153	9.132625	-2.702068	2.006497	0.002620	0.003554	0.002364	-53.151570	-69.803156	-11.426327
44154	9.142453	-2.723556	1.981849	0.003807	0.004923	-0.001311	-53.141562	-69.802740	-11.434395
44155	9.148863	-2.746966	1.981463	0.003370	0.006982	0.000793	-53.133695	-69.800454	-11.440394
44156	9.138776	-2.725559	2.007172	0.001400	0.004481	0.002405	-53.129090	-69.798485	-11.444174
44157	9.121909	-2.755353	2.002830	0.003807	0.004923	-0.001311	-53.121573	-69.797886	-11.450329
44158	9.151973	-2.744953	1.958782	0.002138	0.000284	0.000110	-53.119630	-69.798412	-11.450823
44159	9.112175	-2.706314	1.981305	0.000482	0.003270	0.002254	-53.119381	-69.796746	-11.451381
44160	9.141625	-2.751002	2.031503	0.004411	0.000647	-0.001693	-53.113999	-69.797973	-11.454151
44161	9.148427	-2.746898	1.983571	0.000616	0.003349	0.000342	-53.111810	-69.797157	-11.456381
44162	9.141764	-2.723664	1.984876	0.001432	0.002186	0.006040	-53.113444	-69.794311	-11.453493
44163	9.145080	-2.721870	1.960960	-0.002305	0.001933	-0.001832	-53.112702	-69.794977	-11.455546
44164	9.135045	-2.700544	1.986293	0.003570	0.002470	0.006151	-53.112861	-69.791983	-11.452926
44165	9.161304	-2.720076	2.013312	0.001085	-0.001006	0.001873	-53.117255	-69.791977	-11.448357
44166	9.141385	-2.724532	1.985432	0.000783	0.001132	0.002064	-53.116856	-69.791315	-11.448031
44167	9.137881	-2.726790	2.009575	-0.000269	-0.000157	0.003826	-53.122729	-69.790096	-11.441631
44168	9.147752	-2.748664	1.984236	-0.003024	-0.003790	0.003374	-53.131865	-69.790527	-11.433470
44169	9.141239	-2.725251	1.985117	0.001053	0.001290	-0.001762	-53.130023	-69.791368	-11.433570
44170	9.164454	-2.719140	1.988993	-0.000404	-0.000236	0.005739	-53.135441	-69.789492	-11.427771
44171	9.141124	-2.725604	1.985163	0.000135	0.000079	-0.001913	-53.135439	-69.790838	-11.428075
44172	9.161013	-2.721377	2.012881	0.000334	-0.004433	0.003444	-53.143518	-69.791457	-11.418990
44173	9.147622	-2.749433	1.983770	-0.001354	0.000848	0.001953	-53.146976	-69.790739	-11.415151
44174	9.117803	-2.732300	1.980969	0.001220	-0.000927	-0.000040	-53.146928	-69.791750	-11.414186
44175	9.137965	-2.700666	1.961588	0.000032	-0.002295	0.003635	-53.155082	-69.791355	-11.405251
44176	9.147511	-2.750003	1.983493	0.000951	-0.001084	0.003786	-53.158956	-69.790666	-11.400270
44177	9.160758	-2.722452	2.012587	0.002620	0.003554	0.002365	-53.157064	-69.788865	-11.402384
44178	9.137360	-2.729165	2.008717	-0.002074	-0.004874	0.007161	-53.170539	-69.787929	-11.389020
44179	9.140648	-2.727786	1.984357	-0.000404	-0.000236	0.005740	-53.178349	-69.785901	-11.382576
44180	9.137047	-2.730491	2.008338	-0.001591	-0.001604	0.009416	-53.189573	-69.782806	-11.371315
44181	9.166956	-2.720955	1.963885	-0.001623	0.000691	0.005781	-53.196914	-69.780406	-11.364325
44182	9.140109	-2.729757	1.984128	0.000816	-0.001163	0.005700	-53.202742	-69.778864	-11.357344
44183	9.136535	-2.732297	2.008213	-0.002843	0.001619	0.005821	-53.209682	-69.776122	-11.351141
44184	9.116492	-2.737137	1.980323	-0.000404	-0.000236	0.005741	-53.215089	-69.774243	-11.345353
44185	9.142676	-2.757004	2.007195	-0.001758	0.000613	0.007695	-53.224472	-69.771002	-11.336020
44186	9.136420	-2.706539	1.960689	-0.003643	-0.007137	0.003034	-53.237810	-69.772731	-11.323758
44187	9.122701	-2.762269	1.978386	-0.002241	-0.002657	0.005440	-53.249392	-69.771669	-11.314286
44188	9.162742	-2.726588	1.986682	-0.002891	-0.003710	0.001462	-53.256569	-69.772943	-11.308131
44189	9.155843	-2.778175	1.956389	-0.003326	-0.001651	0.003567	-53.265678	-69.772390	-11.302437
44190	9.162683	-2.727168	1.986157	-0.001053	-0.001289	0.001763	-53.269066	-69.772696	-11.299198
44191	9.139348	-2.733535	1.982431	0.000618	0.003348	0.000342	-53.266687	-69.771895	-11.302144
44192	9.139302	-2.733481	1.982717	-0.001386	0.003144	-0.001682	-53.261536	-69.772263	-11.308208
44193	9.149219	-2.754951	1.957611	-0.003057	-0.001493	-0.000261	-53.266795	-69.773380	-11.303513
44194	9.139284	-2.733648	1.982569	-0.002407	-0.000440	0.003718	-53.271718	-69.772498	-11.299464
44195	9.139241	-2.733935	1.982375	-0.001972	-0.002500	0.001613	-53.279347	-69.773093	-11.291161
44196	9.106011	-2.718989	2.003446	-0.004545	-0.000723	0.003608	-53.285746	-69.772358	-11.286845
44197	9.135771	-2.736560	2.005884	-0.005029	-0.003993	0.001352	-53.296736	-69.773586	-11.276945
44198	9.145749	-2.758270	1.980136	-0.003509	-0.007058	0.001121	-53.308129	-69.776161	-11.266674
44199	9.135959	-2.736931	2.004521	-0.003509	-0.007058	0.001121	-53.321835	-69.778538	-11.252733
44200	9.139498	-2.735090	1.979594	-0.003208	-0.009196	0.000930	-53.335552	-69.781931	-11.239803
44201	9.136220	-2.737190	2.002977	-0.004895	-0.003914	-0.000560	-53.344536	-69.783995	-11.231591
44202	9.163037	-2.728945	1.982082	-0.003375	-0.006979	-0.000792	-53.353987	-69.787420	-11.223307
44203	9.149872	-2.756503	1.952370	-0.000668	-0.008677	-0.004702	-53.362643	-69.793054	-11.215055
44204	9.146627	-2.758315	1.976014	-0.002138	-0.000283	-0.000109	-53.363661	-69.793875	-11.215004
44205	9.143589	-2.732730	1.952789	-0.001704	-0.002342	-0.002214	-53.367244	-69.796180	-11.212432
44206	9.143725	-2.732488	1.952492	-0.003708	-0.002545	-0.004237	-53.368154	-69.799672	-11.213455
44207	9.130549	-2.712684	2.001616	-0.002171	0.002014	-0.003745	-53.365213	-69.801194	-11.217080
44208	9.137197	-2.735879	2.000307	-0.004326	-0.005894	-0.004578	-53.370344	-69.805988	-11.213982
44209	9.114077	-2.742080	1.995830	-0.004728	-0.006131	0.001163	-53.383689	-69.808024	-11.200417
44210	9.147430	-2.757312	1.973696	-0.002940	-0.009038	-0.002897	-53.393528	-69.813118	-11.191457
44211	9.171217	-2.723252	1.929737	-0.003708	-0.002545	-0.004236	-53.396732	-69.816406	-11.187893
44212	9.147881	-2.756701	1.972459	-0.002806	-0.008959	-0.004810	-53.404624	-69.822352	-11.180926
44213	9.131740	-2.711332	1.998011	-0.002489	-0.003473	-0.004277	-53.408109	-69.825995	-11.178976
44214	9.112104	-2.715321	1.969271	-0.005696	-0.012670	-0.003345	-53.423673	-69.832534	-11.165599
44215	9.138766	-2.734509	1.995005	-0.007651	-0.007546	-0.001007	-53.438337	-69.836053	-11.153738
44216	9.165724	-2.726238	1.973363	-0.007366	-0.017308	-0.001921	-53.462015	-69.843516	-11.132738
44217	9.152684	-2.753808	1.942967	-0.005864	-0.010452	-0.005065	-53.475534	-69.849929	-11.123013
44218	9.156596	-2.703955	1.996126	-0.004846	-0.006864	-0.010465	-53.476743	-69.857762	-11.124410
44219	9.159991	-2.775922	1.940104	-0.004678	-0.009082	-0.008742	-53.484352	-69.865418	-11.121958
44220	9.190562	-2.717680	1.973098	-0.004061	-0.005734	-0.008401	-53.485613	-69.871915	-11.122822
44221	9.140946	-2.731659	1.988913	-0.005113	-0.007024	-0.006636	-53.492931	-69.877868	-11.118333
44222	9.147953	-2.727109	1.940170	-0.003577	-0.002465	-0.006146	-53.491905	-69.882213	-11.121336
44223	9.168174	-2.722253	1.967476	-0.003760	-0.007871	-0.008591	-53.497731	-69.889313	-11.114483
44224	9.118582	-2.736265	1.983189	-0.008471	-0.006381	-0.006700	-53.503920	-69.895247	-11.112788
44225	9.138908	-2.731182	2.010357	-0.003663	-0.005493	-0.014138	-53.501396	-69.904120	-11.118219
44226	9.142988	-2.700629	1.938091	-0.008352	-0.013925	-0.009334	-53.514566	-69.913838	-11.109018
44227	9.169953	-2.719077	1.963572	-0.004244	-0.011139	-0.010842	-53.522636	-69.923133	-11.103523
44228	9.123825	-2.730953	1.954928	-0.006949	-0.009446	-0.006930	-53.531614	-69.930217	-11.097932
44229	9.177368	-2.741262	1.960159	-0.006214	-0.013641	-0.009224	-53.545471	-69.939618	-11.087491
44230	9.174610	-2.715105	1.936040	-0.005113	-0.007024	-0.006631	-53.550630	-69.945739	-11.084845
44231	9.154791	-2.746505	1.954539	-0.003107	-0.006820	-0.004611	-53.558477	-69.950705	-11.078819
44232	9.181695	-2.737715	1.933573	-0.002057	-0.005529	-0.006376	-53.560239	-69.956199	-11.077925
44233	9.145474	-2.724068	1.978481	-0.004195	-0.005813	-0.006481	-53.565659	-69.961653	-11.073644
44234	9.155677	-2.744911	1.952630	-0.002843	-0.006659	-0.008436	-53.567381	-69.968482	-11.073274
44235	9.142949	-2.697302	1.954071	-0.005113	-0.007024	-0.006628	-53.574656	-69.974440	-11.069521
44236	9.202933	-2.731224	1.958458	-0.001282	-0.012022	-0.005035	-53.585447	-69.981524	-11.058546
44237	9.123525	-2.728297	1.971400	-0.005245	-0.007105	-0.004715	-53.594905	-69.986629	-11.050797
44238	9.167184	-2.689805	1.955025	-0.004943	-0.009242	-0.004905	-53.604409	-69.992708	-11.043425
44239	9.157291	-2.742673	1.948199	-0.005114	-0.007024	-0.006626	-53.611770	-69.998634	-11.037260
44240	9.151021	-2.718770	1.948600	-0.005548	-0.004968	-0.004522	-53.616569	-70.003082	-11.035264
44241	9.151317	-2.718152	1.948069	0.000343	-0.005081	-0.010093	-53.614941	-70.009975	-11.038031
44242	9.181492	-2.734542	1.950205	-0.005285	-0.004806	-0.008346	-53.615812	-70.016132	-11.040054
44243	9.175281	-2.710247	1.950850	0.001261	-0.003870	-0.009944	-53.612425	-70.022564	-11.044024
44244	9.129070	-2.721894	1.943041	-0.003187	-0.002222	-0.011874	-53.605513	-70.029470	-11.053051
44245	9.149426	-2.716584	1.970483	-0.001664	-0.005285	-0.012108	-53.603510	-70.037362	-11.056538
44246	9.176455	-2.707147	1.949630	-0.002885	-0.004359	-0.012064	-53.598951	-70.045081	-11.062875
44247	9.153609	-2.712407	1.945309	-0.002582	-0.006496	-0.012255	-53.598893	-70.053445	-11.064216
44248	9.157392	-2.709293	1.920503	-0.004720	-0.006782	-0.012358	-53.598183	-70.062124	-11.067576
44249	9.187681	-2.725396	1.922507	-0.001664	-0.005285	-0.012105	-53.596033	-70.069998	-11.071202
44250	9.154994	-2.709148	1.943331	-0.004589	-0.006701	-0.014268	-53.593349	-70.079530	-11.076583
44251	9.185272	-2.725226	1.945440	0.001260	-0.003868	-0.009941	-53.589867	-70.085950	-11.080166
44252	9.159126	-2.704834	1.918518	0.000128	-0.000562	-0.015441	-53.575555	-70.093934	-11.095040
44253	9.186034	-2.695292	1.898258	0.000349	0.002543	-0.009367	-53.564828	-70.097907	-11.108071
44254	9.126451	-2.715270	1.987418	0.000480	0.002625	-0.011278	-53.550153	-70.102885	-11.123115
44255	9.179918	-2.697468	1.946741	0.002178	-0.002656	-0.009792	-53.544647	-70.108833	-11.129564
44256	9.133615	-2.709348	1.939209	-0.000699	0.001250	-0.007602	-53.535845	-70.112584	-11.139079
44257	9.153728	-2.704455	1.967185	0.001309	0.001456	-0.005586	-53.529645	-70.115196	-11.146144
44258	9.190428	-2.716832	1.921501	-0.001007	-0.004236	-0.008131	-53.527505	-70.121059	-11.148762
44259	9.157483	-2.701055	1.942870	0.000218	0.002462	-0.007454	-53.518784	-70.124178	-11.159112
44260	9.157646	-2.700354	1.943075	0.001439	0.001537	-0.007497	-53.508478	-70.127782	-11.168923
44261	9.184419	-2.691053	1.923072	0.002312	0.005049	-0.010980	-53.492061	-70.131625	-11.184045
44262	9.164620	-2.721980	1.942750	0.002486	0.002831	-0.009260	-53.477835	-70.135597	-11.197386
44263	9.158195	-2.697598	1.944315	0.004320	0.005255	-0.008964	-53.461851	-70.138436	-11.210945
44264	9.151693	-2.673406	1.945961	0.001920	0.004805	-0.005246	-53.449214	-70.139885	-11.222941
44265	9.184959	-2.687671	1.925221	0.005062	0.008685	-0.010536	-53.426765	-70.142283	-11.244806
44266	9.161742	-2.693148	1.922461	0.005717	0.009735	-0.006566	-53.404420	-70.142653	-11.264810
44267	9.181715	-2.688087	1.951238	-0.000566	0.008954	-0.008789	-53.386703	-70.144152	-11.283422
44268	9.148608	-2.672278	1.973309	0.003273	0.003962	-0.007199	-53.372508	-70.146782	-11.296249
44269	9.185212	-2.684568	1.928340	0.001746	0.007023	-0.006964	-53.357688	-70.148111	-11.310518
44270	9.185243	-2.711401	1.976141	0.001877	0.007104	-0.008874	-53.338698	-70.150433	-11.329294
44271	9.208651	-2.676562	1.933541	0.004014	0.007392	-0.008769	-53.320307	-70.152437	-11.345054
44272	9.155506	-2.692573	1.975194	0.003403	0.011666	-0.008386	-53.295091	-70.152969	-11.369519
44273	9.182068	-2.683419	1.955997	-0.000088	0.012222	-0.006537	-53.274878	-70.152249	-11.388587
44274	9.152179	-2.665596	1.954368	0.003709	0.009530	-0.008576	-53.252024	-70.153594	-11.410354
44275	9.162098	-2.713928	1.977114	0.001614	0.006942	-0.005051	-53.239119	-70.154050	-11.421956
44276	9.148888	-2.666489	1.979833	-0.000218	0.004517	-0.005348	-53.227952	-70.155629	-11.433689
44277	9.178833	-2.683001	1.982996	0.000830	0.005811	-0.007109	-53.214907	-70.157372	-11.444285
44278	9.135762	-2.693024	1.951794	0.002358	0.002750	-0.007343	-53.202611	-70.160471	-11.455650
44279	9.162475	-2.636725	2.010067	-0.000086	0.004598	-0.007257	-53.191371	-70.162742	-11.468050
44280	9.162610	-2.683351	1.932003	0.002707	-0.001686	-0.003905	-53.187781	-70.165785	-11.469947
44281	9.159377	-2.685040	1.956096	-0.000959	0.001086	-0.003777	-53.184921	-70.167696	-11.475131
44282	9.162881	-2.682452	1.931964	0.000833	-0.001813	-0.007830	-53.178826	-70.172583	-11.480831
44283	9.166339	-2.707344	1.955056	0.002226	0.002669	-0.005432	-53.170490	-70.174674	-11.488301
44284	9.156467	-2.685327	1.980599	-0.000087	0.004598	-0.007257	-53.157309	-70.177095	-11.502094
44285	9.179808	-2.678326	1.984801	0.003141	0.003882	-0.005283	-53.146986	-70.178668	-11.509614
44286	9.163280	-2.680075	1.933369	0.002835	0.006019	-0.005092	-53.132383	-70.179607	-11.523139
44287	9.149985	-2.660182	1.983245	0.004057	0.005095	-0.005134	-53.120238	-70.180717	-11.532800
44288	9.153332	-2.657679	1.959743	0.002703	0.005938	-0.003182	-53.107634	-70.180806	-11.544280
44289	9.153179	-2.685307	2.007230	-0.003930	0.002610	0.003947	-53.111921	-70.178651	-11.542917
44290	9.176391	-2.651633	1.963957	-0.000132	-0.000081	0.001910	-53.113453	-70.178477	-11.541098
44291	9.159751	-2.681532	1.959151	-0.002313	0.001929	-0.001824	-53.112026	-70.179171	-11.544603
44292	9.149774	-2.660057	1.984385	0.000000	0.000000	0.000000	-53.111556	-70.179844	-11.544831
44293	9.183011	-2.674900	1.963227	0.001788	0.004725	-0.003330	-53.102890	-70.180242	-11.550754
44294	9.186284	-2.672693	1.939696	0.001217	0.006700	0.000680	-53.093856	-70.178299	-11.559345
44295	9.159571	-2.681195	1.960455	-0.001529	0.003061	0.000234	-53.092400	-70.177601	-11.559043
44296	9.159470	-2.681349	1.960715	-0.002883	0.003904	0.002186	-53.090708	-70.175929	-11.562327
44297	9.182593	-2.675005	1.965035	0.002264	0.007994	-0.001080	-53.079668	-70.174207	-11.573243
44298	9.159153	-2.681624	1.961819	-0.001010	0.004031	0.006112	-53.080489	-70.170693	-11.572714
44299	9.182263	-2.675526	1.965869	-0.000307	0.002137	0.000191	-53.079614	-70.170424	-11.575638
44300	9.152302	-2.658567	1.963345	-0.000439	0.002056	0.002101	-53.078789	-70.169427	-11.576511
44301	9.158865	-2.682150	1.962448	-0.000307	0.002137	0.000192	-53.077750	-70.169062	-11.574802
44302	9.155446	-2.684228	1.986798	0.000609	0.003350	0.000341	-53.073001	-70.168426	-11.579207
44303	9.152092	-2.658627	1.964246	0.002572	0.005857	-0.001271	-53.064436	-70.167515	-11.585433
44304	9.152013	-2.658630	1.964610	0.000783	0.001132	0.002059	-53.064045	-70.166856	-11.585100
44305	9.148605	-2.660786	1.988792	-0.001222	0.000924	0.000042	-53.065175	-70.167065	-11.584944
44306	9.181817	-2.675983	1.967330	0.000042	-0.002299	0.003628	-53.071062	-70.166868	-11.578388
44307	9.148500	-2.661248	1.988656	-0.002577	0.001767	0.001994	-53.073678	-70.165904	-11.578354
44308	9.158400	-2.682881	1.963618	-0.000439	0.002056	0.002101	-53.072854	-70.164906	-11.579226
44309	9.174950	-2.653125	1.968668	-0.000307	0.002137	0.000192	-53.071942	-70.164639	-11.582078
44310	9.158256	-2.683105	1.963982	-0.000439	0.002056	0.002101	-53.071119	-70.163642	-11.582950
44311	9.164761	-2.706851	1.963117	0.001566	0.002264	0.004118	-53.072595	-70.161479	-11.579988
44312	9.154771	-2.658022	1.941371	0.000915	0.001213	0.000149	-53.070203	-70.161666	-11.581702
44313	9.154622	-2.685767	1.988512	0.000957	-0.001086	0.003777	-53.076045	-70.160841	-11.574927
44314	9.154531	-2.685938	1.988705	0.001524	0.004563	0.000490	-53.069378	-70.159719	-11.580815
44315	9.181099	-2.677666	1.968391	-0.001789	-0.004725	0.003329	-53.080891	-70.160388	-11.572925
44316	9.157813	-2.684209	1.964537	0.003969	0.002715	0.000405	-53.075088	-70.159940	-11.576406
44317	9.161157	-2.681967	1.940794	0.000874	0.003512	-0.003479	-53.068318	-70.160914	-11.585606
44318	9.161171	-2.681722	1.941065	-0.000174	0.002218	-0.001718	-53.063493	-70.161610	-11.590571
44319	9.154430	-2.685751	1.989420	0.000915	0.001213	0.000149	-53.062996	-70.161635	-11.589220
44320	9.184342	-2.675361	1.945208	-0.001661	0.002980	0.002144	-53.061741	-70.160300	-11.591295
44321	9.157697	-2.683651	1.965842	0.003144	0.003881	-0.005281	-53.051320	-70.161930	-11.601932
44322	9.177564	-2.679121	1.994080	0.001698	0.002345	0.002208	-53.049009	-70.160783	-11.603084
44323	9.154254	-2.685508	1.990557	0.001963	0.002507	-0.001611	-53.044514	-70.161147	-11.604344
44324	9.157653	-2.683259	1.966584	0.001355	-0.000843	-0.001952	-53.042474	-70.163004	-11.605416
44325	9.150985	-2.659720	1.967918	-0.000920	0.006411	0.000575	-53.036641	-70.160973	-11.608248
44326	9.190814	-2.698206	1.945747	0.004582	-0.001559	0.000023	-53.035545	-70.162173	-11.606351
44327	9.174137	-2.653292	1.972230	0.000302	0.005487	0.000533	-53.030327	-70.160539	-11.609967
44328	9.154134	-2.685086	1.991680	0.005937	-0.002402	-0.001929	-53.027661	-70.162922	-11.608914
44329	9.177378	-2.678657	1.995560	-0.001662	0.002980	0.002143	-53.028142	-70.161466	-11.611380
44330	9.134187	-2.689529	1.963946	-0.002138	-0.000289	-0.000107	-53.029160	-70.162287	-11.611328
44331	9.184064	-2.674686	1.947446	0.002138	0.000289	0.000107	-53.029223	-70.162652	-11.607686
44332	9.154087	-2.685063	1.991925	0.002270	0.000370	-0.001802	-53.025261	-70.164022	-11.610244
44333	9.160834	-2.680855	1.943854	0.000915	0.001213	0.000149	-53.024530	-70.164061	-11.611588
44334	9.170722	-2.654979	1.997022	0.002270	0.000370	-0.001802	-53.020567	-70.165431	-11.614146
44335	9.174097	-2.652899	1.972944	0.001090	-0.001005	0.001868	-53.024447	-70.165457	-11.608434
44336	9.150818	-2.659462	1.969043	-0.001048	-0.001294	0.001760	-53.027901	-70.165769	-11.605130
44337	9.157449	-2.682934	1.967974	0.001048	0.001294	-0.001760	-53.025329	-70.166666	-11.606953
44338	9.160833	-2.680887	1.943812	-0.001964	-0.002507	0.001611	-53.030703	-70.167465	-11.602164
44339	9.150929	-2.659263	1.968798	0.002842	-0.001606	-0.005813	-53.026810	-70.171160	-11.602516
44340	9.134438	-2.688829	1.963737	-0.000609	-0.003350	-0.000341	-53.030615	-70.173143	-11.598570
44341	9.184321	-2.674048	1.947108	0.002005	0.000208	0.002017	-53.032500	-70.172682	-11.595114
44342	9.114417	-2.646194	2.013875	0.000174	-0.002218	0.001718	-53.036388	-70.173332	-11.590604
44343	9.184361	-2.674410	1.946423	-0.000869	-0.011135	0.002755	-53.055149	-70.176448	-11.570267
44344	9.137833	-2.613037	1.969208	-0.004631	-0.003118	0.009143	-53.070026	-70.174007	-11.557001
44345	9.180993	-2.677727	1.968799	-0.001304	-0.016703	0.004133	-53.097049	-70.178297	-11.524996
44346	9.207718	-2.669813	1.947267	-0.001441	-0.009159	0.006767	-53.115509	-70.179019	-11.505979
44347	9.181103	-2.678750	1.966895	-0.001789	-0.004724	0.003330	-53.127051	-70.179600	-11.491732
44348	9.181048	-2.679283	1.966428	-0.003276	-0.003961	0.007193	-53.140359	-70.178337	-11.479309
44349	9.164343	-2.709676	1.961171	-0.000874	-0.003511	0.003480	-53.150152	-70.178598	-11.474673
44350	9.174333	-2.656599	1.966859	-0.001048	-0.001293	0.001761	-53.153610	-70.178908	-11.471363
44351	9.204178	-2.673866	1.969487	-0.000132	-0.000081	0.001910	-53.156735	-70.178557	-11.467362
44352	9.154182	-2.689058	1.986089	-0.000703	0.001895	0.005921	-53.159905	-70.175864	-11.464149
44353	9.174040	-2.657511	1.966992	0.000784	0.001132	0.002059	-53.161462	-70.175072	-11.460832
44354	9.160762	-2.685368	1.937955	0.002750	-0.003986	-0.000276	-53.164228	-70.177240	-11.455946
44355	9.174016	-2.657631	1.966945	-0.000744	0.004193	0.002293	-53.163079	-70.175284	-11.454399
44356	9.160546	-2.713234	1.985241	-0.002270	-0.000369	0.001803	-53.166102	-70.175256	-11.452296
44357	9.180519	-2.681335	1.966099	0.001964	0.002506	-0.001612	-53.161373	-70.175672	-11.457815
44358	9.177212	-2.655756	1.943366	-0.002750	0.003986	0.000276	-53.157677	-70.174849	-11.463147
44359	9.173784	-2.657842	1.967743	0.001832	0.002425	0.000298	-53.155173	-70.174371	-11.461702
44360	9.183499	-2.707050	1.990163	-0.000267	0.007462	0.004543	-53.149701	-70.170396	-11.467410
44361	9.133572	-2.694407	1.960116	0.002880	0.003719	-0.001463	-53.143264	-70.170357	-11.473614
44362	9.200042	-2.649616	1.948845	0.003969	0.002714	0.000405	-53.137461	-70.169911	-11.477093
44363	9.156648	-2.688072	1.964686	0.001261	0.004401	0.004310	-53.136362	-70.166956	-11.478601
44364	9.203036	-2.675487	1.972619	0.001832	0.002425	0.000298	-53.132049	-70.166658	-11.481798
44365	9.146437	-2.667010	1.990424	-0.000571	0.001976	0.004012	-53.135170	-70.164670	-11.476038
44366	9.149638	-2.665322	1.966605	0.002483	0.003477	0.004268	-53.132931	-70.162191	-11.476634
44367	9.176005	-2.684813	1.993601	-0.000265	-0.000161	0.003820	-53.138163	-70.161067	-11.473048
44368	9.179273	-2.683045	1.969584	-0.000438	0.002056	0.002102	-53.137338	-70.160070	-11.473920
44369	9.149380	-2.666007	1.966874	0.003665	-0.002773	-0.000126	-53.139864	-70.161597	-11.467953
44370	9.172616	-2.659669	1.970716	0.001699	0.002345	0.002209	-53.137550	-70.160451	-11.469106
44371	9.155913	-2.689594	1.966028	0.002138	0.000288	0.000107	-53.137391	-70.160812	-11.465603
44372	9.149248	-2.666448	1.966888	-0.002056	-0.004884	0.007151	-53.151122	-70.159884	-11.451986
44373	9.178986	-2.684331	1.969168	-0.001273	-0.003752	0.009211	-53.166868	-70.157531	-11.435879
44374	9.155615	-2.691400	1.964944	-0.001924	-0.004804	0.005241	-53.178600	-70.157450	-11.424307
44375	9.148970	-2.668503	1.965399	-0.000529	-0.007946	0.006918	-53.196481	-70.157478	-11.404576
44376	9.182152	-2.684158	1.943427	-0.003145	-0.003879	0.005284	-53.207778	-70.157057	-11.394211
44377	9.178728	-2.686596	1.967281	-0.003492	0.000556	0.001846	-53.211763	-70.156568	-11.394660
44378	9.175445	-2.661405	1.943981	0.002657	-0.006365	0.005264	-53.222877	-70.157008	-11.380954
44379	9.185354	-2.683248	1.918503	-0.002402	-0.000449	0.003714	-53.229622	-70.155983	-11.373875
44380	9.148716	-2.670391	1.964014	0.004276	0.000575	0.000214	-53.226182	-70.156360	-11.374656
44381	9.155221	-2.694103	1.963076	0.000519	0.000971	0.005881	-53.231519	-70.153888	-11.369259
44382	9.175138	-2.662627	1.943758	0.001262	-0.003223	0.003588	-53.237842	-70.154020	-11.361496
44383	9.151689	-2.696970	1.986851	-0.000092	-0.002379	0.005541	-53.247386	-70.152843	-11.352424
44384	9.148362	-2.671878	1.963640	-0.001181	-0.001373	0.003672	-53.252836	-70.152301	-11.347077
44385	9.181457	-2.687472	1.942128	0.000692	-0.001247	0.007601	-53.262612	-70.149732	-11.332043
44386	9.181247	-2.688028	1.942351	-0.001180	0.006250	0.004395	-53.259051	-70.146244	-11.336276
44387	9.174403	-2.692390	1.990755	0.002311	-0.001930	0.001826	-53.263044	-70.146585	-11.329958
44388	9.154429	-2.696867	1.962975	0.000479	0.003269	0.002251	-53.260290	-70.145104	-11.332323
44389	9.170975	-2.667221	1.968143	0.000479	0.003269	0.002251	-53.259135	-70.143453	-11.331750
44390	9.170847	-2.667402	1.968497	0.002617	0.003556	0.002358	-53.254892	-70.141824	-11.334394
44391	9.180683	-2.689009	1.943660	0.001700	0.002344	0.002209	-53.254039	-70.140479	-11.332294
44392	9.170643	-2.667633	1.969133	0.003971	0.002712	0.000405	-53.248241	-70.140036	-11.335766
44393	9.180459	-2.689346	1.944250	-0.001924	0.002821	0.005966	-53.252897	-70.136878	-11.328865
44394	9.153700	-2.697973	1.964854	-0.000477	0.004355	-0.001528	-53.245727	-70.136759	-11.336507
44395	9.140422	-2.651054	1.967367	-0.000742	0.004194	0.002294	-53.244304	-70.134852	-11.339995
44396	9.173437	-2.693833	1.993252	-0.002138	-0.000287	-0.000107	-53.245332	-70.135672	-11.339932
44397	9.180126	-2.689788	1.945209	-0.000610	0.004274	0.000383	-53.241828	-70.134532	-11.341136
44398	9.173333	-2.693817	1.993754	0.000744	0.003430	-0.001570	-53.235094	-70.134750	-11.347570
44399	9.196730	-2.659735	1.950692	-0.000172	0.002218	-0.001719	-53.231885	-70.135348	-11.352312
44400	9.163313	-2.672167	2.019471	-0.000610	0.004274	0.000383	-53.226708	-70.134379	-11.357916
44401	9.156637	-2.695832	1.942911	0.002272	0.007991	-0.001080	-53.215666	-70.132681	-11.365766
44402	9.189763	-2.663628	2.000193	0.002138	0.000287	0.000107	-53.213718	-70.133206	-11.366262
44403	9.156515	-2.695737	1.943621	0.001528	0.004562	0.000490	-53.208653	-70.131930	-11.368736
44404	9.149911	-2.672098	1.944954	-0.000956	0.001086	-0.003780	-53.203772	-70.133964	-11.374236
44405	9.193121	-2.661182	1.976707	-0.001089	0.001005	-0.001869	-53.202489	-70.134960	-11.373095
44406	9.149924	-2.671898	1.945168	-0.001659	0.002982	0.002144	-53.201229	-70.133625	-11.375172
44407	9.172937	-2.693307	1.996261	0.000783	0.001132	0.002060	-53.202513	-70.132887	-11.375563
44408	9.176287	-2.691277	1.972262	-0.001089	0.001005	-0.001869	-53.199625	-70.134072	-11.379025
44409	9.166296	-2.669848	1.997516	0.000783	0.001132	0.002060	-53.200746	-70.133249	-11.375948
44410	9.179655	-2.689094	1.948393	-0.002044	0.002091	-0.005648	-53.193435	-70.135795	-11.384694
44411	9.172939	-2.692798	1.996941	-0.000649	0.006573	-0.003247	-53.183206	-70.135452	-11.391870
44412	9.176283	-2.690626	1.973167	-0.001221	0.000925	0.000042	-53.182311	-70.135787	-11.393294
44413	9.143055	-2.675411	1.994684	-0.001261	0.003223	-0.003588	-53.176801	-70.136843	-11.396709
44414	9.169695	-2.666682	1.974830	0.002710	0.005935	-0.003180	-53.164229	-70.136935	-11.408152
44415	9.146393	-2.672883	1.971430	-0.000305	0.002137	0.000192	-53.162835	-70.136651	-11.411343
44416	9.166233	-2.668527	1.999570	-0.002615	0.004068	-0.001635	-53.157154	-70.136675	-11.418703
44417	9.179553	-2.687854	1.950580	0.003054	0.001500	0.000258	-53.154758	-70.136577	-11.418664
44418	9.156302	-2.693956	1.947091	-0.000211	0.004516	-0.005348	-53.143598	-70.138149	-11.430385
44419	9.166235	-2.667894	2.000407	-0.002310	0.001930	-0.001827	-53.141735	-70.138876	-11.434540
44420	9.152946	-2.695633	1.971569	0.000916	0.001212	0.000150	-53.139351	-70.139062	-11.436243
44421	9.143014	-2.674018	1.996738	-0.000650	-0.001051	-0.003971	-53.138211	-70.141730	-11.435848
44422	9.173165	-2.663214	1.952245	-0.000650	-0.001051	-0.003971	-53.135675	-70.144584	-11.438666
44423	9.176510	-2.688465	1.975058	-0.000478	-0.003269	-0.002252	-53.138985	-70.147272	-11.435082
44424	9.150181	-2.668866	1.948119	-0.000689	0.001247	-0.007600	-53.130098	-70.150999	-11.444677
44425	9.160155	-2.642858	2.001149	-0.001049	-0.001293	0.001761	-53.135200	-70.151118	-11.434342
44426	9.170134	-2.664246	1.976074	-0.002482	0.004148	-0.003545	-53.127516	-70.151990	-11.443749
44427	9.160159	-2.642845	2.001151	-0.001793	-0.004723	0.003329	-53.138620	-70.152593	-11.432120
44428	9.173578	-2.662318	1.951528	-0.001699	-0.002344	-0.002210	-53.140003	-70.155084	-11.431411
44429	9.150231	-2.696270	1.994501	-0.002881	-0.003718	0.001461	-53.148633	-70.156210	-11.424229
44430	9.193572	-2.658185	1.978641	-0.001660	-0.004643	0.001419	-53.156372	-70.157827	-11.416740
44431	9.150459	-2.669046	1.946567	-0.001965	-0.002505	0.001611	-53.163190	-70.158498	-11.410727
44432	9.176975	-2.688305	1.973114	-0.001832	-0.002425	-0.000299	-53.166574	-70.160141	-11.407971
44433	9.147197	-2.671158	1.970035	0.001833	-0.005199	-0.000426	-53.172848	-70.162751	-11.404819
44434	9.170594	-2.664828	1.973157	-0.003187	-0.009204	0.000928	-53.186800	-70.166158	-11.391655
44435	9.180648	-2.686503	1.947286	-0.001793	-0.004723	0.003330	-53.198012	-70.166814	-11.382068
44436	9.180706	-2.686852	1.946533	-0.005458	-0.009573	0.002732	-53.215457	-70.169517	-11.366575
44437	9.177547	-2.661672	1.922693	-0.002709	-0.005936	0.003181	-53.228409	-70.170618	-11.354846
44438	9.204081	-2.681093	1.948960	-0.001660	-0.004643	0.001420	-53.236161	-70.172231	-11.347344
44439	9.174187	-2.664249	1.946023	-0.001487	0.000763	0.003864	-53.240548	-70.170810	-11.349185
44440	9.177325	-2.689999	1.969175	-0.001527	0.003062	0.000234	-53.237288	-70.170325	-11.353307
44441	9.170627	-2.666626	1.970570	0.002616	0.003556	0.002359	-53.234406	-70.168604	-11.357742
44442	9.147371	-2.672882	1.966890	0.000571	-0.001976	-0.004013	-53.232317	-70.171796	-11.359342
44443	9.170634	-2.666519	1.970685	-0.000571	0.001976	0.004013	-53.234941	-70.169840	-11.357772
44444	9.153905	-2.696538	1.965871	0.001222	-0.000925	-0.000042	-53.234918	-70.170849	-11.356780
44445	9.150698	-2.671071	1.942661	-0.000744	-0.003430	0.001569	-53.242276	-70.171836	-11.347935
44446	9.170607	-2.666762	1.970481	-0.000173	0.002218	-0.001719	-53.237458	-70.172537	-11.352889
44447	9.180599	-2.688026	1.945416	0.000133	0.000081	-0.001911	-53.236370	-70.173934	-11.354742
44448	9.174016	-2.664470	1.946524	-0.001222	0.000925	0.000042	-53.235473	-70.174270	-11.356167
44449	9.197348	-2.657901	1.950277	0.003930	-0.002613	-0.003948	-53.233699	-70.177554	-11.357347
44450	9.147606	-2.672193	1.966731	0.000398	0.000242	-0.005732	-53.227248	-70.180774	-11.363689
44451	9.180886	-2.687081	1.945366	-0.000133	-0.000081	0.001911	-53.230268	-70.180457	-11.358634
44452	9.174282	-2.663585	1.946484	0.002270	0.000368	-0.001804	-53.226322	-70.181831	-11.361173
44453	9.174152	-2.691058	1.993711	0.000916	0.001212	0.000149	-53.225371	-70.181924	-11.363389
44454	9.170906	-2.665526	1.970760	-0.000000	0.000000	0.000000	-53.224911	-70.182596	-11.363605
44455	9.147669	-2.671802	1.966972	0.000133	0.000081	-0.001911	-53.223841	-70.183923	-11.360631
44456	9.164327	-2.641863	1.971981	0.001832	0.002425	0.000299	-53.219527	-70.183627	-11.363827
44457	9.157663	-2.693098	1.941867	0.001832	-0.005199	-0.000426	-53.225645	-70.186128	-11.354892
44458	9.177667	-2.688660	1.969410	-0.001700	-0.002344	-0.002209	-53.227041	-70.188619	-11.354170
44459	9.147929	-2.671272	1.966479	0.000571	-0.001976	-0.004013	-53.226182	-70.191595	-11.351632
44460	9.171302	-2.664706	1.970026	-0.000611	-0.003349	-0.000341	-53.230016	-70.193573	-11.347656
44461	9.171364	-2.664607	1.969870	0.000133	0.000081	-0.001911	-53.229045	-70.194915	-11.345387
44462	9.184746	-2.683887	1.920519	0.000305	-0.002137	-0.000192	-53.230952	-70.196408	-11.342901
44463	9.168043	-2.666540	1.993917	0.001832	0.002425	0.000299	-53.227984	-70.195940	-11.342771
44464	9.174727	-2.662464	1.945917	-0.002443	0.001850	0.000085	-53.226648	-70.195939	-11.345405
44465	9.167986	-2.666501	1.994231	0.001049	0.001293	-0.001761	-53.223292	-70.196886	-11.353248
44466	9.168019	-2.666552	1.994011	0.000651	-0.006573	0.003246	-53.233930	-70.198323	-11.341272
44467	9.171383	-2.664656	1.969718	-0.000305	0.002137	0.000192	-53.232658	-70.198048	-11.340488
44468	9.171362	-2.664762	1.969671	-0.001965	-0.002505	0.001612	-53.238054	-70.198839	-11.335677
44469	9.204594	-2.679918	1.948151	-0.000000	0.000000	-0.000000	-53.238858	-70.199324	-11.331975
44470	9.201234	-2.681984	1.972203	-0.002138	-0.000288	-0.000107	-53.239888	-70.200144	-11.331908
44471	9.148088	-2.671266	1.965750	-0.000305	0.002137	0.000192	-53.238297	-70.199900	-11.335840
44472	9.174699	-2.662753	1.945656	0.003187	0.001581	-0.001654	-53.232421	-70.200789	-11.339872
44473	9.197910	-2.656394	1.949677	-0.001660	0.002981	0.002145	-53.232488	-70.199244	-11.336096
44474	9.167883	-2.666733	1.994392	-0.000213	0.004517	-0.005348	-53.221297	-70.200821	-11.347846
44475	9.181178	-2.685904	1.945616	-0.000916	0.006411	0.000575	-53.215121	-70.198922	-11.354237
44476	9.191004	-2.660205	1.999048	-0.000305	0.002137	0.000192	-53.212295	-70.198772	-11.357153
44477	9.181037	-2.685975	1.946180	-0.000305	0.002137	0.000192	-53.210940	-70.198514	-11.359170
44478	9.184363	-2.683870	1.922374	-0.000478	0.004355	-0.001527	-53.203749	-70.198392	-11.366830
44479	9.180896	-2.685875	1.946985	0.001221	0.006699	0.000683	-53.195937	-70.196282	-11.371278
44480	9.174178	-2.662331	1.948685	0.002576	0.005855	-0.001270	-53.185331	-70.195526	-11.380708
44481	9.173888	-2.689889	1.996502	-0.002444	0.009473	0.000810	-53.176308	-70.192527	-11.395360
44482	9.190456	-2.659904	2.001967	0.004236	0.002874	-0.003414	-53.166505	-70.193777	-11.402927
44483	9.180523	-2.685307	1.949526	0.001182	0.008998	-0.002945	-53.152469	-70.192573	-11.415385
44484	9.197099	-2.655137	1.955207	0.003625	0.007148	-0.003029	-53.137941	-70.192177	-11.428346
44485	9.150505	-2.667480	1.948499	0.001009	0.011216	-0.004663	-53.119500	-70.190996	-11.446474
44486	9.170340	-2.662749	1.977139	0.003015	0.003799	-0.003371	-53.109258	-70.191906	-11.455251
44487	9.173680	-2.660277	1.953832	0.003146	0.011503	-0.004554	-53.089377	-70.190617	-11.475527
44488	9.170239	-2.661837	1.978832	0.001620	0.006941	-0.005046	-53.074336	-70.191212	-11.490254
44489	9.173583	-2.659367	1.955525	0.004540	0.008361	-0.002877	-53.059378	-70.190190	-11.499867
44490	9.173511	-2.658939	1.956444	0.003452	0.009366	-0.004745	-53.040492	-70.189808	-11.517564
44491	9.173432	-2.658618	1.957249	0.001353	0.006780	-0.001225	-53.030686	-70.188630	-11.530637
44492	9.156737	-2.688064	1.953179	0.003586	0.009447	-0.006655	-53.009796	-70.189092	-11.550383
44493	9.196564	-2.651417	1.962757	0.002269	0.007993	-0.001074	-52.998146	-70.187468	-11.566694
44494	9.143228	-2.667842	2.004009	0.002976	0.006097	-0.006996	-52.981532	-70.189238	-11.582267
44495	9.196599	-2.650293	1.964114	0.002976	0.006097	-0.006996	-52.966079	-70.190882	-11.597794
44496	9.169980	-2.658136	1.984998	-0.000517	0.006653	-0.005153	-52.952523	-70.191614	-11.612245
44497	9.143575	-2.638348	1.958719	0.000973	0.005889	-0.009014	-52.936837	-70.194223	-11.624955
44498	9.146872	-2.663171	1.982321	0.004064	0.005092	-0.005127	-52.922658	-70.195479	-11.637277
44499	9.193465	-2.649777	1.990381	0.000230	0.002459	-0.007447	-52.913047	-70.198509	-11.643322
44500	9.170269	-2.655555	1.987117	0.004673	0.008443	-0.004783	-52.894594	-70.198449	-11.659816
44501	9.147001	-2.661526	1.983934	-0.000345	0.004435	-0.003435	-52.886882	-70.199099	-11.669268
44502	9.176900	-2.678196	1.987158	0.001927	0.004804	-0.005235	-52.874185	-70.200501	-11.681317
44503	9.156897	-2.634819	2.037794	0.000096	0.002378	-0.005536	-52.866612	-70.202779	-11.690007
44504	9.143838	-2.662205	2.008714	-0.001255	-0.004402	-0.004313	-52.868302	-70.206944	-11.688701
44505	9.177247	-2.676920	1.987276	-0.003398	0.002933	-0.003695	-52.863587	-70.208213	-11.699588
44506	9.170688	-2.653304	1.988189	-0.001524	-0.004563	-0.000494	-52.869306	-70.210688	-11.694164
44507	9.177377	-2.676709	1.986964	-0.002310	0.001929	-0.001827	-52.866800	-70.211305	-11.695674
44508	9.174185	-2.650965	1.964091	-0.000039	0.002298	-0.003627	-52.859947	-70.212838	-11.702708
44509	9.177459	-2.676150	1.987336	-0.000039	0.002298	-0.003627	-52.854529	-70.214195	-11.703003
44510	9.144220	-2.660788	2.008853	-0.000039	0.002298	-0.003626	-52.847674	-70.215728	-11.710038
44511	9.167689	-2.626495	1.965842	0.000877	0.003511	-0.003475	-52.840383	-70.216639	-11.714322
44512	9.204242	-2.666705	1.967848	-0.000039	0.002298	-0.003626	-52.833527	-70.218170	-11.721359
44513	9.161219	-2.677099	1.936316	0.003321	0.001663	-0.003558	-52.826919	-70.219704	-11.721635
44514	9.187622	-2.621105	1.994680	-0.000653	0.006572	-0.003241	-52.815358	-70.219580	-11.734045
44515	9.147763	-2.656962	1.986535	0.004063	0.005094	-0.005124	-52.802463	-70.220723	-11.745553
44516	9.171026	-2.650284	1.990660	0.000000	0.000000	0.000000	-52.801991	-70.221394	-11.745782
44517	9.174413	-2.648160	1.966807	0.001657	0.004644	-0.001415	-52.794440	-70.221000	-11.754446
44518	9.160950	-2.628514	2.016345	0.001184	0.001374	-0.003667	-52.788011	-70.222869	-11.760283
44519	9.177858	-2.645674	1.943180	0.000915	0.001213	0.000151	-52.786784	-70.222933	-11.761534
44520	9.171023	-2.649589	1.991595	0.000876	0.003511	-0.003475	-52.778003	-70.223972	-11.770057
44521	9.174434	-2.647283	1.967889	0.002879	0.003720	-0.001456	-52.770783	-70.223890	-11.776511
44522	9.197539	-2.641074	1.972111	-0.001019	0.004033	0.006112	-52.771668	-70.220375	-11.775916
44523	9.170704	-2.649896	1.992658	0.001695	0.002346	0.002212	-52.770951	-70.219151	-11.774134
44524	9.144192	-2.630888	1.965864	-0.002137	-0.000289	-0.000110	-52.771963	-70.219973	-11.774087
44525	9.173998	-2.648097	1.968826	-0.001972	0.005118	0.002335	-52.769538	-70.217728	-11.779906
44526	9.180546	-2.671708	1.968014	-0.001222	0.000924	0.000041	-52.768633	-70.218060	-11.781339
44527	9.173874	-2.648263	1.969181	-0.000307	0.002137	0.000193	-52.767229	-70.217805	-11.781532
44528	9.170346	-2.650522	1.993471	-0.001799	0.002900	0.004052	-52.768014	-70.215622	-11.781520
44529	9.203578	-2.665660	1.972365	0.001050	0.001294	-0.001758	-52.764753	-70.216494	-11.782955
44530	9.170280	-2.650527	1.993768	0.002137	0.000289	0.000110	-52.762794	-70.217014	-11.783461
44531	9.173626	-2.648581	1.969906	-0.000750	0.004194	0.002294	-52.760866	-70.215068	-11.785432
44532	9.173531	-2.648706	1.970182	-0.000307	0.002137	0.000193	-52.758044	-70.214910	-11.788344
44533	9.173508	-2.648640	1.970376	-0.000173	0.002217	-0.001717	-52.754514	-70.215529	-11.793803
44534	9.193275	-2.644289	1.998539	0.001695	0.002346	0.002212	-52.752227	-70.214377	-11.794927
44535	9.169951	-2.650771	1.994957	0.001830	0.002426	0.000303	-52.748876	-70.213930	-11.797841
44536	9.179977	-2.672210	1.969987	-0.001222	0.000924	0.000041	-52.747970	-70.214262	-11.799274
44537	9.196603	-2.642154	1.975028	0.003322	0.001663	-0.003557	-52.741264	-70.215907	-11.805982
44538	9.140059	-2.633346	1.992675	-0.000307	0.002137	0.000193	-52.738442	-70.215749	-11.808895
44539	9.176629	-2.673630	1.994545	0.000405	0.000241	-0.005728	-52.733068	-70.218846	-11.815794
44540	9.190093	-2.617977	1.976414	0.000000	0.000000	-0.000000	-52.732594	-70.219517	-11.816025
44541	9.146846	-2.656208	1.991762	0.000135	0.000080	-0.001909	-52.731323	-70.220947	-11.818261
44542	9.163506	-2.626142	1.996641	0.001357	-0.000844	-0.001950	-52.729258	-70.222800	-11.819356
44543	9.173691	-2.647187	1.971480	0.001627	-0.000683	-0.005769	-52.724224	-70.226227	-11.824342
44544	9.153832	-2.678544	1.990653	0.001627	-0.000683	-0.005768	-52.718113	-70.229765	-11.829571
44545	9.173977	-2.646412	1.971189	-0.000434	-0.005568	0.001372	-52.727436	-70.231668	-11.822058
44546	9.154224	-2.650527	1.943297	-0.000384	0.006732	-0.007059	-52.711824	-70.233220	-11.838608
44547	9.170665	-2.647869	1.995528	0.000308	-0.002137	-0.000193	-52.714697	-70.234608	-11.836578
44548	9.174125	-2.645725	1.971421	0.001050	0.001294	-0.001758	-52.710281	-70.235631	-11.840358
44549	9.194120	-2.613724	1.952462	0.000607	0.003350	0.000344	-52.706808	-70.234903	-11.844244
44550	9.174046	-2.645651	1.971885	0.000915	0.001213	0.000152	-52.704416	-70.235084	-11.845957
44551	9.163961	-2.624144	1.997181	-0.000173	0.002217	-0.001716	-52.700798	-70.235634	-11.847922
44552	9.167365	-2.622038	1.973288	-0.000308	0.002137	0.000193	-52.697973	-70.235475	-11.850837
44553	9.197027	-2.666646	2.023293	0.001223	-0.000924	-0.000041	-52.699071	-70.236459	-11.853590
44554	9.170575	-2.647439	1.996514	0.001964	0.002507	-0.001606	-52.692737	-70.236992	-11.858851
44555	9.167309	-2.622030	1.973559	-0.002407	-0.000450	0.003707	-52.699052	-70.236069	-11.855497
44556	9.170394	-2.647998	1.996601	0.000510	0.000972	0.005879	-52.702731	-70.233723	-11.851005
44557	9.147241	-2.627207	1.945734	0.000780	0.001133	0.002061	-52.703589	-70.232984	-11.850677
44558	9.170191	-2.648522	1.996840	0.000780	0.001133	0.002061	-52.703220	-70.232323	-11.850322
44559	9.173547	-2.646672	1.972837	-0.001357	0.000844	0.001950	-52.705301	-70.231623	-11.845361
44560	9.196664	-2.640540	1.976902	0.002475	0.003479	0.004273	-52.703123	-70.229138	-11.845896
44561	9.169842	-2.649426	1.997244	-0.001320	-0.001454	0.005576	-52.712086	-70.227661	-11.834260
44562	9.169662	-2.649909	1.997430	-0.001193	0.006251	0.004396	-52.708614	-70.224159	-11.838403
44563	9.189475	-2.618548	1.978530	0.001597	-0.000032	0.007748	-52.716117	-70.221246	-11.829919
44564	9.172669	-2.648870	1.973973	0.001080	0.006620	0.002598	-52.709140	-70.218435	-11.836403
44565	9.169013	-2.651385	1.998448	-0.000848	0.001816	0.007830	-52.715674	-70.214834	-11.830862
44566	9.165589	-2.626581	1.975495	0.001597	-0.000032	0.007748	-52.721800	-70.211984	-11.823106
44567	9.168603	-2.652711	1.998569	-0.001628	0.000683	0.005769	-52.728185	-70.209729	-11.819199
44568	9.171809	-2.651333	1.974660	-0.001155	0.003953	0.008023	-52.731101	-70.205371	-11.816532
44569	9.174741	-2.677485	1.998057	0.002340	0.003398	0.006184	-52.731984	-70.201945	-11.815098
44570	9.148114	-2.658893	1.971326	-0.000406	-0.000241	0.005729	-52.737568	-70.200088	-11.809138
44571	9.174647	-2.651074	1.950966	-0.000234	-0.002458	0.007446	-52.748619	-70.198065	-11.794882
44572	9.174238	-2.679154	1.998131	0.000338	0.003190	0.004164	-52.747923	-70.195731	-11.795143
44573	9.167689	-2.628583	1.952243	0.000509	0.000972	0.005881	-52.752849	-70.193258	-11.787189
44574	9.147465	-2.660920	1.971606	0.001560	0.002265	0.004123	-52.752584	-70.191263	-11.786248
44575	9.173799	-2.680200	1.998744	0.003053	0.001501	0.000263	-52.749779	-70.191155	-11.785759
44576	9.140720	-2.637549	1.973070	0.004275	0.000577	0.000222	-52.746340	-70.191524	-11.786538
44577	9.193768	-2.648257	1.980046	-0.001836	0.005199	0.000426	-52.741656	-70.190092	-11.794316
44578	9.167001	-2.656805	2.000481	-0.000135	-0.000080	0.001910	-52.743201	-70.189920	-11.792484
44579	9.147166	-2.661229	1.972573	0.002137	0.000288	0.000111	-52.742492	-70.190419	-11.795535
44580	9.166915	-2.656946	2.000688	0.001695	0.002346	0.002214	-52.740210	-70.189267	-11.796655
44581	9.170316	-2.654999	1.976666	-0.000915	-0.001213	-0.000152	-52.742865	-70.190323	-11.793162
44582	9.183539	-2.627084	2.005585	0.000135	0.000080	-0.001910	-52.740374	-70.191837	-11.795454
44583	9.147138	-2.661225	1.972708	-0.002137	-0.000288	-0.000111	-52.742348	-70.192549	-11.795226
44584	9.156915	-2.635452	2.025597	-0.001831	-0.002426	-0.000304	-52.745703	-70.194200	-11.792503
44585	9.166987	-2.656803	2.000548	0.002881	0.003719	-0.001454	-52.738585	-70.194101	-11.795984
44586	9.167012	-2.656667	2.000611	0.002751	-0.003986	-0.000274	-52.741319	-70.196280	-11.791130
44587	9.163753	-2.631408	1.977588	-0.001020	0.004034	0.006115	-52.743174	-70.192707	-11.793571
44588	9.170240	-2.655095	1.976890	0.000744	0.003430	-0.001565	-52.736424	-70.192902	-11.800020
44589	9.193449	-2.648643	1.981012	-0.000307	0.002137	0.000193	-52.734940	-70.192685	-11.802361
44590	9.163531	-2.631560	1.978416	0.001831	0.002426	0.000304	-52.730640	-70.192376	-11.805544
44591	9.166883	-2.629698	1.954524	0.000644	0.001053	0.003972	-52.733588	-70.190757	-11.799395
44592	9.159881	-2.634070	2.002823	-0.003802	0.002693	0.002032	-52.733842	-70.189567	-11.801169
44593	9.139958	-2.638634	1.975146	0.002611	0.003558	0.002366	-52.730886	-70.187815	-11.800770
44594	9.169703	-2.655972	1.978202	0.001866	0.000128	0.003931	-52.732968	-70.186649	-11.797148
44595	9.162659	-2.660383	2.026620	0.001253	0.004403	0.004317	-52.731163	-70.183749	-11.801836
44596	9.185932	-2.627103	1.983634	-0.000985	0.001737	0.009742	-52.738436	-70.179375	-11.794433
44597	9.169100	-2.657702	1.978677	-0.003460	-0.001741	0.005466	-52.748446	-70.178032	-11.784571
44598	9.192161	-2.651945	1.982571	0.003426	0.002393	0.008056	-52.750733	-70.174199	-11.779781
44599	9.108695	-2.652257	2.020385	0.000508	0.000973	0.005882	-52.755722	-70.171766	-11.772792
44600	9.168547	-2.659456	1.978880	-0.001323	-0.001453	0.005578	-52.763209	-70.170397	-11.765365
44601	9.168351	-2.660090	1.978936	0.000066	0.003030	0.007986	-52.767716	-70.166298	-11.760750
44602	9.161507	-2.637238	1.980228	0.001424	0.002185	0.006035	-52.769465	-70.163458	-11.757750
44603	9.164801	-2.635632	1.956294	0.001866	0.000128	0.003932	-52.772603	-70.162182	-11.752676
44604	9.191105	-2.655036	1.983330	-0.000442	0.002057	0.002103	-52.771805	-70.161180	-11.753522
44605	9.151114	-2.691457	1.974741	-0.000442	0.002057	0.002103	-52.771981	-70.160052	-11.752512
44606	9.187496	-2.657366	2.007747	0.000916	0.001212	0.000152	-52.769599	-70.160234	-11.754215
44607	9.164277	-2.663616	2.003901	0.002579	-0.001770	-0.001992	-52.769224	-70.162280	-11.748569
44608	9.184368	-2.631720	1.984758	-0.000442	0.002057	0.002103	-52.768426	-70.161278	-11.749414
44609	9.194451	-2.653054	1.959663	0.003937	-0.002615	-0.003942	-52.766332	-70.164562	-11.748841
44610	9.161006	-2.665021	2.027997	0.000408	0.000240	-0.005731	-52.759817	-70.167764	-11.755247
44611	9.167974	-2.660682	1.979887	0.002137	0.000288	0.000112	-52.759208	-70.168199	-11.752473
44612	9.184617	-2.630831	1.984784	-0.002137	-0.000288	-0.000112	-52.760218	-70.169021	-11.752428
44613	9.161382	-2.637204	1.980851	0.001222	-0.000925	-0.000041	-52.761038	-70.169985	-11.755342
44614	9.168021	-2.660659	1.979699	0.000306	-0.002137	-0.000193	-52.762910	-70.171485	-11.752893
44615	9.181240	-2.632746	2.008685	-0.000170	0.002217	-0.001717	-52.759286	-70.172073	-11.755246
44616	9.168019	-2.660488	1.979940	0.001831	0.002425	0.000305	-52.754991	-70.171765	-11.758423
44617	9.164572	-2.662316	2.004280	0.003325	0.001660	-0.003556	-52.748130	-70.173406	-11.764691
44618	9.161422	-2.636547	1.981539	-0.000476	0.004355	-0.001524	-52.740957	-70.173262	-11.772333
44619	9.187829	-2.655527	2.008659	0.000136	0.000080	-0.001910	-52.739604	-70.174713	-11.774300
44620	9.187917	-2.655262	2.008608	-0.000644	-0.001053	-0.003973	-52.737011	-70.177561	-11.777176
44621	9.161641	-2.635793	1.981531	-0.002781	-0.001341	-0.004084	-52.736902	-70.180454	-11.778525
44622	9.154822	-2.639692	2.029533	-0.000916	-0.001213	-0.000152	-52.738343	-70.181615	-11.777278
44623	9.168374	-2.659122	1.980132	-0.001831	-0.002425	-0.000305	-52.742636	-70.183204	-11.776085
44624	9.168450	-2.659025	1.979908	0.000442	-0.002057	-0.002103	-52.742491	-70.185547	-11.775697
44625	9.168517	-2.658943	1.979710	-0.003053	-0.001501	-0.000264	-52.746492	-70.186745	-11.771705
44626	9.168588	-2.658876	1.979471	-0.001695	-0.002345	-0.002215	-52.747830	-70.189240	-11.771044
44627	9.188514	-2.654255	2.007207	0.000578	-0.001977	-0.004013	-52.746618	-70.192295	-11.770231
44628	9.162213	-2.634846	1.980145	-0.000780	-0.001133	-0.002062	-52.746042	-70.194299	-11.771045
44629	9.165456	-2.660182	2.003072	-0.000780	-0.001133	-0.002062	-52.746415	-70.196224	-11.772216
44630	9.182115	-2.630236	2.007975	0.000916	0.001213	0.000152	-52.744030	-70.196405	-11.773921
44631	9.162358	-2.634390	1.980078	0.001493	-0.000765	-0.003861	-52.741084	-70.198972	-11.772684
44632	9.185642	-2.627708	1.984177	0.005020	0.004006	-0.001342	-52.731370	-70.198866	-11.779679
44633	9.162288	-2.634010	1.980912	-0.000004	0.007625	0.000731	-52.723315	-70.196530	-11.788794
44634	9.135424	-2.642761	2.001445	0.004038	-0.001881	0.007670	-52.730303	-70.194356	-11.778636
44635	9.158391	-2.637157	2.005575	0.000539	0.006301	0.010240	-52.732391	-70.188035	-11.773828
44636	9.168151	-2.659336	1.980876	0.001423	0.002186	0.006035	-52.734149	-70.185196	-11.770820
44637	9.184563	-2.630096	1.986006	0.001287	0.002106	0.007945	-52.739068	-70.181395	-11.762316
44638	9.164236	-2.662620	2.005410	-0.001936	0.002823	0.005964	-52.741875	-70.178367	-11.760238
44639	9.167465	-2.661224	1.981517	0.002509	0.001181	0.007905	-52.747455	-70.174987	-11.752775
44640	9.163782	-2.663863	2.005834	0.000202	0.003111	0.006076	-52.748780	-70.171809	-11.750971
44641	9.170445	-2.660300	1.958151	-0.000274	0.007465	0.004552	-52.744212	-70.167734	-11.758304
44642	9.189934	-2.656640	1.986605	-0.001292	0.003876	0.009938	-52.749137	-70.162529	-11.753582
44643	9.193092	-2.655267	1.963038	0.003085	0.006827	0.004624	-52.743946	-70.158593	-11.753047
44644	9.163027	-2.638424	1.960836	0.002306	0.005695	0.002561	-52.737421	-70.156121	-11.758307
44645	9.179117	-2.636412	2.013575	0.000642	0.008678	0.004705	-52.731020	-70.151596	-11.768472
44646	9.162206	-2.666760	2.009183	-0.001937	0.002823	0.005965	-52.733825	-70.148567	-11.766395
44647	9.185511	-2.633631	1.966186	-0.001294	0.003876	0.009939	-52.739635	-70.143214	-11.758720
44648	9.158137	-2.670499	2.033740	-0.004347	0.002377	0.009674	-52.747945	-70.138649	-11.752260
44649	9.164750	-2.667300	1.985903	0.001897	0.005455	0.008295	-52.748258	-70.133498	-11.749228
44650	9.167929	-2.666005	1.962168	-0.000852	0.001819	0.007836	-52.753502	-70.129965	-11.743899
44651	9.164189	-2.668759	1.986529	0.000980	0.004243	0.008142	-52.755730	-70.125365	-11.742680
44652	9.157322	-2.645940	1.987959	-0.002242	0.004961	0.006160	-52.756194	-70.121506	-11.743280
44653	9.157032	-2.646621	1.988390	-0.000241	0.005168	0.008183	-52.758580	-70.116652	-11.742427
44654	9.160219	-2.645250	1.964755	0.001117	0.004323	0.006232	-52.757995	-70.112982	-11.742095
44655	9.179715	-2.641503	1.993268	-0.000409	0.007386	0.006466	-52.755579	-70.108150	-11.750821
44656	9.156202	-2.648333	1.989932	0.001254	0.004402	0.004322	-52.752985	-70.105324	-11.752543
44657	9.159018	-2.674418	2.013535	-0.000546	0.007306	0.008378	-52.752434	-70.099532	-11.753803
44658	9.185489	-2.666635	1.993755	-0.000579	0.001978	0.004016	-52.753651	-70.097686	-11.752589
44659	9.162014	-2.673374	1.990354	0.000644	0.008677	0.004710	-52.747734	-70.093141	-11.756951
44660	9.181947	-2.641908	1.971719	0.001558	0.002265	0.004129	-52.747475	-70.091143	-11.756005
44661	9.147974	-2.654792	2.040684	0.000202	0.010735	0.006815	-52.740844	-70.084851	-11.760532
44662	9.161240	-2.674695	1.992138	0.004917	0.001625	0.004203	-52.739537	-70.083042	-11.758654
44663	9.154453	-2.651572	1.993662	-0.001493	0.008392	0.004597	-52.734433	-70.078707	-11.772447
44664	9.164307	-2.673339	1.969100	0.003833	0.002630	0.002332	-52.730691	-70.077403	-11.773819
44665	9.177236	-2.645910	1.998830	0.001119	0.011948	0.006970	-52.722030	-70.070628	-11.781556
44666	9.153718	-2.652635	1.995622	0.001695	0.002344	0.002219	-52.719765	-70.069474	-11.782659
44667	9.153447	-2.653135	1.996199	-0.002073	0.010371	0.008615	-52.716567	-70.062576	-11.790336
44668	9.153128	-2.653812	1.996765	0.001420	0.002185	0.006042	-52.718318	-70.059734	-11.787335
44669	9.182731	-2.671517	1.999918	0.000199	0.003111	0.006082	-52.720751	-70.056479	-11.784018
44670	9.135962	-2.684826	1.992419	-0.001160	0.003958	0.008034	-52.723657	-70.052114	-11.781361
44671	9.152363	-2.655765	1.997671	-0.001160	0.003958	0.008034	-52.727492	-70.047719	-11.781176
44672	9.171878	-2.652117	2.025899	-0.000718	0.001899	0.005929	-52.730716	-70.045028	-11.777913
44673	9.181776	-2.673990	2.000998	-0.001663	0.002984	0.002146	-52.730896	-70.043582	-11.774168
44674	9.181565	-2.674546	2.001221	0.001144	0.002026	0.009866	-52.736654	-70.039052	-11.767072
44675	9.171286	-2.653699	2.026505	-0.000580	0.001979	0.004017	-52.738963	-70.037175	-11.766837
44676	9.171136	-2.653985	2.026812	0.001392	0.004481	0.002414	-52.734378	-70.035191	-11.770595
44677	9.154727	-2.656464	1.975195	0.001392	0.004481	0.002414	-52.731033	-70.033203	-11.775480
44678	9.154140	-2.684203	2.022674	-0.001663	0.002985	0.002146	-52.729822	-70.031860	-11.777511
44679	9.177714	-2.650571	1.979783	0.001392	0.004481	0.002414	-52.726355	-70.029788	-11.778673
44680	9.127574	-2.665338	1.996446	-0.000608	0.004276	0.000388	-52.721242	-70.028798	-11.784211
44681	9.150743	-2.659133	2.000609	0.000779	0.001132	0.002066	-52.721847	-70.028110	-11.786066
44682	9.150689	-2.659264	2.000682	-0.004579	0.001568	-0.000034	-52.722004	-70.028253	-11.788419
44683	9.173926	-2.652977	2.004649	0.002138	0.000285	0.000114	-52.720773	-70.028707	-11.791116
44684	9.150607	-2.659391	2.000890	-0.001663	0.002985	0.002146	-52.719563	-70.027364	-11.793145
44685	9.150594	-2.659312	2.001057	0.002414	0.000444	-0.003709	-52.714708	-70.029538	-11.798231
44686	9.173818	-2.652823	2.005348	0.001226	0.006699	0.000697	-52.705801	-70.027566	-11.806688
44687	9.150472	-2.659155	2.001823	0.000917	0.001211	0.000154	-52.704833	-70.027674	-11.804162
44688	9.173617	-2.652917	2.006141	0.004446	0.005978	0.002684	-52.696886	-70.025046	-11.809636
44689	9.153737	-2.657382	1.978541	0.000778	0.001132	0.002066	-52.697593	-70.024374	-11.811323
44690	9.156686	-2.682988	2.001899	0.001530	0.004561	0.000503	-52.691012	-70.023233	-11.817122
44691	9.143510	-2.635936	2.004341	-0.000469	0.004355	-0.001523	-52.685190	-70.023003	-11.820614
44692	9.160022	-2.681026	1.978563	0.001557	0.002264	0.004133	-52.684941	-70.021005	-11.819659
44693	9.153308	-2.657890	1.979847	0.000336	0.003191	0.004173	-52.685130	-70.018649	-11.823110
44694	9.179463	-2.677300	2.007174	-0.000608	0.004276	0.000389	-52.680024	-70.017658	-11.828643
44695	9.143035	-2.636560	2.005691	0.001668	0.004640	-0.001408	-52.672754	-70.017344	-11.836174
44696	9.149073	-2.687499	2.052061	0.000000	0.000000	-0.000000	-52.672287	-70.018016	-11.836401
44697	9.146050	-2.661898	2.029066	0.001055	0.001291	-0.001757	-52.668771	-70.018950	-11.839237
44698	9.149560	-2.659915	2.004975	-0.004414	-0.000649	0.001682	-52.673253	-70.019081	-11.836888
44699	9.149618	-2.659847	2.004804	0.000581	-0.001979	-0.004018	-52.672227	-70.022192	-11.835784
44700	9.152795	-2.684932	2.027789	-0.002943	0.000879	-0.005810	-52.666790	-70.025205	-11.843093
44701	9.173146	-2.652694	2.008590	-0.000640	-0.001053	-0.003978	-52.665020	-70.027994	-11.847087
44702	9.176788	-2.650250	1.984501	-0.000805	0.001165	-0.005695	-52.658107	-70.030855	-11.854662
44703	9.133407	-2.688053	1.999767	0.000139	0.000079	-0.001912	-52.657252	-70.032383	-11.855304
44704	9.180013	-2.675139	2.007537	0.000581	-0.001979	-0.004018	-52.655089	-70.035572	-11.856980
44705	9.170502	-2.625851	1.985471	0.001055	0.001291	-0.001757	-52.651705	-70.036479	-11.857182
44706	9.100311	-2.672263	2.020739	-0.003971	-0.002708	-0.000424	-52.656503	-70.038285	-11.854226
44707	9.210573	-2.664397	1.962546	0.001521	-0.010689	-0.000972	-52.668662	-70.043132	-11.844874
44708	9.117279	-2.642304	2.024646	-0.003524	0.002858	-0.001792	-52.664913	-70.043627	-11.850739
44709	9.203696	-2.668342	2.010133	-0.000447	-0.005567	0.001368	-52.674049	-70.045600	-11.843951
44710	9.147115	-2.659686	2.027165	-0.002580	0.001773	0.001991	-52.674741	-70.044749	-11.844517
44711	9.167261	-2.628153	2.007923	-0.002110	-0.002582	0.003514	-52.683273	-70.044649	-11.835092
44712	9.153552	-2.683936	2.025687	-0.003165	-0.003873	0.005271	-52.694523	-70.044263	-11.824781
44713	9.173751	-2.652474	2.006116	-0.002889	-0.003714	0.001448	-52.702787	-70.045550	-11.820208
44714	9.180354	-2.676086	2.004715	-0.003971	-0.002708	-0.000423	-52.707593	-70.047355	-11.817246
44715	9.180332	-2.676346	2.004468	0.002027	-0.002092	0.005655	-52.715191	-70.046126	-11.807042
44716	9.146957	-2.661453	2.025558	-0.003358	0.000641	-0.000074	-52.715775	-70.046609	-11.808198
44717	9.157438	-2.655511	1.953377	0.000779	0.001132	0.002066	-52.716080	-70.045850	-11.808054
44718	9.173604	-2.653349	2.005630	-0.001525	0.003064	0.000235	-52.712866	-70.045352	-11.812132
44719	9.153307	-2.685307	2.024979	-0.000442	0.002058	0.002106	-52.712935	-70.044318	-11.815131
44720	9.150217	-2.659968	2.001908	0.000166	-0.002217	0.001717	-52.716801	-70.044977	-11.810647
44721	9.166961	-2.630070	2.006782	-0.000944	0.001086	-0.003783	-52.712672	-70.046906	-11.815234
44722	9.156800	-2.683485	2.000714	-0.002249	-0.002662	0.005426	-52.722026	-70.046028	-11.806384
44723	9.150256	-2.660251	2.001351	-0.001530	-0.004561	-0.000504	-52.728680	-70.048386	-11.796269
44724	9.180114	-2.677428	2.004022	-0.000000	0.000000	-0.000000	-52.728216	-70.049058	-11.796492
44725	9.160384	-2.681737	1.975918	-0.003055	-0.001496	-0.000269	-52.732204	-70.050347	-11.795347
44726	9.180191	-2.677377	2.003740	-0.000779	-0.001132	-0.002066	-52.731633	-70.052353	-11.796158
44727	9.146951	-2.662025	2.024835	0.001359	-0.000847	-0.001952	-52.730608	-70.054118	-11.794485
44728	9.170246	-2.655625	2.028690	-0.002138	-0.000285	-0.000114	-52.731618	-70.054941	-11.794442
44729	9.180445	-2.676750	2.003413	-0.000060	-0.003030	-0.007996	-52.728256	-70.060220	-11.796984
44730	9.177101	-2.678317	2.027355	0.000138	0.000080	-0.001912	-52.725785	-70.061736	-11.799259
44731	9.174132	-2.652547	2.004274	-0.001861	-0.000126	-0.003938	-52.723843	-70.064202	-11.802663
44732	9.151024	-2.658407	2.000290	0.002856	-0.001613	-0.005815	-52.718206	-70.068085	-11.806648
44733	9.184472	-2.673180	1.979013	-0.000779	-0.001132	-0.002066	-52.718648	-70.070075	-11.808888
44734	9.141218	-2.636186	2.025216	0.001635	-0.000687	-0.005775	-52.712582	-70.073618	-11.814073
44735	9.181247	-2.674362	2.002924	0.000581	-0.001978	-0.004018	-52.711319	-70.076763	-11.816268
44736	9.154655	-2.682345	2.022810	-0.002474	-0.003475	-0.004286	-52.712538	-70.080595	-11.816208
44737	9.175054	-2.650040	2.003372	0.001940	-0.002825	-0.005969	-52.709554	-70.084905	-11.819538
44738	9.175186	-2.649658	2.003274	0.000138	0.000080	-0.001911	-52.707079	-70.086421	-11.821817
44739	9.162122	-2.677101	1.974150	-0.001419	-0.002184	-0.006043	-52.705477	-70.090582	-11.825613
44740	9.175511	-2.648841	2.002864	0.000885	-0.004116	-0.004212	-52.705649	-70.094603	-11.824621
44741	9.148927	-2.656799	2.022769	0.000580	-0.001978	-0.004017	-52.704437	-70.097723	-11.824777
44742	9.179313	-2.646043	1.978429	0.001497	-0.000766	-0.003863	-52.700375	-70.100422	-11.827914
44743	9.182486	-2.671189	2.001481	0.000276	0.000160	-0.003823	-52.696699	-70.102723	-11.832438
44744	9.156269	-2.651738	1.974394	-0.001695	-0.002344	-0.002220	-52.698027	-70.105221	-11.831788
44745	9.179201	-2.672749	2.025194	0.001664	-0.002984	-0.002146	-52.699055	-70.107852	-11.831036
44746	9.176265	-2.646928	2.001940	0.000580	-0.001978	-0.004017	-52.696894	-70.111042	-11.832709
44747	9.146542	-2.629565	1.998873	0.000305	-0.002138	-0.000194	-52.699501	-70.112440	-11.828827
44748	9.159750	-2.676436	1.996650	0.000442	-0.002058	-0.002106	-52.699355	-70.114786	-11.828443
44749	9.176565	-2.646308	2.001382	0.001801	-0.002904	-0.004057	-52.698606	-70.118288	-11.829351
44750	9.179731	-2.671527	2.024403	0.001054	0.001292	-0.001757	-52.694223	-70.119312	-11.833100
44751	9.150402	-2.626548	1.974437	0.001497	-0.000766	-0.003863	-52.691013	-70.121902	-11.833647
44752	9.160129	-2.675273	1.996466	0.000138	0.000080	-0.001911	-52.688533	-70.123417	-11.835930
44753	9.180370	-2.643171	1.977359	-0.000946	0.001085	-0.003782	-52.684071	-70.125311	-11.841050
44754	9.150259	-2.653094	2.021607	0.002856	-0.001612	-0.005814	-52.678415	-70.129192	-11.845054
44755	9.157369	-2.648588	1.973520	-0.000029	0.002297	-0.003628	-52.672304	-70.130620	-11.850965
44756	9.153933	-2.650342	1.997682	0.001359	-0.000846	-0.001951	-52.670250	-70.132475	-11.852051
44757	9.177281	-2.643725	2.001513	-0.000641	-0.001052	-0.003976	-52.668163	-70.135255	-11.857090
44758	9.173873	-2.645560	2.025440	0.000305	-0.002138	-0.000194	-52.670031	-70.136758	-11.854648
44759	9.177455	-2.643349	2.001211	-0.000641	-0.001052	-0.003976	-52.668205	-70.139519	-11.856449
44760	9.151186	-2.624000	1.974188	-0.000000	0.000000	0.000000	-52.667739	-70.140191	-11.856674
44761	9.167437	-2.621798	2.026178	-0.001054	-0.001292	0.001757	-52.672009	-70.140379	-11.849486
44762	9.150834	-2.651715	2.020814	-0.003360	-0.006985	-0.000810	-52.681502	-70.143847	-11.841170
44763	9.181203	-2.641316	1.975971	-0.001528	-0.004562	-0.000502	-52.688080	-70.146279	-11.835389
44764	9.170819	-2.647372	2.047814	-0.000611	-0.003350	-0.000348	-52.691858	-70.148273	-11.831474
44765	9.167874	-2.621894	2.024079	-0.000750	-0.011054	0.000827	-52.707415	-70.152350	-11.816003
44766	9.148257	-2.626430	1.995140	-0.004552	-0.008357	0.002859	-52.722863	-70.154619	-11.802083
44767	9.154995	-2.650236	1.992950	-0.003637	-0.014770	0.002278	-52.745874	-70.159326	-11.783080
44768	9.185022	-2.667773	1.994390	-0.004996	-0.013924	0.004230	-52.769941	-70.162897	-11.760267
44769	9.172100	-2.621012	1.995120	-0.003668	-0.012472	-0.001349	-52.786781	-70.168320	-11.738738
44770	9.185418	-2.668295	1.991864	-0.003299	-0.011580	0.006450	-52.809059	-70.170060	-11.716795
44771	9.185901	-2.641071	1.943794	-0.003361	-0.006985	-0.000807	-52.819295	-70.173442	-11.708249
44772	9.149236	-2.628130	1.988402	-0.001497	-0.006859	0.003128	-52.831381	-70.175061	-11.696043
44773	9.182227	-2.671109	2.013607	-0.000276	-0.007785	0.003088	-52.844445	-70.176928	-11.683282
44774	9.152870	-2.626617	1.962873	-0.002277	-0.007991	0.001065	-52.856435	-70.179878	-11.671654
44775	9.185876	-2.669523	1.988103	-0.000581	-0.005647	0.003282	-52.867375	-70.180958	-11.661733
44776	9.179273	-2.646537	1.988620	-0.002075	-0.004881	0.007146	-52.881148	-70.180054	-11.648087
44777	9.179216	-2.647054	1.988196	-0.000885	-0.003509	0.003476	-52.890042	-70.180274	-11.636802
44778	9.182568	-2.645377	1.964160	0.001256	0.004401	0.004322	-52.887430	-70.177450	-11.638544
44779	9.175464	-2.649969	2.012426	-0.000242	-0.002458	0.007452	-52.898262	-70.175475	-11.625266
44780	9.182184	-2.646542	1.964386	-0.000101	0.005247	0.006275	-52.897227	-70.171466	-11.626159
44781	9.181876	-2.647284	1.964828	0.000846	0.004161	0.010057	-52.901235	-70.166056	-11.624131
44782	9.201238	-2.644025	1.993405	-0.001120	0.009282	0.012398	-52.901537	-70.157854	-11.624222
44783	9.154210	-2.657874	1.986376	0.002406	0.006424	0.014188	-52.906012	-70.149702	-11.614419
44784	9.193572	-2.623230	1.995996	-0.001834	0.011180	0.018329	-52.909994	-70.138134	-11.611032
44785	9.149461	-2.662982	2.012197	0.000744	0.009408	0.016338	-52.913429	-70.127999	-11.607173
44786	9.185585	-2.677596	1.967844	0.001661	0.010619	0.016492	-52.914355	-70.117464	-11.604906
44787	9.174950	-2.657564	1.993856	-0.004615	0.009845	0.014243	-52.918287	-70.108120	-11.603027
44788	9.170903	-2.660930	2.018746	0.002101	0.008561	0.014389	-52.919548	-70.099258	-11.600135
44789	9.150574	-2.666417	1.991668	-0.000202	0.010494	0.012559	-52.918628	-70.090496	-11.601859
44790	9.173280	-2.661274	1.996591	0.000715	0.011705	0.012714	-52.915116	-70.081312	-11.604888
44791	9.159534	-2.689989	1.968632	0.003431	0.010011	0.008809	-52.909032	-70.074376	-11.607733
44792	9.169269	-2.637643	1.975509	-0.001120	0.009284	0.012408	-52.909339	-70.066170	-11.607820
44793	9.148566	-2.670423	1.995525	0.001293	0.009727	0.008697	-52.904967	-70.059476	-11.613491
44794	9.171419	-2.664833	2.000391	0.000211	0.010734	0.006825	-52.897370	-70.053319	-11.621174
44795	9.147709	-2.671839	1.997557	-0.000230	0.012792	0.008933	-52.890614	-70.045469	-11.627989
44796	9.174086	-2.664248	1.978242	-0.001322	0.006175	0.006323	-52.889164	-70.041117	-11.630067
44797	9.153536	-2.696647	1.997949	0.000816	0.006458	0.006437	-52.887208	-70.036577	-11.631600
44798	9.170051	-2.667275	2.003407	-0.001963	0.005124	0.002343	-52.883662	-70.034407	-11.636299
44799	9.146654	-2.673782	1.999785	-0.000441	0.002058	0.002108	-52.883525	-70.033339	-11.637609
44800	9.176339	-2.691134	2.002955	-0.000605	0.004276	0.000390	-52.878409	-70.032354	-11.643151
44801	9.146423	-2.674041	2.000498	0.000175	0.005407	0.002458	-52.873774	-70.029871	-11.645587
44802	9.169577	-2.667886	2.004763	-0.000302	0.002138	0.000195	-52.870988	-70.029714	-11.648466
44803	9.146284	-2.674082	2.001076	0.001974	0.002501	-0.001603	-52.865863	-70.030206	-11.650755
44804	9.169545	-2.667711	2.005139	0.000000	0.000000	0.000000	-52.865406	-70.030878	-11.650972
44805	9.146316	-2.673809	2.001295	0.001195	0.001370	-0.003671	-52.859489	-70.032643	-11.656592
44806	9.169622	-2.667243	2.005411	0.003194	0.001574	-0.001644	-52.853657	-70.033521	-11.660580
44807	9.139832	-2.649984	2.002594	0.001082	-0.001007	0.001872	-52.856347	-70.033675	-11.660387
44808	9.172625	-2.692878	2.028322	0.000466	-0.004356	0.001523	-52.862548	-70.035158	-11.653235
44809	9.173159	-2.665272	1.981156	0.005332	0.001857	-0.001529	-52.855697	-70.035826	-11.659982
44810	9.139862	-2.650003	2.002430	0.002302	-0.001934	0.001832	-52.858097	-70.036331	-11.655755
44811	9.166180	-2.669226	2.029218	-0.001697	-0.002342	-0.002222	-52.860150	-70.038776	-11.655632
44812	9.172730	-2.692705	2.028076	0.003219	-0.000723	0.001987	-52.860650	-70.038790	-11.652868
44813	9.142890	-2.675700	2.025150	0.000943	-0.001087	0.003785	-52.865469	-70.037984	-11.643032
44814	9.166584	-2.642206	1.981865	0.000943	-0.001087	0.003785	-52.869442	-70.037303	-11.637960
44815	9.169509	-2.667982	2.004945	0.000779	0.001131	0.002067	-52.869610	-70.036478	-11.633709
44816	9.146144	-2.674615	2.001003	-0.001333	-0.001450	0.005584	-52.877056	-70.035100	-11.626330
44817	9.172822	-2.666677	1.980825	0.000779	0.001131	0.002068	-52.877353	-70.034331	-11.623942
44818	9.162638	-2.645642	2.006055	-0.000856	0.001820	0.007847	-52.882566	-70.030789	-11.618648
44819	9.152167	-2.699562	2.000286	0.001420	0.002183	0.006048	-52.885241	-70.027870	-11.612893
44820	9.168684	-2.670411	2.005485	0.000061	0.003030	0.008002	-52.888550	-70.023838	-11.609064
44821	9.158423	-2.649548	2.030839	0.001420	0.002182	0.006049	-52.891053	-70.020966	-11.607610
44822	9.144940	-2.678030	2.001940	-0.001913	0.000530	0.009606	-52.900159	-70.017065	-11.598818
44823	9.194715	-2.664368	1.985788	0.002363	0.001096	0.009835	-52.907133	-70.012869	-11.593146
44824	9.157622	-2.651945	2.031325	0.000980	0.004241	0.008158	-52.908537	-70.008347	-11.590785
44825	9.170795	-2.672439	1.982445	-0.002493	0.002509	0.013629	-52.919664	-70.001858	-11.583387
44826	9.143670	-2.681621	2.002933	0.003257	0.004603	0.006360	-52.917598	-69.998033	-11.583330
44827	9.169631	-2.701590	2.030276	0.001142	0.002023	0.009877	-52.924058	-69.993495	-11.579366
44828	9.136587	-2.659440	2.004866	0.002793	0.008959	0.004837	-52.915345	-69.988861	-11.586666
44829	9.169115	-2.702519	2.031370	-0.000440	0.002059	0.002109	-52.915265	-69.987862	-11.591030
44830	9.146231	-2.681595	1.980585	0.002338	0.003393	0.006206	-52.915099	-69.984526	-11.589511
44831	9.169273	-2.675881	1.984844	0.000200	0.003110	0.006091	-52.917055	-69.981232	-11.585688
44832	9.161971	-2.680454	2.033419	0.002037	0.005531	0.006401	-52.914564	-69.977067	-11.586828
44833	9.161760	-2.680886	2.033798	0.002778	0.001334	0.004098	-52.915347	-69.975337	-11.584612
44834	9.175106	-2.700832	1.984906	-0.001020	0.004039	0.006132	-52.916223	-69.971811	-11.584032
44835	9.141598	-2.686051	2.006452	0.001258	0.004400	0.004333	-52.914215	-69.968940	-11.587720
44836	9.161196	-2.682070	2.034780	0.002917	0.001413	0.002184	-52.912387	-69.968125	-11.587618
44837	9.168135	-2.678312	1.986818	-0.000579	0.001980	0.004023	-52.914405	-69.966197	-11.584472
44838	9.181284	-2.650837	2.015982	0.000779	0.001131	0.002069	-52.914046	-69.965532	-11.584110
44839	9.164464	-2.680671	2.011074	0.001219	-0.000928	-0.000040	-52.914714	-69.966392	-11.577649
44840	9.137653	-2.689016	2.031142	-0.002277	-0.000361	0.001799	-52.917720	-69.966367	-11.575568
44841	9.187736	-2.674504	2.014907	0.003497	-0.000567	-0.001839	-52.915054	-69.968104	-11.580496
44842	9.158017	-2.657129	2.011966	-0.002138	-0.000282	-0.000115	-52.916068	-69.968926	-11.580451
44843	9.164457	-2.680856	2.010860	-0.002417	-0.000440	0.003713	-52.921676	-69.967986	-11.576411
44844	9.160893	-2.683122	2.034755	0.001381	-0.003146	0.001679	-52.925965	-69.968977	-11.570735
44845	9.164371	-2.681369	2.010571	-0.001498	0.000770	0.003868	-52.929907	-69.967523	-11.564972
44846	9.160733	-2.683748	2.034649	-0.000279	-0.000159	0.003828	-52.933437	-69.966500	-11.561115
44847	9.140928	-2.688250	2.006559	-0.001058	-0.001289	0.001759	-52.937800	-69.966713	-11.553380
44848	9.164141	-2.682278	2.010407	-0.000279	-0.000159	0.003828	-52.941329	-69.965689	-11.549524
44849	9.164031	-2.682648	2.010411	-0.001498	0.000770	0.003868	-52.945128	-69.964301	-11.548497
44850	9.167474	-2.680998	1.986247	0.000022	-0.002297	0.003633	-52.950981	-69.964105	-11.541984
44851	9.157371	-2.659922	2.011213	-0.000418	-0.000238	0.005742	-52.957179	-69.962152	-11.534695
44852	9.163672	-2.683987	2.010260	-0.000718	0.001900	0.005938	-52.960374	-69.959452	-11.531463
44853	9.167004	-2.682460	1.986441	-0.000880	0.004118	0.004219	-52.959944	-69.956766	-11.535569
44854	9.166828	-2.682913	1.986643	0.001720	0.000044	0.005858	-52.963992	-69.954744	-11.529941
44855	9.163058	-2.685474	2.011075	-0.000400	0.007387	0.006484	-52.961395	-69.949839	-11.532278
44856	9.156256	-2.662724	2.012581	-0.001298	0.003880	0.009962	-52.966242	-69.944615	-11.527639
44857	9.165947	-2.684995	1.987894	-0.000100	0.005249	0.006289	-52.966157	-69.940588	-11.528612
44858	9.135313	-2.695891	2.032551	0.000980	0.004241	0.008164	-52.967547	-69.936063	-11.526266
44859	9.128476	-2.673301	2.034018	-0.001738	0.005940	0.012073	-52.972993	-69.929190	-11.524652
44860	9.161360	-2.689601	2.013295	0.002059	0.003233	0.010039	-52.976793	-69.924154	-11.519081
44861	9.154527	-2.667166	2.014564	-0.002497	0.002513	0.013638	-52.988095	-69.917631	-11.507945
44862	9.187394	-2.683675	1.993656	-0.001438	0.003802	0.011879	-52.994916	-69.911557	-11.501291
44863	9.143352	-2.722753	2.009144	-0.001438	0.003802	0.011880	-53.002396	-69.905457	-11.496400
44864	9.159843	-2.694017	2.014293	0.000220	0.000813	0.009730	-53.009971	-69.901396	-11.487931
44865	9.182846	-2.688541	2.018515	-0.000099	0.005249	0.006292	-53.009703	-69.897314	-11.487469
44866	9.129560	-2.678117	2.012004	-0.003297	0.003680	0.007936	-53.014014	-69.893086	-11.484620
44867	9.125758	-2.680919	2.036188	-0.005136	0.001261	0.007624	-53.022840	-69.889774	-11.477722
44868	9.162347	-2.695090	1.990828	-0.003758	-0.001886	0.009304	-53.035657	-69.886838	-11.466097
44869	9.178402	-2.693642	2.042559	-0.003179	-0.003866	0.005278	-53.047470	-69.886424	-11.459127
44870	9.128817	-2.681077	2.011430	-0.002857	0.001621	0.005826	-53.052111	-69.883871	-11.455659
44871	9.181632	-2.692968	2.018134	-0.004677	-0.003095	0.009149	-53.067901	-69.881406	-11.441280
44872	9.154642	-2.702051	2.037841	-0.007894	-0.002366	0.007159	-53.081662	-69.879614	-11.431173
44873	9.158614	-2.673475	1.966341	-0.006335	-0.000107	0.011302	-53.096339	-69.875132	-11.421544
44874	9.134386	-2.708461	2.009171	-0.007096	-0.003534	0.012866	-53.116452	-69.871125	-11.404184
44875	9.150988	-2.679955	2.013671	-0.004818	-0.003175	0.011066	-53.133688	-69.867731	-11.388089
44876	9.130395	-2.712803	2.032152	-0.007578	-0.006802	0.010600	-53.156027	-69.865881	-11.368652
44877	9.150654	-2.682364	2.011983	-0.009400	-0.011517	0.013924	-53.189103	-69.864083	-11.340143
44878	9.164013	-2.703232	1.961575	-0.008340	-0.010229	0.012166	-53.217624	-69.862685	-11.314586
44879	9.160363	-2.706362	1.984657	-0.007438	-0.006722	0.008687	-53.238635	-69.861644	-11.298646
44880	9.156688	-2.709414	2.007975	-0.006658	-0.005593	0.010759	-53.259067	-69.859294	-11.280677
44881	9.163005	-2.733786	2.006236	-0.005021	-0.006283	0.004970	-53.274637	-69.859766	-11.266570
44882	9.153110	-2.712699	2.030561	-0.001227	-0.008993	0.002932	-53.288901	-69.862173	-11.251857
44883	9.140418	-2.713311	1.953662	0.004770	-0.008397	0.009024	-53.305537	-69.861569	-11.233208
44884	9.150178	-2.688167	2.006395	0.002157	-0.002020	0.003750	-53.309894	-69.861211	-11.226983
44885	9.150214	-2.688420	2.005893	0.003347	-0.010575	0.002965	-53.324444	-69.864177	-11.213258
44886	9.160216	-2.710255	1.980019	0.001692	-0.007586	0.005119	-53.337322	-69.865093	-11.198241
44887	9.153844	-2.687049	1.980454	0.003970	-0.007228	0.003317	-53.347277	-69.866702	-11.189426
44888	9.150309	-2.689421	2.004114	0.001098	-0.003308	0.005512	-53.355501	-69.865973	-11.179729
44889	9.153824	-2.687789	1.979543	-0.000307	-0.007784	0.003090	-53.368762	-69.867821	-11.164441
44890	9.160303	-2.711508	1.977899	0.002891	-0.006218	0.001442	-53.375814	-69.869956	-11.154898
44891	9.183661	-2.705603	1.981180	0.000772	-0.008794	0.004966	-53.391410	-69.871298	-11.136912
44892	9.156817	-2.714257	2.000834	-0.000120	-0.002378	0.005554	-53.399204	-69.870229	-11.128416
44893	9.156688	-2.714858	2.000607	-0.000259	-0.002458	0.007470	-53.409719	-69.868300	-11.119737
44894	9.130392	-2.695969	1.973500	0.000940	-0.001090	0.003792	-53.413646	-69.867601	-11.114713
44895	9.156489	-2.715772	2.000281	0.001098	-0.003308	0.005513	-53.422152	-69.866762	-11.104426
44896	9.156408	-2.716348	1.999866	-0.000883	-0.005805	0.007120	-53.436139	-69.866140	-11.089799
44897	9.149958	-2.693202	2.000637	0.003218	-0.000732	0.001989	-53.437023	-69.866038	-11.085960
44898	9.149862	-2.693606	2.000531	-0.000259	-0.002457	0.007471	-53.446776	-69.864111	-11.075463
44899	9.136360	-2.721870	1.971184	0.000177	-0.004517	0.005359	-53.457266	-69.863814	-11.066627
44900	9.159542	-2.716228	1.974943	0.000505	0.000969	0.005905	-53.460820	-69.861438	-11.062266
44901	9.152910	-2.693224	1.976381	0.002971	0.006733	0.006565	-53.457522	-69.856764	-11.062051
44902	9.155573	-2.719212	1.999799	0.001861	0.000118	0.003948	-53.459545	-69.855579	-11.058493
44903	9.152570	-2.693916	1.977014	0.001407	0.004476	0.002422	-53.455496	-69.853576	-11.063991
44904	9.158873	-2.717539	1.976243	0.002139	0.000277	0.000114	-53.453595	-69.854102	-11.064444
44905	9.148882	-2.696181	2.001547	0.000347	0.003188	0.004184	-53.453526	-69.851741	-11.066433
44906	9.184828	-2.737287	2.003721	0.003981	0.002694	0.000424	-53.447826	-69.851300	-11.069807
44907	9.109054	-2.704861	1.946186	0.001425	0.002178	0.006061	-53.450009	-69.848349	-11.065024
44908	9.158391	-2.718383	1.977315	0.001842	0.002416	0.000310	-53.445777	-69.848055	-11.068140
44909	9.181573	-2.712329	1.981660	0.002328	0.005684	0.002577	-53.439602	-69.845500	-11.072993
44910	9.151065	-2.722683	2.026410	0.001407	0.004476	0.002423	-53.435003	-69.843530	-11.076766
44911	9.161422	-2.716875	1.954819	0.000815	0.008753	0.002814	-53.426502	-69.839901	-11.086149
44912	9.157649	-2.719032	1.979860	0.002796	0.011249	0.001208	-53.411493	-69.836178	-11.100164
44913	9.137625	-2.676022	2.030970	0.000032	0.007625	0.000743	-53.403128	-69.833969	-11.114330
44914	9.157142	-2.719406	1.981690	0.004516	0.011288	0.007074	-53.392549	-69.827532	-11.122576
44915	9.170226	-2.691961	2.011814	0.000797	0.011051	-0.000823	-53.377581	-69.824705	-11.136638
44916	9.160125	-2.717769	1.959650	0.004031	0.008021	0.004807	-53.369271	-69.820426	-11.142763
44917	9.149849	-2.696610	1.985915	0.005281	0.014715	0.005511	-53.353166	-69.813439	-11.153955
44918	9.152308	-2.722457	2.010299	0.004795	0.011447	0.003243	-53.338690	-69.808706	-11.166184
44919	9.149044	-2.697311	1.988669	0.004844	0.016775	0.007626	-53.321945	-69.800042	-11.181135
44920	9.151366	-2.723355	2.013369	0.006201	0.015923	0.005670	-53.303348	-69.792660	-11.196898
44921	9.144434	-2.700485	2.016019	0.004563	0.016617	0.011463	-53.290966	-69.782352	-11.208167
44922	9.153718	-2.722961	1.992593	0.007919	0.015963	0.011541	-53.276820	-69.772257	-11.218139
44923	9.149507	-2.725882	2.018393	0.005484	0.017825	0.011622	-53.262465	-69.761468	-11.232016
44924	9.138988	-2.705074	2.045142	0.007278	0.014913	0.007553	-53.246311	-69.753562	-11.244522
44925	9.154788	-2.750819	2.020414	0.004373	0.011210	0.009002	-53.238251	-69.746175	-11.249891
44926	9.151510	-2.725936	1.998661	0.005140	0.014636	0.007438	-53.223578	-69.738414	-11.262125
44927	9.141067	-2.705027	2.025179	0.006215	0.013626	0.009317	-53.212081	-69.730161	-11.273494
44928	9.120072	-2.737450	2.045409	-0.000826	0.009450	0.008613	-53.208377	-69.723639	-11.277681
44929	9.123308	-2.736015	2.022129	0.006463	0.006158	0.004738	-53.201731	-69.719980	-11.280436
44930	9.139874	-2.706908	2.028047	-0.000200	0.012798	0.008967	-53.193849	-69.712146	-11.288695
44931	9.112686	-2.715582	2.048756	0.001855	0.000119	0.003953	-53.196686	-69.710985	-11.287476
44932	9.172630	-2.723280	2.007885	0.002186	0.005605	0.004504	-53.192220	-69.707668	-11.290635
44933	9.115849	-2.714400	2.025500	0.001123	0.004319	0.006264	-53.192329	-69.703936	-11.289742
44934	9.156093	-2.726145	1.956666	0.003982	0.002691	0.000432	-53.186672	-69.703487	-11.293075
44935	9.138871	-2.708599	2.030306	0.003545	0.004752	0.002547	-53.181223	-69.701425	-11.304339
44936	9.142198	-2.707075	2.006804	0.000685	0.006380	0.008379	-53.180257	-69.696064	-11.304683
44937	9.148214	-2.731075	2.006718	0.008154	0.010790	0.003334	-53.165410	-69.691393	-11.312202
44938	9.121005	-2.739566	2.027702	0.005257	0.004793	0.008420	-53.163834	-69.686559	-11.310404
44939	9.147523	-2.732090	2.008483	0.004514	0.011289	0.007092	-53.154096	-69.680053	-11.317621
44940	9.137139	-2.711156	2.034685	0.004372	0.011211	0.009011	-53.145632	-69.672742	-11.323708
44941	9.166302	-2.729326	2.038872	0.006510	0.011487	0.009130	-53.136624	-69.665320	-11.332040
44942	9.112969	-2.718492	2.032958	0.006168	0.008296	0.004941	-53.126972	-69.660877	-11.338298
44943	9.145887	-2.734406	2.012778	0.003887	0.007943	0.006740	-53.121387	-69.655630	-11.339040
44944	9.135601	-2.713356	2.038655	0.003887	0.007943	0.006741	-53.115154	-69.650483	-11.343047
44945	9.135302	-2.713698	2.039538	0.006311	0.008374	0.003024	-53.104556	-69.646916	-11.351707
44946	9.118176	-2.743409	2.035216	0.003982	0.002690	0.000435	-53.098914	-69.646465	-11.355024
44947	9.115238	-2.718146	2.012742	0.002670	0.008875	0.006780	-53.093055	-69.640932	-11.359018
44948	9.148169	-2.734107	1.992494	0.003107	0.006813	0.004666	-53.086749	-69.637124	-11.363578
44949	9.111080	-2.720833	2.038286	0.004467	0.005959	0.002709	-53.079849	-69.634570	-11.372805
44950	9.161077	-2.706846	2.022976	0.004172	0.008098	0.002906	-53.069720	-69.631125	-11.380793
44951	9.143843	-2.736865	2.018716	0.002042	0.005529	0.006427	-53.068224	-69.626957	-11.381419
44952	9.133638	-2.715693	2.044330	0.005540	0.004949	0.004590	-53.062761	-69.623824	-11.383594
44953	9.120076	-2.743619	2.015932	0.004467	0.005959	0.002710	-53.055592	-69.621222	-11.391614
44954	9.136799	-2.714254	2.021638	0.000674	0.008678	0.004744	-53.048466	-69.616734	-11.398538
44955	9.132960	-2.716473	2.046321	0.005978	0.002887	0.002476	-53.043864	-69.615210	-11.399161
44956	9.132803	-2.716697	2.046726	0.002479	0.003467	0.004312	-53.041728	-69.612714	-11.399658
44957	9.136231	-2.715099	2.023072	0.001263	0.004399	0.004351	-53.040027	-69.609813	-11.397333
44958	9.145024	-2.764530	2.045761	0.004323	0.005881	0.004630	-53.034156	-69.606341	-11.400687
44959	9.135800	-2.715701	2.024210	0.003545	0.004751	0.002553	-53.028970	-69.604270	-11.408507
44960	9.138320	-2.741484	2.047731	0.000341	0.003192	0.004192	-53.028289	-69.601924	-11.408760
44961	9.129149	-2.692755	2.025832	0.002773	0.001327	0.004117	-53.028979	-69.600143	-11.403318
44962	9.131666	-2.718461	2.049453	0.000962	0.008833	0.000907	-53.017956	-69.597357	-11.414224
44963	9.114529	-2.748226	2.045031	0.001701	0.002337	0.002236	-53.016442	-69.596252	-11.418822
44964	9.137705	-2.742307	2.049370	0.002623	0.003544	0.002395	-53.012356	-69.594608	-11.421312
44965	9.108003	-2.724834	2.046678	0.000772	0.003424	-0.001563	-53.006587	-69.594788	-11.427320
44966	9.131264	-2.718757	2.050852	-0.000144	-0.000077	0.001919	-53.008101	-69.594610	-11.425527
44967	9.131210	-2.718842	2.050982	0.001844	0.002414	0.000318	-53.004799	-69.594320	-11.430476
44968	9.154440	-2.712916	2.055094	0.000929	-0.001087	0.003800	-53.008684	-69.593630	-11.425498
44969	9.140955	-2.740935	2.026260	0.004617	0.003742	0.004435	-53.005846	-69.591038	-11.430923
44970	9.137056	-2.743216	2.051047	0.004951	0.009228	0.004987	-52.995842	-69.586247	-11.438306
44971	9.130573	-2.719813	2.052529	0.002139	0.000274	0.000121	-52.994825	-69.586757	-11.437778
44972	9.130445	-2.719964	2.052898	0.004323	0.005881	0.004632	-52.988969	-69.583283	-11.441118
44973	9.133883	-2.718360	2.029287	0.001556	0.002260	0.004156	-52.989322	-69.581182	-11.436470
44974	9.143651	-2.740247	2.004760	0.003251	0.006891	0.002751	-52.981100	-69.578220	-11.442991
44975	9.139796	-2.742547	2.029301	0.001412	0.002183	0.006075	-52.983446	-69.575312	-11.438924
44976	9.129556	-2.721564	2.054730	0.000680	0.006386	0.008387	-52.982539	-69.569946	-11.439211
44977	9.129307	-2.722023	2.055228	0.002623	0.003544	0.002396	-52.979068	-69.568278	-11.442871
44978	9.175606	-2.710413	2.063901	0.002380	0.008723	0.010625	-52.976391	-69.561081	-11.444007
44979	9.134962	-2.746823	2.055545	0.005689	0.002731	0.006319	-52.975661	-69.557834	-11.440551
44980	9.138340	-2.745478	2.031894	0.000973	0.004247	0.008191	-52.977032	-69.553295	-11.438227
44981	9.124441	-2.726393	2.081463	0.005395	0.004871	0.006517	-52.974320	-69.549328	-11.439879
44982	9.127848	-2.724960	2.057816	0.001411	0.002184	0.006076	-52.976013	-69.546469	-11.436944
44983	9.104335	-2.731477	2.054127	0.001262	0.004400	0.004354	-52.974045	-69.543561	-11.437181
44984	9.133797	-2.749266	2.057451	-0.001361	0.000856	0.001956	-52.975143	-69.543044	-11.436576
44985	9.131046	-2.724024	2.034449	0.002772	0.001327	0.004120	-52.975949	-69.541346	-11.434609
44986	9.127227	-2.726339	2.058743	-0.003015	0.003853	0.004110	-52.976312	-69.538811	-11.435800
44987	9.154136	-2.718283	2.038997	0.002279	0.002644	-0.005439	-52.966766	-69.540954	-11.442785
44988	9.137104	-2.747837	2.034264	-0.000583	0.001987	0.004035	-52.967956	-69.539096	-11.441606
44989	9.127035	-2.726404	2.059508	0.000629	0.003347	0.000356	-52.964040	-69.538383	-11.443911
44990	9.126971	-2.726426	2.059763	-0.000293	0.002140	0.000197	-52.961327	-69.538228	-11.446722
44991	9.130565	-2.724512	2.035957	0.000629	0.003347	0.000356	-52.957271	-69.537655	-11.457398
44992	9.133105	-2.750142	2.059355	-0.001654	0.002996	0.002153	-52.956098	-69.536310	-11.459398
44993	9.157318	-2.716883	2.016365	0.005203	-0.000539	0.004046	-52.957543	-69.535254	-11.454696
44994	9.113268	-2.754552	2.031747	0.003835	0.004904	-0.001281	-52.947711	-69.534820	-11.462580
44995	9.136414	-2.748604	2.036326	-0.001170	0.006267	0.004429	-52.944871	-69.531290	-11.469132
44996	9.136184	-2.749004	2.036815	0.001262	0.004400	0.004355	-52.942345	-69.528453	-11.470792
44997	9.149305	-2.721675	2.066350	0.002185	0.005607	0.004515	-52.938697	-69.525032	-11.469058
44998	9.128432	-2.753520	2.085949	0.001407	0.004477	0.002436	-52.934221	-69.523046	-11.472711
44999	9.112236	-2.756086	2.034296	0.002039	0.005531	0.006435	-52.932383	-69.518942	-11.479987
45000	9.155933	-2.719026	2.019765	-0.000099	0.005257	0.006312	-52.931400	-69.514914	-11.480832
45001	9.131293	-2.753142	2.063375	0.004326	0.003587	0.008281	-52.932557	-69.510492	-11.473135
45002	9.128399	-2.728188	2.040740	-0.001170	0.006267	0.004430	-52.929213	-69.506976	-11.477155
45003	9.130836	-2.753989	2.064268	0.001700	0.002337	0.002240	-52.927974	-69.505802	-11.476531
45004	9.124348	-2.730898	2.065453	-0.003306	0.003701	0.007949	-52.932245	-69.501564	-11.473728
45005	9.098224	-2.712114	2.038323	-0.001359	-0.001436	0.005599	-52.940247	-69.500205	-11.469041
45006	9.154677	-2.722022	2.021422	-0.000438	0.002064	0.002117	-52.939490	-69.499199	-11.469853
45007	9.133857	-2.753869	2.040677	-0.000584	0.001987	0.004036	-52.941016	-69.497253	-11.466996
45008	9.104103	-2.736847	2.037641	-0.005006	0.001365	0.005710	-52.947047	-69.494845	-11.463355
45009	9.150580	-2.725147	2.045786	0.000777	0.001130	0.002080	-52.947148	-69.494222	-11.468818
45010	9.127139	-2.731579	2.041839	-0.002868	0.001638	0.005833	-52.951733	-69.491663	-11.465413
45011	9.099987	-2.740119	2.061872	-0.000437	-0.000229	0.005759	-52.957545	-69.489696	-11.458858
45012	9.129407	-2.758119	2.065075	-0.001799	0.002921	0.004074	-52.958324	-69.487499	-11.458863
45013	9.136317	-2.707234	2.095280	0.001555	0.002260	0.004160	-52.958725	-69.485543	-11.462087
45014	9.103134	-2.739469	2.038448	0.002332	0.003390	0.006240	-52.958562	-69.482193	-11.460569
45015	9.145893	-2.729660	2.070916	0.001701	0.002336	0.002241	-52.956779	-69.480946	-11.459592
45016	9.126150	-2.733972	2.043055	-0.001654	0.002998	0.002154	-52.955612	-69.479601	-11.461587
45017	9.099116	-2.742044	2.063153	0.001216	-0.000934	-0.000037	-52.956285	-69.480612	-11.462004
45018	9.128702	-2.759471	2.066385	0.001992	0.002489	-0.001599	-52.950188	-69.481158	-11.467031
45019	9.149334	-2.727944	2.047629	-0.000731	0.004204	0.002314	-52.947964	-69.479388	-11.474722
45020	9.126011	-2.733890	2.043789	0.003646	-0.000508	-0.003753	-52.942595	-69.481953	-11.477961
45021	9.126057	-2.733696	2.043842	-0.001216	0.000934	0.000037	-52.942508	-69.482300	-11.481298
45022	9.118717	-2.737495	2.091947	-0.001993	-0.000196	-0.002043	-52.941565	-69.483976	-11.483261
45023	9.129840	-2.731626	2.019508	-0.001554	-0.004553	-0.000518	-52.947962	-69.486400	-11.475119
45024	9.145851	-2.729421	2.071418	0.001216	-0.000934	-0.000037	-52.947935	-69.487413	-11.474141
45025	9.118867	-2.737471	2.091329	-0.001069	-0.001283	0.001760	-52.951706	-69.487685	-11.471869
45026	9.119962	-2.710192	2.043878	0.000439	-0.004357	0.001525	-52.957749	-69.489165	-11.464885
45027	9.132538	-2.757425	2.041780	-0.002139	-0.000273	-0.000123	-52.959557	-69.490024	-11.467949
45028	9.152074	-2.753626	2.069878	-0.002868	0.001638	0.005834	-52.964141	-69.487464	-11.464546
45029	9.126080	-2.734503	2.042658	0.003501	-0.002878	0.001809	-52.967628	-69.488366	-11.463550
45030	9.099001	-2.742721	2.062762	-0.000876	0.004127	0.004234	-52.966552	-69.485680	-11.464971
45031	9.145443	-2.731005	2.071131	0.002770	0.001326	0.004124	-52.967231	-69.483993	-11.465184
45032	9.122027	-2.737213	2.067343	0.000631	0.003346	0.000358	-52.962671	-69.483349	-11.469404
45033	9.131897	-2.758957	2.042578	0.000777	0.001130	0.002080	-52.963142	-69.482551	-11.463291
45034	9.121823	-2.737476	2.067894	0.003547	0.004749	0.002562	-52.957232	-69.480414	-11.467169
45035	9.121714	-2.737568	2.068253	-0.000292	0.002140	0.000197	-52.955162	-69.480230	-11.470003
45036	9.098351	-2.743814	2.064176	-0.003353	-0.001631	0.003556	-52.961918	-69.479841	-11.464577
45037	9.121666	-2.737887	2.068044	-0.000777	-0.001130	-0.002081	-52.961850	-69.481713	-11.460025
45038	9.125387	-2.735872	2.043924	0.000000	0.000000	-0.000000	-52.961413	-69.482387	-11.460228
45039	9.121731	-2.737711	2.067987	0.000146	0.000076	-0.001920	-52.959636	-69.483863	-11.460826
45040	9.121772	-2.737548	2.068024	-0.001070	0.001010	-0.001883	-52.956840	-69.485050	-11.464202
45041	9.121849	-2.737203	2.068139	0.001361	0.001435	-0.005600	-52.949027	-69.487712	-11.472501
45042	9.151543	-2.754386	2.071213	-0.001701	-0.002336	-0.002241	-52.950352	-69.490217	-11.471863
45043	9.098791	-2.742614	2.063832	0.000584	-0.001987	-0.004037	-52.948867	-69.493405	-11.474246
45044	9.122213	-2.736220	2.067835	-0.000924	0.001087	-0.003803	-52.944119	-69.495443	-11.479616
45045	9.149300	-2.727893	2.047849	0.001507	-0.000781	-0.003877	-52.940714	-69.498163	-11.485349
45046	9.122391	-2.735674	2.067775	-0.000923	-0.001206	-0.000160	-52.942132	-69.499327	-11.484136
45047	9.149431	-2.727539	2.047735	-0.000924	0.001087	-0.003803	-52.938097	-69.501326	-11.487499
45048	9.126253	-2.733137	2.043713	0.001653	-0.000704	-0.005796	-52.932219	-69.504894	-11.492500
45049	9.139728	-2.705079	2.072680	-0.000777	-0.001130	-0.002080	-52.932087	-69.506876	-11.495111
45050	9.157108	-2.722687	1.999518	0.000146	0.000076	-0.001920	-52.929698	-69.508402	-11.497309
45051	9.109160	-2.714813	2.116555	-0.001992	-0.002489	0.001599	-52.935442	-69.509178	-11.493423
45052	9.099542	-2.740765	2.062975	-0.004761	-0.006108	0.001118	-52.946240	-69.511450	-11.484545
45053	9.126715	-2.732693	2.042242	-0.001893	-0.007746	-0.004715	-52.952536	-69.516884	-11.478033
45054	9.133255	-2.755965	2.040543	-0.002038	-0.007823	-0.002795	-52.960263	-69.521536	-11.470770
45055	9.180094	-2.743518	2.048084	-0.003548	-0.002456	-0.006203	-52.959380	-69.525718	-11.467775
45056	9.150625	-2.725682	2.044873	-0.002286	0.001944	-0.001846	-52.956165	-69.526565	-11.472341
45057	9.109986	-2.713831	2.114259	0.000483	0.005563	-0.001365	-52.947878	-69.525937	-11.483109
45058	9.117298	-2.709988	2.066262	-0.001991	-0.002489	0.001599	-52.953110	-69.526740	-11.478480
45059	9.103992	-2.737975	2.036623	-0.007968	-0.007665	0.002755	-52.969672	-69.528802	-11.468198
45060	9.147025	-2.728017	2.068082	-0.001553	-0.004553	-0.000518	-52.975226	-69.531284	-11.462957
45061	9.123873	-2.733901	2.063576	-0.004617	-0.003739	-0.004443	-52.978151	-69.535142	-11.459763
45062	9.154755	-2.723578	2.018971	-0.005395	-0.004868	-0.006522	-52.980744	-69.540479	-11.460032
45063	9.101057	-2.738989	2.058648	-0.003696	-0.000238	-0.007924	-52.976214	-69.544860	-11.467103
45064	9.128277	-2.730261	2.038513	-0.003551	-0.000161	-0.009843	-52.968904	-69.550093	-11.476814
45065	9.125017	-2.730996	2.062363	-0.001461	-0.002927	-0.017756	-52.957107	-69.559924	-11.493972
45066	9.152495	-2.721584	2.041959	-0.002675	-0.004288	-0.014076	-52.950425	-69.568515	-11.502476
45067	9.142984	-2.698909	2.066353	-0.004810	-0.006855	-0.010556	-52.952083	-69.576386	-11.504893
45068	9.153327	-2.719736	2.040693	-0.001894	-0.005452	-0.008354	-52.951682	-69.582762	-11.506218
45069	9.157274	-2.717071	2.016312	-0.000343	-0.000898	-0.007837	-52.945574	-69.587255	-11.512771
45070	9.143845	-2.696790	2.065309	-0.001704	-0.000042	-0.005880	-52.940709	-69.590632	-11.518741
45071	9.130657	-2.724066	2.036140	-0.002771	-0.001326	-0.004120	-52.940580	-69.593702	-11.523298
45072	9.133521	-2.749290	2.058646	-0.000526	-0.010896	-0.003028	-52.951028	-69.599523	-11.512211
45073	9.154351	-2.717513	2.039057	-0.003210	0.000736	-0.002004	-52.950277	-69.600855	-11.515757
45074	9.127566	-2.725186	2.058765	-0.000823	-0.006462	-0.006471	-52.952251	-69.606719	-11.513893
45075	9.152086	-2.691199	2.015295	-0.001849	-0.000119	-0.003960	-52.949690	-69.609187	-11.518111
45076	9.127925	-2.724481	2.058107	-0.002329	-0.005683	-0.002595	-52.955169	-69.613010	-11.513427
45077	9.131704	-2.722439	2.033621	-0.001845	-0.002414	-0.000319	-52.959059	-69.614612	-11.509000
45078	9.131782	-2.722343	2.033397	0.000438	-0.002063	-0.002116	-52.958943	-69.616966	-11.508593
45079	9.151543	-2.717944	2.061344	-0.000633	-0.001052	-0.003998	-52.956880	-69.619751	-11.510239
45080	9.124714	-2.725678	2.081201	0.001655	-0.002995	-0.002154	-52.957181	-69.622444	-11.508644
45081	9.155472	-2.715319	2.036947	-0.000489	-0.000975	-0.005916	-52.953352	-69.626093	-11.511870
45082	9.132415	-2.720919	2.032459	-0.000674	-0.008679	-0.004749	-52.959577	-69.631934	-11.505380
45083	9.122711	-2.698833	2.056950	-0.001411	-0.002182	-0.006075	-52.957698	-69.636093	-11.506741
45084	9.139244	-2.743460	2.030554	-0.000823	-0.006462	-0.006470	-52.959679	-69.641956	-11.504869
45085	9.133244	-2.719260	2.030955	-0.003111	-0.004519	-0.008312	-52.959438	-69.647921	-11.504891
45086	9.133508	-2.718649	2.030587	-0.001411	-0.002182	-0.006075	-52.956848	-69.652126	-11.508254
45087	9.130045	-2.720167	2.054405	-0.001556	-0.002259	-0.004156	-52.956618	-69.655352	-11.505165
45088	9.127493	-2.694388	2.031116	-0.000778	-0.001130	-0.002078	-52.956086	-69.657367	-11.505945
45089	9.154504	-2.686311	2.010826	-0.007338	-0.002031	-0.000523	-52.962575	-69.658953	-11.502959
45090	9.160853	-2.710017	2.009534	-0.001989	-0.002492	0.001600	-52.967842	-69.659756	-11.498294
45091	9.154571	-2.686645	2.010077	-0.003833	-0.004906	0.001282	-52.977336	-69.661488	-11.490375
45092	9.136594	-2.744154	2.051850	-0.003493	-0.001714	0.005476	-52.986113	-69.660249	-11.482887
45093	9.110596	-2.725096	2.024326	-0.003833	-0.004906	0.001282	-52.995499	-69.661951	-11.473996
45094	9.176895	-2.709022	2.059996	-0.004127	-0.002766	0.001479	-53.002220	-69.662902	-11.469088
45095	9.133959	-2.719333	2.027640	-0.000922	-0.001207	-0.000159	-53.004383	-69.664078	-11.468332
45096	9.097139	-2.705677	2.072483	-0.000484	-0.003269	-0.002275	-53.006146	-69.666920	-11.466485
