// General information: 
//  MT Manager version: 2022.2.0 
//  XDA version: 2022.2.0 build 7381 rev 124627 built on 2023-07-19
// Device information: 
//  DeviceId: 00B4BB4E
//  ProductCode: MTW2-3A7G6
//  Firmware Version: 4.6.0
//  Hardware Version: 2.0.0
// Device settings: 
//  Filter Profile: human(46.1)
//  Option Flags: Orientation Smoother Disabled, Position/Velocity Smoother Disabled, Continuous Zero Rotation Update Disabled, AHS Disabled, ICC Disabled
// Coordinate system: ENU
PacketCounter	Acc_X	Acc_Y	Acc_Z	Gyr_X	Gyr_Y	Gyr_Z	Roll	Pitch	Yaw
40754	9.694602	0.573245	-0.282078	0.073535	-0.015245	-0.010804	164.821400	-85.585109	-153.525217
40755	9.741672	0.491982	-0.361168	-0.015362	-0.018812	-0.003846	164.871828	-85.573586	-153.583770
40756	9.797989	0.555517	-0.673044	-0.114914	-0.030952	-0.001479	164.902957	-85.555886	-153.680119
40757	9.742124	0.445187	-1.014765	-0.178440	-0.040471	-0.008039	164.870855	-85.531759	-153.749605
40758	9.699839	0.147455	-1.233800	-0.171356	-0.035629	-0.016567	164.771414	-85.509218	-153.747428
40759	9.613898	-0.212941	-1.076184	-0.136559	-0.036608	-0.018944	164.679511	-85.485570	-153.732858
40760	9.604957	-0.373232	-0.830347	-0.069009	-0.031251	-0.014949	164.642439	-85.465693	-153.734421
40761	9.641156	-0.212225	-0.649637	-0.027023	-0.044400	-0.009520	164.694454	-85.439161	-153.801279
40762	9.639309	0.069223	-0.656601	-0.015650	-0.038301	-0.007758	164.750684	-85.416472	-153.865772
40763	9.655624	0.295706	-0.648939	-0.021979	-0.050495	-0.010463	164.809311	-85.386428	-153.936377
40764	9.695815	0.501468	-0.628379	-0.071267	-0.051902	-0.009421	164.846197	-85.355959	-154.013439
40765	9.605521	0.513777	-0.721940	-0.116889	-0.057361	0.003585	164.956479	-85.324205	-154.190429
40766	9.598846	0.513452	-0.760386	-0.108225	-0.048513	0.013940	165.121405	-85.299045	-154.417213
40767	9.581380	0.411149	-0.760674	-0.175892	-0.055211	0.013369	165.255518	-85.269837	-154.652041
40768	9.711936	0.195037	-0.806264	-0.212450	-0.057512	0.015674	165.383847	-85.239850	-154.902043
40769	9.734001	0.046323	-0.955580	-0.242569	-0.054678	0.017807	165.503777	-85.211488	-155.160992
40770	9.652627	-0.288742	-0.944744	-0.217530	-0.044215	0.004542	165.528856	-85.187213	-155.310321
40771	9.701269	-0.486630	-0.906476	-0.145728	-0.047298	-0.003956	165.545673	-85.159790	-155.410136
40772	9.694717	-0.183942	-0.821534	-0.062529	-0.039495	-0.002237	165.605443	-85.137153	-155.505164
40773	9.520917	0.338082	-0.756188	-0.037067	-0.044194	0.001582	165.714101	-85.112226	-155.634690
40774	9.452733	0.822178	-0.764472	-0.080777	-0.068875	0.009162	165.883184	-85.074840	-155.849935
40775	9.706244	0.971890	-0.765516	-0.176283	-0.076063	0.018363	166.067330	-85.034463	-156.135297
40776	9.812224	0.900090	-0.808310	-0.298396	-0.059692	0.026849	166.204429	-85.004506	-156.443619
40777	9.777880	0.343968	-0.880492	-0.372278	-0.056758	0.027678	166.299006	-84.976012	-156.751803
40778	9.766626	-0.092382	-0.941095	-0.384315	-0.046981	0.027464	166.366693	-84.953124	-157.039889
40779	9.714615	-0.643349	-0.981349	-0.348162	-0.052767	0.019065	166.411028	-84.925622	-157.283789
40780	9.818497	-0.921434	-0.855315	-0.194434	-0.039298	0.022578	166.541938	-84.906295	-157.526146
40781	9.851900	-0.806162	-0.917110	-0.074097	-0.036651	0.019664	166.720488	-84.887775	-157.747186
40782	9.874360	-0.302830	-0.861188	-0.002059	-0.032221	0.012841	166.887708	-84.871001	-157.915349
40783	9.761558	0.396869	-1.019848	-0.010144	-0.025741	0.002576	166.979081	-84.856261	-158.012101
40784	9.708544	0.755050	-1.214215	-0.081552	-0.013891	-0.012802	166.914204	-84.846362	-157.992964
40785	9.619592	0.808254	-1.196143	-0.201339	-0.018830	-0.012997	166.789408	-84.833439	-157.982654
40786	9.644327	0.510745	-1.191387	-0.269043	-0.018167	-0.019682	166.581561	-84.820240	-157.927825
40787	9.692257	0.349560	-1.188312	-0.237427	-0.013540	-0.012099	166.434443	-84.810349	-157.915850
40788	9.604653	0.351291	-1.119384	-0.280476	-0.024982	-0.014226	166.264677	-84.794064	-157.905835
40789	9.794523	0.130991	-0.866913	-0.288556	-0.029099	-0.018913	166.070737	-84.774555	-157.876255
40790	9.873721	0.069366	-1.045031	-0.250159	-0.010538	-0.007203	165.940263	-84.767268	-157.888253
40791	9.719187	0.081086	-1.066990	-0.228678	0.008494	-0.002708	165.822834	-84.770894	-157.901055
40792	9.571281	0.213702	-1.031267	-0.190984	0.011754	-0.010316	165.673363	-84.775553	-157.859930
40793	9.574346	0.357220	-1.130020	-0.226873	0.006960	-0.005276	165.543670	-84.777955	-157.859380
40794	9.683578	0.288157	-1.029712	-0.298254	0.012032	0.000868	165.399900	-84.784358	-157.885698
40795	9.822277	-0.099902	-1.021170	-0.319186	0.017278	0.000200	165.233978	-84.793256	-157.901877
40796	9.936098	-0.430602	-1.058877	-0.267675	0.031405	0.001946	165.082763	-84.810559	-157.903124
40797	9.865668	-0.416634	-1.041478	-0.185432	0.045949	-0.000563	164.941883	-84.835217	-157.867510
40798	9.770676	-0.240894	-1.026291	-0.101028	0.054880	-0.015220	164.740769	-84.862931	-157.722788
40799	9.741659	0.079787	-0.926350	-0.067229	0.063724	-0.023343	164.495216	-84.893921	-157.514104
40800	9.726790	0.402641	-1.004257	-0.100275	0.064560	-0.021306	164.235740	-84.925927	-157.310370
40801	9.637493	0.717280	-0.943951	-0.118760	0.069961	-0.022988	163.945931	-84.960228	-157.086917
40802	9.585392	0.780136	-0.870491	-0.169506	0.051726	-0.018597	163.680989	-84.985430	-156.917535
40803	9.645507	0.790130	-0.823020	-0.264722	0.033525	-0.020768	163.382625	-84.999861	-156.769448
40804	9.848989	0.704578	-0.739229	-0.290239	0.032799	-0.006686	163.155140	-85.016499	-156.707113
40805	9.820405	0.451568	-0.798169	-0.341379	0.039894	0.002173	162.942299	-85.038134	-156.688953
40806	9.858375	-0.004947	-0.868087	-0.327228	0.038778	0.006026	162.760392	-85.060153	-156.693642
40807	9.842109	-0.227059	-0.894853	-0.244629	0.049219	0.013175	162.652721	-85.088751	-156.725404
40808	9.727814	-0.166907	-1.005393	-0.192048	0.042544	0.010947	162.571109	-85.113674	-156.753020
40809	9.709759	0.096023	-0.924492	-0.155977	0.044175	0.013345	162.525264	-85.139550	-156.795864
40810	9.653756	0.441027	-0.970256	-0.158227	0.036219	0.013059	162.489220	-85.161384	-156.849761
40811	9.617548	0.656600	-0.941166	-0.207667	0.040524	0.016945	162.444511	-85.185880	-156.923465
40812	9.563938	0.788808	-0.931815	-0.253836	0.045515	0.015776	162.352237	-85.213270	-156.975903
40813	9.522823	0.933744	-0.869859	-0.321333	0.037830	0.024551	162.297445	-85.237612	-157.104822
40814	9.569691	1.084659	-0.875899	-0.399413	0.030465	0.037998	162.299227	-85.260667	-157.335333
40815	9.594621	1.043816	-0.841643	-0.496218	0.023485	0.042475	162.293154	-85.280280	-157.613652
40816	9.650347	0.735644	-0.822945	-0.614764	0.008108	0.047453	162.283184	-85.292785	-157.956166
40817	9.814542	-0.012564	-0.805966	-0.689298	-0.006042	0.050878	162.285617	-85.297731	-158.353994
40818	9.917281	-0.588637	-0.855405	-0.565769	0.014509	0.058791	162.367125	-85.315683	-158.760117
40819	9.787055	-0.741394	-0.885605	-0.432995	0.019762	0.063640	162.550414	-85.336838	-159.192061
40820	9.614891	-0.473683	-0.820937	-0.308090	0.017792	0.047825	162.703562	-85.354535	-159.521910
40821	9.672085	0.078524	-0.833340	-0.289905	-0.006937	0.044317	162.899333	-85.357602	-159.884127
40822	9.764907	0.455056	-0.908620	-0.332758	-0.011536	0.047338	163.097882	-85.358973	-160.273701
40823	9.801471	0.560935	-0.811691	-0.377972	-0.003340	0.046960	163.254348	-85.364249	-160.647106
40824	9.796301	0.348370	-0.801812	-0.416907	0.007992	0.045983	163.356889	-85.375946	-160.988724
40825	9.749220	0.215456	-0.809439	-0.456082	0.005598	0.050885	163.478835	-85.386635	-161.372379
40826	9.685719	0.123331	-0.685385	-0.439456	-0.000620	0.046825	163.593607	-85.393625	-161.739219
40827	9.727257	-0.096683	-0.690571	-0.423805	-0.007351	0.046520	163.731855	-85.396359	-162.120670
40828	9.790990	-0.184188	-0.805611	-0.395361	-0.002127	0.050686	163.902474	-85.402992	-162.518186
40829	9.807906	-0.322679	-0.866910	-0.346964	0.001078	0.046548	164.069773	-85.410205	-162.884617
40830	9.825761	-0.400952	-0.847376	-0.256918	0.013988	0.044144	164.245296	-85.424507	-163.207467
40831	9.835497	-0.416628	-1.028296	-0.181376	0.025099	0.044162	164.447778	-85.444423	-163.514017
40832	9.848570	-0.272459	-0.950260	-0.100646	0.040222	0.039761	164.636050	-85.472370	-163.759818
40833	9.951776	-0.176607	-0.768460	0.116325	0.089932	0.038825	164.854180	-85.527144	-163.910955
40834	9.542075	0.061774	-0.966765	-0.198450	0.015666	0.045418	165.080083	-85.542198	-164.250683
40835	9.614630	0.048881	-0.852596	0.001612	0.080777	0.035096	165.230776	-85.591263	-164.400098
40836	9.488284	0.294462	-0.549941	-0.059681	0.044729	0.025355	165.343045	-85.619357	-164.546082
40837	9.704606	0.154642	-0.858004	-0.127362	0.041096	0.023010	165.411988	-85.644630	-164.687608
40838	9.805703	0.133789	-0.840071	-0.179788	0.042863	0.020609	165.426942	-85.670978	-164.805002
40839	9.769722	-0.127510	-0.820488	-0.175080	0.046053	0.013123	165.388367	-85.697558	-164.866113
40840	9.745836	-0.300982	-0.806337	-0.158353	0.049623	0.001913	165.265241	-85.724954	-164.832714
40841	9.739306	-0.313577	-0.945641	-0.123417	0.047668	-0.000559	165.151308	-85.750442	-164.788583
40842	9.687074	-0.220600	-0.897688	-0.071314	0.046671	-0.004363	165.035108	-85.775268	-164.712125
40843	9.735454	-0.068704	-0.892768	-0.017220	0.052620	-0.010280	164.897461	-85.802031	-164.583220
40844	9.766302	0.041190	-0.819953	0.003524	0.062172	-0.010201	164.745554	-85.834526	-164.427972
40845	9.778927	0.109608	-0.804059	0.003513	0.063938	-0.013657	164.566722	-85.866972	-164.245878
40846	9.761864	0.207621	-0.830761	-0.007167	0.067697	-0.015994	164.347099	-85.901554	-164.028893
40847	9.750826	0.240518	-0.780307	-0.016643	0.079770	-0.015786	164.099112	-85.942288	-163.789065
40848	9.727287	0.107916	-0.791956	-0.031389	0.081688	-0.020704	163.788846	-85.983687	-163.495145
40849	9.769183	0.049653	-0.784398	-0.018331	0.079086	-0.021200	163.488089	-86.022987	-163.203412
40850	9.716496	0.045046	-0.785968	-0.013992	0.084568	-0.021041	163.165786	-86.065685	-162.887464
40851	9.646130	0.077107	-0.653137	0.015156	0.085085	-0.024367	162.831739	-86.107506	-162.543166
40852	9.676243	0.089450	-0.631026	0.023858	0.074372	-0.019865	162.552658	-86.144584	-162.248834
40853	9.771526	0.175709	-0.589887	0.028652	0.074014	-0.020327	162.274753	-86.180817	-161.953085
40854	9.724638	0.302699	-0.534625	0.028630	0.072265	-0.016906	162.017307	-86.217074	-161.677722
40855	9.707303	0.360871	-0.532606	0.008770	0.066513	-0.010427	161.819775	-86.250814	-161.473958
40856	9.749142	0.340982	-0.554903	-0.022049	0.063524	-0.009111	161.613175	-86.283579	-161.278669
40857	9.749835	0.302696	-0.644672	-0.049123	0.059646	-0.004583	161.443509	-86.314556	-161.136080
40858	9.744711	0.230519	-0.739474	-0.052315	0.061625	-0.000533	161.291112	-86.347783	-161.012495
40859	9.757110	0.179882	-0.762179	-0.049636	0.062872	0.001157	161.155579	-86.381510	-160.904411
40860	9.745939	0.152195	-0.794698	-0.032817	0.058493	0.005688	161.072532	-86.414158	-160.839130
40861	9.740595	0.137733	-0.808368	-0.010889	0.055597	0.010878	161.061969	-86.445718	-160.834025
40862	9.735561	0.162003	-0.850506	0.020771	0.060641	0.019704	161.124700	-86.482130	-160.884041
40863	9.741493	0.251996	-0.758107	0.057425	0.058489	0.024707	161.268399	-86.517797	-160.994274
40864	9.699935	0.348543	-0.656688	0.072418	0.060229	0.027273	161.433617	-86.555358	-161.117317
40865	9.711833	0.352595	-0.598127	0.078601	0.063896	0.042477	161.741015	-86.597122	-161.379376
40866	9.705348	0.333539	-0.487328	0.066983	0.055914	0.048915	162.124856	-86.636101	-161.724532
40867	9.706028	0.348041	-0.495974	0.051271	0.065139	0.053714	162.533412	-86.680289	-162.103579
40868	9.717602	0.330375	-0.422608	0.022624	0.065753	0.064135	163.026563	-86.726929	-162.583654
40869	9.777222	0.245913	-0.439663	-0.010322	0.064416	0.067469	163.558305	-86.772612	-163.121394
40870	9.767105	0.172626	-0.568117	-0.024088	0.054629	0.061262	164.056329	-86.812170	-163.633112
40871	9.790754	0.025412	-0.591230	-0.013073	0.058900	0.052645	164.482137	-86.851982	-164.066290
40872	9.807491	-0.095818	-0.537554	-0.012005	0.059425	0.048972	164.873486	-86.891890	-164.464202
40873	9.737053	-0.267088	-0.638599	0.002118	0.055542	0.048396	165.295272	-86.928873	-164.884608
40874	9.702061	-0.295937	-0.667333	0.034723	0.053232	0.047456	165.734918	-86.964806	-165.304046
40875	9.691195	-0.308884	-0.714534	0.084272	0.059610	0.046920	166.199162	-87.003490	-165.719817
40876	9.608828	-0.231639	-0.680831	0.125509	0.063066	0.034981	166.552825	-87.042875	-166.001039
40877	9.679109	-0.207374	-0.592131	0.155347	0.058674	0.033983	166.941408	-87.079030	-166.300256
40878	9.636795	-0.130769	-0.476526	0.184235	0.066910	0.032354	167.307601	-87.120034	-166.560315
40879	9.633061	0.028851	-0.494939	0.179781	0.060632	0.033777	167.721278	-87.157053	-166.870626
40880	9.729605	0.167796	-0.498481	0.139224	0.048045	0.034801	168.153622	-87.187589	-167.222720
40881	9.766864	0.167100	-0.570757	0.096218	0.031696	0.043878	168.722003	-87.209272	-167.735840
40882	9.868723	0.200673	-0.594667	0.095481	0.037459	0.039878	169.229630	-87.234090	-168.188384
40883	9.919047	0.187965	-0.722140	0.075730	0.078702	0.030521	169.544047	-87.280408	-168.458973
40884	9.833044	0.113479	-0.852961	0.075297	0.108058	0.023090	169.704558	-87.343033	-168.575562
40885	9.816958	0.068677	-0.900213	0.087215	0.099680	0.015066	169.807435	-87.399496	-168.627776
40886	9.844552	-0.021488	-0.802145	0.145650	0.109501	0.017507	169.946402	-87.462348	-168.682438
40887	9.820505	-0.060137	-0.758251	0.169399	0.102450	0.025712	170.237631	-87.521379	-168.876050
40888	9.890662	-0.034649	-0.664842	0.230153	0.113467	0.025210	170.533830	-87.587184	-169.039622
40889	9.812488	-0.061374	-0.362446	0.258896	0.123555	0.019828	170.773847	-87.657496	-169.130642
40890	9.693969	-0.206076	-0.178032	0.257781	0.122547	0.029383	171.150473	-87.728741	-169.358846
40891	9.689456	-0.304195	-0.250114	0.251918	0.115714	0.029890	171.578016	-87.795440	-169.641533
40892	9.691699	-0.249127	-0.282742	0.249977	0.114892	0.019767	171.862098	-87.861424	-169.781580
40893	9.725445	-0.125069	-0.345862	0.214698	0.106339	0.016317	172.117320	-87.921612	-169.913153
40894	9.758993	-0.120427	-0.444786	0.179005	0.103622	0.013413	172.308620	-87.980657	-170.001038
40895	9.886780	-0.270203	-0.579225	0.155050	0.098463	0.007649	172.424899	-88.035681	-170.027776
40896	9.891974	-0.376437	-0.742243	0.150285	0.109435	0.008643	172.519723	-88.097654	-170.035588
40897	9.752802	-0.397594	-0.802221	0.192089	0.106555	0.006660	172.630563	-88.157180	-170.035661
40898	9.683243	-0.368727	-0.636188	0.275552	0.110278	0.000683	172.658640	-88.219048	-169.904885
40899	9.700944	-0.308101	-0.582983	0.374796	0.112393	0.006495	172.864984	-88.281856	-169.895786
40900	9.750681	-0.158332	-0.258678	0.457602	0.123399	0.003051	173.012577	-88.351372	-169.780235
40901	9.722069	-0.027319	0.072537	0.490388	0.121322	-0.000868	173.126916	-88.418749	-169.612849
40902	9.608681	0.149886	0.295761	0.473073	0.120987	0.004048	173.312853	-88.486976	-169.526796
40903	9.578433	0.241344	0.337763	0.410657	0.104951	0.007782	173.615838	-88.545673	-169.593824
40904	9.523553	0.415481	0.285008	0.321039	0.090457	0.012599	174.006688	-88.597057	-169.799887
40905	9.468200	0.523566	-0.040247	0.172860	0.056886	0.014091	174.472451	-88.628735	-170.166014
40906	9.571765	0.553848	-0.222042	0.069082	0.021749	0.015422	174.982381	-88.640979	-170.635588
40907	9.704812	0.298305	-0.211757	0.057273	0.023875	0.013877	175.473983	-88.653646	-171.093784
40908	9.555294	-0.050760	-0.139338	0.071504	0.035589	0.003246	175.678720	-88.673091	-171.256688
40909	9.501994	-0.276182	-0.065001	0.087791	0.040962	0.005572	175.968291	-88.695068	-171.495299
40910	9.554042	-0.167412	-0.003470	0.085545	0.044032	-0.000402	176.086117	-88.719164	-171.563220
40911	9.637084	0.111078	0.071701	0.070042	0.045257	-0.001664	176.186333	-88.743305	-171.622604
40912	9.668127	0.401212	0.119087	0.033349	0.038172	0.002235	176.360901	-88.764142	-171.777191
40913	9.682415	0.506503	0.096403	-0.039892	0.029449	-0.006748	176.294279	-88.779078	-171.732689
40914	9.734238	0.375171	0.096734	-0.128295	0.025513	-0.019585	175.811730	-88.791831	-171.322647
40915	9.763830	0.243269	-0.057355	-0.186841	0.036120	-0.012173	175.487563	-88.810352	-171.104743
40916	9.713216	0.209711	-0.366167	-0.258942	0.025186	-0.009167	175.200476	-88.823295	-170.965080
40917	9.881441	0.137190	-0.672985	-0.301490	0.010397	-0.002870	175.117022	-88.827538	-171.053637
40918	9.898551	0.018663	-0.932877	-0.292957	0.001060	0.004542	175.246525	-88.827358	-171.350146
40919	9.904300	-0.405407	-0.912477	-0.193932	0.005980	0.005063	175.456971	-88.829389	-171.671027
40920	9.941777	-0.821005	-0.683120	0.036891	0.046801	0.003721	175.655530	-88.855262	-171.847576
40921	9.873608	-0.969338	-0.281202	0.247958	0.085037	-0.002429	175.744746	-88.902058	-171.793986
40922	9.685309	-0.816821	-0.019271	0.357766	0.091661	-0.005579	175.760356	-88.953156	-171.603670
40923	9.569737	-0.317254	0.164895	0.410642	0.073186	0.000031	176.057273	-88.993296	-171.664614
40924	9.484072	0.170458	0.215863	0.319276	0.052423	0.005607	176.516333	-89.022406	-171.939875
40925	9.576851	0.557339	0.230085	0.203956	0.030214	0.010065	177.156608	-89.038295	-172.462658
40926	9.662546	0.693041	0.322998	0.076770	0.032744	-0.004617	177.196830	-89.055777	-172.457985
40927	9.701023	0.553137	0.237418	-0.048095	0.032986	-0.015014	176.827745	-89.072510	-172.115690
40928	9.559458	0.235300	0.155337	-0.189912	0.021571	-0.024485	176.019836	-89.082890	-171.415593
40929	9.511727	-0.178114	-0.037567	-0.266349	0.004725	-0.025863	175.181149	-89.082884	-170.728689
40930	9.553885	-0.458821	-0.108871	-0.229963	-0.020602	-0.029466	174.294346	-89.068605	-169.972639
40931	9.599949	-0.543519	-0.214525	-0.156475	-0.028591	-0.025535	173.671069	-89.049335	-169.438205
40932	9.657902	-0.440020	-0.284247	-0.079461	-0.037659	-0.022723	173.214861	-89.025516	-169.026559
40933	9.731875	-0.230842	-0.186905	-0.019584	-0.037797	-0.026962	172.707633	-89.000752	-168.529769
40934	9.710266	0.073542	-0.172273	-0.035097	-0.036573	-0.028286	172.137024	-88.977010	-167.978275
40935	9.653797	0.212720	-0.206424	-0.060573	-0.037648	-0.032461	171.484246	-88.951723	-167.359377
40936	9.607192	0.163793	-0.123110	-0.091989	-0.049343	-0.033049	170.851892	-88.920125	-166.778720
40937	9.702832	0.071674	-0.044904	-0.102153	-0.045195	-0.026654	170.443592	-88.890884	-166.428171
40938	9.718667	-0.001802	-0.024782	-0.107988	-0.046637	-0.014609	170.372256	-88.862434	-166.417798
40939	9.699954	0.018717	-0.007265	-0.088710	-0.045270	-0.017130	170.265105	-88.834045	-166.360733
40940	9.631184	0.088646	-0.047943	-0.096262	-0.049549	-0.011356	170.306711	-88.804266	-166.456606
40941	9.576928	0.184260	-0.017812	-0.121415	-0.058990	-0.010659	170.417059	-88.768762	-166.635830
40942	9.631562	0.230064	-0.042375	-0.157665	-0.060544	-0.008675	170.531044	-88.733018	-166.839291
40943	9.674017	0.208124	-0.073522	-0.203729	-0.063266	-0.006899	170.688954	-88.695444	-167.113260
40944	9.673952	0.208972	-0.079421	-0.251420	-0.068500	-0.007028	170.802287	-88.655331	-167.369806
40945	9.692917	0.071201	-0.140499	-0.298066	-0.073234	-0.010959	170.825462	-88.611734	-167.563071
40946	9.699668	-0.133610	-0.210078	-0.324541	-0.081196	-0.010575	170.844085	-88.564107	-167.766796
40947	9.747569	-0.259284	-0.258750	-0.317512	-0.078558	-0.017751	170.713294	-88.516883	-167.817199
40948	9.743382	-0.371755	-0.334920	-0.296477	-0.080611	-0.023586	170.461389	-88.468389	-167.734225
40949	9.762589	-0.367440	-0.381334	-0.258144	-0.079748	-0.029625	170.134426	-88.419358	-167.554364
40950	9.717110	-0.298004	-0.427627	-0.224560	-0.079416	-0.033421	169.746031	-88.370533	-167.293622
40951	9.749812	-0.186671	-0.495723	-0.190164	-0.083122	-0.036563	169.368691	-88.318815	-167.024397
40952	9.815220	-0.088686	-0.499489	-0.154976	-0.082031	-0.034884	169.038543	-88.268271	-166.782027
40953	9.829103	0.040824	-0.543957	-0.143378	-0.076382	-0.031926	168.783788	-88.220753	-166.608614
40954	9.864536	0.108146	-0.546928	-0.144335	-0.075757	-0.025623	168.629560	-88.174713	-166.536141
40955	9.864823	0.130299	-0.568636	-0.121094	-0.066273	-0.016044	168.644567	-88.134621	-166.619847
40956	9.846663	0.169414	-0.566484	-0.089073	-0.055270	-0.004282	168.819667	-88.102483	-166.845195
40957	9.859509	0.137615	-0.613293	-0.071033	-0.047523	0.000251	169.066722	-88.074689	-167.132379
40958	9.763970	0.152592	-0.602566	-0.042992	-0.049001	0.008782	169.450256	-88.047409	-167.539871
40959	9.772693	0.260394	-0.504237	-0.025934	-0.052972	0.022484	170.084402	-88.018646	-168.188526
40960	9.758778	0.270695	-0.452393	-0.026089	-0.048470	0.035416	170.880490	-87.993899	-168.999144
40961	9.787866	0.277713	-0.441484	-0.032206	-0.039924	0.039193	171.709295	-87.973378	-169.846187
40962	9.814502	0.087752	-0.406677	-0.064900	-0.038725	0.037270	172.454335	-87.953531	-170.627998
40963	9.856026	-0.076054	-0.458257	-0.067268	-0.037230	0.034831	173.156376	-87.933443	-171.368315
40964	9.802238	-0.224258	-0.494134	-0.052551	-0.033867	0.029423	173.748429	-87.915190	-171.989977
40965	9.753787	-0.357871	-0.510839	-0.025921	-0.033608	0.027385	174.327305	-87.896148	-172.583363
40966	9.690353	-0.397837	-0.405215	0.017322	-0.033540	0.016862	174.744197	-87.876975	-172.989698
40967	9.730298	-0.360469	-0.355067	0.050101	-0.032171	0.013530	175.134497	-87.857712	-173.350815
40968	9.725407	-0.237385	-0.355992	0.060788	-0.032444	0.009065	175.442440	-87.838602	-173.623213
40969	9.696761	-0.109779	-0.353267	0.061139	-0.035897	-0.001141	175.611411	-87.816424	-173.756530
40970	9.729186	-0.002283	-0.415613	0.040376	-0.036905	-0.001410	175.747787	-87.794244	-173.868946
40971	9.703040	0.084673	-0.508141	0.020790	-0.035728	-0.008795	175.775628	-87.771822	-173.884160
40972	9.678411	0.069947	-0.493065	-0.007704	-0.040384	-0.009604	175.765345	-87.747301	-173.877377
40973	9.700083	0.009132	-0.456308	-0.012112	-0.034677	-0.015138	175.681456	-87.725197	-173.799644
40974	9.722989	-0.131882	-0.484533	-0.006001	-0.034414	-0.014708	175.594129	-87.703864	-173.714779
40975	9.733833	-0.101794	-0.449964	0.004627	-0.036412	-0.015707	175.516920	-87.680732	-173.634125
40976	9.753191	-0.079194	-0.506058	-0.004062	-0.035355	-0.023047	175.318383	-87.658467	-173.436845
40977	9.789018	-0.013470	-0.505216	-0.012643	-0.037577	-0.018937	175.192508	-87.634495	-173.317392
40978	9.784484	0.013178	-0.557865	-0.022262	-0.045618	-0.022390	175.011684	-87.606359	-173.148269
40979	9.748261	-0.048288	-0.566586	-0.014553	-0.042832	-0.020105	174.880948	-87.579294	-173.025038
40980	9.757376	-0.075627	-0.488029	-0.002980	-0.034862	-0.026740	174.647038	-87.557027	-172.791717
40981	9.767703	-0.063808	-0.438831	0.000178	-0.038609	-0.027288	174.430927	-87.531936	-172.574582
40982	9.691810	-0.025339	-0.478768	-0.005396	-0.035100	-0.025679	174.218330	-87.509517	-172.363972
40983	9.719337	-0.070471	-0.422744	0.005826	-0.031595	-0.028126	173.993511	-87.488304	-172.134875
40984	9.768946	-0.116926	-0.528840	0.009531	-0.031573	-0.026630	173.779749	-87.467769	-171.914530
40985	9.807925	-0.053818	-0.651473	0.030573	-0.020717	-0.019398	173.672711	-87.453231	-171.789132
40986	9.772868	0.042289	-0.651711	0.048663	-0.020934	-0.020898	173.544323	-87.439072	-171.631798
40987	9.771598	0.124197	-0.588652	0.058434	-0.022358	-0.015511	173.507627	-87.423817	-171.560827
40988	9.753735	0.162786	-0.582317	0.054483	-0.015471	-0.013775	173.466985	-87.413216	-171.487986
40989	9.733407	0.104408	-0.501342	0.042819	-0.011378	-0.014317	173.421402	-87.404273	-171.417072
40990	9.737388	0.061668	-0.439157	0.041442	-0.013729	-0.011686	173.397791	-87.394796	-171.368757
40991	9.741880	0.038235	-0.391892	0.041438	-0.013725	-0.011694	173.388164	-87.384688	-171.334626
40992	9.754497	0.006540	-0.435609	0.028576	-0.021475	-0.007612	173.419364	-87.371070	-171.348560
40993	9.703231	0.077517	-0.507981	0.013883	-0.024844	-0.002138	173.527811	-87.355262	-171.448432
40994	9.727816	0.112767	-0.544387	-0.002346	-0.028162	-0.003742	173.597136	-87.338084	-171.518268
40995	9.734300	0.047363	-0.593035	-0.036278	-0.025099	-0.011496	173.560954	-87.321519	-171.502125
40996	9.739847	-0.056111	-0.611961	-0.037865	-0.026757	-0.015106	173.469565	-87.304408	-171.431444
40997	9.775227	-0.129337	-0.630588	-0.007728	-0.016930	-0.017785	173.363830	-87.292065	-171.329290
40998	9.726078	-0.058833	-0.543968	0.006919	-0.015272	-0.019789	173.227733	-87.281164	-171.188163
40999	9.684467	-0.015814	-0.533171	0.012735	-0.017739	-0.018665	173.126532	-87.268276	-171.078814
41000	9.707061	0.062917	-0.473803	0.008263	-0.013774	-0.020695	172.980429	-87.258136	-170.926895
41001	9.742290	0.109555	-0.456486	-0.008225	-0.018122	-0.025058	172.794417	-87.244549	-170.744652
41002	9.693808	0.080471	-0.419887	-0.039837	-0.011194	-0.019164	172.637426	-87.235945	-170.609421
41003	9.676629	0.020363	-0.463382	-0.055829	-0.020552	-0.025772	172.422576	-87.220874	-170.425617
41004	9.684036	-0.004410	-0.541150	-0.044682	-0.019604	-0.023040	172.233274	-87.207153	-170.260813
41005	9.707286	-0.024843	-0.532604	-0.048953	-0.023390	-0.026600	172.021538	-87.190343	-170.076169
41006	9.716705	-0.070850	-0.437814	-0.038317	-0.024487	-0.029397	171.774619	-87.173279	-169.850022
41007	9.721801	-0.072614	-0.406309	-0.040658	-0.021287	-0.035284	171.469986	-87.156861	-169.567603
41008	9.660047	-0.106813	-0.298760	-0.042238	-0.022074	-0.040648	171.095036	-87.140068	-169.215509
41009	9.693817	-0.135903	-0.222926	-0.026814	-0.023522	-0.043876	170.713079	-87.121448	-168.847725
41010	9.712032	-0.149198	-0.248957	-0.041767	-0.034116	-0.050707	170.257882	-87.096656	-168.414999
41011	9.708126	-0.061437	-0.345472	-0.061805	-0.040915	-0.046885	169.868090	-87.067680	-168.059433
41012	9.663016	0.106349	-0.459123	-0.078061	-0.043366	-0.050278	169.430667	-87.037403	-167.665306
41013	9.687109	0.147212	-0.497421	-0.105025	-0.053484	-0.055223	168.967880	-87.000199	-167.261417
41014	9.698267	0.043096	-0.486122	-0.111757	-0.058353	-0.056038	168.500234	-86.960536	-166.856333
41015	9.764947	-0.055863	-0.589476	-0.124345	-0.061620	-0.056250	168.054991	-86.918317	-166.481051
41016	9.748191	-0.073075	-0.666741	-0.111806	-0.049520	-0.051851	167.632751	-86.883780	-166.121437
41017	9.720710	-0.079730	-0.811099	-0.079905	-0.055329	-0.055053	167.231522	-86.844931	-165.764716
41018	9.775769	-0.048746	-0.944745	-0.043617	-0.045145	-0.057250	166.801073	-86.811864	-165.357727
41019	9.768358	0.003266	-0.887144	-0.001188	-0.034679	-0.059010	166.374523	-86.783689	-164.930457
41020	9.766916	0.108039	-0.839052	0.021466	-0.030913	-0.052443	166.009950	-86.758878	-164.552076
41021	9.777318	0.082741	-0.759245	0.038084	-0.013464	-0.052368	165.631469	-86.743079	-164.150400
41022	9.751300	0.073044	-0.616725	0.053838	-0.005114	-0.048470	165.268482	-86.732873	-163.755019
41023	9.751081	0.057864	-0.602781	0.074050	-0.008586	-0.048682	164.940342	-86.720027	-163.383111
41024	9.707922	0.221573	-0.554511	0.074790	-0.015164	-0.042986	164.673520	-86.704837	-163.072017
41025	9.706618	0.363466	-0.534913	0.056080	-0.023996	-0.033095	164.530247	-86.685664	-162.895589
41026	9.741571	0.449711	-0.548052	0.008645	-0.029066	-0.024039	164.447190	-86.665602	-162.806522
41027	9.759442	0.414591	-0.559485	-0.044350	-0.028955	-0.016779	164.416167	-86.646168	-162.800151
41028	9.745675	0.252677	-0.779697	-0.089881	-0.024428	-0.015248	164.348682	-86.630012	-162.783226
41029	9.801424	0.083132	-0.888083	-0.080526	-0.013876	-0.021538	164.213410	-86.618141	-162.693185
41030	9.731065	-0.081344	-0.868451	-0.038674	-0.006199	-0.027187	164.017130	-86.610154	-162.517849
41031	9.748874	-0.194199	-0.819292	0.034324	-0.007250	-0.022599	163.921996	-86.601714	-162.402102
41032	9.800288	-0.163651	-0.699206	0.100177	0.005752	-0.022587	163.817110	-86.600993	-162.238624
41033	9.749891	0.043326	-0.587467	0.148095	0.008557	-0.017446	163.793474	-86.602049	-162.129204
41034	9.730556	0.258627	-0.585864	0.147526	0.011854	-0.011770	163.799452	-86.606402	-162.049609
41035	9.740505	0.484434	-0.570130	0.113677	0.010609	-0.006289	163.853947	-86.610373	-162.038211
41036	9.687657	0.534943	-0.624133	0.060432	0.007924	0.001728	163.946049	-86.614716	-162.094880
41037	9.670969	0.452338	-0.651157	0.017571	0.002309	0.005913	164.080922	-86.616035	-162.219151
41038	9.683155	0.263662	-0.575332	-0.005593	-0.002611	0.013888	164.276819	-86.616453	-162.417690
41039	9.709921	0.059407	-0.681049	-0.012498	0.000199	0.014722	164.482074	-86.617911	-162.629729
41040	9.698926	0.048880	-0.733692	0.001866	0.000067	0.011639	164.654498	-86.619387	-162.800474
41041	9.691620	0.055196	-0.643024	0.015162	-0.001423	0.013983	164.873266	-86.619745	-163.010174
41042	9.715304	0.031041	-0.632914	0.025521	-0.004339	0.010112	165.056219	-86.618486	-163.177888
41043	9.702201	-0.034853	-0.517028	0.037772	-0.000263	0.003925	165.190901	-86.617928	-163.290373
41044	9.665493	-0.058103	-0.426111	0.042554	-0.000593	0.003471	165.311930	-86.617726	-163.386279
41045	9.642027	0.022439	-0.481266	0.043050	-0.007314	0.004684	165.474089	-86.613353	-163.523246
41046	9.653477	0.147864	-0.518532	0.014018	-0.015950	0.001999	165.601803	-86.604392	-163.642229
41047	9.671597	0.130040	-0.543681	-0.029364	-0.022726	-0.001076	165.704415	-86.590619	-163.761120
41048	9.745748	-0.040928	-0.689174	-0.025870	-0.014943	0.001968	165.805252	-86.582186	-163.876076
41049	9.730375	-0.183738	-0.797614	0.010858	-0.008778	-0.004400	165.866002	-86.575674	-163.929951
41050	9.747096	-0.120939	-0.756068	0.068600	-0.001269	-0.006176	165.912726	-86.573685	-163.936474
41051	9.709196	-0.004467	-0.644414	0.092236	-0.003068	-0.012984	165.927369	-86.569138	-163.897454
41052	9.689743	0.171949	-0.615808	0.082366	-0.006858	-0.007909	165.978825	-86.563802	-163.900816
41053	9.795712	0.129671	-0.551553	0.037720	-0.002089	-0.014435	165.946701	-86.559596	-163.846237
41054	9.826402	0.022861	-0.572233	0.004534	0.006409	-0.018945	165.820814	-86.560090	-163.716611
41055	9.738473	-0.008230	-0.614916	-0.002359	0.010938	-0.021594	165.669258	-86.562103	-163.565389
41056	9.687079	-0.054992	-0.719018	0.002388	0.005301	-0.033367	165.411543	-86.559873	-163.304929
41057	9.650615	-0.035359	-0.657083	0.010894	0.006748	-0.035834	165.146569	-86.557415	-163.032491
41058	9.721986	-0.042283	-0.669837	-0.000560	0.000415	-0.032598	164.907055	-86.552453	-162.791955
41059	9.740252	-0.056545	-0.693104	0.006067	-0.000814	-0.041468	164.607972	-86.544818	-162.488096
41060	9.733100	0.013462	-0.646719	0.033458	0.005355	-0.040717	164.302863	-86.541193	-162.162317
41061	9.678365	0.109359	-0.606190	0.043286	0.005732	-0.038859	164.034347	-86.537386	-161.867710
41062	9.671130	0.237150	-0.604509	0.040066	-0.001035	-0.039124	163.765722	-86.530307	-161.574685
41063	9.693058	0.356409	-0.574077	0.016942	-0.005989	-0.031081	163.585322	-86.521149	-161.383499
41064	9.722215	0.409322	-0.589587	-0.024753	0.000126	-0.031373	163.348611	-86.515837	-161.159649
41065	9.723906	0.273999	-0.609948	-0.060376	-0.003055	-0.033874	163.092311	-86.507736	-160.936791
41066	9.767788	0.137226	-0.672399	-0.048131	0.009811	-0.035784	162.777472	-86.506861	-160.648084
41067	9.727651	0.004102	-0.649558	-0.043630	0.007620	-0.037289	162.472107	-86.503866	-160.366408
41068	9.729583	-0.053300	-0.728783	-0.021841	0.006778	-0.035686	162.182407	-86.501166	-160.087795
41069	9.722237	0.016214	-0.681905	0.009788	0.007181	-0.033947	161.939908	-86.498349	-159.838452
41070	9.762405	0.098082	-0.658440	0.032123	0.010104	-0.030265	161.720369	-86.498281	-159.599154
41071	9.747445	0.272029	-0.594536	0.028931	0.016404	-0.034940	161.453216	-86.500173	-159.314163
41072	9.734328	0.404347	-0.625106	0.025474	0.017368	-0.033652	161.177766	-86.503295	-159.022667
41073	9.774491	0.427903	-0.556272	0.007950	0.018560	-0.024711	160.981872	-86.508087	-158.821155
41074	9.756223	0.409281	-0.501461	-0.017293	0.019479	-0.023285	160.766302	-86.514161	-158.614202
41075	9.727043	0.381077	-0.499225	-0.046530	0.017597	-0.022642	160.558934	-86.518738	-158.432453
41076	9.710754	0.359161	-0.568670	-0.065128	0.020884	-0.015274	160.381325	-86.527016	-158.290992
41077	9.747581	0.325629	-0.613189	-0.092528	0.013797	-0.014342	160.232212	-86.531081	-158.193839
41078	9.755253	0.261544	-0.657789	-0.109300	0.014479	-0.011938	160.078348	-86.536508	-158.101523
41079	9.776079	0.126541	-0.714873	-0.100284	0.019734	-0.012356	159.922274	-86.544117	-158.001928
41080	9.752514	0.092889	-0.678719	-0.076900	0.024912	-0.015840	159.717035	-86.554351	-157.839547
41081	9.758146	0.070170	-0.628019	-0.059082	0.019549	-0.011479	159.591671	-86.561994	-157.747099
41082	9.702893	0.163347	-0.585553	-0.045519	0.021727	-0.011581	159.451447	-86.571321	-157.631841
41083	9.713653	0.232487	-0.575060	-0.048455	0.017699	-0.012580	159.327587	-86.577717	-157.534934
41084	9.660556	0.284289	-0.628052	-0.062298	0.011048	-0.008307	159.242240	-86.581956	-157.484282
41085	9.684371	0.301504	-0.645916	-0.071885	0.009072	-0.002203	159.226850	-86.585831	-157.509247
41086	9.684475	0.282550	-0.630117	-0.075357	0.009168	0.000810	159.222150	-86.590913	-157.546881
41087	9.684629	0.243709	-0.599731	-0.082557	0.007472	0.005807	159.278124	-86.595543	-157.649509
41088	9.719303	0.249156	-0.550328	-0.075907	0.008942	0.013536	159.388970	-86.603072	-157.803209
41089	9.767051	0.222479	-0.543311	-0.076190	0.007952	0.010718	159.491974	-86.608924	-157.949300
41090	9.743377	0.185541	-0.508858	-0.089256	0.006062	0.019821	159.663052	-86.616125	-158.170997
41091	9.780308	0.168656	-0.569313	-0.086345	0.010105	0.020794	159.846053	-86.625078	-158.403033
41092	9.793487	0.116388	-0.596026	-0.091704	0.011072	0.010357	159.914260	-86.633040	-158.523083
41093	9.764380	0.104506	-0.609599	-0.070654	0.011557	0.016825	160.066464	-86.641951	-158.715314
41094	9.716897	0.050957	-0.555863	-0.053331	0.015501	0.014810	160.184129	-86.653136	-158.862880
41095	9.711661	-0.042932	-0.515190	-0.032532	0.015847	0.016768	160.345670	-86.664294	-159.042536
41096	9.664089	0.020877	-0.548688	-0.011997	0.016070	0.014196	160.481402	-86.675625	-159.184473
41097	9.651094	0.090481	-0.533883	-0.007731	0.012001	0.011675	160.624537	-86.683685	-159.331579
41098	9.738717	0.181316	-0.532295	-0.029342	0.004295	0.010038	160.751654	-86.687822	-159.474840
41099	9.738757	0.161041	-0.517154	-0.038949	0.006703	0.007379	160.855076	-86.692176	-159.600029
41100	9.788750	0.074370	-0.591535	-0.040288	0.003435	0.011750	160.995412	-86.696133	-159.762811
41101	9.767260	-0.081095	-0.594721	-0.044559	0.011025	0.007280	161.081411	-86.702786	-159.873744
41102	9.732746	-0.106610	-0.627926	-0.012541	0.005358	0.004205	161.161168	-86.706355	-159.959921
41103	9.695901	-0.052506	-0.594992	0.021351	0.005824	0.000606	161.239805	-86.708937	-160.025631
41104	9.712074	0.068266	-0.595581	0.033620	-0.004041	0.000581	161.342121	-86.706725	-160.107912
41105	9.746666	0.151976	-0.605391	0.029350	0.000910	0.001349	161.448131	-86.706770	-160.196480
41106	9.762817	0.233462	-0.576994	0.013607	0.001254	0.001738	161.533021	-86.707628	-160.272792
41107	9.752084	0.185429	-0.600366	0.004272	0.006414	-0.001614	161.579491	-86.710105	-160.316122
41108	9.728290	0.188705	-0.595672	0.007471	0.001823	-0.000447	161.638506	-86.710869	-160.370037
41109	9.717521	0.121174	-0.604836	0.008270	-0.001287	-0.001690	161.710683	-86.709142	-160.436729
41110	9.733636	0.183364	-0.562107	0.007203	-0.000927	0.000247	161.784707	-86.708526	-160.505832
41111	9.693692	0.124340	-0.600749	0.007203	-0.000927	0.000247	161.873224	-86.707328	-160.589602
41112	9.675256	0.161195	-0.591966	0.010937	-0.000894	0.001768	161.963607	-86.706990	-160.672949
41113	9.722886	0.154319	-0.600731	0.012269	-0.002014	0.006114	162.113798	-86.706213	-160.815653
41114	9.722958	0.232091	-0.659043	0.004000	0.000151	0.006059	162.237669	-86.707176	-160.936524
41115	9.752181	0.261830	-0.658820	-0.008006	-0.001229	0.011465	162.424606	-86.707711	-161.127644
41116	9.739153	0.312260	-0.630844	-0.026412	-0.000401	0.006656	162.538516	-86.708438	-161.255991
41117	9.786755	0.246343	-0.595543	-0.042688	0.004050	0.011081	162.686164	-86.711738	-161.427572
41118	9.741483	0.172358	-0.652484	-0.045626	0.009640	0.012701	162.817319	-86.718951	-161.584218
41119	9.728441	0.163429	-0.579961	-0.034694	0.006987	0.017953	163.027635	-86.724953	-161.813959
41120	9.723144	0.147715	-0.598212	-0.033094	0.010375	0.018111	163.217211	-86.733411	-162.021928
41121	9.770815	0.119644	-0.591437	-0.024565	0.006562	0.026190	163.515573	-86.740431	-162.334016
41122	9.747084	0.120786	-0.586195	-0.035236	0.011980	0.020228	163.722131	-86.750010	-162.560219
41123	9.770956	0.095856	-0.574565	-0.036844	0.016446	0.026193	163.988425	-86.762314	-162.847386
41124	9.717950	0.046793	-0.554438	-0.029635	0.018152	0.021212	164.193674	-86.775343	-163.069058
41125	9.707360	0.036365	-0.605609	-0.025101	0.015951	0.019746	164.408695	-86.786249	-163.298141
41126	9.736583	0.025688	-0.574706	-0.018966	0.015372	0.021934	164.638098	-86.797758	-163.537878
41127	9.707704	0.071753	-0.631796	-0.017106	0.010144	0.022237	164.901561	-86.805725	-163.810701
41128	9.718636	0.117742	-0.606817	-0.017101	0.011907	0.018749	165.112729	-86.814730	-164.031101
41129	9.724127	0.130190	-0.586183	-0.016560	0.017413	0.017365	165.311417	-86.825887	-164.238788
41130	9.700235	0.092510	-0.551444	-0.015767	0.013422	0.017860	165.513067	-86.835517	-164.448885
41131	9.694738	0.037530	-0.540450	-0.018438	0.012161	0.016138	165.714391	-86.843503	-164.660440
41132	9.729512	0.080716	-0.519184	0.001875	0.020943	0.013497	165.865335	-86.856621	-164.809628
41133	9.737288	0.033744	-0.579439	-0.007492	0.012122	0.016183	166.075877	-86.864529	-165.024005
41134	9.753741	0.113738	-0.549431	-0.021649	0.015007	0.018442	166.281071	-86.874965	-165.241019
41135	9.767009	0.100611	-0.605285	-0.030993	0.010594	0.012416	166.445612	-86.881437	-165.422816
41136	9.756336	0.071474	-0.642550	-0.034465	0.012447	0.011932	166.585312	-86.889507	-165.581590
41137	9.703015	0.004092	-0.608877	-0.030195	0.008368	0.009423	166.726540	-86.894281	-165.739597
41138	9.721250	-0.053447	-0.602488	-0.011492	0.011993	0.010113	166.863142	-86.901817	-165.882085
41139	9.731812	-0.065584	-0.533695	0.003750	0.018350	0.008586	166.992886	-86.912004	-166.009075
41140	9.766871	0.017135	-0.541360	0.015476	0.011661	0.014367	167.191374	-86.919859	-166.198063
41141	9.773046	0.128335	-0.593062	0.016828	0.014937	0.010004	167.353294	-86.928276	-166.349846
41142	9.778525	0.141352	-0.572293	0.008550	0.017131	0.009920	167.490577	-86.938576	-166.481511
41143	9.731009	0.146959	-0.562080	-0.003470	0.018425	0.010046	167.634896	-86.948914	-166.627252
41144	9.744060	0.094867	-0.588352	-0.015223	0.021592	0.011220	167.763881	-86.961836	-166.764245
41145	9.714520	0.024100	-0.557934	-0.016559	0.020964	0.010355	167.899866	-86.973603	-166.909214
41146	9.738461	0.019751	-0.560044	-0.007750	0.022513	0.012539	168.047376	-86.987163	-167.060466
41147	9.757222	0.021080	-0.595773	-0.005602	0.021794	0.008677	168.172439	-86.999164	-167.188016
41148	9.725786	0.069136	-0.527453	0.002957	0.023234	0.006333	168.260297	-87.012369	-167.273389
41149	9.744196	0.031369	-0.534198	0.006690	0.023252	0.007865	168.382446	-87.025078	-167.390861
41150	9.733624	0.002410	-0.570412	0.004279	0.022984	0.008930	168.501479	-87.038424	-167.506689
41151	9.686105	0.008036	-0.559928	0.012546	0.019906	0.010759	168.668134	-87.049512	-167.665786
41152	9.697505	0.094037	-0.562862	0.005326	0.019981	0.012217	168.832542	-87.061505	-167.826446
41153	9.721441	0.089688	-0.565256	0.004802	0.017119	0.008376	168.976377	-87.070748	-167.967202
41154	9.737360	0.111366	-0.491342	-0.003476	0.019319	0.008280	169.096110	-87.081899	-168.088176
41155	9.697627	0.071519	-0.543079	-0.005906	0.017288	0.012827	169.284921	-87.091671	-168.279951
41156	9.726898	0.081319	-0.526117	-0.009345	0.021790	0.007115	169.385220	-87.104057	-168.384832
41157	9.721676	0.066383	-0.543437	-0.003499	0.017558	0.011757	169.564922	-87.113845	-168.565932
41158	9.721327	0.025662	-0.512783	-0.004323	0.018911	0.016472	169.781048	-87.125538	-168.783903
41159	9.732085	0.052150	-0.472508	0.002886	0.017953	0.016755	170.022817	-87.135943	-169.024014
41160	9.727327	0.075533	-0.519001	0.008994	0.015593	0.022446	170.324284	-87.146250	-169.319789
41161	9.738079	0.101533	-0.479079	0.000186	0.014053	0.020247	170.615204	-87.154679	-169.610515
41162	9.732071	0.026298	-0.453777	0.001229	0.011047	0.023539	170.937066	-87.162360	-169.931160
41163	9.779270	-0.021891	-0.431774	-0.000607	0.018054	0.019735	171.218179	-87.172872	-170.212134
41164	9.703053	0.011489	-0.466148	-0.005183	0.008895	0.022012	171.526170	-87.179037	-170.522564
41165	9.692695	0.000987	-0.518378	-0.006794	0.005513	0.021841	171.853250	-87.182478	-170.852794
41166	9.674229	0.016370	-0.494588	-0.010804	0.002746	0.020993	172.158443	-87.184903	-171.163645
41167	9.716557	-0.006282	-0.521765	-0.018002	0.004594	0.018961	172.448328	-87.187415	-171.463283
41168	9.705622	-0.055967	-0.545313	-0.016419	0.006216	0.022607	172.764932	-87.191771	-171.788778
41169	9.706237	-0.018472	-0.573362	0.002060	0.010575	0.017076	173.037206	-87.197389	-172.059597
41170	9.724784	-0.037343	-0.595599	0.013052	0.013146	0.011947	173.239106	-87.204809	-172.253343
41171	9.721791	-0.018421	-0.484341	0.022671	0.012444	0.011173	173.453930	-87.211027	-172.454375
41172	9.769492	-0.026363	-0.491373	0.025081	0.012710	0.010107	173.643796	-87.218012	-172.629170
41173	9.769864	-0.007813	-0.504474	0.014393	0.014661	0.011061	173.851170	-87.225368	-172.828598
41174	9.751774	0.028134	-0.493877	0.010126	0.019642	0.011797	174.045747	-87.236345	-173.016685
41175	9.716747	-0.036840	-0.497567	0.001069	0.017117	0.006810	174.195361	-87.244817	-173.164992
41176	9.693015	-0.034119	-0.491611	-0.002131	0.020853	0.007361	174.331417	-87.256180	-173.301519
41177	9.740745	-0.041432	-0.498169	-0.003191	0.013358	0.003178	174.441050	-87.262288	-173.412398
41178	9.711967	-0.032999	-0.526811	-0.000051	0.006099	0.009584	174.623456	-87.265327	-173.594132
41179	9.704159	0.011896	-0.464209	-0.002405	0.009359	0.003687	174.745734	-87.269142	-173.717117
41180	9.752186	0.024179	-0.485883	-0.003236	0.010717	0.008394	174.907931	-87.274710	-173.880447
41181	9.734402	0.080194	-0.490520	-0.009658	0.007687	0.008609	175.087447	-87.277793	-174.064937
41182	9.769256	0.123871	-0.469783	-0.010974	0.007940	0.006007	175.220488	-87.281616	-174.203515
41183	9.745147	0.106958	-0.450256	-0.015256	0.012043	0.008479	175.391375	-87.287133	-174.382769
41184	9.734221	0.058409	-0.473202	-0.021415	0.010889	0.009735	175.561583	-87.292772	-174.564543
41185	9.723633	0.029299	-0.510710	-0.020116	0.009756	0.014073	175.800857	-87.297166	-174.815003
41186	9.728650	0.022153	-0.476222	-0.021496	0.006485	0.018424	176.081626	-87.300570	-175.107506
41187	9.733661	0.014938	-0.441687	-0.023600	0.010742	0.015309	176.334307	-87.305479	-175.373468
41188	9.733702	0.013471	-0.440828	-0.030042	0.006837	0.017253	176.597230	-87.308916	-175.653005
41189	9.751863	-0.025374	-0.449216	-0.025266	0.004718	0.020346	176.916495	-87.310406	-175.986532
41190	9.717035	-0.071339	-0.468790	-0.028981	0.005596	0.017061	177.179663	-87.312994	-176.265705
41191	9.734784	-0.129813	-0.463046	-0.019657	0.001243	0.018732	177.485073	-87.312331	-176.581771
41192	9.705230	-0.161963	-0.463806	-0.011132	0.000008	0.021634	177.817625	-87.311689	-176.920167
41193	9.730939	-0.068856	-0.539670	-0.003358	0.004539	0.020554	178.153375	-87.312779	-177.257156
41194	9.694734	0.003579	-0.521634	-0.000691	-0.002948	0.017911	178.447328	-87.310202	-177.550921
41195	9.711529	0.083282	-0.492578	-0.000126	0.002564	0.016528	178.736408	-87.309931	-177.839422
41196	9.734967	0.058470	-0.482322	-0.015398	-0.003736	0.017990	179.022182	-87.306764	-178.133436
41197	9.710743	0.040699	-0.464217	-0.031420	-0.004265	0.015468	179.280422	-87.302453	-178.409203
41198	9.734145	0.016237	-0.454412	-0.042649	-0.006035	0.014303	179.504569	-87.297823	-178.657155
41199	9.723008	-0.032811	-0.479428	-0.047789	-0.010189	0.018830	179.792775	-87.290012	-178.972251
41200	9.717590	-0.048164	-0.499901	-0.043495	-0.013409	0.014614	-179.981866	-87.281053	-179.221904
41201	9.735172	-0.106452	-0.495732	-0.044052	-0.009295	0.018620	-179.697512	-87.273615	-179.531205
41202	9.776573	-0.167982	-0.495383	-0.038085	-0.006486	0.009380	-179.534321	-87.268544	-179.715518
41203	9.801151	-0.133076	-0.528758	-0.027709	-0.004253	0.016980	-179.261725	-87.263887	179.996467
41204	9.735447	-0.090127	-0.511952	-0.023375	-0.005707	0.009302	-179.092365	-87.259195	179.814413
41205	9.701257	-0.095528	-0.561498	-0.019911	-0.007580	0.009796	-178.903652	-87.252634	179.615013
41206	9.706590	-0.082429	-0.542741	-0.015876	-0.003943	0.008922	-178.735418	-87.248904	179.438387
41207	9.711525	-0.089116	-0.509490	-0.018295	-0.004200	0.009973	-178.544125	-87.244208	179.237389
41208	9.723738	-0.160429	-0.523863	-0.020621	-0.000034	0.002354	-178.456418	-87.242768	179.138660
41209	9.723728	-0.160764	-0.523955	-0.019326	-0.001181	0.006686	-178.304467	-87.239825	178.976580
41210	9.712139	-0.228343	-0.533967	-0.013101	0.002613	0.000245	-178.236811	-87.239919	178.902238
41211	9.741352	-0.217677	-0.518417	-0.010646	0.004642	-0.004275	-178.208324	-87.240462	178.868149
41212	9.731034	-0.224953	-0.571294	-0.005547	-0.001702	-0.009716	-178.256235	-87.238258	178.913842
41213	9.723795	-0.158681	-0.523343	0.004448	0.003859	-0.018076	-178.382673	-87.238570	179.043611
41214	9.700443	-0.133787	-0.533061	0.015684	0.005616	-0.016902	-178.501248	-87.240662	179.172229
41215	9.724304	-0.135552	-0.536735	0.021317	0.003016	-0.020244	-178.644612	-87.240514	179.328330
41216	9.712477	-0.043049	-0.536389	0.027769	0.006915	-0.022171	-178.818908	-87.243385	179.519666
41217	9.699426	-0.010161	-0.492942	0.026895	0.006496	-0.014003	-178.883142	-87.245099	179.600302
41218	9.772098	0.040100	-0.547622	0.025577	0.006760	-0.016608	-178.992983	-87.247789	179.725850
41219	9.758237	0.033553	-0.475359	0.008761	0.010251	-0.019647	-179.135522	-87.251711	179.873854
41220	9.735235	0.078017	-0.499176	0.007339	0.005205	-0.011838	-179.199642	-87.253446	179.943166
41221	9.776376	-0.001068	-0.483082	-0.004445	0.007544	-0.008992	-179.222841	-87.255701	179.964544
41222	9.770685	-0.033956	-0.487184	-0.012480	0.010767	-0.006335	-179.231763	-87.260576	179.967226
41223	9.706677	-0.087837	-0.521818	-0.010613	0.006401	-0.007752	-179.244593	-87.262173	179.974085
41224	9.730920	-0.070784	-0.539755	-0.004747	0.003904	-0.006572	-179.253048	-87.263118	179.980735
41225	9.760114	-0.059601	-0.523950	0.012670	0.007703	-0.008373	-179.259591	-87.265446	179.994445
41226	9.742064	-0.021736	-0.514036	0.011602	0.008951	-0.008191	-179.277357	-87.269295	-179.980206
41227	9.729346	0.030046	-0.484655	0.019100	0.010721	-0.008567	-179.282627	-87.273445	-179.962793
41228	9.710887	0.047913	-0.460491	0.017432	0.004687	-0.003539	-179.241797	-87.274817	-179.992763
41229	9.716630	0.081794	-0.454932	0.008064	0.007284	-0.001750	-179.171385	-87.276905	179.942280
41230	9.745813	0.092179	-0.438965	-0.009905	0.007588	0.004071	-179.053835	-87.279867	179.819825
41231	9.705649	0.033646	-0.478014	-0.020104	0.002800	0.006185	-178.904618	-87.279251	179.659243
41232	9.734025	0.003989	-0.433844	-0.013973	0.002177	0.008416	-178.738020	-87.279033	179.485350
41233	9.740693	-0.101180	-0.452648	-0.023591	0.003789	0.007417	-178.576897	-87.278960	179.310539
41234	9.735769	-0.096110	-0.486028	-0.015060	0.002541	0.010332	-178.387760	-87.278872	179.113457
41235	9.717676	-0.059605	-0.476778	-0.013138	0.000830	0.003708	-178.265342	-87.277153	178.984483
41236	9.771044	-0.033283	-0.479987	-0.016925	-0.001825	0.007364	-178.114888	-87.274571	178.825058
41237	9.694247	-0.037466	-0.487062	-0.017710	0.002181	0.006860	-177.956707	-87.273540	178.658066
41238	9.718057	-0.041407	-0.491337	-0.012639	-0.005930	0.004893	-177.835846	-87.268620	178.530726
41239	9.723770	-0.008257	-0.486727	-0.020678	-0.002706	0.007544	-177.674637	-87.264689	178.357721
41240	9.718023	-0.042308	-0.491950	-0.024376	-0.000930	0.002521	-177.587256	-87.262661	178.257166
41241	9.736496	-0.059801	-0.515633	-0.024661	-0.003685	0.003203	-177.481712	-87.258290	178.138186
41242	9.735653	-0.099794	-0.487611	-0.018831	-0.007958	0.007855	-177.331749	-87.252082	177.978157
41243	9.706862	-0.091037	-0.517819	-0.016129	-0.004940	0.006119	-177.187583	-87.246832	177.825267
41244	9.725291	-0.109195	-0.542037	-0.005497	-0.010467	0.012140	-176.982026	-87.239020	177.617227
41245	9.735920	-0.082605	-0.504171	-0.003880	-0.007088	0.012323	-176.760292	-87.232332	177.394062
41246	9.741222	-0.069825	-0.485502	-0.007614	-0.007082	0.010771	-176.571997	-87.226429	177.202087
41247	9.717765	-0.047533	-0.496536	-0.006814	-0.010201	0.009535	-176.389021	-87.218009	177.016177
41248	9.699244	-0.031237	-0.474125	-0.022644	-0.011491	0.013234	-176.185647	-87.209432	176.800482
41249	9.746808	-0.039289	-0.483630	-0.035239	-0.014751	0.012910	-175.985848	-87.198169	176.580605
41250	9.735587	-0.087836	-0.509686	-0.039264	-0.017497	0.012033	-175.813858	-87.186139	176.386792
41251	9.724749	-0.116185	-0.550260	-0.037347	-0.019199	0.005404	-175.709335	-87.172643	176.261774
41252	9.705394	-0.139066	-0.499819	-0.029058	-0.012717	0.009928	-175.554382	-87.163391	176.090870
41253	9.729547	-0.123411	-0.519319	-0.023935	-0.009442	0.007146	-175.414607	-87.155364	175.939036
41254	9.729074	-0.143827	-0.506118	-0.015647	-0.011690	0.007276	-175.283371	-87.146780	175.799569
41255	9.758219	-0.133952	-0.491610	-0.012368	-0.003161	0.004191	-175.166617	-87.142458	175.677191
41256	9.715960	-0.113464	-0.464302	-0.024682	-0.003656	0.003183	-175.080696	-87.138633	175.577912
41257	9.711359	-0.087575	-0.512910	-0.023337	-0.010870	-0.002085	-175.050357	-87.130172	175.534924
41258	9.716304	-0.093175	-0.479980	-0.031057	-0.003104	-0.003576	-175.044978	-87.126989	175.512630
41259	9.739691	-0.115915	-0.470332	-0.026505	-0.005343	-0.004999	-175.044622	-87.121823	175.497522
41260	9.733467	-0.168679	-0.462110	-0.034556	-0.010831	-0.006756	-175.084941	-87.114387	175.518977
41261	9.723064	-0.175626	-0.516090	-0.032937	-0.007453	-0.006567	-175.107755	-87.108149	175.524164
41262	9.699607	-0.151575	-0.527257	-0.032446	-0.014213	-0.005408	-175.134655	-87.098715	175.533393
41263	9.717565	-0.187822	-0.538083	-0.019295	-0.015056	-0.009104	-175.185214	-87.088216	175.573609
41264	9.728668	-0.139400	-0.515072	-0.017162	-0.017552	-0.009480	-175.251727	-87.077069	175.631270
41265	9.699789	-0.128977	-0.545980	-0.009111	-0.012064	-0.007721	-175.277858	-87.068259	175.653031
41266	9.706263	-0.054760	-0.570594	-0.011003	-0.017305	-0.008977	-175.334297	-87.057226	175.704140
41267	9.722382	-0.012054	-0.513621	-0.025108	-0.008979	-0.017216	-175.470808	-87.050636	175.828405
41268	9.693488	-0.000742	-0.544313	-0.034535	-0.016862	-0.016393	-175.621226	-87.040175	175.960119
41269	9.693401	0.001020	-0.545850	-0.045258	-0.014866	-0.015486	-175.754308	-87.030070	176.068315
41270	9.726477	-0.052740	-0.455805	-0.043658	-0.012379	-0.013565	-175.873436	-87.022022	176.163464
41271	9.734051	-0.095772	-0.519363	-0.043362	-0.008725	-0.015975	-176.004562	-87.015434	176.270999
41272	9.776241	-0.114474	-0.548078	-0.051939	-0.008333	-0.017179	-176.163832	-87.009816	176.401595
41273	9.776911	-0.072894	-0.577249	-0.057874	-0.008492	-0.013181	-176.271449	-87.003231	176.477318
41274	9.761013	-0.092641	-0.650852	-0.061945	-0.013011	-0.010625	-176.367222	-86.994669	176.538590
41275	9.726693	-0.095288	-0.700798	-0.054148	-0.008493	-0.011650	-176.455491	-86.988000	176.596631
41276	9.757368	-0.181793	-0.740521	-0.032474	-0.013291	-0.007224	-176.496892	-86.979149	176.620366
41277	9.738245	-0.203761	-0.689358	-0.002917	-0.001304	-0.006272	-176.491253	-86.976351	176.614517
41278	9.731307	-0.118937	-0.655020	0.033839	-0.000813	-0.005978	-176.472793	-86.974593	176.616354
41279	9.734826	-0.026853	-0.567561	0.060927	0.000430	-0.004977	-176.417496	-86.972719	176.594838
41280	9.822115	-0.015632	-0.507541	0.050193	0.002426	-0.004078	-176.366962	-86.972744	176.573940
41281	9.756424	0.028495	-0.489496	0.036248	-0.000542	-0.007044	-176.348104	-86.970475	176.576762
41282	9.731957	-0.007337	-0.456898	0.020708	0.002710	-0.007501	-176.351264	-86.970786	176.592717
41283	9.728482	-0.098698	-0.543976	0.003534	0.001693	-0.006428	-176.342332	-86.969827	176.588105
41284	9.764691	-0.172113	-0.562532	0.010267	0.007455	-0.007257	-176.345564	-86.972844	176.598141
41285	9.724434	-0.229413	-0.601797	0.024988	0.006428	-0.003824	-176.292837	-86.974400	176.560753
41286	9.761661	-0.243628	-0.662469	0.048320	0.007700	-0.004397	-176.243077	-86.977450	176.539556
41287	9.712482	-0.138525	-0.599743	0.073512	0.004620	-0.006420	-176.191839	-86.978063	176.531199
41288	9.710569	-0.060052	-0.531498	0.077240	0.004620	-0.004888	-176.132942	-86.979370	176.517445
41289	9.669008	0.000314	-0.531692	0.083116	0.003020	-0.005468	-176.066781	-86.979038	176.499982
41290	9.715009	0.091590	-0.486586	0.064816	-0.000314	0.002723	-175.936269	-86.977219	176.407386
41291	9.732468	0.211976	-0.485371	0.047681	0.000440	0.000344	-175.829559	-86.975184	176.329190
41292	9.703277	0.200883	-0.500822	0.023223	-0.004046	0.009794	-175.649789	-86.970908	176.163402
41293	9.684838	0.217175	-0.477886	-0.005448	-0.008704	0.008654	-175.493285	-86.963243	176.003701
41294	9.743808	0.079157	-0.459087	-0.030142	-0.013277	0.013587	-175.312573	-86.953470	175.806348
41295	9.674902	0.049199	-0.543697	-0.048115	-0.012079	0.017661	-175.090473	-86.943342	175.554275
41296	9.688169	0.036472	-0.602376	-0.054866	-0.018727	0.020229	-174.860962	-86.930047	175.293863
41297	9.682317	0.001032	-0.609474	-0.050082	-0.020867	0.023310	-174.591913	-86.914562	174.995337
41298	9.699903	-0.058053	-0.606765	-0.053609	-0.021653	0.027996	-174.287556	-86.899038	174.660685
41299	9.747361	-0.067550	-0.617276	-0.043458	-0.020435	0.032826	-173.919472	-86.883116	174.268738
41300	9.723757	-0.047355	-0.629221	-0.027397	-0.019950	0.035372	-173.528126	-86.867875	173.861997
41301	9.787186	-0.036198	-0.567075	-0.025794	-0.017463	0.037293	-173.107824	-86.853021	173.427645
41302	9.779635	0.004694	-0.506003	-0.028488	-0.011764	0.043432	-172.631149	-86.841532	172.934809
41303	9.756507	0.044101	-0.531182	-0.046958	-0.010700	0.038451	-172.210342	-86.830038	172.486491
41304	9.744818	-0.026312	-0.542590	-0.065144	-0.006871	0.032797	-171.862868	-86.821777	172.102010
41305	9.756492	-0.120085	-0.544238	-0.082404	-0.011414	0.040765	-171.445315	-86.809358	171.636967
41306	9.709952	-0.214734	-0.590357	-0.087467	-0.002392	0.041017	-171.024715	-86.802618	171.166428
41307	9.710194	-0.355421	-0.616318	-0.077983	0.001251	0.027109	-170.727400	-86.798248	170.824496
41308	9.708532	-0.437102	-0.560364	-0.053309	-0.004730	0.021235	-170.493785	-86.791750	170.560831
41309	9.727116	-0.436105	-0.598657	-0.032087	-0.001026	0.021058	-170.237014	-86.786544	170.285766
41310	9.715810	-0.327129	-0.612129	-0.021874	-0.004978	0.014561	-170.054749	-86.780442	170.091569
41311	9.709228	-0.243886	-0.578200	-0.024814	-0.007167	0.010021	-169.915670	-86.772758	169.939681
41312	9.701880	-0.200262	-0.516000	-0.023164	-0.002904	0.008507	-169.792278	-86.768381	169.803708
41313	9.720135	-0.217769	-0.540206	-0.029852	-0.005063	0.002410	-169.729138	-86.762602	169.724577
41314	9.738406	-0.234663	-0.564316	-0.033274	-0.000486	-0.003259	-169.724959	-86.760774	169.702205
41315	9.738405	-0.234374	-0.564450	-0.028205	-0.000798	0.000893	-169.668824	-86.757563	169.630798
41316	9.715025	-0.210634	-0.574289	-0.016079	0.000477	-0.004315	-169.663621	-86.756384	169.617268
41317	9.752418	-0.204192	-0.649851	-0.011211	0.001882	-0.008123	-169.682234	-86.755597	169.630665
41318	9.720965	-0.175475	-0.568601	-0.012553	0.001272	-0.008999	-169.720138	-86.755347	169.662334
41319	9.715489	-0.188170	-0.588088	-0.013912	-0.000233	-0.008150	-169.743733	-86.753348	169.679626
41320	9.739285	-0.190810	-0.592439	-0.011505	-0.000873	-0.007468	-169.769641	-86.751731	169.699882
41321	9.739698	-0.169825	-0.606459	0.004390	0.001269	-0.012837	-169.826718	-86.751054	169.760895
41322	9.716323	-0.145415	-0.616174	0.008104	-0.000553	-0.007830	-169.844370	-86.749652	169.784135
41323	9.732416	-0.123690	-0.543552	0.008139	0.001239	-0.011280	-169.884307	-86.748808	169.829735
41324	9.708641	-0.119338	-0.539280	0.004337	-0.001419	-0.007665	-169.903967	-86.746901	169.852824
41325	9.726561	-0.155709	-0.549085	0.009445	0.000058	-0.006957	-169.901550	-86.745005	169.858178
41326	9.751131	-0.118702	-0.581312	0.015893	0.002146	-0.005373	-169.885531	-86.744877	169.852163
41327	9.762130	-0.090837	-0.541889	0.012452	0.005828	-0.009316	-169.895737	-86.746422	169.869865
41328	9.738763	-0.066573	-0.551112	0.003852	0.005345	-0.008792	-169.914895	-86.748443	169.892173
41329	9.757101	-0.082762	-0.574482	-0.005022	0.003000	-0.009334	-169.941534	-86.748431	169.915098
41330	9.716525	-0.139324	-0.614391	-0.013364	0.003481	-0.006019	-169.946332	-86.749121	169.913143
41331	9.735625	-0.115919	-0.665916	-0.003441	0.003681	-0.003943	-169.914885	-86.748951	169.881972
41332	9.753580	-0.152761	-0.675386	0.007532	0.001735	-0.000332	-169.854325	-86.748084	169.826546
41333	9.745853	-0.128535	-0.598276	0.018813	0.003442	0.000894	-169.763785	-86.747246	169.747031
41334	9.710009	-0.054751	-0.578367	0.025259	0.005532	0.002476	-169.658432	-86.748223	169.656912
41335	9.727971	-0.092357	-0.587538	0.019324	0.005375	0.006474	-169.508698	-86.747883	169.518718
41336	9.709671	-0.076173	-0.563383	0.020355	0.002336	0.009732	-169.340096	-86.746271	169.362433
41337	9.710462	-0.037432	-0.591064	0.016069	0.006442	0.012220	-169.133741	-86.745962	169.166408
41338	9.733881	-0.062200	-0.580833	0.014419	0.002180	0.013729	-168.929606	-86.743766	168.971127
41339	9.716362	-0.006662	-0.584970	0.002329	0.002691	0.015488	-168.706893	-86.740858	168.749844
41340	9.739781	-0.031457	-0.574678	-0.018031	0.007265	0.013661	-168.512433	-86.741444	168.545630
41341	9.758114	-0.049995	-0.597943	-0.036623	0.003006	0.019009	-168.277623	-86.738172	168.289045
41342	9.751423	-0.125091	-0.575036	-0.042801	0.002784	0.018484	-168.059340	-86.735589	168.046753
41343	9.710361	-0.203660	-0.601097	-0.048151	0.001242	0.013251	-167.891801	-86.731957	167.852177
41344	9.698127	-0.292083	-0.598023	-0.039338	0.000899	0.018961	-167.671677	-86.728168	167.610027
41345	9.717216	-0.270541	-0.649862	-0.018882	0.000791	0.012173	-167.499027	-86.724374	167.428608
41346	9.751523	-0.268191	-0.601051	-0.000394	-0.000334	0.017182	-167.277691	-86.720023	167.207592
41347	9.739090	-0.219243	-0.571870	0.016516	-0.002139	0.016801	-167.048113	-86.713946	166.988235
41348	9.751341	-0.133830	-0.574474	0.015537	0.010496	0.016275	-166.803132	-86.715655	166.752676
41349	9.757294	-0.101883	-0.568105	0.002892	0.007298	0.015890	-166.570395	-86.714788	166.520283
41350	9.728474	-0.093567	-0.596700	-0.010544	0.007214	0.016762	-166.343077	-86.714493	166.287449
41351	9.751401	-0.138544	-0.572323	-0.019422	0.004881	0.016212	-166.125697	-86.712158	166.058471
41352	9.757826	-0.224299	-0.606462	-0.016448	0.008857	0.017303	-165.892772	-86.712597	165.816632
41353	9.715357	-0.224809	-0.563200	-0.007452	0.016565	0.007511	-165.723448	-86.717900	165.644182
41354	9.714520	-0.265486	-0.533761	-0.006681	0.012557	0.007977	-165.565488	-86.721629	165.483038
41355	9.732854	-0.283356	-0.556374	0.000560	0.011523	0.008309	-165.396065	-86.723984	165.314301
41356	9.733824	-0.244045	-0.583097	0.003303	0.015429	0.004890	-165.254303	-86.729702	165.175112
41357	9.740302	-0.190986	-0.590246	-0.003168	0.012455	0.005023	-165.115278	-86.732843	165.033578
41358	9.745862	-0.177807	-0.569371	-0.013884	0.015386	0.004191	-164.989406	-86.738603	164.900442
41359	9.717128	-0.168145	-0.597400	-0.021697	0.011805	0.003445	-164.877383	-86.741702	164.776805
41360	9.717204	-0.168412	-0.596094	-0.018722	0.015780	0.004537	-164.749085	-86.747596	164.638463
41361	9.699892	-0.249348	-0.625483	-0.015798	0.010162	0.002901	-164.642965	-86.749849	164.523855
41362	9.763993	-0.215619	-0.573845	0.003405	0.019912	-0.003723	-164.570580	-86.759253	164.454216
41363	9.727477	-0.181272	-0.524452	0.003362	0.018119	-0.000278	-164.463498	-86.766381	164.348453
41364	9.727579	-0.181276	-0.522563	0.001227	0.020626	0.000099	-164.352099	-86.775577	164.238490
41365	9.698897	-0.171322	-0.550171	-0.003111	0.015147	-0.000152	-164.252772	-86.780940	164.138020
41366	9.757495	-0.151265	-0.517851	-0.008741	0.018654	0.001448	-164.138240	-86.788815	164.019199
41367	9.733313	-0.167702	-0.497872	-0.013830	0.018083	-0.000997	-164.045337	-86.795988	163.918697
41368	9.721998	-0.214597	-0.521416	-0.026479	0.014895	-0.001405	-163.978692	-86.802222	163.837661
41369	9.734961	-0.244936	-0.563415	-0.020577	0.013251	-0.001941	-163.911599	-86.806906	163.760131
41370	9.722622	-0.194118	-0.533096	-0.014990	0.007950	-0.000095	-163.844766	-86.809097	163.685501
41371	9.792587	-0.264252	-0.502791	-0.014903	0.011540	-0.006989	-163.827684	-86.813511	163.661258
41372	9.768867	-0.259932	-0.497589	-0.020014	0.010073	-0.007713	-163.832782	-86.818083	163.655788
41373	9.645496	-0.214989	-0.523412	-0.014381	0.006567	-0.009312	-163.853700	-86.820198	163.669123
41374	9.685666	-0.176680	-0.468336	-0.013542	0.005250	-0.014014	-163.931436	-86.823117	163.740117
41375	9.672793	-0.144553	-0.424544	-0.018632	0.004681	-0.016464	-164.032190	-86.825411	163.830706
41376	9.707972	-0.099332	-0.403407	-0.038847	-0.001126	-0.014858	-164.151119	-86.824936	163.928434
41377	9.695202	-0.204751	-0.386758	-0.071616	0.002173	-0.016121	-164.285320	-86.825754	164.022747
41378	9.739002	-0.300875	-0.483571	-0.073535	-0.003041	-0.017437	-164.455064	-86.824593	164.151463
41379	9.723698	-0.298923	-0.571003	-0.062229	-0.008241	-0.024093	-164.692418	-86.820827	164.352962
41380	9.742095	-0.313269	-0.595751	-0.054717	-0.007413	-0.022685	-164.915018	-86.817984	164.545415
41381	9.731273	-0.337456	-0.635992	-0.034516	-0.010286	-0.028747	-165.186714	-86.813648	164.797491
41382	9.736311	-0.340996	-0.603002	-0.020985	0.001186	-0.030268	-165.442358	-86.816577	165.042396
41383	9.707654	-0.327798	-0.632267	-0.006439	0.000916	-0.033004	-165.710489	-86.818923	165.307672
41384	9.719495	-0.257457	-0.620426	0.032083	0.006424	-0.035741	-165.978286	-86.825403	165.595201
41385	9.723696	-0.143599	-0.545579	0.052418	-0.000891	-0.028671	-166.175086	-86.826090	165.823427
41386	9.747506	0.012825	-0.536490	0.047270	0.004529	-0.021498	-166.297127	-86.829464	165.973688
41387	9.741623	0.138841	-0.528823	0.015246	0.002883	-0.020585	-166.424769	-86.831094	166.111710
41388	9.742020	0.160610	-0.542781	-0.019531	-0.003590	-0.014534	-166.535039	-86.828977	166.211850
41389	9.748346	0.057903	-0.564212	-0.043491	-0.000696	-0.010054	-166.598833	-86.827132	166.252116
41390	9.677895	-0.048609	-0.592449	-0.042743	0.002178	-0.001675	-166.579131	-86.826511	166.208765
41391	9.696449	-0.223071	-0.629225	-0.030147	0.002674	0.003931	-166.488120	-86.824698	166.100431
41392	9.734329	-0.286890	-0.504954	0.005307	-0.000282	0.008703	-166.342810	-86.821303	165.958851
41393	9.776941	-0.287954	-0.546928	0.027109	-0.001574	0.006326	-166.204779	-86.816815	165.837836
41394	9.747622	-0.140995	-0.549198	0.033328	0.000452	0.003421	-166.095027	-86.814516	165.747947
41395	9.741272	-0.037692	-0.527935	0.028426	-0.001865	0.008926	-165.932848	-86.809505	165.602233
41396	9.687407	-0.085328	-0.511283	-0.000588	0.002264	0.007502	-165.797718	-86.807617	165.467464
41397	9.718398	-0.153411	-0.564333	-0.007841	0.003297	0.007146	-165.660562	-86.805620	165.326807
41398	9.717549	-0.194178	-0.536115	-0.013754	0.004937	0.007672	-165.524760	-86.805156	165.183809
41399	9.652871	-0.268608	-0.558518	0.001553	-0.000240	0.007124	-165.391717	-86.801110	165.052242
41400	9.671245	-0.286437	-0.582394	0.021152	-0.001738	0.010293	-165.227615	-86.796526	164.900929
41401	9.664484	-0.203384	-0.547346	0.034354	-0.002606	0.006672	-165.086676	-86.791273	164.781538
41402	9.716575	-0.080174	-0.495825	0.017867	-0.009370	0.011556	-164.933152	-86.782233	164.638935
41403	9.717392	-0.041213	-0.524611	0.005503	-0.009807	0.010469	-164.792485	-86.772357	164.501716
41404	9.721876	-0.068811	-0.478054	-0.015203	-0.008859	0.010942	-164.664165	-86.763654	164.365376
41405	9.722650	-0.187177	-0.519804	-0.024048	-0.009389	0.006911	-164.575671	-86.754606	164.264564
41406	9.735109	-0.238291	-0.550323	-0.019228	-0.010678	0.008293	-164.481603	-86.745276	164.160217
41407	9.764267	-0.228784	-0.535814	-0.016488	-0.006760	0.004885	-164.401789	-86.737904	164.072367
41408	9.759235	-0.222516	-0.570089	-0.024013	-0.007582	0.003459	-164.349776	-86.731014	164.007397
41409	9.742489	-0.283073	-0.615602	-0.007816	-0.003582	-0.000774	-164.312253	-86.726326	163.966636
41410	9.719111	-0.259409	-0.625618	0.003229	-0.002855	-0.002291	-164.287599	-86.722929	163.944703
41411	9.676904	-0.239165	-0.598041	0.012835	-0.007242	0.003923	-164.203514	-86.715438	163.867971
41412	9.698998	-0.165694	-0.534179	0.016586	-0.007281	0.005495	-164.108785	-86.708380	163.783514
41413	9.734053	-0.122612	-0.513657	-0.000331	-0.004563	0.004098	-164.024501	-86.702299	163.697853
41414	9.704358	-0.153065	-0.515589	-0.006514	-0.004779	0.003555	-163.955348	-86.696912	163.625755
41415	9.717690	-0.163961	-0.573478	-0.005212	-0.005975	0.007882	-163.841151	-86.689481	163.509699
41416	9.717192	-0.184733	-0.560394	-0.019232	-0.010672	0.008289	-163.751224	-86.680080	163.409492
41417	9.800571	-0.265890	-0.589609	-0.022908	-0.007025	-0.000176	-163.728082	-86.673371	163.373689
41418	9.754584	-0.335912	-0.650203	-0.025748	0.003100	-0.007148	-163.750467	-86.674017	163.382244
41419	9.777550	-0.378662	-0.626474	-0.008809	0.001280	-0.007474	-163.763558	-86.672991	163.392911
41420	9.766737	-0.404716	-0.665373	0.013575	0.005491	-0.011160	-163.794813	-86.675593	163.432918
41421	9.718014	-0.299256	-0.601528	0.020576	0.003499	-0.013603	-163.843902	-86.676739	163.494523
41422	9.693045	-0.197235	-0.542196	0.033720	-0.000080	-0.012060	-163.887512	-86.676416	163.558468
41423	9.700210	-0.102370	-0.578136	0.025141	0.001253	-0.015021	-163.954402	-86.676647	163.640470
41424	9.687288	-0.070772	-0.534472	0.015709	0.002990	-0.011549	-163.995129	-86.677926	163.691189
41425	9.706108	-0.066351	-0.572006	-0.003093	0.001379	-0.015969	-164.086379	-86.678404	163.782795
41426	9.700690	-0.078483	-0.591695	-0.021718	-0.002881	-0.010701	-164.156409	-86.676307	163.841387
41427	9.736603	-0.151392	-0.611874	-0.029011	-0.003650	-0.007609	-164.196409	-86.672597	163.866239
41428	9.795931	-0.247885	-0.622098	-0.005020	0.003040	-0.009349	-164.228038	-86.673549	163.895948
41429	9.748793	-0.220191	-0.627076	0.001706	0.006975	-0.006663	-164.213493	-86.675505	163.882320
41430	9.748853	-0.219508	-0.626390	0.008978	0.006844	-0.008034	-164.214432	-86.678349	163.889322
41431	9.760569	-0.151819	-0.614226	0.017844	0.008278	-0.005728	-164.178940	-86.681017	163.864507
41432	9.741826	-0.154337	-0.575634	0.005495	0.008741	-0.008538	-164.181547	-86.684986	163.871181
41433	9.759868	-0.190860	-0.584646	0.010822	0.009366	-0.001564	-164.106838	-86.687556	163.803674
41434	9.741540	-0.173425	-0.559807	-0.000399	0.011282	-0.009735	-164.117272	-86.693113	163.814805
41435	9.735800	-0.206246	-0.564412	0.004675	0.010950	-0.005556	-164.079736	-86.697146	163.780396
41436	9.741671	-0.172108	-0.557932	-0.005838	0.005246	-0.006369	-164.077548	-86.698848	163.775762
41437	9.712523	-0.181574	-0.572554	-0.006350	0.011117	-0.005762	-164.048365	-86.702973	163.741832
41438	9.718809	-0.127530	-0.579852	-0.005317	0.008062	-0.002503	-164.001153	-86.705616	163.692399
41439	9.731879	-0.157613	-0.622537	-0.006658	0.007455	-0.003386	-163.959644	-86.707419	163.646614
41440	9.718504	-0.146923	-0.564235	-0.010943	0.012461	-0.002631	-163.904583	-86.712500	163.586090
41441	9.724379	-0.113270	-0.557346	-0.005869	0.012129	0.001551	-163.800949	-86.716131	163.480880
41442	9.737067	-0.163714	-0.585654	-0.016876	0.013198	-0.000384	-163.725249	-86.721247	163.396278
41443	9.731320	-0.197230	-0.590427	-0.010199	0.006645	0.001279	-163.642286	-86.721885	163.308550
41444	9.765951	-0.173936	-0.554346	-0.000507	0.014558	0.005082	-163.500426	-86.726848	163.167076
41445	9.736405	-0.204524	-0.554504	0.002994	0.013564	0.003863	-163.364549	-86.730807	163.034389
41446	9.690127	-0.138036	-0.586648	0.001615	0.011153	0.006428	-163.217599	-86.733639	162.889035
41447	9.670877	-0.161919	-0.534139	0.002398	0.007140	0.006892	-163.072304	-86.733590	162.745512
41448	9.695136	-0.145888	-0.551739	-0.014030	0.003075	0.006593	-162.956156	-86.731929	162.622032
41449	9.688905	-0.200168	-0.543105	-0.013492	0.006793	0.008734	-162.802707	-86.731262	162.461226
41450	9.707363	-0.217799	-0.566209	-0.012133	0.008303	0.007892	-162.657632	-86.732205	162.309861
41451	9.730328	-0.261916	-0.541764	-0.004839	0.009075	0.004806	-162.529137	-86.733427	162.180490
41452	9.705661	-0.299198	-0.509008	0.002397	0.007138	0.006892	-162.388668	-86.733865	162.042077
41453	9.712392	-0.226072	-0.530311	0.004848	0.008299	0.004140	-162.264048	-86.734739	161.920480
41454	9.717796	-0.213197	-0.509875	-0.001107	0.008134	0.008107	-162.110812	-86.735470	161.767269
41455	9.754264	-0.267602	-0.542589	-0.006962	0.012485	0.003455	-161.986785	-86.738721	161.638921
41456	9.762039	-0.311827	-0.604146	-0.006136	0.018965	0.004943	-161.832461	-86.745872	161.481733
41457	9.731608	-0.382090	-0.576082	0.006867	0.018945	-0.004903	-161.760127	-86.754046	161.411205
41458	9.717731	-0.391630	-0.502854	0.028096	0.020812	-0.001480	-161.640760	-86.763324	161.308678
41459	9.700312	-0.334650	-0.504574	0.040747	0.024013	-0.001035	-161.493619	-86.773552	161.184126
41460	9.707632	-0.240974	-0.538349	0.042616	0.019653	-0.002487	-161.378026	-86.782358	161.093713
41461	9.679514	-0.210767	-0.579659	0.048566	0.019822	-0.006463	-161.290441	-86.791367	161.035479
41462	9.671828	-0.166674	-0.515116	0.045242	0.010382	-0.001750	-161.195743	-86.794990	160.967503
41463	9.719520	-0.173594	-0.522274	0.040396	0.010773	-0.001426	-161.093096	-86.798135	160.889140
41464	9.718648	-0.213698	-0.493154	0.032069	0.013060	-0.001611	-160.995293	-86.803170	160.810496
41465	9.750347	-0.261269	-0.558717	0.023991	0.016304	0.000999	-160.859671	-86.808815	160.689331
41466	9.745092	-0.274885	-0.576893	0.026957	0.011588	-0.002352	-160.776356	-86.813176	160.622264
41467	9.764625	-0.251649	-0.626974	0.047177	0.018335	-0.005669	-160.685854	-86.821170	160.558038
41468	9.779799	-0.250536	-0.538170	0.048571	0.021651	-0.009978	-160.629519	-86.832407	160.530396
41469	9.750804	-0.259789	-0.551370	0.040001	0.022973	-0.012959	-160.596970	-86.844256	160.520374
41470	9.775275	-0.242054	-0.566975	0.036537	0.025772	-0.015208	-160.584195	-86.858714	160.529453
41471	9.696541	-0.166357	-0.503483	0.032478	0.022145	-0.014403	-160.572264	-86.870400	160.537021
41472	9.703403	-0.091417	-0.523830	0.033302	0.019933	-0.017385	-160.603336	-86.882118	160.588155
41473	9.745882	-0.110339	-0.549650	0.020929	0.018578	-0.016757	-160.634461	-86.892340	160.632252
41474	9.737097	-0.104463	-0.456837	0.007793	0.022134	-0.018337	-160.682568	-86.905425	160.685808
41475	9.702349	-0.146280	-0.475795	-0.014473	0.021472	-0.021561	-160.773675	-86.918145	160.768367
41476	9.744876	-0.164485	-0.501406	-0.012046	0.021734	-0.022596	-160.878631	-86.931806	160.867470
41477	9.759732	-0.132976	-0.584602	-0.014500	0.020577	-0.019841	-160.957084	-86.943664	160.936621
41478	9.716989	-0.130596	-0.541052	-0.019625	0.018196	-0.018849	-161.042239	-86.954694	161.011544
41479	9.756705	-0.091489	-0.484672	-0.026938	0.016518	-0.014035	-161.083275	-86.963296	161.037714
41480	9.722943	-0.093761	-0.531983	-0.042249	0.021675	-0.013538	-161.115686	-86.975219	161.046837
41481	9.730699	-0.156726	-0.578868	-0.037237	0.019560	-0.005893	-161.068875	-86.983943	160.978916
41482	9.716989	-0.145292	-0.519816	-0.028876	0.019094	-0.009165	-161.057607	-86.993654	160.951972
41483	9.735706	-0.161367	-0.541639	-0.021388	0.019038	-0.005999	-161.004124	-87.002083	160.885853
41484	9.746265	-0.133791	-0.500768	-0.025221	0.015462	-0.000672	-160.915328	-87.008237	160.783372
41485	9.780642	-0.109943	-0.464033	-0.017711	0.016306	0.000769	-160.797739	-87.013984	160.657764
41486	9.804571	-0.113383	-0.466232	-0.029283	0.021435	0.002839	-160.652188	-87.022682	160.496123
41487	9.733625	-0.083174	-0.465956	-0.031654	0.023884	-0.001328	-160.536433	-87.032901	160.363157
41488	9.736233	-0.160458	-0.532360	-0.034350	0.021764	-0.001375	-160.434789	-87.042549	160.242577
41489	9.712019	-0.177269	-0.512134	-0.028536	0.026127	0.007749	-160.211571	-87.052099	160.002858
41490	9.724093	-0.268390	-0.511058	-0.027182	0.027644	0.006899	-159.994717	-87.063259	159.771030
41491	9.771417	-0.295569	-0.502476	-0.010200	0.027665	0.003190	-159.800387	-87.074466	159.570537
41492	9.717641	-0.342645	-0.483687	0.002994	0.025911	0.001350	-159.628198	-87.085716	159.400748
41493	9.704803	-0.292318	-0.451780	0.016447	0.026019	0.000579	-159.448655	-87.096478	159.231611
41494	9.676392	-0.282378	-0.478954	0.015949	0.023199	-0.003285	-159.326408	-87.107159	159.119265
41495	9.677013	-0.262213	-0.490779	0.015642	0.019530	-0.000894	-159.186884	-87.114737	158.989996
41496	9.729994	-0.255458	-0.477131	0.008364	0.019652	0.000441	-159.042079	-87.122732	158.850713
41497	9.753941	-0.258641	-0.479285	-0.000718	0.017244	-0.004697	-158.961708	-87.129928	158.770850
41498	9.753516	-0.278266	-0.463622	-0.004228	0.018236	-0.003498	-158.870724	-87.137953	158.678235
41499	9.747940	-0.311277	-0.467344	-0.003900	0.022812	-0.007625	-158.799247	-87.148640	158.604444
41500	9.767791	-0.287301	-0.517059	-0.004981	0.013551	-0.008425	-158.780165	-87.155173	158.583389
41501	9.725346	-0.265948	-0.487959	-0.007063	0.018770	-0.013260	-158.787448	-87.164843	158.586267
41502	9.695950	-0.294665	-0.487859	-0.002174	0.020198	-0.017035	-158.831883	-87.176711	158.630415
41503	9.720482	-0.276273	-0.503770	0.005102	0.020081	-0.018370	-158.882260	-87.188106	158.682947
41504	9.754781	-0.250624	-0.466283	0.008913	0.022764	-0.021968	-158.964255	-87.202358	158.771061
41505	9.712331	-0.228443	-0.436747	0.011018	0.018452	-0.018865	-159.023907	-87.212989	158.837449
41506	9.670897	-0.165934	-0.435238	-0.000168	0.020354	-0.027122	-159.179763	-87.226991	158.994299
41507	9.723869	-0.156611	-0.421587	-0.017438	0.017555	-0.022778	-159.304517	-87.237914	159.108960
41508	9.719387	-0.147789	-0.453414	-0.020929	0.019452	-0.023317	-159.436405	-87.250628	159.229902
41509	9.748480	-0.135304	-0.435777	-0.022033	0.019802	-0.021415	-159.541242	-87.262432	159.321529
41510	9.719116	-0.163336	-0.435796	-0.027137	0.018319	-0.022177	-159.670759	-87.274285	159.436535
41511	9.714145	-0.174639	-0.453658	-0.022041	0.019809	-0.021425	-159.778203	-87.286207	159.532180
41512	9.743228	-0.162462	-0.435893	-0.014301	0.021615	-0.017161	-159.831436	-87.298822	159.578175
41513	9.762657	-0.157407	-0.471309	-0.013202	0.021271	-0.019073	-159.900692	-87.311016	159.642188
41514	9.762288	-0.175636	-0.455156	0.005607	0.024748	-0.017988	-159.939838	-87.325475	159.685500
41515	9.738543	-0.170726	-0.449046	0.010152	0.020698	-0.015896	-159.963320	-87.336726	159.715669
41516	9.719348	-0.172213	-0.409305	0.012905	0.025549	-0.021050	-160.031296	-87.352214	159.792027
41517	9.738826	-0.167259	-0.444171	0.013361	0.027467	-0.015460	-160.019187	-87.366935	159.787543
41518	9.743496	-0.172476	-0.408094	0.020318	0.022778	-0.012650	-159.997067	-87.379284	159.777960
41519	9.768000	-0.154471	-0.423665	0.012807	0.021929	-0.014132	-159.994335	-87.390842	159.782384
41520	9.743731	-0.169892	-0.403519	0.007153	0.026327	-0.014329	-159.984146	-87.405431	159.777193
41521	9.714439	-0.198779	-0.403065	0.009060	0.021960	-0.015743	-160.001954	-87.417323	159.800676
41522	9.699006	-0.257882	-0.446146	0.007476	0.019484	-0.017700	-160.061860	-87.428888	159.865837
41523	9.728028	-0.246164	-0.428437	0.019781	0.018156	-0.013056	-160.059354	-87.438165	159.873339
41524	9.699244	-0.255040	-0.442595	0.021735	0.015602	-0.017939	-160.131720	-87.447680	159.959148
41525	9.713847	-0.232782	-0.368042	0.027908	0.015847	-0.017354	-160.187661	-87.456640	160.030788
41526	9.738840	-0.194337	-0.398285	0.023891	0.013103	-0.018294	-160.275139	-87.464867	160.132960
41527	9.762821	-0.195904	-0.400776	0.023888	0.013105	-0.018298	-160.356949	-87.472495	160.228494
41528	9.740014	-0.150734	-0.423570	0.021248	0.012785	-0.021817	-160.491775	-87.481212	160.376543
41529	9.745076	-0.135253	-0.402612	0.012865	0.013231	-0.018593	-160.583267	-87.488925	160.476780
41530	9.716283	-0.143698	-0.417274	0.013719	0.011021	-0.021566	-160.728693	-87.496615	160.631119
41531	9.716359	-0.141796	-0.416137	0.013943	0.011983	-0.018771	-160.829807	-87.503735	160.741061
41532	9.683108	-0.143940	-0.464344	0.005605	0.014237	-0.019019	-160.935979	-87.512661	160.851454
41533	9.691647	-0.175114	-0.381745	0.006911	0.013948	-0.016394	-161.003163	-87.520311	160.923076
41534	9.681339	-0.220677	-0.405799	0.004251	0.012718	-0.018176	-161.107422	-87.528243	161.030776
41535	9.734182	-0.211687	-0.392517	-0.003252	0.011853	-0.019658	-161.232430	-87.535353	161.153649
41536	9.773648	-0.183300	-0.480056	0.006703	0.013898	-0.020936	-161.366570	-87.544413	161.292663
41537	9.763695	-0.177297	-0.387933	0.010463	0.014787	-0.021067	-161.490460	-87.553470	161.424878
41538	9.759334	-0.168766	-0.420254	0.018573	0.011580	-0.023621	-161.663900	-87.561727	161.610032
41539	9.717011	-0.126479	-0.405732	0.018837	0.014356	-0.024303	-161.827266	-87.570971	161.785075
41540	9.655201	-0.087621	-0.353828	0.018771	0.011640	-0.019092	-161.944455	-87.578410	161.914040
41541	9.650807	-0.079451	-0.386520	0.008571	0.007723	-0.018878	-162.074471	-87.583057	162.048898
41542	9.693756	-0.097566	-0.413144	-0.005367	0.003820	-0.020272	-162.254685	-87.586411	162.227100
41543	9.789437	-0.108358	-0.427831	-0.012644	0.003908	-0.018956	-162.415171	-87.589014	162.380668
41544	9.831485	-0.166746	-0.426351	-0.016530	0.010830	-0.012676	-162.475220	-87.594848	162.432196
41545	9.831557	-0.164880	-0.425409	-0.009907	0.008771	-0.024136	-162.682199	-87.600995	162.634930
41546	9.793144	-0.149146	-0.363483	-0.000591	0.013999	-0.019642	-162.812409	-87.609735	162.765819
41547	9.740043	-0.174730	-0.360425	0.006621	0.011195	-0.015742	-162.891126	-87.615705	162.849668
41548	9.641369	-0.094240	-0.419916	0.001756	0.010647	-0.013706	-162.956749	-87.621594	162.917260
41549	9.670667	-0.062659	-0.417095	-0.004477	0.007667	-0.009081	-162.970801	-87.624563	162.928972
41550	9.676033	-0.028220	-0.410678	-0.014186	0.007475	-0.006748	-162.966770	-87.627544	162.917709
41551	9.742492	-0.070518	-0.426924	-0.026531	0.006956	-0.007939	-162.980009	-87.629842	162.915513
41552	9.813842	-0.099347	-0.423261	-0.022063	0.012543	-0.003144	-162.912092	-87.634994	162.835792
41553	9.779331	-0.162905	-0.429888	-0.006668	0.009262	-0.007003	-162.890743	-87.638416	162.812103
41554	9.735960	-0.162582	-0.387748	0.002382	0.011715	-0.001821	-162.794130	-87.642885	162.717679
41555	9.730691	-0.196056	-0.392292	-0.007308	0.012430	-0.001232	-162.685542	-87.647020	162.602780
41556	9.707278	-0.172738	-0.401275	-0.003548	0.013323	-0.001358	-162.578697	-87.652275	162.494715
41557	9.707327	-0.172624	-0.400123	-0.003812	0.010549	-0.000680	-162.467003	-87.655441	162.383469
41558	9.783546	-0.188196	-0.376478	-0.007268	0.014248	-0.004715	-162.402374	-87.661766	162.315524
41559	9.754379	-0.218014	-0.377081	-0.001297	0.014458	-0.008659	-162.377619	-87.668317	162.291018
41560	9.763687	-0.209959	-0.322531	0.001957	0.010709	-0.009166	-162.382049	-87.673479	162.297479
41561	9.730588	-0.213133	-0.370917	0.003547	0.014102	-0.008953	-162.361180	-87.680005	162.280129
41562	9.759873	-0.181747	-0.367829	0.008972	0.007853	-0.009798	-162.382361	-87.683717	162.307377
41563	9.722669	-0.107205	-0.348025	0.011666	0.010905	-0.011495	-162.404298	-87.688846	162.336522
41564	9.718330	-0.099973	-0.380773	0.007844	0.007288	-0.006150	-162.379294	-87.691616	162.316901
41565	9.713989	-0.092829	-0.413657	0.004125	0.008211	-0.009508	-162.389708	-87.694929	162.330808
41566	9.737050	-0.135191	-0.388559	0.001933	0.009802	-0.007432	-162.374584	-87.699295	162.317686
41567	9.752282	-0.124755	-0.458567	-0.000479	0.010434	-0.008157	-162.360739	-87.703656	162.304988
41568	9.727045	-0.180934	-0.411983	0.001932	0.009803	-0.007433	-162.345523	-87.708022	162.291773
41569	9.760673	-0.156251	-0.375258	0.001066	0.012011	-0.004463	-162.273106	-87.712593	162.221336
41570	9.731979	-0.166174	-0.390081	0.009450	0.011593	-0.007681	-162.248909	-87.717979	162.203444
41571	9.742126	-0.118111	-0.363515	0.014315	0.012147	-0.009714	-162.238302	-87.723426	162.202070
41572	9.747439	-0.083919	-0.356769	0.009387	0.008869	-0.002458	-162.154210	-87.726410	162.124200
41573	9.705334	-0.023779	-0.356783	-0.001629	0.008959	-0.002770	-162.073657	-87.728958	162.041902
41574	9.710629	0.010003	-0.350288	-0.012687	0.007233	0.000401	-161.969814	-87.730535	161.931607
41575	9.724512	-0.040422	-0.378710	-0.023725	0.006415	0.001828	-161.848821	-87.730950	161.799224
41576	9.744125	-0.037504	-0.415302	-0.032979	0.009044	0.008008	-161.643628	-87.732127	161.575865
41577	9.766229	-0.121224	-0.362576	-0.033702	0.003444	0.004821	-161.502545	-87.730341	161.415452
41578	9.727902	-0.159426	-0.417246	-0.031398	0.012443	0.008213	-161.277741	-87.733270	161.173374
41579	9.756666	-0.149588	-0.400334	-0.017362	0.006733	0.006967	-161.081634	-87.732766	160.967311
41580	9.755750	-0.190194	-0.371640	-0.006060	0.010325	0.004866	-160.897380	-87.735105	160.780342
41581	9.731846	-0.187747	-0.366870	0.001658	0.012160	0.009171	-160.633251	-87.737091	160.518597
41582	9.760608	-0.178047	-0.349688	-0.003408	0.011560	0.006653	-160.416216	-87.739697	160.300344
41583	9.727107	-0.202700	-0.384275	-0.005821	0.012193	0.005925	-160.200785	-87.742318	160.082985
41584	9.703198	-0.200141	-0.379698	0.000937	0.006559	0.005986	-160.014260	-87.742297	159.897759
41585	9.731460	-0.210545	-0.348855	0.001633	0.011252	0.010909	-159.730588	-87.743341	159.615973
41586	9.784629	-0.183969	-0.349473	0.002284	0.008086	0.005138	-159.547006	-87.744249	159.434464
41587	9.766493	-0.127864	-0.353061	0.007588	0.010554	0.008716	-159.291856	-87.745196	159.184491
41588	9.761222	-0.162402	-0.357968	0.003565	0.006885	0.009513	-159.053991	-87.744512	158.949392
41589	9.738290	-0.120308	-0.381495	0.006194	0.007210	0.013042	-158.759339	-87.742731	158.658412
41590	9.743101	-0.108066	-0.360974	0.001586	0.009436	0.014386	-158.443572	-87.742297	158.344214
41591	9.719687	-0.086329	-0.370460	-0.003524	0.007018	0.015349	-158.126270	-87.739801	158.023731
41592	9.714903	-0.101538	-0.389426	-0.008156	0.008336	0.018432	-157.768322	-87.737771	157.661733
41593	9.714909	-0.103418	-0.388789	-0.013290	0.005011	0.021134	-157.392440	-87.732808	157.276759
41594	9.738312	-0.128601	-0.378212	-0.010033	0.001258	0.020635	-157.047973	-87.726369	156.927173
41595	9.737774	-0.150764	-0.363910	-0.004468	0.006502	0.023530	-156.630006	-87.721348	156.503868
41596	9.732964	-0.166452	-0.382894	-0.009269	0.008683	0.020330	-156.250112	-87.718691	156.119263
41597	9.732959	-0.168430	-0.382153	-0.005773	0.006797	0.020891	-155.868613	-87.714269	155.732982
41598	9.756340	-0.193704	-0.371199	0.000399	0.007052	0.021502	-155.479732	-87.710278	155.344924
41599	9.704201	-0.183011	-0.396836	0.001723	0.007668	0.022394	-155.072668	-87.705821	154.938401
41600	9.727567	-0.208555	-0.385766	0.006784	0.008265	0.024910	-154.631622	-87.701408	154.501796
41601	9.737164	-0.183834	-0.345758	0.011124	0.003257	0.024246	-154.226376	-87.693829	154.099271
41602	9.708965	-0.176472	-0.375057	0.003311	0.011067	0.022600	-153.803132	-87.691184	153.678486
41603	9.738254	-0.148670	-0.372311	0.012368	0.001149	0.030352	-153.337689	-87.680820	153.218370
41604	9.796291	-0.110903	-0.353743	0.001853	0.005913	0.030395	-152.853950	-87.673249	152.736200
41605	9.830429	-0.070026	-0.331367	-0.011632	0.004854	0.032807	-152.355653	-87.663869	152.230588
41606	9.815361	-0.134023	-0.375833	-0.014648	0.010484	0.034355	-151.809032	-87.657206	151.676015
41607	9.737556	-0.181180	-0.355787	-0.018388	0.010511	0.032726	-151.285112	-87.650301	151.140600
41608	9.698509	-0.241815	-0.396371	-0.017066	0.011129	0.033613	-150.750856	-87.643747	150.597011
41609	9.645784	-0.252128	-0.407952	-0.019777	0.008087	0.035295	-150.219987	-87.634524	150.053675
41610	9.717508	-0.265262	-0.417732	-0.007979	0.015383	0.035326	-149.637060	-87.629165	149.466578
41611	9.716224	-0.308452	-0.388379	-0.008139	0.016243	0.029050	-149.124492	-87.625229	148.944993
41612	9.716188	-0.311316	-0.386989	-0.006003	0.012828	0.030455	-148.621005	-87.619613	148.438534
41613	9.701267	-0.303784	-0.328560	-0.008115	0.017157	0.027304	-148.125934	-87.616344	147.935676
41614	9.677325	-0.302852	-0.323392	-0.013390	0.015614	0.021987	-147.708853	-87.614309	147.511458
41615	9.691545	-0.335234	-0.365152	-0.012550	0.012492	0.020763	-147.324474	-87.610405	147.121724
41616	9.671115	-0.360366	-0.312693	-0.016015	0.015301	0.018456	-146.953641	-87.609076	146.742288
41617	9.714774	-0.361988	-0.352202	-0.017553	0.013730	0.014765	-146.634516	-87.607460	146.413392
41618	9.690851	-0.360111	-0.347191	-0.013548	0.016478	0.015709	-146.285515	-87.607376	146.057221
41619	9.735228	-0.341230	-0.400538	-0.016622	0.013335	0.008330	-146.043405	-87.607570	145.806773
41620	9.758504	-0.365042	-0.388855	-0.009241	0.015950	0.001845	-145.853365	-87.611551	145.612172
41621	9.739474	-0.348316	-0.363944	0.006663	0.016337	0.000189	-145.666667	-87.615605	145.427795
41622	9.743670	-0.354849	-0.328784	0.011271	0.014091	-0.001141	-145.512026	-87.619623	145.280387
41623	9.792949	-0.321312	-0.362263	0.021209	0.015204	-0.000628	-145.333325	-87.623358	145.113254
41624	9.760328	-0.254003	-0.308123	0.025003	0.016992	-0.002476	-145.162001	-87.629141	144.957025
41625	9.779494	-0.270497	-0.329785	0.018619	0.015799	-0.005896	-145.038508	-87.634911	144.844319
41626	9.755635	-0.266760	-0.324617	0.022350	0.015770	-0.004272	-144.897419	-87.640679	144.716829
41627	9.770011	-0.296682	-0.365871	0.017803	0.019835	-0.006421	-144.748032	-87.648496	144.576968
41628	9.769406	-0.316023	-0.350018	0.022441	0.018499	-0.009488	-144.642868	-87.657242	144.485488
41629	9.734574	-0.378994	-0.356202	0.029726	0.018391	-0.010767	-144.546838	-87.665816	144.404486
41630	9.701861	-0.381912	-0.404033	0.036133	0.020502	-0.009095	-144.411423	-87.675352	144.290581
41631	9.729314	-0.410815	-0.357550	0.051242	0.025846	-0.013022	-144.262290	-87.688104	144.173798
41632	9.726772	-0.291842	-0.314271	0.055904	0.025424	-0.017839	-144.173258	-87.702835	144.117653
41633	9.713232	-0.239590	-0.282526	0.053550	0.027888	-0.022066	-144.110806	-87.719528	144.084601
41634	9.729055	-0.156742	-0.248827	0.034498	0.021608	-0.022571	-144.120219	-87.734073	144.114705
41635	9.749011	-0.151791	-0.283955	0.019863	0.020007	-0.016543	-144.080729	-87.745340	144.083322
41636	9.720405	-0.160255	-0.298258	0.003592	0.018576	-0.022209	-144.129792	-87.758356	144.135385
41637	9.710996	-0.185397	-0.336012	0.000884	0.015531	-0.020518	-144.185454	-87.768897	144.191010
41638	9.728205	-0.260223	-0.315717	-0.003932	0.016810	-0.021991	-144.252654	-87.781015	144.256908
41639	9.757677	-0.227893	-0.311906	0.004609	0.015513	-0.018895	-144.287476	-87.790843	144.291462
41640	9.743581	-0.266755	-0.369557	0.004403	0.014550	-0.021690	-144.367125	-87.801803	144.374597
41641	9.748425	-0.251158	-0.348080	0.011305	0.021324	-0.019655	-144.357268	-87.814740	144.371731
41642	9.741175	-0.216539	-0.427438	0.019641	0.019065	-0.019351	-144.361036	-87.827020	144.387666
41643	9.773968	-0.210961	-0.375718	0.017138	0.016984	-0.014866	-144.326999	-87.836279	144.362521
41644	9.774768	-0.189654	-0.387505	0.032905	0.027063	-0.013907	-144.184439	-87.850458	144.239628
41645	9.826112	-0.221572	-0.343934	0.049159	0.028521	-0.008246	-143.946347	-87.862986	144.030495
41646	9.812358	-0.170559	-0.311881	0.058453	0.034673	-0.005494	-143.610555	-87.877794	143.728887
41647	9.722745	-0.103957	-0.302856	0.057727	0.036967	0.001971	-143.157229	-87.890530	143.304358
41648	9.728932	-0.050863	-0.307610	0.045563	0.036529	0.005243	-142.667971	-87.902306	142.841795
41649	9.802327	-0.021753	-0.342045	0.031895	0.043316	0.013717	-142.008898	-87.913516	142.200747
41650	9.787047	-0.104315	-0.368652	0.004122	0.045223	0.017955	-141.289101	-87.924302	141.483740
41651	9.752424	-0.261676	-0.459598	0.002208	0.050519	0.017556	-140.514624	-87.936747	140.708632
41652	9.716389	-0.367620	-0.434382	0.023283	0.051627	0.022949	-139.641133	-87.947793	139.848827
41653	9.694954	-0.412966	-0.363970	0.055189	0.052561	0.024166	-138.717789	-87.957791	138.952356
41654	9.713572	-0.361028	-0.279933	0.102849	0.051222	0.028947	-137.713285	-87.965365	138.007081
41655	9.755334	-0.226965	-0.289506	0.124696	0.048329	0.034834	-136.652901	-87.968268	137.015061
41656	9.782479	-0.062880	-0.256786	0.126316	0.050044	0.042963	-135.474610	-87.968516	135.909348
41657	9.669835	0.022330	-0.257937	0.114544	0.052505	0.049997	-134.199438	-87.965585	134.694736
41658	9.666968	0.135051	-0.214071	0.097806	0.042873	0.055463	-132.987174	-87.956122	133.538678
41659	9.790705	0.106260	-0.192537	0.034814	0.044956	0.064151	-131.710780	-87.942369	132.275960
41660	9.814817	0.004452	-0.278357	0.005868	0.048971	0.062240	-130.433627	-87.930474	131.002243
41661	9.815132	-0.179736	-0.270179	0.002441	0.049166	0.069639	-129.100724	-87.913941	129.671861
41662	9.721165	-0.311316	-0.277252	0.022326	0.050653	0.076883	-127.687436	-87.893938	128.271327
41663	9.707194	-0.360411	-0.331193	0.052535	0.047270	0.079631	-126.306665	-87.869731	126.915724
41664	9.756016	-0.263342	-0.259967	0.088021	0.047281	0.084165	-124.891682	-87.842737	125.551117
41665	9.742334	-0.128308	-0.139583	0.086404	0.056294	0.081211	-123.432737	-87.818292	124.134183
41666	9.723341	-0.034313	-0.202205	0.067852	0.051204	0.092529	-121.983329	-87.785939	122.723513
41667	9.710762	0.027521	-0.183446	0.052911	0.049494	0.089463	-120.634132	-87.752843	121.400902
41668	9.773714	0.072273	-0.140455	0.030217	0.050458	0.104131	-119.216565	-87.711926	120.000450
41669	9.792086	0.024616	-0.143955	-0.003722	0.051378	0.109402	-117.827793	-87.666735	118.605212
41670	9.772879	0.030894	-0.116135	-0.028957	0.052916	0.118786	-116.424809	-87.616330	117.185333
41671	9.733939	-0.038720	-0.152663	-0.056310	0.046412	0.127672	-115.133025	-87.557961	115.855712
41672	9.743912	-0.096739	-0.210050	-0.066959	0.046931	0.140729	-113.825663	-87.492048	114.509628
41673	9.690288	-0.071450	-0.281103	-0.078832	0.048634	0.149390	-112.538291	-87.420278	113.171588
41674	9.709545	-0.103822	-0.299319	-0.080145	0.045611	0.162598	-111.291818	-87.339922	111.878742
41675	9.690263	-0.102612	-0.272193	-0.072425	0.046828	0.177468	-110.048740	-87.250256	110.588627
41676	9.659505	-0.104528	-0.332209	-0.053629	0.047945	0.197200	-108.782659	-87.149144	109.291168
41677	9.677756	-0.023899	-0.311177	-0.027699	0.047095	0.219139	-107.532971	-87.034296	108.021332
41678	9.669017	0.136502	-0.219458	0.004681	0.048429	0.247180	-106.255378	-86.903172	106.745535
41679	9.679898	0.322291	-0.212301	0.017906	0.053370	0.277128	-104.953912	-86.754510	105.451095
41680	9.776332	0.560659	-0.202392	-0.012354	0.065597	0.293264	-103.625971	-86.597294	104.114725
41681	9.864586	0.678064	-0.105274	-0.061806	0.092066	0.307552	-102.183689	-86.433508	102.634524
41682	9.820723	0.675491	-0.103765	-0.114554	0.091554	0.318168	-100.881399	-86.261738	101.264716
41683	9.901552	0.518870	-0.089505	-0.196916	0.075703	0.358131	-99.822368	-86.063960	100.090701
41684	9.852927	0.254314	-0.154824	-0.259941	0.069886	0.400314	-98.895197	-85.840547	99.012805
41685	9.812333	0.086433	-0.291474	-0.257373	0.072417	0.432278	-98.022018	-85.598036	97.989655
41686	9.717276	-0.036490	-0.326117	-0.231641	0.084410	0.463964	-97.117771	-85.337301	96.950337
41687	9.671862	-0.053262	-0.325931	-0.192469	0.086510	0.497042	-96.261552	-85.056654	95.981119
41688	9.750014	0.094654	-0.408869	-0.154436	0.080876	0.521565	-95.498693	-84.760577	95.127306
41689	9.821550	0.310433	-0.475257	-0.110139	0.104323	0.549756	-94.650103	-84.448650	94.212331
41690	9.783645	0.376232	-0.382888	-0.099165	0.127409	0.575298	-93.747765	-84.121723	93.249290
41691	9.796610	0.318433	-0.283096	-0.123516	0.117996	0.599273	-93.004130	-83.779594	92.431135
41692	9.912098	0.296448	-0.237321	-0.161617	0.099704	0.629740	-92.444429	-83.418400	91.775648
41693	10.106602	0.070953	-0.204265	-0.211717	0.094393	0.664648	-91.998741	-83.036739	91.205458
41694	10.223090	0.054155	0.038474	-0.243136	0.100801	0.700438	-91.587488	-82.633939	90.651473
41695	10.340959	-0.047855	0.035374	-0.274979	0.114237	0.730303	-91.188196	-82.214082	90.090512
41696	10.293029	-0.281100	-0.019677	-0.339128	0.112475	0.760997	-90.876364	-81.775829	89.580302
41697	10.327001	-0.594269	-0.260124	-0.419009	0.084132	0.788471	-90.758878	-81.321762	89.219594
41698	10.709810	-0.674168	-0.631840	-0.409787	0.073690	0.829987	-90.693300	-80.843331	88.916459
41699	11.009910	0.080430	-0.870119	-0.198358	0.137511	0.885739	-90.314027	-80.333574	88.417577
41700	10.528796	0.643844	-0.492715	0.032024	0.217745	0.956371	-89.592989	-79.782065	87.705093
41701	10.318050	0.255218	0.147144	0.143826	0.204979	0.976071	-88.924746	-79.218524	87.110027
41702	10.536317	0.233607	0.494019	0.001831	0.159648	0.984624	-88.526400	-78.649069	86.706123
41703	10.649900	-0.231139	0.012665	-0.198639	0.123178	1.027096	-88.382838	-78.056230	86.444072
41704	10.768312	-0.811744	-0.500068	-0.212463	0.093055	1.066266	-88.345000	-77.440631	86.281702
41705	11.094278	-1.385794	-0.506356	-0.115006	0.076360	1.098825	-88.307141	-76.807476	86.175990
41706	11.430158	-2.128954	-0.516368	-0.038232	0.073865	1.119073	-88.238390	-76.161912	86.083677
41707	12.031275	-2.851631	-0.223637	0.141335	0.046742	1.111196	-88.137616	-75.522200	86.063959
41708	12.789192	-3.322395	-0.217014	0.437804	0.081339	1.106771	-87.800018	-74.883423	85.975160
41709	12.910028	-3.396670	-0.186032	0.788093	0.155610	1.113751	-87.134145	-74.239479	85.753502
41710	12.600179	-3.228375	0.100603	1.028518	0.187085	1.143837	-86.308099	-73.575693	85.508043
41711	12.136862	-3.003070	0.208472	1.168800	0.204938	1.178865	-85.417272	-72.891104	85.277758
41712	11.514525	-2.643928	-0.031918	1.224582	0.215674	1.164668	-84.514468	-72.212221	85.067837
41713	10.704059	-2.116953	-0.305609	1.191657	0.256477	1.094501	-83.589091	-71.570922	84.813266
41714	9.599685	-1.842546	-0.187815	1.107387	0.272377	1.001570	-82.703630	-70.979284	84.549222
41715	8.885825	-2.200326	0.227978	0.976807	0.231289	0.888136	-81.968081	-70.455073	84.363542
41716	8.753463	-2.715499	0.599596	0.845626	0.187266	0.765697	-81.369138	-70.002231	84.242896
41717	8.677266	-3.303332	0.452420	0.676384	0.136757	0.666855	-80.936247	-69.610492	84.195222
41718	8.383800	-3.875955	0.319424	0.593436	0.075916	0.585278	-80.628962	-69.269330	84.231137
41719	7.887780	-4.332215	0.563553	0.606855	0.021956	0.530622	-80.385441	-68.965230	84.343285
41720	7.297306	-4.484722	0.897002	0.646864	-0.033423	0.492403	-80.190322	-68.687208	84.532460
41721	6.630412	-4.323753	0.895304	0.563303	-0.136659	0.429159	-80.176146	-68.456020	84.864592
41722	6.016863	-4.182621	0.443843	0.423117	-0.262012	0.296542	-80.383315	-68.310728	85.349167
41723	5.585607	-4.267829	0.519120	0.509971	-0.327025	0.088292	-80.581585	-68.289451	85.877685
41724	5.594169	-4.102607	1.205937	0.808359	-0.295915	-0.143054	-80.509444	-68.394974	86.299365
41725	5.702155	-3.351447	1.518650	0.824278	-0.260812	-0.385799	-80.323164	-68.635328	86.607379
41726	6.216309	-2.800189	1.001831	0.684382	-0.297888	-0.624506	-80.213065	-69.013676	86.910785
41727	6.954435	-2.293477	0.672654	0.654564	-0.338521	-0.823007	-80.135535	-69.508872	87.229591
41728	7.295352	-1.936765	0.857864	0.708842	-0.322553	-0.954940	-79.971380	-70.076548	87.488400
41729	7.057156	-1.431889	1.345851	0.695571	-0.311990	-1.052519	-79.774791	-70.699121	87.703478
41730	6.774691	-1.106196	1.729915	0.506311	-0.344256	-1.178330	-79.704306	-71.395441	87.936625
41731	6.676781	-1.036515	1.709165	0.243690	-0.410549	-1.319877	-79.866677	-72.178939	88.255269
41732	6.874510	-1.125721	1.493514	0.053506	-0.489305	-1.454563	-80.263793	-73.045057	88.704453
41733	7.401070	-1.193249	1.296657	-0.068241	-0.516447	-1.589485	-80.789094	-73.989603	89.212228
41734	8.094730	-1.362435	1.167192	-0.192806	-0.480846	-1.719461	-81.334553	-75.002436	89.664554
41735	8.414020	-1.611656	1.076226	-0.359785	-0.409771	-1.833079	-81.852928	-76.073301	89.987758
41736	8.342215	-1.878339	0.998773	-0.526220	-0.360855	-1.918762	-82.388548	-77.187409	90.229298
41737	8.273677	-2.006805	0.841178	-0.612081	-0.355798	-1.991336	-83.011195	-78.342534	90.508330
41738	8.325416	-2.045591	0.766974	-0.612654	-0.374058	-2.052668	-83.766303	-79.532220	90.920943
41739	8.365371	-2.008992	0.540095	-0.560676	-0.395352	-2.113547	-84.693687	-80.757289	91.536911
41740	8.552001	-1.828644	0.382963	-0.492046	-0.406421	-2.188410	-85.834126	-82.022817	92.406056
41741	8.864381	-1.610707	0.202306	-0.407973	-0.387514	-2.274745	-87.187802	-83.334647	93.535905
41742	9.310590	-1.356876	0.136793	-0.292116	-0.343496	-2.363619	-88.790279	-84.691689	94.979673
41743	9.683473	-1.045419	0.100711	-0.197220	-0.289590	-2.431878	-90.936845	-86.082880	97.020500
41744	9.905981	-0.709717	-0.092112	-0.122111	-0.239040	-2.472962	-94.704207	-87.488562	100.724336
41745	9.946494	-0.430887	-0.149497	-0.043142	-0.213831	-2.479175	-106.944195	-88.865529	112.945681
41746	9.962798	-0.115631	-0.165604	0.018637	-0.202498	-2.483929	143.250401	-89.441062	-137.232134
41747	9.913812	0.117946	-0.164729	0.047186	-0.204950	-2.480239	107.940178	-88.158035	-101.888856
41748	9.879150	0.222804	-0.123368	0.035268	-0.209443	-2.476157	102.284669	-86.758343	-96.207083
41749	9.969876	0.406567	-0.107314	-0.004773	-0.216330	-2.464094	100.101314	-85.351535	-94.020617
41750	9.977269	0.600292	-0.151608	-0.092403	-0.210435	-2.448220	98.869985	-83.951220	-92.836269
41751	10.018861	0.732601	-0.081880	-0.171021	-0.216287	-2.417638	98.097202	-82.565455	-92.155985
41752	10.133825	0.830299	-0.023282	-0.221535	-0.218973	-2.366315	97.559901	-81.208423	-91.740594
41753	10.223625	0.945031	0.022409	-0.298754	-0.213528	-2.302532	97.117428	-79.887005	-91.464725
41754	10.133579	1.049530	-0.204266	-0.407660	-0.194748	-2.228559	96.669970	-78.609229	-91.246128
41755	9.944154	1.089401	-0.280408	-0.455270	-0.199721	-2.145435	96.300324	-77.377661	-91.134037
41756	9.816353	1.130739	-0.276514	-0.463449	-0.215583	-2.063934	96.025104	-76.191967	-91.123179
41757	9.748787	1.097072	-0.286137	-0.442326	-0.219417	-1.973211	95.812559	-75.057277	-91.164496
41758	9.778493	1.069756	-0.342676	-0.435897	-0.200474	-1.878539	95.596004	-73.978159	-91.198018
41759	9.828002	1.028472	-0.489075	-0.414925	-0.187756	-1.773889	95.397896	-72.959073	-91.238433
41760	9.929406	1.143661	-0.612675	-0.364823	-0.181129	-1.649412	95.244585	-72.011782	-91.295921
41761	9.980021	1.317441	-0.635692	-0.309094	-0.173165	-1.510586	95.135332	-71.143873	-91.366479
41762	9.859157	1.505941	-0.752997	-0.260446	-0.178748	-1.353214	95.085943	-70.365807	-91.471274
41763	9.805649	1.675921	-0.742373	-0.196047	-0.207635	-1.186101	95.138873	-69.681447	-91.646124
41764	9.794216	1.762881	-0.553152	-0.115206	-0.214192	-1.021304	95.261943	-69.090874	-91.847176
41765	9.695200	1.900161	-0.520090	-0.074628	-0.207201	-0.843431	95.414155	-68.601889	-92.055220
41766	9.570176	2.031746	-0.655738	-0.081859	-0.196404	-0.659696	95.563947	-68.218178	-92.265789
41767	9.482630	1.978596	-0.687132	-0.023831	-0.200963	-0.467730	95.774849	-67.943419	-92.506808
41768	9.606092	1.977829	-0.573654	0.077962	-0.193364	-0.271088	96.055990	-67.780792	-92.761131
41769	9.652703	2.018875	-0.546869	0.113926	-0.164790	-0.058511	96.347624	-67.740636	-93.004627
41770	9.553677	2.065931	-0.613365	0.112671	-0.148679	0.144506	96.647305	-67.816530	-93.257647
41771	9.585251	2.076852	-0.720366	0.119874	-0.157666	0.364163	97.004015	-68.016411	-93.567409
41772	9.757482	2.542966	-0.923545	0.138473	-0.185435	0.577253	97.455685	-68.334401	-93.967519
41773	9.967258	4.025206	-1.624330	-0.012038	-0.308545	0.676467	98.032753	-68.698126	-94.594006
41774	10.015665	5.585210	-3.434791	-0.339084	-0.451647	0.575365	98.629043	-68.990035	-95.440744
41775	9.849310	7.223205	-1.949164	0.044691	-0.502110	0.360423	99.489371	-69.152048	-96.333332
41776	9.865053	8.717906	0.440115	0.307500	-0.398547	0.074827	100.281517	-69.158246	-96.991472
41777	9.989403	7.872690	1.773637	0.313336	-0.226088	-0.209319	100.744085	-69.019792	-97.293409
41778	10.218359	6.233918	3.015505	0.344467	0.028099	-0.203111	100.849527	-68.911628	-97.193962
41779	9.740590	5.153478	2.987512	-0.269454	0.247115	0.082611	100.362560	-68.987170	-96.836608
41780	8.839539	3.899155	0.881188	-1.098920	0.150629	0.385196	99.616379	-69.222656	-96.710900
41781	8.990187	2.881900	-1.084948	-1.046856	-0.270927	0.525244	99.561918	-69.496501	-97.292706
41782	10.446203	3.494078	-0.803000	-0.442968	-0.473397	0.590538	100.190580	-69.786491	-98.233005
41783	11.044160	4.303345	0.048359	-0.339768	-0.293051	0.624462	100.631770	-70.111007	-98.908949
41784	10.088979	4.468273	0.574718	-0.644972	-0.047847	0.574993	100.512148	-70.432973	-99.173499
41785	9.012750	4.186359	-0.173786	-0.906668	0.008787	0.490032	100.127459	-70.713035	-99.315510
41786	8.933510	3.562115	-1.348599	-0.915781	-0.079460	0.495489	99.880190	-70.987864	-99.608246
41787	9.398055	2.817014	-1.572471	-0.782552	-0.168394	0.566967	99.879607	-71.294250	-100.080522
41788	9.727372	1.752984	-1.624738	-0.650849	-0.190317	0.613523	100.014482	-71.624817	-100.615155
41789	9.895738	0.959559	-1.621239	-0.398668	-0.181072	0.637281	100.299198	-71.968877	-101.154394
41790	10.017283	1.385367	-1.831564	-0.239109	-0.169071	0.707202	100.694367	-72.352793	-101.712496
41791	9.693948	1.972500	-2.118023	-0.089232	-0.187740	0.774631	101.255901	-72.771038	-102.353714
41792	9.460010	1.934672	-1.620353	0.175152	-0.271617	0.748996	102.145084	-73.162817	-103.177787
41793	9.717140	1.699307	-0.711776	0.437528	-0.261656	0.672899	103.175092	-73.509117	-103.990303
41794	9.832609	1.565457	-0.219323	0.433558	-0.170098	0.658329	104.058365	-73.855806	-104.650872
41795	9.662017	1.656202	0.020223	0.301132	-0.111520	0.685860	104.798679	-74.223438	-105.240443
41796	9.521416	1.948010	0.449081	0.190317	-0.139197	0.702838	105.570187	-74.594170	-105.927279
41797	9.529860	2.183556	0.514877	0.067338	-0.196658	0.704277	106.424907	-74.953986	-106.772139
41798	9.598936	2.101219	0.231324	-0.031485	-0.208484	0.676442	107.269443	-75.293228	-107.663697
41799	9.486386	2.205290	-0.196223	-0.119880	-0.174747	0.642196	108.008365	-75.616480	-108.497090
41800	9.315678	2.169691	-0.630401	-0.177479	-0.159546	0.624347	108.703257	-75.930077	-109.317944
41801	9.283964	2.194456	-0.815598	-0.201897	-0.171628	0.613336	109.436714	-76.232967	-110.191813
41802	9.258636	2.106455	-1.038928	-0.267246	-0.169546	0.600202	110.152212	-76.526444	-111.084641
41803	9.181205	1.784485	-1.149313	-0.277867	-0.180578	0.583085	110.907727	-76.805846	-112.023754
41804	9.182873	1.448114	-1.230188	-0.239300	-0.202204	0.556476	111.746842	-77.063453	-113.024997
41805	9.201709	1.149912	-1.313104	-0.178681	-0.219927	0.538729	112.682788	-77.304326	-114.088896
41806	9.378454	1.011169	-1.261359	-0.049995	-0.221115	0.524203	113.718377	-77.533132	-115.178390
41807	9.511615	1.022284	-1.101677	0.094986	-0.204925	0.510829	114.824222	-77.754372	-116.253782
41808	9.551705	1.125453	-0.993889	0.206008	-0.185669	0.500508	115.974229	-77.970352	-117.308431
41809	9.448901	1.331141	-0.818044	0.279490	-0.192408	0.506811	117.231731	-78.183235	-118.429024
41810	9.632622	1.710318	-0.658450	0.304891	-0.199784	0.512727	118.571688	-78.391731	-119.618150
41811	9.808183	2.093503	-0.444091	0.240430	-0.203785	0.535873	119.963507	-78.604980	-120.896942
41812	9.759367	2.302400	-0.190382	0.095803	-0.185850	0.551098	121.299089	-78.824732	-122.201963
41813	9.573451	2.251616	0.034108	-0.034291	-0.181847	0.546453	122.594989	-79.037619	-123.541486
41814	9.518822	2.098990	-0.199578	-0.159734	-0.168063	0.537762	123.819581	-79.244859	-124.880677
41815	9.568915	1.939267	-0.744015	-0.280422	-0.159347	0.529840	124.988634	-79.445954	-126.232777
41816	9.514645	1.757695	-1.070178	-0.364596	-0.157818	0.543208	126.177510	-79.648513	-127.653223
41817	9.353801	1.357027	-1.345407	-0.375909	-0.191366	0.551020	127.511875	-79.837480	-129.227194
41818	9.513491	0.794056	-1.428549	-0.302695	-0.237735	0.560599	129.078636	-80.007067	-130.993738
41819	9.713318	0.116359	-1.660534	-0.214107	-0.228577	0.545381	130.697457	-80.164735	-132.760687
41820	9.829909	-0.317373	-1.534405	0.033284	-0.170997	0.506821	132.281747	-80.319079	-134.347970
41821	9.832599	-0.415531	-1.306209	0.245606	-0.110854	0.449300	133.755953	-80.465694	-135.699461
41822	9.646424	-0.337377	-1.120247	0.411629	-0.103533	0.408273	135.249230	-80.592502	-136.973357
41823	9.755384	0.020255	-0.948378	0.454669	-0.122571	0.393151	136.813045	-80.699948	-138.293248
41824	9.790137	0.444549	-1.110913	0.352685	-0.123270	0.402410	138.375167	-80.804651	-139.670295
41825	9.663408	0.814278	-1.230854	0.211607	-0.139266	0.387455	139.886746	-80.891008	-141.077569
41826	9.475940	1.005619	-1.301111	0.107399	-0.150520	0.357728	141.305019	-80.955661	-142.450601
41827	9.322116	0.966326	-1.335521	-0.007360	-0.169793	0.314683	142.597049	-80.991423	-143.762109
41828	9.375287	0.703300	-1.230487	-0.092359	-0.193169	0.276216	143.785343	-80.998651	-145.017902
41829	9.469556	0.429688	-1.159061	-0.157856	-0.220418	0.249872	144.918141	-80.980543	-146.255435
41830	9.685223	0.248497	-1.517856	-0.159468	-0.226423	0.242705	146.033310	-80.953348	-147.476215
41831	9.726606	-0.011096	-1.958748	-0.132832	-0.173353	0.220350	146.987711	-80.941119	-148.518721
41832	9.511387	-0.100383	-1.811189	-0.039112	-0.169810	0.189495	147.889945	-80.918306	-149.454164
41833	9.474304	0.242036	-1.584177	0.052364	-0.223457	0.185041	148.927686	-80.865594	-150.473758
41834	9.695500	0.585012	-1.640752	0.110746	-0.210669	0.182841	149.954598	-80.815544	-151.448751
41835	9.733854	0.748164	-1.614537	0.110128	-0.172370	0.175726	150.885227	-80.780019	-152.326573
41836	9.706424	0.785291	-1.541082	0.082439	-0.162687	0.166132	151.744269	-80.744445	-153.148139
41837	9.762371	0.902333	-1.543633	0.005393	-0.151599	0.175169	152.565667	-80.715050	-153.976256
41838	9.749433	0.878167	-1.701010	-0.040345	-0.131476	0.171976	153.311229	-80.693202	-154.754254
41839	9.658984	0.755312	-1.948577	0.002889	-0.119573	0.145300	153.978800	-80.669179	-155.428059
41840	9.662112	0.665846	-2.031535	0.076786	-0.118919	0.134915	154.648749	-80.641601	-156.061521
41841	9.602931	0.749436	-1.699105	0.092984	-0.114823	0.154731	155.383398	-80.619695	-156.751092
41842	9.601659	0.823021	-1.437607	0.117445	-0.112609	0.162841	156.148363	-80.599384	-157.457333
41843	9.910835	0.774379	-1.517285	0.092256	-0.107836	0.176417	156.935069	-80.583108	-158.200173
41844	10.119956	0.550668	-1.568208	0.116727	-0.070286	0.189817	157.723859	-80.587993	-158.931031
41845	9.801542	0.639393	-1.741648	0.141471	-0.034614	0.206648	158.539206	-80.613740	-159.674300
41846	9.539071	0.665371	-1.886043	0.146786	-0.036686	0.202614	159.348392	-80.635856	-160.408291
41847	9.565218	0.623777	-1.792034	0.120544	-0.037297	0.201208	160.144926	-80.655634	-161.144551
41848	9.608871	0.403171	-1.884259	0.074813	-0.045670	0.196968	160.911144	-80.668505	-161.876710
41849	9.639100	0.212410	-1.839903	0.101456	-0.042213	0.202003	161.710272	-80.682469	-162.626622
41850	9.636991	0.320226	-1.781115	0.206642	-0.033272	0.201234	162.557119	-80.699517	-163.363884
41851	9.532438	0.497416	-1.554813	0.222246	-0.029487	0.186450	163.365122	-80.714327	-164.052592
41852	9.398906	0.790321	-1.463454	0.218678	-0.049074	0.184499	164.182662	-80.716581	-164.753119
41853	9.485224	1.081093	-1.594685	0.151476	-0.053089	0.192842	164.996627	-80.716158	-165.488940
41854	9.784642	1.043767	-1.899366	0.076819	-0.054502	0.197803	165.782895	-80.714138	-166.240138
41855	9.885524	0.521994	-1.608915	0.106644	-0.017922	0.223153	166.645088	-80.734038	-167.050849
41856	9.383385	-0.044278	-1.185749	0.174656	-0.002008	0.214743	167.506100	-80.759940	-167.820913
41857	9.473684	-0.174554	-1.666834	0.132001	-0.035783	0.217131	168.381956	-80.765167	-168.630656
41858	9.736903	0.207847	-1.642541	0.158179	-0.029670	0.216627	169.265255	-80.771940	-169.432818
41859	9.667430	0.113494	-1.694610	0.119044	-0.006032	0.197840	170.050084	-80.788061	-170.157821
41860	9.615746	-0.138641	-1.634893	0.125271	0.000314	0.172475	170.746160	-80.804015	-170.789357
41861	9.559795	-0.285076	-1.336827	0.159497	-0.008927	0.159550	171.426395	-80.812194	-171.384865
41862	9.558174	-0.077781	-1.313480	0.170312	-0.017721	0.167128	172.142076	-80.815034	-172.010086
41863	9.548341	0.430549	-1.414075	0.130776	-0.016487	0.175344	172.866578	-80.817759	-172.667086
41864	9.540475	0.640023	-1.516518	0.068438	-0.012904	0.174429	173.548227	-80.821355	-173.316950
41865	9.472950	0.458137	-1.530814	-0.009753	-0.009561	0.163231	174.147430	-80.824825	-173.928581
41866	9.515277	0.106490	-1.550677	-0.072936	-0.012272	0.160671	174.700020	-80.825813	-174.529754
41867	9.596866	-0.258972	-1.511234	-0.062674	-0.004514	0.157641	175.248142	-80.829963	-175.120351
41868	9.510206	-0.422370	-1.499198	-0.004884	0.002937	0.151956	175.805218	-80.837405	-175.686560
41869	9.422036	-0.172663	-1.535698	0.048557	-0.000920	0.140551	176.356888	-80.841126	-176.216170
41870	9.495991	0.254207	-1.599819	-0.013442	-0.023399	0.136013	176.858996	-80.831260	-176.731662
41871	9.852747	-0.088851	-1.484892	-0.071456	-0.042162	0.130601	177.313343	-80.809610	-177.232370
41872	9.937552	-0.268497	-1.396686	0.005172	-0.023169	0.138400	177.831615	-80.798553	-177.753479
41873	9.710141	-0.182909	-1.611853	0.032314	-0.021360	0.138261	178.366176	-80.787562	-178.275251
41874	9.649986	0.118912	-1.666091	0.039968	-0.033332	0.143037	178.918775	-80.769193	-178.810977
41875	9.748739	0.034956	-1.653651	0.013292	-0.035906	0.149325	179.478789	-80.748355	-179.369627
41876	9.759527	-0.201625	-1.719001	0.071337	-0.012735	0.150482	-179.929063	-80.740111	-179.927266
41877	9.717520	-0.273707	-1.664776	0.125735	0.002271	0.161043	-179.266450	-80.739215	179.475374
41878	9.686654	-0.107753	-1.567609	0.137835	-0.000580	0.163691	-178.590695	-80.735766	178.871618
41879	9.748229	0.157788	-1.638618	0.143278	0.001980	0.166910	-177.898076	-80.732331	178.254031
41880	9.710446	0.329549	-1.574629	0.125765	0.016821	0.170776	-177.202650	-80.736332	177.623331
41881	9.595875	0.308774	-1.435892	0.083860	0.018789	0.167404	-176.539632	-80.740117	177.001244
41882	9.470835	0.217530	-1.398123	0.031201	0.018058	0.169567	-175.901463	-80.742514	176.373673
41883	9.472285	0.078850	-1.528251	-0.032381	0.010168	0.181235	-175.258525	-80.738516	175.704449
41884	9.539650	-0.117534	-1.577860	-0.070089	0.007801	0.187859	-174.617814	-80.731874	175.015489
41885	9.601012	-0.347763	-1.632405	-0.095756	0.017249	0.190067	-173.979361	-80.729004	174.313996
41886	9.620373	-0.538245	-1.668608	-0.097999	0.026923	0.181336	-173.371447	-80.731220	173.642054
41887	9.548406	-0.638868	-1.610393	-0.079188	0.030196	0.170287	-172.787243	-80.734670	173.005153
41888	9.509188	-0.767615	-1.511514	-0.063192	0.033110	0.155881	-172.244551	-80.740109	172.419515
41889	9.504528	-0.721181	-1.550764	-0.033143	0.026925	0.146038	-171.718968	-80.741673	171.868761
41890	9.386846	-0.350999	-1.500709	0.032121	-0.004193	0.139865	-171.196467	-80.725597	171.358908
41891	9.635452	0.233589	-1.521636	0.063252	-0.040674	0.131254	-170.705839	-80.688648	170.899489
41892	9.934308	0.531776	-1.232231	-0.004223	-0.042248	0.146724	-170.207918	-80.648987	170.393348
41893	9.987497	0.410243	-1.178664	-0.042815	-0.024810	0.167988	-169.650763	-80.616007	169.804803
41894	9.782094	0.316730	-1.614772	-0.030111	-0.016627	0.198671	-168.983164	-80.583629	169.111539
41895	9.679418	0.194154	-1.755129	-0.043761	-0.008288	0.224009	-168.234910	-80.551409	168.328605
41896	9.736072	-0.021259	-1.825716	-0.071333	0.001221	0.231800	-167.476503	-80.522158	167.519209
41897	9.783083	-0.526304	-1.967836	-0.041517	0.027402	0.237387	-166.664970	-80.504716	166.673290
41898	9.790395	-0.709781	-1.853567	0.013089	0.040206	0.238403	-165.813004	-80.492518	165.817987
41899	9.632407	-0.673254	-1.708313	0.047551	0.036940	0.244850	-164.923582	-80.475130	164.944763
41900	9.505826	-0.480321	-1.812058	0.059194	0.022720	0.247697	-164.036600	-80.447526	164.080646
41901	9.528960	-0.327021	-1.725598	0.069407	0.024845	0.250228	-163.137011	-80.418128	163.209680
41902	9.595404	-0.274449	-1.615006	0.051644	0.031592	0.249171	-162.251292	-80.390677	162.342312
41903	9.585105	-0.228625	-1.594783	0.002426	0.043597	0.258593	-161.354296	-80.365495	161.434905
41904	9.571174	-0.296244	-1.523519	-0.062395	0.043808	0.264404	-160.482139	-80.337337	160.514880
41905	9.628715	-0.442892	-1.612037	-0.073475	0.049129	0.271416	-159.592073	-80.307970	159.570232
41906	9.548851	-0.386130	-1.571696	-0.063951	0.054286	0.275283	-158.685346	-80.278427	158.614072
41907	9.531259	-0.334317	-1.583176	-0.076110	0.051537	0.283946	-157.766952	-80.242675	157.638969
41908	9.520332	-0.213175	-1.708753	-0.071442	0.046872	0.291448	-156.837458	-80.200488	156.655147
41909	9.548081	-0.050366	-1.816176	-0.075521	0.050816	0.310912	-155.853737	-80.152766	155.613832
41910	9.505464	-0.262136	-1.948576	-0.165689	0.042317	0.327489	-154.895193	-80.094004	154.545418
41911	9.731543	-0.470026	-2.035811	-0.115081	0.038461	0.352679	-153.851089	-80.023457	153.419400
41912	9.714117	-0.345671	-2.103165	-0.064638	0.046137	0.383950	-152.693263	-79.945416	152.206960
41913	9.503520	-0.173754	-1.878763	-0.003877	0.040746	0.401571	-151.477638	-79.855191	150.970877
41914	9.456339	-0.034606	-1.699442	0.037509	0.024043	0.446259	-150.164335	-79.739741	149.659225
41915	9.426452	0.162668	-1.601302	0.089553	0.031104	0.500958	-148.693358	-79.605849	148.217095
41916	9.336445	0.207814	-1.720330	0.073345	0.022773	0.540323	-147.181476	-79.449627	146.723255
41917	9.714574	0.125883	-1.447512	0.014263	0.032232	0.580744	-145.630929	-79.277552	145.154811
41918	10.100598	-0.362241	-1.497176	-0.107380	0.057877	0.594618	-144.121157	-79.105602	143.556054
41919	10.206155	-1.051772	-1.544204	-0.192962	0.115026	0.572900	-142.658612	-78.959328	141.954559
41920	9.896062	-1.672163	-1.340013	-0.155181	0.126547	0.550099	-141.245474	-78.819017	140.424736
41921	9.405681	-2.005004	-1.252073	-0.109030	0.127577	0.546433	-139.850030	-78.673008	138.939117
41922	9.053472	-1.960449	-1.346589	-0.075340	0.107595	0.542003	-138.518968	-78.513441	137.538117
41923	9.143711	-1.559787	-1.365779	-0.030507	0.072606	0.540753	-137.269469	-78.332961	136.245718
41924	9.304271	-1.240675	-1.454520	-0.025564	0.069555	0.542223	-136.058761	-78.145426	134.995007
41925	9.362089	-1.040643	-1.638361	-0.012129	0.067227	0.557868	-134.854439	-77.945001	133.757772
41926	9.400251	-0.813932	-1.737787	-0.024368	0.080116	0.575098	-133.640910	-77.737612	132.503036
41927	9.577037	-0.844157	-1.761347	-0.070685	0.094345	0.581378	-132.457589	-77.527371	131.251016
41928	9.980351	-1.159083	-1.825340	-0.124227	0.096857	0.568364	-131.361807	-77.318654	130.056290
41929	10.161938	-1.766996	-1.824570	-0.107303	0.104962	0.546918	-130.313839	-77.117156	128.919507
41930	10.298940	-2.072319	-1.596580	-0.018194	0.115515	0.533134	-129.249581	-76.921277	127.817565
41931	10.225146	-2.110456	-1.350738	0.038528	0.118050	0.525299	-128.193057	-76.724974	126.755997
41932	10.046918	-1.783012	-1.501925	0.100975	0.100072	0.516024	-127.178868	-76.522525	125.773921
41933	10.006965	-1.326074	-1.486300	0.118002	0.097858	0.506482	-126.203021	-76.319506	124.840420
41934	10.023855	-1.197757	-1.598136	0.074530	0.094771	0.515224	-125.273192	-76.108051	123.927905
41935	9.990022	-1.213728	-1.843931	0.065112	0.099001	0.524859	-124.357038	-75.889725	123.022988
41936	9.909011	-1.475007	-1.979094	0.056770	0.079651	0.533787	-123.497620	-75.657844	122.170864
41937	10.155440	-2.044803	-1.582618	0.126630	0.065350	0.534089	-122.653085	-75.418038	121.374437
41938	10.753278	-2.246985	-1.081948	0.340383	0.098409	0.558554	-121.623706	-75.173433	120.512762
41939	10.398286	-2.358115	-0.684797	0.477117	0.168597	0.552224	-120.426620	-74.948259	119.557547
41940	9.747181	-2.047754	-0.746606	0.433741	0.163126	0.568882	-119.277767	-74.708449	118.625630
41941	9.764209	-1.455056	-0.773955	0.479814	0.136441	0.608157	-118.146052	-74.436583	117.737628
41942	10.058324	-1.313960	-0.901414	0.387297	0.140257	0.626989	-117.076332	-74.151845	116.857868
41943	9.743032	-1.733288	-1.071375	0.301761	0.171024	0.618430	-116.043267	-73.874953	115.963913
41944	9.599441	-2.158209	-1.161981	0.323696	0.163031	0.628294	-115.035225	-73.586742	115.107961
41945	9.664709	-2.367529	-1.146038	0.379511	0.176714	0.645434	-113.991362	-73.288539	114.246580
41946	9.511085	-2.528480	-0.992255	0.431800	0.186007	0.677019	-112.911002	-72.971409	113.377109
41947	9.421532	-2.793534	-0.832857	0.482410	0.186084	0.681626	-111.835123	-72.647122	112.541056
41948	9.457322	-2.867621	-0.792432	0.535275	0.181011	0.682839	-110.770984	-72.316612	111.747715
41949	9.498244	-2.653870	-0.656111	0.623138	0.182163	0.690852	-109.685026	-71.977566	110.982732
41950	9.592382	-2.577901	-0.519030	0.684355	0.187650	0.693484	-108.586983	-71.633748	110.240594
41951	9.653488	-2.257601	-0.523837	0.721551	0.216742	0.695743	-107.454056	-71.289406	109.482533
41952	9.580423	-1.977576	-0.466320	0.687592	0.239792	0.701966	-106.333935	-70.940817	108.716016
41953	9.457123	-1.914479	-0.462548	0.596557	0.252430	0.704560	-105.278895	-70.588182	107.961432
41954	9.457051	-1.904232	-0.679636	0.540597	0.261296	0.723898	-104.265590	-70.221638	107.215573
41955	9.626101	-1.933139	-0.799194	0.443687	0.297599	0.742964	-103.277623	-69.845254	106.435716
41956	9.650208	-2.184226	-0.564993	0.395843	0.331774	0.765235	-102.289878	-69.456086	105.625084
41957	9.529734	-2.427812	-0.644779	0.360217	0.350999	0.778809	-101.323927	-69.057017	104.813681
41958	9.449057	-2.752261	-0.723682	0.349694	0.344276	0.790979	-100.402722	-68.645487	104.041748
41959	9.484751	-2.816229	-0.720622	0.371647	0.325252	0.802266	-99.525666	-68.221642	103.328438
41960	9.592238	-2.990963	-0.617497	0.447908	0.323905	0.816993	-98.633440	-67.785083	102.643921
41961	9.548025	-3.061296	-0.566500	0.545497	0.349778	0.826711	-97.679383	-67.341348	101.950669
41962	9.476462	-2.883211	-0.471968	0.634366	0.373638	0.845240	-96.670629	-66.884011	101.251219
41963	9.425181	-2.542960	-0.303417	0.690360	0.385038	0.870530	-95.645029	-66.408569	100.565738
41964	9.404951	-2.123555	-0.077630	0.697022	0.396557	0.907700	-94.629546	-65.907381	99.893128
41965	9.377437	-1.813676	0.094769	0.636748	0.408835	0.943896	-93.664182	-65.381841	99.234720
41966	9.309777	-1.786011	0.317788	0.488910	0.410595	0.980335	-92.811020	-64.830819	98.603990
41967	9.416426	-2.132324	0.535628	0.401446	0.408773	1.023369	-92.039371	-64.251983	98.004895
41968	9.329228	-2.560597	0.357899	0.404427	0.419384	1.065791	-91.281663	-63.645067	97.420432
41969	9.430738	-2.836550	0.260019	0.452173	0.408334	1.095555	-90.538902	-63.018372	96.879976
41970	9.768396	-2.880042	0.649760	0.529676	0.407417	1.144319	-89.781407	-62.359932	96.370028
41971	9.961458	-2.722025	0.620121	0.591197	0.423823	1.190876	-89.001195	-61.672416	95.870922
41972	10.024091	-2.245575	0.245472	0.590068	0.427651	1.244504	-88.248369	-60.950282	95.399181
41973	9.887930	-1.472283	0.368107	0.590372	0.447189	1.328541	-87.508107	-60.177639	94.938428
41974	9.929552	-1.983586	0.873234	0.591279	0.436592	1.418925	-86.811407	-59.349884	94.525202
41975	10.158450	-2.764534	1.078748	0.616396	0.359076	1.479716	-86.204901	-58.488849	94.230254
41976	10.699698	-2.797501	0.727815	0.449136	0.269625	1.526231	-85.799796	-57.602402	94.057164
41977	10.962348	-2.999063	0.206667	0.308220	0.243058	1.584423	-85.516115	-56.684575	93.930560
41978	10.607982	-3.163314	-0.208047	0.203587	0.205630	1.625777	-85.336404	-55.743320	93.855766
41979	10.572629	-3.220044	-0.508925	0.085971	0.088753	1.674381	-85.328036	-54.781116	93.906372
41980	10.765061	-3.593950	-0.566157	-0.036081	0.041977	1.727396	-85.427592	-53.789349	94.004626
41981	10.270913	-4.458821	-0.642547	-0.036017	0.015217	1.729685	-85.542519	-52.798975	94.123034
41982	9.598936	-5.098140	-0.914898	0.067863	-0.030546	1.660784	-85.622271	-51.848262	94.274054
41983	9.198978	-5.381814	-1.212298	0.283619	-0.055672	1.533722	-85.585305	-50.972917	94.435400
41984	9.060241	-5.348673	-0.996993	0.448055	-0.051256	1.375907	-85.440242	-50.185968	94.581097
41985	8.848921	-5.313110	-0.743927	0.419635	-0.028201	1.240821	-85.288266	-49.477132	94.697518
41986	8.420254	-5.355083	-0.848360	0.202933	-0.037281	1.163058	-85.261009	-48.811453	94.816393
41987	8.054347	-5.617167	-1.133433	0.023723	-0.101129	1.123667	-85.373398	-48.173067	94.985205
