// General information: 
//  MT Manager version: 2022.2.0 
//  XDA version: 2022.2.0 build 7381 rev 124627 built on 2023-07-19
// Device information: 
//  DeviceId: 00B4BB4F
//  ProductCode: MTW2-3A7G6
//  Firmware Version: 4.6.0
//  Hardware Version: 2.0.0
// Device settings: 
//  Filter Profile: human(46.1)
//  Option Flags: Orientation Smoother Disabled, Position/Velocity Smoother Disabled, Continuous Zero Rotation Update Disabled, AHS Disabled, ICC Disabled
// Coordinate system: ENU
PacketCounter	Acc_X	Acc_Y	Acc_Z	Gyr_X	Gyr_Y	Gyr_Z	Roll	Pitch	Yaw
61147	9.166676	-2.557795	2.201780	-0.001661	0.004055	0.002083	-48.670703	-69.716294	-32.415909
61148	9.159042	-2.560547	2.224948	-0.002029	-0.000645	-0.000354	-48.671690	-69.717633	-32.411353
61149	9.119027	-2.556848	2.238017	0.000000	-0.000000	-0.000000	-48.670389	-69.718630	-32.412293
61150	9.145285	-2.540517	2.222658	0.000000	-0.000000	-0.000000	-48.669724	-69.719614	-32.411203
61151	9.134173	-2.551658	2.191819	-0.000937	-0.001454	0.001419	-48.672106	-69.720552	-32.408789
61152	9.145247	-2.540771	2.222524	-0.002994	0.001336	0.001534	-48.672745	-69.720340	-32.411629
61153	9.158984	-2.561051	2.224609	-0.000511	-0.003622	0.002917	-48.678943	-69.721453	-32.404888
61154	9.134068	-2.552256	2.191559	-0.003420	0.003504	0.000036	-48.676111	-69.721092	-32.408872
61155	9.140207	-2.575110	2.216867	0.000155	-0.002262	0.003192	-48.680625	-69.721572	-32.403518
61156	9.131257	-2.521665	2.220141	-0.000569	0.003246	0.003857	-48.680299	-69.719725	-32.406693
61157	9.144891	-2.542058	2.222516	-0.001903	0.000527	0.003308	-48.682861	-69.719100	-32.404677
61158	9.158588	-2.562350	2.224741	-0.000270	-0.000094	0.001694	-48.683954	-69.719419	-32.405605
61159	9.112323	-2.536138	2.212572	-0.001632	0.000621	0.001614	-48.684518	-69.719487	-32.405554
61160	9.164712	-2.585201	2.250104	0.002299	0.000739	-0.001339	-48.680034	-69.720821	-32.412317
61161	9.126114	-2.556161	2.214720	-0.002270	-0.004173	0.000869	-48.685784	-69.723023	-32.407128
61162	9.149777	-2.508717	2.227680	0.000270	0.000094	-0.001694	-48.683129	-69.724670	-32.406440
61163	9.155960	-2.531478	2.252909	-0.002569	-0.000833	0.003033	-48.687376	-69.724678	-32.403035
61164	9.166182	-2.560094	2.201163	0.000695	-0.002074	-0.000195	-48.688262	-69.726488	-32.400857
61165	9.137307	-2.545313	2.244909	-0.002029	-0.000645	-0.000354	-48.688513	-69.727882	-32.401383
61166	9.112436	-2.536489	2.211704	-0.001874	-0.002907	0.002838	-48.694785	-69.728713	-32.397529
61167	9.137363	-2.545542	2.244422	-0.002425	-0.001910	-0.002323	-48.694723	-69.731433	-32.398632
61168	9.140076	-2.576566	2.215716	-0.002029	-0.000645	-0.000354	-48.695736	-69.732896	-32.398832
61169	9.138864	-2.519992	2.195844	0.001902	-0.000527	-0.003308	-48.690572	-69.735517	-32.402729
61170	9.158892	-2.562454	2.223371	0.000270	0.000094	-0.001694	-48.687747	-69.737114	-32.402061
61171	9.152734	-2.539554	2.198191	-0.000155	0.002262	-0.003192	-48.680627	-69.738630	-32.409299
61172	9.142563	-2.510863	2.249821	-0.000396	-0.001265	-0.001968	-48.679352	-69.740923	-32.411812
61173	9.159079	-2.561897	2.223243	-0.002000	-0.004079	-0.000824	-48.683108	-69.743818	-32.408584
61174	9.131604	-2.521823	2.218534	-0.003391	0.000070	-0.000434	-48.683489	-69.744868	-32.408549
61175	9.134325	-2.552834	2.189812	0.000299	-0.003340	-0.002164	-48.683694	-69.748061	-32.407702
61176	9.134440	-2.552653	2.189545	-0.002425	-0.001910	-0.002322	-48.684340	-69.750809	-32.407386
61177	9.153261	-2.538695	2.196987	0.000569	-0.003246	-0.003857	-48.682544	-69.754694	-32.408507
61178	9.159646	-2.560936	2.222014	-0.000523	-0.002437	-0.005630	-48.679239	-69.758997	-32.409277
61179	9.145986	-2.540654	2.219615	-0.002029	-0.000645	-0.000354	-48.679490	-69.760391	-32.409802
61180	9.119765	-2.556917	2.234928	0.000270	0.000094	-0.001694	-48.676855	-69.762101	-32.411240
61181	9.167437	-2.557729	2.198684	-0.000127	-0.001171	-0.003662	-48.673235	-69.765117	-32.414729
61182	9.153739	-2.537458	2.196427	-0.001092	0.000809	-0.001773	-48.670418	-69.766659	-32.420651
61183	9.139998	-2.517348	2.194154	-0.000666	-0.001360	-0.000275	-48.670803	-69.768290	-32.420201
61184	9.153821	-2.537304	2.196261	-0.001759	-0.000551	-0.002048	-48.669152	-69.770291	-32.424160
61185	9.167674	-2.557092	2.198438	0.001902	-0.000526	-0.003308	-48.663978	-69.772911	-32.428067
61186	9.146379	-2.539555	2.219250	-0.004753	0.000784	-0.000513	-48.664572	-69.773920	-32.432783
61187	9.154047	-2.536754	2.195953	-0.000097	-0.004605	-0.004132	-48.664459	-69.778438	-32.432517
61188	9.139040	-2.541696	2.241949	0.001206	0.001548	-0.003112	-48.657636	-69.780138	-32.440555
61189	9.125338	-2.521427	2.239694	-0.002425	-0.001910	-0.002322	-48.657568	-69.782857	-32.441663
61190	9.165491	-2.524866	2.226312	-0.000793	-0.002531	-0.003936	-48.656088	-69.786427	-32.441129
61191	9.160730	-2.558251	2.220638	0.001236	-0.001886	-0.003582	-48.652597	-69.789679	-32.443649
61192	9.147092	-2.537852	2.218259	0.002598	-0.002600	-0.003503	-48.649424	-69.793121	-32.446908
61193	9.154841	-2.534698	2.195017	-0.001616	-0.001628	-0.007402	-48.643334	-69.797918	-32.453938
61194	9.133727	-2.516780	2.215519	0.002628	-0.006034	-0.003973	-48.644124	-69.802926	-32.450656
61195	9.132551	-2.542010	2.263284	-0.012441	-0.003966	-0.000429	-48.654143	-69.805609	-32.447130
61196	9.269346	-2.522027	2.128719	0.011610	-0.010037	-0.008578	-48.649470	-69.814029	-32.443470
61197	9.089395	-2.545623	2.222155	-0.006489	0.012891	-0.006034	-48.630591	-69.812741	-32.467100
61198	9.186803	-2.482523	2.184079	0.003024	-0.004768	-0.002005	-48.631569	-69.816433	-32.465303
61199	9.110850	-2.562473	2.201467	0.000270	0.000094	-0.001693	-48.628254	-69.818122	-32.468224
61200	9.142053	-2.512221	2.191466	-0.002425	-0.001911	-0.002321	-48.628532	-69.820821	-32.470179
61201	9.155946	-2.532125	2.193380	0.002755	-0.004862	-0.000311	-48.631016	-69.823793	-32.465405
61202	9.148483	-2.534595	2.216247	-0.004214	0.000972	-0.003898	-48.627424	-69.826041	-32.469618
61203	9.156192	-2.531541	2.193026	0.002201	-0.003865	-0.005470	-48.623740	-69.830854	-32.471754
61204	9.150104	-2.508593	2.167469	-0.002695	-0.002005	-0.000628	-48.626132	-69.832950	-32.474023
61205	9.148893	-2.533659	2.215625	0.001505	-0.001791	-0.005275	-48.620620	-69.836893	-32.478532
61206	9.156602	-2.530575	2.192428	0.001235	-0.001885	-0.003582	-48.617401	-69.840099	-32.481666
61207	9.149183	-2.532886	2.215311	-0.002156	-0.001816	-0.004014	-48.615314	-69.843510	-32.484760
61208	9.168012	-2.518736	2.222870	0.004896	-0.001859	-0.004842	-48.608903	-69.847261	-32.486730
61209	9.150789	-2.506746	2.166714	0.002328	-0.002694	-0.001809	-48.607548	-69.850056	-32.486307
61210	9.135770	-2.511803	2.212740	-0.004215	0.000971	-0.003898	-48.603814	-69.852217	-32.488733
61211	9.164779	-2.526282	2.168656	0.001662	-0.004053	-0.002084	-48.604150	-69.855646	-32.486915
61212	9.134706	-2.536682	2.260561	-0.003091	-0.003271	-0.002595	-48.606083	-69.858951	-32.486630
61213	9.176181	-2.514742	2.198782	0.002598	-0.002599	-0.003503	-48.602714	-69.862438	-32.488189
61214	9.150117	-2.530755	2.213890	-0.002822	-0.003176	-0.004288	-48.602692	-69.866431	-32.488999
61215	9.164004	-2.550704	2.215805	-0.004326	-0.001386	0.000987	-48.606507	-69.867529	-32.487130
61216	9.157783	-2.528044	2.190415	0.000269	0.000095	-0.001693	-48.603539	-69.869125	-32.487497
61217	9.117781	-2.524387	2.203505	-0.000935	-0.001454	0.001419	-48.605938	-69.870063	-32.485067
61218	9.150266	-2.530836	2.213182	-0.001601	-0.002814	0.001145	-48.610438	-69.871572	-32.479442
61219	9.150382	-2.530868	2.212664	-0.001967	-0.007513	-0.001292	-48.617733	-69.875971	-32.472427
61220	9.150486	-2.530849	2.212256	-0.003391	0.000068	-0.000432	-48.617998	-69.877090	-32.476279
61221	9.171914	-2.548202	2.191063	-0.001301	-0.006153	-0.001018	-48.623603	-69.880855	-32.470659
61222	9.158215	-2.528172	2.188459	-0.005420	-0.000578	-0.000785	-48.625641	-69.882325	-32.469530
61223	9.190707	-2.534517	2.198222	-0.003391	0.000068	-0.000432	-48.625749	-69.883482	-32.471039
61224	9.150770	-2.530790	2.211146	-0.001729	-0.003985	-0.002516	-48.628141	-69.887051	-32.466824
61225	9.150903	-2.530557	2.210863	-0.004882	-0.000388	-0.004171	-48.625771	-69.889988	-32.471881
61226	9.158522	-2.527832	2.187568	-0.001601	-0.002814	0.001145	-48.630089	-69.891436	-32.466056
61227	9.118615	-2.524156	2.200317	-0.002395	-0.005344	-0.002790	-48.633544	-69.895656	-32.463392
61228	9.172585	-2.547645	2.188899	-0.004454	-0.002557	-0.002673	-48.635236	-69.898616	-32.460901
61229	9.151337	-2.530213	2.209463	-0.002695	-0.002006	-0.000627	-48.637179	-69.900642	-32.460030
61230	9.177629	-2.513692	2.193935	-0.002853	0.000258	-0.003818	-48.633375	-69.902994	-32.462298
61231	9.159013	-2.527196	2.186245	-0.001094	0.000809	-0.001772	-48.629908	-69.904447	-32.466211
61232	9.159061	-2.526978	2.186299	-0.000825	0.000904	-0.003465	-48.624591	-69.906514	-32.472580
61233	9.126637	-2.520551	2.176344	-0.005420	-0.000578	-0.000784	-48.626254	-69.908067	-32.473670
61234	9.164066	-2.492960	2.191559	0.001235	-0.001884	-0.003582	-48.623076	-69.911240	-32.474527
61235	9.159275	-2.526590	2.185850	-0.001601	-0.002815	0.001145	-48.627177	-69.912811	-32.470690
61236	9.151830	-2.529031	2.208774	-0.003678	0.001162	-0.007282	-48.619197	-69.916380	-32.480304
61237	9.159514	-2.525971	2.185565	0.000300	-0.003338	-0.002163	-48.619399	-69.919571	-32.479460
61238	9.159596	-2.525816	2.185399	-0.004485	0.000877	-0.002202	-48.617398	-69.921001	-32.481538
61239	9.152126	-2.528323	2.208356	0.002329	-0.002692	-0.001811	-48.616043	-69.923795	-32.481114
61240	9.159803	-2.525365	2.185054	0.000569	-0.003243	-0.003856	-48.614662	-69.927610	-32.479565
61241	9.146076	-2.505391	2.182480	-0.002804	-0.004365	0.004257	-48.624504	-69.928430	-32.470350
61242	9.138571	-2.508152	2.205304	-0.004217	0.000972	-0.003895	-48.620723	-69.930687	-32.476765
61243	9.159973	-2.525502	2.184181	-0.001172	-0.004983	0.002642	-48.628687	-69.932435	-32.468556
61244	9.171142	-2.514590	2.214639	-0.002029	-0.000646	-0.000352	-48.628665	-69.933658	-32.471821
61245	9.186213	-2.509328	2.168425	0.001094	-0.000809	0.001771	-48.629515	-69.934200	-32.469803
61246	9.152444	-2.528542	2.206786	-0.002297	-0.000741	0.001341	-48.631775	-69.934712	-32.466698
61247	9.172352	-2.489645	2.166090	-0.001631	0.000619	0.001615	-48.632343	-69.934780	-32.466641
61248	9.159877	-2.526257	2.183710	-0.004357	0.002046	0.001458	-48.633092	-69.934454	-32.471090
61249	9.178398	-2.512760	2.191784	0.003061	0.006704	0.003064	-48.625312	-69.931595	-32.477060
61250	9.145663	-2.506852	2.182535	-0.000868	0.006581	0.006020	-48.623492	-69.927425	-32.475414
61251	9.164048	-2.493769	2.190714	-0.000441	0.004412	0.007517	-48.625031	-69.923518	-32.473597
61252	9.158859	-2.528127	2.185814	0.003189	0.007873	0.006726	-48.620017	-69.918707	-32.479724
61253	9.137194	-2.511314	2.207412	0.002523	0.006513	0.006451	-48.616285	-69.914463	-32.481713
61254	9.158248	-2.529199	2.187135	0.001857	0.005154	0.006177	-48.614560	-69.910743	-32.479518
61255	9.156685	-2.555019	2.236022	-0.000599	0.006677	0.004327	-48.610227	-69.907350	-32.484051
61256	9.176420	-2.516341	2.195955	0.002126	0.005249	0.004484	-48.606537	-69.904295	-32.482640
61257	9.142372	-2.535981	2.234826	0.000652	0.003604	0.009290	-48.610236	-69.899933	-32.477856
61258	9.157286	-2.531024	2.189052	-0.001124	0.004243	-0.001301	-48.603741	-69.899762	-32.479593
61259	9.175835	-2.517520	2.197049	0.000524	0.002434	0.005629	-48.605098	-69.897416	-32.477381
61260	9.130759	-2.547966	2.204996	-0.001662	0.004053	0.002085	-48.602618	-69.895904	-32.477500
61261	9.150644	-2.509104	2.164593	0.000397	0.001265	0.001968	-48.601631	-69.895576	-32.477861
61262	9.156814	-2.531971	2.189930	-0.001632	0.000619	0.001615	-48.602683	-69.895634	-32.476583
61263	9.170582	-2.552078	2.192126	0.001363	-0.000714	0.000079	-48.601511	-69.896867	-32.476552
61264	9.150529	-2.509362	2.164782	0.001332	0.002719	0.000549	-48.596998	-69.896468	-32.478294
61265	9.161646	-2.498328	2.195561	-0.002695	-0.002005	-0.000628	-48.598935	-69.898494	-32.477428
61266	9.131854	-2.523161	2.156963	-0.000269	-0.000095	0.001693	-48.600244	-69.898858	-32.476201
61267	9.149139	-2.535042	2.213025	0.001490	0.000455	0.003740	-48.601416	-69.898074	-32.473596
61268	9.156595	-2.532631	2.190080	-0.000966	0.001979	0.001889	-48.601061	-69.897530	-32.471353
61269	9.142763	-2.512700	2.187955	0.000000	0.000000	-0.000000	-48.599750	-69.898526	-32.472302
61270	9.167660	-2.521754	2.220899	0.001093	-0.000809	0.001772	-48.600875	-69.898994	-32.469166
61271	9.156523	-2.532866	2.190112	-0.000000	-0.000000	-0.000000	-48.599564	-69.899990	-32.470115
61272	9.142756	-2.512758	2.187916	0.000269	0.000095	-0.001693	-48.596417	-69.901592	-32.472786
61273	9.175286	-2.518977	2.197672	0.000030	-0.003433	-0.000471	-48.598633	-69.904091	-32.469960
61274	9.175318	-2.518949	2.197570	0.002029	0.000645	0.000353	-48.596020	-69.904660	-32.472537
61275	9.161499	-2.498996	2.195413	-0.000269	-0.000095	0.001693	-48.596728	-69.904965	-32.471500
61276	9.135217	-2.515612	2.210698	-0.002568	-0.000835	0.003033	-48.601438	-69.904979	-32.467979
61277	9.156480	-2.533317	2.189768	-0.001901	0.000524	0.003308	-48.604026	-69.904354	-32.465936
61278	9.142607	-2.513621	2.187549	-0.000539	-0.000190	0.003387	-48.607236	-69.903907	-32.459739
61279	9.170164	-2.553748	2.191932	0.001632	-0.000619	-0.001615	-48.604046	-69.905832	-32.461693
61280	9.161299	-2.499970	2.195140	-0.000936	-0.001455	0.001419	-48.607080	-69.906718	-32.453729
61281	9.148818	-2.536439	2.212753	0.002695	0.002005	0.000628	-48.602519	-69.906684	-32.456493
61282	9.156399	-2.533685	2.189682	-0.001063	-0.002624	-0.002243	-48.602889	-69.909493	-32.453000
61283	9.163985	-2.530949	2.166572	-0.000696	0.002074	0.000196	-48.599742	-69.909619	-32.456326
61284	9.148916	-2.536187	2.212635	0.000299	-0.003339	-0.002164	-48.600368	-69.912890	-32.457688
61285	9.168999	-2.497022	2.171786	-0.000666	-0.001360	-0.000275	-48.600751	-69.914519	-32.457238
61286	9.149043	-2.536058	2.212259	0.000696	-0.002074	-0.000196	-48.601643	-69.916330	-32.453987
61287	9.164216	-2.530695	2.165889	0.000030	-0.003433	-0.000471	-48.603862	-69.918829	-32.451157
61288	9.135382	-2.515975	2.209603	-0.002029	-0.000645	-0.000353	-48.604624	-69.920158	-32.448201
61289	9.150458	-2.510742	2.163483	0.000397	0.001265	0.001968	-48.603637	-69.919829	-32.448561
61290	9.167767	-2.522621	2.219472	0.000157	-0.002264	0.003191	-48.608493	-69.920212	-32.440839
61291	9.167672	-2.522967	2.219472	-0.003960	0.003313	0.003426	-48.609106	-69.918481	-32.442154
61292	9.150192	-2.511601	2.163609	0.000397	0.001265	0.001968	-48.608864	-69.918219	-32.441423
61293	9.148773	-2.537208	2.212055	0.000128	0.001170	0.003661	-48.609898	-69.917198	-32.439795
61294	9.168660	-2.498484	2.171537	0.000128	0.001170	0.003661	-48.611441	-69.916162	-32.435121
61295	9.167173	-2.524269	2.220054	-0.000838	0.003149	0.005551	-48.612659	-69.913579	-32.433886
61296	9.169624	-2.555780	2.191823	0.001460	0.003889	0.004211	-48.610447	-69.911220	-32.436328
61297	9.174388	-2.522462	2.197425	-0.001475	-0.001644	0.004806	-48.616892	-69.910773	-32.429917
61298	9.152953	-2.505417	2.218324	0.001063	0.002624	0.002243	-48.614565	-69.909786	-32.431900
61299	9.163004	-2.534170	2.166952	0.000524	0.002434	0.005630	-48.615924	-69.907439	-32.429684
61300	9.152628	-2.506201	2.218780	-0.002597	0.002599	0.003505	-48.617029	-69.905883	-32.428428
61301	9.133754	-2.520343	2.211352	0.001191	0.003794	0.005905	-48.616693	-69.902904	-32.427611
61302	9.173589	-2.524533	2.198378	-0.002171	0.000430	0.005002	-48.621807	-69.901572	-32.421440
61303	9.140995	-2.518622	2.188534	-0.001235	0.001884	0.003583	-48.622700	-69.900314	-32.420793
61304	9.133299	-2.521572	2.211830	-0.001661	0.004053	0.002086	-48.620238	-69.898796	-32.419934
61305	9.186941	-2.545655	2.201093	-0.000142	0.001075	0.005356	-48.623290	-69.897083	-32.416322
61306	9.159251	-2.506005	2.196804	-0.001235	0.001884	0.003583	-48.624779	-69.895781	-32.411646
61307	9.146674	-2.542675	2.214457	-0.002994	0.001335	0.001536	-48.625207	-69.895611	-32.412567
61308	9.165236	-2.529328	2.222289	0.001886	0.001719	0.005709	-48.627256	-69.893548	-32.408701
61309	9.153957	-2.540840	2.191601	-0.000809	-0.000285	0.005081	-48.632002	-69.892467	-32.403692
61310	9.172525	-2.527560	2.199339	0.000127	0.001170	0.003662	-48.633316	-69.891410	-32.402165
61311	9.158634	-2.507788	2.197340	-0.000298	0.003339	0.002165	-48.630496	-69.890210	-32.404900
61312	9.172306	-2.528006	2.199741	0.001759	0.000549	0.002047	-48.629896	-69.890035	-32.403508
61313	9.139770	-2.521899	2.189876	-0.001902	0.000525	0.003309	-48.632482	-69.889410	-32.401465
61314	9.172118	-2.528668	2.199765	-0.000809	-0.000285	0.005081	-48.637502	-69.888321	-32.398005
61315	9.153336	-2.542762	2.191963	-0.002569	-0.000834	0.003034	-48.641782	-69.888328	-32.394565
61316	9.131946	-2.525573	2.212850	-0.002057	0.002789	0.000118	-48.638818	-69.888098	-32.395453
61317	9.153243	-2.542985	2.192095	0.000000	0.000000	-0.000000	-48.637510	-69.889094	-32.396397
61318	9.151889	-2.486756	2.172439	-0.003959	0.003315	0.003427	-48.638399	-69.887287	-32.396913
61319	9.153069	-2.543455	2.192275	0.001092	-0.000810	0.001772	-48.639249	-69.887827	-32.394892
61320	9.164164	-2.532505	2.223092	0.000667	0.001359	0.000275	-48.636661	-69.888125	-32.394317
61321	9.139203	-2.523599	2.190283	-0.002327	0.002695	0.001812	-48.635395	-69.887321	-32.396635
61322	9.157776	-2.510202	2.198158	-0.001235	0.001885	0.003584	-48.636605	-69.886005	-32.395573
61323	9.163892	-2.533229	2.223390	0.000155	-0.002264	0.003191	-48.641166	-69.886485	-32.390171
61324	9.150075	-2.513368	2.221202	-0.003419	0.003505	0.000039	-48.638065	-69.886101	-32.395304
61325	9.178881	-2.528166	2.177578	-0.001390	0.004149	0.000393	-48.633088	-69.885357	-32.401002
61326	9.157474	-2.510906	2.198613	-0.001632	0.000620	0.001615	-48.633814	-69.885301	-32.400154
61327	9.160086	-2.541988	2.170132	0.000937	0.001454	-0.001419	-48.628795	-69.886356	-32.404477
61328	9.149885	-2.513433	2.221915	0.000937	0.001454	-0.001419	-48.624011	-69.887294	-32.406077
61329	9.171214	-2.530817	2.201060	-0.000937	-0.001454	0.001419	-48.626414	-69.888230	-32.403640
61330	9.171270	-2.530801	2.200848	-0.001064	-0.002623	-0.002244	-48.627089	-69.891124	-32.397856
61331	9.138834	-2.524386	2.190915	-0.003419	0.003505	0.000039	-48.623664	-69.890776	-32.403139
61332	9.182366	-2.519828	2.231682	0.002454	-0.001525	0.001851	-48.624971	-69.891573	-32.401644
61333	9.160084	-2.542016	2.170107	-0.001632	0.000620	0.001615	-48.625540	-69.891639	-32.401584
61334	9.171163	-2.531094	2.200958	0.000667	0.001359	0.000275	-48.622964	-69.891993	-32.404219
61335	9.149806	-2.513802	2.221821	-0.002299	-0.000739	0.001340	-48.625226	-69.892692	-32.402762
61336	9.146219	-2.522401	2.167841	-0.001207	-0.001549	0.003112	-48.629892	-69.892800	-32.395239
61337	9.163516	-2.534171	2.223867	0.000937	0.001454	-0.001419	-48.624871	-69.893854	-32.399564
61338	9.152295	-2.545366	2.193291	0.000524	0.002433	0.005632	-48.626540	-69.891482	-32.397097
61339	9.163346	-2.534583	2.224095	0.000695	-0.002074	-0.000197	-48.627065	-69.893348	-32.395662
61340	9.157155	-2.511876	2.198834	-0.000695	0.002074	0.000197	-48.624252	-69.893417	-32.399132
61341	9.157130	-2.511893	2.198920	-0.000000	-0.000000	-0.000000	-48.622943	-69.894412	-32.400075
61342	9.149574	-2.514485	2.222002	-0.001092	0.000810	-0.001772	-48.619703	-69.895835	-32.405037
61343	9.170944	-2.531709	2.201162	0.001632	-0.000620	-0.001615	-48.616516	-69.897760	-32.406985
61344	9.157270	-2.511404	2.198896	-0.000127	-0.001169	-0.003663	-48.613054	-69.900699	-32.410554
61345	9.168459	-2.500208	2.229598	0.001362	-0.000715	0.000079	-48.611885	-69.901931	-32.410517
61346	9.149725	-2.513880	2.222064	0.003363	0.003362	0.000904	-48.605930	-69.901241	-32.414968
61347	9.159890	-2.542231	2.170673	-0.002454	0.001525	-0.001851	-48.602317	-69.902454	-32.419862
61348	9.149676	-2.513838	2.222315	0.001092	-0.000810	0.001772	-48.603433	-69.902997	-32.419509
61349	9.124759	-2.504961	2.189307	-0.000270	-0.000095	0.001694	-48.604143	-69.903300	-32.418468
61350	9.170925	-2.531546	2.201430	-0.001632	0.000620	0.001615	-48.604778	-69.903308	-32.420319
61351	9.149509	-2.514419	2.222347	0.000127	0.001169	0.003663	-48.605814	-69.902285	-32.418689
61352	9.145856	-2.523103	2.168556	-0.000540	-0.000190	0.003388	-48.608787	-69.901788	-32.414029
61353	9.159544	-2.543310	2.170870	0.002696	0.002003	0.000629	-48.604230	-69.901754	-32.416786
61354	9.163047	-2.535032	2.224819	-0.000270	-0.000095	0.001694	-48.605562	-69.902052	-32.412568
61355	9.170585	-2.532447	2.201809	0.002029	0.000644	0.000354	-48.602699	-69.902651	-32.413928
61356	9.156802	-2.512463	2.199635	0.001092	-0.000810	0.001773	-48.603994	-69.903229	-32.412818
61357	9.149218	-2.515190	2.222670	0.000000	0.000000	0.000000	-48.602683	-69.904224	-32.413763
61358	9.138095	-2.526209	2.191897	0.000000	0.000000	0.000000	-48.601802	-69.905200	-32.413323
61359	9.189220	-2.518983	2.209524	-0.000270	-0.000095	0.001694	-48.602512	-69.905503	-32.412282
61360	9.156711	-2.512703	2.199738	0.001334	0.002718	0.000551	-48.598154	-69.905181	-32.415513
61361	9.145586	-2.523797	2.168887	-0.002271	-0.004172	0.000868	-48.603945	-69.907384	-32.410281
61362	9.138070	-2.526440	2.191733	0.000270	0.000095	-0.001694	-48.601046	-69.908943	-32.407281
61363	9.170476	-2.532908	2.201731	-0.001235	0.001885	0.003584	-48.601941	-69.907683	-32.406631
61364	9.170463	-2.532977	2.201708	0.002327	-0.002695	-0.001812	-48.600838	-69.910421	-32.406068
61365	9.159391	-2.543887	2.170841	0.000000	0.000000	0.000000	-48.599527	-69.911416	-32.407013
61366	9.183029	-2.496427	2.184104	-0.002454	0.001526	-0.001851	-48.596408	-69.912682	-32.413790
61367	9.170490	-2.532839	2.201754	0.000397	0.001264	0.001969	-48.595424	-69.912351	-32.414145
61368	9.130456	-2.529120	2.214947	0.001632	-0.000620	-0.001615	-48.592549	-69.914215	-32.414331
61369	9.156746	-2.512768	2.199518	-0.000937	-0.001454	0.001419	-48.594953	-69.915151	-32.411892
61370	9.183065	-2.496416	2.183962	-0.001064	-0.002623	-0.002244	-48.595371	-69.918112	-32.413046
61371	9.151897	-2.546617	2.193498	-0.002144	-0.003003	0.004531	-48.603515	-69.918298	-32.405232
61372	9.151865	-2.546859	2.193349	-0.001362	0.000715	-0.000079	-48.602674	-69.919072	-32.404467
61373	9.164384	-2.510481	2.175746	-0.000667	-0.001359	-0.000275	-48.603058	-69.920700	-32.404014
61374	9.156811	-2.513245	2.198703	-0.005023	0.000692	0.001183	-48.605192	-69.920822	-32.403414
61375	9.145642	-2.524449	2.167890	-0.000270	-0.000095	0.001694	-48.605903	-69.921125	-32.402371
61376	9.170494	-2.533726	2.200716	-0.003236	-0.002193	0.002759	-48.612771	-69.921888	-32.394242
61377	9.122896	-2.532761	2.236853	0.000937	0.001454	-0.001419	-48.607743	-69.922942	-32.398572
61378	9.156742	-2.513695	2.198475	-0.002029	-0.000644	-0.000354	-48.608433	-69.924342	-32.397617
61379	9.189180	-2.520092	2.208423	-0.000695	0.002074	0.000197	-48.605284	-69.924466	-32.400942
61380	9.151741	-2.547613	2.192992	-0.001207	-0.001549	0.003113	-48.610096	-69.924721	-32.396594
61381	9.182954	-2.497710	2.182952	-0.002696	-0.002003	-0.000629	-48.612034	-69.926745	-32.395724
61382	9.149142	-2.516797	2.221165	-0.002299	-0.000739	0.001340	-48.614555	-69.927407	-32.394309
61383	9.170430	-2.534362	2.200251	-0.001632	0.000620	0.001615	-48.615125	-69.927473	-32.394247
61384	9.149107	-2.517144	2.220914	-0.003633	-0.003457	0.000790	-48.621517	-69.929471	-32.386227
61385	9.178005	-2.531976	2.176838	-0.004086	0.002146	-0.000235	-48.619779	-69.929754	-32.390120
61386	9.149074	-2.517370	2.220796	-0.000270	-0.000095	0.001694	-48.620762	-69.929959	-32.387345
61387	9.164169	-2.512201	2.174664	-0.000270	-0.000095	0.001694	-48.621475	-69.930262	-32.386299
61388	9.156547	-2.515050	2.197738	-0.002994	0.001336	0.001537	-48.622325	-69.930084	-32.388101
61389	9.145328	-2.526417	2.166923	-0.004201	-0.000213	0.004650	-48.628493	-69.929161	-32.383645
61390	9.177647	-2.533322	2.176782	-0.003534	0.001146	0.004925	-48.633391	-69.927544	-32.378029
61391	9.142439	-2.496389	2.195434	-0.000810	-0.000285	0.005082	-48.638149	-69.926462	-32.373007
61392	9.167146	-2.506108	2.228375	-0.004074	0.000956	0.008314	-48.647065	-69.923390	-32.361239
61393	9.137075	-2.531757	2.189746	-0.002558	-0.002025	0.011583	-48.661601	-69.920169	-32.346872
61394	9.163103	-2.516560	2.174119	-0.005950	-0.001952	0.011152	-48.677963	-69.917142	-32.334036
61395	9.173919	-2.507042	2.204537	-0.007030	-0.002333	0.017929	-48.701975	-69.911304	-32.312305
61396	9.154788	-2.522513	2.196512	-0.007725	-0.000258	0.018127	-48.724467	-69.904527	-32.291330
61397	9.165531	-2.513419	2.226783	-0.010666	-0.005787	0.018720	-48.755420	-69.899647	-32.264426
61398	9.182840	-2.541315	2.151306	-0.009447	-0.005430	0.024159	-48.791267	-69.892350	-32.233690
61399	9.103248	-2.496893	2.259582	-0.018734	0.003114	0.022394	-48.820113	-69.882516	-32.213950
61400	9.135742	-2.519566	2.137566	-0.007295	-0.021956	0.022147	-48.872427	-69.882341	-32.161197
61401	9.150249	-2.598555	2.158060	-0.019248	-0.000508	0.025316	-48.908790	-69.872600	-32.133764
61402	9.149622	-2.505349	2.220054	-0.010786	-0.008147	0.023615	-48.947733	-69.866454	-32.100613
61403	9.146792	-2.572333	2.184769	-0.014307	-0.009238	0.019520	-48.985555	-69.862489	-32.068608
61404	9.180378	-2.555203	2.145353	-0.007406	-0.007028	0.015495	-49.013267	-69.859424	-32.040433
61405	9.143592	-2.544734	2.212169	-0.007229	0.006800	0.015699	-49.024185	-69.851075	-32.032764
61406	9.129366	-2.526295	2.210282	-0.007476	0.003272	0.016920	-49.040814	-69.843499	-32.021553
61407	9.102557	-2.544318	2.225696	-0.012229	0.004067	0.016414	-49.058531	-69.835866	-32.009692
61408	9.124871	-2.537868	2.156273	-0.004440	-0.004934	0.014431	-49.080564	-69.832323	-31.984908
61409	9.135587	-2.528860	2.186779	-0.013310	0.003685	0.023198	-49.106255	-69.821892	-31.965210
61410	9.117432	-2.601011	2.198198	-0.009713	-0.007763	0.016841	-49.137254	-69.818453	-31.935749
61411	9.141036	-2.555354	2.210490	-0.015955	-0.007413	0.012591	-49.166694	-69.816772	-31.913671
61412	9.162102	-2.574545	2.188258	-0.012933	-0.013384	0.019129	-49.208336	-69.814462	-31.878401
61413	9.194330	-2.582909	2.196839	-0.012835	-0.007587	0.014719	-49.238349	-69.811913	-31.853807
61414	9.155555	-2.555061	2.160972	-0.010284	-0.003323	0.012157	-49.259467	-69.808786	-31.835782
61415	9.136559	-2.569986	2.152630	-0.013676	-0.003243	0.011729	-49.281781	-69.805905	-31.819904
61416	9.161395	-2.580115	2.184658	-0.007534	-0.010427	0.002801	-49.300096	-69.809512	-31.806111
61417	9.155311	-2.558024	2.158501	-0.012446	-0.005126	0.008138	-49.320278	-69.808890	-31.791753
61418	9.135083	-2.597989	2.198041	-0.009435	-0.009900	0.006118	-49.342664	-69.810911	-31.773550
61419	9.162860	-2.556925	2.133562	-0.008514	-0.005014	0.005175	-49.357454	-69.811532	-31.762537
61420	9.147785	-2.562750	2.179042	-0.009065	-0.004006	0.000011	-49.366494	-69.814038	-31.759855
61421	9.141752	-2.540277	2.153109	-0.010946	-0.006913	0.002851	-49.382568	-69.816376	-31.748960
61422	9.166765	-2.550003	2.184936	-0.009566	-0.011064	0.002450	-49.402591	-69.820382	-31.732969
61423	9.161758	-2.584318	2.178155	-0.013517	-0.007744	0.005893	-49.424214	-69.821703	-31.717730
61424	9.163197	-2.559429	2.129106	-0.004852	-0.004999	0.003908	-49.435931	-69.822818	-31.706861
61425	9.134316	-2.545570	2.172655	-0.012063	-0.000434	0.010594	-49.452830	-69.819367	-31.695769
61426	9.180180	-2.573403	2.184244	-0.010433	-0.001056	0.008973	-49.468128	-69.816762	-31.683385
61427	9.141518	-2.544910	2.148628	-0.008095	-0.007186	0.006673	-49.486776	-69.817530	-31.668007
61428	9.126375	-2.551238	2.193924	-0.012446	-0.005126	0.008145	-49.507399	-69.816974	-31.656755
61429	9.161232	-2.589663	2.174018	-0.010108	-0.011256	0.005844	-49.531189	-69.819613	-31.637127
61430	9.162599	-2.564998	2.124975	-0.010433	-0.001056	0.008976	-49.546276	-69.817043	-31.629536
61431	9.154942	-2.568569	2.147514	-0.008515	-0.005013	0.005180	-49.561079	-69.817648	-31.618512
61432	9.160980	-2.592280	2.171959	-0.015167	-0.003686	0.007998	-49.581312	-69.816505	-31.605407
61433	9.187177	-2.576744	2.156304	-0.004620	0.001964	0.003170	-49.583573	-69.815392	-31.605366
61434	9.146990	-2.573476	2.169717	-0.009930	0.006004	0.006542	-49.587834	-69.811263	-31.605827
61435	9.159391	-2.537998	2.152393	-0.006370	0.000218	0.009680	-49.599744	-69.807959	-31.596574
61436	9.146477	-2.575274	2.169749	-0.006520	0.002489	0.006490	-49.606046	-69.805193	-31.595337
61437	9.146236	-2.576229	2.169628	-0.007311	-0.001236	0.011101	-49.621648	-69.801807	-31.582726
61438	9.167198	-2.594662	2.148378	-0.008132	-0.000321	0.007633	-49.633355	-69.799571	-31.575986
61439	9.185778	-2.582015	2.155956	-0.007461	0.001035	0.007911	-49.643123	-69.796734	-31.569681
61440	9.145499	-2.579190	2.169218	-0.006657	0.003552	0.011859	-49.653885	-69.791325	-31.564902
61441	9.163968	-2.566777	2.177012	-0.002978	0.000134	0.010108	-49.664362	-69.787861	-31.555105
61442	9.150024	-2.547675	2.175007	-0.007747	0.004371	0.010088	-49.672878	-69.782888	-31.553071
61443	9.144441	-2.582729	2.169467	-0.006106	0.002540	0.017026	-49.689248	-69.775510	-31.538903
61444	9.122798	-2.566865	2.190572	-0.008287	0.004176	0.013484	-49.701875	-69.769113	-31.530616
61445	9.162333	-2.572230	2.177458	-0.004477	0.001917	0.015404	-49.716401	-69.762671	-31.517417
61446	9.116728	-2.603445	2.185184	-0.007615	0.005532	0.013763	-49.727204	-69.755597	-31.509446
61447	9.156270	-2.608824	2.172013	-0.007182	-0.000074	0.014776	-49.744992	-69.750164	-31.494421
61448	9.182264	-2.593941	2.156611	-0.005970	0.001478	0.011660	-49.757376	-69.745445	-31.482949
61449	9.109620	-2.584539	2.159652	-0.010692	-0.004580	0.010199	-49.777911	-69.743680	-31.467138
61450	9.128162	-2.572317	2.167010	-0.009632	0.001466	0.012933	-49.793494	-69.738429	-31.457960
61451	9.173911	-2.600432	2.178564	-0.010020	-0.003224	0.010477	-49.812307	-69.736037	-31.443574
61452	9.141266	-2.594924	2.168295	-0.005955	-0.001955	0.011181	-49.828132	-69.732883	-31.433532
61453	9.148631	-2.593259	2.144733	-0.010423	-0.004481	0.008503	-49.846683	-69.731817	-31.419671
61454	9.162129	-2.614283	2.146211	-0.010570	-0.002208	0.005312	-49.859308	-69.731253	-31.415866
61455	9.127313	-2.577304	2.164658	-0.007581	-0.003552	0.003762	-49.870386	-69.731919	-31.408237
61456	9.167212	-2.581924	2.150900	-0.009481	-0.003027	0.007084	-49.885566	-69.730965	-31.399678
61457	9.146860	-2.621734	2.190684	-0.006894	-0.005629	0.003558	-49.898511	-69.732485	-31.389639
61458	9.148352	-2.596632	2.141839	-0.008524	-0.005006	0.005183	-49.913209	-69.732953	-31.379380
61459	9.161880	-2.617557	2.143282	-0.009481	-0.003027	0.007085	-49.928074	-69.731965	-31.368874
61460	9.148157	-2.598007	2.141006	-0.004619	0.001968	0.003177	-49.930867	-69.731020	-31.373852
61461	9.147972	-2.598563	2.141121	-0.004486	0.003126	0.006850	-49.935328	-69.727865	-31.371386
61462	9.140216	-2.602029	2.164203	-0.005832	0.000416	0.006295	-49.943327	-69.725876	-31.366176
61463	9.140079	-2.602580	2.164121	-0.006652	0.001334	0.002826	-49.947136	-69.725146	-31.365727
61464	9.172365	-2.609827	2.173834	-0.004472	-0.000306	0.006368	-49.955057	-69.723368	-31.360820
61465	9.121034	-2.617090	2.156036	-0.003246	-0.002186	0.002767	-49.961035	-69.723962	-31.355979
61466	9.172174	-2.610844	2.173419	-0.005832	0.000416	0.006295	-49.969467	-69.722028	-31.348034
61467	9.147128	-2.602014	2.140536	-0.006248	0.002591	0.004803	-49.973524	-69.719968	-31.347076
61468	9.171888	-2.611917	2.173334	0.000146	-0.002274	0.003191	-49.978192	-69.720425	-31.345605
61469	9.120569	-2.619006	2.155678	-0.004619	0.001968	0.003178	-49.980434	-69.719308	-31.345587
61470	9.165718	-2.589585	2.148054	-0.001617	-0.002809	0.001142	-49.984641	-69.720873	-31.346823
61471	9.139299	-2.606073	2.163213	-0.004619	0.001968	0.003178	-49.986882	-69.719756	-31.346805
61472	9.151980	-2.569952	2.145995	0.000403	0.001256	0.001976	-49.986112	-69.719409	-31.348076
61473	9.139108	-2.606612	2.163367	-0.001900	0.000524	0.003323	-49.988654	-69.718760	-31.346076
61474	9.145069	-2.629893	2.188381	-0.002573	-0.000831	0.003045	-49.993234	-69.718736	-31.343277
61475	9.165365	-2.590956	2.147908	0.002449	-0.001543	0.001844	-49.994264	-69.719497	-31.340233
61476	9.157809	-2.593774	2.170922	0.000000	0.000000	-0.000000	-49.993413	-69.720587	-31.344392
61477	9.138981	-2.607142	2.163265	0.004336	0.001365	-0.000996	-49.987078	-69.721523	-31.348048
61478	9.138989	-2.606963	2.163447	0.002303	0.000732	-0.001347	-49.982455	-69.722892	-31.355546
61479	9.157878	-2.593307	2.171193	0.002316	-0.002700	-0.001831	-49.981273	-69.725692	-31.354942
61480	9.157998	-2.593020	2.171029	0.001226	-0.001880	-0.003602	-49.978069	-69.728932	-31.358125
61481	9.160440	-2.623529	2.142136	0.004619	-0.001968	-0.003178	-49.973353	-69.732053	-31.359883
61482	9.152309	-2.568990	2.145740	0.005025	-0.002929	-0.010248	-49.962896	-69.738709	-31.370519
61483	9.147341	-2.601737	2.139960	0.008551	-0.001859	-0.006150	-49.952825	-69.743094	-31.375582
61484	9.179977	-2.607695	2.149750	0.007878	-0.003214	-0.006428	-49.944675	-69.748161	-31.383569
61485	9.140296	-2.602747	2.163003	0.009360	-0.001564	-0.011243	-49.928691	-69.754669	-31.394442
61486	9.148170	-2.598829	2.139954	0.009777	-0.003739	-0.009750	-49.917093	-69.761344	-31.399666
61487	9.146093	-2.566876	2.168957	0.009750	0.003125	-0.008784	-49.897757	-69.765043	-31.413873
61488	9.141048	-2.599486	2.163744	0.012469	0.001682	-0.008637	-49.878821	-69.769161	-31.426328
61489	9.127666	-2.578322	2.161954	0.010180	-0.002482	-0.007772	-49.866906	-69.774484	-31.432362
61490	9.122732	-2.611101	2.156115	0.009924	-0.006012	-0.006556	-49.860640	-69.780637	-31.438886
61491	9.131968	-2.568727	2.215343	0.007622	-0.006744	-0.005208	-49.857824	-69.786410	-31.436785
61492	9.154960	-2.559587	2.145669	0.010477	-0.009247	-0.010432	-49.851292	-69.795483	-31.442948
61493	9.163743	-2.612343	2.141677	0.009506	-0.003836	-0.008048	-49.841083	-69.801426	-31.447575
61494	9.169236	-2.577656	2.147390	0.013841	-0.002470	-0.009044	-49.826054	-69.807347	-31.457019
61495	9.129533	-2.572644	2.160838	0.008401	0.000414	-0.009338	-49.810111	-69.812283	-31.468430
61496	9.148561	-2.558350	2.168619	0.004215	-0.003225	-0.005149	-49.805459	-69.816746	-31.471224
61497	9.148811	-2.557615	2.168432	0.006114	-0.003750	-0.008470	-49.796648	-69.822841	-31.476432
61498	9.156617	-2.554344	2.144846	0.003436	-0.010382	-0.001017	-49.804955	-69.828170	-31.468736
61499	9.156775	-2.554372	2.144140	0.001523	-0.006425	0.002785	-49.813290	-69.830328	-31.458480
61500	9.170416	-2.574775	2.145804	0.001509	-0.002993	0.003265	-49.818458	-69.831014	-31.451929
61501	9.177895	-2.572309	2.122632	0.004214	-0.001002	0.003893	-49.819906	-69.830682	-31.447368
61502	9.212461	-2.610286	2.104064	0.005948	0.006399	0.006901	-49.814854	-69.826287	-31.449483
61503	9.188531	-2.562374	2.155215	0.005069	0.021043	0.005352	-49.791026	-69.817164	-31.471329
61504	9.147934	-2.559102	2.170380	0.007398	0.017135	0.012088	-49.777498	-69.806534	-31.482256
61505	9.135948	-2.570891	2.141377	0.009161	0.017673	0.014138	-49.764207	-69.794811	-31.490379
61506	9.125239	-2.543833	2.195294	0.005740	0.024624	0.014675	-49.745376	-69.780258	-31.507096
61507	9.100426	-2.592414	2.183461	0.003369	0.007795	0.018992	-49.752027	-69.770068	-31.497504
61508	9.152477	-2.561757	2.153658	0.001739	0.008420	0.020617	-49.760857	-69.758950	-31.487254
61509	9.146578	-2.597249	2.148657	0.000393	0.005709	0.020064	-49.772744	-69.749062	-31.473898
61510	9.164758	-2.585523	2.157024	0.001336	0.007162	0.018644	-49.781167	-69.739240	-31.464440
61511	9.145207	-2.600705	2.150312	0.004702	0.013939	0.020033	-49.780782	-69.726320	-31.461532
61512	9.144431	-2.602199	2.151803	0.006187	0.015585	0.015218	-49.772974	-69.714888	-31.467332
61513	9.162515	-2.590122	2.161033	0.007690	0.012593	0.018487	-49.770925	-69.703142	-31.464373
61514	9.148081	-2.571451	2.160772	0.007924	0.022988	0.018232	-49.756630	-69.687676	-31.474199
61515	9.114763	-2.566127	2.153137	0.008880	0.021007	0.016334	-49.741817	-69.673758	-31.484123
61516	9.125078	-2.556965	2.185980	0.008480	0.018544	0.022926	-49.737118	-69.657890	-31.484588
61517	9.143598	-2.602242	2.214891	0.006731	0.013372	0.028963	-49.745167	-69.641276	-31.471444
61518	9.125343	-2.592620	2.160312	0.006730	0.013372	0.028966	-49.753544	-69.624645	-31.457649
61519	9.162052	-2.568129	2.177051	0.004979	0.009404	0.026435	-49.764713	-69.610603	-31.442243
61520	9.103059	-2.636475	2.202498	-0.000969	0.001806	0.028090	-49.790253	-69.598659	-31.415532
61521	9.155218	-2.606469	2.172277	0.007575	0.003362	0.022434	-49.803021	-69.588600	-31.396832
61522	9.170374	-2.659359	2.146435	0.002948	0.009976	0.017517	-49.806115	-69.578241	-31.391399
61523	9.127502	-2.625806	2.189001	0.000249	0.004557	0.016404	-49.815664	-69.570377	-31.380610
61524	9.153462	-2.610972	2.174265	0.000382	0.006923	0.011510	-49.817851	-69.563776	-31.377778
61525	9.128898	-2.658964	2.161363	0.004054	0.003493	0.009761	-49.819870	-69.559213	-31.372698
61526	9.112822	-2.608415	2.188317	0.003924	0.002330	0.006084	-49.820071	-69.556694	-31.369872
61527	9.145021	-2.615666	2.198389	0.002574	-0.000380	0.005528	-49.823286	-69.555416	-31.364420
61528	9.133637	-2.626805	2.167694	0.002163	0.001794	0.004031	-49.823054	-69.553981	-31.362904
61529	9.129521	-2.621923	2.244574	0.000679	-0.003280	0.008369	-49.833577	-69.552530	-31.350812
61530	9.137122	-2.619666	2.221067	-0.000256	-0.006962	0.000737	-49.841776	-69.555780	-31.341823
61531	9.137253	-2.619675	2.220518	-0.000667	-0.004788	-0.000759	-49.845794	-69.558883	-31.337496
61532	9.105051	-2.612802	2.210013	-0.000659	-0.008221	-0.001240	-49.853733	-69.563457	-31.328999
61533	9.160470	-2.611403	2.149991	0.000971	-0.008849	-0.002863	-49.859505	-69.568982	-31.321799
61534	9.115430	-2.640558	2.156790	0.001918	-0.007399	-0.004284	-49.861996	-69.574588	-31.317556
61535	9.159309	-2.636088	2.197075	0.005574	-0.003963	-0.005072	-49.857197	-69.579276	-31.318823
61536	9.140085	-2.592419	2.169535	0.002182	-0.003870	-0.005502	-49.854177	-69.584117	-31.320524
61537	9.135043	-2.625344	2.163534	0.002051	-0.005034	-0.009178	-49.848578	-69.590998	-31.324798
61538	9.127849	-2.627142	2.185951	0.007220	-0.011457	-0.007656	-49.849454	-69.599583	-31.319236
61539	9.154633	-2.610342	2.170088	0.002182	-0.003870	-0.005501	-49.846058	-69.604424	-31.321078
61540	9.147303	-2.612429	2.192739	0.004223	-0.006672	-0.005628	-49.845027	-69.610347	-31.319193
61541	9.128735	-2.625173	2.184614	0.007203	-0.004591	-0.006695	-49.838414	-69.615976	-31.321398
61542	9.136632	-2.621666	2.161285	0.005441	-0.005126	-0.008747	-49.831763	-69.622695	-31.324785
61543	9.142316	-2.587011	2.166589	0.007071	-0.005754	-0.010370	-49.822935	-69.630363	-31.329434
61544	9.144966	-2.616917	2.137589	0.004354	-0.004308	-0.010521	-49.814176	-69.637559	-31.335757
61545	9.124184	-2.598457	2.158196	0.006528	-0.005945	-0.006971	-49.809260	-69.643809	-31.336563
61546	9.095809	-2.582579	2.201991	0.007333	-0.002226	-0.011589	-49.795263	-69.650703	-31.346724
61547	9.070373	-2.654221	2.236611	0.003137	-0.005853	-0.007400	-49.791750	-69.657107	-31.348108
61548	9.132363	-2.537025	2.112952	0.017493	-0.048456	0.005993	-49.844074	-69.673391	-31.281166
61549	9.115052	-2.649570	2.273905	0.004296	0.016289	-0.007652	-49.813487	-69.671722	-31.310713
61550	9.202567	-2.445871	2.246597	0.056614	-0.069513	0.009908	-49.872275	-69.694063	-31.213107
61551	9.326181	-2.724699	1.890214	-0.058225	0.010614	-0.020065	-49.871801	-69.699935	-31.248737
61552	8.860993	-2.572263	2.375615	0.012326	0.006156	-0.002783	-49.853806	-69.699879	-31.260050
61553	9.248139	-2.523930	2.042956	0.009242	-0.007390	-0.006818	-49.849209	-69.706597	-31.258859
61554	8.947111	-2.754606	2.330712	-0.006226	-0.004259	0.003839	-49.860786	-69.707487	-31.249966
61555	8.331309	-2.447092	2.751927	0.079157	-0.172839	0.064872	-50.084187	-69.743719	-30.963015
61556	10.729370	-2.710186	0.957054	0.098867	-0.177729	0.000454	-50.239366	-69.809743	-30.736906
61557	8.106372	-2.316215	3.223372	-0.152572	0.207757	0.036982	-50.114368	-69.718240	-30.962850
61558	8.981993	-3.034355	1.769231	0.169440	-0.326785	0.051872	-50.458705	-69.816005	-30.492026
61559	10.229293	-2.080474	1.516234	0.045719	-0.045505	0.029330	-50.515106	-69.820634	-30.403580
61560	8.805318	-2.841212	2.244211	-0.105704	0.227087	0.010598	-50.313129	-69.734048	-30.683010
61561	9.249824	-2.898625	1.949637	0.003834	-0.057046	-0.031830	-50.346353	-69.769955	-30.644810
61562	8.998055	-2.251466	2.687848	-0.023985	0.033946	-0.028115	-50.290732	-69.770934	-30.718369
61563	8.787984	-2.673348	2.237385	0.033380	-0.010216	-0.002353	-50.280265	-69.776715	-30.708695
61564	9.458885	-2.565945	1.790765	0.023836	-0.109546	0.019453	-50.416368	-69.809182	-30.548744
61565	9.608452	-2.636472	1.854985	-0.055240	0.076848	-0.017491	-50.337252	-69.789825	-30.666324
61566	8.547644	-2.604140	2.473107	-0.005961	-0.000726	0.002629	-50.343307	-69.789935	-30.663152
61567	9.870622	-2.499534	1.752059	0.015376	0.007295	-0.035459	-50.289279	-69.803906	-30.710889
61568	8.738754	-2.775755	2.392565	-0.098066	0.155336	-0.043575	-50.115510	-69.767126	-30.955576
61569	9.189482	-2.530830	2.104454	0.035547	-0.079261	-0.029109	-50.159561	-69.810039	-30.886486
61570	9.134564	-2.460328	2.274686	-0.049429	0.074011	-0.006597	-50.091995	-69.786755	-30.988293
61571	9.076497	-2.747954	2.147149	0.029494	-0.029695	-0.010798	-50.098543	-69.803418	-30.962864
61572	9.222446	-2.534957	2.115002	-0.033959	0.018068	-0.001870	-50.093684	-69.798599	-30.988404
61573	9.124380	-2.596684	2.153835	0.008956	-0.004052	-0.004649	-50.087514	-69.803135	-30.989065
61574	9.192859	-2.615293	2.097026	-0.011444	0.017086	-0.004345	-50.068457	-69.799762	-31.015999
61575	9.135610	-2.585146	2.186012	-0.001650	0.005257	-0.006471	-50.055420	-69.801674	-31.030451
61576	9.167951	-2.591662	2.196385	-0.011291	0.011386	-0.001621	-50.045810	-69.799198	-31.047204
61577	9.124094	-2.595511	2.156460	-0.004367	0.006703	-0.006620	-50.032454	-69.800641	-31.063655
61578	9.139170	-2.589615	2.110831	-0.005456	0.007521	-0.008393	-50.017338	-69.802558	-31.082739
61579	9.131742	-2.591549	2.134404	-0.007221	0.006984	-0.010442	-50.001450	-69.805572	-31.103629
61580	9.175625	-2.586894	2.175149	-0.007335	0.001188	-0.006021	-49.997338	-69.808778	-31.112131
61581	9.145562	-2.610678	2.136673	-0.006392	0.002639	-0.007445	-49.989154	-69.812076	-31.124306
61582	9.143467	-2.579159	2.165451	-0.007750	0.003361	-0.007519	-49.981180	-69.815137	-31.137168
61583	9.164772	-2.596097	2.144226	-0.005014	-0.004948	-0.008323	-49.980377	-69.821614	-31.140637
61584	9.165013	-2.595502	2.143917	-0.008425	0.002006	-0.007794	-49.974124	-69.825295	-31.152083
61585	9.165153	-2.594882	2.144071	-0.003415	0.004722	-0.008516	-49.960658	-69.828293	-31.168068
61586	9.151732	-2.573893	2.142325	-0.001788	0.004096	-0.010140	-49.945744	-69.832231	-31.184673
61587	9.133009	-2.586567	2.135026	-0.002741	0.006078	-0.008240	-49.930542	-69.834605	-31.202095
61588	9.136883	-2.577707	2.189470	-0.004516	0.008973	-0.009812	-49.911689	-69.836597	-31.224572
61589	9.158132	-2.594361	2.168857	-0.003136	0.001386	-0.010691	-49.899841	-69.841773	-31.238661
61590	9.123706	-2.555901	2.187636	-0.003664	-0.002238	-0.007771	-49.895924	-69.847004	-31.244710
61591	9.166176	-2.590334	2.145194	-0.003922	-0.005766	-0.006549	-49.897225	-69.853004	-31.245271
61592	9.160432	-2.566732	2.119594	-0.003126	-0.002046	-0.011167	-49.889348	-69.859653	-31.255191
61593	9.120787	-2.561920	2.132538	-0.005697	-0.002871	-0.008120	-49.886622	-69.865273	-31.261125
61594	9.145951	-2.570826	2.164872	-0.004191	-0.005862	-0.004850	-49.890269	-69.870562	-31.259427
61595	9.167429	-2.587695	2.143027	-0.004047	-0.010361	-0.010698	-49.892956	-69.880076	-31.258590
61596	9.161831	-2.563949	2.116914	-0.004732	-0.008284	-0.010496	-49.894122	-69.888734	-31.259879
61597	9.154776	-2.565710	2.139130	-0.005823	-0.007466	-0.012268	-49.892780	-69.897867	-31.264416
61598	9.174085	-2.551213	2.146043	-0.002431	-0.007554	-0.011844	-49.890394	-69.906846	-31.268066
61599	9.144397	-2.574520	2.106654	-0.004047	-0.010361	-0.010696	-49.893084	-69.916359	-31.267225
61600	9.129854	-2.579039	2.151837	-0.004733	-0.008284	-0.010494	-49.894249	-69.925016	-31.268514
61601	9.149183	-2.564674	2.158505	-0.004721	-0.011716	-0.010970	-49.898677	-69.935150	-31.266235
61602	9.170914	-2.581062	2.136100	-0.006205	-0.015588	-0.015192	-49.904713	-69.948562	-31.263189
61603	9.179054	-2.577206	2.111654	-0.005813	-0.010897	-0.012740	-49.907001	-69.959169	-31.263854
61604	9.153333	-2.592234	2.125829	-0.000107	-0.013685	-0.014144	-49.908320	-69.971419	-31.262147
61605	9.156915	-2.526281	2.159118	-0.001211	-0.009435	-0.015437	-49.903481	-69.982668	-31.267591
61606	9.159734	-2.555943	2.129580	-0.002166	-0.007455	-0.013537	-49.899095	-69.992352	-31.273186
61607	9.200172	-2.558698	2.115505	-0.002166	-0.007455	-0.013536	-49.894336	-70.002038	-31.279126
61608	9.147084	-2.533483	2.126118	-0.001760	-0.006196	-0.011563	-49.890193	-70.010393	-31.284269
61609	9.153633	-2.555262	2.150783	-0.000147	-0.003388	-0.012710	-49.880205	-70.018215	-31.294541
61610	9.168957	-2.548853	2.104253	-0.004074	-0.003496	-0.009735	-49.875987	-70.024773	-31.301112
61611	9.143031	-2.564151	2.119110	-0.000401	-0.006916	-0.011488	-49.871627	-70.033361	-31.305549
61612	9.181044	-2.536427	2.133774	-0.004863	-0.007219	-0.005118	-49.877031	-70.039271	-31.302450
61613	9.155027	-2.552290	2.148381	-0.004863	-0.007219	-0.005118	-49.882071	-70.045180	-31.299608
61614	9.204982	-2.584049	2.082525	0.000563	-0.006669	-0.004349	-49.884490	-70.050551	-31.296364
61615	9.170510	-2.545845	2.101126	-0.000010	-0.002225	-0.009038	-49.876734	-70.056334	-31.304176
61616	9.176913	-2.568036	2.126012	0.000816	-0.003140	-0.005570	-49.873509	-70.060937	-31.306741
61617	9.177110	-2.567223	2.126147	0.003888	0.004748	-0.011060	-49.853031	-70.065029	-31.325709
61618	9.175025	-2.535238	2.155244	0.003635	0.001219	-0.009838	-49.838567	-70.069886	-31.338428
61619	9.171333	-2.542501	2.101581	0.003101	0.001025	-0.006443	-49.827728	-70.073330	-31.347622
61620	9.152584	-2.555602	2.094100	0.004332	0.001369	-0.001002	-49.821689	-70.074266	-31.351021
61621	9.137728	-2.560587	2.140423	0.007181	-0.001135	-0.006223	-49.811340	-70.078411	-31.357207
61622	9.190413	-2.527583	2.109807	0.003239	0.002186	-0.002773	-49.803148	-70.079821	-31.363470
61623	9.170372	-2.566269	2.150484	0.002161	-0.000429	-0.005019	-49.796046	-70.083177	-31.369263
61624	9.158176	-2.520033	2.100226	0.003521	-0.001148	-0.004946	-49.789477	-70.086766	-31.373654
61625	9.156960	-2.545182	2.148572	0.003239	0.002186	-0.002773	-49.780889	-70.088171	-31.380369
61626	9.183219	-2.528632	2.133667	0.005256	0.006254	-0.001949	-49.767450	-70.087715	-31.391129
61627	9.164433	-2.541687	2.126423	0.003101	0.001024	-0.006442	-49.756593	-70.091154	-31.400342
61628	9.189458	-2.550543	2.159625	0.003224	0.005618	-0.002296	-49.744741	-70.091090	-31.410780
61629	9.164412	-2.540940	2.127405	0.003224	0.005618	-0.002296	-49.732501	-70.091015	-31.421389
61630	9.183166	-2.527054	2.135765	0.004163	0.007071	-0.003719	-49.716873	-70.091018	-31.435008
61631	9.166613	-2.571115	2.100123	0.004163	0.007071	-0.003719	-49.700887	-70.091024	-31.449028
61632	9.183056	-2.526258	2.137179	0.004584	0.004899	-0.002222	-49.689161	-70.091183	-31.458590
61633	9.156703	-2.542008	2.153422	0.003322	0.011416	-0.006711	-49.665353	-70.090882	-31.481442
61634	9.175349	-2.528092	2.162248	0.005644	0.010946	0.000501	-49.648522	-70.087606	-31.495712
61635	9.150198	-2.518620	2.130374	0.002535	0.007694	-0.002094	-49.634384	-70.086666	-31.508758
61636	9.166092	-2.569320	2.104590	0.003742	0.009244	-0.005214	-49.614850	-70.086526	-31.527459
61637	9.163717	-2.537856	2.134071	0.003491	0.005715	-0.003992	-49.600606	-70.087146	-31.540038
61638	9.182520	-2.523796	2.142383	0.003759	0.005812	-0.005689	-49.584710	-70.088476	-31.554525
61639	9.163753	-2.536637	2.135366	0.007419	0.005826	-0.006963	-49.565031	-70.090349	-31.570489
61640	9.196312	-2.542274	2.145815	0.005922	0.005383	-0.010706	-49.543268	-70.094017	-31.589611
61641	9.142779	-2.517288	2.157890	0.001556	0.010876	-0.008755	-49.519020	-70.094789	-31.614006
61642	9.177540	-2.554065	2.140088	0.006713	0.011335	-0.006285	-49.494163	-70.094299	-31.635598
61643	9.161459	-2.502255	2.167802	0.002649	0.010060	-0.006983	-49.472091	-70.094596	-31.657014
61644	9.177436	-2.552932	2.141890	0.003643	0.003447	-0.000797	-49.464132	-70.094675	-31.663356
61645	9.190031	-2.516190	2.125036	0.003069	0.007888	-0.005486	-49.445970	-70.095125	-31.680357
61646	9.150063	-2.511743	2.139058	0.002398	0.006532	-0.005761	-49.429913	-70.096212	-31.695915
61647	9.171241	-2.528576	2.118712	0.003758	0.005813	-0.005686	-49.413642	-70.097520	-31.710485
61648	9.150027	-2.510730	2.140397	0.002533	0.007695	-0.002092	-49.399889	-70.096561	-31.723007
61649	9.182389	-2.517114	2.150791	0.002282	0.004166	-0.000871	-49.391400	-70.096386	-31.730200
61650	9.163479	-2.530556	2.143740	0.004296	0.008236	-0.000045	-49.378125	-70.094346	-31.741295
61651	9.189607	-2.514268	2.129141	0.004717	0.006064	0.001451	-49.368355	-70.092452	-31.748366
61652	9.169283	-2.553345	2.170421	-0.000457	0.009037	-0.000545	-49.356336	-70.090344	-31.761526
61653	9.168144	-2.496669	2.151557	0.004582	0.004900	-0.002217	-49.344264	-70.090477	-31.771128
61654	9.187852	-2.539517	2.179361	-0.002068	0.006227	0.000601	-49.337729	-70.088914	-31.779249
61655	9.181589	-2.516596	2.154807	0.005254	0.006257	-0.001941	-49.323929	-70.088421	-31.790280
61656	9.170194	-2.527352	2.124697	-0.000036	0.006865	0.000952	-49.315776	-70.086449	-31.798734
61657	9.154999	-2.532739	2.171512	0.003625	0.006880	-0.000319	-49.303838	-70.085016	-31.808778
61658	9.154830	-2.532723	2.172241	0.001995	0.007503	0.001302	-49.294165	-70.082658	-31.817371
61659	9.199739	-2.502967	2.165300	0.004716	0.006064	0.001453	-49.284410	-70.080759	-31.824429
61660	9.161905	-2.530178	2.150899	0.001959	0.014368	0.002254	-49.267413	-70.075411	-31.841517
61661	9.169170	-2.527506	2.128931	0.005656	0.007518	0.000032	-49.253919	-70.073584	-31.851978
61662	9.180201	-2.516645	2.160655	0.001977	0.010935	0.001779	-49.240568	-70.069722	-31.864907
61663	9.168690	-2.527671	2.130800	0.005118	0.007325	0.003426	-49.231120	-70.066493	-31.871393
61664	9.165959	-2.497011	2.160452	0.002109	0.012100	0.005448	-49.220150	-70.060639	-31.882547
61665	9.179279	-2.517396	2.163697	0.006729	0.010135	0.002282	-49.205245	-70.056854	-31.893856
61666	9.185039	-2.540401	2.190160	0.003721	0.014910	0.004304	-49.188893	-70.050430	-31.908617
61667	9.164884	-2.497675	2.164240	0.004679	0.012930	0.002408	-49.171966	-70.045541	-31.923327
61668	9.159433	-2.531669	2.159659	0.005938	0.006414	0.006897	-49.167062	-70.041176	-31.925865
61669	9.170352	-2.521181	2.191317	0.003068	0.010121	0.003553	-49.155604	-70.036842	-31.935741
61670	9.158820	-2.532298	2.161519	0.004428	0.009402	0.003629	-49.144682	-70.032778	-31.945229
61671	9.163665	-2.498859	2.168035	0.002396	0.008764	0.003277	-49.134951	-70.029070	-31.953677
61672	9.165839	-2.530241	2.139997	0.001203	0.003783	0.005918	-49.134885	-70.026074	-31.952371
61673	9.176754	-2.519845	2.171540	0.003469	0.011382	0.005527	-49.123745	-70.020410	-31.961665
61674	9.165207	-2.531195	2.141576	0.001874	0.005140	0.006195	-49.122036	-70.016813	-31.962099
61675	9.176127	-2.520712	2.173183	0.005099	0.010758	0.003907	-49.109042	-70.012084	-31.972372
61676	9.168256	-2.523574	2.197325	0.001978	0.010936	0.001782	-49.095753	-70.008201	-31.984857
61677	9.201875	-2.504850	2.159959	0.004428	0.009402	0.003632	-49.084484	-70.004098	-31.993705
61678	9.142781	-2.514756	2.166479	0.002378	0.012198	0.003755	-49.071511	-69.998885	-32.005551
61679	9.153654	-2.504158	2.198362	0.003067	0.010121	0.003556	-49.060097	-69.994544	-32.015383
61680	9.177037	-2.552861	2.149651	0.003085	0.006688	0.003080	-49.052608	-69.991708	-32.021333
61681	9.141873	-2.515741	2.169166	0.001584	0.008478	0.008369	-49.048966	-69.985899	-32.023798
61682	9.187592	-2.543029	2.181965	0.001454	0.007312	0.004700	-49.043254	-69.982115	-32.029298
61683	9.167626	-2.500401	2.155382	0.003756	0.008045	0.003357	-49.033719	-69.978638	-32.036711
61684	9.168274	-2.557200	2.175765	0.001454	0.007313	0.004700	-49.028096	-69.974856	-32.041498
61685	9.173115	-2.523907	2.182174	0.005516	0.008587	0.005408	-49.019030	-69.970287	-32.047339
61686	9.132786	-2.520368	2.196267	0.004156	0.009307	0.005331	-49.010089	-69.965470	-32.053982
61687	9.180067	-2.522091	2.160804	0.001871	0.005141	0.006198	-49.008017	-69.961854	-32.054601
61688	9.147333	-2.516114	2.151550	0.002943	0.007759	0.008448	-49.004842	-69.956299	-32.056785
61689	9.152999	-2.539401	2.177780	0.005770	0.012115	0.004190	-48.990205	-69.950930	-32.068402
61690	9.165428	-2.503515	2.161110	0.002288	0.002970	0.007695	-48.992332	-69.947492	-32.064680
61691	9.159895	-2.537906	2.156308	0.003596	0.012550	0.009203	-48.983597	-69.939791	-32.071341
61692	9.151770	-2.541486	2.180512	0.002382	0.011003	0.012320	-48.980986	-69.931327	-32.071834
61693	9.182811	-2.492582	2.171776	0.004701	0.008301	0.010502	-48.977989	-69.924662	-32.071712
61694	9.118374	-2.536750	2.172571	-0.000067	0.012539	0.010469	-48.972964	-69.916429	-32.077497
61695	9.144268	-2.521544	2.158212	0.003757	0.006850	0.011923	-48.973688	-69.909696	-32.073990
61696	9.160956	-2.534531	2.215092	-0.001010	0.011088	0.011890	-48.972457	-69.901425	-32.076694
61697	9.168029	-2.532950	2.193044	0.005100	0.009563	0.012479	-48.969777	-69.893431	-32.075992
61698	9.175193	-2.531327	2.170684	-0.000978	0.004221	0.010936	-48.975711	-69.888142	-32.070017
61699	9.153536	-2.514934	2.192101	0.002125	0.007476	0.013544	-48.978290	-69.880472	-32.065530
61700	9.155509	-2.547009	2.164187	-0.000722	0.007750	0.009717	-48.978683	-69.874401	-32.065764
61701	9.179844	-2.557114	2.198056	0.004285	0.010473	0.009010	-48.971834	-69.867565	-32.069999
61702	9.158159	-2.540486	2.219830	0.002396	0.007571	0.011849	-48.972753	-69.860604	-32.067282
61703	9.185727	-2.499926	2.157127	0.001709	0.009648	0.012049	-48.971473	-69.852764	-32.067158
61704	9.124713	-2.536049	2.211720	0.000748	0.011631	0.013947	-48.970632	-69.843359	-32.067566
61705	9.198200	-2.522558	2.161213	0.003209	0.006661	0.015324	-48.975363	-69.835227	-32.060123
61706	9.163495	-2.542973	2.200380	-0.000343	0.011254	0.020738	-48.982687	-69.823035	-32.051331
61707	9.149155	-2.524539	2.199337	0.004265	0.012713	0.018057	-48.982479	-69.811445	-32.048503
61708	9.143208	-2.559877	2.194868	-0.003462	0.011436	0.018608	-48.988985	-69.800085	-32.043586
61709	9.168906	-2.545424	2.180740	0.002906	0.013435	0.017982	-48.988625	-69.788256	-32.041750
61710	9.141681	-2.563303	2.197230	0.000327	0.012612	0.021021	-48.994122	-69.775438	-32.035858
61711	9.127358	-2.544873	2.196138	0.000201	0.011445	0.017349	-48.996995	-69.764631	-32.032229
61712	9.147851	-2.564141	2.176306	0.002371	0.009813	0.020903	-49.004536	-69.752924	-32.022516
61713	9.165925	-2.552299	2.185232	0.003179	0.013530	0.016289	-49.002172	-69.741791	-32.022650
61714	9.109969	-2.554807	2.245400	-0.000598	0.008922	0.013399	-49.004828	-69.733683	-32.020452
61715	9.138320	-2.570867	2.202370	0.004425	0.008205	0.012217	-49.003840	-69.726313	-32.018358
61716	9.148930	-2.561149	2.234096	0.000075	0.010279	0.013679	-49.004780	-69.717549	-32.016915
61717	9.123799	-2.552691	2.201848	0.003901	0.005775	0.006567	-49.001189	-69.713536	-32.017916
61718	9.129431	-2.575873	2.227692	0.001060	0.006052	0.002735	-48.995266	-69.711057	-32.023022
61719	9.136999	-2.573214	2.205108	0.001895	0.002899	-0.002838	-48.986624	-69.712191	-32.030632
61720	9.149954	-2.536623	2.187904	0.001222	0.001543	-0.003117	-48.979969	-69.713971	-32.037308
61721	9.118286	-2.585990	2.197736	0.001496	0.001637	-0.004815	-48.971019	-69.716434	-32.045491
61722	9.142417	-2.538535	2.211216	0.000274	0.000094	-0.001698	-48.968019	-69.718114	-32.047906
61723	9.150171	-2.535654	2.188122	0.001234	-0.001891	-0.003595	-48.964584	-69.721376	-32.050370
61724	9.123786	-2.551418	2.203374	0.001222	0.001544	-0.003117	-48.958048	-69.723184	-32.056727
61725	9.163880	-2.555180	2.190437	0.001907	-0.000535	-0.003316	-48.952923	-69.725816	-32.060580
61726	9.145157	-2.568334	2.182673	-0.000810	0.000910	-0.003475	-48.947741	-69.727968	-32.066707
61727	9.142793	-2.537071	2.211340	-0.001084	0.000816	-0.001777	-48.944316	-69.729426	-32.070575
61728	9.137601	-2.570495	2.205782	0.001907	-0.000535	-0.003316	-48.939563	-69.732061	-32.073575
61729	9.150604	-2.534100	2.188113	-0.002293	-0.004162	0.000861	-48.945342	-69.734252	-32.068370
61730	9.150681	-2.533880	2.188043	-0.002306	0.003898	-0.006750	-48.934254	-69.736714	-32.081714
61731	9.151465	-2.589882	2.207640	-0.000111	-0.004603	-0.004153	-48.934187	-69.741237	-32.081409
61732	9.156869	-2.555733	2.213144	-0.000947	0.003176	-0.006670	-48.923276	-69.743936	-32.093497
61733	9.132335	-2.545773	2.180185	0.001783	-0.001703	-0.006990	-48.915832	-69.748593	-32.099898
61734	9.149551	-2.557136	2.236150	0.000150	-0.001074	-0.005372	-48.910555	-69.752340	-32.105836
61735	9.159202	-2.528400	2.164735	0.003416	-0.002331	-0.008609	-48.901252	-69.757932	-32.113221
61736	9.150010	-2.555714	2.235898	-0.002966	-0.000892	-0.007506	-48.895372	-69.762525	-32.121454
61737	9.146821	-2.563261	2.181666	0.002483	-0.007215	-0.007668	-48.893278	-69.769550	-32.121725
61738	9.144715	-2.531277	2.210034	0.001919	0.000658	-0.011883	-48.878278	-69.775451	-32.137031
61739	9.147382	-2.561438	2.181453	-0.000935	-0.000258	-0.007148	-48.870517	-69.779630	-32.145427
61740	9.166419	-2.547202	2.189103	0.001384	-0.002964	-0.008966	-48.863037	-69.785610	-32.152152
61741	9.137775	-2.531604	2.232719	-0.000523	-0.002430	-0.005650	-48.859113	-69.789960	-32.156208
61742	9.126900	-2.541940	2.201435	-0.001181	-0.007221	-0.006407	-48.860650	-69.796441	-32.155376
61743	9.167222	-2.545369	2.187876	-0.000921	-0.003693	-0.007625	-48.856407	-69.802120	-32.160015
61744	9.167441	-2.544874	2.187530	-0.004187	-0.002437	-0.004389	-48.856223	-69.805943	-32.162511
61745	9.167608	-2.544320	2.187475	0.002042	0.001827	-0.008208	-48.843206	-69.809791	-32.174689
61746	9.160016	-2.546634	2.210609	-0.000274	-0.000094	0.001697	-48.844276	-69.810116	-32.173720
61747	9.165278	-2.512865	2.216111	0.001235	-0.001890	-0.003594	-48.840811	-69.813375	-32.176215
61748	9.120079	-2.542336	2.223582	-0.000687	0.002078	0.000200	-48.838041	-69.813535	-32.179806
61749	9.167764	-2.543593	2.187670	0.002579	0.000823	-0.003037	-48.831193	-69.815531	-32.185084
61750	9.127783	-2.539318	2.200799	-0.001085	0.000816	-0.001776	-48.828104	-69.817005	-32.188834
61751	9.154339	-2.522938	2.185383	-0.001469	-0.003881	-0.004230	-48.827867	-69.821290	-32.189539
61752	9.141615	-2.558892	2.202639	0.001907	-0.000533	-0.003316	-48.823010	-69.823921	-32.193273
61753	9.160511	-2.545079	2.210349	-0.004874	-0.000360	-0.004189	-48.820634	-69.826859	-32.198336
61754	9.160649	-2.544739	2.210168	0.003953	-0.003332	-0.003436	-48.817893	-69.830623	-32.198258
61755	9.168436	-2.541750	2.186993	-0.001484	-0.000447	-0.003752	-48.814122	-69.833406	-32.202737
61756	9.142083	-2.557722	2.202058	-0.001344	-0.002713	-0.000557	-48.816472	-69.835652	-32.200583
61757	9.155033	-2.521250	2.184425	-0.001484	-0.000447	-0.003752	-48.812700	-69.838434	-32.205063
61758	9.155097	-2.521100	2.184331	-0.002031	-0.000635	-0.000357	-48.813374	-69.839841	-32.204602
61759	9.128669	-2.537170	2.199600	0.000946	0.001451	-0.001419	-48.808378	-69.840901	-32.208902
61760	9.147545	-2.523331	2.207403	0.001508	-0.001795	-0.005291	-48.803204	-69.844864	-32.213271
61761	9.168866	-2.540679	2.186435	-0.000946	-0.001451	0.001419	-48.805617	-69.845795	-32.210834
61762	9.158764	-2.512230	2.238138	-0.002858	0.003709	-0.003353	-48.798536	-69.846837	-32.218927
61763	9.155359	-2.520079	2.184409	0.003540	-0.001160	-0.004934	-48.791503	-69.850397	-32.223814
61764	9.134154	-2.502475	2.205189	-0.005297	0.000619	0.002879	-48.795710	-69.849920	-32.222913
61765	9.155373	-2.520177	2.184238	0.000687	-0.002078	-0.000200	-48.796258	-69.851786	-32.221465
61766	9.147762	-2.522820	2.207091	-0.005421	-0.000549	-0.000794	-48.798132	-69.853328	-32.222874
61767	9.134188	-2.502904	2.204559	-0.002837	-0.004352	0.004256	-48.807957	-69.854131	-32.213696
61768	9.150239	-2.554481	2.177627	-0.004595	-0.004893	0.002201	-48.817629	-69.856051	-32.206541
61769	9.147932	-2.523491	2.205619	-0.003087	-0.006687	-0.003090	-48.822790	-69.860903	-32.202483
61770	9.142208	-2.500540	2.179672	-0.002001	-0.007503	-0.001314	-48.830413	-69.865325	-32.196183
61771	9.155893	-2.520760	2.181386	-0.004336	-0.001364	0.000983	-48.834222	-69.866412	-32.194328
61772	9.142343	-2.500778	2.178830	-0.007039	-0.003356	0.000347	-48.841550	-69.868545	-32.191343
61773	9.148388	-2.523827	2.203341	-0.007970	-0.008241	0.001288	-48.855850	-69.872093	-32.180533
61774	9.116145	-2.517676	2.192229	-0.008776	-0.011958	0.005902	-48.879964	-69.875063	-32.160946
61775	9.148705	-2.524959	2.200725	-0.007129	-0.016019	0.003805	-48.905545	-69.880451	-32.137608
61776	9.167781	-2.511901	2.206831	-0.010246	-0.015837	0.001674	-48.930889	-69.886718	-32.116773
61777	9.162933	-2.546072	2.199136	-0.012795	-0.023529	0.003756	-48.968560	-69.894945	-32.084020
61778	9.170885	-2.544007	2.174062	-0.009847	-0.014575	0.003652	-48.994199	-69.899859	-32.062472
61779	9.178756	-2.541793	2.149465	-0.004825	-0.015289	0.002466	-49.016281	-69.905536	-32.041458
61780	9.165377	-2.522054	2.145922	-0.005112	-0.011950	0.004643	-49.037165	-69.909031	-32.022011
61781	9.163844	-2.548004	2.193096	-0.003494	-0.009143	0.003502	-49.052296	-69.911947	-32.007588
61782	9.179144	-2.543019	2.146359	0.000828	-0.004345	0.002994	-49.059040	-69.913291	-31.999881
61783	9.150336	-2.528362	2.190013	-0.000945	-0.001451	0.001420	-49.061474	-69.914219	-31.997424
61784	9.150369	-2.528548	2.189660	0.001514	-0.006423	0.002794	-49.070023	-69.916409	-31.987226
61785	9.169177	-2.515533	2.196872	-0.000662	-0.005986	0.007809	-49.084224	-69.916273	-31.972066
61786	9.150345	-2.529545	2.188610	-0.003922	-0.003536	0.002484	-49.092209	-69.917530	-31.965902
61787	9.118066	-2.523406	2.177602	-0.004958	-0.017650	0.007362	-49.122234	-69.921959	-31.936515
61788	9.179423	-2.545604	2.142095	-0.003754	-0.012670	0.004723	-49.143314	-69.925695	-31.916626
61789	9.193164	-2.566225	2.143014	-0.004841	-0.011853	0.002949	-49.161893	-69.929857	-31.899356
61790	9.183329	-2.538398	2.193528	-0.001994	-0.012131	0.006777	-49.183417	-69.932489	-31.877944
61791	9.139793	-2.543212	2.151734	-0.002680	-0.010054	0.006978	-49.202763	-69.934226	-31.858539
61792	9.151117	-2.532905	2.181483	-0.001451	-0.011941	0.003382	-49.220318	-69.938253	-31.840579
61793	9.179944	-2.548218	2.136746	0.001643	-0.005257	0.006467	-49.230973	-69.938413	-31.827790
61794	9.124734	-2.550041	2.195484	0.000970	-0.006613	0.006190	-49.243656	-69.939201	-31.813095
61795	9.172377	-2.551803	2.158576	0.000167	-0.009134	0.002239	-49.255438	-69.942644	-31.800008
61796	9.170153	-2.521016	2.186489	-0.000519	-0.007057	0.002440	-49.265576	-69.945225	-31.789774
61797	9.146142	-2.568483	2.172478	-0.002149	-0.006430	0.004062	-49.277340	-69.946863	-31.778118
61798	9.170227	-2.521762	2.185318	0.000556	-0.004440	0.004693	-49.286065	-69.947483	-31.768532
61799	9.134199	-2.523629	2.121041	-0.000791	-0.007151	0.004139	-49.297992	-69.949356	-31.755875
61800	9.159017	-2.533398	2.153449	0.000556	-0.004440	0.004693	-49.306763	-69.950001	-31.746848
61801	9.197383	-2.563295	2.188159	-0.000531	-0.003623	0.002919	-49.313095	-69.951086	-31.739989
61802	9.158999	-2.533880	2.152962	0.002032	0.000633	0.000354	-49.310576	-69.951714	-31.741465
61803	9.151459	-2.536437	2.175937	-0.001076	-0.002616	-0.002252	-49.310729	-69.954669	-31.741515
61804	9.185530	-2.517603	2.137316	0.003132	-0.003617	0.001651	-49.314012	-69.956336	-31.736365
61805	9.140275	-2.547400	2.144722	0.000816	-0.000912	0.003473	-49.316913	-69.956167	-31.732336
61806	9.185426	-2.518179	2.137086	0.000545	-0.001007	0.005171	-49.322183	-69.955310	-31.725656
61807	9.158914	-2.534635	2.152435	-0.000956	0.001983	0.001899	-49.321041	-69.954744	-31.727012
61808	9.158813	-2.534963	2.152475	0.000545	-0.001007	0.005171	-49.326325	-69.953904	-31.720928
61809	9.185818	-2.575793	2.156730	0.002577	-0.000374	0.005525	-49.329676	-69.952642	-31.715347
61810	9.139731	-2.549079	2.145044	0.000249	0.006961	-0.000743	-49.319507	-69.951370	-31.725701
61811	9.150807	-2.538411	2.176376	0.000120	0.004599	0.004151	-49.316939	-69.948848	-31.727919
61812	9.184614	-2.520004	2.138424	0.001478	0.003877	0.004228	-49.314866	-69.946558	-31.728231
61813	9.142828	-2.541782	2.200229	0.001478	0.003877	0.004228	-49.312459	-69.944272	-31.729449
61814	9.157828	-2.536982	2.154289	-0.001086	-0.000379	0.006793	-49.319614	-69.942501	-31.722320
61815	9.190017	-2.544361	2.164258	0.000261	0.002332	0.007348	-49.322934	-69.939436	-31.718183
61816	9.157425	-2.538155	2.154619	-0.000554	0.003244	0.003875	-49.322431	-69.937559	-31.718611
61817	9.176039	-2.525305	2.162573	-0.003401	0.002326	0.008616	-49.329150	-69.933945	-31.713089
61818	9.134110	-2.547445	2.224475	0.000511	0.009293	0.006606	-49.323642	-69.928645	-31.718928
61819	9.148966	-2.542793	2.178999	-0.000424	0.004410	0.007549	-49.325086	-69.924717	-31.717206
61820	9.175129	-2.527519	2.163850	-0.001631	-0.000569	0.010191	-49.336109	-69.921520	-31.706832
61821	9.156024	-2.541889	2.156169	-0.001369	0.002960	0.008971	-49.341267	-69.917515	-31.701733
61822	9.148168	-2.545312	2.179409	-0.003130	0.002422	0.006918	-49.346362	-69.914642	-31.698164
61823	9.181951	-2.527344	2.141196	-0.003402	0.002327	0.008617	-49.353071	-69.911027	-31.692652
61824	9.147692	-2.546720	2.179763	-0.001912	0.003967	0.003799	-49.352363	-69.908897	-31.693941
61825	9.168570	-2.564909	2.159219	-0.002054	0.005038	0.009173	-49.355644	-69.904028	-31.691259
61826	9.154636	-2.545673	2.157601	0.000381	0.006930	0.011504	-49.357998	-69.897470	-31.688544
61827	9.173071	-2.533259	2.165863	-0.000968	0.004220	0.010949	-49.363434	-69.892134	-31.682902
61828	9.172675	-2.534209	2.166429	0.002686	0.007657	0.010160	-49.362245	-69.885874	-31.681864
61829	9.166911	-2.568901	2.161516	0.000108	0.006836	0.013204	-49.366252	-69.878581	-31.677087
61830	9.160423	-2.547290	2.137248	0.001448	0.012980	0.014239	-49.363617	-69.868562	-31.678275
61831	9.165738	-2.571301	2.163632	0.005795	0.010904	0.012772	-49.359100	-69.859939	-31.679107
61832	9.144038	-2.554866	2.185555	0.001456	0.009547	0.013761	-49.360070	-69.851429	-31.676965
61833	9.164669	-2.573345	2.165732	0.005254	0.011911	0.007599	-49.349412	-69.844679	-31.684667
61834	9.121904	-2.539013	2.208582	0.001728	0.009642	0.012064	-49.348288	-69.836838	-31.684396
61835	9.150078	-2.555108	2.165767	0.004838	0.012889	0.014675	-49.343913	-69.826647	-31.685662
61836	9.134289	-2.561352	2.212966	0.003632	0.009107	0.008744	-49.339069	-69.820499	-31.688889
61837	9.130358	-2.570286	2.159603	-0.000691	0.000884	0.008774	-49.346067	-69.817354	-31.681412
61838	9.148926	-2.557546	2.167753	0.001197	0.007216	0.006412	-49.342388	-69.812884	-31.684385
61839	9.127545	-2.540345	2.189194	0.000394	0.004694	0.002457	-49.337844	-69.811063	-31.688543
61840	9.162004	-2.578528	2.170837	-0.000828	0.003151	0.005577	-49.339370	-69.808483	-31.686718
61841	9.127190	-2.540839	2.190103	0.005954	0.007593	-0.001650	-49.324046	-69.807364	-31.698967
61842	9.159382	-2.547683	2.200681	0.000120	0.004600	0.004156	-49.321811	-69.804860	-31.701185
61843	9.132726	-2.564103	2.216227	-0.001230	0.001891	0.003599	-49.322672	-69.803589	-31.700575
61844	9.166768	-2.545595	2.178050	0.002033	0.000631	0.000356	-49.320198	-69.804215	-31.701504
61845	9.161345	-2.579413	2.172567	-0.001230	0.001891	0.003599	-49.321059	-69.802944	-31.700894
61846	9.174204	-2.543549	2.155167	0.000538	-0.001006	0.005175	-49.326289	-69.802092	-31.694452
61847	9.139962	-2.562560	2.193579	-0.000281	0.003340	0.002179	-49.323453	-69.800897	-31.697202
61848	9.147458	-2.560133	2.170892	0.001752	0.003970	0.002535	-49.319365	-69.799336	-31.700671
61849	9.158558	-2.549521	2.201978	0.000402	0.001261	0.001978	-49.318390	-69.799005	-31.701022
61850	9.147188	-2.560613	2.171466	-0.002595	0.006049	0.004001	-49.315847	-69.796026	-31.705134
61851	9.139374	-2.563542	2.194881	0.001077	0.002616	0.002256	-49.313169	-69.795068	-31.706887
61852	9.160379	-2.581405	2.174273	0.000803	0.002522	0.003956	-49.312866	-69.793430	-31.705975
61853	9.146718	-2.561460	2.172447	0.000394	0.004695	0.002457	-49.308329	-69.791607	-31.710126
61854	9.157720	-2.551120	2.203613	-0.001102	0.003058	0.007277	-49.311788	-69.788326	-31.707069
61855	9.165176	-2.549007	2.180756	0.000128	0.001167	0.003677	-49.312806	-69.787292	-31.705464
61856	9.146249	-2.562661	2.173004	0.001084	-0.000818	0.001777	-49.314051	-69.787863	-31.703522
61857	9.159669	-2.583153	2.175185	-0.004620	0.001985	0.003165	-49.316303	-69.786746	-31.703500
61858	9.146053	-2.563211	2.173177	0.001077	0.002615	0.002257	-49.313950	-69.785803	-31.704922
61859	9.132443	-2.543166	2.171271	0.001077	0.002615	0.002257	-49.311273	-69.784845	-31.706674
61860	9.164704	-2.550146	2.181409	0.001759	0.000536	0.002056	-49.310789	-69.784774	-31.705914
61861	9.138094	-2.566431	2.196835	0.000803	0.002522	0.003956	-49.310104	-69.783113	-31.705711
61862	9.130322	-2.569400	2.219998	-0.001905	0.000537	0.003321	-49.312995	-69.782481	-31.703184
61863	9.139705	-2.541466	2.148766	0.002033	0.000630	0.000357	-49.310186	-69.783090	-31.704493
61864	9.145498	-2.564383	2.174135	0.003792	0.001166	0.002413	-49.308168	-69.782617	-31.703532
61865	9.137723	-2.567257	2.197415	-0.000555	0.003246	0.003878	-49.307328	-69.780718	-31.704323
61866	9.158773	-2.585172	2.176562	0.002850	-0.003716	0.003354	-49.312561	-69.781678	-31.696840
61867	9.156469	-2.554353	2.205067	-0.000274	-0.000094	0.001699	-49.313289	-69.781974	-31.695788
61868	9.137515	-2.567942	2.197478	0.001752	0.003970	0.002536	-49.309246	-69.780397	-31.698241
61869	9.171590	-2.549387	2.159393	0.000000	0.000000	-0.000000	-49.307983	-69.781396	-31.699144
61870	9.137406	-2.568113	2.197729	0.001759	0.000536	0.002056	-49.307498	-69.781318	-31.698069
61871	9.139131	-2.542889	2.149525	-0.001905	0.000537	0.003321	-49.310062	-69.780674	-31.696058
61872	9.139507	-2.599728	2.169131	-0.001905	0.000537	0.003321	-49.312960	-69.780047	-31.693605
61873	9.163706	-2.552815	2.182478	0.004072	-0.002174	0.000234	-49.312166	-69.781757	-31.691522
61874	9.144811	-2.566283	2.174779	0.001077	0.002615	0.002257	-49.309845	-69.780828	-31.693092
61875	9.137095	-2.568987	2.198004	0.002033	0.000630	0.000357	-49.307037	-69.781437	-31.694401
61876	9.138852	-2.543598	2.149870	0.000401	0.001261	0.001978	-49.306398	-69.781119	-31.694193
61877	9.131104	-2.546543	2.172946	-0.000822	-0.000281	0.005098	-49.311109	-69.780008	-31.689231
61878	9.144505	-2.567175	2.175015	-0.001223	-0.001542	0.003120	-49.315844	-69.780241	-31.684505
61879	9.155652	-2.556703	2.205735	-0.000548	-0.000188	0.003399	-49.318563	-69.779833	-31.681498
61880	9.144359	-2.567740	2.174960	0.000402	0.001261	0.001978	-49.317911	-69.779518	-31.681519
61881	9.163224	-2.554182	2.182902	0.001497	0.001636	-0.004820	-49.308974	-69.782000	-31.689687
61882	9.136748	-2.569964	2.198303	0.002033	0.000630	0.000357	-49.306489	-69.782630	-31.690811
61883	9.150150	-2.590307	2.200701	-0.001638	0.004065	0.002101	-49.303502	-69.781197	-31.694552
61884	9.138417	-2.544631	2.150497	0.002307	0.000724	-0.001343	-49.299016	-69.782520	-31.697414
61885	9.155443	-2.556697	2.206606	-0.001631	0.000631	0.001621	-49.299588	-69.782579	-31.697357
61886	9.155429	-2.556720	2.206638	-0.001083	0.000818	-0.001778	-49.296495	-69.784061	-31.700924
61887	9.155469	-2.556634	2.206575	0.000682	-0.002079	-0.000201	-49.297091	-69.785924	-31.699430
61888	9.149677	-2.533760	2.181202	-0.000675	-0.001355	-0.000279	-49.297848	-69.787564	-31.698551
61889	9.165436	-2.585047	2.154714	-0.004072	0.002174	-0.000234	-49.296115	-69.787852	-31.702441
61890	9.136734	-2.569894	2.198443	-0.000121	-0.004601	-0.004158	-49.296464	-69.792397	-31.701746
61891	9.163321	-2.553695	2.183068	-0.000682	0.002079	0.000201	-49.293342	-69.792532	-31.705047
61892	9.150288	-2.589903	2.200606	-0.001083	0.000819	-0.001777	-49.290246	-69.794014	-31.708624
61893	9.138666	-2.544041	2.150138	-0.000401	-0.001261	-0.001978	-49.288692	-69.796343	-31.710083
61894	9.155805	-2.555864	2.206073	-0.001485	-0.000442	-0.003756	-49.285295	-69.799154	-31.714273
61895	9.125851	-2.579740	2.167369	-0.000128	-0.001167	-0.003678	-49.281745	-69.802186	-31.717691
61896	9.171304	-2.549966	2.159921	0.002581	0.000818	-0.003042	-49.275261	-69.804215	-31.722609
61897	9.142651	-2.534571	2.203730	-0.003919	-0.002333	-0.006091	-49.272806	-69.808731	-31.727175
61898	9.145048	-2.565149	2.175124	-0.000543	0.004440	-0.004696	-49.262148	-69.810123	-31.738457
61899	9.163968	-2.551372	2.183068	-0.001485	-0.000442	-0.003756	-49.258436	-69.812918	-31.742875
61900	9.124027	-2.546899	2.196234	-0.002850	0.003716	-0.003354	-49.251318	-69.814000	-31.751846
61901	9.152921	-2.561432	2.152433	0.000421	-0.000979	-0.007076	-49.243767	-69.818436	-31.759192
61902	9.164279	-2.549942	2.183430	0.000005	0.004628	-0.008094	-49.229106	-69.821231	-31.774408
61903	9.124392	-2.545078	2.196828	0.000413	0.002455	-0.006596	-49.217986	-69.824173	-31.785560
61904	9.159194	-2.582441	2.178029	-0.004868	-0.003782	-0.004670	-49.219528	-69.828629	-31.786539
61905	9.135874	-2.533170	2.227772	-0.000138	0.010330	-0.010811	-49.195124	-69.830451	-31.812179
61906	9.138367	-2.563236	2.199428	0.005451	-0.005136	-0.008742	-49.188192	-69.837179	-31.815887
61907	9.146229	-2.559866	2.176377	-0.002303	0.003904	-0.006751	-49.176745	-69.839643	-31.829045
61908	9.151789	-2.525372	2.182068	-0.000790	-0.001327	-0.012529	-49.165021	-69.846586	-31.841626
61909	9.165591	-2.544544	2.184222	0.001644	0.000565	-0.010194	-49.151731	-69.851791	-31.854337
61910	9.125812	-2.539596	2.197273	-0.004327	-0.000161	-0.007588	-49.145689	-69.856153	-31.863000
61911	9.177255	-2.532297	2.214757	0.001787	-0.005136	-0.007477	-49.141820	-69.862317	-31.865588
61912	9.128636	-2.569282	2.168061	-0.002970	-0.000885	-0.007509	-49.135924	-69.866915	-31.873290
61913	9.134223	-2.535055	2.173267	-0.002551	-0.006492	-0.006491	-49.137149	-69.873160	-31.873100
61914	9.180325	-2.561491	2.185085	-0.003653	0.001194	-0.007308	-49.129394	-69.876893	-31.883205
61915	9.153481	-2.520425	2.180689	0.001779	-0.001701	-0.006996	-49.121952	-69.881560	-31.889603
61916	9.134813	-2.533371	2.172751	-0.003517	-0.001074	-0.004111	-49.120062	-69.884758	-31.893391
61917	9.146140	-2.522261	2.203373	-0.002159	-0.001798	-0.004033	-49.118021	-69.888177	-31.896440
61918	9.167413	-2.539591	2.182338	-0.000401	-0.001261	-0.001978	-49.116749	-69.890520	-31.897658
61919	9.207531	-2.543471	2.169074	-0.000801	-0.002521	-0.003955	-49.114864	-69.894177	-31.899712
61920	9.159989	-2.541734	2.205028	-0.003117	0.000187	-0.002133	-49.113276	-69.896045	-31.902945
61921	9.135308	-2.532246	2.171985	0.001358	-0.000724	0.000078	-49.112157	-69.897281	-31.902864
61922	9.135385	-2.532121	2.171804	0.001641	-0.004063	-0.002101	-49.112904	-69.900728	-31.900676
61923	9.148974	-2.552247	2.173787	-0.004749	0.000816	-0.000512	-49.112858	-69.901642	-31.903179
61924	9.178980	-2.528196	2.212291	-0.001222	-0.001544	0.003119	-49.117617	-69.901885	-31.898485
61925	9.156566	-2.550023	2.150477	-0.000948	-0.001450	0.001420	-49.120056	-69.902811	-31.896024
61926	9.156593	-2.550098	2.150273	-0.002707	-0.001987	-0.000635	-49.122338	-69.904845	-31.894859
61927	9.167846	-2.539210	2.180964	0.001632	-0.000629	-0.001621	-49.119211	-69.906781	-31.896751
61928	9.135499	-2.532440	2.170952	-0.003664	-0.000002	0.001265	-49.121641	-69.907248	-31.896027
61929	9.154945	-2.575407	2.198248	0.004621	-0.001982	-0.003165	-49.116820	-69.910360	-31.897899
61930	9.175581	-2.536300	2.157848	-0.000684	0.002079	0.000201	-49.113989	-69.910507	-31.900955
61931	9.127935	-2.534740	2.194059	0.000274	0.000095	-0.001699	-49.110702	-69.912206	-31.903846
61932	9.167976	-2.538714	2.180995	0.000274	0.000095	-0.001699	-49.107722	-69.913920	-31.906481
61933	9.154477	-2.518346	2.178912	0.000948	0.001450	-0.001420	-49.102729	-69.914989	-31.910777
61934	9.154488	-2.518184	2.179052	0.002306	0.000726	-0.001342	-49.098201	-69.916312	-31.913811
61935	9.141566	-2.554369	2.196447	0.000684	-0.002079	-0.000201	-49.098788	-69.918177	-31.912327
61936	9.135716	-2.531566	2.171060	0.000410	-0.002173	0.001498	-49.101693	-69.919357	-31.908609
61937	9.194590	-2.522176	2.165705	-0.000811	0.000913	-0.003475	-49.096233	-69.921518	-31.914475
61938	9.170412	-2.569355	2.152308	-0.000821	-0.000283	0.005096	-49.101298	-69.920431	-31.909209
61939	9.173370	-2.504986	2.186376	0.001094	-0.004252	0.001297	-49.105763	-69.922463	-31.903346
61940	9.168091	-2.538671	2.180561	0.001358	-0.000724	0.000078	-49.104952	-69.923715	-31.903005
61941	9.168104	-2.538602	2.180585	-0.002443	0.001542	-0.001854	-49.101344	-69.924938	-31.907894
61942	9.154589	-2.518332	2.178455	-0.000000	0.000000	-0.000000	-49.100374	-69.925952	-31.908552
61943	9.168109	-2.538619	2.180546	-0.000948	-0.001450	0.001420	-49.102815	-69.926879	-31.906088
61944	9.146964	-2.521117	2.201266	-0.000674	-0.001355	-0.000279	-49.103550	-69.928522	-31.905342
61945	9.146924	-2.521156	2.201384	-0.002726	0.004881	0.000325	-49.098382	-69.927549	-31.912064
61946	9.154492	-2.518706	2.178434	0.000137	-0.002268	0.003196	-49.103300	-69.928030	-31.906367
61947	9.141484	-2.555243	2.195773	-0.002990	0.001353	0.001544	-49.103717	-69.927852	-31.907305
61948	9.167905	-2.539211	2.180713	0.000264	0.003528	-0.001219	-49.097158	-69.928070	-31.913750
61949	9.167864	-2.539157	2.180949	0.000674	0.001355	0.000279	-49.094175	-69.928439	-31.916073
61950	9.175431	-2.536615	2.158117	0.001075	0.002616	0.002256	-49.091801	-69.927495	-31.917568
61951	9.173023	-2.505714	2.186994	-0.000684	0.002079	0.000201	-49.088659	-69.927626	-31.920888
61952	9.181157	-2.559614	2.183787	-0.000009	0.003434	0.000480	-49.084113	-69.927144	-31.925358
61953	9.146437	-2.521840	2.202625	0.001358	-0.000724	0.000078	-49.082994	-69.928380	-31.925279
61954	9.154089	-2.519066	2.179707	-0.002853	0.003715	-0.003352	-49.075807	-69.929451	-31.934293
61955	9.159951	-2.541727	2.205196	0.001622	0.002805	-0.001141	-49.069104	-69.929890	-31.939998
61956	9.156304	-2.549996	2.151624	-0.000557	0.003245	0.003878	-49.068584	-69.928007	-31.940515
61957	9.167369	-2.539331	2.182828	0.000939	0.004883	-0.000940	-49.060018	-69.927579	-31.948621
61958	9.167261	-2.539241	2.183386	0.000255	0.006962	-0.000738	-49.049889	-69.926298	-31.958871
61959	9.143615	-2.490673	2.233485	-0.002051	0.006236	0.000604	-49.043021	-69.924693	-31.966992
61960	9.214090	-2.636402	2.085103	0.008148	-0.004342	0.000467	-49.042993	-69.927135	-31.961674
61961	9.124519	-2.504137	2.226730	-0.008606	0.023684	0.000437	-49.019058	-69.919046	-31.991965
61962	9.156614	-2.510912	2.237762	0.007055	-0.000090	-0.000829	-49.013291	-69.920452	-31.993425
61963	9.128823	-2.566273	2.170838	-0.005316	0.007495	0.003845	-49.010143	-69.916970	-31.999578
61964	9.145037	-2.522273	2.207936	0.000107	0.008034	0.004638	-49.004366	-69.912958	-32.005287
61965	9.141287	-2.530732	2.154699	0.003781	0.004602	0.002894	-48.998452	-69.910974	-32.008836
61966	9.176919	-2.529750	2.219056	-0.004232	0.006677	0.005622	-48.997780	-69.907047	-32.011756
61967	9.163203	-2.509856	2.217341	0.002023	0.004065	0.000838	-48.991396	-69.906153	-32.016877
61968	9.150056	-2.546359	2.235186	-0.001242	0.005324	0.004080	-48.989024	-69.903401	-32.019783
61969	9.151659	-2.521273	2.187347	-0.003274	0.004693	0.003722	-48.987899	-69.901025	-32.022536
61970	9.146224	-2.555271	2.181792	0.000135	-0.002268	0.003196	-48.992800	-69.901509	-32.016857
61971	9.170289	-2.508604	2.195132	-0.003539	0.001164	0.004940	-48.997247	-69.899932	-32.013839
61972	9.151297	-2.522407	2.187553	0.000391	0.004695	0.002459	-48.993017	-69.898117	-32.017727
61973	9.151158	-2.522607	2.187906	0.001074	0.002616	0.002258	-48.990351	-69.897155	-32.019469
61974	9.172129	-2.540565	2.167484	-0.000842	0.006585	0.006059	-48.988292	-69.893073	-32.021796
61975	9.158404	-2.520719	2.165781	0.003107	0.003247	0.002616	-48.984084	-69.891718	-32.023939
61976	9.156430	-2.546395	2.214412	0.001749	0.003971	0.002538	-48.980014	-69.890142	-32.026829
61977	9.150418	-2.523842	2.189577	-0.003274	0.004693	0.003722	-48.978892	-69.887765	-32.029580
61978	9.156143	-2.546899	2.215017	0.002032	0.000631	0.000358	-48.976363	-69.888386	-32.030654
61979	9.150194	-2.524226	2.190072	0.000116	0.004600	0.004159	-48.973857	-69.885856	-32.032810
61980	9.163466	-2.544917	2.192689	-0.001517	0.005230	0.005779	-48.973500	-69.882404	-32.033737
61981	9.149753	-2.525149	2.190849	0.000799	0.002521	0.003957	-48.972850	-69.880742	-32.033500
61982	9.144248	-2.559069	2.185621	0.002423	0.005326	0.002818	-48.967083	-69.878534	-32.037784
61983	9.162907	-2.545857	2.193931	0.000391	0.004695	0.002460	-48.962566	-69.876702	-32.041913
61984	9.156915	-2.523339	2.169023	0.003240	0.000979	0.005813	-48.964535	-69.874835	-32.037461
61985	9.122587	-2.542367	2.207438	-0.002316	0.002709	0.001822	-48.963257	-69.874025	-32.039794
61986	9.198959	-2.559147	2.127948	0.004181	0.005862	0.004876	-48.957966	-69.870726	-32.042500
61987	9.108662	-2.522601	2.206475	-0.001109	0.011121	-0.000333	-48.943869	-69.867682	-32.057748
61988	9.148509	-2.526972	2.193938	0.005280	-0.001825	0.005691	-48.947848	-69.866923	-32.049910
61989	9.124148	-2.574547	2.180673	-0.006265	0.006049	0.005264	-48.948431	-69.863370	-32.052670
61990	9.207005	-2.518544	2.189305	0.004739	0.002616	0.000997	-48.942669	-69.862967	-32.055536
61991	9.110343	-2.554811	2.179192	-0.001917	0.003970	0.003801	-48.941710	-69.860828	-32.057285
61992	9.161422	-2.548396	2.197184	0.000000	0.000000	0.000000	-48.940723	-69.861841	-32.057959
61993	9.140068	-2.531029	2.218468	-0.000576	0.010114	0.004843	-48.932828	-69.856939	-32.066277
61994	9.128723	-2.542123	2.188070	-0.000275	-0.000094	0.001699	-48.933852	-69.857253	-32.064977
61995	9.182196	-2.566692	2.177244	-0.000275	-0.000094	0.001699	-48.934583	-69.857552	-32.063923
61996	9.107385	-2.524823	2.209203	-0.001374	0.007593	0.000885	-48.926349	-69.855324	-32.073155
61997	9.126131	-2.511602	2.217184	-0.000542	-0.003623	0.002916	-48.932638	-69.856425	-32.066346
61998	9.179583	-2.536254	2.206353	-0.000284	0.003340	0.002181	-48.930115	-69.855238	-32.068827
61999	9.120633	-2.545681	2.211688	-0.001633	0.000630	0.001620	-48.930691	-69.855298	-32.068768
62000	9.168312	-2.547401	2.175594	-0.000950	-0.001449	0.001419	-48.933407	-69.856242	-32.066076
62001	9.125866	-2.512314	2.217467	0.001341	0.006144	0.001042	-48.925193	-69.854476	-32.073564
62002	9.168120	-2.547710	2.176042	-0.002583	-0.000819	0.003039	-48.929765	-69.854484	-32.069895
62003	9.149236	-2.561221	2.168295	0.001625	0.002804	-0.001138	-48.923083	-69.854917	-32.075578
62004	9.114526	-2.523405	2.187066	-0.000275	-0.000094	0.001699	-48.924106	-69.855230	-32.074277
62005	9.173282	-2.514366	2.182105	0.000391	0.004695	0.002461	-48.919599	-69.853397	-32.078396
62006	9.133604	-2.566807	2.214996	-0.000683	0.002079	0.000202	-48.916759	-69.853539	-32.081461
62007	9.205476	-2.521401	2.192445	-0.000950	-0.001449	0.001419	-48.919184	-69.854469	-32.079016
62008	9.112377	-2.549398	2.235781	-0.002715	0.001449	-0.000157	-48.917881	-69.855004	-32.081681
62009	9.180831	-2.512040	2.159338	0.004073	-0.002174	0.000236	-48.917068	-69.856717	-32.079619
62010	9.146501	-2.530763	2.197936	-0.003414	0.010397	0.001009	-48.906829	-69.853379	-32.092232
62011	9.167634	-2.548395	2.177285	0.002049	-0.006238	-0.000605	-48.911096	-69.856986	-32.085994
62012	9.157627	-2.519940	2.228911	-0.003806	0.005702	-0.001453	-48.904080	-69.856479	-32.095408
62013	9.171084	-2.540198	2.231210	0.001765	-0.002898	0.001576	-48.906817	-69.857887	-32.090973
62014	9.146432	-2.530755	2.198235	-0.001090	0.004253	-0.001295	-48.900110	-69.857856	-32.098405
62015	9.127568	-2.544184	2.190492	0.000407	-0.002174	0.001497	-48.902691	-69.859025	-32.094965
62016	9.197563	-2.524265	2.216115	-0.002715	0.001449	-0.000157	-48.901385	-69.859559	-32.097635
62017	9.144407	-2.556471	2.246731	0.001749	0.003970	0.002540	-48.897036	-69.857964	-32.100757
62018	9.172759	-2.515091	2.183469	0.002440	-0.001543	0.001856	-48.898365	-69.858755	-32.097474
62019	9.106171	-2.527019	2.211697	-0.000683	0.002079	0.000202	-48.895234	-69.858882	-32.100784
62020	9.175002	-2.546339	2.154974	0.002839	-0.000283	0.003836	-48.896882	-69.858344	-32.096916
62021	9.145980	-2.531644	2.199090	-0.002324	0.006144	0.002304	-48.892066	-69.856032	-32.103022
62022	9.138159	-2.534543	2.222313	0.002164	-0.001638	0.003556	-48.895408	-69.856125	-32.097763
62023	9.166986	-2.549747	2.178434	-0.001633	0.000631	0.001620	-48.895984	-69.856185	-32.097704
62024	9.164538	-2.518925	2.207297	0.001749	0.003970	0.002541	-48.891922	-69.854605	-32.100581
62025	9.126782	-2.545914	2.191760	-0.000951	-0.001449	0.001419	-48.894347	-69.855535	-32.098136
62026	9.172122	-2.516647	2.184350	-0.002991	0.001355	0.001542	-48.895050	-69.855370	-32.098835
62027	9.172040	-2.516756	2.184570	0.003382	0.003340	0.000920	-48.888846	-69.854712	-32.102938
62028	9.113051	-2.526098	2.190101	-0.002999	0.004790	0.002024	-48.886008	-69.853046	-32.107409
62029	9.166502	-2.550619	2.179448	0.004073	-0.002174	0.000236	-48.885194	-69.854760	-32.105349
62030	9.131758	-2.512878	2.198270	-0.002324	0.006145	0.002304	-48.880664	-69.852462	-32.111211
62031	9.166298	-2.550923	2.179952	0.001757	0.000536	0.002059	-48.879860	-69.852369	-32.110554
62032	9.123872	-2.515728	2.221797	0.000268	0.003529	-0.001217	-48.873307	-69.852576	-32.116990
62033	9.166176	-2.551118	2.180235	-0.001503	-0.001637	0.004817	-48.879758	-69.852111	-32.110593
62034	9.163772	-2.520273	2.208941	0.001626	0.002804	-0.001138	-48.873362	-69.852558	-32.116033
62035	9.142967	-2.559115	2.249578	-0.000683	0.002080	0.000202	-48.870231	-69.852684	-32.119342
62036	9.171361	-2.517706	2.186324	-0.000959	0.001985	0.001901	-48.869397	-69.852127	-32.120441
62037	9.118185	-2.549893	2.216923	-0.000008	0.003434	0.000483	-48.864575	-69.851622	-32.125140
62038	9.165825	-2.551585	2.181163	-0.000959	0.001985	0.001901	-48.863741	-69.851064	-32.126227
62039	9.112233	-2.527333	2.192079	0.000399	0.001261	0.001980	-48.862781	-69.850732	-32.126564
62040	9.171053	-2.518227	2.187018	-0.001358	0.000725	-0.000079	-48.861623	-69.851504	-32.128251
62041	9.165690	-2.551803	2.181478	0.000951	0.001449	-0.001418	-48.856634	-69.852567	-32.132542
62042	9.155618	-2.523424	2.233216	-0.000276	-0.000094	0.001699	-48.857648	-69.852881	-32.131249
62043	9.163292	-2.520871	2.210246	0.002032	0.000630	0.000360	-48.854830	-69.853485	-32.132569
62044	9.144397	-2.534292	2.202620	-0.000008	0.003434	0.000483	-48.850287	-69.852994	-32.137034
62045	9.170883	-2.518212	2.187748	0.001626	0.002804	-0.001138	-48.843606	-69.853424	-32.142716
62046	9.157801	-2.554409	2.205279	0.000000	-0.000000	0.000000	-48.842603	-69.854436	-32.143396
62047	9.163139	-2.520850	2.210905	-0.000276	-0.000094	0.001699	-48.843335	-69.854735	-32.142343
62048	9.150076	-2.557088	2.228311	0.005023	-0.000726	-0.001181	-48.839090	-69.856530	-32.143428
62049	9.144268	-2.534377	2.203058	-0.004218	-0.000187	0.004659	-48.845233	-69.855588	-32.139017
62050	9.157666	-2.554889	2.205287	-0.000683	0.002080	0.000202	-48.842382	-69.855728	-32.142087
62051	9.130600	-2.514635	2.201067	-0.003950	0.003341	0.003442	-48.842970	-69.853980	-32.143429
62052	9.184080	-2.539168	2.190308	0.002316	-0.002710	-0.001822	-48.841951	-69.856800	-32.142729
62053	9.138750	-2.568511	2.197512	-0.003390	0.000095	-0.000439	-48.842047	-69.857950	-32.144254
62054	9.163004	-2.521236	2.211025	0.002861	0.000912	-0.004737	-48.833457	-69.860659	-32.151254
62055	9.125414	-2.547711	2.195362	-0.000399	-0.001261	-0.001980	-48.831848	-69.862985	-32.152770
62056	9.152052	-2.531436	2.180084	-0.001480	-0.000442	-0.003758	-48.828343	-69.865784	-32.157032
62057	9.163246	-2.520341	2.211041	0.003259	0.002173	-0.002758	-48.819797	-69.867150	-32.163703
62058	9.125584	-2.547084	2.195386	-0.004341	-0.001354	0.000979	-48.823879	-69.868249	-32.161603
62059	9.163334	-2.520250	2.210782	0.001641	-0.004065	-0.002103	-48.824272	-69.871686	-32.159740
62060	9.152324	-2.530833	2.179644	-0.002431	-0.001891	-0.002340	-48.824471	-69.874419	-32.160664
62061	9.163565	-2.519808	2.210327	-0.000123	-0.001166	-0.003679	-48.820842	-69.877442	-32.164162
62062	9.137199	-2.535419	2.225262	-0.001196	-0.003782	-0.005939	-48.818858	-69.882441	-32.166624
62063	9.152809	-2.529670	2.178955	-0.003237	-0.000977	-0.005816	-48.814586	-69.886315	-32.172706
62064	9.164083	-2.518569	2.209591	-0.001073	-0.002615	-0.002260	-48.814944	-69.889287	-32.172596
62065	9.166630	-2.549175	2.180600	-0.005668	-0.002868	-0.008155	-48.811879	-69.894883	-32.178877
62066	9.113316	-2.524269	2.191107	0.001235	-0.001891	-0.003600	-48.808678	-69.898158	-32.181129
62067	9.185827	-2.534991	2.187816	-0.002423	-0.005325	-0.002822	-48.812144	-69.902381	-32.178474
62068	9.138247	-2.533184	2.223503	-0.001481	-0.000442	-0.003757	-48.808629	-69.905179	-32.182780
62069	9.132585	-2.510068	2.198046	-0.001748	-0.003970	-0.002541	-48.810402	-69.908770	-32.181517
62070	9.146239	-2.530109	2.199781	-0.003780	-0.004601	-0.002900	-48.813994	-69.912768	-32.179636
62071	9.172859	-2.513968	2.184340	0.000000	0.000000	0.000000	-48.812707	-69.913765	-32.180565
62072	9.127453	-2.543637	2.191609	-0.008689	0.000724	0.002443	-48.818334	-69.913447	-32.179508
62073	9.170474	-2.483207	2.212849	0.001909	-0.000536	-0.003319	-48.813160	-69.916077	-32.183410
62074	9.154455	-2.583996	2.196037	-0.003399	0.003528	0.000045	-48.809975	-69.915735	-32.188462
62075	9.172783	-2.514044	2.184575	0.001625	0.002804	-0.001137	-48.803276	-69.916163	-32.194162
62076	9.132802	-2.509770	2.197481	-0.000666	-0.004789	-0.000764	-48.807509	-69.919310	-32.189631
62077	9.186415	-2.534072	2.186414	-0.001757	-0.000536	-0.002058	-48.805735	-69.921396	-32.192150
62078	9.132972	-2.509571	2.197004	0.000009	-0.003434	-0.000483	-48.808273	-69.923912	-32.189083
62079	9.154236	-2.527137	2.175897	-0.002707	-0.001985	-0.000640	-48.810218	-69.925934	-32.188222
62080	9.154275	-2.527004	2.175890	-0.001490	0.002993	-0.003274	-48.803144	-69.927226	-32.196282
62081	9.157760	-2.518653	2.229819	-0.000399	-0.001260	-0.001980	-48.801527	-69.929551	-32.197805
62082	9.152028	-2.495681	2.204460	0.000683	-0.002079	-0.000202	-48.802367	-69.931434	-32.196129
62083	9.122009	-2.520114	2.165690	-0.003543	0.001165	0.004940	-48.806836	-69.929861	-32.193091
62084	9.173088	-2.513792	2.183581	-0.001358	0.000725	-0.000078	-48.805666	-69.930633	-32.194770
62085	9.146524	-2.529874	2.198863	-0.000683	0.002079	0.000202	-48.802525	-69.930757	-32.198089
62086	9.140676	-2.507113	2.173750	-0.001633	0.000630	0.001620	-48.803372	-69.930830	-32.197778
62087	9.165239	-2.516750	2.206868	0.000399	0.001260	0.001980	-48.802413	-69.930497	-32.198114
62088	9.114008	-2.523505	2.189108	0.001757	0.000536	0.002058	-48.801887	-69.930417	-32.197164
62089	9.186289	-2.534660	2.186261	0.000399	0.001260	0.001980	-48.800929	-69.930085	-32.197499
62090	9.183940	-2.503527	2.215044	-0.001888	0.001733	-0.005254	-48.793522	-69.932707	-32.206186
62091	9.132806	-2.509983	2.197222	-0.000276	-0.000095	0.001699	-48.794259	-69.933007	-32.205128
62092	9.140905	-2.563960	2.193859	-0.002041	0.002804	0.000124	-48.791232	-69.932907	-32.209230
62093	9.178078	-2.480649	2.190137	0.002032	0.000630	0.000359	-48.788406	-69.933510	-32.210556
62094	9.146182	-2.530423	2.199657	-0.002308	-0.000725	0.001340	-48.790943	-69.934216	-32.208913
62095	9.153859	-2.527937	2.176554	0.001082	-0.000819	0.001777	-48.791839	-69.934756	-32.206859
62096	9.130713	-2.535961	2.245683	-0.002041	0.002804	0.000124	-48.788805	-69.934655	-32.210999
62097	9.159163	-2.494336	2.182322	-0.000399	-0.001260	-0.001980	-48.787186	-69.936980	-32.212525
62098	9.161584	-2.525230	2.153507	0.000683	-0.002079	-0.000202	-48.788044	-69.938870	-32.210835
62099	9.138530	-2.533061	2.222478	0.000276	0.000095	-0.001699	-48.784729	-69.940563	-32.213754
62100	9.172777	-2.514294	2.184309	-0.001358	0.000725	-0.000078	-48.783564	-69.941335	-32.215362
62101	9.146239	-2.530285	2.199579	0.000950	0.001450	-0.001418	-48.778553	-69.942395	-32.219676
62102	9.172798	-2.514214	2.184317	-0.000267	-0.003529	0.001216	-48.783106	-69.944213	-32.214637
62103	9.178657	-2.537075	2.209258	-0.003789	-0.001166	-0.002417	-48.782864	-69.946691	-32.216764
62104	9.138753	-2.532661	2.222017	-0.000798	-0.002520	-0.003959	-48.781181	-69.950360	-32.218671
62105	9.167734	-2.547480	2.177937	0.001765	-0.002899	0.001575	-48.783932	-69.951772	-32.214224
62106	9.165436	-2.516532	2.206298	-0.003382	-0.003340	-0.000921	-48.787840	-69.954440	-32.211810
62107	9.140951	-2.506814	2.172940	-0.000522	-0.002425	-0.005658	-48.783860	-69.958791	-32.215923
62108	9.147014	-2.529141	2.197667	0.000170	-0.007939	-0.006344	-48.785558	-69.965531	-32.213591
62109	9.166099	-2.515251	2.205002	0.000560	-0.003245	-0.003881	-48.783765	-69.969425	-32.214717
62110	9.179831	-2.535005	2.206755	0.000844	-0.006584	-0.006062	-48.783760	-69.975529	-32.213710
62111	9.160770	-2.491443	2.178878	-0.001473	-0.003875	-0.004239	-48.783505	-69.979815	-32.214439
62112	9.188033	-2.531346	2.182767	0.001120	-0.006489	-0.007761	-48.781484	-69.986623	-32.215559
62113	9.148333	-2.526550	2.195157	-0.002546	-0.006490	-0.006499	-48.782595	-69.992871	-32.215487
62114	9.142819	-2.503123	2.169334	0.000844	-0.006584	-0.006062	-48.782601	-69.998981	-32.214621
62115	9.148951	-2.525368	2.193942	-0.003629	-0.005671	-0.008275	-48.781519	-70.005685	-32.217543
62116	9.114710	-2.486633	2.211790	-0.003469	-0.010175	-0.014134	-48.779887	-70.016631	-32.220987
62117	9.210695	-2.488620	2.138394	0.004947	-0.019057	-0.007275	-48.790800	-70.027958	-32.205919
62118	9.158649	-2.576461	2.187386	-0.009196	-0.000506	-0.011780	-48.783397	-70.034239	-32.219220
62119	9.142772	-2.467568	2.193507	-0.000469	-0.014961	-0.016157	-48.783332	-70.047847	-32.219134
62120	9.151593	-2.520125	2.188949	-0.006870	-0.006648	-0.014084	-48.779474	-70.057439	-32.227244
62121	9.205081	-2.486755	2.157822	0.001269	-0.007556	-0.013134	-48.772758	-70.066949	-32.233174
62122	9.157814	-2.484254	2.193307	-0.001323	-0.004944	-0.009612	-48.768352	-70.073966	-32.238227
62123	9.190570	-2.490053	2.202698	0.002352	-0.008375	-0.011357	-48.763830	-70.083019	-32.241162
62124	9.179750	-2.500019	2.171363	0.000834	-0.003148	-0.005577	-48.760217	-70.087610	-32.244080
62125	9.147584	-2.492665	2.161275	0.001098	0.000381	-0.006793	-48.750753	-70.091389	-32.253036
62126	9.158853	-2.481486	2.192104	-0.001758	-0.000537	-0.002056	-48.749247	-70.093493	-32.255285
62127	9.166636	-2.478630	2.168795	0.000970	-0.005417	-0.002383	-48.751353	-70.097562	-32.252014
62128	9.134946	-2.528366	2.178018	-0.005697	-0.000636	0.000906	-48.755268	-70.098411	-32.250710
62129	9.151481	-2.483923	2.214177	0.000970	-0.005417	-0.002383	-48.757376	-70.102480	-32.247437
62130	9.172875	-2.501285	2.192678	0.000706	-0.008946	-0.001166	-48.765377	-70.107373	-32.238115
62131	9.154173	-2.514822	2.184251	-0.003928	-0.003533	0.002480	-48.773127	-70.108634	-32.231827
62132	9.167228	-2.478629	2.166294	-0.002011	-0.007499	-0.001321	-48.780783	-70.113044	-32.224664
62133	9.169788	-2.509535	2.136876	-0.002011	-0.007499	-0.001321	-48.788196	-70.117441	-32.217565
62134	9.162264	-2.512224	2.159317	-0.002296	-0.004161	0.000859	-48.794327	-70.119645	-32.211944
62135	9.148743	-2.492239	2.156852	-0.001222	-0.001546	0.003117	-48.798828	-70.119882	-32.207462
62136	9.159816	-2.481959	2.187538	-0.004487	-0.000290	0.006360	-48.807354	-70.118257	-32.200624
62137	9.173160	-2.502829	2.189721	0.001610	0.001605	0.007430	-48.810974	-70.115444	-32.195352
62138	9.159447	-2.483210	2.187665	-0.003539	0.001161	0.004941	-48.815733	-70.113882	-32.192015
62139	9.169268	-2.512216	2.135954	-0.004087	0.000970	0.008338	-48.824319	-70.110917	-32.184934
62140	9.147848	-2.495442	2.156945	-0.001106	0.003052	0.007276	-48.827955	-70.107661	-32.181349
62141	9.179933	-2.502991	2.167161	-0.001381	0.002957	0.008975	-48.833283	-70.103671	-32.176083
62142	9.160796	-2.517281	2.159653	-0.000707	0.004312	0.009255	-48.837130	-70.099057	-32.172125
62143	9.179233	-2.504754	2.168091	-0.001400	0.009824	0.009941	-48.835290	-70.092061	-32.174494
62144	9.178816	-2.505432	2.169074	0.004845	0.010649	0.005637	-48.824693	-70.086629	-32.182448
62145	9.140756	-2.532882	2.154424	-0.001127	0.009920	0.008243	-48.820820	-70.080329	-32.186813
62146	9.156862	-2.489203	2.191674	0.003632	0.005670	0.008273	-48.819559	-70.075634	-32.185762
62147	9.164141	-2.487341	2.169369	-0.000043	0.009101	0.010019	-48.817892	-70.068877	-32.187121
62148	9.169555	-2.510983	2.195479	0.001181	0.010647	0.006902	-48.810713	-70.062898	-32.193785
62149	9.158018	-2.522400	2.165454	0.002273	0.006394	0.008196	-48.809044	-70.057948	-32.193733
62150	9.136473	-2.505496	2.187077	-0.000852	0.010016	0.006545	-48.803419	-70.052343	-32.199242
62151	9.168459	-2.512964	2.197789	0.000240	0.005763	0.007839	-48.803294	-70.047785	-32.198787
62152	9.175778	-2.511032	2.175443	0.001589	0.008473	0.008400	-48.800059	-70.041975	-32.200491
62153	9.143051	-2.505023	2.166162	0.001997	0.006299	0.009897	-48.800430	-70.036328	-32.198437
62154	9.146141	-2.497796	2.220624	-0.001393	0.006393	0.009461	-48.802531	-70.030870	-32.196633
62155	9.123536	-2.520035	2.159340	-0.002192	0.003873	0.005502	-48.803614	-70.028033	-32.196375
62156	9.155685	-2.527363	2.169528	0.001207	0.000345	0.005455	-48.807220	-70.026565	-32.190880
62157	9.166674	-2.517085	2.200515	0.001881	0.001700	0.005736	-48.808791	-70.024448	-32.187621
62158	9.155338	-2.528402	2.169786	0.000931	0.000250	0.007154	-48.814365	-70.022293	-32.181206
62159	9.141661	-2.508731	2.167735	0.001881	0.001700	0.005736	-48.815934	-70.020175	-32.177949
62160	9.166194	-2.518604	2.200780	-0.001225	-0.001545	0.003117	-48.820706	-70.020444	-32.173689
62161	9.160250	-2.496137	2.175687	0.001199	0.003779	0.005939	-48.820410	-70.017454	-32.172832
62162	9.133587	-2.512532	2.191053	-0.000275	-0.000095	0.001699	-48.821449	-70.017775	-32.171503
62163	9.160061	-2.496661	2.175884	-0.002991	0.001354	0.001543	-48.821868	-70.017596	-32.172439
62164	9.179310	-2.540013	2.203160	0.001490	-0.002994	0.003273	-48.826911	-70.018333	-32.166374
62165	9.178805	-2.483801	2.183507	-0.001908	0.000535	0.003320	-48.829525	-70.017696	-32.164315
62166	9.141004	-2.510941	2.167947	0.002157	0.001795	0.004037	-48.829345	-70.016311	-32.163385
62167	9.159767	-2.497787	2.175829	-0.002308	-0.000725	0.001341	-48.831629	-70.017003	-32.161921
62168	9.154382	-2.531590	2.170099	-0.000275	-0.000095	0.001699	-48.832657	-70.017323	-32.160637
62169	9.152020	-2.500847	2.198631	-0.003258	-0.002174	0.002759	-48.838676	-70.017949	-32.155777
62170	9.151994	-2.501153	2.198389	0.000132	-0.002269	0.003196	-48.843601	-70.018440	-32.149983
62171	9.173126	-2.518900	2.177527	-0.000683	0.002079	0.000203	-48.840447	-70.018566	-32.153314
62172	9.151868	-2.501574	2.198437	-0.000826	-0.000285	0.005098	-48.845460	-70.017485	-32.148667
62173	9.154086	-2.532974	2.169732	-0.001908	0.000535	0.003321	-48.848074	-70.016848	-32.146608
62174	9.159352	-2.499685	2.175395	-0.001908	0.000535	0.003321	-48.850936	-70.016222	-32.144441
62175	9.165060	-2.522907	2.200573	-0.000551	-0.000190	0.003398	-48.853713	-70.015825	-32.141381
62176	9.153838	-2.533971	2.169615	-0.001226	-0.001544	0.003118	-48.858408	-70.016042	-32.136026
62177	9.172623	-2.520817	2.177428	0.000400	0.001260	0.001980	-48.857450	-70.015709	-32.136361
62178	9.159042	-2.500908	2.175294	-0.000826	-0.000285	0.005098	-48.862518	-70.014647	-32.131828
62179	9.180211	-2.518712	2.154195	-0.000668	-0.004788	-0.000764	-48.866504	-70.017779	-32.127553
62180	9.151388	-2.503698	2.198017	-0.001089	0.004254	-0.001293	-48.859791	-70.017779	-32.135493
62181	9.153672	-2.534645	2.169530	-0.001358	0.000725	-0.000078	-48.858341	-70.018536	-32.137423
62182	9.159042	-2.501029	2.175156	-0.002033	-0.000629	-0.000359	-48.858812	-70.019921	-32.137507
62183	9.172553	-2.521267	2.177203	-0.000675	-0.001354	-0.000281	-48.859229	-70.021550	-32.137034
62184	9.151462	-2.503508	2.197926	-0.000124	-0.001165	-0.003679	-48.855862	-70.024583	-32.139974
62185	9.165000	-2.523654	2.199964	-0.000951	-0.001449	0.001419	-48.858311	-70.025514	-32.137506
62186	9.151491	-2.503508	2.197802	-0.000682	0.002079	0.000203	-48.855468	-70.025655	-32.140137
62187	9.166905	-2.498043	2.151777	0.001233	-0.001889	-0.003602	-48.851982	-70.028919	-32.142655
62188	9.151620	-2.503012	2.197832	0.001226	0.001544	-0.003118	-48.845212	-70.030692	-32.148432
62189	9.119351	-2.495930	2.187849	-0.000400	-0.001260	-0.001980	-48.843594	-70.033018	-32.149957
62190	9.191755	-2.506790	2.184787	0.000275	0.000095	-0.001699	-48.840610	-70.034740	-32.152305
62191	9.151823	-2.502419	2.197659	0.000283	-0.003339	-0.002183	-48.840858	-70.037938	-32.151427
62192	9.167315	-2.496919	2.151336	-0.001075	-0.002614	-0.002261	-48.841233	-70.040925	-32.151535
62193	9.140925	-2.512695	2.166247	0.000558	-0.003244	-0.003882	-48.839446	-70.044819	-32.152654
62194	9.133350	-2.515147	2.189040	0.000683	-0.002079	-0.000203	-48.840301	-70.046709	-32.151049
62195	9.167693	-2.496086	2.150690	0.001784	-0.001699	-0.007000	-48.832737	-70.051366	-32.157568
62196	9.184766	-2.507763	2.206815	-0.002848	0.003719	-0.003351	-48.825420	-70.052433	-32.167358
62197	9.141336	-2.511313	2.166114	0.000826	0.000285	-0.005097	-48.818019	-70.055521	-32.174287
62198	9.149191	-2.508094	2.143023	-0.001607	-0.001604	-0.007435	-48.812061	-70.060369	-32.182407
62199	9.160517	-2.496931	2.173652	-0.001075	-0.002614	-0.002260	-48.812142	-70.063327	-32.182535
62200	9.189976	-2.568116	2.148988	-0.002832	-0.003149	-0.004318	-48.811970	-70.067392	-32.184334
62201	9.129017	-2.393901	2.226746	0.002834	0.011217	-0.003288	-48.792298	-70.065573	-32.203091
62202	9.085953	-2.606308	2.161293	-0.003884	-0.024133	-0.000422	-48.821590	-70.075821	-32.173510
62203	9.254154	-2.468369	2.128493	-0.009771	0.001544	0.000673	-48.824761	-70.075945	-32.175651
62204	9.129377	-2.545904	2.180936	0.005322	-0.010930	-0.004336	-48.829198	-70.082952	-32.167183
62205	9.187966	-2.479790	2.155776	-0.010304	0.002554	-0.004501	-48.826085	-70.084927	-32.176333
62206	9.175209	-2.515556	2.172612	0.006555	-0.012819	-0.007937	-48.828322	-70.094216	-32.170022
62207	9.148967	-2.530990	2.187388	-0.004607	0.003184	-0.005407	-48.820245	-70.096344	-32.180979
62208	9.180989	-2.480730	2.177809	0.002466	-0.003777	-0.007202	-48.814845	-70.101894	-32.184635
62209	9.175862	-2.513826	2.171856	0.000558	-0.003243	-0.003881	-48.813050	-70.105788	-32.185763
62210	9.162503	-2.493323	2.169421	-0.001075	-0.002614	-0.002260	-48.813293	-70.108746	-32.186214
62211	9.162638	-2.493030	2.169184	0.003948	-0.003337	-0.003446	-48.810121	-70.112487	-32.186741
62212	9.162737	-2.492701	2.169145	-0.003524	0.002364	-0.003630	-48.804533	-70.114182	-32.194550
62213	9.162793	-2.492562	2.169068	-0.001349	-0.002709	-0.000561	-48.806657	-70.116443	-32.192673
62214	9.162843	-2.492481	2.168951	-0.001083	0.000820	-0.001776	-48.803311	-70.117875	-32.196141
62215	9.155222	-2.495064	2.191859	-0.001349	-0.002709	-0.000561	-48.805435	-70.120135	-32.194263
62216	9.162947	-2.492384	2.168623	-0.000675	-0.001355	-0.000280	-48.806062	-70.121784	-32.194251
62217	9.162995	-2.492379	2.168428	-0.002707	-0.001985	-0.000638	-48.808021	-70.123805	-32.193377
62218	9.163035	-2.492385	2.168249	-0.002033	-0.000630	-0.000358	-48.808556	-70.125194	-32.192855
62219	9.155357	-2.495136	2.191211	-0.000275	-0.000095	0.001699	-48.809307	-70.125494	-32.191783
62220	9.176484	-2.512794	2.170422	-0.000683	0.002079	0.000203	-48.806470	-70.125650	-32.194677
62221	9.155239	-2.495423	2.191377	-0.001907	0.000533	0.003321	-48.809099	-70.125013	-32.192603
62222	9.162873	-2.492937	2.168300	-0.002033	-0.000630	-0.000358	-48.809605	-70.126429	-32.193367
62223	9.162844	-2.493104	2.168230	-0.000549	-0.000191	0.003398	-48.812401	-70.126032	-32.190288
62224	9.195100	-2.500180	2.178278	-0.000958	0.001984	0.001902	-48.811655	-70.125516	-32.191581
62225	9.200386	-2.466653	2.184046	-0.001358	0.000724	-0.000077	-48.810195	-70.126273	-32.193520
62226	9.143763	-2.507145	2.160693	0.000525	0.002423	0.005658	-48.811878	-70.123972	-32.192471
62227	9.170143	-2.491427	2.145641	-0.002991	0.001353	0.001545	-48.812296	-70.123792	-32.193408
62228	9.162368	-2.494358	2.168798	0.002158	0.001794	0.004036	-48.812087	-70.122395	-32.192293
62229	9.160350	-2.520267	2.217323	0.000117	0.004597	0.004162	-48.809588	-70.119862	-32.194439
62230	9.194413	-2.501802	2.179312	-0.000275	-0.000095	0.001699	-48.810609	-70.120186	-32.193328
62231	9.161984	-2.495174	2.169481	-0.001641	0.004063	0.002106	-48.807609	-70.118742	-32.197078
62232	9.161929	-2.495143	2.169749	-0.000133	0.002270	-0.003195	-48.800617	-70.120262	-32.203677
62233	9.161901	-2.495021	2.170009	-0.000008	0.003434	0.000484	-48.795739	-70.119755	-32.208428
62234	9.154166	-2.497638	2.193337	0.001625	0.002805	-0.001138	-48.789250	-70.120207	-32.214210
62235	9.194169	-2.501667	2.180496	-0.002441	0.001545	-0.001854	-48.785578	-70.121419	-32.219161
62236	9.194119	-2.501701	2.180670	0.001075	0.002614	0.002260	-48.783162	-70.120487	-32.221351
62237	9.169384	-2.492311	2.147859	0.000675	0.001355	0.000281	-48.780159	-70.120851	-32.223693
62238	9.180492	-2.481586	2.178927	0.001350	0.002709	0.000561	-48.775682	-70.120586	-32.226983
62239	9.129234	-2.488278	2.161317	-0.000958	0.001984	0.001902	-48.774559	-70.120014	-32.228321
62240	9.161525	-2.495199	2.171391	0.000000	0.000000	0.000000	-48.773488	-70.121004	-32.228518
62241	9.161532	-2.495187	2.171375	0.001358	-0.000725	0.000077	-48.772360	-70.122241	-32.228450
62242	9.161479	-2.495419	2.171335	-0.000825	-0.000286	0.005097	-48.777330	-70.121147	-32.223865
62243	9.161402	-2.495591	2.171461	0.001625	0.002805	-0.001138	-48.770574	-70.121575	-32.229619
62244	9.186047	-2.505074	2.204532	0.000408	-0.002175	0.001496	-48.773405	-70.122735	-32.225372
62245	9.174841	-2.515961	2.173698	0.002432	0.001889	0.002338	-48.770907	-70.122011	-32.226107
62246	9.161334	-2.495725	2.171591	-0.000400	-0.001259	-0.001980	-48.769443	-70.124352	-32.228382
62247	9.180206	-2.482245	2.179380	-0.001358	0.000725	-0.000077	-48.767981	-70.125108	-32.230323
62248	9.150222	-2.506386	2.140618	0.000683	-0.002079	-0.000203	-48.768842	-70.127005	-32.228811
62249	9.193751	-2.502226	2.181619	0.002850	0.004350	-0.004255	-48.756282	-70.128192	-32.239990
62250	9.167304	-2.517890	2.196970	0.001233	-0.001888	-0.003601	-48.753005	-70.131446	-32.241655
62251	9.161603	-2.494663	2.171677	-0.001483	-0.000439	-0.003756	-48.749156	-70.134226	-32.246211
62252	9.195885	-2.475669	2.133404	0.002991	-0.001354	-0.001544	-48.746369	-70.136428	-32.247749
62253	9.154104	-2.496797	2.194555	-0.000125	-0.001164	-0.003679	-48.742685	-70.139448	-32.251303
62254	9.194190	-2.500715	2.181499	-0.001083	0.000820	-0.001776	-48.739413	-70.140878	-32.253732
62255	9.143085	-2.507144	2.163560	-0.001074	-0.002614	-0.002260	-48.739484	-70.143835	-32.253871
62256	9.161973	-2.493655	2.171277	-0.001358	0.000724	-0.000077	-48.738230	-70.144602	-32.255939
62257	9.162085	-2.493256	2.171262	0.000700	-0.000877	-0.008775	-48.728394	-70.149710	-32.265530
62258	9.173412	-2.482096	2.201891	-0.003382	-0.003340	-0.000919	-48.732321	-70.152417	-32.264295
62259	9.170004	-2.490003	2.147888	0.002582	0.000821	-0.003040	-48.725380	-70.154412	-32.269661
62260	9.181217	-2.479148	2.178648	-0.000266	-0.003529	0.001215	-48.729966	-70.156224	-32.264190
62261	9.188878	-2.476628	2.155523	0.000400	0.001259	0.001979	-48.729009	-70.155892	-32.264523
62262	9.162331	-2.492808	2.170737	-0.003391	0.000094	-0.000435	-48.729311	-70.157038	-32.265454
62263	9.167637	-2.459291	2.176398	-0.002991	0.001353	0.001544	-48.729729	-70.156858	-32.266391
62264	9.194591	-2.499992	2.180639	0.000133	-0.002270	0.003195	-48.734811	-70.157421	-32.261582
62265	9.167564	-2.459846	2.176079	-0.003257	-0.002176	0.002759	-48.740867	-70.158051	-32.256689
62266	9.154475	-2.496490	2.193356	-0.001233	0.001888	0.003601	-48.742177	-70.156831	-32.255461
62267	9.173233	-2.483405	2.201159	0.000133	-0.002270	0.003195	-48.746858	-70.157309	-32.249963
62268	9.162041	-2.494313	2.170233	-0.002716	0.001449	-0.000155	-48.745446	-70.157842	-32.253055
62269	9.161948	-2.494584	2.170313	-0.000150	0.001068	0.005378	-48.748590	-70.156119	-32.249364
62270	9.172976	-2.484184	2.201350	0.001075	0.002614	0.002260	-48.746230	-70.155179	-32.250622
62271	9.155854	-2.472351	2.145531	0.003240	0.000974	0.005813	-48.748000	-70.153304	-32.246328
62272	9.178503	-2.507841	2.226882	-0.005981	0.002707	0.003089	-48.750369	-70.151963	-32.247186
62273	9.187945	-2.480035	2.155583	0.001216	-0.003090	0.004971	-48.757267	-70.151985	-32.238672
62274	9.134808	-2.512503	2.185993	-0.001641	0.004063	0.002106	-48.754547	-70.150557	-32.241892
62275	9.187675	-2.480669	2.156001	0.000117	0.004597	0.004163	-48.752055	-70.148024	-32.244031
62276	9.155620	-2.530792	2.165804	0.003240	0.000973	0.005813	-48.754107	-70.146165	-32.239146
62277	9.160841	-2.497487	2.171647	-0.000958	0.001984	0.001903	-48.752984	-70.145593	-32.240484
62278	9.187286	-2.481670	2.156510	0.000808	-0.000916	0.003476	-48.756122	-70.145465	-32.237478
62279	9.149490	-2.508794	2.140929	0.000800	0.002518	0.003960	-48.755506	-70.143805	-32.237206
62280	9.179362	-2.484923	2.179883	0.001075	0.002614	0.002261	-48.753086	-70.142842	-32.238303
62281	9.160424	-2.498501	2.172241	0.000400	0.001259	0.001980	-48.752131	-70.142510	-32.238636
62282	9.160325	-2.498829	2.172281	-0.000826	-0.000286	0.005098	-48.757249	-70.141443	-32.233412
62283	9.171406	-2.488418	2.203108	-0.000275	-0.000095	0.001699	-48.758002	-70.141743	-32.232339
62284	9.167872	-2.496721	2.149189	0.000807	-0.000916	0.003476	-48.761276	-70.141630	-32.228383
62285	9.178945	-2.486229	2.180149	0.001075	0.002614	0.002261	-48.758612	-70.140666	-32.230121
62286	9.173505	-2.519971	2.174692	-0.000683	0.002079	0.000203	-48.755592	-70.140791	-32.233785
62287	9.172984	-2.463613	2.155313	0.001482	0.000439	0.003757	-48.756853	-70.140004	-32.231101
62288	9.152190	-2.502655	2.195864	0.001625	0.002804	-0.001138	-48.750404	-70.140449	-32.236038
62289	9.167494	-2.497436	2.149973	-0.001908	0.000534	0.003321	-48.753038	-70.139813	-32.233960
62290	9.172788	-2.464057	2.155643	-0.000275	-0.000095	0.001699	-48.753997	-70.140142	-32.233600
62291	9.165529	-2.523271	2.198200	-0.002440	0.001545	-0.001854	-48.750317	-70.141354	-32.238559
62292	9.172765	-2.464166	2.155615	0.000132	-0.002270	0.003195	-48.755220	-70.141830	-32.232461
62293	9.151993	-2.503358	2.195882	-0.001633	0.000630	0.001622	-48.755806	-70.141891	-32.232393
62294	9.146146	-2.480631	2.170702	-0.000275	-0.000095	0.001699	-48.756894	-70.142213	-32.230355
62295	9.164953	-2.467399	2.178526	-0.000275	-0.000095	0.001699	-48.757648	-70.142514	-32.229282
62296	9.186055	-2.485154	2.157739	-0.000958	0.001984	0.001903	-48.756664	-70.141938	-32.230886
62297	9.159422	-2.501566	2.172936	-0.004216	-0.000190	0.004662	-48.762888	-70.140998	-32.226397
62298	9.145887	-2.481678	2.170598	-0.004341	-0.001354	0.000983	-48.766953	-70.142097	-32.224418
62299	9.178186	-2.488937	2.180256	-0.004484	-0.003720	0.005877	-48.778811	-70.141965	-32.214102
62300	9.140402	-2.516433	2.164113	-0.004760	-0.003815	0.007577	-48.792876	-70.141156	-32.202631
62301	9.156919	-2.472618	2.200128	-0.003252	-0.005608	0.002275	-48.802518	-70.143289	-32.193921
62302	9.188137	-2.518772	2.126941	-0.003252	-0.005608	0.002275	-48.812414	-70.145445	-32.185221
62303	9.151654	-2.506823	2.193340	-0.003934	-0.003529	0.002479	-48.820180	-70.146705	-32.178921
62304	9.204741	-2.475021	2.162539	-0.002577	-0.004254	0.002556	-48.828402	-70.148231	-32.171353
62305	9.127025	-2.498057	2.159368	-0.005160	-0.005074	0.005597	-48.841976	-70.148728	-32.159625
62306	9.209392	-2.537749	2.103971	-0.000262	-0.006963	0.000730	-48.849979	-70.152026	-32.151717
62307	9.075869	-2.396647	2.334583	-0.012786	0.005133	0.011281	-48.861658	-70.146221	-32.146648
62308	9.159422	-2.506678	2.167039	0.005744	-0.034912	0.002820	-48.901925	-70.159181	-32.101176
62309	9.172773	-2.471077	2.147655	-0.021580	-0.005602	0.008605	-48.928686	-70.158572	-32.085432
62310	9.157628	-2.477436	2.191743	-0.004585	-0.030121	0.007382	-48.974088	-70.167718	-32.038773
62311	9.200259	-2.513395	2.147498	-0.012467	-0.018805	0.006195	-49.008952	-70.173108	-32.008866
62312	9.194741	-2.491106	2.120323	-0.005813	-0.020161	0.003382	-49.038888	-70.180254	-31.981673
62313	9.200899	-2.514355	2.143627	-0.010019	-0.015713	-0.000040	-49.062173	-70.187170	-31.962584
62314	9.214632	-2.534823	2.144369	-0.003923	-0.010394	0.001514	-49.077357	-70.191409	-31.948526
62315	9.201363	-2.514742	2.141181	-0.008398	-0.009475	-0.000694	-49.091556	-70.196264	-31.938109
62316	9.180504	-2.497158	2.161013	-0.000661	-0.011653	-0.001734	-49.103224	-70.202452	-31.926555
62317	9.161938	-2.510342	2.152111	-0.006493	-0.010009	-0.004017	-49.113522	-70.208945	-31.919125
62318	9.186494	-2.463197	2.164603	-0.004733	-0.009477	-0.001961	-49.124653	-70.214356	-31.908719
62319	9.181315	-2.496891	2.157874	-0.003923	-0.010394	0.001515	-49.139721	-70.218596	-31.894656
62320	9.194478	-2.460976	2.139553	-0.003794	-0.009233	0.005195	-49.157423	-70.220832	-31.878037
62321	9.189068	-2.495328	2.133026	-0.002989	-0.006718	0.009156	-49.175493	-70.220379	-31.860214
62322	9.162406	-2.512324	2.147800	-0.003675	-0.001205	0.009845	-49.188227	-70.217568	-31.848436
62323	9.188776	-2.497146	2.132156	-0.004073	-0.005896	0.007381	-49.204077	-70.217574	-31.833633
62324	9.194554	-2.520854	2.156646	-0.004073	-0.005896	0.007381	-49.220171	-70.217622	-31.819633
62325	9.188646	-2.498531	2.131096	-0.001497	-0.001642	0.004821	-49.226750	-70.217145	-31.813114
62326	9.169723	-2.512269	2.123017	-0.000543	-0.003625	0.002916	-49.233409	-70.218246	-31.806009
62327	9.220914	-2.506108	2.140548	-0.000547	-0.000193	0.003401	-49.236216	-70.217842	-31.802919
62328	9.180794	-2.502324	2.153793	-0.000824	0.003144	0.005586	-49.237682	-70.215228	-31.800234
62329	9.180606	-2.502774	2.154069	-0.000551	0.003240	0.003885	-49.236855	-70.213329	-31.801010
62330	9.180385	-2.503159	2.154565	0.001479	0.007301	0.004725	-49.231017	-70.209565	-31.806657
62331	9.168891	-2.514156	2.124377	-0.000281	0.006770	0.002670	-49.224517	-70.206873	-31.813297
62332	9.174019	-2.481099	2.130713	0.002016	0.006286	0.009902	-49.225076	-70.201245	-31.810977
62333	9.173603	-2.481976	2.131481	0.003369	0.008993	0.010463	-49.221908	-70.194339	-31.811854
62334	9.178989	-2.505820	2.157417	-0.000699	0.007739	0.009752	-49.222053	-70.188208	-31.811187
62335	9.170939	-2.509383	2.181163	0.004049	0.006914	0.010259	-49.220789	-70.182169	-31.809625
62336	9.185772	-2.504975	2.135915	0.003095	0.008898	0.012165	-49.219870	-70.174559	-31.807961
62337	9.177720	-2.508536	2.159661	0.000255	0.005756	0.007848	-49.219670	-70.169999	-31.807579
62338	9.156287	-2.491666	2.181188	0.000932	0.007109	0.008128	-49.217930	-70.164812	-31.808359
62339	9.158152	-2.523367	2.152991	0.004051	0.003481	0.009776	-49.220291	-70.160267	-31.802942
62340	9.203282	-2.494613	2.146173	0.001480	0.007301	0.004728	-49.214660	-70.156525	-31.807317
62341	9.157590	-2.524518	2.154033	-0.001100	0.003050	0.007288	-49.217909	-70.153221	-31.804094
62342	9.176188	-2.511939	2.162211	0.002694	0.004207	0.009701	-49.220206	-70.148428	-31.799904
62343	9.175840	-2.512626	2.162893	0.005274	0.008459	0.007142	-49.213151	-70.143163	-31.803752
62344	9.169641	-2.490482	2.138596	0.001060	0.008272	0.011812	-49.213737	-70.135969	-31.803181
62345	9.206875	-2.464863	2.155396	0.010550	0.013484	0.013800	-49.204528	-70.125935	-31.806105
62346	9.107563	-2.527518	2.194822	0.007010	0.018085	0.019237	-49.197755	-70.111790	-31.806333
62347	9.186297	-2.481596	2.150849	0.006719	0.013352	0.029035	-49.206666	-70.095197	-31.792323
62348	9.137545	-2.482610	2.188527	0.002373	0.018873	0.030996	-49.213614	-70.075701	-31.783805
62349	9.205163	-2.504776	2.133033	0.006570	0.010987	0.033940	-49.230459	-70.057863	-31.761442
62350	9.177384	-2.523875	2.149678	0.001546	0.018590	0.036106	-49.243756	-70.036290	-31.744865
62351	9.187271	-2.516563	2.182317	0.004660	0.018393	0.038246	-49.257211	-70.013809	-31.727269
62352	9.142742	-2.579705	2.162493	0.009427	0.011897	0.029206	-49.266736	-69.997758	-31.711732
62353	9.216953	-2.416097	2.156619	0.012266	0.018472	0.034020	-49.271346	-69.977081	-31.698906
62354	9.134703	-2.619177	2.160318	0.000990	0.018409	0.039524	-49.288268	-69.953983	-31.677967
62355	9.182380	-2.528483	2.189113	0.008069	0.016061	0.029626	-49.293605	-69.936113	-31.666925
62356	9.145620	-2.588449	2.146293	0.009022	0.014075	0.027723	-49.299122	-69.919864	-31.655354
62357	9.148083	-2.526143	2.182102	0.006584	0.012194	0.025382	-49.305540	-69.905282	-31.644065
62358	9.187138	-2.532838	2.170434	0.008341	0.012724	0.027446	-49.313001	-69.889695	-31.629749
62359	9.153750	-2.528386	2.162066	0.008872	0.018581	0.033606	-49.318889	-69.869154	-31.617625
62360	9.205748	-2.499611	2.133913	0.015377	0.021708	0.036675	-49.320719	-69.846158	-31.606633
62361	9.230674	-2.544167	2.141160	0.010862	0.033984	0.053590	-49.327524	-69.811180	-31.592313
62362	9.156146	-2.593742	2.167541	0.017931	0.044166	0.054238	-49.319308	-69.772210	-31.590475
62363	9.189537	-2.541000	2.216436	0.020080	0.042522	0.057815	-49.315009	-69.732208	-31.582355
62364	9.156869	-2.569944	2.182336	0.017497	0.048589	0.061848	-49.309334	-69.688186	-31.576759
62365	9.180660	-2.616128	2.191902	0.022365	0.052353	0.066565	-49.301009	-69.640711	-31.571530
62366	9.151219	-2.581066	2.192885	0.024114	0.052886	0.068653	-49.293589	-69.592215	-31.564693
62367	9.153916	-2.553411	2.204188	0.026945	0.056030	0.073015	-49.284832	-69.540565	-31.557122
62368	9.150713	-2.559923	2.209929	0.022146	0.055695	0.081114	-49.287520	-69.485574	-31.541530
62369	9.200480	-2.592589	2.204982	0.027332	0.052659	0.095468	-49.304777	-69.425430	-31.505936
62370	9.229151	-2.552009	2.201974	0.025587	0.071573	0.104967	-49.310843	-69.354206	-31.485269
62371	9.232426	-2.559547	2.186620	0.031300	0.077847	0.126017	-49.326744	-69.271377	-31.448661
62372	9.222989	-2.509732	2.252132	0.023401	0.086867	0.154388	-49.364835	-69.172912	-31.393563
62373	9.209567	-2.597813	2.172699	0.018666	0.089994	0.187675	-49.433723	-69.058713	-31.307942
62374	9.374444	-2.442297	2.234290	0.024984	0.103339	0.218729	-49.513268	-68.926045	-31.208449
62375	9.316548	-2.035484	2.480765	-0.056598	0.123517	0.300111	-49.693144	-68.750229	-31.049897
62376	9.004482	-2.871469	2.198085	-0.041044	0.129362	0.398660	-49.947923	-68.529047	-30.803242
62377	9.677783	-2.278567	2.228412	-0.001141	0.087623	0.465952	-50.282698	-68.293001	-30.443470
62378	9.266441	-2.646819	2.352908	-0.072284	0.152719	0.580665	-50.682629	-67.981807	-30.058934
62379	9.605697	-2.639813	2.291266	-0.040708	0.144050	0.657654	-51.130352	-67.638320	-29.600146
62380	9.522189	-2.851339	2.375491	-0.085947	0.219518	0.753818	-51.591275	-67.223518	-29.154471
62381	9.657238	-2.876417	2.511322	-0.070270	0.239537	0.828471	-52.067310	-66.766529	-28.680604
62382	10.495173	-3.071424	2.661004	-0.092610	0.316276	0.906360	-52.520455	-66.245929	-28.244151
62383	11.031366	-2.764878	2.970415	-0.164686	0.376393	1.001903	-53.007518	-65.659420	-27.813679
62384	10.004482	-3.434738	2.455920	-0.304913	0.397711	1.170234	-53.655109	-64.986607	-27.292867
62385	9.679228	-3.264585	2.717524	-0.265810	0.303214	1.248028	-54.396296	-64.306877	-26.640772
62386	9.679975	-3.354869	2.631788	-0.306356	0.339364	1.344778	-55.154987	-63.566382	-25.991176
62387	9.372679	-3.574507	2.575418	-0.315935	0.339500	1.427749	-55.933269	-62.782819	-25.321444
62388	9.156669	-3.638291	2.512793	-0.309198	0.295202	1.498416	-56.750117	-61.975558	-24.599053
62389	8.984459	-3.723050	2.568364	-0.279328	0.268907	1.571294	-57.571750	-61.136607	-23.846191
62390	8.942210	-3.952514	2.479208	-0.250296	0.233309	1.623295	-58.391565	-60.278231	-23.070188
62391	8.973357	-4.254022	2.415358	-0.218132	0.220553	1.633863	-59.165165	-59.413196	-22.319608
62392	10.054178	-4.298035	2.835802	-0.142103	0.287905	1.579425	-59.774314	-58.551021	-21.703385
62393	9.181152	-5.160723	2.542650	-0.238667	0.466905	1.583810	-60.266570	-57.632339	-21.284124
62394	7.482801	-4.891726	2.654807	-0.216596	0.354015	1.585874	-60.809442	-56.742558	-20.785404
62395	7.640112	-4.581076	2.257352	-0.162214	0.104584	1.583840	-61.480498	-55.919864	-20.090295
62396	7.816145	-4.861677	2.197835	-0.196312	0.089379	1.604970	-62.158823	-55.086209	-19.403274
62397	7.546688	-5.223997	2.233779	-0.137531	-0.013332	1.602292	-62.844942	-54.276435	-18.658481
