// General information: 
//  MT Manager version: 2022.2.0 
//  XDA version: 2022.2.0 build 7381 rev 124627 built on 2023-07-19
// Device information: 
//  DeviceId: 00B4BB4F
//  ProductCode: MTW2-3A7G6
//  Firmware Version: 4.6.0
//  Hardware Version: 2.0.0
// Device settings: 
//  Filter Profile: human(46.1)
//  Option Flags: Orientation Smoother Disabled, Position/Velocity Smoother Disabled, Continuous Zero Rotation Update Disabled, AHS Disabled, ICC Disabled
// Coordinate system: ENU
PacketCounter	SampleTimeFine	Acc_X	Acc_Y	Acc_Z	Gyr_X	Gyr_Y	Gyr_Z	Roll	Pitch	Yaw
04304	NaN	9.743029	0.986263	0.513066	0.005298	-0.034020	-0.018223	61.923603	-83.624117	171.776231
04305	NaN	9.683774	1.026960	0.541228	0.007543	-0.022576	-0.022520	62.087244	-83.619068	171.615592
04306	NaN	9.708560	1.033537	0.483567	0.012524	-0.046217	-0.021250	62.362871	-83.620514	171.345157
04307	NaN	9.763750	0.994629	0.424765	0.013160	-0.029426	-0.019078	62.552287	-83.618888	171.161820
04308	NaN	9.704756	1.020883	0.528623	0.012652	-0.030330	-0.017858	62.747716	-83.617667	170.972257
04309	NaN	9.693078	1.001659	0.528772	0.010213	-0.045449	-0.018889	63.007933	-83.620173	170.715980
04310	NaN	9.729553	1.029117	0.465770	0.013090	-0.050832	-0.020958	63.304508	-83.622475	170.424828
04311	NaN	9.762305	1.040084	0.454695	0.012817	-0.043914	-0.019170	63.560204	-83.624167	170.174602
04312	NaN	9.672124	1.019892	0.517351	0.016262	-0.041717	-0.022924	63.821354	-83.622838	169.920978
04313	NaN	9.729552	1.035411	0.451638	0.012309	-0.059549	-0.020286	64.151538	-83.627616	169.595509
04314	NaN	9.706770	1.101097	0.419090	0.009777	-0.049335	-0.011844	64.419687	-83.633609	169.331086
04315	NaN	9.788857	0.999606	0.410301	0.006536	-0.046243	-0.011824	64.667127	-83.639136	169.085553
04316	NaN	9.788838	1.001133	0.407014	0.012046	-0.019022	-0.018591	64.811226	-83.633987	168.947198
04317	NaN	9.662893	1.061335	0.495417	0.009591	-0.019407	-0.017266	64.947652	-83.630004	168.815128
04318	NaN	9.728272	1.080834	0.480103	0.009968	-0.029311	-0.013240	65.126500	-83.630041	168.640601
04319	NaN	9.742445	1.027490	0.380914	0.010062	-0.020103	-0.009406	65.249278	-83.630234	168.522534
04320	NaN	9.743060	1.014189	0.454712	0.003031	-0.021502	-0.007681	65.375745	-83.631201	168.396729
04321	NaN	9.726046	1.029762	0.479170	0.005848	-0.017221	-0.016027	65.496769	-83.627201	168.277998
04322	NaN	9.715900	1.078507	0.399488	0.002149	-0.027234	-0.012818	65.660338	-83.626783	168.114375
04323	NaN	9.854446	1.004973	0.257020	-0.004796	-0.005629	-0.018310	65.725641	-83.618797	168.045574
04324	NaN	9.731005	0.999109	0.454588	-0.005647	0.036972	-0.021228	65.602876	-83.598811	168.165579
04325	NaN	9.596684	1.054934	0.499068	0.000498	0.001576	-0.023677	65.648789	-83.586330	168.119338
04326	NaN	9.682929	1.063077	0.483532	0.002055	-0.005372	-0.021062	65.727011	-83.576421	168.041511
04327	NaN	9.709215	1.017800	0.457490	0.000432	-0.019827	-0.025535	65.875559	-83.567979	167.891946
04328	NaN	9.730140	1.008241	0.452918	0.005609	-0.023429	-0.025655	66.048403	-83.559842	167.721001
04329	NaN	9.711003	1.077124	0.447099	0.007984	-0.029711	-0.026505	66.248311	-83.553081	167.524099
04330	NaN	9.733236	1.029771	0.395532	0.004426	-0.026384	-0.024238	66.430519	-83.546244	167.343002
04331	NaN	9.710715	1.081880	0.441843	0.002823	-0.023573	-0.022077	66.589249	-83.540269	167.184560
04332	NaN	9.673837	1.072557	0.421149	0.009316	-0.041936	-0.020136	66.837552	-83.538977	166.939792
04333	NaN	9.759415	1.094571	0.326059	0.011539	-0.032099	-0.015386	67.027190	-83.538311	166.755269
04334	NaN	9.679954	1.026357	0.468751	0.016314	-0.011066	-0.017215	67.129759	-83.531497	166.661161
04335	NaN	9.666250	1.058779	0.440141	0.016572	-0.049037	-0.014552	67.399423	-83.534902	166.398999
04336	NaN	9.779189	1.019088	0.395051	0.016769	-0.043752	-0.018298	67.656516	-83.534588	166.149697
04337	NaN	9.729551	1.026486	0.423652	0.015936	-0.042813	-0.023901	67.914814	-83.531418	165.898608
04338	NaN	9.693475	1.109357	0.441986	0.013517	-0.055393	-0.020585	68.228821	-83.532111	165.590037
04339	NaN	9.735728	1.087125	0.431495	0.015000	-0.054274	-0.015168	68.523911	-83.535721	165.301380
04340	NaN	9.697924	1.091239	0.331997	0.015935	-0.071322	-0.015137	68.904793	-83.542258	164.927013
04341	NaN	9.779831	1.202217	0.251721	0.009228	-0.032928	-0.003934	69.076080	-83.547143	164.759628
04342	NaN	9.669653	1.085412	0.355321	0.009228	-0.007609	0.005459	69.115258	-83.551384	164.725163
04343	NaN	9.766819	1.044061	0.415802	0.009466	-0.014519	0.003696	69.186029	-83.556547	164.659074
04344	NaN	9.695157	1.075094	0.373946	0.011233	-0.016180	0.002563	69.272303	-83.560974	164.578487
04345	NaN	9.720600	1.065057	0.393557	0.007801	-0.018379	0.006339	69.355958	-83.568314	164.498473
04346	NaN	9.751415	1.019554	0.390116	0.017417	-0.030154	0.001985	69.513688	-83.575211	164.349478
04347	NaN	9.695520	1.074345	0.366607	0.011697	-0.030000	-0.000958	69.668453	-83.580911	164.200153
04348	NaN	9.806105	1.085003	0.292712	0.013562	-0.037181	-0.000578	69.862721	-83.587729	164.012185
04349	NaN	9.705289	1.041481	0.362278	0.015325	-0.011929	-0.001412	69.934346	-83.589537	163.948618
04350	NaN	9.732687	1.086239	0.374984	0.015422	-0.044360	-0.000194	70.163999	-83.597864	163.726162
04351	NaN	9.834661	1.092168	0.253241	0.012927	-0.020375	-0.002861	70.277542	-83.600488	163.619032
04352	NaN	9.707462	1.096149	0.349006	0.008752	-0.004378	0.001897	70.308073	-83.602112	163.593074
04353	NaN	9.732896	1.086377	0.369133	0.008408	-0.018859	0.001854	70.403773	-83.606960	163.501295
04354	NaN	9.749803	1.071716	0.340961	0.007501	-0.013999	0.003811	70.476771	-83.611460	163.431907
04355	NaN	9.728787	1.083392	0.342352	0.004958	-0.008869	0.003631	70.519489	-83.615331	163.391455
04356	NaN	9.717323	1.061991	0.345836	0.010881	-0.003745	0.002810	70.546741	-83.617316	163.370013
04357	NaN	9.672281	1.069288	0.401774	0.013808	-0.018765	0.007043	70.636662	-83.624909	163.287166
04358	NaN	9.719545	1.115062	0.335976	0.016363	-0.036080	0.009233	70.812919	-83.636475	163.118957
04359	NaN	9.738896	1.047780	0.336331	0.014637	-0.019693	0.012653	70.898946	-83.647235	163.040510
04360	NaN	9.712744	1.094347	0.358729	0.021189	-0.027243	0.009345	71.035752	-83.657134	162.914815
04361	NaN	9.748842	1.012840	0.332424	0.022268	-0.030954	0.008416	71.188879	-83.667647	162.773257
04362	NaN	9.662359	1.111838	0.309741	0.025536	-0.031492	0.012691	71.344323	-83.680072	162.631300
04363	NaN	9.718283	1.161630	0.291596	0.018857	-0.022545	0.019270	71.437303	-83.694866	162.548296
04364	NaN	9.660074	1.091939	0.356809	0.023545	-0.016441	0.027430	71.494246	-83.712497	162.504273
04365	NaN	9.693110	1.097945	0.347759	0.021536	-0.024170	0.037124	71.568144	-83.737265	162.442016
04366	NaN	9.727058	1.065300	0.292239	0.027916	-0.022269	0.039861	71.636700	-83.762700	162.388886
04367	NaN	9.830523	1.052953	0.248096	0.022541	0.000421	0.039717	71.585136	-83.784424	162.453422
04368	NaN	9.685205	1.014036	0.378375	0.029050	0.013105	0.037158	71.482140	-83.801973	162.573490
04369	NaN	9.629005	0.997851	0.439409	0.027077	-0.017222	0.029475	71.538008	-83.821325	162.532574
04370	NaN	9.672119	1.038823	0.349392	0.033282	-0.036713	0.030453	71.698770	-83.844251	162.389762
04371	NaN	9.700650	1.148710	0.278577	0.032335	-0.042454	0.025352	71.893247	-83.865853	162.212468
04372	NaN	9.812060	1.011827	0.194005	0.009284	-0.020373	0.029966	71.960298	-83.885525	162.150088
04373	NaN	9.647118	1.078834	0.366223	0.016429	0.012043	0.023622	71.872677	-83.896453	162.247350
04374	NaN	9.778637	1.073669	0.292260	0.010206	-0.014625	0.035075	71.902575	-83.917888	162.222867
04375	NaN	9.683278	0.991979	0.343594	0.008812	0.031387	0.030611	71.699205	-83.929137	162.432137
04376	NaN	9.683534	0.989211	0.344347	0.009671	-0.013956	0.027220	71.738164	-83.946190	162.398287
04377	NaN	9.638919	0.994874	0.400730	0.024344	-0.001060	0.026243	71.716587	-83.960864	162.433685
04378	NaN	9.556735	1.027799	0.483631	0.034604	-0.064870	0.019039	72.046785	-83.982517	162.121268
04379	NaN	9.660784	0.978898	0.387059	0.036180	-0.085370	0.020474	72.480057	-84.008793	161.706122
04380	NaN	9.628162	1.006615	0.430339	0.046602	-0.107545	0.015749	73.051221	-84.035384	161.158377
04381	NaN	9.640944	0.988179	0.367192	0.055062	-0.146878	0.014741	73.837520	-84.067653	160.399215
04382	NaN	9.745129	0.901756	0.216559	0.056610	-0.159139	0.006617	74.714615	-84.095707	159.549727
04383	NaN	9.807903	1.115188	0.165934	0.066823	-0.158108	-0.003215	75.609556	-84.117305	158.688194
04384	NaN	10.029762	1.082050	0.037816	0.039810	-0.119982	0.006126	76.280312	-84.137079	158.036536
04385	NaN	9.806142	1.060523	0.147811	0.043379	-0.077351	0.003649	76.724351	-84.149626	157.614826
04386	NaN	9.913610	1.015205	0.073118	0.023188	-0.094427	0.004396	77.255137	-84.163917	157.094323
04387	NaN	9.974184	1.030214	0.028052	0.020140	-0.035780	-0.002201	77.469001	-84.167336	156.890619
04388	NaN	9.843848	0.966409	0.182104	0.011785	-0.027551	-0.011142	77.648071	-84.164155	156.717116
04389	NaN	9.757367	1.068053	0.159432	0.011696	-0.043672	-0.016597	77.917513	-84.160317	156.452680
04390	NaN	9.869304	0.950839	0.021589	0.003437	-0.032888	-0.021256	78.132239	-84.151960	156.238520
04391	NaN	9.834025	1.005226	0.171808	-0.006550	0.010793	-0.027251	78.104690	-84.135566	156.262115
04392	NaN	9.742958	1.000043	0.165620	0.005660	-0.006389	-0.033632	78.189176	-84.117109	156.180159
04393	NaN	9.745023	0.989833	0.242425	-0.011044	0.021942	-0.028882	78.100406	-84.098489	156.262712
04394	NaN	9.516557	1.007439	0.384945	0.012392	-0.031871	-0.035536	78.328250	-84.081938	156.040501
04395	NaN	9.774661	1.018151	0.151722	0.012023	-0.106233	-0.026249	78.943101	-84.079341	155.428952
04396	NaN	9.756035	1.019762	0.221643	0.023229	-0.072337	-0.028731	79.386208	-84.070601	154.996554
04397	NaN	9.781740	0.974630	0.187282	0.035893	-0.115868	-0.026309	80.065313	-84.067756	154.334144
04398	NaN	9.834520	1.041497	0.083336	0.043153	-0.106657	-0.027632	80.702674	-84.061977	153.717918
04399	NaN	9.648001	1.063382	0.084429	0.030979	-0.067729	-0.029717	81.118213	-84.051431	153.317652
04400	NaN	9.808226	1.095445	0.093700	-0.014480	-0.043975	-0.035640	81.385895	-84.034692	153.039889
04401	NaN	9.622440	1.050622	0.183706	-0.005846	-0.011619	-0.037849	81.480157	-84.014373	152.941418
04402	NaN	9.621185	1.121405	0.098268	-0.009329	-0.053063	-0.034215	81.795961	-83.999004	152.618214
04403	NaN	9.788050	1.133424	0.034896	-0.014470	-0.026449	-0.026939	81.954800	-83.985995	152.449834
04404	NaN	9.856526	0.920458	-0.005268	-0.027065	0.019753	-0.037438	81.869180	-83.962763	152.520046
04405	NaN	9.720296	1.107232	0.106639	-0.042706	0.066222	-0.054420	81.537000	-83.926565	152.829156
04406	NaN	9.746523	0.959350	0.125033	-0.054107	0.065097	-0.063448	81.219081	-83.884641	153.117423
04407	NaN	9.705324	1.082679	0.178166	-0.052347	0.083803	-0.076289	80.815436	-83.834105	153.492905
04408	NaN	9.729409	1.109455	0.078967	-0.062349	0.068963	-0.069765	80.487378	-83.787868	153.786668
04409	NaN	9.692308	1.037129	0.154108	-0.065761	0.108779	-0.073722	79.957081	-83.735799	154.281894
04410	NaN	9.573948	1.159263	0.273574	-0.044257	0.060933	-0.069492	79.690929	-83.690078	154.523870
04411	NaN	9.830988	1.175783	0.052535	-0.052477	0.044411	-0.064142	79.498672	-83.649483	154.686728
04412	NaN	9.873332	1.090162	0.136663	-0.065797	0.097629	-0.058202	79.031661	-83.605942	155.118430
04413	NaN	9.750981	1.132113	0.142824	-0.068191	0.120188	-0.064210	78.459572	-83.556573	155.654484
04414	NaN	9.701913	1.265017	0.101033	-0.070605	0.118244	-0.053748	77.896801	-83.512209	156.179866
04415	NaN	9.848836	1.026550	0.137594	-0.082865	0.152806	-0.053120	77.161420	-83.463747	156.871910
04416	NaN	9.568338	1.124759	0.422160	-0.071776	0.167903	-0.067438	76.390624	-83.403805	157.606128
04417	NaN	9.620188	1.195748	0.342988	-0.066925	0.076832	-0.055329	76.052123	-83.362704	157.907969
04418	NaN	9.660135	1.122510	0.351299	-0.065991	0.070403	-0.048185	75.743691	-83.325789	158.180151
04419	NaN	9.640672	1.155144	0.307441	-0.055974	0.028566	-0.049208	75.639091	-83.294600	158.252851
04420	NaN	9.712769	1.319415	0.182088	-0.065507	0.046963	-0.045332	75.442408	-83.262426	158.412819
04421	NaN	9.546329	1.137460	0.362576	-0.066875	0.061501	-0.035089	75.162505	-83.234217	158.655765
04422	NaN	9.672252	1.298084	0.227770	-0.048791	0.014657	-0.030824	75.111207	-83.214691	158.679017
04423	NaN	9.676394	1.142641	0.297094	-0.056052	0.061729	-0.024735	74.826529	-83.192012	158.933040
04424	NaN	9.726668	1.194297	0.262932	-0.047252	0.030498	-0.023143	74.694421	-83.174327	159.038571
04425	NaN	9.767638	1.050871	0.350659	-0.059215	0.078356	-0.037982	74.351465	-83.141558	159.349488
04426	NaN	9.746637	1.189772	0.272634	-0.068350	0.039026	-0.056803	74.213711	-83.103883	159.448530
04427	NaN	9.827522	1.200709	0.239919	-0.098284	0.095813	-0.073079	73.820850	-83.048702	159.787224
04428	NaN	9.774281	1.104792	0.295487	-0.131955	0.102583	-0.097770	73.420701	-82.978103	160.113928
04429	NaN	9.941662	1.250731	0.165908	-0.162935	0.137598	-0.124637	72.888669	-82.887103	160.555636
04430	NaN	9.922340	1.346248	0.131474	-0.200362	0.221044	-0.137532	72.009401	-82.773519	161.325881
04431	NaN	9.789568	1.060456	0.435324	-0.277428	0.308170	-0.159824	70.774802	-82.630593	162.409982
04432	NaN	9.642660	0.792843	0.788267	-0.261951	0.229425	-0.225911	70.016457	-82.464326	163.023171
04433	NaN	9.839728	1.047735	0.503901	-0.247376	0.111596	-0.280563	69.840876	-82.291612	163.056990
04434	NaN	10.595152	1.162555	0.204758	-0.355649	0.020205	-0.382705	70.111014	-82.081442	162.578468
04435	NaN	12.458166	0.597330	-1.119886	-0.405429	0.006033	-0.644352	70.728445	-81.732651	161.719872
04436	NaN	10.810016	1.810662	-0.482144	-0.582403	0.457660	-0.922644	69.941752	-81.146439	162.177778
04437	NaN	10.134365	1.332563	-0.264559	-0.745876	0.126627	-0.995049	70.298047	-80.585826	161.383740
04438	NaN	14.279699	0.227839	0.998149	-0.742560	-0.096820	-1.157024	71.451986	-79.977437	159.781201
04439	NaN	13.445376	-0.785910	0.315351	-0.398650	0.805251	-1.661205	70.546818	-78.927474	160.469223
04440	NaN	10.286127	0.805886	1.883072	-0.200506	0.271332	-1.853639	71.406474	-77.872660	159.474280
04441	NaN	11.948940	1.785585	-0.713695	-0.186860	0.128249	-1.966671	72.540800	-76.778549	158.201611
04442	NaN	10.193000	2.280836	-0.420661	-0.406483	0.008126	-2.033199	73.673388	-75.662413	156.795626
04443	NaN	10.698301	3.165376	-1.216449	-0.588945	-0.376057	-2.069261	75.311746	-74.577599	154.751029
04444	NaN	9.312208	3.837227	-2.738459	-0.888691	-0.723335	-2.073786	77.202038	-73.521567	152.255567
04445	NaN	12.928208	4.426877	-3.967071	-1.295894	-1.006863	-1.970683	79.071379	-72.535053	149.524581
04446	NaN	9.404423	5.676696	-4.511951	-1.776454	-0.427481	-1.991540	79.451604	-71.459383	148.054753
04447	NaN	9.114007	5.884237	-6.039553	-2.311305	-0.924213	-1.891551	80.194969	-70.486211	145.867323
04448	NaN	9.559295	6.044148	-6.207691	-2.963999	-0.671696	-1.755407	80.018879	-69.561165	144.248174
04449	NaN	9.994739	6.090105	-6.147806	-3.531836	-0.438368	-1.563486	79.071006	-68.725954	143.096666
04450	NaN	10.668179	4.174883	-5.200262	-4.202277	0.108572	-1.278098	76.898530	-67.996422	142.844340
04451	NaN	10.351720	-1.138016	-5.862024	-4.603488	0.695669	-0.854329	73.625107	-67.421850	143.531122
04452	NaN	7.701208	-3.794011	-5.186195	-4.650818	0.928816	-0.385001	69.925238	-67.045798	144.654850
04453	NaN	6.074135	-7.346853	-5.910709	-4.457508	0.503802	0.127174	66.675727	-67.007003	145.409957
04454	NaN	6.882212	-7.816484	-5.846846	-3.963506	0.052683	0.611682	63.997709	-67.313339	145.853137
04455	NaN	6.207806	-6.595407	-4.809202	-3.592448	-0.182356	1.148928	61.432353	-67.946518	146.401049
04456	NaN	6.700097	-5.909954	-4.845843	-3.133874	-1.087617	1.463934	59.979659	-68.983939	146.034047
04457	NaN	10.057143	-3.755921	-4.102731	-2.886209	-1.398209	1.513885	58.996840	-70.138226	145.317747
04458	NaN	11.348614	-2.517245	-3.435260	-2.723566	-1.307571	1.462954	58.016542	-71.245789	144.704736
04459	NaN	10.449792	-1.932869	-2.705400	-2.662223	-1.168898	1.451657	56.846287	-72.307529	144.330529
04460	NaN	9.840053	-1.689775	-2.419625	-2.512033	-1.197747	1.474955	55.745182	-73.393145	143.978446
04461	NaN	9.761204	-1.311587	-2.148116	-2.320557	-1.283322	1.484923	54.833457	-74.511526	143.543286
04462	NaN	10.357144	-0.707460	-1.877412	-2.128701	-1.335994	1.417699	54.191882	-75.619313	142.946884
04463	NaN	10.582772	-0.255304	-1.660820	-1.960491	-1.323126	1.302617	53.776367	-76.669089	142.217572
04464	NaN	10.533708	0.044623	-1.414421	-1.804452	-1.312754	1.189061	53.645044	-77.665587	141.293832
04465	NaN	10.327265	0.149620	-1.201788	-1.662936	-1.311596	1.099826	53.803139	-78.618596	140.158408
04466	NaN	10.286984	0.249187	-0.994873	-1.512460	-1.324203	1.043873	54.315420	-79.550429	138.756106
04467	NaN	10.236556	0.523565	-0.869371	-1.373893	-1.338105	0.986867	55.232530	-80.454954	137.025246
04468	NaN	10.169814	0.815141	-0.685752	-1.272419	-1.356212	0.926956	56.683639	-81.332343	134.819249
04469	NaN	10.139324	1.273810	-0.536661	-1.195910	-1.397977	0.848529	58.887887	-82.171229	131.899342
04470	NaN	9.896413	1.871097	-0.175567	-1.159144	-1.431366	0.767625	62.055882	-82.960444	128.036739
04471	NaN	9.787283	2.604583	0.237681	-1.174240	-1.519450	0.677495	66.658238	-83.688172	122.725400
04472	NaN	10.286713	3.304559	0.445602	-1.272924	-1.543401	0.590726	72.741079	-84.314761	115.877791
04473	NaN	10.183593	3.676844	0.610524	-1.415357	-1.447437	0.484096	79.687866	-84.783002	108.084653
04474	NaN	9.495500	3.554708	0.587276	-1.548067	-1.400402	0.375986	87.577962	-85.087121	99.275192
04475	NaN	8.683595	3.289510	0.694953	-1.605736	-1.459475	0.285695	96.602555	-85.220757	89.294748
04476	NaN	8.446231	3.044400	0.901316	-1.608576	-1.651697	0.205451	107.012342	-85.140731	77.925189
04477	NaN	9.052221	2.826400	1.328201	-1.572404	-1.816314	0.147831	117.470604	-84.823552	66.522284
04478	NaN	9.293053	2.673114	1.970629	-1.537091	-1.864731	0.110451	126.506266	-84.306863	56.563221
04479	NaN	9.359681	2.737805	2.830187	-1.501205	-1.917278	0.079162	133.876087	-83.630599	48.287415
04480	NaN	10.767835	2.709073	4.191873	-1.482676	-2.025337	0.041399	139.855872	-82.795495	41.411830
04481	NaN	28.867187	4.362375	10.587873	-1.013420	-2.617332	0.140730	146.343248	-81.642152	34.278292
04482	NaN	16.148583	5.791096	7.635482	-2.767161	3.755400	-0.140833	133.877709	-83.245824	45.253146
04483	NaN	3.288506	-4.329497	12.254975	-2.771685	2.396799	0.248920	123.323508	-84.216778	54.272275
04484	NaN	12.306393	-2.958673	10.514987	-0.917619	0.612530	0.379431	120.958077	-84.585528	56.121756
04485	NaN	39.359716	-39.742643	43.260252	-2.407128	7.978933	1.342254	64.166444	-85.684738	111.701363
04486	NaN	-30.925563	-18.457472	16.410784	4.620936	2.727984	-1.748730	57.120119	-84.039834	121.433246
04487	NaN	6.352942	3.925502	-6.833551	8.311089	-5.829164	1.041338	96.252085	-85.452746	86.930316
04488	NaN	40.236970	24.883697	0.536549	4.118444	3.627886	0.762198	71.133345	-85.664963	114.488108
04489	NaN	-11.254260	2.809304	5.564907	-1.433593	4.581411	-1.048539	48.801117	-83.798414	136.084787
04490	NaN	2.440689	7.236292	13.898561	2.052064	-1.879988	0.402011	57.100944	-84.632743	128.924167
04491	NaN	12.700711	-1.318325	-1.362984	-0.026256	-3.188538	0.745355	75.005433	-85.778851	110.943304
04492	NaN	11.453446	1.527171	-3.947842	1.276171	-0.775589	-0.364564	82.112944	-85.661680	104.548622
04493	NaN	10.829018	3.536585	0.043211	-0.086123	-0.507744	0.311271	85.722028	-85.870067	100.879869
04494	NaN	9.886922	-1.322311	-0.339384	0.333436	-0.135496	0.250722	86.874949	-86.017954	99.915089
04495	NaN	10.813302	0.981979	-1.343881	0.288026	-0.514008	0.196590	91.314983	-86.135385	95.629727
04496	NaN	11.137031	0.002898	-0.669310	0.076578	0.349106	0.062669	88.383067	-86.170337	98.611765
04497	NaN	8.864502	0.741536	0.401277	0.045565	0.161673	0.041422	87.014983	-86.190418	100.008735
04498	NaN	10.511204	0.371830	-0.440333	0.087838	0.004411	0.047563	87.006746	-86.217080	100.066962
04499	NaN	9.562819	0.697630	0.035462	0.057411	0.268011	0.014858	84.721064	-86.214594	102.390279
04500	NaN	9.781084	0.711039	0.157921	0.057452	0.092079	0.048584	83.917824	-86.236665	103.227796
04501	NaN	9.789107	0.682273	0.145839	0.043398	0.153942	0.054851	82.557367	-86.257608	104.615771
04502	NaN	9.718250	0.668246	0.141204	0.033432	0.076648	0.071674	81.824183	-86.291921	105.369245
04503	NaN	9.807239	0.564111	0.099485	0.017187	0.078831	0.076191	81.047143	-86.328496	106.157443
04504	NaN	9.756696	0.445272	0.126447	0.014077	0.063559	0.067012	80.397591	-86.360117	106.815945
04505	NaN	9.659444	0.454054	0.110616	0.015102	0.047791	0.038831	79.927778	-86.377503	107.295049
04506	NaN	9.742940	0.476612	0.141022	0.014822	0.020029	0.022395	79.723638	-86.387715	107.507648
04507	NaN	9.785073	0.454980	0.076353	0.011791	0.010510	0.003206	79.637913	-86.388590	107.599989
04508	NaN	9.803516	0.506551	0.082762	0.002930	0.018916	-0.012173	79.492823	-86.379386	107.746593
04509	NaN	9.662065	0.453210	0.218152	-0.006614	-0.000427	-0.029595	79.547999	-86.362904	107.687185
04510	NaN	9.762899	0.573092	0.082111	0.004383	-0.042608	-0.039187	79.991927	-86.344768	107.244412
04511	NaN	9.916260	0.649459	-0.044175	-0.006672	-0.021148	-0.024643	80.219081	-86.333084	107.012639
04512	NaN	9.788930	0.654306	0.035955	-0.011450	0.015172	-0.012501	80.099966	-86.324167	107.124968
04513	NaN	9.860009	0.613452	0.076865	-0.021161	0.002876	0.005852	80.060055	-86.327329	107.152488
04514	NaN	9.774943	0.546329	0.116489	-0.021669	0.020783	0.009620	79.851833	-86.330307	107.348243
04515	NaN	9.768832	0.561203	0.099214	-0.016051	-0.013531	0.005099	79.960214	-86.334687	107.230100
04516	NaN	9.841719	0.608869	0.048135	-0.014985	-0.016562	0.013364	80.078876	-86.343503	107.102138
04517	NaN	9.857583	0.559675	-0.000185	-0.022224	-0.003450	0.018266	80.074922	-86.354296	107.093017
04518	NaN	9.835777	0.572095	0.054093	-0.018518	0.011035	0.018724	79.939209	-86.363398	107.217921
04519	NaN	9.807860	0.648896	0.067346	-0.022276	0.011531	0.023335	79.793422	-86.375542	107.350888
04520	NaN	9.870316	0.619529	-0.009367	-0.035174	0.020381	0.037644	79.532278	-86.394301	107.591911
04521	NaN	9.825617	0.488563	0.031812	-0.043675	0.048693	0.033685	79.020889	-86.408223	108.078912
04522	NaN	9.692243	0.455364	0.123686	-0.041689	0.056312	0.023892	78.452079	-86.414990	108.624463
04523	NaN	9.710663	0.455775	0.157140	-0.027175	0.029393	0.009057	78.163009	-86.416816	108.898174
04524	NaN	9.724740	0.465090	0.129177	-0.024494	0.010523	-0.003911	78.064492	-86.413035	108.982378
04525	NaN	9.752885	0.485183	0.070190	-0.017420	0.008890	-0.014435	78.008990	-86.404047	109.027664
04526	NaN	9.750987	0.494981	0.112529	-0.012480	0.007530	-0.020800	77.976510	-86.391154	109.052598
04527	NaN	9.791361	0.534095	0.064513	-0.008051	0.002652	-0.023472	77.999178	-86.377843	109.024938
04528	NaN	9.825551	0.539546	0.023233	-0.008604	0.017674	-0.014674	77.868098	-86.367172	109.150896
04529	NaN	9.791052	0.488697	0.091499	-0.004103	0.022808	-0.022311	77.713935	-86.352075	109.302691
04530	NaN	9.681976	0.544641	0.178754	0.004189	0.017372	-0.018909	77.602738	-86.339039	109.416077
04531	NaN	9.742565	0.577289	0.118613	0.007142	-0.002323	-0.015539	77.663296	-86.330789	109.359171
04532	NaN	9.793354	0.592070	0.146389	0.007012	-0.008068	-0.005539	77.750606	-86.328350	109.275263
04533	NaN	9.801358	0.617537	0.098122	0.011547	-0.002303	0.002523	77.778943	-86.330203	109.253173
04534	NaN	9.855948	0.613995	0.043219	0.006925	-0.002475	0.020212	77.768623	-86.341501	109.267048
04535	NaN	9.856097	0.611504	0.044409	0.006826	0.027469	0.030384	77.479611	-86.355293	109.560244
04536	NaN	9.781444	0.567362	0.138491	0.000434	0.038985	0.042909	77.054160	-86.374032	109.986362
04537	NaN	9.801987	0.606246	0.105407	0.003454	0.025726	0.041299	76.750564	-86.393906	110.292223
04538	NaN	9.755604	0.580159	0.139226	-0.010622	0.035423	0.057352	76.310841	-86.420822	110.726277
04539	NaN	9.774422	0.625700	0.148095	-0.000396	0.038300	0.055992	75.851521	-86.446855	111.185937
04540	NaN	9.766588	0.594416	0.199321	-0.018134	0.032829	0.066540	75.395997	-86.478805	111.631484
04541	NaN	9.749914	0.479811	0.179689	-0.020872	0.029646	0.063708	74.970196	-86.509930	112.045777
04542	NaN	9.746068	0.481481	0.122732	-0.012265	0.014207	0.057694	74.694238	-86.539399	112.314767
04543	NaN	9.778851	0.487405	0.123868	-0.023103	0.022846	0.057147	74.333042	-86.567643	112.663034
04544	NaN	9.772725	0.448995	0.131577	-0.007496	0.006468	0.045637	74.153237	-86.591504	112.838421
04545	NaN	9.746735	0.466615	0.127116	-0.012729	0.012935	0.040687	73.924726	-86.612068	113.059705
04546	NaN	9.771616	0.497626	0.150827	-0.016096	-0.000199	0.046523	73.794774	-86.637414	113.180211
04547	NaN	9.737835	0.538948	0.169156	-0.007004	-0.000727	0.041891	73.689649	-86.660763	113.281171
04548	NaN	9.891834	0.508983	0.094623	-0.007816	-0.005667	0.049935	73.603263	-86.688844	113.362783
04549	NaN	9.900443	0.528705	0.047772	-0.024734	0.020171	0.062597	73.225866	-86.720111	113.726287
04550	NaN	9.982103	0.546459	-0.022569	-0.000460	0.029550	0.071016	72.736071	-86.753782	114.216182
04551	NaN	9.854996	0.387365	0.092546	-0.019961	0.077189	0.080979	71.734707	-86.784676	115.207362
04552	NaN	9.969391	0.578054	0.137567	-0.003111	0.053282	0.094057	70.909266	-86.825685	116.031877
04553	NaN	9.930024	0.465703	0.032614	-0.016782	0.075772	0.110819	69.776260	-86.871092	117.156645
04554	NaN	10.054394	0.466107	0.044031	-0.009871	0.080400	0.120408	68.528416	-86.918916	118.400240
04555	NaN	10.620199	0.870082	-0.060127	-0.001565	0.072668	0.217342	66.915566	-87.018607	120.014127
04556	NaN	10.004325	0.181329	-0.335362	-0.063466	0.205737	0.292471	63.418722	-87.120985	123.478725
04557	NaN	10.785704	0.660668	0.026812	0.051804	0.179885	0.333225	59.769828	-87.240228	127.161430
04558	NaN	10.267584	0.476397	-0.247505	-0.123065	0.319103	0.444021	53.506784	-87.352147	133.360456
04559	NaN	10.527737	0.475113	-0.255343	0.007011	0.261324	0.461534	47.244898	-87.460845	139.632444
04560	NaN	10.931736	0.067771	-0.888561	-0.151566	0.452006	0.561396	37.814079	-87.487432	148.985099
04561	NaN	11.673739	0.758515	-0.264788	-0.131215	0.451544	0.721361	26.609189	-87.489279	160.125120
04562	NaN	13.250654	-2.828897	-1.165883	-0.368038	0.776048	0.831563	13.366719	-87.232744	173.170071
04563	NaN	9.136316	-8.489117	-4.138539	0.169891	0.922428	0.867673	2.632737	-86.776982	-175.984288
04564	NaN	12.081053	-12.087980	-6.578981	1.596715	0.194965	0.855231	-4.959696	-86.655455	-167.463377
04565	NaN	13.382041	-12.248140	-9.181702	2.762321	1.114989	0.558551	-7.270071	-85.986238	-163.562645
04566	NaN	19.977650	-10.826304	-9.416244	3.987096	1.535655	-0.137022	-2.980556	-85.117682	-165.573925
04567	NaN	17.665640	-7.667412	-7.212886	4.091502	3.895712	-0.597609	2.678512	-82.886184	-168.906361
04568	NaN	14.676869	-10.693734	-8.328415	4.433708	3.853904	-0.854502	7.259526	-80.645306	-170.967725
04569	NaN	11.679745	-9.026147	-9.677128	4.550856	4.389327	-1.125581	11.117533	-78.060221	-172.239741
04570	NaN	5.295992	-9.804834	-8.710254	3.963560	4.118243	-0.879416	13.349196	-75.649923	-172.199156
04571	NaN	-0.159635	-11.646887	-9.261360	3.653837	2.187962	-0.504935	15.329929	-74.364245	-172.082672
04572	NaN	-0.075388	-10.082754	-8.431576	3.888711	0.144564	-0.168237	17.795034	-74.260368	-172.328951
04573	NaN	4.206143	-8.169603	-6.981510	3.760452	-1.259662	0.313781	20.185593	-75.001733	-172.573980
04574	NaN	10.266063	-5.813454	-5.200621	3.626133	-1.671313	0.768516	21.996853	-76.057173	-172.298731
04575	NaN	12.130035	-3.645943	-3.036493	3.182479	-1.397534	1.134693	22.574677	-77.045102	-171.018340
04576	NaN	13.787346	-1.946480	-1.827913	2.724921	-1.088040	1.293958	22.102808	-77.907584	-168.935349
04577	NaN	14.950889	-0.798638	-1.694737	2.183402	-0.437456	1.347264	20.353089	-78.421338	-165.869824
04578	NaN	12.753029	-0.109053	-1.494515	1.686360	0.028546	1.355769	17.652833	-78.662903	-162.128400
04579	NaN	10.149497	0.352223	-1.409112	1.324275	0.050878	1.340466	14.659387	-78.849169	-158.303147
04580	NaN	8.409606	1.047074	-1.160139	1.044841	-0.288745	1.359653	11.520557	-79.190664	-154.495531
04581	NaN	8.190442	2.124255	-0.905698	0.801226	-0.723999	1.427756	8.022167	-79.739096	-150.470639
04582	NaN	7.850408	3.138660	-0.020451	0.509569	-0.960330	1.497090	3.743110	-80.378190	-145.829509
04583	NaN	8.222171	3.121043	0.524225	0.247003	-1.330483	1.516283	-1.365119	-81.159654	-140.511423
04584	NaN	9.098648	3.453266	1.031367	0.036929	-1.407552	1.456518	-7.378421	-81.903825	-134.410058
04585	NaN	9.586508	3.652948	1.600147	-0.113389	-1.514787	1.326945	-14.136213	-82.616240	-127.656297
04586	NaN	10.285749	3.688474	1.905589	-0.237096	-1.481426	1.149692	-21.454163	-83.225923	-120.418580
04587	NaN	9.804900	3.347733	2.159061	-0.284598	-1.368351	0.952871	-28.847975	-83.704911	-113.141067
04588	NaN	8.775278	3.089596	2.536633	-0.226288	-1.343795	0.786104	-36.473102	-84.111387	-105.602475
04589	NaN	8.670076	3.083147	2.981771	-0.120265	-1.480341	0.687546	-45.100019	-84.497629	-97.002541
04590	NaN	9.421644	3.321396	3.267999	-0.016177	-1.478750	0.591641	-54.396309	-84.786504	-87.674245
04591	NaN	9.854739	4.035731	3.868447	0.011874	-1.364461	0.476226	-63.434296	-84.957175	-78.593591
04592	NaN	10.347859	4.191606	4.088374	-0.034739	-1.218455	0.368530	-71.786236	-85.026115	-70.229039
04593	NaN	10.132610	4.195117	4.288159	-0.096307	-1.035527	0.271508	-78.899130	-85.025795	-63.145038
04594	NaN	9.895420	4.017577	4.243491	-0.130159	-0.923330	0.212275	-85.190099	-84.976006	-56.904332
04595	NaN	9.798172	3.955969	4.031130	-0.150781	-0.818499	0.194197	-90.611107	-84.881841	-51.549109
04596	NaN	9.579827	3.958508	3.743764	-0.174736	-0.692682	0.224030	-95.025800	-84.731392	-47.216242
04597	NaN	9.761359	3.851894	3.386251	-0.238445	-0.575429	0.327084	-98.411289	-84.506491	-43.953330
04598	NaN	24.276462	7.456241	7.105531	0.415438	-0.235726	-0.371150	-99.958505	-84.692393	-42.159705
04599	NaN	4.783401	5.469774	3.109297	-1.643082	2.629338	-0.572127	-84.156290	-85.078114	-58.969606
04600	NaN	9.879851	1.800284	4.886270	0.738927	-0.367099	-0.351943	-86.037213	-85.295456	-56.656947
04601	NaN	18.168112	-2.453025	20.229573	1.454854	4.189489	-0.862640	-56.319998	-84.978907	-85.640638
04602	NaN	-7.247090	-0.435462	-1.794506	5.194475	0.883847	-1.320878	-43.128391	-85.229044	-95.893325
04603	NaN	7.798475	15.707207	-5.190706	4.715569	-3.307614	-0.226862	-60.008051	-86.527932	-76.263369
04604	NaN	12.803132	15.990571	-4.079128	2.512799	1.598528	-1.695952	-36.153624	-86.640826	-98.716949
04605	NaN	8.962781	10.263766	4.154426	1.978696	-0.200193	-1.399177	-23.230289	-87.140567	-110.524026
04606	NaN	9.728120	6.972814	3.101680	2.728812	0.041360	-1.375847	-5.737159	-87.317120	-126.472179
04607	NaN	12.515884	7.387949	4.076454	2.645938	-0.777767	-1.143280	11.481522	-87.733722	-142.189518
04608	NaN	14.201769	10.985772	2.652966	1.787690	-0.024957	-1.360701	30.097052	-87.467757	-159.796198
04609	NaN	9.067686	9.171019	4.339753	0.234409	0.443440	-1.378337	40.226691	-86.803131	-169.804125
04610	NaN	7.801574	3.715639	4.208925	-0.426494	-0.303955	-0.765030	47.602987	-86.623966	-177.437763
04611	NaN	8.645930	-2.106179	1.108252	0.192884	-1.363240	-0.496933	61.811290	-86.844838	168.441455
04612	NaN	14.040722	3.204851	-3.927885	0.773707	-1.880022	-0.009067	82.006353	-87.178752	148.662861
04613	NaN	11.040931	0.292775	-0.381995	-0.277841	0.507435	-0.153649	76.522914	-87.038101	153.993560
04614	NaN	7.831527	0.217189	1.353751	0.103892	-0.445762	-0.099303	81.641680	-87.029910	148.927034
04615	NaN	11.093516	0.711161	-1.144026	0.311950	-0.712445	-0.048691	89.724757	-87.032926	141.011781
04616	NaN	10.376599	0.611491	-0.594535	-0.039570	0.051543	-0.097696	89.155086	-86.975896	141.559012
04617	NaN	9.316971	0.356134	0.374271	0.064983	-0.076601	-0.105664	90.031157	-86.915738	140.718658
04618	NaN	9.723101	0.609970	0.011698	0.108698	-0.183579	-0.102622	92.013071	-86.854290	138.795670
04619	NaN	9.871058	0.533845	-0.159051	0.086490	-0.124748	-0.111081	93.302907	-86.787441	137.553155
04620	NaN	9.785050	0.487506	0.026201	0.058420	-0.103773	-0.141850	94.290269	-86.701613	136.597211
04621	NaN	9.891269	0.708615	-0.244185	0.081796	-0.135441	-0.147150	95.544362	-86.610983	135.387602
04622	NaN	9.986656	0.869328	-0.232162	0.042830	-0.054408	-0.121246	95.975405	-86.537930	134.979859
04623	NaN	9.920449	0.793940	-0.291951	0.019088	-0.003759	-0.098802	95.932423	-86.481422	135.033555
04624	NaN	10.019205	0.702091	-0.208330	-0.001540	0.038656	-0.087550	95.499735	-86.432894	135.465680
04625	NaN	9.783102	0.775509	-0.126438	-0.020586	0.082028	-0.070884	94.690251	-86.396640	136.264610
04626	NaN	9.816879	0.664730	-0.021638	-0.016183	0.063267	-0.061335	94.072363	-86.363548	136.873938
04627	NaN	9.705935	0.694886	0.084025	-0.015933	0.069459	-0.049279	93.418526	-86.338011	137.519632
04628	NaN	9.664645	0.724297	0.096640	0.003088	0.022093	-0.035282	93.210399	-86.317744	137.729456
04629	NaN	9.797908	0.797210	-0.035810	0.001086	-0.004557	-0.016778	93.249871	-86.308041	137.690201
04630	NaN	9.836435	0.736967	-0.091599	-0.000694	0.011667	0.003971	93.153123	-86.309862	137.786244
04631	NaN	9.843380	0.683765	-0.039333	-0.006795	0.017284	0.014461	93.009436	-86.318710	137.926005
04632	NaN	9.810849	0.674027	-0.029606	-0.000619	0.023585	0.016865	92.811941	-86.328220	138.123046
04633	NaN	9.785184	0.683490	-0.046874	-0.005525	0.026618	0.027364	92.589231	-86.344645	138.342716
04634	NaN	9.789783	0.593268	-0.041700	-0.004198	0.021398	0.020737	92.408314	-86.356224	138.521086
04635	NaN	9.959560	0.422678	-0.120341	-0.039295	0.020209	-0.016088	92.205392	-86.347528	138.701537
04636	NaN	9.820822	0.657925	-0.068917	-0.054247	0.081115	-0.051465	91.440417	-86.318721	139.436436
04637	NaN	9.616972	0.663818	0.083481	-0.055849	0.053412	-0.050988	90.932103	-86.290204	139.913420
04638	NaN	9.719861	0.694441	0.088001	-0.046918	0.012581	-0.052078	90.793275	-86.259670	140.025103
04639	NaN	9.732487	0.650399	0.013726	-0.028398	0.016476	-0.051945	90.634177	-86.230089	140.167914
04640	NaN	9.826297	0.626597	-0.004245	-0.066119	0.012671	-0.065840	90.486658	-86.191631	140.277290
04641	NaN	9.447470	0.731773	0.127035	-0.021109	0.008311	-0.062411	90.405711	-86.155974	140.345972
04642	NaN	9.949075	0.868430	-0.242880	-0.005621	-0.069144	-0.039854	90.991421	-86.131849	139.755203
04643	NaN	9.616409	0.640625	0.116165	-0.034940	0.076422	-0.037354	90.328380	-86.111014	140.399377
04644	NaN	9.734531	0.728366	0.011195	0.003975	-0.082146	-0.022193	91.024846	-86.096930	139.703080
04645	NaN	9.709015	0.830969	0.009169	-0.001861	0.008377	-0.022745	90.956630	-86.084042	139.770063
04646	NaN	9.851852	0.799909	-0.199140	0.036134	-0.058102	0.004779	91.469653	-86.085251	139.276089
04647	NaN	9.940219	0.694175	-0.013594	-0.035017	0.071833	0.005672	90.855283	-86.089393	139.871461
04648	NaN	9.523886	0.782181	0.103047	0.024915	-0.019648	0.014152	91.041673	-86.096488	139.698447
04649	NaN	9.948709	0.730326	-0.090039	0.015646	0.011415	0.021439	90.964196	-86.108943	139.784764
04650	NaN	9.643650	0.720480	0.003680	0.014277	0.001131	0.033361	90.972948	-86.127234	139.783692
04651	NaN	9.832930	0.746762	-0.015043	0.035159	-0.007458	0.044006	91.069527	-86.152426	139.706761
04652	NaN	9.717942	0.695432	-0.012740	0.031240	0.007344	0.048175	91.037638	-86.179266	139.756161
04653	NaN	9.759985	0.753987	0.000262	0.042745	-0.004413	0.056588	91.115866	-86.211694	139.701983
04654	NaN	9.766555	0.679468	-0.048595	0.046015	0.004834	0.056910	91.115360	-86.243509	139.728412
04655	NaN	9.760087	0.654048	-0.020619	0.047081	0.013520	0.056363	91.039826	-86.276000	139.830817
04656	NaN	9.757430	0.682898	0.003752	0.057392	-0.003817	0.059568	91.122039	-86.309243	139.780886
04657	NaN	9.853515	0.666472	-0.068406	0.056940	-0.014210	0.052273	91.298012	-86.339072	139.636918
04658	NaN	9.863746	0.646489	-0.120622	0.032737	0.008345	0.053628	91.258249	-86.369055	139.695060
04659	NaN	9.835097	0.615764	-0.037233	0.028557	0.010122	0.043833	91.198347	-86.394345	139.771153
04660	NaN	9.861380	0.672126	-0.094539	0.012500	0.016555	0.038408	91.067433	-86.415694	139.909009
04661	NaN	9.839565	0.662171	-0.037328	-0.002262	0.024159	0.040673	90.857725	-86.439286	140.117503
04662	NaN	9.887701	0.652588	-0.070479	-0.014118	0.020654	0.039834	90.669969	-86.461425	140.297025
04663	NaN	9.795193	0.625271	-0.020790	-0.033689	0.038617	0.042060	90.302040	-86.485773	140.645989
04664	NaN	9.797798	0.656686	0.030049	-0.029576	0.014969	0.042862	90.152987	-86.509528	140.777856
04665	NaN	9.847672	0.665529	-0.055101	-0.033636	0.010556	0.044640	90.042089	-86.535182	140.869328
04666	NaN	9.949024	0.650641	-0.099795	-0.057697	0.028741	0.048458	89.741739	-86.562077	141.136618
04667	NaN	9.879282	0.645458	-0.005129	-0.073049	0.045407	0.048081	89.268415	-86.589471	141.568537
04668	NaN	10.058402	0.580144	-0.237709	-0.093530	0.035936	0.059708	88.865279	-86.622508	141.918214
04669	NaN	10.022251	0.654563	-0.223242	-0.129660	0.140431	0.053749	87.412963	-86.650759	143.298295
04670	NaN	9.734714	0.541068	0.009695	-0.149271	0.162694	0.051353	85.709643	-86.673728	144.918364
04671	NaN	9.881252	0.555131	-0.031819	-0.151792	0.144748	0.039015	84.171415	-86.688789	146.371736
04672	NaN	9.845694	0.578808	0.018143	-0.182031	0.205076	0.015664	82.042893	-86.682818	148.398885
04673	NaN	9.807639	0.585034	0.122479	-0.207777	0.210366	-0.001026	79.884839	-86.663441	150.441009
04674	NaN	10.259466	0.167315	-0.087234	-0.216011	0.222611	-0.029914	77.694985	-86.621090	152.510187
04675	NaN	10.301859	0.419032	-0.172441	-0.221219	0.356355	-0.121712	74.552908	-86.504557	155.530622
04676	NaN	10.301271	0.631069	-0.159765	-0.276223	0.447983	-0.180609	70.979251	-86.328953	158.952252
04677	NaN	10.538758	0.539477	-0.324349	-0.314642	0.564207	-0.239519	66.994519	-86.085019	162.764721
04678	NaN	11.116407	0.860872	-0.450133	-0.374236	0.631894	-0.307710	63.218855	-85.772013	166.334535
04679	NaN	14.226489	0.687885	-1.850967	-0.312415	0.491116	-0.240270	60.634623	-85.518341	168.746398
04680	NaN	14.670489	-2.797848	-2.652299	-0.616666	1.171791	-0.299179	54.554659	-85.012819	174.492197
04681	NaN	13.110936	-2.818536	-2.141244	-0.367693	1.387173	-0.458920	49.377280	-84.315695	179.480072
04682	NaN	11.470528	-3.481952	-1.975307	-0.574650	1.632822	-0.440905	44.285089	-83.490844	-175.730263
04683	NaN	9.965309	-3.696604	-1.828491	-0.542144	1.568194	-0.443393	40.531675	-82.656095	-172.262603
04684	NaN	8.728633	-4.149219	-1.968399	-0.585863	1.499266	-0.382241	37.477882	-81.851129	-169.519615
04685	NaN	6.983010	-4.321988	-1.917512	-0.568705	1.127256	-0.213501	35.237702	-81.258795	-167.584654
04686	NaN	6.326946	-4.682529	-2.561916	-0.429101	0.443509	0.038175	33.951678	-81.063083	-166.531962
04687	NaN	6.730312	-3.894068	-2.392648	-0.324630	-0.043119	0.218007	33.188703	-81.153156	-165.948295
04688	NaN	8.686241	-3.472442	-2.347335	-0.257992	-0.322798	0.361701	32.562446	-81.422446	-165.464138
04689	NaN	9.664110	-2.821329	-1.973486	-0.277040	-0.315586	0.454731	31.562599	-81.714420	-164.614162
04690	NaN	9.987163	-2.372353	-1.735016	-0.325425	-0.255873	0.464556	30.309937	-81.978839	-163.536833
04691	NaN	9.753432	-2.081531	-1.636362	-0.393897	-0.234124	0.405100	29.112109	-82.210822	-162.555694
04692	NaN	9.664386	-1.750070	-1.477618	-0.427342	-0.307741	0.331108	28.259854	-82.458685	-161.942488
04693	NaN	9.613188	-1.350238	-1.347797	-0.474496	-0.360997	0.310629	27.523197	-82.725188	-161.474112
04694	NaN	9.642516	-0.827039	-1.195892	-0.537096	-0.377957	0.353122	26.561618	-83.012408	-160.814771
04695	NaN	9.336046	-0.160796	-0.843541	-0.616224	-0.355879	0.418675	25.151607	-83.300968	-159.750576
04696	NaN	8.970171	0.454602	-0.377044	-0.726607	-0.384602	0.478374	23.343725	-83.616988	-158.349441
04697	NaN	9.016656	0.701613	-0.149776	-0.832897	-0.446521	0.500809	21.321291	-83.963147	-156.795436
04698	NaN	8.961410	1.210661	0.185697	-0.900929	-0.501518	0.479431	19.261531	-84.330536	-155.243311
04699	NaN	9.176205	1.611968	0.409413	-0.961772	-0.540919	0.429951	17.286539	-84.702555	-153.813162
04700	NaN	9.197565	1.878097	0.651189	-0.995796	-0.554053	0.341998	15.618116	-85.065095	-152.710418
04701	NaN	9.190580	2.024221	0.838007	-1.011405	-0.587398	0.238336	14.504997	-85.426033	-152.175278
04702	NaN	9.449835	2.153716	0.957050	-0.999895	-0.640697	0.137021	14.120978	-85.803673	-152.364231
04703	NaN	9.851845	2.317411	0.978550	-0.981913	-0.660587	0.037226	14.603228	-86.176097	-153.411960
04704	NaN	10.248386	2.492519	0.975345	-0.975206	-0.617676	-0.046514	15.904950	-86.513034	-155.275750
04705	NaN	10.207439	2.633051	0.995509	-0.996392	-0.524296	-0.111343	17.866938	-86.782473	-157.813286
04706	NaN	9.918883	2.507851	0.851683	-1.028957	-0.455468	-0.136267	20.214293	-87.006129	-160.754045
04707	NaN	9.505732	2.370016	0.833013	-1.061282	-0.442077	-0.141316	22.944416	-87.212424	-164.096807
04708	NaN	9.190590	2.394866	0.900903	-1.095665	-0.514994	-0.133050	26.467085	-87.450981	-168.251294
04709	NaN	9.181842	2.365515	0.999714	-1.148287	-0.585060	-0.126903	31.145587	-87.710391	-173.592781
04710	NaN	9.154806	2.395666	1.187708	-1.207633	-0.621700	-0.121896	37.334341	-87.967909	179.522097
04711	NaN	9.009321	2.288851	1.422678	-1.269589	-0.648743	-0.102996	45.304150	-88.209191	170.819737
04712	NaN	8.844404	2.094091	1.718691	-1.314748	-0.690356	-0.065575	55.874216	-88.433596	159.491947
04713	NaN	8.829625	1.883656	2.002176	-1.332104	-0.721019	-0.027462	69.680357	-88.610277	144.917461
04714	NaN	9.289419	1.693948	2.437400	-1.327248	-0.737489	0.018997	86.658609	-88.708757	127.174293
04715	NaN	13.555918	1.783338	3.979177	-1.229612	-0.755631	0.033979	105.072285	-88.683549	108.050916
04716	NaN	18.979216	3.825486	6.321925	-1.258848	0.381100	-0.128410	94.635603	-88.647445	117.769159
04717	NaN	9.991217	1.881512	6.065033	-1.872116	2.246300	-0.289618	51.324611	-88.073705	160.022427
04718	NaN	8.201773	-1.084237	8.178020	-1.341837	1.145027	-0.269180	41.077686	-87.506720	169.507468
04719	NaN	5.583345	-1.231590	3.778149	-0.611585	0.582071	-0.698152	42.330231	-86.991945	167.902353
04720	NaN	9.543325	-1.158035	7.460254	-0.039015	-0.207408	-0.723363	49.208128	-86.777588	160.991790
04721	NaN	13.981467	0.842017	5.196727	0.297479	0.587975	-0.586225	48.820630	-86.303431	161.550424
04722	NaN	7.207101	-1.560954	7.109455	0.235803	1.069437	-0.525921	45.484708	-85.665340	165.029615
04723	NaN	7.333357	2.091203	6.027317	0.866874	0.066159	-0.295036	47.143644	-85.517273	163.863590
04724	NaN	3.087734	4.059107	4.342889	0.521980	-0.400102	-0.155778	50.424874	-85.600710	160.871932
04725	NaN	10.303203	4.889741	0.663512	0.379530	-1.726630	0.024555	61.978849	-86.165792	149.506097
04726	NaN	10.906751	-0.879191	-0.188805	-0.143379	-0.656157	-0.047804	67.238895	-86.301475	144.151747
04727	NaN	11.285874	0.174189	-0.428694	0.422296	-1.337753	0.105744	79.022293	-86.583509	132.587891
04728	NaN	11.087646	0.962219	-0.903363	0.316140	-0.587312	0.102182	84.730768	-86.688280	127.050419
04729	NaN	9.817340	0.937321	-0.315814	0.146316	-0.523846	0.139843	90.015889	-86.782260	121.840367
04730	NaN	10.802615	0.742102	-0.376729	0.107216	-0.395292	0.115498	94.180637	-86.839271	117.730097
04731	NaN	9.899133	0.131769	-0.462728	-0.071356	-0.181695	0.076255	96.107105	-86.873482	115.759458
04732	NaN	10.434340	0.435606	-0.867655	0.091028	-0.204107	0.046466	98.344596	-86.884348	113.570296
04733	NaN	10.203200	0.418436	-0.633161	-0.039327	0.108993	0.052637	97.262251	-86.922712	114.631335
04734	NaN	9.984516	0.388383	-0.336483	0.011054	0.124174	0.041669	95.996097	-86.953807	115.905085
04735	NaN	9.843715	0.434670	-0.084582	-0.012696	0.224914	0.029579	93.599672	-86.981508	118.297261
04736	NaN	9.647576	0.440101	0.091136	0.009456	0.161920	0.022406	91.853036	-86.997914	120.051190
04737	NaN	9.541039	0.507983	0.258029	0.007199	0.142278	0.010362	90.311602	-87.005449	121.598545
04738	NaN	9.536334	0.547774	0.201017	0.033178	0.029768	0.020818	90.003618	-87.016595	121.925436
04739	NaN	9.716492	0.566329	0.111450	0.042713	0.004011	0.025493	89.992339	-87.031268	121.960914
04740	NaN	9.733374	0.534678	0.045169	0.042632	-0.021649	0.031705	90.256234	-87.048577	121.720573
04741	NaN	9.733554	0.531603	0.042756	0.040494	-0.023374	0.031854	90.551064	-87.066796	121.448264
04742	NaN	9.815735	0.519421	-0.035830	0.034313	-0.035075	0.029252	90.966909	-87.082459	121.051009
04743	NaN	9.823634	0.484801	-0.050113	0.028039	-0.021083	0.030679	91.236006	-87.099859	120.797328
04744	NaN	9.885537	0.483327	-0.118815	0.019657	-0.005327	0.031499	91.314175	-87.117007	120.729787
04745	NaN	9.885679	0.480642	-0.117867	0.004932	0.025701	0.022534	91.038053	-87.130275	121.008764
04746	NaN	9.799080	0.435437	-0.053291	0.001968	0.044873	0.020605	90.527427	-87.141607	121.520614
04747	NaN	9.770044	0.442066	0.013286	-0.000534	0.047483	0.013346	89.991041	-87.149441	122.057037
04748	NaN	9.767990	0.465819	0.051574	0.005561	0.038263	0.010220	89.552320	-87.154391	122.498950
04749	NaN	9.749038	0.509985	0.020781	0.013741	0.032517	0.011698	89.192342	-87.160961	122.866931
04750	NaN	9.781812	0.518218	0.018658	0.019166	0.031179	0.020918	88.837716	-87.171821	123.232445
04751	NaN	9.747935	0.472217	0.069215	0.016026	0.031202	0.018009	88.488500	-87.181797	123.590956
04752	NaN	9.729916	0.456432	0.045316	0.022710	0.011116	0.019258	88.365369	-87.191838	123.726724
04753	NaN	9.789825	0.480732	0.013325	0.020259	0.012461	0.023201	88.232046	-87.204993	123.871506
04754	NaN	9.768403	0.455347	0.065030	0.014437	0.009904	0.019286	88.116375	-87.215046	123.995057
04755	NaN	9.795604	0.470109	0.037597	0.021042	0.001552	0.017320	88.112444	-87.225016	124.010740
04756	NaN	9.797803	0.443379	0.003896	0.014153	0.007730	0.019089	88.021116	-87.234990	124.109756
04757	NaN	9.744953	0.442909	0.017888	0.010484	0.006889	0.015027	87.948143	-87.243538	124.188504
04758	NaN	9.750591	0.435010	0.040636	0.012834	-0.006650	0.008608	88.030793	-87.247799	124.112585
04759	NaN	9.770820	0.423600	0.031519	0.011327	-0.011013	0.000408	88.177459	-87.248323	123.971925
04760	NaN	9.750619	0.434584	0.038441	0.014774	-0.014105	-0.000475	88.353803	-87.247499	123.803316
04761	NaN	9.766536	0.465055	-0.036954	0.014556	-0.023274	-0.009410	88.651229	-87.242535	123.513573
04762	NaN	9.792289	0.448244	-0.024427	0.017295	-0.017218	-0.009165	88.867637	-87.236707	123.306301
04763	NaN	9.844375	0.507029	-0.047756	0.016532	-0.011546	-0.007279	89.024745	-87.232733	123.158169
04764	NaN	9.824933	0.459360	-0.031707	0.010740	-0.000149	-0.003971	89.033083	-87.229670	123.155451
04765	NaN	9.777602	0.454306	0.004954	0.007167	0.011199	-0.005560	88.914947	-87.226445	123.277513
04766	NaN	9.797777	0.443967	-0.002468	0.007934	0.005525	-0.007444	88.855657	-87.221334	123.340896
04767	NaN	9.771928	0.462541	-0.016463	0.006942	0.007264	-0.010503	88.785592	-87.215308	123.414702
04768	NaN	9.757252	0.468265	0.015063	0.005202	0.004199	-0.019654	88.744040	-87.203217	123.458760
04769	NaN	9.777378	0.459057	0.007266	0.006485	0.004632	-0.016399	88.706785	-87.193840	123.499456
04770	NaN	9.789782	0.481693	0.010302	0.007554	-0.004109	-0.022076	88.764559	-87.180470	123.445419
04771	NaN	9.762582	0.467238	0.038122	0.004918	0.002023	-0.019849	88.757778	-87.169151	123.454707
04772	NaN	9.756877	0.475999	0.015419	0.003874	0.000284	-0.022148	88.762129	-87.155688	123.452047
04773	NaN	9.763643	0.505613	-0.004707	0.003247	-0.007539	-0.021778	88.864733	-87.143378	123.350857
04774	NaN	9.758803	0.455308	-0.019855	0.000570	-0.010124	-0.022779	88.985762	-87.129666	123.229478
04775	NaN	9.769032	0.503262	0.015790	0.010338	-0.018500	-0.021828	89.215264	-87.117401	123.005294
04776	NaN	9.768931	0.505264	0.014002	0.001229	-0.017513	-0.019155	89.417231	-87.105780	122.803252
04777	NaN	9.756374	0.486368	0.008927	0.004634	-0.024080	-0.019277	89.702624	-87.094911	122.519829
04778	NaN	9.783325	0.504909	-0.021429	0.005750	-0.024107	-0.021724	89.977857	-87.081738	122.247017
04779	NaN	9.776393	0.479617	-0.004272	0.002792	-0.028869	-0.022918	90.311166	-87.068630	121.914552
04780	NaN	9.783075	0.509489	-0.026715	0.003958	-0.025420	-0.026125	90.594364	-87.052786	121.632729
04781	NaN	9.790710	0.480432	-0.040334	0.003490	-0.022816	-0.028034	90.854172	-87.036620	121.374254
04782	NaN	9.788439	0.508275	-0.008323	0.003304	-0.018039	-0.029748	91.049173	-87.018649	121.180365
04783	NaN	9.802847	0.506945	-0.040914	0.003876	-0.013693	-0.029359	91.203691	-87.001733	121.027538
04784	NaN	9.801611	0.475694	0.000646	0.006363	-0.006327	-0.030076	91.268771	-86.983673	120.965500
04785	NaN	9.787984	0.516920	-0.011351	0.003429	-0.002369	-0.028043	91.297961	-86.967635	120.937913
04786	NaN	9.803458	0.549554	-0.085299	0.009803	-0.004171	-0.026974	91.341396	-86.951379	120.899523
04787	NaN	9.822510	0.507030	-0.050453	0.000318	0.015087	-0.024501	91.182145	-86.937590	121.058860
04788	NaN	9.767349	0.535169	-0.001299	0.000530	0.019029	-0.019562	90.974862	-86.925843	121.266228
04789	NaN	9.747003	0.547833	0.008340	0.006814	0.010277	-0.016971	90.874584	-86.916274	121.370239
04790	NaN	9.781741	0.534302	-0.030142	0.005138	0.005953	-0.014910	90.811770	-86.907037	121.435577
04791	NaN	9.767085	0.539957	0.001532	0.005421	0.008127	-0.014716	90.734858	-86.898728	121.515390
04792	NaN	9.778365	0.527854	0.047571	0.002349	0.001655	-0.010402	90.717186	-86.892038	121.533922
04793	NaN	9.787215	0.531358	-0.006179	0.012226	0.000250	-0.010975	90.728194	-86.885812	121.529590
04794	NaN	9.801738	0.528242	-0.037072	0.002112	0.002956	-0.011357	90.696680	-86.878586	121.561849
04795	NaN	9.787100	0.533475	-0.005832	0.004741	0.002071	-0.009598	90.684504	-86.873162	121.576441
04796	NaN	9.774663	0.513606	-0.008681	0.006613	0.001615	-0.009942	90.670053	-86.866741	121.594197
04797	NaN	9.795906	0.537840	-0.059258	0.006895	0.003789	-0.009748	90.641237	-86.861241	121.626689
04798	NaN	9.792621	0.529639	0.017716	0.007414	0.004662	-0.008600	90.595858	-86.855610	121.675881
04799	NaN	9.801502	0.532713	-0.035570	0.003074	0.006470	-0.004315	90.537716	-86.853236	121.735551
04800	NaN	9.748568	0.534156	-0.021045	0.005076	0.016443	-0.006944	90.368901	-86.848603	121.907026
04801	NaN	9.786857	0.537939	-0.002414	0.005703	0.005586	-0.002555	90.321865	-86.847221	121.957083
04802	NaN	9.774456	0.517590	-0.004981	0.005782	0.003814	-0.007300	90.285290	-86.842324	121.996525
04803	NaN	9.786787	0.539210	-0.001302	0.005870	0.010765	-0.008824	90.184516	-86.837358	122.100498
04804	NaN	9.801342	0.535902	-0.031479	0.001046	0.006453	-0.009671	90.118224	-86.831105	122.166986
04805	NaN	9.760759	0.558358	-0.014273	-0.001143	0.009982	-0.005538	90.022173	-86.828004	122.262206
04806	NaN	9.759693	0.524697	0.029298	-0.004650	0.009590	-0.003896	89.920757	-86.825050	122.360606
04807	NaN	9.760718	0.559123	-0.012496	-0.002303	0.006532	-0.002329	89.859928	-86.823775	122.419884
04808	NaN	9.786647	0.541750	0.002736	-0.001547	0.006104	-0.000225	89.796411	-86.822920	122.482107
04809	NaN	9.766382	0.552414	0.011820	-0.003456	0.011806	0.004101	89.680232	-86.825306	122.596159
04810	NaN	9.772071	0.545127	0.035802	-0.005690	0.011858	0.008995	89.554225	-86.829702	122.718594
04811	NaN	9.804747	0.554463	0.031801	-0.003454	0.011805	0.004101	89.437628	-86.832062	122.833064
04812	NaN	9.772138	0.543768	0.038009	-0.003343	0.008800	0.010562	89.343868	-86.837350	122.924548
04813	NaN	9.772191	0.542770	0.038649	-0.002033	0.003997	0.009832	89.307951	-86.843027	122.959029
04814	NaN	9.789128	0.512586	-0.025929	-0.006295	0.004034	0.009369	89.261690	-86.847659	123.001248
04815	NaN	9.786925	0.536649	0.008544	-0.005776	0.004906	0.010518	89.213794	-86.853719	123.045579
04816	NaN	9.774590	0.515038	0.005700	-0.000126	-0.001704	0.005506	89.231281	-86.856184	123.027494
04817	NaN	9.772379	0.539326	0.039456	-0.006903	-0.003789	0.009743	89.273533	-86.861866	122.980894
04818	NaN	9.789289	0.509499	-0.025809	-0.001399	-0.002148	0.002253	89.295447	-86.862474	122.957646
04819	NaN	9.781418	0.540819	-0.014893	-0.000408	-0.003879	0.005312	89.343107	-86.865615	122.909358
04820	NaN	9.774708	0.512817	0.004514	-0.000407	-0.003879	0.005312	89.383470	-86.867988	122.868205
04821	NaN	9.814124	0.549789	-0.020680	0.001510	-0.000859	0.004208	89.400873	-86.870475	122.851320
04822	NaN	9.769113	0.518547	-0.018347	-0.001668	0.004399	0.005282	89.353871	-86.872783	122.896940
04823	NaN	9.799549	0.553105	0.010830	0.001556	0.002616	0.003447	89.334924	-86.874811	122.916485
04824	NaN	9.807458	0.520922	-0.000070	-0.003303	0.003553	0.006580	89.295639	-86.877869	122.953440
04825	NaN	9.789463	0.506164	-0.025459	-0.003539	0.004854	0.005625	89.249884	-86.881128	122.996909
04826	NaN	9.761342	0.548238	-0.005756	0.001793	0.001315	0.004402	89.237284	-86.882957	123.010065
04827	NaN	9.787274	0.530242	0.008845	-0.004387	-0.001667	0.005043	89.259664	-86.885931	122.984812
04828	NaN	9.777145	0.483963	-0.028287	-0.002752	-0.000820	0.003745	89.267068	-86.887402	122.975328
04829	NaN	9.787322	0.529358	0.008627	-0.000125	-0.001706	0.005506	89.292307	-86.890640	122.949657
04830	NaN	9.774945	0.508264	0.005445	-0.002154	-0.001718	0.000149	89.310069	-86.890063	122.930145
04831	NaN	9.787335	0.529104	0.008478	-0.002108	0.001757	-0.000612	89.298475	-86.889772	122.940223
04832	NaN	9.794087	0.556613	-0.011062	-0.005850	0.002668	0.000074	89.267916	-86.889125	122.966984
04833	NaN	9.814364	0.545560	-0.018651	-0.001856	0.009175	0.003567	89.177653	-86.891169	123.055991
04834	NaN	9.774962	0.507905	0.007195	-0.000739	0.009149	0.001120	89.081572	-86.891063	123.151305
04835	NaN	9.767106	0.539241	0.019236	-0.005126	0.007482	0.006162	89.006650	-86.894595	123.223072
04836	NaN	9.775013	0.506904	0.008571	0.000960	0.003512	0.007044	88.969863	-86.897930	123.259981
04837	NaN	9.787447	0.526973	0.011978	0.001479	0.004384	0.008193	88.930829	-86.902651	123.299597
04838	NaN	9.749195	0.522989	-0.005419	0.002548	0.000883	0.006507	88.922776	-86.905710	123.308641
04839	NaN	9.795391	0.493828	0.001143	0.005458	0.002171	0.008462	88.909288	-86.910608	123.324958
04840	NaN	9.787554	0.524966	0.012436	0.003145	-0.000014	0.002911	88.911844	-86.911621	123.323721
04841	NaN	9.802212	0.520365	-0.018365	0.000206	0.003942	0.004939	88.877190	-86.914481	123.358220
04842	NaN	9.775194	0.503381	0.010107	-0.000265	0.006546	0.003030	88.808075	-86.915490	123.426804
04843	NaN	9.787617	0.523753	0.013766	0.002881	0.006531	0.005940	88.747037	-86.918888	123.489260
04844	NaN	9.775245	0.502353	0.011469	0.003165	0.008704	0.006135	88.656024	-86.921643	123.581742
04845	NaN	9.767414	0.533461	0.023402	0.002881	0.006531	0.005941	88.594697	-86.925032	123.644487
04846	NaN	9.793330	0.515222	0.038632	0.003637	0.006100	0.008045	88.530921	-86.928910	123.709964
04847	NaN	9.787750	0.521195	0.016534	0.003167	0.008703	0.006135	88.446195	-86.932370	123.796306
04848	NaN	9.787787	0.520468	0.017295	-0.000105	0.007012	0.008730	88.369972	-86.936620	123.872101
04849	NaN	9.761960	0.537136	0.003359	0.002286	0.007427	0.009537	88.296931	-86.942036	123.946235
04850	NaN	9.808155	0.507537	0.010497	0.003797	0.006566	0.013746	88.225658	-86.949159	124.019312
04851	NaN	9.755277	0.507387	0.024392	0.000132	0.005710	0.009685	88.169251	-86.954682	124.075552
04852	NaN	9.775585	0.495556	0.016756	0.002003	0.005253	0.009343	88.112104	-86.959305	124.133454
04853	NaN	9.770020	0.501465	-0.005790	0.004420	0.000425	0.006166	88.116096	-86.962908	124.131669
04854	NaN	9.790307	0.490033	-0.013779	0.002080	0.003485	0.004598	88.079644	-86.964849	124.168894
04855	NaN	9.770063	0.500639	-0.005199	0.001091	0.005217	0.001538	88.031597	-86.965709	124.217311
04856	NaN	9.800517	0.535244	0.023996	0.004186	0.001726	0.005211	88.015115	-86.968039	124.235746
04857	NaN	9.808387	0.502960	0.013101	0.004992	0.004770	0.006555	87.972146	-86.971778	124.281317
04858	NaN	9.802832	0.508809	-0.008997	0.000706	0.010055	0.010073	87.861433	-86.976719	124.392120
04859	NaN	9.755535	0.502222	0.027840	0.002006	0.005253	0.009343	87.810032	-86.982037	124.444420
04860	NaN	9.793857	0.504497	0.045938	0.004111	0.003494	0.009957	87.772097	-86.987049	124.484298
04861	NaN	9.788316	0.510172	0.023474	0.002241	0.003951	0.010298	87.734268	-86.992939	124.523141
04862	NaN	9.782768	0.516027	0.001005	-0.001426	0.003097	0.006236	87.698860	-86.995831	124.557312
04863	NaN	9.768140	0.519540	0.032166	0.001434	0.000907	0.008955	87.694173	-87.001020	124.562505
04864	NaN	9.787181	0.473676	0.066647	0.000914	0.000036	0.007806	87.692802	-87.004883	124.563936
04865	NaN	9.762641	0.524545	0.009383	-0.002593	-0.000351	0.009444	87.699350	-87.010381	124.555567
04866	NaN	9.781672	0.478780	0.043479	0.005433	-0.006553	0.005244	87.773994	-87.012931	124.483473
04867	NaN	9.776108	0.484985	0.020288	0.001510	-0.000862	0.004210	87.790903	-87.015443	124.467084
04868	NaN	9.811042	0.469438	-0.018965	0.000989	-0.001733	0.003060	87.811147	-87.016638	124.446914
04869	NaN	9.788569	0.505325	0.023054	-0.000521	-0.000871	-0.001149	87.829273	-87.016081	124.428141
04870	NaN	9.788563	0.505419	0.023183	0.000053	0.003474	-0.000762	87.793461	-87.014979	124.463568
04871	NaN	9.755866	0.495714	0.028474	0.001116	-0.000027	-0.002446	87.803798	-87.013662	124.453534
04872	NaN	9.815654	0.522159	-0.004630	-0.001637	-0.000844	0.001297	87.813592	-87.013837	124.442325
04873	NaN	9.758089	0.470758	-0.005575	-0.000755	0.000431	-0.002105	87.817680	-87.012705	124.437475
04874	NaN	9.776100	0.485159	0.019835	0.001839	-0.009175	-0.003564	87.922876	-87.010278	124.332729
04875	NaN	9.788514	0.506412	0.022281	-0.000447	-0.002639	-0.005895	87.962218	-87.007038	124.292753
04876	NaN	9.788488	0.506932	0.022066	0.000074	-0.001768	-0.004745	87.985525	-87.003779	124.268997
04877	NaN	9.770440	0.493240	-0.004036	0.002179	-0.003528	-0.004131	88.035267	-87.001565	124.220114
04878	NaN	9.800871	0.528697	0.024585	-0.000681	-0.001338	-0.006850	88.054142	-86.997095	124.200363
04879	NaN	9.782812	0.515197	-0.001181	0.004155	0.002963	-0.005996	88.034750	-86.993684	124.221842
04880	NaN	9.763515	0.467536	0.015665	0.001712	-0.000925	-0.006042	88.050188	-86.989671	124.206906
04881	NaN	9.782752	0.516344	-0.001104	0.006261	0.001204	-0.005382	88.050966	-86.986647	124.209396
04882	NaN	9.808574	0.499292	0.013640	0.006261	0.001204	-0.005382	88.045632	-86.982975	124.217872
04883	NaN	9.770273	0.496526	-0.003702	0.007354	0.006420	-0.003846	87.989847	-86.980727	124.277631
04884	NaN	9.782688	0.517558	-0.000283	0.008058	0.002516	-0.000979	87.969769	-86.979554	124.301904
04885	NaN	9.770249	0.497006	-0.003011	0.007069	0.004247	-0.004039	87.937585	-86.977236	124.337866
04886	NaN	9.820932	0.521343	0.018248	0.006005	0.007748	-0.002355	87.860285	-86.975168	124.418264
04887	NaN	9.770224	0.497502	-0.001795	0.006239	0.006447	-0.001399	87.802850	-86.974309	124.479036
04888	NaN	9.795058	0.539354	0.005020	0.009801	0.010307	-0.003800	87.700880	-86.971349	124.586318
04889	NaN	9.790460	0.487101	-0.008076	0.004707	0.012550	-0.001627	87.576777	-86.970205	124.712972
04890	NaN	9.764607	0.504832	-0.021474	0.006866	0.014265	-0.001775	87.429818	-86.968285	124.863626
04891	NaN	9.788170	0.512720	0.028366	0.009050	0.010735	-0.005904	87.330195	-86.964710	124.968257
04892	NaN	9.767872	0.524193	0.037633	0.007465	0.013365	-0.005370	87.195680	-86.960727	125.106795
04893	NaN	9.782530	0.520474	0.007895	0.011210	0.012450	-0.006051	87.079461	-86.956996	125.229287
04894	NaN	9.770087	0.500164	0.006239	0.008275	0.016408	-0.004028	86.912644	-86.953659	125.400639
04895	NaN	9.789333	0.548679	-0.008802	0.009603	0.020322	-0.001536	86.708832	-86.952222	125.609926
04896	NaN	9.794912	0.541779	0.016201	0.009215	0.025165	0.006996	86.442001	-86.954826	125.881975
04897	NaN	9.767823	0.524365	0.046737	0.005163	0.029150	0.011463	86.131535	-86.960393	126.195518
04898	NaN	9.760999	0.495914	0.068759	0.009344	0.016916	0.009481	85.950560	-86.964611	126.381663
04899	NaN	9.775767	0.490644	0.039515	0.003730	0.018288	0.010499	85.755400	-86.969951	126.578913
04900	NaN	9.775809	0.489708	0.040782	0.008195	0.008227	0.008710	85.667201	-86.974048	126.671493
04901	NaN	9.770300	0.495652	0.018771	0.009083	0.009498	0.005309	85.573509	-86.976765	126.770204
04902	NaN	9.781395	0.481961	0.065075	0.007987	0.004283	0.003774	85.531670	-86.978210	126.816240
04903	NaN	9.790603	0.484130	0.011713	0.008355	0.004683	-0.000777	85.494650	-86.977657	126.857782
04904	NaN	9.820974	0.519259	0.040939	0.009707	0.003353	-0.002265	85.469024	-86.975697	126.888571
04905	NaN	9.777190	0.522946	0.001063	0.005844	0.012513	-0.004074	85.348888	-86.972898	127.011904
04906	NaN	9.785036	0.491430	-0.008651	-0.000604	0.016088	-0.000421	85.178475	-86.971386	127.181768
04907	NaN	9.767953	0.520856	0.057493	0.003316	0.010400	0.000624	85.075753	-86.971340	127.286213
04908	NaN	9.775808	0.489124	0.047433	0.004958	0.011241	-0.000671	84.961303	-86.969891	127.403228
04909	NaN	9.782699	0.516545	0.028650	0.003317	0.010399	0.000624	84.858642	-86.969824	127.507613
04910	NaN	9.788225	0.509750	0.052498	0.002197	0.010429	0.003069	84.747861	-86.970533	127.619370
04911	NaN	9.808517	0.498540	0.045309	0.003781	0.007799	0.002538	84.671554	-86.971676	127.697630
04912	NaN	9.788242	0.509280	0.054000	0.001099	0.005214	0.001534	84.617852	-86.971777	127.751600
04913	NaN	9.803024	0.504639	0.023536	0.000209	0.003944	0.004936	84.578543	-86.974487	127.790760
04914	NaN	9.775858	0.487662	0.052016	0.000788	0.008286	0.005321	84.487555	-86.976578	127.881891
04915	NaN	9.803067	0.503727	0.024859	-0.000253	0.006544	0.003022	84.421730	-86.978047	127.947340
04916	NaN	9.780452	0.539367	0.067785	0.001368	0.012629	0.005706	84.283558	-86.980103	128.086053
04917	NaN	9.772758	0.467816	-0.001917	0.000848	0.011757	0.004556	84.160139	-86.982132	128.209807
04918	NaN	9.775918	0.486011	0.055896	0.001680	0.009556	0.001920	84.059336	-86.982184	128.311281
04919	NaN	9.750142	0.503307	0.041870	0.004014	0.006497	0.003497	83.995587	-86.983901	128.377097
04920	NaN	9.797642	0.508658	0.006849	0.001220	0.012155	0.000005	83.868607	-86.982692	128.504521
04921	NaN	9.755657	0.496179	0.066557	0.003413	0.007398	0.007091	83.790426	-86.986389	128.584446
04922	NaN	9.782898	0.512044	0.039526	0.002953	0.009998	0.005176	83.681604	-86.988242	128.694681
04923	NaN	9.775984	0.484179	0.060188	0.000270	0.007414	0.004171	83.604621	-86.990261	128.771602
04924	NaN	9.781489	0.477185	0.083631	0.001852	0.004784	0.003642	83.553311	-86.991563	128.823616
04925	NaN	9.762659	0.521950	0.049547	0.000872	0.006513	0.000577	83.490716	-86.991586	128.886475
04926	NaN	9.776001	0.483627	0.061862	0.004097	0.004724	-0.001246	83.447365	-86.990108	128.931806
04927	NaN	9.788422	0.504465	0.065327	0.000581	0.004342	0.000385	83.408374	-86.990159	128.970862
04928	NaN	9.782926	0.511249	0.042796	0.004928	0.002523	-0.003882	83.392692	-86.987327	128.988963
04929	NaN	9.781465	0.477322	0.085558	0.000750	-0.000428	0.002107	83.403266	-86.988671	128.978482
04930	NaN	9.762634	0.522279	0.050843	-0.002914	-0.001284	-0.001963	83.421876	-86.987186	128.957747
04931	NaN	9.781462	0.477435	0.085291	0.001582	-0.002630	-0.000529	83.460024	-86.987173	128.920130
04932	NaN	9.782912	0.511560	0.042311	0.001061	-0.003501	-0.001679	83.504498	-86.985997	128.875775
04933	NaN	9.775971	0.484229	0.061880	-0.002163	-0.001712	0.000144	83.529741	-86.986306	128.848933
04934	NaN	9.782906	0.511709	0.041807	0.001061	-0.003501	-0.001679	83.574206	-86.985131	128.804588
04935	NaN	9.770474	0.491078	0.038428	0.001062	-0.003501	-0.001679	83.622839	-86.984514	128.756174
04936	NaN	9.782893	0.511986	0.041377	-0.002103	0.001758	-0.000621	83.607376	-86.983608	128.770026
04937	NaN	9.788379	0.505431	0.064372	0.004036	0.001254	-0.000481	83.604868	-86.983369	128.774530
04938	NaN	9.782889	0.512029	0.041808	-0.001291	0.004800	0.000722	83.555418	-86.983035	128.822882
04939	NaN	9.782892	0.511955	0.042060	0.002393	0.000413	0.000813	83.559480	-86.983587	128.819864
04940	NaN	9.782900	0.511794	0.042262	0.001332	0.003913	0.002492	83.518994	-86.984320	128.860747
04941	NaN	9.770488	0.490698	0.039649	0.001852	0.004784	0.003642	83.471995	-86.986199	128.908551
04942	NaN	9.775988	0.483744	0.062855	0.001562	0.002614	0.003449	83.444498	-86.987562	128.936560
04943	NaN	9.795387	0.531354	0.046202	0.003292	0.000457	0.008621	83.438862	-86.992556	128.943768
04944	NaN	9.770568	0.489037	0.040493	0.001022	0.006985	0.006278	83.360064	-86.995244	129.022840
04945	NaN	9.770608	0.488217	0.040718	0.003752	-0.002143	0.010536	83.380353	-87.001499	129.004353
04946	NaN	9.777602	0.514749	0.021054	0.001252	0.005685	0.007235	83.314360	-87.004819	129.070734
04947	NaN	9.783122	0.507357	0.044303	0.003584	0.002627	0.008814	83.284748	-87.009776	129.102119
04948	NaN	9.770732	0.485641	0.041659	0.004397	0.005668	0.010156	83.216733	-87.014756	129.172332
04949	NaN	9.770784	0.484548	0.042168	0.005149	0.005239	0.012263	83.154681	-87.021495	129.237099
04950	NaN	9.776328	0.476431	0.065773	0.004010	0.010512	0.018685	83.021532	-87.030987	129.372311
04951	NaN	9.750648	0.492464	0.051924	0.003862	0.010039	0.012984	82.904226	-87.037786	129.491666
04952	NaN	9.809192	0.483127	0.062742	0.008280	0.010462	0.019163	82.771887	-87.047527	129.628516
04953	NaN	9.783532	0.498955	0.048843	0.001100	0.009229	0.016722	82.655375	-87.056481	129.745490
04954	NaN	9.796887	0.459078	0.061628	0.004388	0.010907	0.014134	82.521521	-87.063306	129.881623
04955	NaN	9.771223	0.475083	0.047783	0.005891	0.010048	0.018350	82.394849	-87.073097	130.011517
04956	NaN	9.745572	0.491018	0.033775	0.006721	0.007846	0.015715	82.292676	-87.081028	130.117265
04957	NaN	9.776823	0.465212	0.072293	0.005372	0.009176	0.017200	82.175650	-87.090208	130.237201
04958	NaN	9.809635	0.473307	0.068191	0.005374	0.009176	0.017201	82.054319	-87.098860	130.361359
04959	NaN	9.769160	0.493721	0.085200	0.004919	0.011774	0.015285	81.909426	-87.106719	130.508936
04960	NaN	9.766154	0.473550	0.029383	0.001338	0.007926	0.017680	81.797560	-87.115719	130.621299
04961	NaN	9.778700	0.492770	0.033400	0.006567	0.012611	0.013992	81.644752	-87.122742	130.777745
04962	NaN	9.791998	0.452844	0.046263	0.009647	0.009120	0.017682	81.522782	-87.131620	130.904993
04963	NaN	9.778853	0.489598	0.035435	0.003054	0.012233	0.015620	81.367901	-87.139560	131.061497
04964	NaN	9.784354	0.481373	0.059541	0.005974	0.013510	0.017586	81.192545	-87.147973	131.240089
04965	NaN	9.784430	0.479666	0.060729	0.005680	0.011340	0.017394	81.044343	-87.156951	131.391410
04966	NaN	9.757170	0.461590	0.089569	0.005909	0.010039	0.018353	80.905199	-87.166066	131.533708
04967	NaN	9.804850	0.465199	0.054744	0.005161	0.010468	0.016245	80.766948	-87.174436	131.674764
04968	NaN	9.758991	0.492115	0.048952	0.006733	0.013076	0.019695	80.589070	-87.183995	131.856314
04969	NaN	9.805012	0.461455	0.057347	0.009727	0.017820	0.020895	80.357819	-87.194251	132.093101
04970	NaN	9.772328	0.449789	0.063955	0.004938	0.017006	0.019263	80.131755	-87.203121	132.321862
04971	NaN	9.777800	0.441306	0.088249	0.008613	0.012610	0.019363	79.960106	-87.212941	132.498332
04972	NaN	9.772478	0.446122	0.066588	0.007865	0.013039	0.017254	79.783241	-87.221009	132.679514
04973	NaN	9.772549	0.444359	0.068001	0.006818	0.016539	0.018930	79.563345	-87.230126	132.903255
04974	NaN	9.767236	0.449232	0.046518	0.005472	0.012631	0.016438	79.389414	-87.237721	133.080125
04975	NaN	9.775687	0.459868	0.127603	0.002176	0.017423	0.011785	79.169851	-87.242647	133.300868
04976	NaN	9.792966	0.429092	0.064332	0.005322	0.012158	0.010736	79.012471	-87.247031	133.461082
04977	NaN	9.770385	0.464287	0.107326	0.007720	0.012562	0.011554	78.852133	-87.252297	133.625709
04978	NaN	9.810932	0.441066	0.093108	0.006300	0.022130	0.010543	78.577850	-87.255409	133.903521
04979	NaN	9.805604	0.446574	0.071997	0.008023	0.014729	0.011746	78.390476	-87.260473	134.095388
04980	NaN	9.785394	0.456326	0.081711	0.004061	0.022195	0.015428	78.100759	-87.266212	134.387365
04981	NaN	9.778259	0.427570	0.103644	0.005410	0.020860	0.013945	77.832630	-87.271693	134.658579
04982	NaN	9.798551	0.415264	0.097524	0.005933	0.016490	0.011121	77.619912	-87.275593	134.874543
04983	NaN	9.772989	0.431751	0.084039	0.004510	0.014355	0.013372	77.427488	-87.281458	135.069448
04984	NaN	9.778354	0.424180	0.108542	0.006612	0.019052	0.006761	77.195308	-87.282529	135.305284
04985	NaN	9.780255	0.457112	0.067630	0.000847	0.018750	0.013267	76.947863	-87.287700	135.553170
04986	NaN	9.798658	0.411086	0.104237	0.006840	0.017751	0.007721	76.727784	-87.289388	135.777022
04987	NaN	9.747523	0.445485	0.075858	0.004292	0.015651	0.012413	76.519757	-87.294401	135.987420
04988	NaN	9.790995	0.440867	0.118402	0.003322	0.017380	0.009344	76.296589	-87.296969	136.212346
04989	NaN	9.791015	0.439956	0.120089	0.003324	0.017380	0.009344	76.075208	-87.299961	136.435558
04990	NaN	9.785727	0.445726	0.098596	0.004065	0.011711	0.007480	75.923970	-87.302206	136.588900
04991	NaN	9.773207	0.424078	0.096847	0.001899	0.015246	0.011594	75.719348	-87.306681	136.794514
04992	NaN	9.778526	0.416727	0.121114	0.004968	0.012974	0.004079	75.563406	-87.306818	136.953085
04993	NaN	9.770826	0.448090	0.133001	-0.001336	0.006570	0.005456	75.477220	-87.309080	137.038276
04994	NaN	9.785803	0.443022	0.103153	0.001448	0.012606	0.005700	75.318434	-87.310140	137.197674
04995	NaN	9.785814	0.442483	0.104353	0.003321	0.012140	0.005370	75.169163	-87.311522	137.348691
04996	NaN	9.800802	0.437304	0.074856	0.002502	0.014341	0.008002	74.983013	-87.313562	137.536088
04997	NaN	9.785849	0.441042	0.107134	0.002807	0.016507	0.008194	74.772541	-87.315808	137.748079
04998	NaN	9.773321	0.419298	0.105761	0.002737	0.018277	0.012937	74.523491	-87.319916	137.998580
04999	NaN	9.766069	0.390811	0.127313	0.004084	0.016942	0.011457	74.296923	-87.323814	138.227415
05000	NaN	9.758390	0.421645	0.139610	0.000551	0.011339	0.009101	74.139955	-87.326805	138.384480
05001	NaN	9.773413	0.416060	0.109965	0.001825	0.011775	0.012363	73.968904	-87.331950	138.556441
05002	NaN	9.811534	0.417937	0.129360	0.001385	0.014372	0.010444	73.771103	-87.335158	138.754860
05003	NaN	9.773473	0.414029	0.112251	0.001813	0.006539	0.008389	73.674555	-87.338911	138.852229
05004	NaN	9.778754	0.406669	0.136043	0.004078	0.011704	0.007483	73.519388	-87.340883	139.009514
05005	NaN	9.773508	0.412681	0.114160	0.000627	0.009568	0.004358	73.399966	-87.341908	139.129101
05006	NaN	9.778770	0.405638	0.137916	0.002719	0.007802	0.004989	73.298653	-87.343124	139.231694
05007	NaN	9.793786	0.400669	0.107947	0.004371	0.008634	0.003700	73.194577	-87.343922	139.338066
05008	NaN	9.818938	0.441589	0.114843	0.001068	0.006970	0.006278	73.097367	-87.345972	139.435606
05009	NaN	9.791368	0.424818	0.143535	-0.002281	0.013534	0.006358	72.921750	-87.347384	139.609779
05010	NaN	9.773564	0.410001	0.118908	0.002517	0.014334	0.008004	72.731664	-87.349111	139.801126
05011	NaN	9.806412	0.418893	0.115273	-0.001022	0.008734	0.005646	72.615713	-87.350907	139.916291
05012	NaN	9.780941	0.435742	0.101192	0.001832	0.011771	0.012365	72.438792	-87.355416	140.094066
05013	NaN	9.778864	0.400858	0.145060	-0.001838	0.010935	0.008278	72.285942	-87.358237	140.245701
05014	NaN	9.773654	0.406605	0.123128	0.000253	0.009169	0.008910	72.151069	-87.361276	140.380478
05015	NaN	9.773672	0.405911	0.123977	0.000852	0.008266	0.005318	72.042067	-87.362921	140.489761
05016	NaN	9.778910	0.398729	0.147770	-0.000492	0.009600	0.006798	71.909329	-87.364712	140.621974
05017	NaN	9.773696	0.404865	0.125508	0.001362	0.003899	0.002495	71.862965	-87.365579	140.668844
05018	NaN	9.786297	0.424957	0.128979	-0.002014	0.004005	0.009815	71.783575	-87.370000	140.746780
05019	NaN	9.808727	0.446837	0.079205	-0.002053	0.012232	0.007318	71.617475	-87.371985	140.911554
05020	NaN	9.771300	0.427858	0.161705	-0.001307	0.011800	0.009430	71.447092	-87.374767	141.080984
05021	NaN	9.776246	0.376348	0.095056	0.001002	0.008735	0.011023	71.308779	-87.379360	141.219694
05022	NaN	9.791619	0.414606	0.155770	-0.000868	0.009202	0.011350	71.160909	-87.383627	141.366840
05023	NaN	9.773850	0.399494	0.130606	-0.003793	0.007936	0.009374	71.035096	-87.387444	141.490285
05024	NaN	9.786476	0.419035	0.134654	-0.001682	0.011401	0.013982	70.848865	-87.392694	141.675364
05025	NaN	9.794177	0.385991	0.124643	-0.003574	0.006636	0.010334	70.733758	-87.397245	141.788217
05026	NaN	9.779149	0.389561	0.156197	0.000789	0.010031	0.010064	70.580439	-87.400600	141.941767
05027	NaN	9.768786	0.401730	0.110896	-0.003975	0.001007	0.010910	70.528964	-87.406514	141.990692
05028	NaN	9.801676	0.410299	0.106597	-0.004317	0.007068	0.008222	70.415092	-87.409423	142.101826
05029	NaN	9.774044	0.393231	0.135035	-0.000862	0.009199	0.011352	70.265097	-87.413989	142.251156
05030	NaN	9.794330	0.380927	0.128160	-0.002732	0.009666	0.011679	70.105599	-87.418236	142.408872
05031	NaN	9.774104	0.391013	0.137062	-0.000767	0.012661	0.010584	69.916558	-87.421672	142.597342
05032	NaN	9.761522	0.369352	0.134894	-0.005968	0.006237	0.009508	69.804745	-87.425392	142.705469
05033	NaN	9.779337	0.382599	0.161515	0.001298	0.005663	0.007242	69.714508	-87.428381	142.796218
05034	NaN	9.768993	0.395234	0.115920	-0.000380	-0.000398	0.004552	69.706780	-87.430749	142.803359
05035	NaN	9.799412	0.429474	0.145469	-0.001006	0.008729	0.005648	69.585290	-87.432262	142.924071
05036	NaN	9.779380	0.380932	0.162869	-0.001100	0.005265	0.006416	69.500878	-87.434499	143.007563
05037	NaN	9.801908	0.402975	0.112981	-0.002659	0.007898	0.006935	69.382298	-87.436851	143.124413
05038	NaN	9.779411	0.379629	0.164065	-0.001411	0.003100	0.006223	69.324219	-87.439413	143.181367
05039	NaN	9.781696	0.412995	0.121538	0.001802	0.001297	0.004418	69.298397	-87.441740	143.207924
05040	NaN	9.754022	0.396396	0.149257	-0.001722	0.000935	0.006031	69.266825	-87.444639	143.238167
05041	NaN	9.774288	0.384774	0.141541	-0.002996	0.000504	0.002766	69.255209	-87.446240	143.247753
05042	NaN	9.774293	0.384619	0.141598	-0.001870	0.000469	0.000326	69.255057	-87.446180	143.246459
05043	NaN	9.756500	0.370582	0.115755	0.000095	0.003464	-0.000767	69.225730	-87.445287	143.275547
05044	NaN	9.792070	0.398745	0.168303	-0.001463	0.006097	-0.000248	69.160921	-87.443779	143.339210
05045	NaN	9.769103	0.391373	0.119676	0.001654	0.000831	-0.001286	69.166487	-87.443144	143.334263
05046	NaN	9.786884	0.405580	0.145802	-0.002615	0.000902	-0.001786	69.170392	-87.441873	143.328483
05047	NaN	9.779423	0.378593	0.165709	-0.001490	0.000867	-0.004225	69.187100	-87.439656	143.310581
05048	NaN	9.786859	0.406133	0.145901	-0.000528	-0.000865	-0.001153	69.210459	-87.439088	143.286525
05049	NaN	9.779412	0.379085	0.165220	0.001749	-0.009162	-0.003536	69.345968	-87.439271	143.151561
05050	NaN	9.774224	0.386324	0.141776	0.000450	-0.001367	-0.009296	69.412533	-87.434438	143.084816
05051	NaN	9.753940	0.398428	0.149147	-0.002355	-0.007393	-0.009548	69.551122	-87.431019	142.944414
05052	NaN	9.812208	0.391005	0.158997	0.000356	-0.004831	-0.008529	69.655038	-87.427281	142.840227
05053	NaN	9.774138	0.388941	0.140494	0.000978	-0.000502	-0.008143	69.706314	-87.423224	142.789137
05054	NaN	9.759029	0.394365	0.171123	0.000451	-0.001368	-0.009296	69.771800	-87.418380	142.723474
05055	NaN	9.801760	0.406623	0.112803	0.000164	0.001697	-0.005512	69.784527	-87.415298	142.710505
05056	NaN	9.779233	0.384477	0.163374	0.001724	-0.000935	-0.006031	69.831005	-87.412124	142.664599
05057	NaN	9.776748	0.410139	0.196971	-0.001366	-0.003896	-0.002498	69.896150	-87.411766	142.598280
05058	NaN	9.758952	0.396542	0.170474	-0.001296	-0.005663	-0.007242	70.002130	-87.408866	142.491079
05059	NaN	9.806870	0.402073	0.134594	-0.000240	-0.003931	-0.004937	70.078748	-87.407192	142.413921
05060	NaN	9.768811	0.399740	0.115804	0.000792	-0.007430	-0.006609	70.203827	-87.404965	142.288800
05061	NaN	9.806831	0.403373	0.133538	0.000669	-0.002667	-0.008336	70.280177	-87.401201	142.212431
05062	NaN	9.806804	0.404145	0.133209	0.000886	-0.003966	-0.007376	70.366994	-87.397878	142.125666
05063	NaN	9.806779	0.404795	0.133069	0.002035	0.001229	-0.005838	70.386919	-87.394704	142.106564
05064	NaN	9.741044	0.386315	0.142520	-0.002017	-0.000000	-0.005377	70.416331	-87.391695	142.075597
05065	NaN	9.768684	0.403168	0.114627	-0.000168	-0.005699	-0.009681	70.533032	-87.387772	141.958354
05066	NaN	9.773851	0.397278	0.137081	-0.000239	-0.003932	-0.004937	70.607921	-87.385751	141.882884
05067	NaN	9.768632	0.404677	0.113698	0.003357	-0.005335	-0.011294	70.728459	-87.380868	141.763823
05068	NaN	9.806645	0.408588	0.131389	0.002232	-0.005301	-0.008855	70.836722	-87.376977	141.656359
05069	NaN	9.768565	0.406535	0.112863	-0.001418	-0.000902	-0.008969	70.891911	-87.372502	141.599976
05070	NaN	9.786317	0.421428	0.138731	0.003069	-0.002269	-0.007510	70.958921	-87.368763	141.534296
05071	NaN	9.806554	0.410956	0.130731	0.003597	-0.001403	-0.006358	71.011918	-87.365791	141.482982
05072	NaN	9.753413	0.413297	0.143034	0.000672	-0.002669	-0.008335	71.085258	-87.361675	141.409580
05073	NaN	9.786235	0.423473	0.138294	0.002562	0.002096	-0.004686	71.089547	-87.358955	141.406433
05074	NaN	9.786213	0.423927	0.138410	0.000382	0.000397	-0.004551	71.111253	-87.356321	141.384559
05075	NaN	9.793879	0.392520	0.127645	0.000691	0.002562	-0.004359	71.107648	-87.353691	141.388241
05076	NaN	9.801244	0.420117	0.108075	-0.000435	0.002597	-0.001920	71.092504	-87.352079	141.402791
05077	NaN	9.773582	0.404212	0.136022	-0.000653	0.003896	-0.002880	71.066602	-87.350003	141.428022
05078	NaN	9.765881	0.436225	0.147212	-0.002089	0.001766	-0.000633	71.055156	-87.349247	141.437920
05079	NaN	9.773571	0.404338	0.136463	-0.001344	0.001333	0.001479	71.041371	-87.350009	141.450625
05080	NaN	9.806420	0.413760	0.131950	0.002707	0.002565	0.001018	71.016692	-87.350001	141.476522
05081	NaN	9.778770	0.397554	0.159721	-0.001871	0.000467	0.000327	71.017378	-87.350300	141.474438
05082	NaN	9.753307	0.415294	0.144523	-0.000309	-0.002165	-0.000192	71.051212	-87.350521	141.440026
05083	NaN	9.773576	0.404201	0.136493	-0.002707	-0.002565	-0.001018	71.092336	-87.350654	141.396983
05084	NaN	9.768375	0.410920	0.113382	0.001344	-0.001333	-0.001479	71.122543	-87.350025	141.367154
05085	NaN	9.801216	0.420649	0.108530	-0.001053	-0.001733	-0.002305	71.160009	-87.349304	141.328720
05086	NaN	9.793825	0.393702	0.128180	0.000073	-0.001768	-0.004744	71.207605	-87.346986	141.280759
05087	NaN	9.788606	0.400785	0.105279	-0.001706	0.002163	-0.005184	71.210502	-87.343982	141.276557
05088	NaN	9.778720	0.399019	0.159132	-0.002089	0.001765	-0.000633	71.199141	-87.343245	141.286366
05089	NaN	9.791293	0.419760	0.162300	0.001871	-0.000467	-0.000327	71.215502	-87.343362	141.270737
05090	NaN	9.793789	0.394482	0.128520	-0.005613	0.001400	0.000981	71.199929	-87.343571	141.282749
05091	NaN	9.740666	0.396260	0.141019	0.000074	-0.001768	-0.004744	71.248012	-87.341531	141.234333
05092	NaN	9.760918	0.385699	0.132853	-0.001288	-0.005666	-0.007241	71.350016	-87.338582	141.131128
05093	NaN	9.745825	0.391112	0.162874	0.003273	-0.008800	-0.010526	71.504455	-87.334677	140.978077
05094	NaN	9.778644	0.401635	0.157259	0.001620	-0.009632	-0.009239	71.661552	-87.331340	140.821373
05095	NaN	9.773400	0.409398	0.133576	0.002094	-0.005771	-0.014558	71.794593	-87.324660	140.689065
05096	NaN	9.773358	0.410641	0.132786	-0.003173	-0.010434	-0.010889	71.963584	-87.320535	140.517718
05097	NaN	9.813861	0.389579	0.116790	0.003327	0.002890	-0.013789	71.992547	-87.312712	140.490309
05098	NaN	9.773257	0.413201	0.132319	-0.001646	-0.004840	-0.013903	72.107730	-87.305935	140.373677
05099	NaN	9.773206	0.414510	0.131972	0.001060	-0.002274	-0.012886	72.191169	-87.299507	140.290430
05100	NaN	9.765439	0.447467	0.142690	-0.001939	-0.001773	-0.010120	72.255807	-87.294247	140.224254
05101	NaN	9.793022	0.464481	0.114618	-0.003462	-0.007369	-0.007105	72.373508	-87.291851	140.104113
05102	NaN	9.785674	0.437638	0.133820	-0.003537	-0.005600	-0.002361	72.452542	-87.291481	140.022617
05103	NaN	9.765402	0.448803	0.141074	-0.006317	-0.006398	0.001365	72.526338	-87.293528	139.944792
05104	NaN	9.800757	0.432858	0.101790	0.000786	-0.008658	0.004606	72.618025	-87.297482	139.853084
05105	NaN	9.773174	0.416221	0.128910	-0.002561	-0.002097	0.004686	72.632360	-87.300601	139.836940
05106	NaN	9.783018	0.417930	0.075262	-0.000820	0.002200	0.002632	72.604658	-87.301617	139.863842
05107	NaN	9.773198	0.415586	0.129167	-0.002691	0.002666	0.002959	72.569918	-87.302975	139.896755
05108	NaN	9.760647	0.394586	0.126523	-0.000205	0.006531	0.003017	72.490883	-87.303459	139.975412
05109	NaN	9.788263	0.410525	0.099481	-0.000731	0.005664	0.001865	72.426419	-87.303698	140.039205
05110	NaN	9.773201	0.414981	0.130878	0.000703	0.007795	-0.000382	72.345776	-87.302102	140.119985
05111	NaN	9.778402	0.408533	0.154474	-0.000348	0.006061	-0.002687	72.293783	-87.299780	140.171513
05112	NaN	9.811227	0.418128	0.150284	-0.004781	0.004430	0.002327	72.239050	-87.300246	140.223220
05113	NaN	9.767967	0.421514	0.109651	0.003538	0.005599	0.002362	72.175987	-87.300755	140.288059
05114	NaN	9.773184	0.414654	0.133156	-0.000205	0.006531	0.003017	72.096989	-87.301225	140.366680
05115	NaN	9.811235	0.417431	0.151729	0.000526	0.000867	0.001152	72.091417	-87.301902	140.372236
05116	NaN	9.767980	0.420911	0.110811	-0.001038	0.003498	0.001672	72.052019	-87.302173	140.410720
05117	NaN	9.773195	0.414118	0.133987	0.001052	0.001734	0.002305	72.032383	-87.303324	140.430658
05118	NaN	9.813388	0.450774	0.109631	0.001052	0.001734	0.002305	72.012169	-87.304253	140.451133
05119	NaN	9.758143	0.418145	0.165092	0.001578	0.002601	0.003457	71.978426	-87.305878	140.485495
05120	NaN	9.793504	0.402003	0.126931	-0.001113	0.005266	0.006416	71.900519	-87.308420	140.562512
05121	NaN	9.773247	0.412622	0.134851	0.001180	-0.003029	0.004032	71.929519	-87.311357	140.533833
05122	NaN	9.752990	0.423308	0.142625	-0.001946	0.002234	0.005071	71.891196	-87.313709	140.570779
05123	NaN	9.811332	0.414618	0.153167	0.000143	0.000469	0.005704	71.872646	-87.316934	140.589108
05124	NaN	9.785871	0.431839	0.138166	-0.000075	0.001768	0.004744	71.841968	-87.319193	140.619486
05125	NaN	9.793600	0.399436	0.127584	0.003157	0.005200	0.006914	71.765356	-87.322230	140.697669
05126	NaN	9.765647	0.441560	0.146849	0.002556	0.006101	0.010506	71.663399	-87.326841	140.800797
05127	NaN	9.785952	0.429475	0.139782	0.000250	0.009165	0.008913	71.530721	-87.330233	140.933439
05128	NaN	9.793686	0.396688	0.129610	0.002557	0.006101	0.010506	71.428030	-87.334826	141.037321
05129	NaN	9.806290	0.416397	0.133291	0.000160	0.005700	0.009680	71.332025	-87.339246	141.133199
05130	NaN	9.793743	0.394847	0.130868	-0.000274	0.008297	0.007761	71.212273	-87.341931	141.252511
05131	NaN	9.788571	0.400705	0.108731	0.001597	0.007831	0.007434	71.100560	-87.344721	141.364938
05132	NaN	9.753234	0.415786	0.147930	0.000545	0.006097	0.005129	71.017147	-87.346375	141.448424
05133	NaN	9.798979	0.386332	0.155894	0.001072	0.006964	0.006282	70.919538	-87.348685	141.546429
05134	NaN	9.801194	0.419771	0.113815	-0.000199	0.006529	0.003017	70.838976	-87.349106	141.626638
05135	NaN	9.740682	0.393793	0.146744	-0.000198	0.006529	0.003017	70.758788	-87.349718	141.706474
05136	NaN	9.806386	0.412704	0.137691	0.004269	-0.000067	0.000500	70.768120	-87.350018	141.699235
05137	NaN	9.763172	0.416230	0.096772	0.003544	0.005596	0.002364	70.703618	-87.350450	141.765515
05138	NaN	9.806397	0.412179	0.138458	-0.003506	0.004866	0.005589	70.630013	-87.352568	141.836827
05139	NaN	9.773552	0.402265	0.143764	-0.000415	0.007828	0.002057	70.538342	-87.352401	141.928036
05140	NaN	9.778730	0.395377	0.167409	0.002200	0.006928	0.003843	70.450967	-87.353175	142.016400
05141	NaN	9.773556	0.401744	0.144936	0.002708	0.002564	0.001019	70.426848	-87.353446	142.041774
05142	NaN	9.768384	0.408167	0.122237	-0.000817	0.002200	0.002631	70.397881	-87.354473	142.070015
05143	NaN	9.760987	0.380638	0.142057	-0.001438	-0.002130	0.002246	70.421118	-87.356308	142.045605
05144	NaN	9.788669	0.396725	0.114393	0.001654	0.000831	-0.001286	70.425908	-87.355485	142.041372
05145	NaN	9.786156	0.421895	0.148293	-0.002998	0.000502	0.002765	70.415340	-87.357094	142.049907
05146	NaN	9.768407	0.407550	0.122467	0.001364	0.003897	0.002498	70.368378	-87.357728	142.097345
05147	NaN	9.786167	0.421498	0.148726	-0.001871	0.000467	0.000326	70.368998	-87.358028	142.095327
05148	NaN	9.763516	0.354818	0.108844	-0.003432	0.003099	0.000845	70.335488	-87.357925	142.126593
05149	NaN	9.788685	0.396104	0.115174	0.000217	-0.001299	0.000960	70.355304	-87.358907	142.106557
05150	NaN	9.793865	0.389335	0.138042	-0.001127	0.000035	0.002439	70.352347	-87.360259	142.108519
05151	NaN	9.765910	0.432207	0.156843	0.000310	0.002165	0.000193	70.334906	-87.360159	142.125833
05152	NaN	9.788702	0.395623	0.115374	-0.000601	0.000901	0.003591	70.317327	-87.361969	142.142740
05153	NaN	9.813879	0.436646	0.122110	-0.001757	0.009160	0.003536	70.202762	-87.362318	142.256095
05154	NaN	9.778778	0.393040	0.170069	0.000310	0.002165	0.000193	70.185146	-87.362051	142.273575
05155	NaN	9.788714	0.394893	0.116868	0.002202	0.006927	0.003844	70.097639	-87.362989	142.362114
05156	NaN	9.753343	0.410283	0.155911	-0.000506	0.004364	0.002824	70.042672	-87.363711	142.416465
05157	NaN	9.766192	0.371742	0.168398	0.002276	0.005160	-0.000900	69.995970	-87.362432	142.464198
05158	NaN	9.788705	0.394678	0.118294	0.001222	0.003428	-0.003206	69.978538	-87.360092	142.482024
05159	NaN	9.773587	0.399365	0.149300	-0.001560	0.002632	0.000519	69.953202	-87.360071	142.506169
05160	NaN	9.806437	0.409016	0.144862	-0.000959	0.001731	-0.003073	69.953788	-87.358137	142.504679
05161	NaN	9.780990	0.426926	0.129982	0.002492	0.003862	0.000060	69.918400	-87.357627	142.541211
05162	NaN	9.781253	0.367885	0.139015	-0.002924	-0.001265	-0.001980	69.948229	-87.356873	142.509331
05163	NaN	9.773560	0.399842	0.149834	0.001871	-0.000467	-0.000326	69.964611	-87.357006	142.493682
05164	NaN	9.768394	0.406518	0.126836	-0.000527	-0.000866	-0.001153	69.987666	-87.356624	142.469995
05165	NaN	9.773551	0.400091	0.149721	0.001128	-0.000035	-0.002438	70.007544	-87.355534	142.450419
05166	NaN	9.791285	0.414446	0.175857	-0.000959	0.001731	-0.003073	70.008125	-87.353609	142.448914
05167	NaN	9.755788	0.386378	0.123773	0.000216	-0.001298	0.000960	70.027785	-87.354596	142.429034
05168	NaN	9.801227	0.416614	0.122214	0.001655	0.000831	-0.001286	70.032852	-87.353817	142.424664
05169	NaN	9.773532	0.400554	0.149731	-0.000311	-0.002165	-0.000193	70.067193	-87.354351	142.389785
05170	NaN	9.778701	0.393962	0.172373	-0.002492	-0.003862	-0.000060	70.119367	-87.355146	142.335759
05171	NaN	9.768376	0.407138	0.126239	0.002087	-0.001766	0.000634	70.146976	-87.356047	142.308995
05172	NaN	9.788652	0.396034	0.118195	0.001034	-0.003498	-0.001671	70.203936	-87.355905	142.252253
05173	NaN	9.786126	0.421368	0.151748	-0.000310	-0.002165	-0.000193	70.238339	-87.356435	142.217312
05174	NaN	9.788649	0.396182	0.117875	-0.000216	0.001298	-0.000960	70.235672	-87.355752	142.219660
05175	NaN	9.788647	0.396229	0.117939	0.000000	0.000000	0.000000	70.244169	-87.355966	142.210830
05176	NaN	9.786406	0.362152	0.160643	-0.002782	-0.000797	0.003724	70.244635	-87.358208	142.208333
05177	NaN	9.786137	0.421093	0.151810	0.000310	0.002165	0.000193	70.227213	-87.358107	142.225628
05178	NaN	9.773556	0.400302	0.148849	0.002924	0.001265	0.001980	70.214300	-87.359022	142.240064
05179	NaN	9.768390	0.406922	0.125893	-0.001054	-0.001732	-0.002306	70.252133	-87.358329	142.201263
05180	NaN	9.793823	0.389295	0.141155	-0.001777	0.003930	-0.000441	70.215457	-87.357421	142.236722
05181	NaN	9.745849	0.384458	0.176714	0.001128	-0.000035	-0.002438	70.235248	-87.356328	142.217234
05182	NaN	9.788643	0.396148	0.118519	0.000310	0.002165	0.000193	70.217757	-87.356103	142.234515
05183	NaN	9.773527	0.400787	0.149461	-0.000432	0.002597	-0.001920	70.203755	-87.354778	142.247961
05184	NaN	9.801216	0.416951	0.121966	-0.001655	-0.000831	0.001286	70.215508	-87.355726	142.234802
05185	NaN	9.748082	0.418622	0.134465	0.001438	0.002130	-0.002246	70.209397	-87.354316	142.241421
05186	NaN	9.773511	0.401077	0.149739	-0.000743	0.000432	-0.002113	70.221093	-87.353189	142.228931
05187	NaN	9.773505	0.401310	0.149469	-0.001674	-0.006061	-0.002691	70.310600	-87.353124	142.138045
05188	NaN	9.788610	0.397043	0.118226	0.002378	-0.004831	-0.003150	70.389924	-87.352458	142.059766
05189	NaN	9.768325	0.408555	0.125588	0.002162	-0.003532	-0.004110	70.457949	-87.351131	141.992585
05190	NaN	9.793757	0.391179	0.140514	0.000601	-0.000901	-0.003591	70.492038	-87.349466	141.958501
05191	NaN	9.786047	0.423384	0.151220	0.000291	-0.003066	-0.003784	70.552077	-87.348219	141.898242
05192	NaN	9.768290	0.409639	0.124818	-0.003761	-0.004297	-0.003325	70.621976	-87.347338	141.825623
05193	NaN	9.768272	0.410167	0.124499	0.003074	-0.002269	-0.007508	70.689426	-87.343920	141.759540
05194	NaN	9.780829	0.431331	0.127524	-0.000743	0.000432	-0.002113	70.701062	-87.342801	141.747135
05195	NaN	9.795923	0.427053	0.096711	-0.001579	-0.002599	-0.003458	70.753017	-87.341633	141.693894
05196	NaN	9.755659	0.390496	0.120977	-0.001053	-0.001733	-0.002305	70.790470	-87.340815	141.655346
05197	NaN	9.773401	0.404839	0.146729	0.000508	-0.004364	-0.002824	70.861542	-87.340318	141.584165
05198	NaN	9.788496	0.400616	0.115650	0.000292	-0.003066	-0.003784	70.921219	-87.338954	141.524291
05199	NaN	9.768211	0.411987	0.123271	-0.002397	-0.000400	-0.000827	70.936329	-87.338791	141.507467
05200	NaN	9.755626	0.391653	0.119957	0.003291	-0.003567	-0.006549	71.014566	-87.336022	141.430778
05201	NaN	9.801025	0.422599	0.117819	0.000275	-0.008297	-0.007761	71.150789	-87.333565	141.294242
05202	NaN	9.791085	0.421114	0.171127	-0.003357	0.001330	-0.003899	71.157522	-87.331316	141.285185
05203	NaN	9.768139	0.414089	0.121877	0.003199	-0.007030	-0.005782	71.272515	-87.329685	141.171578
05204	NaN	9.793578	0.397051	0.136427	0.000368	-0.004834	-0.008528	71.371159	-87.326064	141.072941
05205	NaN	9.780660	0.436137	0.124082	0.000076	-0.001768	-0.004744	71.418795	-87.324017	141.024973
05206	NaN	9.780638	0.436648	0.123973	-0.000141	-0.000469	-0.005704	71.454874	-87.321120	140.988503
05207	NaN	9.790989	0.423935	0.169626	0.002164	-0.003533	-0.004110	71.521577	-87.319735	140.922645
05208	NaN	9.793511	0.399023	0.135466	-0.007501	-0.003366	-0.002672	71.575164	-87.319007	140.864400
05209	NaN	9.793174	0.458180	0.126391	0.000743	-0.000432	0.002112	71.580916	-87.320439	140.858744
05210	NaN	9.773230	0.410164	0.143297	-0.000125	0.004762	-0.001727	71.540933	-87.318759	140.898542
05211	NaN	9.768031	0.416930	0.120836	-0.000125	0.004762	-0.001727	71.500792	-87.317161	140.938332
05212	NaN	9.785766	0.431211	0.147240	-0.000434	0.002597	-0.001920	71.486184	-87.315756	140.952197
05213	NaN	9.780911	0.378861	0.133472	-0.000434	0.002597	-0.001920	71.471764	-87.314446	140.966061
05214	NaN	9.780564	0.438106	0.124670	0.001871	-0.000466	-0.000326	71.488131	-87.314477	140.950469
05215	NaN	9.780558	0.438292	0.124520	-0.001578	-0.002600	-0.003458	71.539189	-87.313276	140.898126
05216	NaN	9.767982	0.417942	0.121312	0.002783	0.000798	-0.003725	71.554459	-87.311220	140.883841
05217	NaN	9.788254	0.407113	0.113368	-0.001360	-0.003898	-0.002498	71.616883	-87.310773	140.820245
05218	NaN	9.805990	0.421424	0.139456	-0.000125	0.004762	-0.001727	71.577006	-87.309101	140.859909
05219	NaN	9.773141	0.411884	0.144404	0.000526	0.000867	0.001153	71.571289	-87.309775	140.865610
05220	NaN	9.778327	0.405231	0.167373	-0.000000	0.000000	0.000000	71.580086	-87.309904	140.856482
05221	NaN	9.793428	0.400638	0.136697	0.000526	0.000867	0.001153	71.574369	-87.310578	140.862184
05222	NaN	9.800803	0.427945	0.116966	0.001654	0.000832	-0.001286	71.579274	-87.309856	140.857811
05223	NaN	9.778323	0.405221	0.167662	-0.001562	0.002631	0.000519	71.554391	-87.309866	140.881501
05224	NaN	9.773141	0.411761	0.144776	0.002088	-0.001764	0.000634	71.582114	-87.310659	140.854557
05225	NaN	9.767963	0.418207	0.121945	0.001361	0.003898	0.002498	71.536591	-87.311515	140.900587
05226	NaN	9.780526	0.438805	0.125223	0.001871	-0.000466	-0.000326	71.552736	-87.311552	140.885075
05227	NaN	9.775687	0.386275	0.111281	0.000309	0.002165	0.000193	71.535565	-87.311469	140.902118
05228	NaN	9.800810	0.427622	0.117555	0.000217	-0.001298	0.000960	71.555438	-87.312356	140.881896
05229	NaN	9.788247	0.406984	0.114476	0.001437	0.002130	-0.002246	71.548729	-87.310954	140.889113
05230	NaN	9.800803	0.427741	0.117735	0.000526	0.000867	0.001153	71.543226	-87.311562	140.894585
05231	NaN	9.800801	0.427740	0.117919	0.001963	0.002997	-0.001093	71.522348	-87.310629	140.916289
05232	NaN	9.773136	0.411446	0.145994	0.002196	0.006930	0.003843	71.437165	-87.311596	141.002509
05233	NaN	9.773139	0.411242	0.146354	-0.001871	0.000466	0.000326	71.437880	-87.311894	141.000396
05234	NaN	9.762781	0.424432	0.100497	0.001871	-0.000466	-0.000326	71.454264	-87.311949	140.984877
05235	NaN	9.773143	0.411113	0.146464	-0.002691	0.002666	0.002957	71.418833	-87.313275	141.018480
05236	NaN	9.800818	0.427107	0.118808	0.001779	-0.003929	0.000441	71.472051	-87.314373	140.965877
05237	NaN	9.785718	0.431554	0.149393	-0.001345	0.001333	0.001479	71.458558	-87.315139	140.978290
05238	NaN	9.767981	0.417310	0.123561	0.000835	0.003032	0.001345	71.427158	-87.315462	141.009917
05239	NaN	9.806011	0.420111	0.141948	0.000743	-0.000432	0.002113	71.432820	-87.316894	141.004350
05240	NaN	9.780899	0.378292	0.135950	-0.001113	0.005266	0.006415	71.354855	-87.319568	141.081600
05241	NaN	9.768016	0.416282	0.124291	-0.000819	0.002200	0.002631	71.327037	-87.320799	141.108655
05242	NaN	9.798328	0.450853	0.153543	0.000743	-0.000432	0.002113	71.332832	-87.322171	141.102777
05243	NaN	9.773212	0.409093	0.147502	-0.001638	0.004399	0.005262	71.268624	-87.324426	141.165791
05244	NaN	9.788337	0.404059	0.117096	-0.000076	0.001768	0.004744	71.238125	-87.326826	141.195893
05245	NaN	9.760356	0.446576	0.135951	-0.000076	0.001768	0.004744	71.207270	-87.329281	141.226415
05246	NaN	9.806111	0.417248	0.143465	0.001795	0.001301	0.004418	71.184640	-87.331603	141.250101
05247	NaN	9.765875	0.380111	0.168064	-0.001345	0.001333	0.001478	71.170984	-87.332366	141.262677
05248	NaN	9.788386	0.402722	0.117574	-0.001655	-0.000832	0.001286	71.183363	-87.333372	141.248910
05249	NaN	9.773282	0.407083	0.148435	0.001362	0.003898	0.002498	71.137328	-87.334213	141.295452
05250	NaN	9.785855	0.427694	0.151506	0.001252	-0.004796	-0.000711	71.205623	-87.334873	141.227384
05251	NaN	9.788400	0.402439	0.117375	0.000217	-0.001298	0.000960	71.225581	-87.335840	141.207206
05252	NaN	9.768121	0.413545	0.125170	0.002181	0.001698	-0.000133	71.216508	-87.335612	141.216989
05253	NaN	9.788400	0.402425	0.117441	0.001871	-0.000467	-0.000326	71.232819	-87.335728	141.201410
05254	NaN	9.785859	0.427752	0.151097	-0.000836	-0.003031	-0.001345	71.281773	-87.335722	141.151687
05255	NaN	9.773277	0.407407	0.147888	0.002040	0.001229	-0.005837	71.300169	-87.332535	141.134119
05256	NaN	9.785835	0.428327	0.151025	-0.001655	-0.000832	0.001286	71.312403	-87.333546	141.120527
05257	NaN	9.783209	0.409519	0.094285	0.002924	0.001266	0.001980	71.300018	-87.334594	141.134278
05258	NaN	9.773281	0.407248	0.148091	-0.000819	0.002200	0.002631	71.272317	-87.335778	141.161019
05259	NaN	9.788393	0.402587	0.117463	0.001871	-0.000467	-0.000326	71.288631	-87.335894	141.145437
05260	NaN	9.775827	0.381861	0.114255	0.000217	-0.001298	0.000960	71.309154	-87.336829	141.124870
05261	NaN	9.760718	0.386410	0.144965	-0.000217	0.001298	-0.000960	71.306191	-87.336277	141.127388
05262	NaN	9.762939	0.420344	0.102286	-0.000000	-0.000000	0.000000	71.314879	-87.336445	141.118275
05263	NaN	9.778453	0.400605	0.171141	-0.000217	0.001298	-0.000960	71.311915	-87.335892	141.120794
05264	NaN	9.775505	0.441078	0.105573	0.000526	0.000866	0.001153	71.306437	-87.336533	141.126281
05265	NaN	9.775823	0.381898	0.114424	-0.000310	-0.002165	-0.000193	71.340801	-87.337032	141.091379
05266	NaN	9.752999	0.418270	0.156241	0.000929	0.006494	0.000578	71.272061	-87.336331	141.160469
05267	NaN	9.773280	0.407034	0.148740	-0.001655	-0.000832	0.001286	71.284249	-87.337388	141.146995
05268	NaN	9.785855	0.427619	0.151758	0.000216	-0.001298	0.000960	71.304547	-87.338319	141.126262
05269	NaN	9.783228	0.408906	0.094962	-0.001871	0.000467	0.000326	71.305265	-87.338616	141.124146
05270	NaN	9.768114	0.413541	0.125721	-0.000743	0.000432	-0.002113	71.316515	-87.337558	141.111939
05271	NaN	9.780680	0.434267	0.128931	-0.001345	0.001333	0.001478	71.302868	-87.338323	141.124506
05272	NaN	9.775821	0.381825	0.114856	-0.001579	-0.002599	-0.003458	71.354808	-87.337108	141.071492
05273	NaN	9.768096	0.413978	0.125679	0.005181	0.001197	-0.002897	71.363734	-87.335522	141.065204
05274	NaN	9.780659	0.434821	0.128662	-0.002491	-0.003863	-0.000060	71.416390	-87.336378	141.010796
05275	NaN	9.788368	0.403149	0.117640	0.000912	0.001263	-0.003398	71.424022	-87.334508	141.003356
05276	NaN	9.735222	0.405079	0.130096	0.000602	-0.000901	-0.003591	71.458170	-87.332914	140.969412
05277	NaN	9.768060	0.414939	0.125280	0.000819	-0.002200	-0.002631	71.503083	-87.332091	140.924596
05278	NaN	9.788335	0.404039	0.117308	-0.001052	-0.001733	-0.002305	71.540570	-87.331343	140.886343
05279	NaN	9.778385	0.402398	0.170817	0.001731	-0.000936	-0.006029	71.584416	-87.328440	140.843118
05280	NaN	9.780587	0.436638	0.127984	-0.000526	-0.000867	-0.001153	71.607296	-87.328153	140.819587
05281	NaN	9.773188	0.409615	0.147695	-0.001795	-0.001302	-0.004418	71.647030	-87.326190	140.778456
05282	NaN	9.770554	0.391103	0.090722	0.002305	-0.003063	0.001594	71.686662	-87.327791	140.739648
05283	NaN	9.785744	0.430583	0.150489	-0.001485	0.000863	-0.004225	71.700556	-87.325541	140.724564
05284	NaN	9.793450	0.399109	0.139616	-0.001269	-0.000435	-0.003265	71.726437	-87.324028	140.697492
05285	NaN	9.780545	0.437700	0.127567	0.000000	0.000000	0.000000	71.734946	-87.324232	140.688650
05286	NaN	9.790893	0.424614	0.173449	-0.000743	0.000432	-0.002113	71.746544	-87.323199	140.676446
05287	NaN	9.762798	0.423799	0.101565	-0.000000	-0.000000	0.000000	71.755052	-87.323402	140.667606
05288	NaN	9.760576	0.390179	0.144389	0.000169	0.001695	-0.005511	71.765403	-87.320287	140.656980
05289	NaN	9.800777	0.427784	0.119717	-0.000155	-0.005701	-0.009680	71.877011	-87.316240	140.544838
05290	NaN	9.783019	0.414278	0.093282	0.000820	-0.002200	-0.002631	71.921637	-87.315382	140.500163
05291	NaN	9.785627	0.433439	0.149932	-0.000882	-0.000039	-0.007816	71.959655	-87.311334	140.461273
05292	NaN	9.803262	0.404198	0.085371	-0.001268	-0.000435	-0.003265	71.985476	-87.309823	140.434277
05293	NaN	9.785586	0.434361	0.149913	0.000386	0.000397	-0.004551	72.006722	-87.307475	140.412905
05294	NaN	9.782942	0.416101	0.093233	0.000912	0.001263	-0.003398	72.014507	-87.305590	140.405167
05295	NaN	9.772991	0.414520	0.147002	-0.002227	0.001294	-0.006338	72.030523	-87.302109	140.387532
05296	NaN	9.772978	0.414807	0.147058	0.004269	-0.000065	0.000501	72.040853	-87.302586	140.379222
05297	NaN	9.785520	0.435819	0.150020	-0.002844	-0.003036	-0.006723	72.107947	-87.299658	140.310098
05298	NaN	9.795424	0.438433	0.096333	0.002567	0.002096	-0.004684	72.111784	-87.296940	140.307670
05299	NaN	9.788038	0.411485	0.116239	0.001129	-0.000035	-0.002438	72.130362	-87.295817	140.289396
05300	NaN	9.798010	0.457853	0.153130	0.001733	-0.000936	-0.006029	72.173506	-87.292890	140.246859
05301	NaN	9.760340	0.396236	0.143856	0.000695	0.002561	-0.004358	72.168971	-87.290263	140.251475
05302	NaN	9.805709	0.426929	0.142463	0.002784	0.000798	-0.003724	72.184037	-87.288294	140.237847
05303	NaN	9.787973	0.412910	0.116624	-0.001038	0.003498	0.001671	72.145394	-87.288792	140.275614
05304	NaN	9.767678	0.424049	0.124562	0.005398	-0.000099	-0.001937	72.165745	-87.287951	140.257973
05305	NaN	9.772856	0.417568	0.147371	-0.000308	-0.002165	-0.000193	72.199639	-87.288426	140.223540
05306	NaN	9.805693	0.427137	0.142916	0.000925	0.006495	0.000578	72.132009	-87.287802	140.291503
05307	NaN	9.787961	0.413043	0.117145	-0.000525	-0.000867	-0.001153	72.154385	-87.287526	140.268478
05308	NaN	9.787958	0.413107	0.117182	0.002180	0.001699	-0.000133	72.145461	-87.287353	140.278174
05309	NaN	9.749939	0.410107	0.098915	-0.002180	-0.001699	0.000133	72.171703	-87.287924	140.250328
05310	NaN	9.793138	0.406502	0.140140	0.000308	0.002165	0.000193	72.155198	-87.287854	140.266702
05311	NaN	9.767669	0.424075	0.125203	-0.000821	0.002200	0.002631	72.128060	-87.289103	140.293075
05312	NaN	9.787968	0.412792	0.117442	0.002088	-0.001764	0.000634	72.155770	-87.289969	140.266474
05313	NaN	9.800515	0.433594	0.120279	-0.001359	-0.003899	-0.002498	72.217600	-87.289490	140.203472
05314	NaN	9.767666	0.424213	0.124988	-0.000125	0.004761	-0.001727	72.177991	-87.287918	140.242606
05315	NaN	9.793133	0.406513	0.140441	-0.001346	0.001333	0.001478	72.164822	-87.288691	140.254695
05316	NaN	9.767668	0.424022	0.125466	-0.000821	0.002200	0.002631	72.138299	-87.289952	140.280528
05317	NaN	9.780224	0.444474	0.128802	-0.000821	0.002200	0.002631	72.111134	-87.291200	140.306929
05318	NaN	9.762508	0.430095	0.102972	-0.000821	0.002200	0.002631	72.084646	-87.292463	140.332768
05319	NaN	9.800530	0.432961	0.121352	-0.000000	-0.000000	0.000000	72.093079	-87.292664	140.324003
05320	NaN	9.780611	0.384872	0.138220	-0.001038	0.003498	0.001671	72.054647	-87.293164	140.361443
05321	NaN	9.787983	0.412078	0.118686	0.000309	0.002165	0.000193	72.037577	-87.293088	140.378385
05322	NaN	9.800531	0.432761	0.121937	-0.001872	0.000466	0.000326	72.038662	-87.293391	140.375731
05323	NaN	9.800535	0.432631	0.122047	0.001051	0.001734	0.002305	72.019080	-87.294542	140.395613
05324	NaN	9.762524	0.429451	0.104106	0.001143	0.005197	0.001538	71.963174	-87.294676	140.451885
05325	NaN	9.787993	0.411545	0.119741	-0.004781	0.004429	0.002322	71.909070	-87.295356	140.502984
05326	NaN	9.767701	0.422528	0.127874	-0.001563	0.002631	0.000518	71.884877	-87.295391	140.526065
05327	NaN	9.793167	0.404729	0.143204	0.000525	0.000867	0.001153	71.879263	-87.296066	140.531663
05328	NaN	9.759964	0.454160	0.138947	-0.001655	-0.000832	0.001285	71.892209	-87.297138	140.517491
05329	NaN	9.782831	0.417726	0.097492	0.002489	0.003864	0.000060	71.857277	-87.296685	140.553567
05330	NaN	9.772880	0.415539	0.151422	-0.000821	0.002199	0.002631	71.830398	-87.297937	140.579450
05331	NaN	9.767709	0.422047	0.128846	0.002273	0.005162	-0.000900	71.784019	-87.296727	140.626861
05332	NaN	9.767703	0.422066	0.129225	-0.001563	0.002631	0.000518	71.760424	-87.296771	140.649421
05333	NaN	9.778042	0.408746	0.175305	0.001051	0.001734	0.002305	71.740703	-87.297918	140.669444
05334	NaN	9.788006	0.410632	0.121792	0.000525	0.000867	0.001153	71.735721	-87.298620	140.674590
05335	NaN	9.767711	0.421768	0.129642	0.001655	0.000832	-0.001285	71.740391	-87.297974	140.670541
05336	NaN	9.782844	0.417103	0.098864	-0.004966	-0.002496	0.003856	71.760701	-87.300748	140.647082
05337	NaN	9.782851	0.416910	0.098936	0.002490	0.003864	0.000060	71.725745	-87.300290	140.683181
05338	NaN	9.800571	0.430895	0.125286	-0.000821	0.002199	0.002631	71.698622	-87.301546	140.709373
05339	NaN	9.772897	0.414531	0.153120	0.000835	0.003031	0.001346	71.667404	-87.301936	140.740781
05340	NaN	9.800589	0.430355	0.125712	0.000137	0.000470	0.005704	71.649483	-87.305192	140.758705
05341	NaN	9.788049	0.409353	0.122636	-0.001871	0.000466	0.000325	71.650223	-87.305489	140.756568
05342	NaN	9.762602	0.426836	0.107481	-0.000388	-0.000397	0.004551	71.646965	-87.308278	140.759454
05343	NaN	9.788075	0.408714	0.122671	-0.000604	0.000901	0.003591	71.630853	-87.310272	140.774913
05344	NaN	9.772952	0.413133	0.153377	-0.000526	-0.000867	-0.001153	71.654120	-87.310039	140.751164
05345	NaN	9.770360	0.394522	0.096602	-0.001871	0.000466	0.000325	71.654863	-87.310336	140.749023
05346	NaN	9.782914	0.415234	0.099806	0.004052	0.001233	-0.000458	71.654368	-87.310105	140.751531
05347	NaN	9.805800	0.422601	0.148895	-0.000604	0.000901	0.003591	71.638252	-87.312099	140.766995
05348	NaN	9.760411	0.392012	0.150489	-0.003001	0.000501	0.002763	71.628763	-87.313743	140.774471
05349	NaN	9.800661	0.428649	0.125941	0.000432	-0.002596	0.001920	71.660196	-87.315460	140.742929
05350	NaN	9.767817	0.419049	0.130494	0.001655	0.000832	-0.001285	71.665148	-87.314850	140.738790
05351	NaN	9.775552	0.387230	0.119573	0.000216	-0.001298	0.000960	71.685116	-87.315810	140.718600
05352	NaN	9.767825	0.418817	0.130581	-0.002166	0.003532	0.004109	71.636364	-87.317658	140.766162
05353	NaN	9.785551	0.432707	0.156843	-0.001871	0.000466	0.000325	71.637111	-87.317955	140.764017
05354	NaN	9.803253	0.402891	0.092367	-0.001871	0.000466	0.000325	71.638705	-87.318290	140.761067
05355	NaN	9.805850	0.421327	0.149227	-0.002475	0.001367	0.003916	71.614788	-87.320377	140.783266
05356	NaN	9.788142	0.406897	0.123348	-0.000820	0.002199	0.002631	71.587675	-87.321642	140.809344
05357	NaN	9.785584	0.431803	0.157242	0.001483	-0.000863	0.004226	71.590700	-87.324300	140.806843
05358	NaN	9.788175	0.406116	0.123375	-0.002259	0.000069	0.004876	71.578144	-87.327167	140.817552
05359	NaN	9.788194	0.405636	0.123391	-0.002259	0.000069	0.004876	71.565627	-87.330009	140.828463
05360	NaN	9.788210	0.405254	0.123391	0.003139	-0.000031	0.002941	71.566160	-87.331879	140.829921
05361	NaN	9.767934	0.416166	0.130919	0.000122	-0.004761	0.001727	71.623612	-87.333884	140.772154
05362	NaN	9.785668	0.430055	0.156856	-0.000820	0.002199	0.002631	71.596727	-87.335185	140.798954
05363	NaN	9.775672	0.384033	0.120072	-0.000216	0.001298	-0.000960	71.593708	-87.334633	140.801529
05364	NaN	9.747658	0.427040	0.138646	-0.004362	-0.003397	0.000265	71.638910	-87.335619	140.752878
05365	NaN	9.813334	0.402177	0.038562	0.002613	-0.000898	0.001788	71.652514	-87.336957	140.740434
05366	NaN	9.732534	0.431388	0.169602	-0.000848	0.010423	0.000137	71.539224	-87.335395	140.852975
05367	NaN	9.760541	0.388495	0.151168	0.000726	-0.005662	-0.001864	71.621561	-87.335612	140.770641
05368	NaN	9.795637	0.431985	0.103554	0.000526	0.000866	0.001153	71.616048	-87.336330	140.776230
05369	NaN	9.775668	0.384010	0.120425	-0.002303	0.003062	-0.001595	71.593682	-87.335114	140.796976
05370	NaN	9.783067	0.411393	0.100670	-0.000310	-0.002165	-0.000193	71.628878	-87.335661	140.761547
05371	NaN	9.762776	0.422604	0.108372	0.001655	0.000832	-0.001285	71.633631	-87.335016	140.757415
05372	NaN	9.793377	0.398399	0.146542	0.001655	0.000832	-0.001285	71.639412	-87.334426	140.752380
05373	NaN	9.803340	0.400605	0.092995	-0.002613	0.000898	-0.001788	71.642893	-87.333496	140.747074
05374	NaN	9.762755	0.423030	0.108619	0.001655	0.000832	-0.001285	71.647858	-87.332885	140.742368
05375	NaN	9.767902	0.416729	0.131502	0.000078	-0.001768	-0.004744	71.695403	-87.330827	140.694494
05376	NaN	9.767890	0.416998	0.131585	0.000094	0.003463	-0.000767	71.667408	-87.330033	140.721933
05377	NaN	9.803306	0.401376	0.093258	0.001871	-0.000466	-0.000325	71.683698	-87.330144	140.706375
05378	NaN	9.783001	0.412846	0.101146	-0.000044	0.002993	-0.006471	71.683428	-87.326349	140.706418
05379	NaN	9.788150	0.406463	0.124203	0.000742	-0.000432	0.002113	71.689248	-87.327779	140.700694
05380	NaN	9.773014	0.411067	0.154940	0.000914	0.001263	-0.003398	71.698101	-87.325966	140.691990
05381	NaN	9.820993	0.416157	0.119639	0.000742	-0.000431	0.002113	71.703929	-87.327397	140.686258
05382	NaN	9.750132	0.403675	0.106125	0.001224	0.003428	-0.003205	71.687066	-87.325299	140.703404
05383	NaN	9.805843	0.420957	0.150712	-0.000216	0.001298	-0.000960	71.684040	-87.324747	140.705986
05384	NaN	9.788134	0.406617	0.124920	0.002628	0.004333	0.005765	71.622098	-87.327342	140.768562
05385	NaN	9.780414	0.438044	0.136130	-0.000820	0.002199	0.002631	71.594331	-87.328579	140.795565
05386	NaN	9.808440	0.394940	0.117766	0.002491	0.003863	0.000061	71.559708	-87.328174	140.831372
05387	NaN	9.752727	0.421523	0.164261	-0.000078	0.001768	0.004744	71.529133	-87.330636	140.861612
05388	NaN	9.780434	0.437375	0.136847	-0.001346	0.001333	0.001478	71.516398	-87.331450	140.872916
05389	NaN	9.788173	0.405296	0.126147	0.001577	0.002599	0.003459	71.482013	-87.333062	140.907920
05390	NaN	9.800747	0.425660	0.129341	-0.000914	-0.001263	0.003398	71.492964	-87.335412	140.896223
05391	NaN	9.783040	0.411363	0.103348	-0.001561	0.002631	0.000518	71.467863	-87.335420	140.920131
05392	NaN	9.788199	0.404565	0.126460	-0.000604	0.000901	0.003591	71.452353	-87.337455	140.934431
05393	NaN	9.793358	0.397749	0.149598	-0.003432	0.003097	0.000843	71.419441	-87.337553	140.965087
05394	NaN	9.767920	0.415305	0.134615	-0.003001	0.000501	0.002763	71.410038	-87.339206	140.971824
05395	NaN	9.795628	0.431249	0.107334	0.001146	0.005195	0.001539	71.352472	-87.339297	141.029787
05396	NaN	9.755363	0.394239	0.132187	-0.001035	0.003497	0.001671	71.313703	-87.339810	141.067041
05397	NaN	9.788222	0.403584	0.127843	-0.000819	0.002199	0.002631	71.285669	-87.341040	141.094311
05398	NaN	9.775664	0.382702	0.124859	0.000526	0.000866	0.001153	71.281015	-87.341788	141.099210
05399	NaN	9.800798	0.423937	0.131146	0.000741	-0.000432	0.002113	71.286655	-87.343221	141.093665
05400	NaN	9.788240	0.403081	0.128031	0.000526	0.000866	0.001153	71.281145	-87.343945	141.098894
05401	NaN	9.775671	0.382412	0.125171	-0.000120	0.004760	-0.001727	71.240801	-87.342339	141.138888
05402	NaN	9.808520	0.392061	0.120675	-0.000310	-0.002164	-0.000193	71.276633	-87.342931	141.103129
05403	NaN	9.775358	0.441584	0.116433	0.000836	0.003031	0.001346	71.244875	-87.343311	141.135077
05404	NaN	9.755379	0.393471	0.133286	0.000526	0.000866	0.001153	71.239702	-87.344041	141.139969
05405	NaN	9.788233	0.403033	0.128741	0.001656	0.000832	-0.001285	71.244565	-87.343398	141.135726
05406	NaN	9.788230	0.403097	0.128779	-0.000000	-0.000000	0.000000	71.254272	-87.343689	141.126039
05407	NaN	9.793374	0.396525	0.151767	0.004053	0.001232	-0.000456	71.252542	-87.343421	141.129772
05408	NaN	9.780495	0.435025	0.139943	0.000095	0.003462	-0.000767	71.224491	-87.342645	141.157608
05409	NaN	9.793368	0.396462	0.152320	-0.004562	0.003132	0.003280	71.180751	-87.344053	141.198454
05410	NaN	9.783088	0.409390	0.106588	0.000741	-0.000432	0.002113	71.187457	-87.345568	141.192080
05411	NaN	9.793386	0.395924	0.152561	0.001578	0.002599	0.003459	71.152693	-87.347171	141.227463
05412	NaN	9.800816	0.422928	0.133073	0.001363	0.003897	0.002499	71.107335	-87.348088	141.273433
05413	NaN	9.747676	0.424297	0.145611	0.000741	-0.000432	0.002113	71.112894	-87.349522	141.267969
05414	NaN	9.780534	0.433792	0.141034	-0.000215	0.001298	-0.000960	71.110444	-87.349034	141.269855
05415	NaN	9.777974	0.415126	0.084481	0.000837	0.003030	0.001346	71.078590	-87.349409	141.301899
05416	NaN	9.767961	0.413058	0.138502	0.002278	0.005160	-0.000898	71.032441	-87.348240	141.348995
05417	NaN	9.788245	0.401923	0.131234	-0.001249	0.004795	0.000711	70.981314	-87.347940	141.399137
05418	NaN	9.773101	0.406213	0.162141	-0.000389	-0.000397	0.004551	70.977098	-87.350781	141.403328
05419	NaN	9.767969	0.412661	0.139118	0.001345	-0.001333	-0.001478	71.007971	-87.350438	141.372871
05420	NaN	9.800827	0.422227	0.134476	0.000526	0.000866	0.001153	71.003231	-87.351190	141.377665
05421	NaN	9.783120	0.408135	0.108481	0.001656	0.000831	-0.001284	71.008166	-87.350548	141.373352
05422	NaN	9.800822	0.422281	0.134618	-0.001871	0.000467	0.000324	71.009663	-87.350919	141.370443
05423	NaN	9.775392	0.440015	0.119537	0.002182	0.001698	-0.000131	71.000108	-87.350740	141.380936
05424	NaN	9.788257	0.401547	0.131497	-0.000096	-0.003462	0.000767	71.047007	-87.352085	141.333609
05425	NaN	9.788260	0.401500	0.131433	0.000311	0.002164	0.000193	71.029602	-87.351995	141.350888
05426	NaN	9.780535	0.433316	0.142452	-0.001871	0.000467	0.000324	71.031433	-87.352365	141.347480
05427	NaN	9.783123	0.407997	0.108695	0.000526	0.000866	0.001153	71.025489	-87.353038	141.353408
05428	NaN	9.735116	0.402887	0.144080	0.000526	0.000866	0.001153	71.020673	-87.353779	141.357918
05429	NaN	9.775404	0.439661	0.119811	0.000311	0.002164	0.000193	71.003258	-87.353689	141.375206
05430	NaN	9.783129	0.407754	0.109071	0.000526	0.000866	0.001153	70.998079	-87.354434	141.380307
05431	NaN	9.803416	0.396695	0.101411	0.005183	0.001196	-0.002893	71.007257	-87.352852	141.373769
05432	NaN	9.755395	0.391900	0.136718	-0.000526	-0.000866	-0.001153	71.031600	-87.352681	141.348822
05433	NaN	9.788248	0.401633	0.131954	0.000819	-0.002199	-0.002631	71.076973	-87.351873	141.303547
05434	NaN	9.795666	0.429164	0.112143	0.001441	0.002129	-0.002245	71.071620	-87.350546	141.309226
05435	NaN	9.777954	0.415268	0.086115	-0.002923	-0.001266	-0.001982	71.101273	-87.349915	141.277541
05436	NaN	9.767933	0.413337	0.139658	0.001871	-0.000467	-0.000324	71.118754	-87.350115	141.260809
05437	NaN	9.762787	0.420098	0.116780	-0.000956	0.001729	-0.003073	71.118810	-87.348336	141.259881
05438	NaN	9.805910	0.416684	0.158061	0.001345	-0.001333	-0.001477	71.150748	-87.348070	141.228311
05439	NaN	9.775645	0.381877	0.128773	-0.003527	-0.000365	0.001609	71.155118	-87.349218	141.221590
05440	NaN	9.772796	0.422366	0.062989	0.003217	-0.001799	-0.001802	71.195026	-87.348870	141.183320
05441	NaN	9.783070	0.409276	0.108666	-0.000311	-0.002164	-0.000193	71.229526	-87.349372	141.148281
05442	NaN	9.770503	0.388744	0.105185	0.002380	-0.004830	-0.003148	71.309738	-87.348841	141.068944
05443	NaN	9.788199	0.403106	0.131039	-0.000741	0.000432	-0.002113	71.321191	-87.347822	141.056730
05444	NaN	9.821042	0.412904	0.126637	-0.000645	0.003894	-0.002880	71.296304	-87.345833	141.080873
05445	NaN	9.773019	0.408133	0.162261	-0.000430	0.002596	-0.001920	71.281837	-87.344520	141.094785
05446	NaN	9.773011	0.408282	0.162347	-0.000526	-0.000866	-0.001153	71.306542	-87.344360	141.069647
05447	NaN	9.755302	0.394409	0.136188	0.000605	-0.000901	-0.003591	71.340176	-87.342783	141.036000
05448	NaN	9.767862	0.415238	0.139030	-0.002277	-0.005160	0.000899	71.405639	-87.344525	140.969299
05449	NaN	9.783009	0.410901	0.108059	0.004132	-0.000536	-0.005200	71.443285	-87.342005	140.933659
05450	NaN	9.788137	0.404660	0.130906	-0.002923	-0.001267	-0.001982	71.474141	-87.341469	140.901220
05451	NaN	9.788137	0.404708	0.130786	0.000215	-0.001298	0.000960	71.494243	-87.342432	140.880896
05452	NaN	9.780406	0.436484	0.141635	-0.001871	0.000466	0.000324	71.495861	-87.342802	140.877467
05453	NaN	9.750146	0.401589	0.112523	-0.001346	0.001333	0.001478	71.482251	-87.343568	140.889996
05454	NaN	9.785551	0.429717	0.164841	0.000311	0.002164	0.000193	71.466119	-87.343588	140.906449
05455	NaN	9.783003	0.411026	0.108094	0.002086	-0.001764	0.000636	71.494041	-87.344460	140.879370
05456	NaN	9.762710	0.422193	0.115714	-0.000526	-0.000866	-0.001153	71.518093	-87.344288	140.854763
05457	NaN	9.783006	0.411005	0.107898	0.000741	-0.000431	0.002113	71.523863	-87.345720	140.849088
05458	NaN	9.788154	0.404258	0.130893	-0.005614	0.001399	0.000973	71.510284	-87.346286	140.858978
05459	NaN	9.783012	0.410809	0.108114	0.002182	0.001698	-0.000131	71.500713	-87.346111	140.869487
05460	NaN	9.767858	0.415363	0.138882	-0.000000	-0.000000	0.000000	71.510736	-87.346413	140.859207
05461	NaN	9.788145	0.404398	0.131085	0.000605	-0.000901	-0.003591	71.544275	-87.344830	140.825655
05462	NaN	9.767840	0.415817	0.138814	-0.000741	0.000431	-0.002113	71.556971	-87.343905	140.812304
05463	NaN	9.770419	0.390897	0.105031	0.000390	0.000397	-0.004551	71.578874	-87.341564	140.790278
05464	NaN	9.800662	0.426076	0.134344	-0.000956	0.001729	-0.003073	71.579737	-87.339868	140.788224
05465	NaN	9.750097	0.402686	0.112864	0.000820	-0.002199	-0.002631	71.624726	-87.339040	140.743333
05466	NaN	9.780345	0.437726	0.141986	-0.000741	0.000431	-0.002113	71.637261	-87.338120	140.730339
05467	NaN	9.800636	0.426691	0.134257	-0.000000	0.000000	0.000000	71.645814	-87.338325	140.721454
05468	NaN	9.772922	0.410629	0.161755	-0.002922	-0.001267	-0.001982	71.675720	-87.337761	140.689374
05469	NaN	9.782930	0.412791	0.108046	0.001871	-0.000466	-0.000324	71.692055	-87.337873	140.673770
05470	NaN	9.760359	0.390185	0.158401	0.000820	-0.002199	-0.002631	71.738400	-87.337134	140.627454
05471	NaN	9.810622	0.429418	0.080173	0.002476	-0.001367	-0.003915	71.779459	-87.335452	140.587447
05472	NaN	9.740039	0.401950	0.166041	-0.004699	0.002661	-0.002424	71.764773	-87.333959	140.599283
05473	NaN	9.775152	0.445557	0.118587	0.001251	-0.004795	-0.000711	71.832823	-87.334633	140.531553
05474	NaN	9.782884	0.413959	0.107691	0.001010	0.004725	-0.004165	71.803833	-87.331819	140.560876
05475	NaN	9.788017	0.407645	0.130606	-0.001146	-0.005195	-0.001539	71.878315	-87.332112	140.485332
05476	NaN	9.782866	0.414472	0.107398	-0.001266	-0.000435	-0.003266	71.904976	-87.330708	140.457577
05477	NaN	9.780255	0.439994	0.141200	0.001131	-0.000035	-0.002438	71.923874	-87.329589	140.438984
05478	NaN	9.787992	0.408342	0.130346	0.001656	0.000832	-0.001285	71.929336	-87.329042	140.434369
05479	NaN	9.767689	0.419529	0.138241	0.000310	0.002164	0.000193	71.912051	-87.328964	140.451527
05480	NaN	9.793128	0.401860	0.153568	0.001656	0.000832	-0.001285	71.918468	-87.328421	140.445776
05481	NaN	9.795382	0.435914	0.110888	-0.000741	0.000431	-0.002113	71.929601	-87.327396	140.433883
05482	NaN	9.755118	0.399269	0.135144	-0.001361	-0.003898	-0.002499	71.993477	-87.327026	140.368932
05483	NaN	9.762518	0.426751	0.115191	0.001656	0.000832	-0.001285	71.998132	-87.326381	140.364899
05484	NaN	9.767655	0.420343	0.138161	0.001131	-0.000035	-0.002438	72.018431	-87.325365	140.345085
05485	NaN	9.795351	0.436675	0.110665	-0.000215	0.001298	-0.000960	72.015343	-87.324814	140.347730
05486	NaN	9.787939	0.409529	0.130555	-0.000741	0.000431	-0.002113	72.027279	-87.323868	140.334613
05487	NaN	9.795335	0.436992	0.110811	0.001656	0.000832	-0.001285	72.031920	-87.323222	140.330594
05488	NaN	9.762481	0.427536	0.115425	-0.000525	-0.000867	-0.001153	72.055744	-87.323040	140.306002
05489	NaN	9.787921	0.409967	0.130513	-0.002922	-0.001267	-0.001982	72.084854	-87.322385	140.274860
05490	NaN	9.762467	0.427885	0.115295	-0.000741	0.000431	-0.002113	72.096803	-87.321470	140.262744
05491	NaN	9.782763	0.416827	0.107658	0.004578	0.002099	0.000697	72.080864	-87.321681	140.281002
05492	NaN	9.793051	0.403718	0.153649	-0.000741	0.000431	-0.002113	72.092711	-87.320751	140.268510
05493	NaN	9.767600	0.421566	0.138354	0.001562	-0.002630	-0.000517	72.134731	-87.321133	140.227017
05494	NaN	9.787896	0.410584	0.130466	0.001131	-0.000035	-0.002438	72.154790	-87.320118	140.207519
05495	NaN	9.782735	0.417526	0.107438	0.000081	-0.001768	-0.004744	72.201727	-87.318041	140.160253
05496	NaN	9.767567	0.422437	0.138050	-0.003137	0.000030	-0.002942	72.220167	-87.316726	140.139600
05497	NaN	9.747265	0.433629	0.145656	0.002303	-0.003061	0.001596	72.259712	-87.318332	140.101009
05498	NaN	9.774964	0.449800	0.118099	-0.002303	0.003061	-0.001596	72.238352	-87.317225	140.120773
05499	NaN	9.787858	0.411581	0.130195	0.000821	-0.002199	-0.002631	72.282757	-87.316373	140.076467
05500	NaN	9.787852	0.411784	0.130018	0.001346	-0.001332	-0.001478	72.314317	-87.316098	140.045351
05501	NaN	9.782701	0.418429	0.107040	-0.001872	0.000466	0.000325	72.315146	-87.316394	140.043124
05502	NaN	9.797849	0.413997	0.076372	0.001131	-0.000035	-0.002438	72.335401	-87.315390	140.023781
05503	NaN	9.800381	0.432901	0.133019	0.000821	-0.002199	-0.002630	72.379745	-87.314535	139.979535
05504	NaN	9.762378	0.430065	0.114684	-0.002087	0.001763	-0.000636	72.370946	-87.314181	139.986592
05505	NaN	9.780432	0.385134	0.149683	0.005615	-0.001397	-0.000974	72.402552	-87.314090	139.957850
05506	NaN	9.782680	0.418969	0.106838	0.000741	-0.000431	0.002113	72.409952	-87.315610	139.950271
05507	NaN	9.767532	0.423376	0.137638	-0.001562	0.002630	0.000517	72.385044	-87.315636	139.973987
05508	NaN	9.782680	0.418868	0.107222	0.001966	0.002996	-0.001092	72.364934	-87.314819	139.994960
05509	NaN	9.777524	0.425564	0.084569	0.001966	0.002996	-0.001092	72.343752	-87.313902	140.016969
05510	NaN	9.792960	0.405942	0.153574	-0.002612	0.000896	-0.001789	72.348691	-87.313082	140.010415
05511	NaN	9.787800	0.412765	0.130772	-0.000956	0.001728	-0.003073	72.347936	-87.311303	140.010299
05512	NaN	9.762344	0.430597	0.115581	0.002087	-0.001763	0.000636	72.377032	-87.312244	139.981617
05513	NaN	9.800343	0.433444	0.133998	0.001360	0.003898	0.002499	72.331742	-87.313131	140.027413
05514	NaN	9.777505	0.425890	0.085200	-0.000740	0.000431	-0.002113	72.344141	-87.312221	140.014727
05515	NaN	9.802947	0.408378	0.100354	-0.002922	-0.001268	-0.001982	72.373063	-87.311559	139.983774
05516	NaN	9.770097	0.398903	0.104888	0.001872	-0.000466	-0.000324	72.390503	-87.311758	139.966860
05517	NaN	9.782639	0.419630	0.107995	-0.000000	-0.000000	0.000000	72.399025	-87.311957	139.958004
05518	NaN	9.754935	0.403532	0.135705	-0.002303	0.003061	-0.001596	72.377710	-87.310866	139.977950
05519	NaN	9.808074	0.402233	0.123473	-0.001265	-0.000436	-0.003266	72.402620	-87.309357	139.951963
05520	NaN	9.779996	0.445385	0.142259	0.000094	0.003462	-0.000767	72.374867	-87.308623	139.978923
05521	NaN	9.808055	0.402544	0.123948	-0.002302	0.003061	-0.001596	72.352403	-87.307420	139.999767
05522	NaN	9.787744	0.413760	0.131826	0.001872	-0.000465	-0.000324	72.370185	-87.307618	139.982257
05523	NaN	9.767436	0.424945	0.139612	-0.000215	0.001298	-0.000960	72.367045	-87.307067	139.984954
05524	NaN	9.770050	0.399794	0.105917	-0.000215	0.001298	-0.000960	72.365251	-87.306622	139.986212
05525	NaN	9.808035	0.402924	0.124317	0.003528	0.000367	-0.001609	72.377454	-87.305879	139.975697
