// General information: 
//  MT Manager version: 2022.2.0 
//  XDA version: 2022.2.0 build 7381 rev 124627 built on 2023-07-19
// Device information: 
//  DeviceId: 00B4BB4E
//  ProductCode: MTW2-3A7G6
//  Firmware Version: 4.6.0
//  Hardware Version: 2.0.0
// Device settings: 
//  Filter Profile: human(46.1)
//  Option Flags: Orientation Smoother Disabled, Position/Velocity Smoother Disabled, Continuous Zero Rotation Update Disabled, AHS Disabled, ICC Disabled
// Coordinate system: ENU
PacketCounter	SampleTimeFine	Acc_X	Acc_Y	Acc_Z	Gyr_X	Gyr_Y	Gyr_Z	Roll	Pitch	Yaw
04304	NaN	9.284663	-1.091958	-2.668695	-0.001948	-0.006178	-0.107733	-161.789594	-73.730890	-30.933410
04305	NaN	9.311039	-1.148836	-2.594780	-0.007385	-0.002349	-0.119201	-162.009028	-73.748734	-30.709130
04306	NaN	9.451464	-1.084962	-2.682319	0.010887	0.002218	-0.117975	-162.213047	-73.768126	-30.489847
04307	NaN	9.355491	-1.105772	-2.732488	0.028463	0.016040	-0.116554	-162.396977	-73.795102	-30.281199
04308	NaN	9.289131	-1.011646	-2.583835	0.086330	-0.001819	-0.134162	-162.591652	-73.814660	-30.026679
04309	NaN	9.409714	-0.711034	-2.442722	0.053459	-0.007097	-0.138846	-162.818080	-73.832369	-29.758914
04310	NaN	9.481627	-0.612060	-2.597115	-0.011524	-0.000568	-0.130345	-163.061971	-73.851424	-29.511573
04311	NaN	9.360971	-0.590553	-2.674971	-0.028875	0.000017	-0.116740	-163.290710	-73.868754	-29.290560
04312	NaN	9.342903	-0.649355	-2.700767	-0.027363	-0.008945	-0.118208	-163.526451	-73.880665	-29.061195
04313	NaN	9.494384	-0.581195	-2.638855	-0.022201	0.002271	-0.121283	-163.759654	-73.899466	-28.831589
04314	NaN	9.577627	-0.491572	-2.772973	-0.064784	0.021613	-0.110504	-163.986187	-73.926457	-28.634169
04315	NaN	9.395028	-0.560370	-3.044572	-0.100002	0.037922	-0.112632	-164.229280	-73.963029	-28.440720
04316	NaN	9.194858	-0.642006	-2.937191	-0.068085	0.023696	-0.122957	-164.482174	-73.992622	-28.217907
04317	NaN	9.293366	-0.568337	-2.681983	-0.060988	0.018698	-0.114497	-164.718548	-74.018397	-28.008255
04318	NaN	9.516865	-0.641930	-2.859077	-0.077051	0.044070	-0.091545	-164.906851	-74.054040	-27.858029
04319	NaN	9.529224	-0.824104	-2.959868	-0.033617	0.068792	-0.088077	-165.051781	-74.103230	-27.727237
04320	NaN	9.480251	-0.836090	-2.714874	-0.005368	0.065583	-0.123429	-165.251659	-74.155210	-27.522345
04321	NaN	9.458901	-0.606275	-2.800521	-0.069917	0.074112	-0.130596	-165.499969	-74.213251	-27.305790
04322	NaN	9.539880	-0.454963	-3.082606	-0.134318	0.095216	-0.123187	-165.761406	-74.281167	-27.113819
04323	NaN	9.368127	-0.445600	-3.282583	-0.173185	0.109039	-0.107852	-166.010191	-74.354911	-26.958370
04324	NaN	9.231174	-0.437830	-2.972718	-0.164485	0.105254	-0.110972	-166.263669	-74.426242	-26.792741
04325	NaN	9.372746	-0.515146	-2.531743	-0.134128	0.120324	-0.112352	-166.497401	-74.506511	-26.629801
04326	NaN	9.512382	-0.737878	-2.381874	-0.153018	0.144295	-0.109714	-166.726974	-74.599056	-26.482285
04327	NaN	9.558290	-1.019903	-2.486247	-0.124922	0.144619	-0.116531	-166.956661	-74.693070	-26.318211
04328	NaN	9.464010	-1.002024	-2.443630	-0.101499	0.128690	-0.115979	-167.181285	-74.777395	-26.145354
04329	NaN	9.441207	-0.755910	-2.451681	-0.064613	0.107037	-0.114405	-167.394017	-74.849796	-25.963174
04330	NaN	9.410565	-0.564706	-2.515730	-0.071562	0.099799	-0.098490	-167.582467	-74.915457	-25.810139
04331	NaN	9.430244	-0.489338	-2.420979	-0.040684	0.089088	-0.093790	-167.750142	-74.974971	-25.660532
04332	NaN	9.507138	-0.459164	-2.290414	-0.022727	0.092954	-0.089125	-167.896820	-75.035437	-25.521861
04333	NaN	9.231196	-0.379015	-2.294665	-0.065607	0.111001	-0.087946	-168.059171	-75.106321	-25.392633
04334	NaN	9.129580	-0.883494	-2.335425	-0.041296	0.077445	-0.110421	-168.270926	-75.160391	-25.197727
04335	NaN	9.481756	-0.873628	-2.227864	0.027717	0.066741	-0.128658	-168.488396	-75.210898	-24.956243
04336	NaN	9.538887	-0.945862	-2.609399	-0.031686	0.077076	-0.132394	-168.744569	-75.266856	-24.709799
04337	NaN	9.625063	-1.000725	-2.719476	0.000993	0.055674	-0.129643	-168.987460	-75.310726	-24.457977
04338	NaN	9.825841	-0.739826	-2.578257	0.082182	0.069111	-0.120510	-169.159391	-75.360397	-24.231277
04339	NaN	9.751795	-0.437242	-2.652286	0.068131	0.099389	-0.103719	-169.292729	-75.425692	-24.053036
04340	NaN	9.519440	-0.223722	-2.643872	0.114500	0.112492	-0.110405	-169.409384	-75.498438	-23.864433
04341	NaN	9.377240	0.216081	-2.573020	0.123951	0.136716	-0.127244	-169.549979	-75.587023	-23.645790
04342	NaN	9.171685	0.331233	-2.382011	0.073207	0.146465	-0.133338	-169.730920	-75.681037	-23.415403
04343	NaN	9.271902	-0.045523	-2.314050	0.069655	0.119904	-0.135731	-169.933003	-75.760661	-23.165586
04344	NaN	9.544962	-0.237261	-2.347890	0.080857	0.122798	-0.111307	-170.074931	-75.838771	-22.971094
04345	NaN	9.530304	-0.712379	-2.628761	0.049106	0.137988	-0.093102	-170.190590	-75.924093	-22.822711
04346	NaN	9.696612	-0.788347	-2.690954	0.091194	0.123062	-0.076998	-170.252461	-75.998829	-22.704779
04347	NaN	9.726179	-0.569069	-2.707836	0.180247	0.142867	-0.064508	-170.228480	-76.084060	-22.622964
04348	NaN	9.474252	-0.076969	-2.514220	0.190778	0.160505	-0.045472	-170.147615	-76.176856	-22.593361
04349	NaN	9.394765	-0.031237	-2.396435	0.202468	0.160006	-0.034631	-170.035422	-76.268867	-22.589326
04350	NaN	9.489591	0.147067	-2.284509	0.203483	0.168741	-0.025897	-169.897547	-76.364378	-22.610926
04351	NaN	9.481404	0.211452	-2.443705	0.103879	0.168599	-0.006117	-169.770062	-76.458354	-22.680741
04352	NaN	9.446953	0.054841	-2.511310	0.064169	0.160591	0.011466	-169.625741	-76.545424	-22.791067
04353	NaN	9.645659	0.003109	-2.264848	0.072393	0.169049	0.011591	-169.471337	-76.637731	-22.907048
04354	NaN	9.677521	-0.030100	-2.338977	0.015426	0.194806	0.014956	-169.327998	-76.743563	-23.044974
04355	NaN	9.468729	-0.139862	-2.523764	-0.000952	0.210325	0.025883	-169.158550	-76.857430	-23.219471
04356	NaN	9.401597	-0.337568	-2.161440	0.073882	0.198941	0.037985	-168.918976	-76.962874	-23.421697
04357	NaN	9.433113	-0.340152	-1.731538	0.133655	0.190835	0.050953	-168.613768	-77.062655	-23.656219
04358	NaN	9.402740	-0.519234	-1.867449	0.121232	0.183231	0.063338	-168.284886	-77.155912	-23.922083
04359	NaN	9.410801	-0.616533	-2.046850	0.145929	0.162527	0.061910	-167.951955	-77.237926	-24.177650
04360	NaN	9.498572	-0.427486	-1.864216	0.193002	0.138575	0.056991	-167.613376	-77.306256	-24.411110
04361	NaN	9.561113	-0.270351	-2.046082	0.148060	0.142837	0.072613	-167.256237	-77.375242	-24.690092
04362	NaN	9.566652	-0.026396	-2.094410	0.178726	0.142091	0.097493	-166.816099	-77.439664	-25.035893
04363	NaN	9.493021	0.246421	-1.904482	0.170004	0.150651	0.124220	-166.304613	-77.505192	-25.459963
04364	NaN	9.579941	0.178731	-1.720649	0.180336	0.145149	0.127439	-165.777883	-77.565876	-25.893351
04365	NaN	9.529258	0.211668	-1.596726	0.128803	0.139690	0.113586	-165.314506	-77.625205	-26.292133
04366	NaN	9.363401	0.053163	-1.921580	0.027816	0.115770	0.104006	-164.945945	-77.671601	-26.652877
04367	NaN	9.191043	-0.163171	-2.242691	-0.007561	0.095972	0.115101	-164.580313	-77.705357	-27.031440
04368	NaN	9.385707	-0.564665	-2.189941	0.042583	0.068352	0.128422	-164.170475	-77.720805	-27.425680
04369	NaN	9.821082	-0.667663	-1.976303	0.068458	0.088913	0.152595	-163.667907	-77.743532	-27.899744
04370	NaN	9.847120	-0.604384	-2.328271	0.052878	0.143015	0.179930	-163.062319	-77.790035	-28.488183
04371	NaN	9.624845	-0.504375	-2.377350	0.110602	0.160219	0.197565	-162.360022	-77.841986	-29.141724
04372	NaN	9.611105	-0.516588	-1.902044	0.176238	0.150705	0.186865	-161.650104	-77.888463	-29.764362
04373	NaN	9.572917	-0.415352	-1.541766	0.183174	0.155932	0.179723	-160.944036	-77.937945	-30.378997
04374	NaN	9.308987	-0.650708	-1.963926	0.056527	0.143035	0.182159	-160.311592	-77.978032	-30.992331
04375	NaN	9.368432	-1.102747	-2.060558	0.163898	0.126634	0.172580	-159.652320	-78.010176	-31.570230
04376	NaN	9.366249	-1.102595	-1.325709	0.241846	0.127707	0.144942	-159.014605	-78.046661	-32.080239
04377	NaN	9.512672	-1.250683	-1.239639	0.182701	0.113709	0.138295	-158.437362	-78.076388	-32.563140
04378	NaN	9.598359	-1.161696	-1.636097	0.112150	0.122604	0.141500	-157.881416	-78.108743	-33.065448
04379	NaN	9.594904	-1.385572	-1.862751	0.105614	0.128542	0.129453	-157.349872	-78.146317	-33.546666
04380	NaN	9.702847	-1.462848	-1.754816	0.176589	0.119831	0.091131	-156.880792	-78.186529	-33.922357
04381	NaN	9.739165	-1.195146	-2.016116	0.077724	0.133457	0.052410	-156.547876	-78.242577	-34.216842
04382	NaN	9.610311	-0.958773	-2.679731	-0.000982	0.159088	0.045002	-156.247709	-78.313003	-34.523752
04383	NaN	9.472622	-0.207465	-2.839382	0.077334	0.198693	0.069443	-155.791156	-78.398503	-34.944550
04384	NaN	9.479010	0.105723	-3.086261	0.022239	0.207679	0.108768	-155.249396	-78.478120	-35.484295
04385	NaN	9.818048	0.332647	-2.710408	0.107224	0.240251	0.107763	-154.613819	-78.574259	-36.070036
04386	NaN	9.757601	0.358015	-2.549123	-0.145843	0.265634	0.110330	-154.076248	-78.681162	-36.703372
04387	NaN	9.645291	-0.170377	-3.254975	-0.361029	0.278346	0.132587	-153.576424	-78.788351	-37.423824
04388	NaN	9.748363	-0.873789	-3.503847	-0.407384	0.305538	0.152372	-153.005568	-78.902503	-38.243343
04389	NaN	9.802041	-1.185271	-3.286453	-0.381861	0.369658	0.152763	-152.314779	-79.047973	-39.169914
04390	NaN	9.714811	-1.644689	-3.126115	-0.406959	0.428861	0.123599	-151.610854	-79.228448	-40.123861
04391	NaN	9.697360	-2.111910	-2.767358	-0.362879	0.497334	0.052743	-150.938686	-79.461287	-41.019275
04392	NaN	9.688145	-2.188343	-2.139093	-0.356446	0.561011	-0.010731	-150.303326	-79.741158	-41.872583
04393	NaN	9.623469	-2.470952	-1.757829	-0.356457	0.578482	-0.047558	-149.698885	-80.039258	-42.693902
04394	NaN	9.578789	-2.347821	-1.457910	-0.324670	0.574345	-0.095314	-149.179000	-80.347048	-43.409996
04395	NaN	9.428263	-1.995717	-1.031743	-0.251735	0.569050	-0.135991	-148.704490	-80.663940	-44.037223
04396	NaN	9.181018	-1.323351	-0.705148	-0.286115	0.522073	-0.180832	-148.439732	-80.969815	-44.471178
04397	NaN	9.180490	-0.990776	-0.570814	-0.402897	0.440616	-0.245597	-148.581866	-81.255967	-44.560857
04398	NaN	9.468104	-0.557265	-0.343487	-0.466411	0.401748	-0.286008	-148.974871	-81.534388	-44.433352
04399	NaN	9.562380	-0.152621	-0.716743	-0.721990	0.393556	-0.279493	-149.527231	-81.807452	-44.293077
04400	NaN	9.659600	-0.579519	-1.301118	-0.866672	0.356227	-0.255509	-150.180732	-82.054192	-44.134278
04401	NaN	10.044838	-1.007567	-0.962108	-0.663469	0.369437	-0.205195	-150.527380	-82.293747	-44.167977
04402	NaN	9.905445	-1.357097	-0.414976	-0.483849	0.405793	-0.173968	-150.583930	-82.541965	-44.390306
04403	NaN	9.426680	-1.537658	-0.751395	-0.446589	0.412902	-0.187580	-150.649203	-82.798287	-44.582373
04404	NaN	8.908407	-1.785143	-0.938019	-0.372550	0.343379	-0.232458	-151.011154	-83.031762	-44.432448
04405	NaN	9.193574	-1.563123	-0.929294	-0.277508	0.266713	-0.288186	-151.748611	-83.242475	-43.849710
04406	NaN	9.819013	-1.111538	-1.058896	-0.206454	0.286503	-0.288824	-152.444733	-83.461776	-43.267667
04407	NaN	10.069560	-0.860863	-1.572693	-0.228241	0.333246	-0.259680	-152.952778	-83.697212	-42.887907
04408	NaN	10.030713	-0.689631	-1.648279	-0.116272	0.389326	-0.224091	-153.122518	-83.951046	-42.783879
04409	NaN	9.769542	-0.471999	-0.812705	-0.028143	0.391335	-0.223746	-153.245266	-84.206527	-42.676577
04410	NaN	9.554734	-0.297243	-0.372592	-0.075902	0.407634	-0.253176	-153.519766	-84.477120	-42.444125
04411	NaN	9.571422	-0.289910	-0.874730	-0.182234	0.425346	-0.278004	-153.972781	-84.763710	-42.093874
04412	NaN	9.685750	-0.478353	-1.254912	-0.205404	0.417215	-0.277988	-154.509465	-85.045071	-41.672911
04413	NaN	9.816927	-0.201025	-1.105945	-0.146220	0.398928	-0.275831	-155.108673	-85.316778	-41.155547
04414	NaN	9.747047	0.075951	-1.023024	-0.240212	0.424077	-0.263608	-155.672795	-85.597458	-40.727401
04415	NaN	9.433819	-0.283494	-0.742285	-0.266903	0.419067	-0.277197	-156.434682	-85.879021	-40.116645
04416	NaN	9.591826	-0.679225	-0.667571	-0.283153	0.398686	-0.312325	-157.650679	-86.156107	-39.060021
04417	NaN	9.927896	-1.197331	-0.988622	-0.295538	0.443758	-0.319334	-158.960480	-86.457750	-37.917076
04418	NaN	10.098220	-1.797088	-0.993560	-0.161231	0.480834	-0.342022	-160.507445	-86.781125	-36.459638
04419	NaN	10.046392	-1.483317	-1.036896	-0.064687	0.522934	-0.377275	-162.568807	-87.131719	-34.432383
04420	NaN	9.739170	-0.957507	-1.044154	-0.031566	0.556331	-0.385674	-165.165150	-87.496584	-31.850970
04421	NaN	9.504700	-0.456509	-0.368397	0.097102	0.532608	-0.390021	-168.696726	-87.842676	-28.260700
04422	NaN	9.398809	0.186592	0.036403	0.045564	0.512535	-0.420805	-174.170632	-88.166888	-22.757037
04423	NaN	9.353990	-0.086747	-0.091817	-0.050054	0.514595	-0.467488	177.030471	-88.467921	-13.982975
04424	NaN	9.487147	-0.056831	-0.243340	-0.199004	0.522986	-0.523088	162.928893	-88.711349	0.009086
04425	NaN	9.726371	-0.669536	-0.822660	-0.333536	0.547379	-0.559630	142.687603	-88.846174	20.063828
04426	NaN	9.986107	-1.059979	-0.975546	-0.337075	0.592154	-0.593519	119.078502	-88.811765	43.484901
04427	NaN	9.953501	-1.378259	-1.186179	-0.326617	0.647167	-0.608219	98.378694	-88.599919	64.002765
04428	NaN	9.860660	-1.715585	-0.779323	-0.205962	0.647960	-0.646839	84.511827	-88.239697	77.757105
04429	NaN	10.078000	-1.365501	-0.726065	-0.248134	0.672848	-0.686375	75.411586	-87.787099	86.720577
04430	NaN	9.954729	-1.232121	-0.925125	-0.267773	0.729304	-0.705418	68.916904	-87.277689	93.068032
04431	NaN	9.734461	-1.826659	-0.034133	-0.095704	0.708129	-0.762846	65.001404	-86.719654	96.934056
04432	NaN	10.172914	-2.073794	0.411540	-0.072445	0.691848	-0.859877	62.746710	-86.106947	99.151951
04433	NaN	10.473289	-2.274952	-0.986421	-0.240825	0.795219	-0.900708	60.497961	-85.439496	101.268542
04434	NaN	10.302403	-2.807973	-1.242622	0.058979	0.867563	-0.890450	58.552746	-84.752038	103.255193
04435	NaN	10.453021	-2.153135	-0.416679	0.411662	0.854438	-0.870747	57.253018	-84.072439	104.798200
04436	NaN	10.557518	-0.887448	-0.328535	0.333052	0.855410	-0.807486	56.026067	-83.421081	106.224867
04437	NaN	10.220748	0.475752	0.323077	0.305182	0.839551	-0.755673	54.945313	-82.794935	107.489706
04438	NaN	9.979888	1.764592	0.662570	0.154209	0.760647	-0.731702	54.178454	-82.205335	108.352723
04439	NaN	10.563406	2.341704	0.380038	-0.056767	0.738616	-0.699582	53.402778	-81.635093	109.103422
04440	NaN	10.934025	2.787682	0.614014	-0.196895	0.795022	-0.612866	52.291817	-81.084718	110.113456
04441	NaN	10.707214	2.526649	1.061590	-0.319961	0.811604	-0.510564	50.969354	-80.569842	111.267444
04442	NaN	10.632105	2.308760	0.075073	-0.571177	0.850849	-0.413780	49.332911	-80.079948	112.595944
04443	NaN	10.653387	3.098122	-0.551872	-0.514562	0.875864	-0.224677	47.411474	-79.653410	114.248426
04444	NaN	10.718668	4.860508	0.499790	-0.375736	0.844836	0.015102	45.270535	-79.329902	116.207390
04445	NaN	10.780807	6.893232	1.743381	-0.524347	0.855641	0.215664	42.712340	-79.065963	118.505974
04446	NaN	10.204864	7.796818	1.611417	-1.041024	0.895094	0.287402	39.749154	-78.792923	120.918045
04447	NaN	9.407907	7.266877	0.479216	-1.581035	0.869554	0.216920	36.813631	-78.481629	122.988366
04448	NaN	9.013183	6.147854	-1.639648	-2.429664	0.734895	0.152924	33.888971	-78.192709	124.553773
04449	NaN	9.129706	4.359928	-2.969923	-2.977068	0.607869	0.151199	30.944331	-77.947793	125.820125
04450	NaN	9.252628	3.710240	-2.225960	-3.406749	0.542852	0.185245	27.848942	-77.732614	126.990502
04451	NaN	9.347736	3.449220	-1.109416	-3.877110	0.487444	0.176896	24.639880	-77.529379	128.001715
04452	NaN	9.618949	2.695858	-0.418178	-4.110637	0.442828	0.134265	21.515335	-77.329716	128.790707
04453	NaN	9.464777	1.548904	-1.016580	-4.140202	0.380396	0.187614	18.357608	-77.163666	129.596247
04454	NaN	8.688923	0.401349	-2.508480	-4.214816	0.179377	0.400470	14.843639	-77.134180	130.724384
04455	NaN	8.016424	-1.039095	-3.746172	-4.168506	-0.067804	0.669896	10.834720	-77.259209	132.386337
04456	NaN	8.096029	-1.967847	-3.766970	-3.932635	-0.262467	0.914541	6.360651	-77.489666	134.663064
04457	NaN	8.372453	-2.857630	-3.111185	-3.596203	-0.331913	1.047174	1.623195	-77.722615	137.403980
04458	NaN	8.199903	-3.813570	-2.329271	-3.082046	-0.372321	1.090491	-3.062566	-77.931426	140.391850
04459	NaN	8.082780	-4.009502	-2.485649	-2.758923	-0.503991	1.115939	-7.793821	-78.159404	143.612247
04460	NaN	8.133497	-3.999370	-2.698731	-2.470447	-0.635665	1.143144	-12.643552	-78.404765	147.120343
04461	NaN	8.433834	-3.381099	-2.146544	-2.190578	-0.749630	1.134264	-17.558277	-78.650623	150.854595
04462	NaN	8.712470	-2.961778	-1.402705	-2.008572	-0.808980	1.097994	-22.501880	-78.873351	154.722156
04463	NaN	8.782224	-2.693891	-1.044837	-1.958505	-0.871433	1.046335	-27.512651	-79.072320	158.683962
04464	NaN	8.650070	-2.618570	-0.969812	-1.975963	-0.940858	1.005179	-32.682111	-79.252038	162.795156
04465	NaN	8.734138	-2.745642	-0.997643	-1.973219	-1.029835	0.972969	-38.056436	-79.409820	167.113578
04466	NaN	8.838398	-2.823446	-0.852885	-1.912227	-1.104356	0.917713	-43.546748	-79.546606	171.583888
04467	NaN	8.998347	-2.935110	-0.571183	-1.826376	-1.160231	0.856209	-49.075109	-79.649754	176.140710
04468	NaN	9.142704	-3.209362	-0.375708	-1.700122	-1.204453	0.777357	-54.571415	-79.726680	-179.262455
04469	NaN	9.159567	-3.271380	-0.274721	-1.602810	-1.231117	0.693916	-59.975490	-79.771667	-174.703943
04470	NaN	9.145273	-3.373391	-0.195718	-1.538020	-1.244028	0.607481	-65.283524	-79.789826	-170.205451
04471	NaN	9.247068	-3.188617	0.069318	-1.448018	-1.243653	0.504237	-70.395500	-79.788658	-165.854185
04472	NaN	9.444393	-2.669945	0.228710	-1.476428	-1.218353	0.400851	-75.344290	-79.773457	-161.684921
04473	NaN	9.441848	-2.177533	0.788299	-1.479854	-1.175852	0.292692	-80.045286	-79.750442	-157.769427
04474	NaN	9.386614	-1.833871	1.504196	-1.580794	-1.155329	0.185844	-84.678992	-79.730832	-153.980629
04475	NaN	9.175214	-1.893179	1.877270	-1.774782	-1.139588	0.064660	-89.312528	-79.725057	-150.305000
04476	NaN	8.896018	-2.460773	2.029102	-1.921444	-1.144368	-0.078709	-94.062440	-79.748192	-146.596431
04477	NaN	9.093375	-2.945232	2.306038	-1.911011	-1.169571	-0.234930	-98.938524	-79.802917	-142.754213
04478	NaN	9.397761	-3.181898	2.482849	-1.894300	-1.170790	-0.374637	-103.949171	-79.877046	-138.766190
04479	NaN	9.521689	-3.479977	2.683916	-1.784136	-1.149020	-0.504972	-108.986959	-79.964652	-134.687652
04480	NaN	9.543980	-3.627777	3.007441	-1.573923	-1.101635	-0.631240	-113.992167	-80.066362	-130.520949
04481	NaN	9.568845	-3.758764	3.184096	-1.362748	-1.027580	-0.747563	-118.896341	-80.184474	-126.335527
04482	NaN	10.002360	-3.278711	2.701207	-1.103907	-0.970756	-0.830070	-123.738737	-80.297786	-122.063628
04483	NaN	10.574748	-2.105646	2.377879	-1.107106	-0.856750	-0.884568	-128.460559	-80.414960	-117.917495
04484	NaN	10.494891	-2.965153	3.886712	-0.444002	-0.645140	-0.916521	-132.433628	-80.570822	-114.146818
04485	NaN	10.824757	-2.769159	6.624467	-0.252233	-0.506782	-0.989402	-136.246752	-80.770388	-110.428969
04486	NaN	10.532470	-6.579113	8.556565	-0.273747	-0.203650	-1.049318	-139.688382	-81.082515	-107.102344
04487	NaN	11.479580	-11.423918	10.000848	0.813101	-0.014230	-0.916022	-141.885822	-81.405220	-104.407535
04488	NaN	9.956302	-10.990421	7.194017	1.028158	0.453195	-0.148503	-140.643378	-81.657326	-105.067907
04489	NaN	6.064118	-11.262938	3.846040	0.909940	-0.444163	0.048142	-141.048540	-81.439690	-104.131108
04490	NaN	11.059339	-8.169066	1.265621	1.903449	-0.497150	-0.662506	-143.098408	-81.444578	-100.955195
04491	NaN	16.822379	3.456089	6.214886	3.806874	0.929415	-0.770004	-141.048893	-82.132921	-100.822036
04492	NaN	16.840129	10.882684	9.581373	3.778260	1.369742	-0.110321	-135.276746	-82.756424	-104.460825
04493	NaN	9.857813	11.493161	-0.064922	2.501144	0.073325	0.074874	-133.361411	-82.752047	-104.946885
04494	NaN	8.812082	13.590909	-6.177004	-0.215473	-0.824654	-0.273125	-136.911621	-82.524454	-101.491600
04495	NaN	9.179607	11.267084	-3.260876	-3.168616	-0.345930	-0.458772	-141.221803	-82.544020	-98.975476
04496	NaN	9.555337	3.206636	-4.737864	-2.761181	-0.332344	-0.295670	-144.697651	-82.491623	-97.065252
04497	NaN	11.350847	-2.751372	-6.075899	-2.208523	-0.095343	0.146286	-145.665585	-82.396179	-97.365206
04498	NaN	11.962411	-9.299319	-4.050205	-1.860350	0.422360	0.516510	-143.861815	-82.420563	-100.260056
04499	NaN	8.473240	-10.105308	-1.341123	-0.552877	0.758654	0.391023	-140.789935	-82.624945	-103.677645
04500	NaN	6.035325	-7.369218	-1.545543	0.762658	0.530071	0.098523	-138.466587	-82.816763	-105.579183
04501	NaN	8.754887	-3.541803	-0.902579	1.779044	0.122791	-0.000863	-137.061952	-82.866231	-105.967420
04502	NaN	11.776296	-0.538576	-0.446266	1.873005	0.113715	0.078923	-135.357400	-82.878658	-106.603602
04503	NaN	11.661790	1.595372	-0.721889	1.646079	0.249524	0.167832	-133.044309	-82.906357	-107.984058
04504	NaN	10.818823	2.911168	0.117959	1.016353	0.295267	0.170071	-130.915922	-82.943765	-109.541840
04505	NaN	9.426290	2.947630	0.340314	0.257755	0.312310	0.128622	-129.264259	-82.999505	-111.057098
04506	NaN	8.356777	2.381544	0.079617	-0.420255	0.265310	0.091124	-128.263574	-83.050827	-112.307673
04507	NaN	8.567718	1.092246	-0.519695	-0.959821	0.219523	0.127922	-127.620765	-83.067204	-113.509117
04508	NaN	9.091865	-0.703954	-1.180438	-1.216793	0.230355	0.178348	-126.941465	-83.062820	-114.895567
04509	NaN	9.340021	-2.008811	-1.355174	-1.074326	0.264654	0.211236	-125.957653	-83.052372	-116.506627
04510	NaN	9.446378	-2.642515	-1.355754	-0.801860	0.269950	0.212737	-124.801246	-83.039471	-118.134272
04511	NaN	9.624090	-2.434958	-1.168568	-0.493107	0.233872	0.203823	-123.634758	-83.015042	-119.593978
04512	NaN	9.940793	-1.804506	-1.130352	-0.267877	0.178243	0.189595	-122.606446	-82.976684	-120.784498
04513	NaN	10.102672	-1.395406	-1.010265	-0.110043	0.183888	0.168294	-121.526596	-82.947668	-121.935967
04514	NaN	10.015286	-0.832408	-0.786619	-0.076536	0.196105	0.165439	-120.398205	-82.920964	-123.117023
04515	NaN	9.945301	-0.188586	-0.653565	-0.124984	0.207940	0.184655	-119.213137	-82.885119	-124.383295
04516	NaN	9.731085	0.159237	-0.829498	-0.286105	0.243878	0.219572	-117.916567	-82.838233	-125.855040
04517	NaN	9.558791	-0.114642	-0.954602	-0.442185	0.256796	0.230400	-116.650554	-82.785075	-127.386333
04518	NaN	9.597478	-0.578549	-0.799335	-0.525895	0.251628	0.225793	-115.486760	-82.729071	-128.863059
04519	NaN	9.841661	-0.954237	-0.858739	-0.557746	0.278422	0.243330	-114.217821	-82.666315	-130.464442
04520	NaN	9.911277	-1.516185	-1.011352	-0.554675	0.310517	0.258640	-112.819090	-82.598304	-132.195095
04521	NaN	9.607018	-2.405375	-0.863556	-0.519876	0.305953	0.242746	-111.470505	-82.532259	-133.855397
04522	NaN	9.467454	-3.179450	-0.490389	-0.398705	0.268087	0.204242	-110.294911	-82.474523	-135.271369
04523	NaN	9.549872	-3.386357	-0.269265	-0.271734	0.269255	0.180582	-109.092285	-82.425802	-136.641457
04524	NaN	9.623616	-3.194431	-0.403009	-0.166774	0.288430	0.160905	-107.797229	-82.387386	-138.044221
04525	NaN	9.470697	-2.739992	-0.551236	-0.098127	0.290556	0.125353	-106.508555	-82.364571	-139.401004
04526	NaN	9.449254	-2.420504	-0.518197	-0.029379	0.292324	0.075672	-105.240146	-82.365365	-140.697609
04527	NaN	9.639145	-1.780370	-0.478342	0.019655	0.313635	0.050461	-103.878702	-82.379287	-142.059736
04528	NaN	9.727163	-1.544749	-0.679889	0.024776	0.330683	0.050125	-102.441788	-82.391127	-143.494987
04529	NaN	9.676207	-1.526567	-0.510367	0.033136	0.328039	0.045063	-101.009050	-82.400799	-144.921173
04530	NaN	9.781843	-1.572239	-0.295086	0.076253	0.334939	0.047622	-99.520680	-82.404842	-146.378524
04531	NaN	9.958531	-1.369474	-0.364696	0.165384	0.374605	0.058419	-97.802608	-82.400865	-148.016104
04532	NaN	9.964837	-1.039842	-0.619001	0.248534	0.414365	0.074941	-95.866145	-82.383231	-149.825979
04533	NaN	9.824396	-0.661533	-0.659844	0.329618	0.431215	0.087088	-93.815663	-82.351203	-151.704134
04534	NaN	9.844063	-0.523841	-0.744273	0.344272	0.443532	0.100910	-91.724496	-82.302597	-153.615032
04535	NaN	9.883331	-0.512134	-0.925826	0.344652	0.448867	0.121563	-89.635376	-82.232917	-155.523927
04536	NaN	9.931772	-0.802686	-0.679154	0.369609	0.486298	0.159472	-87.424623	-82.131448	-157.541526
04537	NaN	9.847245	-1.193800	-0.435869	0.381072	0.505386	0.174304	-85.187662	-82.010133	-159.579521
04538	NaN	9.806197	-1.353962	-0.409734	0.378832	0.524679	0.166864	-82.941554	-81.881138	-161.628647
04539	NaN	9.701172	-1.474404	-0.482403	0.399219	0.562849	0.167604	-80.602046	-81.737059	-163.761058
04540	NaN	9.727969	-1.790035	-0.498739	0.376314	0.575053	0.143019	-78.293264	-81.593516	-165.876428
04541	NaN	9.793621	-2.007452	-0.187459	0.351551	0.597175	0.125997	-75.974904	-81.444206	-168.016655
04542	NaN	9.738248	-2.222779	-0.266687	0.348669	0.627210	0.111429	-73.618217	-81.285874	-170.198161
04543	NaN	9.614693	-2.284404	-0.399723	0.362101	0.656928	0.099775	-71.217580	-81.115093	-172.417333
04544	NaN	9.622304	-2.295063	-0.246049	0.367211	0.688402	0.075393	-68.771209	-80.937263	-174.680888
04545	NaN	9.602311	-2.318582	0.037904	0.356679	0.710606	0.036458	-66.294773	-80.759963	-176.982135
04546	NaN	9.710013	-2.283918	-0.149631	0.394941	0.748700	0.000500	-63.721377	-80.576374	-179.360608
04547	NaN	9.737124	-2.157480	-0.171314	0.368288	0.787759	-0.030775	-61.091313	-80.380736	178.186674
04548	NaN	9.849680	-2.358972	-0.047680	0.309095	0.812386	-0.066417	-58.473388	-80.177524	175.710399
04549	NaN	10.098930	-2.438494	-0.332006	0.268669	0.851629	-0.098645	-55.818415	-79.958320	173.171435
04550	NaN	10.174743	-2.586105	-0.275223	0.282403	0.899118	-0.134337	-53.087587	-79.719901	170.561575
04551	NaN	10.190145	-2.892088	-0.053352	0.300097	0.927860	-0.178378	-50.313909	-79.468903	167.916468
04552	NaN	10.419334	-3.216055	0.258887	0.349138	0.967040	-0.219676	-47.477509	-79.198256	165.233835
04553	NaN	10.742711	-3.308022	0.527028	0.382846	1.023419	-0.237164	-44.605831	-78.887596	162.532402
04554	NaN	10.992906	-3.481663	0.510221	0.383346	1.095669	-0.229257	-41.775521	-78.518897	159.870208
04555	NaN	10.667238	-3.945905	0.392537	0.345592	1.173325	-0.247840	-38.965215	-78.097518	157.202712
04556	NaN	9.925157	-4.306731	-0.173561	0.567546	1.200824	-0.329295	-36.011923	-77.665858	154.514718
04557	NaN	9.629182	-4.396121	0.663045	1.279282	1.149411	-0.453054	-32.657902	-77.267622	151.829846
04558	NaN	10.017300	-2.930094	0.327415	0.665836	1.143333	-0.562454	-29.618468	-76.873440	149.102716
04559	NaN	10.479446	-4.301749	0.367671	1.077680	1.111821	-0.633990	-26.396949	-76.481123	146.426803
04560	NaN	11.099059	-2.653572	0.501983	1.236115	1.113337	-0.675169	-23.174916	-76.064551	143.838998
04561	NaN	10.439262	-1.610863	-0.912053	1.071179	1.117618	-0.701928	-20.155242	-75.617805	141.357848
04562	NaN	9.749608	-0.315793	-0.706026	1.332097	1.039529	-0.775331	-17.062736	-75.196093	138.950810
04563	NaN	9.745418	0.684388	-1.178223	1.162825	0.824248	-0.837725	-14.203325	-74.870925	136.680785
04564	NaN	9.586760	0.596836	-2.263614	0.909162	0.611427	-0.763660	-11.845844	-74.629917	134.777092
04565	NaN	8.147791	0.153765	-3.076410	0.974755	0.373482	-0.609718	-9.910784	-74.486301	133.349092
04566	NaN	7.893536	-2.211658	-3.998495	1.265948	-0.067693	-0.425758	-8.353806	-74.565636	132.486128
04567	NaN	8.845424	-4.585265	-5.078566	1.986375	-0.385941	-0.156532	-7.010697	-74.797553	132.273690
04568	NaN	8.904206	-5.407691	-5.829757	2.440107	-0.652101	0.253500	-6.329242	-75.154633	133.015627
04569	NaN	8.991063	-6.963654	-6.270336	3.604968	-1.007677	0.670107	-5.981592	-75.688399	134.790729
04570	NaN	10.110064	-5.690738	-3.738417	4.718089	-1.060844	0.948620	-5.709885	-76.241041	137.296986
04571	NaN	10.373686	-4.536105	-2.838293	5.011719	-0.874082	1.152696	-5.787957	-76.674178	140.331015
04572	NaN	10.593361	-2.524954	-1.750489	5.295377	-0.922054	1.411692	-6.476515	-77.116549	144.152916
04573	NaN	11.016333	0.517211	-0.029680	5.082487	-1.054189	1.712829	-8.262454	-77.590854	148.967746
04574	NaN	10.873567	2.230533	0.744259	4.136170	-1.171132	1.991769	-11.672017	-78.057589	154.879770
04575	NaN	9.994691	3.198237	0.462767	3.114719	-1.207181	2.169282	-16.507439	-78.426915	161.641516
04576	NaN	9.194199	3.441847	-0.262906	2.179832	-1.229354	2.261315	-22.483287	-78.660619	169.012647
04577	NaN	8.731041	2.730847	-0.153884	1.696209	-1.251504	2.341741	-29.134846	-78.721895	176.786711
04578	NaN	8.743665	1.615195	0.671690	1.393595	-1.233562	2.438039	-36.130938	-78.563619	-175.263675
04579	NaN	8.650979	-0.111120	0.574298	0.936074	-1.174953	2.533727	-43.126930	-78.154255	-167.573539
04580	NaN	8.523478	-2.117134	0.689239	0.582699	-1.180269	2.581494	-49.836715	-77.544731	-160.369208
04581	NaN	8.601650	-3.692967	1.835523	0.372167	-1.242744	2.541206	-55.992308	-76.809698	-153.837843
04582	NaN	8.760559	-4.964635	2.641862	0.272516	-1.305926	2.387753	-61.451230	-76.025056	-148.061928
04583	NaN	8.974377	-4.310279	2.311442	-0.014879	-1.229333	2.233293	-66.134567	-75.185120	-143.235790
04584	NaN	8.541712	-4.777129	1.805593	0.046011	-1.130002	2.149848	-70.015145	-74.279557	-139.186543
04585	NaN	8.415644	-4.324613	2.935835	0.277283	-1.127367	2.035149	-73.244850	-73.373545	-135.658407
04586	NaN	8.327450	-3.676241	3.000308	0.124921	-1.059990	1.914066	-76.041905	-72.471676	-132.658050
04587	NaN	7.959518	-3.269915	2.380474	-0.160580	-1.015228	1.760867	-78.574559	-71.612292	-130.092413
04588	NaN	7.853522	-3.357397	1.853550	-0.331964	-1.040854	1.572287	-80.974320	-70.826065	-127.759140
04589	NaN	8.218104	-3.632687	1.249860	-0.391066	-1.048106	1.343867	-83.180646	-70.143228	-125.656016
04590	NaN	8.508252	-3.981033	0.955416	-0.387503	-0.995171	1.104050	-85.135421	-69.566150	-123.810838
04591	NaN	8.796175	-4.323360	1.665584	-0.210720	-0.926572	0.896360	-86.759531	-69.088359	-122.203916
04592	NaN	9.397962	-4.247166	2.731304	0.005431	-0.831536	0.710228	-88.046523	-68.697383	-120.821465
04593	NaN	9.685003	-4.022353	2.733136	-0.034268	-0.713097	0.559826	-89.128523	-68.383747	-119.679861
04594	NaN	9.632905	-3.567679	2.692149	0.026204	-0.640744	0.426569	-90.046486	-68.135800	-118.675809
04595	NaN	9.838610	-2.727687	2.777780	0.044045	-0.620526	0.303327	-90.902506	-67.955987	-117.725540
04596	NaN	9.975169	-1.898832	2.782921	0.027372	-0.575688	0.176530	-91.700011	-67.841155	-116.848155
04597	NaN	9.911911	-0.929085	2.657300	-0.080700	-0.523476	0.042728	-92.481916	-67.802639	-116.053597
04598	NaN	10.033335	-0.822243	2.400976	-0.326711	-0.480582	-0.093139	-93.356107	-67.835796	-115.311916
04599	NaN	9.893223	-0.057828	2.289232	-0.388202	-0.417271	-0.231955	-94.189718	-67.949540	-114.652114
04600	NaN	10.414572	1.160782	1.352809	-1.039258	-0.420306	-0.330190	-95.424347	-68.111944	-113.963040
04601	NaN	10.223531	0.238759	1.859037	-0.963909	-0.387801	-0.471281	-96.602968	-68.354032	-113.288500
04602	NaN	7.627845	1.884507	3.199308	-0.838892	-0.381675	-0.832139	-97.793084	-68.793985	-112.526461
04603	NaN	7.996839	-3.688699	3.341081	-0.867528	-0.808606	-1.485592	-99.838849	-69.560965	-110.869482
04604	NaN	11.821641	-8.706440	5.141446	0.835538	-0.368537	-2.128731	-100.535969	-70.718547	-109.619311
04605	NaN	10.808739	-6.885399	3.640446	1.525407	0.099653	-1.979926	-100.097503	-71.841612	-109.159335
04606	NaN	10.891897	-4.189952	-1.577095	1.317230	-0.627641	-1.507889	-100.940254	-72.619699	-107.481763
04607	NaN	11.280750	-1.330334	-1.313009	2.692279	-0.606512	-1.482916	-101.045489	-73.384313	-105.758596
04608	NaN	10.496594	3.855271	4.839008	4.222802	-0.469340	-1.743115	-100.175335	-74.310733	-104.145436
04609	NaN	11.959473	6.138320	6.804540	3.064401	-0.380408	-1.823534	-99.881933	-75.298438	-102.629983
04610	NaN	12.932069	5.836897	1.939026	1.642390	-0.253996	-1.595643	-100.129750	-76.168414	-101.403154
04611	NaN	13.372393	9.179330	3.311114	1.117876	-0.128870	-1.229321	-100.315629	-76.845260	-100.553218
04612	NaN	11.402818	11.345324	5.320403	-0.209984	-0.043383	-1.035918	-101.023773	-77.419592	-99.950092
04613	NaN	9.108091	8.563110	1.482626	-1.847796	-0.267544	-1.075623	-103.369527	-77.986359	-98.632744
04614	NaN	9.526694	4.840428	-3.715195	-3.303701	-0.412727	-1.127527	-107.177933	-78.543833	-96.676254
04615	NaN	10.167605	-0.666890	-3.724910	-3.023400	-0.355517	-0.964398	-110.786308	-78.996841	-94.763468
04616	NaN	10.620521	-4.889405	-2.898066	-1.842205	-0.404663	-0.813859	-113.885990	-79.336821	-92.682115
04617	NaN	10.162868	-7.963843	-5.453954	-0.781621	-0.154676	-0.769532	-115.767906	-79.696508	-91.223593
04618	NaN	8.639962	-7.812616	-3.312416	0.527430	0.088422	-0.806621	-116.347478	-80.130325	-90.327862
04619	NaN	8.484996	-4.693841	-0.303663	1.253116	0.071195	-0.784665	-116.590339	-80.547688	-89.353091
04620	NaN	9.239670	-1.215074	-0.334696	1.395193	-0.074087	-0.717338	-117.154687	-80.891192	-87.971129
04621	NaN	9.959479	1.280849	-0.655988	1.433827	-0.185690	-0.658137	-118.035228	-81.172850	-86.247898
04622	NaN	10.685999	3.278194	-0.139062	1.136246	-0.220392	-0.619837	-119.213865	-81.420301	-84.396793
04623	NaN	11.000450	4.545277	-0.269552	0.277225	-0.126140	-0.599256	-120.626087	-81.678604	-82.808386
04624	NaN	10.270346	3.971653	-0.454965	-0.632149	-0.019534	-0.618582	-122.336716	-81.971605	-81.446001
04625	NaN	9.674860	2.295539	-0.112692	-1.158188	-0.010383	-0.636652	-124.482525	-82.269626	-79.949558
04626	NaN	9.811539	0.016007	-0.766311	-1.506805	-0.011733	-0.606676	-126.900566	-82.544946	-78.381018
04627	NaN	9.971351	-2.362889	-1.573461	-1.452528	0.021128	-0.560499	-129.190637	-82.802172	-76.911082
04628	NaN	10.131899	-3.956662	-1.749976	-1.108622	0.055994	-0.544504	-131.242465	-83.058103	-75.483507
04629	NaN	10.300170	-4.233883	-1.688799	-0.601000	0.074346	-0.538038	-133.043595	-83.312196	-74.016257
04630	NaN	10.257612	-3.453626	-1.477988	-0.077481	0.089866	-0.542473	-134.623618	-83.568929	-72.470405
04631	NaN	10.050111	-2.112382	-1.253321	0.263540	0.095101	-0.565166	-136.203083	-83.832067	-70.729328
04632	NaN	9.918997	-0.938010	-1.493272	0.398092	0.103608	-0.582928	-137.887984	-84.099952	-68.805567
04633	NaN	9.765205	-0.160429	-1.819125	0.423235	0.112985	-0.587741	-139.717558	-84.367578	-66.722859
04634	NaN	9.616414	0.162406	-1.856285	0.385974	0.130966	-0.579145	-141.648767	-84.632815	-64.560433
04635	NaN	9.287083	0.619664	-1.717649	0.213826	0.125679	-0.585928	-143.949398	-84.890388	-62.127027
04636	NaN	9.293928	-0.057275	-1.431757	0.034529	0.074918	-0.591574	-146.817320	-85.115369	-59.228183
04637	NaN	9.791600	-0.481051	-0.246465	0.268155	0.082413	-0.573042	-149.682383	-85.325725	-56.198847
04638	NaN	10.024856	0.023793	0.140712	0.206597	0.124410	-0.518886	-152.354946	-85.529440	-53.398878
04639	NaN	9.701943	-0.110802	-0.559769	0.046377	0.157596	-0.499111	-155.134208	-85.734546	-50.584771
04640	NaN	9.670604	-0.189138	-0.368534	0.197205	0.145321	-0.514229	-158.245126	-85.925213	-47.352190
04641	NaN	9.798821	0.354171	-0.359850	0.228812	0.149354	-0.477626	-161.338423	-86.097925	-44.119864
04642	NaN	9.898270	0.554643	-1.073977	0.178109	0.170791	-0.426362	-164.255541	-86.261565	-41.093861
04643	NaN	9.715200	0.620601	-1.148519	0.325362	0.226413	-0.368458	-166.721658	-86.438158	-38.435830
04644	NaN	9.666209	0.679151	-1.023763	0.375316	0.221465	-0.336266	-169.119266	-86.600694	-35.818236
04645	NaN	9.707951	0.482369	-1.150843	0.428128	0.237084	-0.309032	-171.439959	-86.762809	-33.247831
04646	NaN	9.792391	0.478113	-1.184113	0.462979	0.255452	-0.290199	-173.769553	-86.927709	-30.648909
04647	NaN	9.848184	0.484324	-1.004803	0.569644	0.276531	-0.268342	-176.052104	-87.097731	-28.036321
04648	NaN	9.872765	0.664631	-0.534341	0.613355	0.282065	-0.240101	-178.265193	-87.264522	-25.468571
04649	NaN	10.006470	0.673328	-0.727594	0.552028	0.300800	-0.217080	179.468204	-87.436966	-22.882812
04650	NaN	9.931097	0.723013	-0.770874	0.550637	0.324062	-0.191130	177.196943	-87.618177	-20.293521
04651	NaN	9.878311	0.761776	-0.672506	0.524871	0.341811	-0.163937	174.892605	-87.806128	-17.686272
04652	NaN	9.858166	0.754439	-0.460966	0.504640	0.367228	-0.137393	172.497860	-88.005660	-15.000466
04653	NaN	9.805664	0.659547	-0.350995	0.434617	0.405495	-0.121421	169.661945	-88.223753	-11.913761
04654	NaN	9.803405	0.296768	-0.487133	0.356986	0.439410	-0.117604	165.866393	-88.454969	-7.911864
04655	NaN	9.848265	-0.139480	-0.711056	0.304354	0.463431	-0.131659	160.169261	-88.686928	-2.038431
04656	NaN	9.894022	-0.542753	-1.058897	0.290073	0.491583	-0.146889	151.310305	-88.909804	6.988825
04657	NaN	10.017676	-0.800797	-1.398172	0.347875	0.510672	-0.150499	137.850189	-89.100416	20.650387
04658	NaN	9.999576	-0.828129	-1.474578	0.434732	0.549647	-0.149119	117.522868	-89.228949	41.229075
04659	NaN	9.979572	-0.702243	-1.244584	0.501216	0.566877	-0.166958	92.687279	-89.223754	66.354165
04660	NaN	10.049914	-0.438038	-1.114921	0.486542	0.594639	-0.193225	71.322705	-89.067305	88.000012
04661	NaN	9.989126	-0.290089	-0.920620	0.461966	0.629427	-0.214162	56.968630	-88.800734	102.621346
04662	NaN	10.022784	-0.104912	-0.680827	0.459489	0.646339	-0.241715	48.365833	-88.468590	111.490069
04663	NaN	10.044500	0.029623	-0.497719	0.414182	0.681505	-0.273354	42.916444	-88.086177	117.179411
04664	NaN	9.973020	0.055710	-0.375470	0.339965	0.705246	-0.306677	39.462451	-87.669576	120.830866
04665	NaN	9.951639	0.093483	-0.235248	0.296727	0.726359	-0.345219	37.279811	-87.223269	123.185947
04666	NaN	9.966324	0.240730	-0.046637	0.225672	0.750744	-0.357462	35.649257	-86.758891	124.948423
04667	NaN	10.122668	0.471486	0.057780	0.104705	0.764247	-0.351194	34.264346	-86.287431	126.396085
04668	NaN	10.515473	0.528232	0.200788	0.034609	0.780356	-0.345748	33.058773	-85.808738	127.624611
04669	NaN	10.381935	0.689361	0.391756	-0.026018	0.849646	-0.342797	31.794510	-85.295147	128.877836
04670	NaN	9.769776	0.427215	0.692638	-0.033528	0.842136	-0.369137	30.941926	-84.776277	129.714561
04671	NaN	9.609763	0.052183	1.021016	0.016985	0.778335	-0.420059	30.703184	-84.272602	129.964278
04672	NaN	9.683833	-0.389076	0.986883	0.028764	0.771319	-0.436282	30.603741	-83.768175	130.081055
04673	NaN	9.792953	-0.773584	1.031559	0.068889	0.755132	-0.421517	30.519539	-83.275420	130.205629
04674	NaN	9.877046	-0.813023	0.953424	0.142976	0.704150	-0.390845	30.488318	-82.817372	130.319817
04675	NaN	10.063127	-0.779965	0.829069	0.215592	0.657589	-0.369974	30.529744	-82.387747	130.402713
04676	NaN	10.130659	-0.376601	1.011307	0.410915	0.644956	-0.335019	30.585884	-81.975245	130.583893
04677	NaN	10.094188	0.290817	1.236548	0.494228	0.611892	-0.295882	30.629443	-81.589788	130.826100
04678	NaN	10.040644	0.700688	1.102729	0.463729	0.570030	-0.262283	30.635583	-81.235526	131.088791
04679	NaN	10.031525	1.072514	0.794840	0.451592	0.523277	-0.229705	30.629924	-80.913091	131.356542
04680	NaN	9.975718	1.480086	0.676402	0.417356	0.453673	-0.199231	30.645452	-80.634623	131.583269
04681	NaN	9.957729	1.586038	0.561045	0.279251	0.357411	-0.202714	30.765316	-80.401849	131.624070
04682	NaN	10.095463	1.375642	0.473130	0.199367	0.261788	-0.188376	30.959917	-80.221113	131.542754
04683	NaN	10.102044	1.474743	0.671981	0.104662	0.217467	-0.055316	30.796534	-80.100520	131.769547
04684	NaN	9.733108	1.304624	-0.134284	-0.141147	0.139824	0.162776	30.011991	-80.082032	132.484115
04685	NaN	9.484212	0.883549	-1.031162	-0.229903	0.017070	0.371728	28.774125	-80.180607	133.606977
04686	NaN	9.581302	0.811684	-0.846748	-0.226335	-0.076827	0.516754	27.228631	-80.361942	135.043720
04687	NaN	9.742718	0.745465	-0.228868	-0.299178	-0.070949	0.605737	25.299540	-80.554439	136.826155
04688	NaN	9.416547	0.485540	0.711066	-0.437963	-0.033301	0.688511	22.896787	-80.736400	139.007265
04689	NaN	9.012711	0.053680	1.085649	-0.674082	-0.085483	0.778738	20.030960	-80.947544	141.518978
04690	NaN	8.691210	-0.361928	0.716769	-0.830244	-0.217018	0.857618	16.817561	-81.224144	144.290416
04691	NaN	8.648189	-0.681859	0.095559	-0.873629	-0.360884	0.924914	13.272429	-81.563472	147.369743
04692	NaN	8.765388	-1.037263	-0.258984	-0.723965	-0.466153	0.996694	9.335128	-81.940487	150.929280
04693	NaN	8.901778	-0.918214	-0.197946	-0.515390	-0.542096	1.079140	4.854761	-82.326916	155.154150
04694	NaN	8.964688	-0.547924	-0.262982	-0.502797	-0.592057	1.142846	-0.336162	-82.694649	160.099347
04695	NaN	9.008390	-0.517289	-0.256193	-0.546022	-0.625737	1.163173	-6.146157	-83.016325	165.639525
04696	NaN	8.881523	-0.455741	0.204827	-0.606328	-0.636236	1.137165	-12.365652	-83.273649	171.554041
04697	NaN	8.666488	-0.550379	0.249344	-0.843858	-0.649565	1.097084	-18.950001	-83.462969	177.696005
04698	NaN	8.516888	-0.823390	0.284452	-0.982476	-0.635643	1.041924	-25.631907	-83.574787	-176.145520
04699	NaN	8.540218	-1.229116	0.602005	-0.953249	-0.648946	0.990008	-32.239583	-83.625392	-170.045975
04700	NaN	8.714797	-1.478586	0.804123	-0.895641	-0.643658	0.924100	-38.567838	-83.619374	-164.194552
04701	NaN	8.800160	-1.534371	0.823318	-0.880072	-0.610420	0.854267	-44.425401	-83.555833	-158.807478
04702	NaN	8.878238	-1.476339	0.859874	-0.925137	-0.582443	0.786215	-49.835249	-83.451818	-153.896046
04703	NaN	9.216637	-1.160164	1.076658	-0.961674	-0.576942	0.707294	-54.808016	-83.331354	-149.444630
04704	NaN	9.615453	-0.505746	1.283095	-1.049853	-0.550630	0.621939	-59.329739	-83.202116	-145.497091
04705	NaN	9.669681	-0.042091	1.292211	-1.195032	-0.544471	0.520519	-63.501410	-83.087323	-141.984926
04706	NaN	9.725972	0.259954	1.281255	-1.314181	-0.547156	0.423718	-67.448654	-82.994427	-138.766831
04707	NaN	9.720276	0.249108	1.173445	-1.460442	-0.562309	0.343517	-71.305685	-82.921226	-135.723521
04708	NaN	9.636590	-0.195731	1.176628	-1.535460	-0.566312	0.260429	-75.051772	-82.869785	-132.834895
04709	NaN	9.668308	-0.765973	1.351287	-1.567572	-0.561371	0.169651	-78.641041	-82.845609	-130.122635
04710	NaN	9.549519	-1.432743	1.464840	-1.582691	-0.544481	0.084414	-82.087177	-82.847321	-127.563275
04711	NaN	9.522052	-1.964068	1.554072	-1.528750	-0.521589	0.016820	-85.354364	-82.867517	-125.153195
04712	NaN	9.463210	-2.200473	1.501490	-1.462151	-0.497351	-0.039358	-88.482698	-82.902200	-122.844719
04713	NaN	9.322146	-2.308854	1.482263	-1.331983	-0.462608	-0.099064	-91.392021	-82.956193	-120.682015
04714	NaN	9.284902	-2.112948	1.722179	-1.144696	-0.446123	-0.165404	-94.180685	-83.034979	-118.533061
04715	NaN	9.422550	-1.827477	1.759657	-1.053041	-0.419530	-0.244458	-96.877572	-83.148082	-116.424108
04716	NaN	9.648042	-1.684086	1.628429	-0.976471	-0.383133	-0.323105	-99.500937	-83.296405	-114.345577
04717	NaN	9.950801	-1.182573	1.508694	-0.935100	-0.334069	-0.407968	-102.042200	-83.487053	-112.326573
04718	NaN	10.268630	-0.812501	1.500979	-0.930715	-0.257941	-0.461572	-104.407029	-83.706943	-110.483387
04719	NaN	10.648387	-1.226895	2.510865	-0.695861	-0.140066	-0.483940	-106.201634	-83.949946	-109.079240
04720	NaN	11.242610	-1.192037	4.008112	-0.366262	-0.023098	-0.499809	-107.338318	-84.216556	-108.147320
04721	NaN	10.659640	-1.047553	4.299372	-0.546109	0.102111	-0.479520	-107.931360	-84.492825	-107.865703
04722	NaN	9.379120	-2.395513	4.210342	-0.630363	-0.010896	-0.523824	-109.380280	-84.771518	-106.773053
04723	NaN	9.866069	-2.543139	4.382188	-0.640722	-0.099173	-0.585132	-111.667718	-85.062317	-104.845041
04724	NaN	10.887500	-2.380287	4.116614	-0.394903	-0.008143	-0.538493	-113.348268	-85.341910	-103.385552
04725	NaN	11.388547	-2.039607	3.945085	0.288854	0.134218	-0.475899	-113.664982	-85.619332	-102.901726
04726	NaN	11.082068	-1.643516	4.223428	1.085297	0.280146	-0.446662	-112.389529	-85.914019	-103.557068
04727	NaN	10.140107	-0.010573	3.508291	0.991855	0.322408	-0.455329	-110.715908	-86.221239	-104.664894
04728	NaN	9.130722	1.691974	0.881799	0.106166	0.223110	-0.435874	-110.127345	-86.496348	-105.193661
04729	NaN	8.610432	2.582187	-2.590344	-0.715538	-0.060744	-0.332394	-112.230622	-86.658080	-103.497226
04730	NaN	9.734723	2.343645	-4.966399	-0.582513	-0.227505	-0.215326	-115.468375	-86.714920	-100.588332
04731	NaN	10.506337	2.592067	-4.654170	0.227054	-0.109169	-0.179031	-117.118678	-86.775899	-98.804953
04732	NaN	10.876551	1.722588	-4.195761	0.654523	0.000265	-0.222637	-117.789948	-86.885973	-97.756995
04733	NaN	10.687578	-0.043702	-3.178072	0.641382	0.168419	-0.265505	-117.122947	-87.062175	-98.056821
04734	NaN	9.934022	-1.619137	-1.751226	0.455386	0.232524	-0.243223	-115.701636	-87.243026	-99.218551
04735	NaN	9.205619	-2.403344	-0.318959	0.472488	0.230082	-0.197040	-113.881199	-87.397517	-100.769858
04736	NaN	8.857158	-2.294084	0.491118	0.723410	0.197565	-0.145894	-111.846056	-87.515139	-102.392015
04737	NaN	8.964236	-1.636542	0.691060	1.135786	0.141820	-0.107853	-109.933213	-87.598555	-103.655140
04738	NaN	9.488916	-0.356555	0.816155	1.435984	0.108883	-0.105351	-108.158155	-87.672473	-104.608160
04739	NaN	9.847116	1.198382	1.324736	1.344478	0.104849	-0.133618	-106.528106	-87.760172	-105.468455
04740	NaN	10.046267	2.560505	1.910466	0.858867	0.088079	-0.147768	-105.378421	-87.852047	-106.126446
04741	NaN	10.040798	3.192009	1.735800	0.208544	0.103049	-0.146886	-104.301277	-87.945250	-107.084639
04742	NaN	9.814763	2.924156	0.758873	-0.329234	0.091885	-0.125326	-103.530991	-88.024516	-108.044083
04743	NaN	9.655230	1.941106	-0.162958	-0.653687	0.059607	-0.093340	-103.307045	-88.081199	-108.642801
04744	NaN	9.574063	0.682480	-0.524255	-0.786537	0.028101	-0.079089	-103.607417	-88.126143	-108.793089
04745	NaN	9.485450	-0.373657	-0.475203	-0.812509	0.014110	-0.090190	-104.228304	-88.174978	-108.637547
04746	NaN	9.388523	-1.121396	-0.322539	-0.718409	-0.016427	-0.095346	-105.376543	-88.222537	-107.900482
04747	NaN	9.377055	-1.354955	-0.386208	-0.536973	-0.044102	-0.083296	-106.916254	-88.258073	-106.667745
04748	NaN	9.425152	-1.270395	-0.483047	-0.342372	-0.046023	-0.066132	-108.323512	-88.283264	-105.456022
04749	NaN	9.636436	-0.984436	-0.302363	-0.150387	-0.050609	-0.048556	-109.636126	-88.296849	-104.228920
04750	NaN	9.812876	-0.545943	-0.167152	-0.022807	-0.039705	-0.041171	-110.638300	-88.308150	-103.239299
04751	NaN	9.940958	-0.183249	0.021516	-0.003981	-0.034360	-0.046572	-111.592620	-88.322654	-102.286741
04752	NaN	10.060593	-0.006062	0.139120	-0.036127	-0.018749	-0.053673	-112.341891	-88.344140	-101.557782
04753	NaN	10.035705	0.063388	0.140055	-0.132030	-0.001588	-0.049497	-112.823921	-88.366680	-101.151124
04754	NaN	9.901419	-0.201850	0.000089	-0.187450	-0.010636	-0.045938	-113.482028	-88.385505	-100.600119
04755	NaN	9.872990	-0.465130	-0.075433	-0.205761	-0.009804	-0.047526	-114.171158	-88.404851	-100.028550
04756	NaN	9.830022	-0.825780	-0.170582	-0.183846	0.000669	-0.047445	-114.655169	-88.426786	-99.649654
04757	NaN	9.790708	-1.057308	-0.210720	-0.088999	0.005198	-0.047019	-115.014938	-88.449195	-99.340655
04758	NaN	9.715144	-1.193180	-0.211953	0.007586	0.003991	-0.052806	-115.395754	-88.474515	-98.955278
04759	NaN	9.647568	-1.214906	-0.209720	0.108108	-0.002080	-0.051500	-115.848237	-88.497318	-98.440565
04760	NaN	9.642322	-1.062953	-0.239552	0.197346	-0.014143	-0.054175	-116.518968	-88.518500	-97.656425
04761	NaN	9.619492	-0.732289	-0.265197	0.274845	-0.011341	-0.062565	-117.207366	-88.544261	-96.810166
04762	NaN	9.652927	-0.402200	-0.138485	0.295858	-0.013532	-0.070312	-118.027600	-88.573227	-95.820031
04763	NaN	9.756635	-0.117120	-0.016488	0.237034	-0.008576	-0.074733	-118.879384	-88.605261	-94.832029
04764	NaN	9.903578	0.115852	-0.035660	0.158765	-0.002536	-0.081601	-119.763400	-88.642197	-93.856693
04765	NaN	9.845408	0.138359	-0.033428	0.079433	0.009845	-0.088016	-120.574024	-88.685373	-93.000217
04766	NaN	9.730755	0.102765	-0.063982	0.026205	0.010089	-0.094856	-121.546740	-88.731846	-92.012163
04767	NaN	9.621766	-0.079079	-0.096967	-0.007289	-0.002338	-0.094601	-122.902398	-88.773749	-90.660254
04768	NaN	9.616566	-0.257301	-0.133761	-0.014038	-0.001796	-0.088967	-124.244278	-88.812640	-89.326049
04769	NaN	9.551714	-0.349256	-0.133805	0.008228	-0.017171	-0.085673	-125.975541	-88.843936	-87.589600
04770	NaN	9.584472	-0.291105	-0.135472	0.045499	-0.010136	-0.081452	-127.529598	-88.874888	-86.009088
04771	NaN	9.633907	-0.208065	-0.120612	0.087950	-0.028276	-0.084844	-129.642419	-88.899636	-83.845360
04772	NaN	9.692968	-0.083869	-0.106923	0.126517	-0.034588	-0.080478	-131.869794	-88.918740	-81.545008
04773	NaN	9.685288	0.084564	0.046664	0.133848	-0.039222	-0.074810	-134.163313	-88.931684	-79.174275
04774	NaN	9.701052	0.189422	0.128609	0.102183	-0.053589	-0.071881	-136.755963	-88.935929	-76.522548
04775	NaN	9.694450	0.342574	0.124225	0.055658	-0.057429	-0.066620	-139.355275	-88.934019	-73.890784
04776	NaN	9.656142	0.314592	0.136836	-0.005955	-0.059676	-0.066348	-142.001675	-88.929086	-71.247267
04777	NaN	9.671533	0.346037	0.113138	-0.061303	-0.067726	-0.061951	-144.690775	-88.916340	-68.592714
04778	NaN	9.716317	0.297667	0.001170	-0.127238	-0.069803	-0.056365	-147.236633	-88.898914	-66.119241
04779	NaN	9.674339	0.269207	-0.090355	-0.177892	-0.070792	-0.050622	-149.603796	-88.876908	-63.853468
04780	NaN	9.684262	0.170571	-0.270992	-0.205486	-0.072092	-0.041317	-151.673862	-88.850349	-61.900686
04781	NaN	9.659942	0.036019	-0.330384	-0.209649	-0.073532	-0.036783	-153.560920	-88.820143	-60.133275
04782	NaN	9.636975	-0.099436	-0.355676	-0.197818	-0.069349	-0.029047	-155.109080	-88.789511	-58.698076
04783	NaN	9.657864	-0.216447	-0.417205	-0.172213	-0.069284	-0.023240	-156.427873	-88.756413	-57.477566
04784	NaN	9.731995	-0.273501	-0.514779	-0.118839	-0.071666	-0.020059	-157.597325	-88.721163	-56.375867
04785	NaN	9.775213	-0.238883	-0.401866	-0.072236	-0.064724	-0.019376	-158.600227	-88.688629	-55.414000
04786	NaN	9.788143	-0.138890	-0.389800	-0.049817	-0.067358	-0.015592	-159.478367	-88.653906	-54.564102
04787	NaN	9.920409	-0.067213	-0.313848	-0.038190	-0.060212	-0.017288	-160.287017	-88.622727	-53.777003
04788	NaN	9.915222	0.020982	-0.196412	-0.025109	-0.050733	-0.012138	-160.867140	-88.595801	-53.211025
04789	NaN	9.904999	0.052722	-0.130878	-0.019308	-0.043391	-0.011960	-161.364430	-88.572358	-52.724542
04790	NaN	9.851014	0.052374	-0.184536	-0.036640	-0.040047	-0.011149	-161.815246	-88.550831	-52.294510
04791	NaN	9.853054	-0.019069	-0.224677	-0.046915	-0.040334	-0.006632	-162.164298	-88.527930	-51.972126
04792	NaN	9.759083	0.016986	-0.223497	-0.044016	-0.035650	0.007074	-162.184426	-88.505500	-51.977145
04793	NaN	9.705021	0.014998	-0.276567	-0.038932	-0.038046	0.005514	-162.248436	-88.481689	-51.935319
04794	NaN	9.779927	0.025555	-0.266240	-0.041993	-0.041330	0.016390	-162.114960	-88.454527	-52.092837
04795	NaN	9.806589	0.018490	-0.323238	-0.037937	-0.036605	0.018015	-161.920226	-88.429294	-52.309280
04796	NaN	9.734604	0.003785	-0.271714	-0.031869	-0.031059	0.017393	-161.706254	-88.407515	-52.541525
04797	NaN	9.754917	-0.046189	-0.259660	-0.033629	-0.033655	0.018845	-161.486764	-88.383693	-52.780270
04798	NaN	9.753226	-0.047210	-0.297292	-0.043565	-0.030599	0.021191	-161.216854	-88.361417	-53.075184
04799	NaN	9.757238	-0.063810	-0.352840	-0.050320	-0.033191	0.020759	-160.981791	-88.337434	-53.339080
04800	NaN	9.824270	-0.096095	-0.307915	-0.051811	-0.027970	0.015982	-160.810468	-88.317487	-53.540098
04801	NaN	9.772749	-0.158699	-0.240738	-0.042708	-0.028722	0.009915	-160.752106	-88.297926	-53.622858
04802	NaN	9.727756	-0.249089	-0.313013	-0.052857	-0.029340	0.003496	-160.821876	-88.279577	-53.583278
04803	NaN	9.778499	-0.246438	-0.335628	-0.053717	-0.029103	0.007283	-160.820707	-88.260307	-53.615132
04804	NaN	9.820028	-0.155560	-0.338087	-0.048578	-0.028460	0.011827	-160.733888	-88.240854	-53.729761
04805	NaN	9.881959	-0.113495	-0.325404	-0.044850	-0.027089	0.015634	-160.571626	-88.221084	-53.917702
04806	NaN	9.911677	-0.050863	-0.240512	-0.049270	-0.010473	0.014939	-160.326276	-88.210720	-54.191336
04807	NaN	9.811133	-0.117140	-0.117844	-0.071244	-0.016689	0.000100	-160.388687	-88.199525	-54.169627
04808	NaN	9.777813	-0.107453	-0.204281	-0.099021	-0.019609	-0.006704	-160.600967	-88.188382	-54.013926
04809	NaN	9.804342	-0.111530	-0.259456	-0.116981	-0.015641	-0.010318	-160.858503	-88.179719	-53.823212
04810	NaN	9.799119	-0.035938	-0.293396	-0.103991	-0.021902	-0.012022	-161.172427	-88.168284	-53.568664
04811	NaN	9.817679	-0.011084	-0.243565	-0.098770	-0.016142	-0.008845	-161.392726	-88.159021	-53.404764
04812	NaN	9.774201	-0.029972	-0.209094	-0.104085	-0.016389	-0.002404	-161.508114	-88.148769	-53.348906
04813	NaN	9.742060	-0.079789	-0.210801	-0.122825	-0.014569	-0.005676	-161.676986	-88.139760	-53.250248
04814	NaN	9.740296	-0.077874	-0.247438	-0.128405	-0.028037	-0.002636	-161.871728	-88.123208	-53.128936
04815	NaN	9.792802	-0.146303	-0.307200	-0.125802	-0.024664	0.005781	-161.904414	-88.106644	-53.168243
04816	NaN	9.715876	-0.156477	-0.357945	-0.104853	-0.019851	0.008126	-161.862014	-88.092625	-53.270698
04817	NaN	9.706238	-0.198093	-0.361489	-0.084387	-0.026525	0.007843	-161.848283	-88.074679	-53.332707
04818	NaN	9.728695	-0.189430	-0.365101	-0.071697	-0.028686	0.010370	-161.799559	-88.055438	-53.422485
04819	NaN	9.721174	-0.173829	-0.384124	-0.060761	-0.025959	0.016456	-161.634440	-88.036247	-53.622426
04820	NaN	9.760590	-0.141365	-0.369791	-0.053646	-0.020051	0.014726	-161.465282	-88.020887	-53.822361
04821	NaN	9.715339	-0.161000	-0.370285	-0.056246	-0.020317	0.012468	-161.336627	-88.005451	-53.983231
04822	NaN	9.745588	-0.110245	-0.406714	-0.044801	-0.028648	0.014786	-161.212009	-87.985375	-54.133532
04823	NaN	9.762436	-0.086762	-0.392038	-0.044376	-0.027675	0.009151	-161.170463	-87.966541	-54.200438
04824	NaN	9.778929	-0.122818	-0.327957	-0.047085	-0.027681	0.017858	-161.000241	-87.946393	-54.397683
04825	NaN	9.797625	-0.101374	-0.278848	-0.056728	-0.028711	0.015994	-160.871960	-87.925707	-54.558463
04826	NaN	9.789762	-0.145355	-0.248546	-0.076510	-0.027234	0.013898	-160.781486	-87.906517	-54.692783
04827	NaN	9.789395	-0.216135	-0.323685	-0.093028	-0.026269	0.007616	-160.789359	-87.888716	-54.738135
04828	NaN	9.774473	-0.182805	-0.358698	-0.102101	-0.025687	0.002791	-160.870117	-87.872454	-54.715781
04829	NaN	9.736961	-0.158304	-0.392782	-0.102546	-0.024479	0.000958	-160.970708	-87.856874	-54.673808
04830	NaN	9.661685	-0.168771	-0.409246	-0.111978	-0.027220	-0.001707	-161.127519	-87.840609	-54.581010
04831	NaN	9.687834	-0.172507	-0.465773	-0.109765	-0.030247	0.002717	-161.232697	-87.821569	-54.538585
04832	NaN	9.719881	-0.121912	-0.468024	-0.096703	-0.029114	0.003053	-161.318975	-87.803377	-54.507610
04833	NaN	9.799005	-0.055114	-0.436901	-0.080181	-0.022595	0.011490	-161.245438	-87.786873	-54.627068
04834	NaN	9.836809	-0.010997	-0.334511	-0.069926	-0.012512	0.012547	-161.104765	-87.775922	-54.807859
04835	NaN	9.783859	-0.073516	-0.301881	-0.075429	-0.020862	0.014173	-160.986141	-87.759840	-54.969717
04836	NaN	9.765293	-0.027283	-0.283277	-0.084188	-0.024372	0.005048	-161.016825	-87.743846	-54.987201
04837	NaN	9.710694	-0.027147	-0.334466	-0.100425	-0.022119	0.004143	-161.058245	-87.728949	-55.003224
04838	NaN	9.710615	-0.027578	-0.336711	-0.113837	-0.023519	0.012150	-161.005421	-87.712100	-55.121283
04839	NaN	9.727070	-0.073325	-0.394306	-0.122865	-0.019905	0.013519	-160.923400	-87.696649	-55.273716
04840	NaN	9.748996	-0.134367	-0.470335	-0.128050	-0.019551	0.022666	-160.722548	-87.679953	-55.548076
04841	NaN	9.750203	-0.206637	-0.511717	-0.117769	-0.026751	0.015872	-160.642329	-87.660324	-55.695787
04842	NaN	9.805972	-0.279157	-0.504160	-0.103281	-0.014450	0.015120	-160.508835	-87.647762	-55.888534
04843	NaN	9.740026	-0.309746	-0.469460	-0.076459	-0.018253	0.010558	-160.438679	-87.633718	-56.002487
04844	NaN	9.752852	-0.342298	-0.473853	-0.042757	-0.012149	0.008601	-160.347574	-87.623611	-56.118105
04845	NaN	9.756687	-0.347328	-0.406581	-0.024841	-0.016947	0.009359	-160.259458	-87.610490	-56.220434
04846	NaN	9.773258	-0.332694	-0.512154	-0.004034	-0.015819	0.013737	-160.098766	-87.597377	-56.383495
04847	NaN	9.789002	-0.239347	-0.456718	0.018448	-0.017219	0.017991	-159.879569	-87.582393	-56.592199
04848	NaN	9.850005	-0.127871	-0.402394	0.029011	-0.008985	0.018232	-159.614737	-87.571997	-56.840545
04849	NaN	9.764551	-0.041946	-0.306125	0.016803	-0.007228	0.020320	-159.325003	-87.561828	-57.120798
04850	NaN	9.761052	-0.030676	-0.254002	-0.007970	-0.010170	0.009484	-159.201070	-87.552487	-57.249328
04851	NaN	9.717290	-0.060311	-0.340772	-0.036761	-0.007299	0.005360	-159.132830	-87.545265	-57.338604
04852	NaN	9.700094	-0.085173	-0.359583	-0.047070	-0.011998	0.013965	-158.986023	-87.534018	-57.512454
04853	NaN	9.671437	-0.089301	-0.463274	-0.052389	-0.012286	0.020438	-158.765589	-87.520998	-57.763031
04854	NaN	9.686230	-0.125420	-0.433073	-0.051156	-0.015802	0.025950	-158.496099	-87.505163	-58.062026
04855	NaN	9.708732	-0.118582	-0.435536	-0.050508	-0.018725	0.026956	-158.232106	-87.487241	-58.355131
04856	NaN	9.688321	-0.072332	-0.450367	-0.049763	-0.018720	0.034136	-157.885140	-87.467970	-58.730886
04857	NaN	9.749691	-0.101558	-0.509435	-0.026074	-0.016976	0.032445	-157.541927	-87.449638	-59.089283
04858	NaN	9.768796	-0.083081	-0.459013	-0.010424	-0.020874	0.036267	-157.169013	-87.428551	-59.468461
04859	NaN	9.772742	-0.091164	-0.391960	-0.003056	-0.014483	0.037221	-156.755183	-87.410256	-59.884355
04860	NaN	9.734809	-0.130304	-0.376393	-0.006636	-0.019637	0.040064	-156.342460	-87.388716	-60.301221
04861	NaN	9.729301	-0.119681	-0.359670	-0.016845	-0.019202	0.047385	-155.856996	-87.365310	-60.796749
04862	NaN	9.729163	-0.124395	-0.361779	-0.025318	-0.023630	0.051074	-155.366378	-87.338780	-61.302324
04863	NaN	9.733123	-0.133989	-0.295150	-0.040228	-0.019699	0.054446	-154.836592	-87.313020	-61.855654
04864	NaN	9.760972	-0.144357	-0.316882	-0.066606	-0.026853	0.044232	-154.480784	-87.286121	-62.249974
04865	NaN	9.719087	-0.309992	-0.363031	-0.105048	-0.031586	0.038812	-154.237463	-87.257766	-62.553720
04866	NaN	9.714954	-0.439613	-0.426972	-0.110322	-0.031969	0.034333	-154.052127	-87.230541	-62.802466
04867	NaN	9.713251	-0.510610	-0.504589	-0.098376	-0.031974	0.033065	-153.877883	-87.203332	-63.033239
04868	NaN	9.690908	-0.592893	-0.547126	-0.076873	-0.031699	0.030926	-153.715430	-87.177020	-63.239897
04869	NaN	9.715342	-0.588458	-0.517021	-0.044901	-0.033664	0.020596	-153.655458	-87.152055	-63.325593
04870	NaN	9.773063	-0.603867	-0.524989	-0.020319	-0.032213	0.015049	-153.630888	-87.129467	-63.361760
04871	NaN	9.777548	-0.549248	-0.506814	0.003385	-0.026075	0.009346	-153.621483	-87.111257	-63.369127
04872	NaN	9.742051	-0.527072	-0.505347	0.025527	-0.024269	0.004217	-153.640655	-87.095482	-63.335195
04873	NaN	9.746654	-0.471336	-0.486648	0.049214	-0.027903	-0.007237	-153.781138	-87.080542	-63.166189
04874	NaN	9.698577	-0.415624	-0.481944	0.054658	-0.022514	-0.015007	-153.966518	-87.070497	-62.949118
04875	NaN	9.729004	-0.362035	-0.516658	0.055604	-0.019755	-0.012620	-154.114610	-87.061056	-62.768823
04876	NaN	9.713559	-0.255998	-0.510127	0.048321	-0.020986	-0.014844	-154.291824	-87.051683	-62.563560
04877	NaN	9.736144	-0.245738	-0.512846	0.048312	-0.020974	-0.014840	-154.469930	-87.042108	-62.357393
04878	NaN	9.743530	-0.261403	-0.498883	0.045639	-0.016663	-0.021040	-154.687746	-87.036421	-62.113009
04879	NaN	9.720853	-0.268447	-0.499644	0.044261	-0.018221	-0.025249	-154.957019	-87.030728	-61.817872
04880	NaN	9.708131	-0.234408	-0.498085	0.044975	-0.013706	-0.022030	-155.169532	-87.026704	-61.579177
04881	NaN	9.690141	-0.185588	-0.477870	0.052763	-0.018292	-0.024983	-155.429709	-87.020783	-61.288269
04882	NaN	9.723261	-0.204091	-0.517492	0.054488	-0.013366	-0.022897	-155.642515	-87.017037	-61.043820
04883	NaN	9.737582	-0.165595	-0.447917	0.046197	-0.015020	-0.023985	-155.879899	-87.012470	-60.779500
04884	NaN	9.733114	-0.158769	-0.518040	0.042141	-0.014467	-0.026928	-156.143892	-87.008979	-60.490876
04885	NaN	9.757953	-0.149581	-0.485684	0.030709	-0.010501	-0.025084	-156.379859	-87.006915	-60.236860
04886	NaN	9.723175	-0.195194	-0.522513	0.029384	-0.016581	-0.025323	-156.643177	-87.001814	-59.956229
04887	NaN	9.740520	-0.169163	-0.506017	0.028853	-0.010719	-0.020148	-156.830572	-86.998409	-59.751915
04888	NaN	9.690001	-0.170517	-0.486252	0.016181	-0.003249	-0.023814	-157.028044	-86.999886	-59.544794
04889	NaN	9.730661	-0.205822	-0.509531	0.018006	-0.014958	-0.026980	-157.307753	-86.995680	-59.254262
04890	NaN	9.700505	-0.195524	-0.525673	0.015508	-0.012257	-0.023048	-157.535548	-86.992127	-59.017160
04891	NaN	9.720788	-0.242330	-0.514037	0.025263	-0.013673	-0.024757	-157.781932	-86.987988	-58.755833
04892	NaN	9.702715	-0.193553	-0.493710	0.031693	-0.012215	-0.018735	-157.955638	-86.983424	-58.563608
04893	NaN	9.720032	-0.167767	-0.477352	0.029955	-0.017123	-0.020804	-158.172076	-86.976508	-58.329574
04894	NaN	9.762953	-0.145413	-0.515055	0.028287	-0.014599	-0.020674	-158.375476	-86.971014	-58.109565
04895	NaN	9.825511	-0.101112	-0.500027	0.021213	-0.003350	-0.021996	-158.552595	-86.971604	-57.919919
04896	NaN	9.900923	-0.088569	-0.486864	0.031389	0.006014	-0.023646	-158.702333	-86.977656	-57.751868
04897	NaN	9.893486	-0.128986	-0.453412	0.021380	0.013517	-0.036049	-158.956466	-86.990102	-57.485007
04898	NaN	9.817503	-0.186063	-0.329790	0.001812	0.006734	-0.027351	-159.160147	-86.997233	-57.279910
04899	NaN	9.758887	-0.309551	-0.437392	0.000681	0.001234	-0.024913	-159.362986	-87.000732	-57.076294
04900	NaN	9.709227	-0.321447	-0.504115	0.010561	0.002759	-0.020453	-159.507610	-87.004277	-56.925319
04901	NaN	9.654341	-0.379051	-0.504324	0.020849	-0.006660	-0.019849	-159.677756	-87.002464	-56.742870
04902	NaN	9.682143	-0.322743	-0.573122	0.031136	-0.016074	-0.019244	-159.869327	-86.995589	-56.533076
04903	NaN	9.654083	-0.254946	-0.603522	0.039926	-0.020215	-0.023315	-160.113634	-86.987091	-56.265416
04904	NaN	9.686313	-0.202957	-0.604582	0.044807	-0.023068	-0.016693	-160.294718	-86.975855	-56.058277
04905	NaN	9.758400	-0.117983	-0.589129	0.042362	-0.022709	-0.016263	-160.471805	-86.964558	-55.856529
04906	NaN	9.782335	-0.038630	-0.518176	0.042298	-0.008421	-0.014555	-160.577451	-86.960756	-55.726368
04907	NaN	9.749112	-0.016547	-0.481008	0.038716	-0.011405	-0.019155	-160.743883	-86.956068	-55.537380
04908	NaN	9.710591	0.020735	-0.425365	0.014402	-0.010278	-0.018380	-160.910480	-86.951946	-55.362187
04909	NaN	9.770697	0.066752	-0.445035	-0.009117	-0.009152	-0.010435	-161.006767	-86.946796	-55.270886
04910	NaN	9.770652	0.067607	-0.445888	-0.032822	-0.008613	-0.005154	-161.059832	-86.941090	-55.236482
04911	NaN	9.798496	0.062160	-0.466169	-0.052719	-0.006830	0.003904	-161.027296	-86.934522	-55.299206
04912	NaN	9.750959	0.045339	-0.499607	-0.057881	-0.013964	0.010881	-160.951703	-86.922935	-55.408023
04913	NaN	9.725975	0.037357	-0.534485	-0.071623	-0.016542	0.013632	-160.866737	-86.909278	-55.534101
04914	NaN	9.716199	-0.005096	-0.537907	-0.078161	-0.015476	0.022096	-160.697972	-86.894740	-55.747866
04915	NaN	9.726648	-0.037073	-0.576892	-0.085829	-0.019905	0.033002	-160.443335	-86.875533	-56.052021
04916	NaN	9.754367	-0.045962	-0.598588	-0.081782	-0.022571	0.043425	-160.096940	-86.852939	-56.445767
04917	NaN	9.777026	-0.101106	-0.553522	-0.066261	-0.019565	0.046720	-159.704345	-86.831023	-56.876873
04918	NaN	9.704019	-0.178653	-0.485703	-0.069004	-0.015097	0.051496	-159.256860	-86.810521	-57.364549
04919	NaN	9.744511	-0.220782	-0.509980	-0.065342	-0.016764	0.049106	-158.842187	-86.789264	-57.817258
04920	NaN	9.731505	-0.193561	-0.508748	-0.069638	-0.016619	0.054483	-158.384418	-86.766918	-58.315617
04921	NaN	9.774299	-0.238194	-0.498821	-0.077356	-0.016676	0.050453	-157.975529	-86.745041	-58.769447
04922	NaN	9.789706	-0.287251	-0.556461	-0.073430	-0.010344	0.052942	-157.522835	-86.725936	-59.264921
04923	NaN	9.747144	-0.382856	-0.561045	-0.070790	-0.010244	0.044212	-157.153981	-86.708462	-59.674900
04924	NaN	9.727146	-0.468615	-0.566798	-0.062425	-0.013220	0.038275	-156.849889	-86.690749	-60.015225
04925	NaN	9.709436	-0.495813	-0.586178	-0.048017	-0.013611	0.036510	-156.558777	-86.672990	-60.334277
04926	NaN	9.706407	-0.486575	-0.534524	-0.035450	-0.012069	0.032211	-156.295629	-86.657060	-60.618119
04927	NaN	9.710968	-0.433373	-0.514944	-0.029930	-0.013531	0.024867	-156.103866	-86.641873	-60.827280
04928	NaN	9.779080	-0.478911	-0.558867	-0.025280	-0.012497	0.024836	-155.906488	-86.627307	-61.039409
04929	NaN	9.793692	-0.383708	-0.536538	-0.016216	-0.004322	0.010674	-155.799213	-86.620188	-61.156070
04930	NaN	9.778519	-0.411010	-0.520649	-0.015570	-0.007249	0.011667	-155.693767	-86.611398	-61.270537
04931	NaN	9.773326	-0.336163	-0.550237	-0.009679	-0.005385	0.002192	-155.662600	-86.605704	-61.307206
04932	NaN	9.702620	-0.290367	-0.542864	-0.021162	-0.011149	-0.001655	-155.693470	-86.598007	-61.288328
04933	NaN	9.727964	-0.293239	-0.597731	-0.021257	-0.004307	-0.002100	-155.702448	-86.593889	-61.291428
04934	NaN	9.707707	-0.304374	-0.563010	-0.017572	-0.006015	-0.004511	-155.735803	-86.589540	-61.267998
04935	NaN	9.720384	-0.274920	-0.614350	-0.014763	-0.003042	-0.007072	-155.779575	-86.587252	-61.232514
04936	NaN	9.740285	-0.253126	-0.562458	-0.012959	-0.002663	-0.001032	-155.766482	-86.583827	-61.252967
04937	NaN	9.765633	-0.256253	-0.616940	-0.009681	-0.005382	0.002192	-155.735479	-86.578138	-61.289475
04938	NaN	9.730269	-0.233469	-0.613271	-0.012543	-0.003840	0.000799	-155.710921	-86.573660	-61.321174
04939	NaN	9.747756	-0.209621	-0.595657	0.007332	-0.001093	-0.001313	-155.684023	-86.571035	-61.343805
04940	NaN	9.745031	-0.197438	-0.542477	0.008302	0.001639	0.001066	-155.623830	-86.569346	-61.399238
04941	NaN	9.755315	-0.227214	-0.579822	0.014577	0.002466	0.004400	-155.529145	-86.567222	-61.485619
04942	NaN	9.782778	-0.223896	-0.511717	0.014951	0.003616	0.009743	-155.382173	-86.564485	-61.624171
04943	NaN	9.803015	-0.213375	-0.546501	0.024264	0.005664	0.009675	-155.223740	-86.562737	-61.768854
04944	NaN	9.750193	-0.215334	-0.559646	0.020618	0.005050	0.008576	-155.078317	-86.560984	-61.902603
04945	NaN	9.772841	-0.207430	-0.560068	0.021220	0.004451	0.013079	-154.897462	-86.557734	-62.071497
04946	NaN	9.732683	-0.241721	-0.576494	0.021218	0.004453	0.013080	-154.715779	-86.554523	-62.241226
04947	NaN	9.737807	-0.258258	-0.594688	0.021775	0.006185	0.021095	-154.459394	-86.550129	-62.485469
04948	NaN	9.737528	-0.189885	-0.553969	0.035094	0.012190	0.020005	-154.179418	-86.549103	-62.745707
04949	NaN	9.727546	-0.233199	-0.555171	0.029052	0.007434	0.023301	-153.895940	-86.544658	-63.012917
04950	NaN	9.772833	-0.217143	-0.556521	0.013512	0.002225	0.016521	-153.700513	-86.539248	-63.200841
04951	NaN	9.780354	-0.235884	-0.540238	0.011577	0.011011	0.013540	-153.495974	-86.539002	-63.399002
04952	NaN	9.747705	-0.287498	-0.540424	0.015632	0.010458	0.016475	-153.265693	-86.537737	-63.620627
04953	NaN	9.750108	-0.291312	-0.504901	0.012174	0.012594	0.010574	-153.079193	-86.538979	-63.800373
04954	NaN	9.750366	-0.363069	-0.543428	0.007932	0.010397	0.012440	-152.887735	-86.538640	-63.987524
04955	NaN	9.717480	-0.343691	-0.503633	0.000331	0.017755	0.010623	-152.684997	-86.542425	-64.190334
04956	NaN	9.684772	-0.263532	-0.511481	-0.000225	0.013844	0.010080	-152.502728	-86.544381	-64.372962
04957	NaN	9.707888	-0.265158	-0.598699	0.001064	0.010160	0.004597	-152.382971	-86.545832	-64.492218
04958	NaN	9.725460	-0.241674	-0.580025	0.000095	0.007422	0.002221	-152.294650	-86.546567	-64.580541
04959	NaN	9.732555	-0.249092	-0.476359	-0.004330	0.004644	0.001413	-152.229000	-86.546048	-64.648689
04960	NaN	9.709915	-0.258220	-0.474928	-0.021611	0.006624	0.001783	-152.160342	-86.546483	-64.729773
04961	NaN	9.695177	-0.294512	-0.545685	-0.027193	-0.001643	0.003398	-152.119076	-86.542239	-64.786615
04962	NaN	9.725306	-0.302972	-0.531222	-0.022126	-0.001793	0.005201	-152.059560	-86.537486	-64.858836
04963	NaN	9.720142	-0.288538	-0.512832	-0.039968	-0.003717	0.005029	-152.021460	-86.531749	-64.919840
04964	NaN	9.742978	-0.218958	-0.561947	-0.040156	-0.004289	0.002359	-152.007355	-86.526490	-64.956917
04965	NaN	9.773078	-0.227270	-0.548114	-0.032558	-0.011648	0.004173	-152.007510	-86.516968	-64.975343
04966	NaN	9.760632	-0.265925	-0.585394	-0.030064	-0.000081	0.002009	-151.972216	-86.513930	-65.027856
04967	NaN	9.705244	-0.325078	-0.586014	-0.017663	-0.001339	0.002503	-151.932320	-86.510070	-65.077856
04968	NaN	9.702452	-0.313244	-0.533058	-0.024398	-0.000833	0.008316	-151.845119	-86.504938	-65.179121
04969	NaN	9.758188	-0.395479	-0.612887	-0.023436	-0.010176	0.001438	-151.856661	-86.496896	-65.180902
04970	NaN	9.762871	-0.400568	-0.544836	-0.015222	-0.001702	0.002069	-151.819933	-86.493002	-65.226332
04971	NaN	9.732731	-0.392328	-0.559297	-0.019597	0.007459	-0.000464	-151.767145	-86.494379	-65.290361
04972	NaN	9.672440	-0.375375	-0.588741	-0.019976	-0.007951	-0.007601	-151.840350	-86.489939	-65.228380
04973	NaN	9.717722	-0.356635	-0.591725	-0.015832	-0.015357	-0.004228	-151.916879	-86.480809	-65.160687
04974	NaN	9.747623	-0.294062	-0.538358	-0.014307	-0.008711	-0.001296	-151.937919	-86.474268	-65.147715
04975	NaN	9.702253	-0.311953	-0.537428	-0.019197	-0.007973	-0.000422	-151.952461	-86.467841	-65.144057
04976	NaN	9.724893	-0.302632	-0.538917	-0.013151	-0.003216	-0.003710	-151.968519	-86.464727	-65.135412
04977	NaN	9.727633	-0.314364	-0.592364	-0.008491	-0.002200	-0.003742	-151.978892	-86.462113	-65.129786
04978	NaN	9.717425	-0.284597	-0.554377	-0.010696	0.010673	-0.002349	-151.921849	-86.465651	-65.192971
04979	NaN	9.712342	-0.269449	-0.535109	-0.022332	-0.000155	-0.004925	-151.940943	-86.464391	-65.186553
04980	NaN	9.737759	-0.271773	-0.589425	-0.036502	-0.003769	-0.007500	-152.003811	-86.462012	-65.144413
04981	NaN	9.762816	-0.264462	-0.556017	-0.040285	0.004795	-0.005519	-152.016486	-86.463416	-65.154731
04982	NaN	9.740196	-0.272613	-0.554843	-0.047584	0.003586	-0.007720	-152.055537	-86.464812	-65.142816
04983	NaN	9.722679	-0.295481	-0.572907	-0.056873	-0.002946	-0.003703	-152.096474	-86.461810	-65.134340
04984	NaN	9.710428	-0.272357	-0.657430	-0.044923	-0.000711	-0.001529	-152.101986	-86.459368	-65.154500
04985	NaN	9.700016	-0.303559	-0.572583	-0.042482	-0.001073	-0.001965	-152.112310	-86.456848	-65.168435
04986	NaN	9.689765	-0.273734	-0.535116	-0.047567	-0.000894	-0.003759	-152.138422	-86.454904	-65.169472
04987	NaN	9.715187	-0.276059	-0.589304	-0.047804	0.000867	-0.002910	-152.151127	-86.453621	-65.184077
04988	NaN	9.720309	-0.290391	-0.608385	-0.046565	-0.002672	0.002576	-152.132627	-86.449077	-65.229237
04989	NaN	9.770362	-0.277819	-0.541674	-0.045599	0.000061	0.004966	-152.083356	-86.445274	-65.304672
04990	NaN	9.717520	-0.278974	-0.555567	-0.043988	-0.000142	0.008336	-152.005814	-86.440457	-65.407509
04991	NaN	9.722608	-0.294130	-0.574804	-0.054118	-0.004300	0.008691	-151.950371	-86.433434	-65.494018
04992	NaN	9.750349	-0.300316	-0.594951	-0.043586	-0.001309	0.010169	-151.863357	-86.427515	-65.606115
04993	NaN	9.715400	-0.287277	-0.678378	-0.026718	0.000149	0.011458	-151.751205	-86.421974	-65.733717
04994	NaN	9.722477	-0.296802	-0.575659	-0.018126	-0.004526	0.015616	-151.620522	-86.412916	-65.874953
04995	NaN	9.742536	-0.216339	-0.570568	-0.022699	0.001883	0.017910	-151.447683	-86.406449	-66.061055
04996	NaN	9.787986	-0.269978	-0.612860	-0.032602	-0.004022	0.017414	-151.310173	-86.397103	-66.217445
04997	NaN	9.772755	-0.297918	-0.596716	-0.040042	0.003953	0.018327	-151.136243	-86.391497	-66.414600
04998	NaN	9.765015	-0.343284	-0.564847	-0.047171	0.003339	0.018804	-150.965184	-86.385395	-66.612972
04999	NaN	9.765103	-0.414847	-0.605134	-0.040469	0.005156	0.016507	-150.801742	-86.380825	-66.799866
05000	NaN	9.734552	-0.399045	-0.531776	-0.034368	0.005378	0.017169	-150.628292	-86.376121	-66.993286
05001	NaN	9.704464	-0.462061	-0.586780	-0.026559	0.000749	0.014144	-150.495991	-86.369952	-67.140992
05002	NaN	9.709441	-0.407590	-0.564708	-0.016462	0.009427	0.009864	-150.352319	-86.369263	-67.294296
05003	NaN	9.704599	-0.332652	-0.592414	-0.005930	-0.001866	0.009476	-150.257187	-86.363075	-67.392916
05004	NaN	9.727248	-0.324509	-0.593208	-0.004351	0.002445	0.008911	-150.145643	-86.359142	-67.507074
05005	NaN	9.722139	-0.310960	-0.573882	-0.008281	0.005920	0.012189	-149.996358	-86.356019	-67.661308
05006	NaN	9.734982	-0.282930	-0.623986	-0.002551	0.002789	0.014955	-149.835803	-86.350481	-67.823544
05007	NaN	9.727135	-0.258452	-0.551180	0.001619	0.009598	0.020153	-149.603130	-86.346817	-68.055652
05008	NaN	9.757656	-0.277646	-0.623254	-0.010413	0.009745	0.021511	-149.365864	-86.342726	-68.299271
05009	NaN	9.769819	-0.302800	-0.538070	-0.016373	0.014634	0.019597	-149.125592	-86.341582	-68.549327
05010	NaN	9.774943	-0.318764	-0.555675	-0.009797	0.013558	0.011096	-148.951198	-86.342311	-68.729592
05011	NaN	9.787511	-0.351962	-0.557900	-0.026553	0.015035	0.016012	-148.742517	-86.342316	-68.953836
05012	NaN	9.701867	-0.403813	-0.572473	-0.024895	0.012504	0.015853	-148.545226	-86.341030	-69.165713
05013	NaN	9.719465	-0.381798	-0.553198	-0.017358	0.011927	0.017207	-148.336876	-86.339058	-69.384347
05014	NaN	9.739826	-0.371584	-0.587263	-0.005934	0.010181	0.018810	-148.117522	-86.335645	-69.607447
05015	NaN	9.709243	-0.356433	-0.513300	0.004240	0.009781	0.022399	-147.868246	-86.330944	-69.854692
05016	NaN	9.704591	-0.282652	-0.540249	0.008733	0.010208	0.019693	-147.634625	-86.327153	-70.083670
05017	NaN	9.722176	-0.261404	-0.521301	-0.004296	0.005436	0.026109	-147.384461	-86.319078	-70.336709
05018	NaN	9.712436	-0.243507	-0.570310	-0.009843	0.009145	0.026021	-147.120662	-86.312689	-70.606596
05019	NaN	9.802705	-0.271714	-0.525774	-0.013704	0.005787	0.029701	-146.849638	-86.303513	-70.885944
05020	NaN	9.797515	-0.329782	-0.546924	-0.020635	0.007969	0.025390	-146.604592	-86.296603	-71.143240
05021	NaN	9.744110	-0.393977	-0.513164	-0.019436	0.008940	0.026936	-146.344231	-86.289647	-71.415198
05022	NaN	9.711569	-0.454912	-0.602104	-0.012078	0.007789	0.025615	-146.095432	-86.282433	-71.671345
05023	NaN	9.696140	-0.483745	-0.585530	0.002255	0.002138	0.025073	-145.871823	-86.272694	-71.894025
05024	NaN	9.759096	-0.445194	-0.568561	0.016082	0.002308	0.029770	-145.605999	-86.261394	-72.151070
05025	NaN	9.764171	-0.393057	-0.546705	0.032200	-0.003001	0.035279	-145.319943	-86.245784	-72.419143
05026	NaN	9.751134	-0.355902	-0.455418	0.030922	0.002890	0.033338	-145.020744	-86.233421	-72.701122
05027	NaN	9.671130	-0.292426	-0.496134	0.013617	0.002715	0.030216	-144.756989	-86.221983	-72.957522
05028	NaN	9.665769	-0.350879	-0.517778	0.001010	-0.001009	0.030995	-144.514613	-86.208409	-73.199739
05029	NaN	9.675748	-0.382959	-0.555913	-0.015480	-0.003556	0.031522	-144.293132	-86.193471	-73.430489
05030	NaN	9.743557	-0.429276	-0.599091	-0.011438	0.000368	0.030522	-144.057704	-86.180567	-73.672896
05031	NaN	9.783101	-0.461174	-0.534892	-0.006308	-0.002159	0.028789	-143.846261	-86.167078	-73.888326
05032	NaN	9.719780	-0.505186	-0.551636	0.001797	0.001154	0.030719	-143.601081	-86.154338	-74.132916
05033	NaN	9.649443	-0.461424	-0.543294	0.014787	-0.008374	0.022424	-143.455503	-86.140047	-74.270224
05034	NaN	9.652371	-0.405389	-0.556649	0.012736	-0.009167	0.024692	-143.300093	-86.124517	-74.418565
05035	NaN	9.725033	-0.387318	-0.491125	-0.005232	-0.008590	0.028061	-143.131218	-86.108143	-74.590725
05036	NaN	9.720288	-0.383998	-0.560877	-0.015570	-0.013257	0.025722	-143.008239	-86.090331	-74.722821
05037	NaN	9.767511	-0.441561	-0.569990	-0.023739	-0.009710	0.023396	-142.889363	-86.075002	-74.855501
05038	NaN	9.759225	-0.487274	-0.539493	-0.023300	-0.008691	0.017758	-142.802806	-86.061993	-74.955532
05039	NaN	9.686235	-0.509377	-0.606713	-0.020050	-0.006928	0.017038	-142.711531	-86.050107	-75.058432
05040	NaN	9.665644	-0.522742	-0.572542	-0.019424	-0.009865	0.018010	-142.628149	-86.036448	-75.153058
05041	NaN	9.668184	-0.535734	-0.626973	-0.007339	-0.012392	0.013120	-142.583808	-86.023420	-75.201613
05042	NaN	9.713559	-0.519422	-0.629529	-0.000655	-0.008304	0.014355	-142.506714	-86.011720	-75.279159
05043	NaN	9.713432	-0.520743	-0.630403	0.011610	-0.010266	0.012143	-142.447962	-85.999991	-75.331278
05044	NaN	9.726128	-0.483858	-0.593943	0.012628	-0.005346	0.007078	-142.396451	-85.992155	-75.375551
05045	NaN	9.705629	-0.496131	-0.559362	0.012269	-0.006484	0.001719	-142.386412	-85.985781	-75.378461
05046	NaN	9.720168	-0.531483	-0.529374	0.000857	-0.009215	0.004050	-142.380657	-85.977240	-75.383628
05047	NaN	9.738197	-0.517142	-0.599925	0.004160	-0.014300	0.003726	-142.401147	-85.966617	-75.360589
05048	NaN	9.748581	-0.476702	-0.598391	0.003936	-0.012545	0.004580	-142.406606	-85.956373	-75.352743
05049	NaN	9.695682	-0.477239	-0.613063	0.017352	-0.006697	0.003511	-142.383232	-85.949277	-75.366101
05050	NaN	9.677830	-0.500856	-0.631969	0.012714	-0.009990	0.000011	-142.400313	-85.941784	-75.341563
05051	NaN	9.650021	-0.495299	-0.613330	0.016195	-0.014503	0.002367	-142.423339	-85.931543	-75.309068
05052	NaN	9.705918	-0.437346	-0.613569	0.017000	-0.016869	0.006020	-142.433191	-85.918817	-75.289313
05053	NaN	9.735875	-0.446623	-0.600358	0.013517	-0.012353	0.003665	-142.438749	-85.909098	-75.275868
05054	NaN	9.808796	-0.426436	-0.534967	0.021847	-0.006290	0.000798	-142.427258	-85.902997	-75.274728
05055	NaN	9.811132	-0.429324	-0.501013	0.008602	-0.002534	-0.003318	-142.431984	-85.900177	-75.264940
05056	NaN	9.775560	-0.475174	-0.537362	-0.002955	0.000870	-0.015062	-142.500310	-85.902868	-75.198026
05057	NaN	9.727754	-0.488390	-0.570147	0.000122	-0.002458	-0.014531	-142.580657	-85.903989	-75.117294
05058	NaN	9.677343	-0.489995	-0.549691	-0.012540	0.000684	-0.014140	-142.649627	-85.906261	-75.055238
05059	NaN	9.682361	-0.503243	-0.568835	-0.022522	-0.002837	-0.011110	-142.723102	-85.906007	-74.994405
05060	NaN	9.690514	-0.458192	-0.600783	-0.017620	-0.003617	-0.011996	-142.802189	-85.905558	-74.925124
05061	NaN	9.725583	-0.480110	-0.605777	-0.019626	-0.006731	-0.013258	-142.906497	-85.904255	-74.831716
05062	NaN	9.744164	-0.394072	-0.635195	-0.018423	-0.005763	-0.011713	-142.994513	-85.902706	-74.753944
05063	NaN	9.783960	-0.421868	-0.571550	-0.029844	-0.003976	-0.013306	-143.091621	-85.902660	-74.673622
05064	NaN	9.733532	-0.423282	-0.551519	-0.024099	-0.004926	-0.018007	-143.219135	-85.903636	-74.559514
05065	NaN	9.690690	-0.450700	-0.603601	-0.027002	-0.001025	-0.015854	-143.316868	-85.905795	-74.476933
05066	NaN	9.685769	-0.434649	-0.584956	-0.026194	-0.003392	-0.012202	-143.401102	-85.905462	-74.407421
05067	NaN	9.703575	-0.409977	-0.567222	-0.015179	-0.003991	-0.012436	-143.484327	-85.905071	-74.332593
05068	NaN	9.716636	-0.379408	-0.617987	-0.022763	-0.001063	-0.010247	-143.542903	-85.905131	-74.286830
05069	NaN	9.759072	-0.418912	-0.607539	-0.027000	-0.005534	-0.011919	-143.636878	-85.903839	-74.208015
05070	NaN	9.794624	-0.371105	-0.571666	-0.020932	-0.003033	-0.007730	-143.687553	-85.902123	-74.169115
05071	NaN	9.746788	-0.384812	-0.604569	-0.025447	0.001089	-0.008943	-143.730022	-85.902869	-74.141047
05072	NaN	9.734475	-0.352071	-0.601066	-0.025254	-0.002869	-0.002335	-143.747658	-85.899400	-74.137768
05073	NaN	9.709345	-0.357450	-0.634996	-0.017894	-0.004041	-0.003671	-143.776032	-85.895988	-74.119492
05074	NaN	9.739421	-0.365941	-0.620925	-0.024669	-0.003488	0.002170	-143.767304	-85.890705	-74.142300
05075	NaN	9.744369	-0.380739	-0.640161	-0.016367	0.000367	0.006768	-143.706915	-85.885792	-74.212140
05076	NaN	9.754073	-0.401993	-0.590597	-0.008822	-0.000245	0.008110	-143.635977	-85.879986	-74.288210
05077	NaN	9.726312	-0.397198	-0.570964	-0.004532	-0.002615	0.010177	-143.561435	-85.872527	-74.365442
05078	NaN	9.751374	-0.392559	-0.537724	-0.002920	-0.002841	0.013545	-143.465237	-85.863659	-74.463453
05079	NaN	9.723586	-0.388144	-0.518366	-0.004927	-0.005951	0.012279	-143.393918	-85.853931	-74.537681
05080	NaN	9.717995	-0.445066	-0.541317	-0.020839	-0.013605	0.021264	-143.310694	-85.837462	-74.632982
05081	NaN	9.740569	-0.438066	-0.543734	-0.013032	-0.018283	0.018213	-143.265429	-85.820023	-74.685746
05082	NaN	9.715244	-0.445724	-0.578929	-0.020439	-0.014784	0.023091	-143.177330	-85.802369	-74.785713
05083	NaN	9.704588	-0.488521	-0.583608	-0.009154	-0.019462	0.018456	-143.134826	-85.784299	-74.833483
05084	NaN	9.699576	-0.484151	-0.654054	-0.000807	-0.017930	0.019516	-143.073640	-85.766416	-74.895197
05085	NaN	9.686381	-0.515374	-0.605216	-0.001842	-0.013800	0.016727	-143.012191	-85.751525	-74.957766
05086	NaN	9.708980	-0.508008	-0.607317	0.003685	-0.013004	0.012873	-142.967273	-85.738177	-75.000558
05087	NaN	9.746350	-0.543998	-0.666598	0.015336	-0.016560	0.013593	-142.928684	-85.723099	-75.030335
05088	NaN	9.771386	-0.539548	-0.634182	0.023049	-0.007570	0.009758	-142.867207	-85.713294	-75.078645
05089	NaN	9.711018	-0.514721	-0.576129	0.030409	-0.008751	0.008415	-142.816006	-85.703570	-75.112410
05090	NaN	9.707756	-0.573984	-0.564638	0.013710	-0.011804	0.006304	-142.800644	-85.693023	-75.119817
05091	NaN	9.671976	-0.620869	-0.602118	0.020297	-0.012930	-0.002224	-142.839058	-85.685073	-75.069523
05092	NaN	9.644251	-0.615055	-0.583288	0.021099	-0.010781	-0.002503	-142.867826	-85.678030	-75.028429
05093	NaN	9.626334	-0.638083	-0.602807	0.007703	-0.018921	-0.004947	-142.956912	-85.668278	-74.934555
05094	NaN	9.701908	-0.636776	-0.679563	0.003487	-0.021182	-0.014081	-143.112369	-85.660446	-74.776539
05095	NaN	9.712380	-0.593985	-0.678800	-0.009705	-0.022036	-0.025235	-143.347113	-85.656183	-74.546588
05096	NaN	9.757934	-0.573441	-0.682381	-0.019098	-0.014922	-0.033007	-143.600972	-85.657580	-74.302856
05097	NaN	9.727953	-0.561064	-0.697802	-0.029156	-0.002553	-0.038210	-143.838494	-85.666567	-74.081297
05098	NaN	9.750884	-0.548128	-0.699377	-0.016234	-0.009758	-0.043021	-144.129884	-85.673560	-73.798288
05099	NaN	9.771969	-0.453738	-0.606752	-0.006066	-0.005673	-0.043384	-144.401776	-85.682666	-73.528997
05100	NaN	9.800371	-0.385480	-0.585995	-0.001641	-0.000639	-0.039034	-144.621885	-85.692381	-73.309091
05101	NaN	9.818864	-0.288467	-0.527083	-0.007133	-0.003747	-0.038708	-144.859000	-85.700674	-73.075296
05102	NaN	9.819436	-0.223334	-0.574214	-0.011227	-0.005335	-0.034162	-145.076634	-85.706461	-72.863383
05103	NaN	9.804645	-0.184908	-0.605196	-0.025953	-0.002986	-0.031462	-145.277330	-85.712606	-72.676927
05104	NaN	9.716241	-0.228970	-0.655171	-0.038297	0.003589	-0.022142	-145.397344	-85.718591	-72.578471
05105	NaN	9.700967	-0.261239	-0.726783	-0.046822	-0.003023	-0.021942	-145.550993	-85.721555	-72.451186
05106	NaN	9.680308	-0.340712	-0.733114	-0.058694	-0.002249	-0.017865	-145.681691	-85.723362	-72.353739
05107	NaN	9.692286	-0.440562	-0.778389	-0.048730	-0.000935	-0.013448	-145.773922	-85.724532	-72.289141
05108	NaN	9.714668	-0.491641	-0.732782	-0.041016	0.003545	-0.013360	-145.841208	-85.727602	-72.245114
05109	NaN	9.679245	-0.528663	-0.681451	-0.023865	0.003120	-0.012978	-145.898868	-85.730532	-72.200897
05110	NaN	9.694223	-0.562394	-0.650758	-0.007121	0.003882	-0.014417	-145.952148	-85.734083	-72.151444
05111	NaN	9.760388	-0.461554	-0.646001	0.003078	0.003431	-0.010863	-145.979697	-85.736478	-72.121942
05112	NaN	9.848882	-0.413403	-0.595260	-0.004725	0.010327	-0.015249	-146.009257	-85.743346	-72.094894
05113	NaN	9.803585	-0.429475	-0.592636	-0.012471	0.010389	-0.019254	-146.069518	-85.751730	-72.041524
05114	NaN	9.750841	-0.427975	-0.605342	-0.016561	0.008787	-0.014711	-146.109293	-85.757693	-72.011041
05115	NaN	9.687792	-0.467526	-0.621261	-0.004281	0.006839	-0.016964	-146.165812	-85.763649	-71.956719
05116	NaN	9.680079	-0.510257	-0.589525	0.003077	0.003438	-0.010861	-146.192815	-85.765829	-71.927770
05117	NaN	9.733390	-0.447344	-0.621856	0.014686	0.006732	-0.010537	-146.197757	-85.769682	-71.914270
05118	NaN	9.753672	-0.426275	-0.568675	0.011431	0.004974	-0.009810	-146.206566	-85.772263	-71.898760
05119	NaN	9.766510	-0.395768	-0.618694	-0.002222	0.000875	-0.007862	-146.229239	-85.772474	-71.877194
05120	NaN	9.781809	-0.368074	-0.634745	-0.000331	-0.001176	-0.016348	-146.313431	-85.774200	-71.792838
05121	NaN	9.751705	-0.357989	-0.649068	-0.020206	0.003683	-0.011887	-146.360342	-85.777025	-71.757300
05122	NaN	9.734069	-0.380114	-0.666797	-0.006367	0.008339	-0.011155	-146.373686	-85.781634	-71.747435
05123	NaN	9.746624	-0.411105	-0.669707	-0.010295	0.011820	-0.007852	-146.353857	-85.787059	-71.773124
05124	NaN	9.774207	-0.485417	-0.729296	-0.005673	0.019628	-0.008272	-146.299470	-85.796129	-71.830795
05125	NaN	9.784305	-0.505286	-0.677889	0.008841	0.019045	-0.010112	-146.251832	-85.805713	-71.873375
05126	NaN	9.814669	-0.512951	-0.661183	0.018373	0.026079	-0.011430	-146.175611	-85.818844	-71.939133
05127	NaN	9.764492	-0.515595	-0.637633	0.028728	0.030731	-0.009106	-146.058247	-85.833657	-72.040198
05128	NaN	9.681899	-0.436796	-0.621801	0.039638	0.022751	-0.011653	-145.984853	-85.845256	-72.090908
05129	NaN	9.725066	-0.414854	-0.655346	0.034946	0.021786	-0.011612	-145.918686	-85.856605	-72.137065
05130	NaN	9.703066	-0.291678	-0.657659	0.042268	0.022937	-0.009417	-145.827619	-85.867560	-72.203983
05131	NaN	9.685352	-0.306397	-0.585975	0.036740	0.022122	-0.005564	-145.718495	-85.877109	-72.292178
05132	NaN	9.678051	-0.288748	-0.598952	0.030987	0.023055	-0.000856	-145.576298	-85.885333	-72.416821
05133	NaN	9.673124	-0.274555	-0.577878	0.017756	0.017744	0.002897	-145.441293	-85.890040	-72.541867
05134	NaN	9.710782	-0.301152	-0.546409	0.008571	0.016349	0.005647	-145.298911	-85.892948	-72.679574
05135	NaN	9.698351	-0.269999	-0.541278	-0.003451	0.011995	0.010941	-145.149027	-85.892275	-72.831718
05136	NaN	9.680619	-0.364060	-0.599505	-0.016893	0.010662	0.008092	-145.031104	-85.891671	-72.959540
05137	NaN	9.708008	-0.431481	-0.571554	-0.040190	0.015417	0.003106	-144.937824	-85.895135	-73.076038
05138	NaN	9.738089	-0.509685	-0.597116	-0.049294	0.009420	-0.001215	-144.904883	-85.896987	-73.137264
05139	NaN	9.738031	-0.579154	-0.637663	-0.047456	0.007445	0.001297	-144.864021	-85.897296	-73.205382
05140	NaN	9.752932	-0.614031	-0.606478	-0.031358	0.011180	-0.001070	-144.811612	-85.899906	-73.275833
05141	NaN	9.735369	-0.637042	-0.623893	-0.000896	0.009234	-0.004020	-144.770482	-85.902801	-73.317475
05142	NaN	9.715651	-0.517425	-0.593115	0.013163	0.012155	-0.004121	-144.707573	-85.906860	-73.372843
05143	NaN	9.718534	-0.458673	-0.604163	0.020944	0.009799	-0.003637	-144.648662	-85.909886	-73.419767
05144	NaN	9.716340	-0.385458	-0.596330	0.008703	0.009434	-0.004945	-144.606156	-85.912936	-73.457280
05145	NaN	9.761890	-0.297283	-0.555699	0.001149	0.010042	-0.006287	-144.574646	-85.916950	-73.488102
05146	NaN	9.752192	-0.276194	-0.604405	-0.010085	0.007841	-0.001277	-144.526307	-85.918038	-73.542264
05147	NaN	9.752250	-0.276172	-0.603488	-0.016481	0.011712	0.002463	-144.439776	-85.919915	-73.638375
05148	NaN	9.724078	-0.332514	-0.536017	-0.007110	0.013662	0.002399	-144.338426	-85.922482	-73.743922
05149	NaN	9.663926	-0.315679	-0.563599	-0.015964	0.017923	0.006584	-144.195316	-85.925843	-73.896458
05150	NaN	9.663915	-0.386107	-0.603659	-0.021984	0.006352	0.010221	-144.085852	-85.922363	-74.018713
05151	NaN	9.726888	-0.415481	-0.627300	-0.024673	0.008493	0.011526	-143.960028	-85.919641	-74.158922
05152	NaN	9.772309	-0.398699	-0.627783	-0.021470	0.012564	0.014346	-143.794558	-85.917594	-74.337037
05153	NaN	9.764426	-0.444087	-0.595238	-0.034404	0.017460	0.015612	-143.605587	-85.917571	-74.546143
05154	NaN	9.729288	-0.422032	-0.589310	-0.020020	0.014020	0.007585	-143.476205	-85.918424	-74.687238
05155	NaN	9.708859	-0.504444	-0.594417	-0.029398	0.012083	0.007647	-143.361415	-85.918574	-74.819099
05156	NaN	9.660670	-0.511926	-0.538774	-0.017540	0.009089	0.011054	-143.231967	-85.915933	-74.958865
05157	NaN	9.633431	-0.445845	-0.564659	-0.019590	0.008285	0.013320	-143.093540	-85.912350	-75.108790
05158	NaN	9.701541	-0.420203	-0.566155	-0.022617	0.004775	0.013177	-142.974505	-85.906953	-75.241003
05159	NaN	9.719146	-0.397970	-0.547372	-0.030178	0.005399	0.011833	-142.866114	-85.902520	-75.366900
05160	NaN	9.724233	-0.413077	-0.565845	-0.036330	0.009780	0.007268	-142.768868	-85.901435	-75.485119
05161	NaN	9.774147	-0.471829	-0.539403	-0.030545	0.004303	0.006475	-142.700423	-85.898331	-75.571178
05162	NaN	9.751415	-0.481486	-0.538412	-0.030189	0.005411	0.011837	-142.592098	-85.893634	-75.697008
05163	NaN	9.723504	-0.546272	-0.559704	-0.028500	0.005118	0.004214	-142.533139	-85.891670	-75.772382
05164	NaN	9.665629	-0.532392	-0.554233	-0.019685	0.003145	0.003565	-142.482442	-85.888790	-75.834420
05165	NaN	9.691128	-0.534748	-0.608419	-0.017154	-0.004098	0.003483	-142.466485	-85.882885	-75.860164
05166	NaN	9.754043	-0.563585	-0.633080	-0.005129	-0.002014	0.005660	-142.419353	-85.876939	-75.910263
05167	NaN	9.773905	-0.544277	-0.580610	0.003868	-0.003441	0.007689	-142.361897	-85.869859	-75.965539
05168	NaN	9.766501	-0.527143	-0.596068	0.004305	-0.002389	0.002059	-142.333901	-85.864973	-75.990979
05169	NaN	9.754032	-0.495457	-0.592414	0.016788	-0.003806	0.002510	-142.303544	-85.859536	-76.011663
05170	NaN	9.705781	-0.502563	-0.537787	0.018380	0.000501	0.001971	-142.254192	-85.855994	-76.050458
05171	NaN	9.701205	-0.496310	-0.606283	0.022274	-0.000687	0.002212	-142.207609	-85.852072	-76.084259
05172	NaN	9.709204	-0.452459	-0.637114	0.026325	0.003228	0.001227	-142.145386	-85.849998	-76.131452
05173	NaN	9.734225	-0.447085	-0.602941	0.027120	0.005384	0.000958	-142.074558	-85.849258	-76.186778
05174	NaN	9.764339	-0.455965	-0.587625	0.031399	0.007550	-0.000889	-142.001589	-85.849871	-76.241769
05175	NaN	9.746778	-0.479145	-0.604872	0.025021	0.013682	-0.004594	-141.926103	-85.854825	-76.302971
05176	NaN	9.756505	-0.499651	-0.553974	0.025248	0.011935	-0.005454	-141.863500	-85.859042	-76.351088
05177	NaN	9.701554	-0.496201	-0.600766	0.027067	0.014494	-0.006856	-141.796646	-85.865152	-76.402460
05178	NaN	9.726647	-0.489944	-0.565728	0.022605	0.011779	-0.007688	-141.750029	-85.870060	-76.436094
05179	NaN	9.709134	-0.512591	-0.582834	0.021169	0.012577	-0.008375	-141.705168	-85.875841	-76.468803
05180	NaN	9.719515	-0.470951	-0.578382	0.015046	0.012404	-0.009035	-141.667857	-85.881512	-76.497398
05181	NaN	9.704248	-0.496613	-0.561577	0.013915	0.004595	-0.010211	-141.677865	-85.884356	-76.479263
05182	NaN	9.724795	-0.483688	-0.595830	0.008535	0.008881	-0.007605	-141.652936	-85.887933	-76.499314
05183	NaN	9.727140	-0.485980	-0.560651	0.014299	0.007949	-0.012302	-141.659230	-85.893027	-76.484682
05184	NaN	9.744836	-0.461566	-0.541557	0.003899	0.005605	-0.011118	-141.675145	-85.896383	-76.466466
05185	NaN	9.737578	-0.442943	-0.555956	0.005256	0.011667	-0.010802	-141.658829	-85.902614	-76.479697
05186	NaN	9.692269	-0.459582	-0.553687	0.005539	0.007611	-0.015200	-141.689262	-85.908330	-76.445863
05187	NaN	9.715085	-0.449053	-0.553781	0.002338	0.003540	-0.018025	-141.760459	-85.913471	-76.373033
05188	NaN	9.672658	-0.476445	-0.605447	-0.002580	0.004321	-0.017140	-141.824353	-85.918377	-76.310318
05189	NaN	9.707962	-0.497830	-0.609432	-0.009958	0.005490	-0.015812	-141.879277	-85.923601	-76.260867
05190	NaN	9.738129	-0.504836	-0.594586	-0.004169	0.000013	-0.016595	-141.962356	-85.926366	-76.179865
05191	NaN	9.745594	-0.520812	-0.579093	0.001079	0.004895	-0.016032	-142.015577	-85.931391	-76.125782
05192	NaN	9.722997	-0.528035	-0.578267	0.011609	-0.001913	-0.020379	-142.123509	-85.934608	-76.010846
05193	NaN	9.718555	-0.450135	-0.605310	0.024559	0.007464	-0.019695	-142.174212	-85.942073	-75.945800
05194	NaN	9.725936	-0.396286	-0.548324	0.030758	0.000796	-0.018655	-142.247021	-85.945864	-75.855004
05195	NaN	9.750938	-0.389067	-0.514406	0.020075	0.002499	-0.013077	-142.282899	-85.948749	-75.807397
05196	NaN	9.726081	-0.393626	-0.547663	0.006168	0.004674	-0.014236	-142.322639	-85.952763	-75.763921
05197	NaN	9.706389	-0.412375	-0.599942	-0.001154	0.003531	-0.016449	-142.387366	-85.957290	-75.699587
05198	NaN	9.698554	-0.454829	-0.568465	-0.003381	0.002167	-0.016866	-142.462080	-85.961070	-75.626508
05199	NaN	9.703790	-0.467897	-0.587210	0.000636	0.003849	-0.010401	-142.485526	-85.963622	-75.602531
05200	NaN	9.696491	-0.449083	-0.602004	0.005754	0.005877	-0.016055	-142.531538	-85.968794	-75.552934
05201	NaN	9.706907	-0.476550	-0.639567	0.004117	0.003869	-0.011973	-142.563129	-85.971901	-75.518792
05202	NaN	9.736879	-0.414311	-0.583171	0.010793	0.007966	-0.010721	-142.561897	-85.976148	-75.513789
05203	NaN	9.696540	-0.376041	-0.559143	0.017789	0.003456	-0.009951	-142.574696	-85.978362	-75.490633
05204	NaN	9.754519	-0.389407	-0.563810	0.014896	0.002794	-0.003880	-142.552247	-85.977871	-75.504413
05205	NaN	9.727199	-0.322233	-0.590228	0.006264	0.005295	-0.000569	-142.501839	-85.977652	-75.551240
05206	NaN	9.775047	-0.377051	-0.597815	0.000145	0.005106	-0.001235	-142.459324	-85.977307	-75.593595
05207	NaN	9.824896	-0.365408	-0.529784	-0.000143	0.009163	0.003160	-142.369306	-85.977534	-75.683809
05208	NaN	9.729017	-0.387329	-0.507218	0.002081	0.010529	0.003577	-142.267908	-85.977952	-75.784174
05209	NaN	9.752508	-0.386573	-0.594428	-0.020578	0.012335	-0.000494	-142.197250	-85.980878	-75.866719
05210	NaN	9.704481	-0.462719	-0.579846	-0.008698	0.011607	-0.004516	-142.148692	-85.984599	-75.920299
05211	NaN	9.764952	-0.549085	-0.590611	-0.020759	0.011784	-0.003172	-142.097937	-85.988207	-75.982994
05212	NaN	9.716950	-0.624727	-0.576302	-0.010022	0.007791	-0.012279	-142.119086	-85.992960	-75.967436
05213	NaN	9.762441	-0.605567	-0.576754	0.009358	0.008765	-0.011404	-142.119283	-85.998099	-75.961756
05214	NaN	9.704339	-0.520866	-0.529706	0.020393	0.008185	-0.011615	-142.116636	-86.002754	-75.952561
05215	NaN	9.679275	-0.455877	-0.521542	0.023319	0.004300	-0.013771	-142.146673	-86.006705	-75.908949
05216	NaN	9.697344	-0.369710	-0.549332	0.014363	0.001139	-0.011908	-142.185096	-86.008290	-75.862171
05217	NaN	9.714890	-0.345109	-0.530598	0.001246	0.005458	-0.013350	-142.219350	-86.012614	-75.827010
05218	NaN	9.745026	-0.352382	-0.515573	-0.005249	0.001910	-0.011927	-142.265102	-86.014547	-75.783993
05219	NaN	9.760678	-0.394598	-0.572473	-0.015696	0.001842	-0.007218	-142.287487	-86.015079	-75.770461
05220	NaN	9.738053	-0.402724	-0.571567	-0.015320	0.005200	-0.009310	-142.305834	-86.017577	-75.760845
05221	NaN	9.732432	-0.448841	-0.505568	-0.010816	0.005631	-0.012008	-142.337592	-86.021504	-75.735116
05222	NaN	9.705460	-0.450491	-0.573050	-0.010639	0.006185	-0.009330	-142.348414	-86.024468	-75.730333
05223	NaN	9.748225	-0.489917	-0.561516	-0.012076	0.006978	-0.010020	-142.361198	-86.028309	-75.724346
05224	NaN	9.723097	-0.425084	-0.553167	-0.009300	0.012257	-0.009013	-142.338397	-86.033921	-75.752429
05225	NaN	9.723187	-0.423922	-0.552465	-0.003205	0.002733	-0.014184	-142.394818	-86.037294	-75.697605
05226	NaN	9.723282	-0.422643	-0.551776	-0.011939	0.012090	-0.011251	-142.389064	-86.043611	-75.710123
05227	NaN	9.736007	-0.453367	-0.554699	-0.010820	0.005638	-0.012007	-142.421033	-86.047539	-75.684184
05228	NaN	9.703842	-0.440571	-0.603208	-0.003265	0.005040	-0.010646	-142.441969	-86.050451	-75.664944
05229	NaN	9.703911	-0.439580	-0.602817	0.002067	0.003074	-0.009705	-142.464464	-86.052408	-75.641100
05230	NaN	9.728803	-0.432952	-0.568811	0.014719	0.002260	-0.006544	-142.462310	-86.052606	-75.634714
05231	NaN	9.733627	-0.377266	-0.546466	0.010625	0.000627	-0.002027	-142.441741	-86.050771	-75.649122
05232	NaN	9.751066	-0.353614	-0.528118	0.011097	-0.002874	-0.003744	-142.449155	-86.047664	-75.635193
05233	NaN	9.763716	-0.385371	-0.531757	0.012611	0.003748	-0.000749	-142.403297	-86.046799	-75.673810
05234	NaN	9.733657	-0.376836	-0.546219	0.001023	0.000408	-0.001129	-142.382733	-86.044267	-75.693688
05235	NaN	9.718402	-0.403386	-0.530223	0.002223	0.001369	0.000420	-142.347254	-86.041911	-75.727867
05236	NaN	9.718402	-0.403509	-0.530133	-0.008401	0.000740	0.002446	-142.307008	-86.038301	-75.772861
05237	NaN	9.723627	-0.418182	-0.549096	-0.016803	0.001481	0.004892	-142.252718	-86.034424	-75.836824
05238	NaN	9.739322	-0.461655	-0.606021	-0.008638	0.002492	0.003305	-142.198306	-86.031296	-75.896146
05239	NaN	9.776809	-0.487896	-0.575648	-0.002145	0.006045	0.001886	-142.132301	-86.030532	-75.963433
05240	NaN	9.741511	-0.465338	-0.570937	-0.001083	0.001894	0.004666	-142.067931	-86.026621	-76.028411
05241	NaN	9.741495	-0.465846	-0.570795	0.011391	0.000530	0.005150	-142.001061	-86.022205	-76.088792
05242	NaN	9.723617	-0.420221	-0.547705	0.013141	0.005402	0.007288	-141.893969	-86.018955	-76.188424
05243	NaN	9.748432	-0.415029	-0.513807	0.014498	-0.002803	0.005674	-141.839177	-86.012840	-76.234913
05244	NaN	9.778946	-0.362763	-0.545600	0.009283	0.002020	0.010946	-141.728518	-86.006739	-76.340447
05245	NaN	9.743551	-0.472240	-0.535638	0.000293	0.003409	0.008893	-141.629967	-86.002262	-76.438962
05246	NaN	9.698202	-0.490913	-0.533976	-0.008086	0.006406	0.003891	-141.552515	-86.000608	-76.521052
05247	NaN	9.675949	-0.570014	-0.574064	-0.006415	0.003863	0.003723	-141.488956	-85.998159	-76.588343
05248	NaN	9.668573	-0.552530	-0.589092	-0.004307	0.002375	-0.002072	-141.468439	-85.996825	-76.611340
05249	NaN	9.698661	-0.560732	-0.574243	0.007990	0.000457	-0.004265	-141.465233	-85.995695	-76.609857
05250	NaN	9.706568	-0.516473	-0.605348	0.018179	0.000028	-0.000661	-141.434730	-85.992797	-76.629952
05251	NaN	9.766289	-0.463585	-0.534706	0.016566	0.000268	-0.004030	-141.426082	-85.991499	-76.628998
05252	NaN	9.713585	-0.463703	-0.548614	0.014717	0.002259	-0.006541	-141.423998	-85.991691	-76.622698
05253	NaN	9.746340	-0.413124	-0.545905	0.012494	0.000891	-0.006960	-141.433239	-85.991719	-76.606151
05254	NaN	9.716297	-0.404050	-0.560669	-0.002575	-0.002475	-0.005776	-141.459819	-85.989524	-76.580815
05255	NaN	9.746368	-0.412192	-0.546110	-0.006117	-0.000196	-0.000673	-141.445067	-85.986819	-76.599009
05256	NaN	9.719406	-0.414274	-0.614238	-0.007235	-0.001208	-0.013205	-141.515419	-85.987863	-76.532520
05257	NaN	9.786992	-0.447574	-0.569431	-0.020004	0.004210	-0.009298	-141.541349	-85.990211	-76.517908
05258	NaN	9.739084	-0.523149	-0.555839	-0.007296	0.001099	-0.009669	-141.577659	-85.991005	-76.485659
05259	NaN	9.714316	-0.528025	-0.589536	0.002541	-0.000431	-0.011422	-141.627904	-85.992024	-76.433724
05260	NaN	9.724406	-0.485995	-0.586217	0.010231	0.004086	-0.011291	-141.649282	-85.994714	-76.406313
05261	NaN	9.719232	-0.470746	-0.566709	0.016524	0.004836	-0.007939	-141.642482	-85.996858	-76.403531
05262	NaN	9.729308	-0.429086	-0.563078	0.018982	0.004455	-0.008377	-141.638236	-85.998701	-76.396775
05263	NaN	9.741532	-0.390331	-0.525263	0.008007	0.002718	-0.011710	-141.671316	-86.001234	-76.358908
05264	NaN	9.722017	-0.409751	-0.577785	-0.004661	0.001266	-0.007429	-141.690654	-86.001298	-76.342022
05265	NaN	9.746870	-0.403070	-0.543948	-0.007120	0.001648	-0.006991	-141.707529	-86.001672	-76.329088
05266	NaN	9.721662	-0.469796	-0.531003	-0.012215	0.001859	-0.008793	-141.737129	-86.002483	-76.306317
05267	NaN	9.744359	-0.459990	-0.531591	-0.011389	-0.000539	-0.005153	-141.755723	-86.001220	-76.294110
05268	NaN	9.709585	-0.506247	-0.568419	-0.004662	0.001268	-0.007429	-141.775247	-86.001289	-76.277140
05269	NaN	9.702223	-0.487854	-0.583654	-0.004839	0.000717	-0.010106	-141.815609	-86.002346	-76.239351
05270	NaN	9.730198	-0.492160	-0.603166	0.002301	0.001326	-0.010562	-141.850794	-86.003580	-76.202582
05271	NaN	9.727164	-0.479720	-0.549571	-0.000986	0.004107	-0.013763	-141.895433	-86.007455	-76.158293
05272	NaN	9.732510	-0.492852	-0.568243	-0.000573	0.002908	-0.011943	-141.933272	-86.009837	-76.120508
05273	NaN	9.685133	-0.506602	-0.601063	0.003931	0.003348	-0.014638	-141.984757	-86.013674	-76.066532
05274	NaN	9.722140	-0.461309	-0.529692	0.011546	0.000456	-0.016809	-142.059709	-86.016672	-75.984597
05275	NaN	9.707370	-0.424895	-0.560107	0.011484	0.002760	-0.013273	-142.101178	-86.019754	-75.936324
05276	NaN	9.752750	-0.405401	-0.560921	0.011068	0.003962	-0.015092	-142.147847	-86.023692	-75.883062
05277	NaN	9.747552	-0.389589	-0.541544	0.006387	0.002971	-0.015075	-142.203070	-86.027497	-75.823930
05278	NaN	9.700185	-0.403216	-0.574312	0.002490	0.004141	-0.015328	-142.255312	-86.031606	-75.769910
05279	NaN	9.709838	-0.422416	-0.524437	-0.006455	0.000956	-0.013474	-142.317829	-86.033929	-75.710843
05280	NaN	9.722977	-0.391274	-0.574421	-0.008547	0.004698	-0.015127	-142.372393	-86.038237	-75.660802
05281	NaN	9.745364	-0.442157	-0.528281	-0.012751	0.000204	-0.016825	-142.464470	-86.041380	-75.575721
05282	NaN	9.705434	-0.473257	-0.546189	-0.009700	-0.000824	-0.012765	-142.532574	-86.042329	-75.512910
05283	NaN	9.729150	-0.470941	-0.634239	-0.004892	0.005285	-0.014014	-142.576269	-86.046790	-75.471812
05284	NaN	9.756165	-0.466706	-0.565973	-0.000102	-0.000585	-0.013656	-142.643648	-86.048148	-75.404221
05285	NaN	9.713423	-0.424941	-0.576732	0.011667	0.005591	-0.018036	-142.703063	-86.054140	-75.337856
05286	NaN	9.730852	-0.399946	-0.557824	0.010039	0.003568	-0.013960	-142.745762	-86.057495	-75.289107
05287	NaN	9.733065	-0.401535	-0.523416	-0.001479	-0.002095	-0.017881	-142.850643	-86.059916	-75.184718
05288	NaN	9.693162	-0.432749	-0.541229	-0.012641	0.003054	-0.010612	-142.886976	-86.061874	-75.155413
05289	NaN	9.685764	-0.414063	-0.556481	-0.009703	-0.000823	-0.012764	-142.956380	-86.063093	-75.091309
05290	NaN	9.696434	-0.441543	-0.594591	-0.014623	-0.000067	-0.011889	-143.017997	-86.064070	-75.037768
05291	NaN	9.696482	-0.440235	-0.594772	-0.009465	-0.002571	-0.013621	-143.101791	-86.064773	-74.959103
05292	NaN	9.728791	-0.450285	-0.545654	-0.011020	0.005085	-0.014685	-143.154753	-86.069034	-74.912374
05293	NaN	9.711564	-0.472260	-0.563845	-0.009102	0.000797	-0.015710	-143.235605	-86.071987	-74.836450
05294	NaN	9.754765	-0.449026	-0.599210	-0.002558	0.002073	-0.020659	-143.338820	-86.076897	-74.734414
05295	NaN	9.774329	-0.426445	-0.546214	0.002964	0.002938	-0.024479	-143.461302	-86.083811	-74.609835
05296	NaN	9.764642	-0.465087	-0.548803	-0.000397	0.008019	-0.024144	-143.557706	-86.092627	-74.513363
05297	NaN	9.687318	-0.469588	-0.595881	0.009201	0.008268	-0.025033	-143.654706	-86.102158	-74.410746
05298	NaN	9.722032	-0.420051	-0.558454	0.000321	0.002774	-0.026716	-143.794980	-86.109388	-74.269799
05299	NaN	9.742465	-0.466929	-0.546586	-0.009102	0.003074	-0.023149	-143.916481	-86.115847	-74.153137
05300	NaN	9.722263	-0.415339	-0.557962	-0.007665	0.002287	-0.022457	-144.035653	-86.121375	-74.037970
05301	NaN	9.735210	-0.444918	-0.561506	-0.002746	0.001540	-0.023330	-144.163116	-86.127150	-73.911683
05302	NaN	9.750429	-0.415938	-0.577378	0.001394	-0.001370	-0.023934	-144.305925	-86.131453	-73.767586
05303	NaN	9.747318	-0.402348	-0.524032	0.000731	0.001586	-0.024893	-144.442692	-86.137730	-73.629979
05304	NaN	9.732407	-0.364989	-0.554654	0.006312	-0.002112	-0.024806	-144.593312	-86.141919	-73.475341
05305	NaN	9.760452	-0.367761	-0.574408	0.003849	-0.001736	-0.024369	-144.741801	-86.146422	-73.324197
05306	NaN	9.753032	-0.348068	-0.589558	0.007800	0.004516	-0.021810	-144.838621	-86.152674	-73.222485
05307	NaN	9.706860	-0.356162	-0.500332	-0.000960	0.004131	-0.024723	-144.964325	-86.160002	-73.096940
05308	NaN	9.732795	-0.355895	-0.553750	0.003896	0.005682	-0.022063	-145.060474	-86.166868	-72.998276
05309	NaN	9.738268	-0.368266	-0.572379	0.002519	0.001898	-0.018847	-145.154681	-86.171191	-72.902303
05310	NaN	9.743730	-0.380855	-0.591158	0.006177	0.002489	-0.017735	-145.235240	-86.175118	-72.817921
05311	NaN	9.723346	-0.391721	-0.556166	0.010920	-0.001078	-0.013844	-145.304277	-86.176388	-72.742352
05312	NaN	9.715854	-0.373161	-0.571581	0.002942	-0.001586	-0.009590	-145.348969	-86.175741	-72.695594
05313	NaN	9.748129	-0.321832	-0.569434	0.003671	-0.006831	-0.012162	-145.438308	-86.173740	-72.603841
05314	NaN	9.715846	-0.309736	-0.619106	-0.002929	-0.005835	-0.003683	-145.465657	-86.169151	-72.577998
05315	NaN	9.748091	-0.320840	-0.570652	0.001151	-0.006449	-0.000754	-145.473994	-86.163617	-72.568873
05316	NaN	9.787859	-0.288032	-0.553201	0.005342	-0.001945	0.000945	-145.445240	-86.159352	-72.594514
05317	NaN	9.748060	-0.321152	-0.571004	0.006055	0.002512	0.004207	-145.372586	-86.156432	-72.663747
05318	NaN	9.714703	-0.302158	-0.532138	0.003595	0.002883	0.004644	-145.295873	-86.153226	-72.738516
05319	NaN	9.725474	-0.331369	-0.569813	-0.003785	0.003995	0.005953	-145.209667	-86.150420	-72.826984
05320	NaN	9.692119	-0.312344	-0.530919	-0.011102	0.002814	0.003731	-145.148177	-86.147501	-72.894837
05321	NaN	9.712539	-0.300694	-0.565805	-0.023933	-0.001526	0.012765	-145.053174	-86.139853	-73.003692
05322	NaN	9.779207	-0.402433	-0.596483	-0.022203	0.003351	0.014902	-144.918288	-86.133501	-73.151510
05323	NaN	9.756584	-0.412928	-0.595545	-0.020409	0.005936	0.013506	-144.780581	-86.129072	-73.301144
05324	NaN	9.754390	-0.472691	-0.582923	-0.021431	0.005522	0.014634	-144.637565	-86.123747	-73.456766
05325	NaN	9.757604	-0.485061	-0.635692	-0.002653	0.007248	0.011039	-144.500917	-86.120701	-73.595143
05326	NaN	9.696258	-0.461763	-0.576828	0.010007	0.006474	0.014207	-144.338643	-86.115914	-73.751925
05327	NaN	9.713456	-0.439679	-0.557570	0.016903	0.008856	0.014614	-144.158933	-86.112366	-73.922234
05328	NaN	9.721011	-0.396980	-0.588058	0.011688	0.003940	0.014041	-144.010015	-86.106394	-74.064626
05329	NaN	9.747850	-0.395457	-0.519371	0.003642	0.008013	0.014390	-143.844321	-86.102467	-74.228505
05330	NaN	9.751085	-0.407805	-0.572075	-0.006071	0.004918	0.009068	-143.735310	-86.098596	-74.341138
05331	NaN	9.723096	-0.403553	-0.552069	-0.018132	0.005035	0.010391	-143.624536	-86.094603	-74.462474
05332	NaN	9.761693	-0.499938	-0.562847	-0.011771	0.003501	0.010210	-143.518774	-86.089631	-74.575195
05333	NaN	9.683102	-0.499806	-0.522825	-0.004632	0.004130	0.009760	-143.409534	-86.085406	-74.687243
05334	NaN	9.691693	-0.526055	-0.595099	-0.005102	-0.002077	0.005635	-143.358638	-86.079414	-74.740992
05335	NaN	9.696020	-0.471321	-0.573085	0.004676	-0.001279	0.007425	-143.287167	-86.073484	-74.809838
05336	NaN	9.733700	-0.436180	-0.589597	0.004676	-0.001279	0.007425	-143.215078	-86.067232	-74.879230
05337	NaN	9.756274	-0.427799	-0.590099	0.006651	0.001847	0.008705	-143.118772	-86.062282	-74.971837
05338	NaN	9.758369	-0.431644	-0.555697	0.009177	-0.000822	0.004735	-143.060254	-86.057173	-75.025096
05339	NaN	9.745507	-0.400560	-0.551536	0.010183	0.009302	0.009448	-142.920115	-86.055359	-75.159610
05340	NaN	9.717532	-0.396027	-0.531471	0.000177	0.000545	0.002676	-142.873883	-86.051533	-75.205706
05341	NaN	9.737870	-0.445464	-0.519778	-0.006361	0.001538	0.000181	-142.843692	-86.049357	-75.239515
05342	NaN	9.741130	-0.456617	-0.572999	-0.014941	0.001701	-0.000060	-142.818773	-86.046996	-75.273048
05343	NaN	9.736759	-0.511824	-0.595017	-0.004320	0.002368	-0.002073	-142.798197	-86.045978	-75.296046
05344	NaN	9.714174	-0.520976	-0.594086	0.000293	0.005664	0.001448	-142.734620	-86.044910	-75.359520
05345	NaN	9.701343	-0.488980	-0.590154	0.010687	-0.001627	-0.005548	-142.748435	-86.043273	-75.339427
05346	NaN	9.759447	-0.502079	-0.594752	0.014638	0.004624	-0.002986	-142.711316	-86.043264	-75.368253
05347	NaN	9.741263	-0.455696	-0.571473	0.021777	0.005253	-0.003435	-142.670330	-86.044030	-75.396722
05348	NaN	9.741308	-0.455486	-0.570862	0.021775	0.005255	-0.003435	-142.628548	-86.044470	-75.425972
05349	NaN	9.715632	-0.391573	-0.562972	0.022016	0.003507	-0.004292	-142.601826	-86.044736	-75.440006
05350	NaN	9.740389	-0.385150	-0.528724	0.007077	0.005203	-0.004355	-142.574458	-86.045479	-75.463087
05351	NaN	9.730692	-0.425721	-0.531286	-0.002941	0.006150	-0.005290	-142.555274	-86.047295	-75.483897
05352	NaN	9.693150	-0.399391	-0.561222	-0.011148	-0.002310	-0.006018	-142.587298	-86.045191	-75.457983
05353	NaN	9.758744	-0.429531	-0.550727	-0.017152	0.002595	-0.007926	-142.611531	-86.046307	-75.443434
05354	NaN	9.713580	-0.447258	-0.549327	-0.019680	0.005266	-0.003956	-142.596934	-86.046940	-75.469260
05355	NaN	9.749096	-0.469288	-0.553323	-0.016734	0.001394	-0.006107	-142.615001	-86.046876	-75.460653
05356	NaN	9.767406	-0.514566	-0.575889	0.000848	0.002151	-0.011242	-142.652442	-86.048619	-75.422590
05357	NaN	9.773923	-0.461254	-0.519077	0.010205	0.004158	-0.011267	-142.675216	-86.051607	-75.393792
05358	NaN	9.715910	-0.446795	-0.513860	0.012664	0.003786	-0.011702	-142.700124	-86.054287	-75.361225
05359	NaN	9.691273	-0.451890	-0.547282	0.015544	0.002210	-0.010319	-142.723449	-86.056055	-75.328809
05360	NaN	9.679638	-0.427377	-0.630888	0.011819	0.003917	-0.007899	-142.723674	-86.057407	-75.321747
05361	NaN	9.723702	-0.400009	-0.543920	0.009181	0.003745	-0.010140	-142.741764	-86.059813	-75.298233
05362	NaN	9.742055	-0.445244	-0.566188	0.009181	0.003746	-0.010139	-142.758750	-86.061875	-75.275646
05363	NaN	9.719516	-0.453556	-0.565332	0.005943	0.001952	-0.009435	-142.783101	-86.063218	-75.247716
05364	NaN	9.724976	-0.466883	-0.584149	0.008227	0.001036	-0.012546	-142.830874	-86.064923	-75.195137
05365	NaN	9.676635	-0.411510	-0.576000	0.003238	0.004075	-0.008143	-142.837558	-86.066786	-75.186470
05366	NaN	9.682081	-0.425063	-0.594895	0.004391	-0.002379	-0.008896	-142.880629	-86.065621	-75.140837
05367	NaN	9.699197	-0.462309	-0.530264	0.016092	-0.005855	-0.008124	-142.929730	-86.062938	-75.082270
05368	NaN	9.751926	-0.460461	-0.516084	0.011637	0.003379	-0.010573	-142.950040	-86.065016	-75.054911
05369	NaN	9.693947	-0.384546	-0.557805	0.010329	-0.002702	-0.010891	-143.004990	-86.064724	-74.993790
05370	NaN	9.714470	-0.371094	-0.592930	0.010151	-0.003247	-0.013566	-143.079350	-86.064765	-74.913119
05371	NaN	9.759626	-0.413024	-0.547728	0.001752	-0.002552	-0.011136	-143.140082	-86.064617	-74.851130
05372	NaN	9.755422	-0.467181	-0.569935	0.000908	-0.000143	-0.014773	-143.212673	-86.066499	-74.777712
05373	NaN	9.710322	-0.484151	-0.568781	0.000486	0.001062	-0.016591	-143.292592	-86.069869	-74.697217
05374	NaN	9.704986	-0.468270	-0.549699	0.008042	0.000500	-0.015219	-143.360907	-86.072223	-74.623950
05375	NaN	9.712581	-0.422893	-0.581024	0.015245	-0.003433	-0.011758	-143.422563	-86.071861	-74.553285
05376	NaN	9.739410	-0.357304	-0.559746	0.012962	-0.002518	-0.008648	-143.459271	-86.070541	-74.508956
05377	NaN	9.749060	-0.315306	-0.557024	0.005894	-0.005454	-0.011732	-143.536093	-86.069231	-74.428460
05378	NaN	9.718976	-0.306141	-0.571883	-0.002885	0.003854	-0.008823	-143.551650	-86.070892	-74.414501
05379	NaN	9.746997	-0.372176	-0.545057	-0.001237	-0.008378	-0.003847	-143.594076	-86.065544	-74.372576
05380	NaN	9.716849	-0.363785	-0.560607	-0.005978	-0.007095	-0.000303	-143.608616	-86.059247	-74.361486
05381	NaN	9.737297	-0.413045	-0.549556	-0.007242	-0.005764	0.001680	-143.604448	-86.053224	-74.369715
05382	NaN	9.712555	-0.419398	-0.583991	-0.012935	-0.007193	0.002820	-143.602675	-86.045803	-74.379014
05383	NaN	9.748044	-0.442054	-0.588839	-0.008683	-0.004976	0.000988	-143.600109	-86.040378	-74.386466
05384	NaN	9.808245	-0.396972	-0.605944	0.008087	0.003354	0.001957	-143.540090	-86.038155	-74.441975
05385	NaN	9.748049	-0.442131	-0.588696	0.007975	0.000516	-0.004249	-143.535922	-86.037044	-74.441466
05386	NaN	9.725478	-0.451261	-0.588065	0.006116	0.000225	0.000679	-143.500616	-86.033797	-74.473145
05387	NaN	9.750194	-0.445138	-0.553933	0.008438	0.006726	-0.000132	-143.438310	-86.034141	-74.530647
05388	NaN	9.714696	-0.422624	-0.549097	0.003763	0.005715	-0.000119	-143.382979	-86.033689	-74.583890
05389	NaN	9.720145	-0.436894	-0.567629	0.000352	0.003371	-0.002089	-143.354823	-86.033153	-74.611804
05390	NaN	9.712641	-0.419325	-0.582607	0.004008	0.003966	-0.000975	-143.313826	-86.032169	-74.650610
05391	NaN	9.712631	-0.419402	-0.582723	-0.008260	-0.006182	0.002806	-143.305354	-86.025565	-74.663738
05392	NaN	9.725549	-0.451323	-0.586835	-0.007908	-0.002810	0.000718	-143.293368	-86.020911	-74.680252
05393	NaN	9.717979	-0.433892	-0.602783	-0.009213	-0.008893	0.000402	-143.314688	-86.013885	-74.664064
05394	NaN	9.725479	-0.451372	-0.587966	-0.008153	-0.001061	0.001574	-143.288742	-86.009772	-74.694760
05395	NaN	9.720045	-0.437007	-0.569266	0.004390	-0.004653	-0.001456	-143.293674	-86.005330	-74.687188
05396	NaN	9.737202	-0.413295	-0.551039	0.012054	-0.000094	-0.001318	-143.270455	-86.002631	-74.703513
05397	NaN	9.720046	-0.436900	-0.569333	0.011809	0.001655	-0.000461	-143.233694	-86.000745	-74.733472
05398	NaN	9.714642	-0.422662	-0.550017	0.015220	0.004000	0.001509	-143.169884	-85.998925	-74.788565
05399	NaN	9.712546	-0.419730	-0.583891	0.010123	0.004192	-0.000297	-143.120625	-85.998141	-74.832023
05400	NaN	9.707147	-0.405336	-0.564607	0.005693	0.001430	-0.001140	-143.092154	-85.996085	-74.857085
05401	NaN	9.733070	-0.468766	-0.571693	-0.001863	0.001990	-0.002511	-143.075123	-85.995051	-74.875120
05402	NaN	9.727689	-0.454175	-0.552218	-0.003019	0.008442	-0.001762	-143.021036	-85.996372	-74.930746
05403	NaN	9.703017	-0.460310	-0.585672	-0.003233	-0.001799	0.000705	-143.002445	-85.992494	-74.951132
05404	NaN	9.725577	-0.451172	-0.586495	-0.000352	-0.003371	0.002089	-142.980123	-85.987120	-74.973528
05405	NaN	9.725558	-0.451310	-0.586695	0.001441	-0.000786	0.000692	-142.954046	-85.983709	-74.998734
05406	NaN	9.707171	-0.405308	-0.564213	0.001863	-0.001990	0.002511	-142.920864	-85.978780	-75.030646
05407	NaN	9.744781	-0.369795	-0.580751	-0.000663	0.000673	0.006476	-142.851375	-85.974033	-75.100579
05408	NaN	9.714631	-0.362104	-0.595839	-0.009278	-0.006599	0.003934	-142.838252	-85.966534	-75.118803
05409	NaN	9.724222	-0.383072	-0.546805	-0.011560	-0.005684	0.007044	-142.802841	-85.958683	-75.160835
05410	NaN	9.735012	-0.412327	-0.585083	-0.012894	0.000223	0.005119	-142.750961	-85.953854	-75.219988
05411	NaN	9.725355	-0.453770	-0.588162	-0.014336	0.001010	0.004427	-142.701467	-85.949958	-75.277732
05412	NaN	9.728649	-0.465389	-0.641284	-0.006427	0.003819	0.003709	-142.637862	-85.947265	-75.345085
05413	NaN	9.730774	-0.468723	-0.606608	-0.002948	0.003868	0.002148	-142.582646	-85.945455	-75.402026
05414	NaN	9.732907	-0.471954	-0.571839	0.002746	0.005296	0.001008	-142.523793	-85.944396	-75.459255
05415	NaN	9.730822	-0.468977	-0.605647	0.005205	0.004927	0.000574	-142.468868	-85.943608	-75.511220
05416	NaN	9.742598	-0.431028	-0.567829	0.007909	0.002809	-0.000717	-142.430585	-85.942004	-75.544953
05417	NaN	9.727553	-0.457869	-0.551557	0.000708	0.004461	0.003261	-142.363395	-85.940059	-75.611797
05418	NaN	9.707060	-0.408887	-0.563533	-0.011252	-0.009726	0.002654	-142.375897	-85.931540	-75.605365
05419	NaN	9.719954	-0.440850	-0.567851	-0.008929	-0.003225	0.001844	-142.361257	-85.926600	-75.625063
05420	NaN	9.691934	-0.435707	-0.548696	-0.017683	-0.003624	-0.001075	-142.371775	-85.922158	-75.624590
05421	NaN	9.725318	-0.455104	-0.587744	-0.018281	-0.005244	0.001870	-142.372268	-85.916293	-75.634488
05422	NaN	9.700578	-0.461321	-0.622115	-0.015822	-0.005613	0.001436	-142.375376	-85.910105	-75.640335
05423	NaN	9.738176	-0.486969	-0.592675	-0.008442	-0.006721	0.000131	-142.388500	-85.904178	-75.631918
05424	NaN	9.715541	-0.496367	-0.592809	-0.009284	-0.006594	0.003933	-142.376928	-85.896652	-75.648759
05425	NaN	9.719727	-0.441281	-0.571389	-0.006824	-0.006964	0.003498	-142.369011	-85.889438	-75.660507
05426	NaN	9.764866	-0.422982	-0.572931	-0.008156	-0.001056	0.001576	-142.345224	-85.885250	-75.689167
05427	NaN	9.742260	-0.432351	-0.572617	-0.008931	-0.003222	0.001846	-142.330817	-85.880311	-75.708634
05428	NaN	9.747637	-0.446916	-0.591911	-0.010195	-0.001890	0.003830	-142.297867	-85.874951	-75.747477
05429	NaN	9.719625	-0.442141	-0.572458	-0.011880	0.000647	0.003997	-142.252964	-85.871010	-75.799214
05430	NaN	9.702425	-0.465836	-0.591093	-0.011571	-0.003393	-0.000394	-142.254640	-85.866458	-75.804075
05431	NaN	9.702408	-0.465942	-0.591280	-0.011881	0.000648	0.003997	-142.209877	-85.862514	-75.855672
05432	NaN	9.705658	-0.477419	-0.644805	-0.009953	-0.003637	0.002973	-142.190907	-85.856640	-75.880337
05433	NaN	9.702361	-0.466382	-0.591699	-0.001019	-0.000417	0.001127	-142.163182	-85.853219	-75.908612
05434	NaN	9.760459	-0.418406	-0.642936	0.006476	0.001305	0.006028	-142.091764	-85.848511	-75.976326
05435	NaN	9.764726	-0.424977	-0.573827	0.004544	0.007875	-0.000385	-142.030149	-85.849365	-76.035385
05436	NaN	9.724981	-0.457882	-0.591165	-0.000488	0.003497	0.001716	-141.979248	-85.847173	-76.086609
05437	NaN	9.752969	-0.463223	-0.610567	0.001619	-0.000245	0.003366	-141.935509	-85.843031	-76.129425
05438	NaN	9.709904	-0.485288	-0.574915	0.003349	0.004631	0.005504	-141.853524	-85.840007	-76.209592
05439	NaN	9.734617	-0.479689	-0.540648	0.001907	0.005419	0.004813	-141.773294	-85.837895	-76.288830
05440	NaN	9.685195	-0.492299	-0.607946	0.006540	-0.000987	0.002495	-141.735496	-85.833379	-76.322790
05441	NaN	9.712035	-0.428152	-0.586280	0.001553	0.002048	0.006900	-141.659227	-85.828999	-76.398261
05442	NaN	9.740014	-0.433856	-0.605609	-0.008467	0.002989	0.005967	-141.589542	-85.825052	-76.472848
05443	NaN	9.737851	-0.492846	-0.593166	-0.007448	0.003407	0.004840	-141.524744	-85.822002	-76.541989
05444	NaN	9.767951	-0.501491	-0.578171	-0.012126	0.002401	0.004854	-141.467089	-85.818163	-76.606602
05445	NaN	9.780862	-0.533662	-0.581615	-0.006429	0.003824	0.003714	-141.406763	-85.815692	-76.670674
05446	NaN	9.722761	-0.520678	-0.576526	-0.002527	0.002664	0.003970	-141.348028	-85.812243	-76.730907
05447	NaN	9.717358	-0.506529	-0.557393	-0.000000	-0.000000	-0.000000	-141.325547	-85.809382	-76.753340
05448	NaN	9.685145	-0.495144	-0.606415	-0.006363	0.001532	0.000180	-141.297509	-85.806787	-76.784869
05449	NaN	9.712014	-0.430548	-0.584870	-0.010376	-0.002427	0.001153	-141.285866	-85.802426	-76.802396
05450	NaN	9.715303	-0.441528	-0.638344	-0.021242	0.000930	-0.003414	-141.291342	-85.800849	-76.808909
05451	NaN	9.780927	-0.471920	-0.627943	-0.013438	-0.001391	-0.002904	-141.301114	-85.798406	-76.806722
05452	NaN	9.707758	-0.484944	-0.607430	-0.022264	0.000516	-0.002287	-141.302729	-85.796283	-76.817906
05453	NaN	9.784194	-0.544062	-0.634923	-0.012907	0.002526	-0.002313	-141.289509	-85.795379	-76.838469
05454	NaN	9.740028	-0.495660	-0.558054	-0.002285	0.003203	-0.004325	-141.278488	-85.795157	-76.850572
05455	NaN	9.724984	-0.522066	-0.541909	0.000355	0.003373	-0.002085	-141.252165	-85.794549	-76.876654
05456	NaN	9.715412	-0.500945	-0.591065	-0.008051	0.006361	-0.007086	-141.245939	-85.796729	-76.887342
05457	NaN	9.690761	-0.506308	-0.624662	-0.001553	-0.002043	-0.006901	-141.276404	-85.795427	-76.857579
05458	NaN	9.710094	-0.485148	-0.571826	-0.010026	0.003236	-0.008368	-141.294515	-85.796676	-76.845091
05459	NaN	9.751077	-0.521247	-0.594780	-0.013752	0.004941	-0.005946	-141.292106	-85.798153	-76.855298
05460	NaN	9.705965	-0.538935	-0.593351	-0.011469	0.004028	-0.009058	-141.311262	-85.799986	-76.842522
05461	NaN	9.706031	-0.537957	-0.593164	-0.004859	0.000746	-0.010099	-141.349512	-85.801074	-76.806852
05462	NaN	9.721161	-0.510142	-0.608918	-0.001377	0.000792	-0.011661	-141.394418	-85.802384	-76.762402
05463	NaN	9.738396	-0.485271	-0.590457	-0.001310	-0.001496	-0.015196	-141.472720	-85.804283	-76.684535
05464	NaN	9.755640	-0.460494	-0.571646	0.001125	0.007833	-0.009785	-141.470549	-85.808095	-76.685875
05465	NaN	9.755751	-0.459034	-0.570924	0.005093	0.006678	-0.020501	-141.538050	-85.815545	-76.615160
05466	NaN	9.729976	-0.455296	-0.516307	-0.009681	0.008907	-0.017885	-141.586515	-85.822710	-76.571859
05467	NaN	9.744299	-0.492949	-0.607109	-0.015492	0.004656	-0.022957	-141.691270	-85.830112	-76.475618
05468	NaN	9.718517	-0.488882	-0.552925	-0.015071	0.003451	-0.021140	-141.789945	-85.836013	-76.385109
05469	NaN	9.721971	-0.497991	-0.606031	-0.010990	0.002832	-0.018209	-141.872221	-85.840889	-76.308820
05470	NaN	9.731682	-0.455074	-0.602427	-0.000612	0.005267	-0.019358	-141.943669	-85.846909	-76.237531
05471	NaN	9.711319	-0.465604	-0.567246	-0.002585	0.002143	-0.020641	-142.040005	-85.852317	-76.142318
05472	NaN	9.694283	-0.487351	-0.585793	-0.002511	-0.002441	-0.016743	-142.133879	-85.853918	-76.049531
05473	NaN	9.731950	-0.449576	-0.602218	-0.000720	0.000147	-0.018134	-142.223549	-85.857519	-75.959932
05474	NaN	9.711446	-0.398764	-0.614060	-0.001418	-0.006606	-0.013970	-142.319878	-85.856246	-75.864119
05475	NaN	9.708115	-0.386293	-0.561309	-0.005325	-0.005446	-0.014224	-142.414874	-85.855920	-75.771825
05476	NaN	9.726624	-0.430996	-0.584306	-0.013878	0.002114	-0.012153	-142.464738	-85.857952	-75.729675
05477	NaN	9.756801	-0.437925	-0.569568	-0.008281	-0.001580	-0.012069	-142.529313	-85.858617	-75.669581
05478	NaN	9.717195	-0.469525	-0.587535	-0.005718	0.003177	-0.013726	-142.579207	-85.861696	-75.622637
05479	NaN	9.747402	-0.476175	-0.572650	-0.001744	-0.000264	-0.017007	-142.664887	-85.864667	-75.537626
05480	NaN	9.707689	-0.445806	-0.636824	0.001422	0.003820	-0.014173	-142.711114	-85.868133	-75.490514
05481	NaN	9.725020	-0.482616	-0.571528	0.006101	0.004831	-0.014185	-142.750219	-85.872437	-75.447694
