// General information: 
//  MT Manager version: 2022.2.0 
//  XDA version: 2022.2.0 build 7381 rev 124627 built on 2023-07-19
// Device information: 
//  DeviceId: 00B4BB4E
//  ProductCode: MTW2-3A7G6
//  Firmware Version: 4.6.0
//  Hardware Version: 2.0.0
// Device settings: 
//  Filter Profile: human(46.1)
//  Option Flags: Orientation Smoother Disabled, Position/Velocity Smoother Disabled, Continuous Zero Rotation Update Disabled, AHS Disabled, ICC Disabled
// Coordinate system: ENU
PacketCounter	SampleTimeFine	Acc_X	Acc_Y	Acc_Z	Gyr_X	Gyr_Y	Gyr_Z	Roll	Pitch	Yaw
60006	NaN	9.730992	-0.180191	-0.450412	0.001458	0.011542	0.000098	-165.375063	-87.408036	-46.579451
60007	NaN	9.744569	-0.177771	-0.481015	0.004685	0.009953	0.004055	-165.231215	-87.410907	-46.719981
60008	NaN	9.752699	-0.201085	-0.478682	0.002811	0.005972	0.002433	-165.106116	-87.411152	-46.842549
60009	NaN	9.723057	-0.185431	-0.470343	0.004374	0.011777	0.003995	-164.956709	-87.415012	-46.988821
60010	NaN	9.744634	-0.151369	-0.457164	0.008424	0.010930	0.001067	-164.828899	-87.418155	-47.111576
60011	NaN	9.752716	-0.147165	-0.433562	0.006657	0.008670	0.001542	-164.717901	-87.420637	-47.218091
60012	NaN	9.731174	-0.154418	-0.423498	0.008531	0.012653	0.003164	-164.557568	-87.424365	-47.373036
60013	NaN	9.744768	-0.152221	-0.454026	0.005933	0.010125	0.004924	-164.399947	-87.427107	-47.526635
60014	NaN	9.715189	-0.164098	-0.466592	0.003543	0.011512	0.005279	-164.219863	-87.429856	-47.704483
60015	NaN	9.744849	-0.153020	-0.452014	0.002082	0.007899	0.000215	-164.129423	-87.432069	-47.793042
60016	NaN	9.715265	-0.164674	-0.464798	-0.006021	0.009597	0.006067	-163.951370	-87.433622	-47.974299
60017	NaN	9.744972	-0.181313	-0.471448	-0.000823	0.006723	0.007515	-163.776761	-87.434004	-48.148778
60018	NaN	9.709833	-0.191331	-0.430226	-0.001764	0.005202	0.001105	-163.672432	-87.433891	-48.253546
60019	NaN	9.731392	-0.157163	-0.417433	0.002188	0.009622	0.002312	-163.549346	-87.436673	-48.374722
60020	NaN	9.693777	-0.173215	-0.453013	-0.002178	0.004833	0.004547	-163.403915	-87.435776	-48.520351
60021	NaN	9.723402	-0.162316	-0.439015	-0.003946	0.002573	0.005022	-163.276708	-87.434218	-48.649170
60022	NaN	9.736984	-0.160195	-0.470290	-0.000930	0.005001	0.005418	-163.119893	-87.433207	-48.806113
60023	NaN	9.745070	-0.183698	-0.468480	0.002082	-0.000033	0.005185	-162.997279	-87.430166	-48.926878
60024	NaN	9.723418	-0.164068	-0.438021	-0.002797	0.008011	0.010025	-162.774633	-87.430023	-49.150979
60025	NaN	9.772186	-0.152499	-0.509743	-0.001036	0.003279	0.003322	-162.664457	-87.429079	-49.261082
60026	NaN	9.753173	-0.208462	-0.465707	0.003850	0.002227	0.004710	-162.524995	-87.426607	-49.398163
60027	NaN	9.739593	-0.211746	-0.433751	0.014248	0.003940	0.008238	-162.344046	-87.425149	-49.570345
60028	NaN	9.731569	-0.216996	-0.456091	0.012479	0.001680	0.008712	-162.153014	-87.421639	-49.753178
60029	NaN	9.736959	-0.137723	-0.446932	0.018302	0.002622	0.010912	-161.943157	-87.418939	-49.951974
60030	NaN	9.758609	-0.159141	-0.476757	0.012479	0.001682	0.008712	-161.753819	-87.415383	-50.133921
60031	NaN	9.744977	-0.135179	-0.423720	0.009362	0.004994	0.006848	-161.589377	-87.414647	-50.292382
60032	NaN	9.739529	-0.188755	-0.410862	0.009573	0.008911	0.005440	-161.413222	-87.415544	-50.463748
60033	NaN	9.739592	-0.216834	-0.431257	0.006452	0.004291	0.008547	-161.232986	-87.414071	-50.639690
60034	NaN	9.731576	-0.222205	-0.453430	0.002399	0.005144	0.011471	-161.002995	-87.411787	-50.867437
60035	NaN	9.715464	-0.177151	-0.455954	0.006662	0.008208	0.007139	-160.823684	-87.412641	-51.042331
60036	NaN	9.709946	-0.203266	-0.422132	0.002292	0.003886	0.003777	-160.691972	-87.411037	-51.172605
60037	NaN	9.753124	-0.162433	-0.418695	0.001460	0.003619	0.005062	-160.559781	-87.409766	-51.303316
60038	NaN	9.774841	-0.210738	-0.469197	-0.011424	0.008568	0.006016	-160.389136	-87.410262	-51.479498
60039	NaN	9.804537	-0.226972	-0.475895	-0.007894	0.006089	-0.001160	-160.326141	-87.411495	-51.546307
60040	NaN	9.755741	-0.239087	-0.403245	-0.005610	0.002510	0.001990	-160.226713	-87.409489	-51.648913
60041	NaN	9.710081	-0.231827	-0.440618	-0.004877	0.008518	-0.000764	-160.146756	-87.411945	-51.730971
60042	NaN	9.731711	-0.224916	-0.449165	-0.005300	0.000686	0.002051	-160.054308	-87.408876	-51.826525
60043	NaN	9.723668	-0.202118	-0.450400	-0.002903	0.006763	0.002326	-159.943926	-87.409769	-51.937908
60044	NaN	9.745348	-0.222718	-0.479996	-0.005610	0.002510	0.001990	-159.844202	-87.407725	-52.040047
60045	NaN	9.715642	-0.179438	-0.451242	0.000628	0.003817	0.000749	-159.763396	-87.407329	-52.119798
60046	NaN	9.731660	-0.170783	-0.405663	0.000938	0.001993	0.000811	-159.676733	-87.405203	-52.205583
60047	NaN	9.731718	-0.198225	-0.426518	-0.006858	0.002342	0.001118	-159.602446	-87.403931	-52.283101
60048	NaN	9.723732	-0.202381	-0.448906	-0.004778	0.003245	-0.004894	-159.581278	-87.403647	-52.306368
60049	NaN	9.739857	-0.248080	-0.445512	-0.019229	0.001921	0.000095	-159.528133	-87.402348	-52.369819
60050	NaN	9.753374	-0.190673	-0.434808	-0.015070	0.002793	-0.000732	-159.465471	-87.400999	-52.440293
60051	NaN	9.767116	-0.242343	-0.508370	-0.020476	0.002224	-0.006376	-159.488285	-87.401158	-52.428421
60052	NaN	9.739911	-0.246943	-0.444971	-0.012264	0.001774	-0.004526	-159.473191	-87.399967	-52.449441
60053	NaN	9.753546	-0.243941	-0.476373	-0.004363	0.003147	-0.002737	-159.439681	-87.399891	-52.484710
60054	NaN	9.718338	-0.253186	-0.435505	0.002186	0.002629	-0.003915	-159.405245	-87.399018	-52.516751
60055	NaN	9.710233	-0.202544	-0.415836	0.001664	0.000536	-0.002570	-159.377924	-87.397506	-52.542368
60056	NaN	9.737400	-0.169610	-0.458234	-0.001148	-0.005440	-0.005004	-159.394294	-87.392547	-52.525848
60057	NaN	9.753395	-0.160326	-0.413147	-0.006964	0.001088	-0.006577	-159.416712	-87.392139	-52.506622
60058	NaN	9.767011	-0.157198	-0.444924	-0.012166	-0.003968	-0.003060	-159.409959	-87.387591	-52.519411
60059	NaN	9.723843	-0.198162	-0.448385	-0.011229	-0.001976	-0.002249	-159.397456	-87.384667	-52.537590
60060	NaN	9.723901	-0.225171	-0.469766	-0.010086	-0.003532	-0.003474	-159.392477	-87.380430	-52.547356
60061	NaN	9.723885	-0.224896	-0.470225	-0.009360	-0.005457	-0.001257	-159.382695	-87.375439	-52.561739
60062	NaN	9.756000	-0.261951	-0.422229	-0.006760	-0.002928	-0.003015	-159.368058	-87.371462	-52.579532
60063	NaN	9.739932	-0.242798	-0.446788	-0.003954	-0.003948	-0.006810	-159.413414	-87.368401	-52.535619
60064	NaN	9.702173	-0.203347	-0.441530	-0.004580	-0.008235	-0.001963	-159.409126	-87.361331	-52.543021
60065	NaN	9.745366	-0.189160	-0.460080	-0.003122	-0.004150	-0.002496	-159.404531	-87.357291	-52.548634
60066	NaN	9.745360	-0.188612	-0.460435	-0.008840	-0.002892	-0.008200	-159.450643	-87.354346	-52.506082
60067	NaN	9.737277	-0.165062	-0.462482	-0.008218	-0.007012	-0.002482	-159.461191	-87.348768	-52.499459
60068	NaN	9.729253	-0.169049	-0.485640	-0.008008	-0.003094	-0.003887	-159.458147	-87.344888	-52.506364
60069	NaN	9.729305	-0.196080	-0.507101	-0.001874	-0.003982	-0.001625	-159.442006	-87.340763	-52.522820
60070	NaN	9.737235	-0.164343	-0.463624	0.000311	-0.001824	0.000059	-159.383420	-87.336711	-52.580774
60071	NaN	9.761377	-0.206086	-0.438041	0.002806	-0.001491	0.001803	-159.314501	-87.333227	-52.647379
60072	NaN	9.737277	-0.191848	-0.485105	-0.005096	-0.002862	0.000014	-159.263903	-87.328631	-52.699501
60073	NaN	9.731671	-0.190326	-0.431165	0.000206	-0.004019	0.003561	-159.187700	-87.323430	-52.774891
60074	NaN	9.702031	-0.201838	-0.445317	-0.008944	-0.005557	0.000900	-159.141859	-87.317254	-52.825305
60075	NaN	9.731617	-0.190532	-0.432295	-0.009881	-0.007548	0.000087	-159.126934	-87.310867	-52.845136
60076	NaN	9.753189	-0.183614	-0.441931	-0.017572	-0.005473	0.002493	-159.068522	-87.304349	-52.914109
60077	NaN	9.745198	-0.215282	-0.486387	-0.021005	-0.007795	-0.000063	-159.063009	-87.297859	-52.930899
60078	NaN	9.761266	-0.233775	-0.462654	-0.013620	-0.000581	-0.001893	-159.030978	-87.294903	-52.970708
60079	NaN	9.715556	-0.226341	-0.500647	-0.008317	-0.001740	0.001653	-158.972691	-87.291298	-53.033053
60080	NaN	9.723502	-0.194890	-0.457129	-0.006759	-0.003398	0.002583	-158.898368	-87.285920	-53.110677
60081	NaN	9.750645	-0.189629	-0.520857	-0.002396	-0.006074	-0.000283	-158.877717	-87.280393	-53.131948
60082	NaN	9.761141	-0.206676	-0.442981	-0.008944	-0.005554	0.000898	-158.832894	-87.274142	-53.180329
60083	NaN	9.769132	-0.202299	-0.421029	-0.014457	-0.008310	-0.001246	-158.839845	-87.267619	-53.180885
60084	NaN	9.761081	-0.206177	-0.444537	-0.026416	-0.008347	-0.005708	-158.892077	-87.261227	-53.143646
60085	NaN	9.747532	-0.235473	-0.434892	-0.032134	-0.007555	-0.005812	-158.956686	-87.256048	-53.096617
60086	NaN	9.739540	-0.266326	-0.479412	-0.022568	-0.005648	-0.006594	-159.004201	-87.251310	-53.061064
60087	NaN	9.769155	-0.254387	-0.466261	-0.022462	-0.003927	-0.004495	-159.032779	-87.247798	-53.044560
60088	NaN	9.761067	-0.230858	-0.468283	-0.014355	-0.006105	-0.004749	-159.056598	-87.242494	-53.027683
60089	NaN	9.723358	-0.218694	-0.483854	-0.010400	-0.001693	-0.003533	-159.057980	-87.239980	-53.031487
60090	NaN	9.699222	-0.203452	-0.530990	-0.011448	-0.004920	-0.012045	-159.156021	-87.236751	-52.938925
60091	NaN	9.723305	-0.189335	-0.463608	-0.002509	-0.006829	-0.013584	-159.285856	-87.233528	-52.809599
60092	NaN	9.753021	-0.231097	-0.493219	-0.011039	-0.012004	-0.016131	-159.458289	-87.227366	-52.642765
60093	NaN	9.747466	-0.228077	-0.440266	-0.014469	-0.014801	-0.013092	-159.621541	-87.219731	-52.486843
60094	NaN	9.777120	-0.242630	-0.449066	-0.014261	-0.010881	-0.014491	-159.771154	-87.213733	-52.344113
60095	NaN	9.736754	-0.180715	-0.499661	-0.012805	-0.006797	-0.015017	-159.920795	-87.210743	-52.200862
60096	NaN	9.760902	-0.193646	-0.454011	-0.019045	-0.015559	-0.014424	-160.090507	-87.202207	-52.041533
60097	NaN	9.747278	-0.167566	-0.402301	-0.023101	-0.006767	-0.016448	-160.260765	-87.199472	-51.883546
60098	NaN	9.774495	-0.214411	-0.508656	-0.031324	-0.005816	-0.023892	-160.502067	-87.197939	-51.659651
60099	NaN	9.731431	-0.253432	-0.512557	-0.031737	-0.006190	-0.020451	-160.718579	-87.196218	-51.460307
60100	NaN	9.739656	-0.301286	-0.532947	-0.017291	-0.004854	-0.025447	-160.964690	-87.195393	-51.223376
60101	NaN	9.718046	-0.278639	-0.503311	-0.004605	-0.006266	-0.024376	-161.208901	-87.194279	-50.980734
60102	NaN	9.739735	-0.296601	-0.534131	-0.001689	-0.006045	-0.020476	-161.394071	-87.191846	-50.793751
60103	NaN	9.723504	-0.248484	-0.537479	0.006207	-0.004191	-0.024287	-161.622981	-87.191756	-50.560227
60104	NaN	9.739624	-0.237818	-0.492525	0.011202	-0.003533	-0.020801	-161.795691	-87.190633	-50.380588
60105	NaN	9.710035	-0.247167	-0.506787	0.018691	-0.009514	-0.021823	-162.009143	-87.187127	-50.155379
60106	NaN	9.744918	-0.180526	-0.505753	0.019617	-0.007034	-0.026606	-162.252885	-87.185069	-49.898762
60107	NaN	9.723257	-0.157985	-0.476191	0.012238	-0.006792	-0.024135	-162.485144	-87.183361	-49.658424
60108	NaN	9.680372	-0.224530	-0.501405	0.024410	-0.010286	-0.021726	-162.682541	-87.178599	-49.445481
60109	NaN	9.739323	-0.145315	-0.432807	0.010691	-0.013076	-0.020113	-162.891669	-87.172683	-49.229188
60110	NaN	9.752804	-0.140480	-0.465612	0.002159	-0.010800	-0.022010	-163.104996	-87.167615	-49.012667
60111	NaN	9.715131	-0.154028	-0.503009	0.004551	-0.012182	-0.022369	-163.337931	-87.162482	-48.776057
60112	NaN	9.731620	-0.225270	-0.522024	0.007145	-0.002680	-0.017878	-163.475593	-87.161118	-48.634454
60113	NaN	9.709959	-0.203245	-0.492269	0.020452	-0.007225	-0.022301	-163.681399	-87.158626	-48.415884
60114	NaN	9.731210	-0.139658	-0.459995	0.006851	-0.015765	-0.019230	-163.874950	-87.150235	-48.216950
60115	NaN	9.701721	-0.176512	-0.496076	-0.003970	-0.010399	-0.018664	-164.063352	-87.145346	-48.029814
60116	NaN	9.728807	-0.196398	-0.581586	-0.001472	-0.010066	-0.016923	-164.216982	-87.139694	-47.876596
60117	NaN	9.723363	-0.193166	-0.528294	0.003827	-0.010732	-0.018984	-164.404199	-87.134615	-47.686172
60118	NaN	9.736668	-0.161245	-0.539782	0.005905	-0.010290	-0.019400	-164.579229	-87.129158	-47.505089
60119	NaN	9.752929	-0.178177	-0.516450	0.012347	-0.005540	-0.016445	-164.716681	-87.126506	-47.359602
60120	NaN	9.766079	-0.119231	-0.506423	0.006009	-0.008574	-0.017299	-164.863217	-87.121614	-47.208740
60121	NaN	9.744539	-0.124693	-0.498020	0.007454	-0.004488	-0.017827	-165.014936	-87.119713	-47.051775
60122	NaN	9.714784	-0.107319	-0.490897	0.005798	-0.005037	-0.015255	-165.128004	-87.116424	-46.934529
60123	NaN	9.723003	-0.128865	-0.489938	0.004970	-0.005311	-0.013968	-165.240644	-87.113468	-46.818116
60124	NaN	9.693407	-0.139236	-0.503988	0.003419	-0.004147	-0.009294	-165.286258	-87.109815	-46.768908
60125	NaN	9.720126	-0.105635	-0.546858	0.001885	-0.010436	-0.005265	-165.319517	-87.102742	-46.733747
60126	NaN	9.758068	-0.143866	-0.553934	-0.000509	-0.009056	-0.004905	-165.333630	-87.095685	-46.719252
60127	NaN	9.757874	-0.116141	-0.533357	0.009665	-0.003313	-0.004942	-165.338314	-87.092512	-46.708238
60128	NaN	9.752655	-0.141668	-0.500369	0.009875	0.000113	-0.000739	-165.275407	-87.089939	-46.765892
60129	NaN	9.774340	-0.161680	-0.530665	0.007693	-0.002041	-0.002424	-165.250205	-87.087104	-46.785934
60130	NaN	9.747433	-0.167198	-0.467484	0.010191	-0.001707	-0.000683	-165.191704	-87.083510	-46.838476
60131	NaN	9.739361	-0.171519	-0.490173	0.009875	0.000114	-0.000740	-165.140876	-87.081621	-46.882926
60132	NaN	9.722889	-0.125651	-0.493036	0.005404	0.001051	0.000037	-165.069704	-87.079531	-46.950822
60133	NaN	9.736344	-0.122918	-0.524582	-0.001145	0.001546	0.001231	-164.999806	-87.078138	-47.020688
60134	NaN	9.722899	-0.125807	-0.492790	-0.004471	0.000937	0.000777	-164.926873	-87.075833	-47.095997
60135	NaN	9.736519	-0.150139	-0.545644	-0.007075	-0.001110	-0.003065	-164.914778	-87.073603	-47.111388
60136	NaN	9.723410	-0.207470	-0.556242	0.003431	0.002322	0.002555	-164.813974	-87.071794	-47.209495
60137	NaN	9.709785	-0.183094	-0.503473	-0.000616	-0.003809	-0.000758	-164.781298	-87.067723	-47.241788
60138	NaN	9.723054	-0.153226	-0.514170	0.002093	-0.000049	0.005185	-164.659424	-87.064116	-47.360584
60139	NaN	9.739169	-0.144842	-0.469313	-0.002887	-0.008169	0.001059	-164.621706	-87.057356	-47.399230
60140	NaN	9.760656	-0.138044	-0.478919	-0.003821	-0.003196	0.006491	-164.499929	-87.051821	-47.522661
60141	NaN	9.760635	-0.138535	-0.479198	-0.009964	-0.002317	0.004241	-164.415312	-87.047797	-47.612328
60142	NaN	9.736239	-0.124755	-0.526093	-0.011936	-0.001046	0.006758	-164.289425	-87.043480	-47.743410
60143	NaN	9.736389	-0.152568	-0.547294	-0.021299	0.000939	0.006155	-164.181592	-87.040936	-47.862828
60144	NaN	9.728329	-0.157476	-0.569527	-0.014346	0.007787	0.007765	-164.021196	-87.041277	-48.032087
60145	NaN	9.723301	-0.211004	-0.556818	-0.004066	0.008282	0.003582	-163.908661	-87.043154	-48.146327
60146	NaN	9.777281	-0.214490	-0.495931	-0.004245	0.003872	0.010581	-163.724104	-87.040789	-48.333221
60147	NaN	9.731253	-0.180911	-0.511767	-0.004788	0.009721	0.006970	-163.571259	-87.042878	-48.488238
60148	NaN	9.744723	-0.178805	-0.542934	-0.001957	0.000780	0.008119	-163.421831	-87.039195	-48.639163
60149	NaN	9.731094	-0.154986	-0.490241	-0.008400	-0.003968	0.005164	-163.333633	-87.034027	-48.731519
60150	NaN	9.744515	-0.152681	-0.522403	-0.016709	-0.005731	0.006828	-163.227680	-87.027014	-48.846620
60151	NaN	9.744633	-0.180578	-0.543954	-0.020563	-0.000981	0.008364	-163.103873	-87.022936	-48.981612
60152	NaN	9.731432	-0.238638	-0.555089	-0.011817	-0.006778	0.008207	-162.984841	-87.014923	-49.107448
60153	NaN	9.726008	-0.237975	-0.501251	-0.007873	-0.002363	0.009422	-162.848029	-87.009880	-49.248185
60154	NaN	9.760958	-0.228854	-0.542096	-0.006111	-0.000101	0.008951	-162.697398	-87.005525	-49.401380
60155	NaN	9.723140	-0.217835	-0.556998	-0.003537	0.002928	0.001592	-162.623452	-87.004680	-49.476678
60156	NaN	9.790566	-0.218013	-0.528132	0.000934	0.001987	0.000816	-162.546871	-87.002806	-49.550805
60157	NaN	9.752632	-0.179365	-0.521630	-0.003853	0.004750	0.001537	-162.467787	-87.002955	-49.631429
60158	NaN	9.747407	-0.205212	-0.488125	-0.000632	0.003643	-0.000110	-162.396430	-87.002027	-49.701743
60159	NaN	9.760739	-0.175156	-0.498304	-0.006864	0.002323	0.001137	-162.331311	-87.000910	-49.770110
60160	NaN	9.739371	-0.209576	-0.510035	-0.011139	0.007184	0.000518	-162.249355	-87.001947	-49.860038
60161	NaN	9.709788	-0.220942	-0.523363	-0.014452	-0.000873	-0.000589	-162.217294	-86.999380	-49.899655
60162	NaN	9.709801	-0.220743	-0.523209	-0.006773	0.004530	-0.002361	-162.170448	-86.999387	-49.949400
60163	NaN	9.717884	-0.216363	-0.500340	-0.006549	0.000502	0.001192	-162.110840	-86.997253	-50.012068
60164	NaN	9.739565	-0.236485	-0.530385	-0.008430	0.003981	0.000212	-162.040970	-86.996516	-50.087745
60165	NaN	9.731523	-0.240619	-0.552622	-0.014571	0.004869	-0.002040	-162.004927	-86.997327	-50.131419
60166	NaN	9.739476	-0.208639	-0.508424	-0.009378	0.002491	-0.006205	-162.007913	-86.996904	-50.136006
60167	NaN	9.769249	-0.223782	-0.515721	-0.009694	0.004313	-0.006260	-162.014782	-86.998158	-50.133911
60168	NaN	9.739687	-0.234540	-0.529009	-0.007300	0.002931	-0.006621	-162.018179	-86.998101	-50.133806
60169	NaN	9.747932	-0.256583	-0.527474	-0.005433	-0.000051	-0.011242	-162.089098	-86.997856	-50.065129
60170	NaN	9.753080	-0.202440	-0.538797	0.001718	0.010708	-0.011016	-162.107957	-87.002758	-50.047397
60171	NaN	9.739826	-0.231628	-0.527728	-0.000751	0.002430	-0.007812	-162.132247	-87.003258	-50.022727
60172	NaN	9.710114	-0.214930	-0.519812	0.005060	0.003861	-0.011214	-162.172662	-87.004469	-49.977314
60173	NaN	9.739739	-0.202470	-0.505877	0.006626	0.002205	-0.010289	-162.219330	-87.005278	-49.926003
60174	NaN	9.731553	-0.178506	-0.506896	0.004744	0.005684	-0.011269	-162.254228	-87.007367	-49.886996
60175	NaN	9.753127	-0.170328	-0.515362	0.003915	0.005409	-0.009983	-162.288638	-87.009868	-49.849515
60176	NaN	9.731640	-0.176424	-0.505954	-0.001593	0.002652	-0.012128	-162.347388	-87.010521	-49.791833
60177	NaN	9.740085	-0.225305	-0.525683	-0.001381	-0.000881	-0.014176	-162.449676	-87.010309	-49.689420
60178	NaN	9.726635	-0.227014	-0.494123	-0.000539	-0.001102	-0.009862	-162.496389	-87.008530	-49.642554
60179	NaN	9.731707	-0.172963	-0.505853	0.002982	0.003425	-0.010800	-162.546634	-87.010079	-49.589752
60180	NaN	9.739974	-0.195022	-0.504270	0.005286	-0.000165	-0.007663	-162.563070	-87.008430	-49.568471
60181	NaN	9.731548	-0.144109	-0.484511	0.009758	-0.001103	-0.008438	-162.599586	-87.007095	-49.525529
60182	NaN	9.782842	-0.151956	-0.501282	0.003526	-0.002428	-0.007193	-162.621082	-87.004127	-49.503420
60183	NaN	9.739809	-0.165637	-0.483241	0.000497	0.002596	-0.006942	-162.635112	-87.004557	-49.488309
60184	NaN	9.726753	-0.222184	-0.493979	-0.002616	-0.001543	-0.009447	-162.679885	-87.002489	-49.443907
60185	NaN	9.740037	-0.191118	-0.504547	-0.000539	-0.001101	-0.009862	-162.737026	-87.001393	-49.386219
60186	NaN	9.723736	-0.171570	-0.528877	-0.006453	-0.004248	-0.008563	-162.783939	-86.997633	-49.343998
60187	NaN	9.723946	-0.197658	-0.550416	-0.006785	-0.001927	-0.014219	-162.892650	-86.996815	-49.238252
60188	NaN	9.718967	-0.249324	-0.538736	-0.003459	-0.001319	-0.013763	-162.981650	-86.995535	-49.150327
60189	NaN	9.737661	-0.219480	-0.603568	0.010586	-0.000820	-0.009726	-163.029853	-86.994554	-49.095207
60190	NaN	9.718578	-0.193032	-0.496399	0.015582	-0.000157	-0.006240	-163.025393	-86.992730	-49.088197
60191	NaN	9.723797	-0.166739	-0.529306	0.014118	0.003210	-0.005064	-163.010061	-86.993177	-49.094672
60192	NaN	9.715323	-0.115938	-0.509490	0.008827	-0.003083	-0.009256	-163.050751	-86.990192	-49.048260
60193	NaN	9.758356	-0.100735	-0.527643	-0.000436	0.000610	-0.007760	-163.080123	-86.989664	-49.018320
60194	NaN	9.758364	-0.100005	-0.527630	-0.004590	-0.000276	-0.006929	-163.095780	-86.987834	-49.005214
60195	NaN	9.736857	-0.106447	-0.518629	-0.003762	0.000002	-0.008216	-163.133700	-86.987047	-48.968622
60196	NaN	9.745141	-0.128639	-0.517179	-0.009062	0.000660	-0.006154	-163.139913	-86.985662	-48.964800
60197	NaN	9.715806	-0.166839	-0.552211	-0.013407	-0.004146	-0.003928	-163.151757	-86.981888	-48.959854
60198	NaN	9.761677	-0.173639	-0.514866	-0.004257	-0.002596	-0.001273	-163.115677	-86.977839	-48.998171
60199	NaN	9.715776	-0.166680	-0.552781	0.001161	-0.002045	0.004370	-163.026526	-86.973832	-49.086003
60200	NaN	9.731866	-0.158627	-0.507488	0.004272	0.002096	0.006875	-162.886468	-86.970984	-49.223073
60201	NaN	9.739909	-0.154862	-0.484806	-0.004560	-0.001275	0.004275	-162.799618	-86.967397	-49.311882
60202	NaN	9.745304	-0.156966	-0.539233	-0.001219	-0.001166	0.010333	-162.637072	-86.962216	-49.471506
60203	NaN	9.748573	-0.233907	-0.526175	-0.002150	-0.003153	0.009516	-162.501579	-86.956680	-49.607646
60204	NaN	9.740071	-0.184758	-0.506250	0.004479	0.005516	0.011081	-162.309671	-86.955007	-49.798748
60205	NaN	9.769849	-0.201644	-0.513470	0.006364	0.002039	0.012061	-162.127048	-86.951814	-49.977200
60206	NaN	9.748113	-0.182633	-0.482976	0.008848	0.002870	0.008202	-161.970971	-86.949071	-50.129147
60207	NaN	9.710498	-0.199158	-0.518919	0.010503	0.003424	0.005629	-161.847686	-86.947725	-50.245802
60208	NaN	9.718775	-0.222668	-0.516939	0.011945	0.007511	0.005104	-161.704987	-86.948010	-50.380040
60209	NaN	9.710718	-0.227773	-0.539373	-0.002980	-0.003426	0.010802	-161.560143	-86.941976	-50.526022
60210	NaN	9.740256	-0.216848	-0.526085	0.001885	-0.003478	0.000981	-161.503597	-86.937031	-50.581339
60211	NaN	9.735208	-0.270255	-0.514785	0.007006	-0.008556	0.005917	-161.420905	-86.929077	-50.659351
60212	NaN	9.726693	-0.220663	-0.495850	0.003680	-0.009164	0.005461	-161.338444	-86.920174	-50.741356
60213	NaN	9.697064	-0.232599	-0.510344	0.003258	-0.009053	0.003303	-161.286733	-86.912419	-50.790494
60214	NaN	9.710286	-0.202709	-0.521488	0.002202	-0.005299	0.001036	-161.236053	-86.906452	-50.838477
60215	NaN	9.739834	-0.191325	-0.508378	-0.005596	-0.004969	0.001357	-161.195450	-86.901267	-50.881573
60216	NaN	9.761139	-0.157086	-0.496483	-0.011531	-0.000665	0.003310	-161.114256	-86.897367	-50.967884
60217	NaN	9.710223	-0.203304	-0.522440	-0.017762	-0.001990	0.004556	-161.038798	-86.893196	-51.052866
60218	NaN	9.731916	-0.223361	-0.552942	-0.014556	-0.002594	-0.002693	-161.026635	-86.889414	-51.072229
60219	NaN	9.739970	-0.218838	-0.530527	-0.016529	-0.001325	-0.000175	-160.995620	-86.886480	-51.111996
60220	NaN	9.748399	-0.268867	-0.550634	-0.019538	-0.003752	-0.000577	-160.969273	-86.881718	-51.147965
60221	NaN	9.756640	-0.291533	-0.549558	-0.012479	-0.002150	-0.003109	-160.968064	-86.878884	-51.155558
60222	NaN	9.748575	-0.295526	-0.572402	-0.007903	-0.001378	-0.001783	-160.939458	-86.875548	-51.188800
60223	NaN	9.710742	-0.283882	-0.587532	0.013098	-0.000994	-0.002384	-160.912489	-86.873204	-51.207514
60224	NaN	9.756064	-0.208990	-0.486362	0.007168	-0.003640	-0.006685	-160.930815	-86.869558	-51.183230
60225	NaN	9.748210	-0.239904	-0.530181	0.001426	0.004585	-0.006125	-160.928508	-86.870935	-51.183944
60226	NaN	9.748242	-0.239291	-0.529859	0.006216	0.001825	-0.006848	-160.930047	-86.870313	-51.176514
60227	NaN	9.702187	-0.204307	-0.545894	0.008907	0.006076	-0.006501	-160.922062	-86.872568	-51.178621
60228	NaN	9.710272	-0.199410	-0.523031	0.006851	-0.001817	-0.006739	-160.935813	-86.870015	-51.161037
60229	NaN	9.731793	-0.191562	-0.532163	0.003207	-0.000603	-0.007249	-160.961362	-86.868794	-51.132831
60230	NaN	9.702030	-0.175329	-0.524495	-0.001989	0.001767	-0.003083	-160.930147	-86.867299	-51.162702
60231	NaN	9.715692	-0.199360	-0.577395	-0.001353	-0.001876	-0.002974	-160.920359	-86.864588	-51.172502
60232	NaN	9.710514	-0.224799	-0.544270	0.010791	0.002600	-0.005521	-160.903189	-86.864055	-51.180445
60233	NaN	9.710727	-0.251777	-0.565490	0.012588	-0.003086	-0.001043	-160.870527	-86.860326	-51.205155
60234	NaN	9.740311	-0.240171	-0.551697	0.019624	0.005971	-0.002924	-160.812701	-86.861188	-51.252339
60235	NaN	9.740126	-0.212850	-0.530094	0.015279	0.001167	-0.000697	-160.760596	-86.859693	-51.294977
60236	NaN	9.739932	-0.185597	-0.508618	0.009239	0.003759	-0.000847	-160.694831	-86.858958	-51.353454
60237	NaN	9.761242	-0.151309	-0.496265	-0.000406	-0.000387	0.003444	-160.616411	-86.855831	-51.431446
60238	NaN	9.731674	-0.163018	-0.509778	-0.014665	0.002642	0.001458	-160.545970	-86.853985	-51.509187
60239	NaN	9.745131	-0.160219	-0.541401	-0.023905	-0.001115	0.002303	-160.495006	-86.850673	-51.573166
60240	NaN	9.694247	-0.206315	-0.567313	-0.027128	-0.000011	0.003950	-160.417358	-86.846930	-51.666597
60241	NaN	9.740545	-0.268081	-0.572147	-0.018502	-0.000061	0.002343	-160.359512	-86.844171	-51.734369
60242	NaN	9.748598	-0.264127	-0.549405	-0.002698	0.002701	0.005908	-160.239986	-86.841533	-51.856574
60243	NaN	9.719018	-0.275892	-0.563050	0.002713	-0.003201	-0.000307	-160.207152	-86.837584	-51.887122
60244	NaN	9.740106	-0.214391	-0.529844	0.001989	-0.001768	0.003083	-160.128599	-86.833128	-51.965454
60245	NaN	9.756211	-0.206030	-0.484683	-0.002905	-0.000719	0.001702	-160.070923	-86.830120	-52.024106
60246	NaN	9.748144	-0.210488	-0.507417	-0.012781	-0.000831	0.002437	-160.003539	-86.826297	-52.098051
60247	NaN	9.769864	-0.230736	-0.537531	-0.014562	0.004358	0.003561	-159.916755	-86.825649	-52.192547
60248	NaN	9.734904	-0.240684	-0.496679	-0.013218	-0.000217	-0.005322	-159.922963	-86.823652	-52.193068
60249	NaN	9.705548	-0.278919	-0.531545	-0.015191	0.001051	-0.002804	-159.910063	-86.822474	-52.213927
60250	NaN	9.702699	-0.257048	-0.587184	-0.006143	0.000885	-0.002253	-159.877767	-86.820523	-52.246624
60251	NaN	9.726879	-0.244118	-0.519116	0.000931	0.001986	0.000818	-159.817296	-86.819132	-52.305875
60252	NaN	9.731885	-0.191165	-0.530609	0.003940	0.004415	0.001220	-159.734839	-86.818282	-52.388002
60253	NaN	9.739957	-0.187021	-0.507606	-0.003541	0.002924	0.001594	-159.666179	-86.817231	-52.458022
60254	NaN	9.731922	-0.191417	-0.529853	-0.009580	0.005520	0.001444	-159.584242	-86.816931	-52.544180
60255	NaN	9.740004	-0.187118	-0.506673	-0.017801	0.005965	-0.000394	-159.532056	-86.817901	-52.605882
60256	NaN	9.778285	-0.252865	-0.533548	-0.020196	0.007346	-0.000033	-159.465726	-86.818887	-52.686961
60257	NaN	9.735261	-0.267070	-0.515458	-0.016315	-0.004851	-0.002232	-159.469489	-86.814417	-52.691776
60258	NaN	9.748726	-0.263617	-0.547379	-0.020189	0.000400	-0.006293	-159.487241	-86.812910	-52.685352
60259	NaN	9.692450	-0.307576	-0.519100	-0.011650	-0.001867	-0.004401	-159.498446	-86.810477	-52.680037
60260	NaN	9.702630	-0.228225	-0.564259	-0.008516	-0.005183	-0.002552	-159.493211	-86.805244	-52.689176
60261	NaN	9.723912	-0.193464	-0.552495	-0.007688	-0.004905	-0.003838	-159.507627	-86.801068	-52.678371
60262	NaN	9.753675	-0.208866	-0.560539	-0.007585	-0.003196	-0.001733	-159.488605	-86.796688	-52.705335
60263	NaN	9.766930	-0.178400	-0.570905	-0.011356	0.003764	-0.003687	-159.472575	-86.797133	-52.727129
60264	NaN	9.761995	-0.230992	-0.558548	-0.003683	0.009174	-0.005450	-159.441591	-86.800220	-52.760083
60265	NaN	9.748594	-0.233239	-0.526068	-0.010758	0.008079	-0.008523	-159.456078	-86.803953	-52.750969
60266	NaN	9.722176	-0.292847	-0.504300	-0.008792	0.013758	-0.004780	-159.404465	-86.809331	-52.806446
60267	NaN	9.743994	-0.312329	-0.533416	-0.004829	0.010720	-0.004217	-159.364487	-86.813612	-52.848480
60268	NaN	9.757306	-0.281648	-0.542851	-0.007010	0.008571	-0.005908	-159.341076	-86.816471	-52.874253
60269	NaN	9.757379	-0.281144	-0.541799	-0.009621	0.013482	-0.003495	-159.286618	-86.822083	-52.933539
60270	NaN	9.741413	-0.289027	-0.585559	-0.003619	0.018847	-0.008284	-159.246273	-86.830914	-52.973996
60271	NaN	9.690485	-0.306822	-0.588368	0.001364	0.020010	-0.010397	-159.227977	-86.841421	-52.990760
60272	NaN	9.728678	-0.344536	-0.593130	0.017728	0.009955	-0.009477	-159.218032	-86.845700	-52.985569
60273	NaN	9.711990	-0.270481	-0.573054	0.028496	0.020016	-0.014326	-159.222293	-86.857009	-52.964171
60274	NaN	9.757440	-0.222095	-0.490915	0.038182	0.016210	-0.013662	-159.220691	-86.865511	-52.944726
60275	NaN	9.773583	-0.212067	-0.443967	0.031518	0.015508	-0.020185	-159.297646	-86.875592	-52.848792
60276	NaN	9.744454	-0.248878	-0.477205	0.000829	0.018925	-0.020275	-159.371892	-86.886973	-52.771691
60277	NaN	9.758401	-0.271174	-0.528304	-0.003326	0.018040	-0.019450	-159.453330	-86.898251	-52.691263
60278	NaN	9.737342	-0.303474	-0.538732	-0.002408	0.020538	-0.024234	-159.565274	-86.911159	-52.582603
60279	NaN	9.754142	-0.346816	-0.533908	0.007049	0.020775	-0.027117	-159.708622	-86.925416	-52.434225
60280	NaN	9.754022	-0.316972	-0.510611	0.021400	0.019967	-0.028611	-159.854276	-86.938842	-52.276560
60281	NaN	9.729253	-0.245656	-0.512907	0.024215	0.018480	-0.026811	-159.995822	-86.951764	-52.120142
60282	NaN	9.785654	-0.198533	-0.539258	0.030865	0.019709	-0.025891	-160.110670	-86.964520	-51.984386
60283	NaN	9.734081	-0.160627	-0.499557	0.014435	0.020072	-0.023991	-160.225609	-86.977717	-51.860226
60284	NaN	9.717923	-0.139658	-0.521656	0.016093	0.020637	-0.026563	-160.356082	-86.991084	-51.720751
60285	NaN	9.713240	-0.189956	-0.507686	0.007964	0.023290	-0.031918	-160.547014	-87.007505	-51.524210
60286	NaN	9.725296	-0.285632	-0.490647	0.011699	0.024304	-0.034902	-160.755631	-87.024515	-51.305938
60287	NaN	9.741809	-0.300835	-0.464258	0.024295	0.021247	-0.035920	-160.990928	-87.040506	-51.055609
60288	NaN	9.734073	-0.302202	-0.484615	0.042997	0.024274	-0.028416	-161.119190	-87.056088	-50.903950
60289	NaN	9.746551	-0.214762	-0.450190	0.042483	0.022689	-0.032682	-161.309181	-87.072186	-50.688558
60290	NaN	9.691683	-0.127641	-0.445138	0.028268	0.017728	-0.029749	-161.487009	-87.084399	-50.496254
60291	NaN	9.653986	-0.113495	-0.458481	0.022634	0.020708	-0.033363	-161.706883	-87.099469	-50.262334
60292	NaN	9.640491	-0.113277	-0.425383	0.015527	0.009905	-0.033592	-161.963420	-87.108035	-49.995785
60293	NaN	9.686779	-0.144297	-0.407978	0.012762	0.003424	-0.030438	-162.221771	-87.113063	-49.729006
60294	NaN	9.761993	-0.136368	-0.356134	0.003116	-0.000259	-0.031772	-162.503319	-87.115701	-49.443626
60295	NaN	9.732611	-0.144812	-0.370097	0.000854	-0.004128	-0.035566	-162.851315	-87.117336	-49.093921
60296	NaN	9.722508	-0.151655	-0.470354	0.005150	-0.008973	-0.034931	-163.196477	-87.115491	-48.746534
60297	NaN	9.719249	-0.099621	-0.505908	0.005475	-0.010791	-0.034874	-163.556059	-87.113139	-48.382577
60298	NaN	9.748626	-0.084975	-0.493388	0.001241	-0.014424	-0.024942	-163.811279	-87.106598	-48.126589
60299	NaN	9.710733	-0.071715	-0.509788	0.000270	-0.009463	-0.019509	-164.000750	-87.102368	-47.935943
60300	NaN	9.740100	-0.058153	-0.497132	0.003415	-0.012767	-0.017645	-164.167719	-87.095472	-47.765990
60301	NaN	9.718017	-0.036820	-0.468301	0.011221	-0.013568	-0.012342	-164.284412	-87.087809	-47.641932
60302	NaN	9.725874	-0.031501	-0.447016	0.015706	-0.014992	-0.007502	-164.339432	-87.078033	-47.576375
60303	NaN	9.730917	-0.005366	-0.481677	0.009486	-0.016864	-0.000658	-164.339928	-87.066732	-47.569658
60304	NaN	9.717791	-0.035687	-0.473054	0.000681	-0.020786	0.002336	-164.314987	-87.052312	-47.591404
60305	NaN	9.713117	-0.089115	-0.462992	-0.003703	-0.018161	0.005206	-164.264397	-87.039386	-47.643408
60306	NaN	9.719143	-0.118526	-0.540392	-0.011261	-0.021912	0.009075	-164.179682	-87.023214	-47.735013
60307	NaN	9.700887	-0.175284	-0.499006	-0.015831	-0.022704	0.007740	-164.124008	-87.007381	-47.799067
60308	NaN	9.701256	-0.203304	-0.522454	-0.010936	-0.023729	0.009130	-164.045685	-86.990272	-47.882880
60309	NaN	9.701592	-0.231480	-0.546169	-0.013188	-0.028107	0.010944	-163.972695	-86.970949	-47.962761
60310	NaN	9.717328	-0.223568	-0.503792	-0.005158	-0.031926	0.008586	-163.923048	-86.949338	-48.015610
60311	NaN	9.674197	-0.239099	-0.488878	0.000240	-0.030846	0.008630	-163.876098	-86.928867	-48.061711
60312	NaN	9.683196	-0.133593	-0.515990	0.008174	-0.036372	0.004166	-163.877842	-86.905485	-48.054560
60313	NaN	9.715856	-0.170874	-0.471309	0.003602	-0.037160	0.002834	-163.906972	-86.882459	-48.022543
60314	NaN	9.694199	-0.178938	-0.465925	0.005286	-0.037608	0.011472	-163.840806	-86.857378	-48.084110
60315	NaN	9.694863	-0.234470	-0.512178	0.004590	-0.043121	0.008608	-163.828910	-86.830153	-48.092612
60316	NaN	9.695470	-0.290045	-0.558567	0.009259	-0.040616	0.012036	-163.765161	-86.803122	-48.152487
60317	NaN	9.703636	-0.313925	-0.561248	0.027060	-0.045977	0.006826	-163.766742	-86.774610	-48.134597
60318	NaN	9.719425	-0.305837	-0.520417	0.030285	-0.047052	0.005175	-163.776242	-86.745167	-48.106611
60319	NaN	9.732946	-0.330501	-0.578143	0.015865	-0.054936	-0.001662	-163.890060	-86.713079	-47.982725
60320	NaN	9.779030	-0.364031	-0.566871	0.013017	-0.052940	-0.009068	-164.059508	-86.682682	-47.805113
60321	NaN	9.761632	-0.473114	-0.570102	0.024441	-0.043746	-0.022966	-164.334673	-86.660041	-47.514678
60322	NaN	9.702453	-0.494724	-0.601350	0.034238	-0.045784	-0.020215	-164.570776	-86.635284	-47.256467
60323	NaN	9.697413	-0.518367	-0.572328	0.054777	-0.044651	-0.028622	-164.876268	-86.612843	-46.918226
60324	NaN	9.726854	-0.503670	-0.562760	0.070414	-0.042483	-0.038413	-165.245769	-86.592415	-46.508215
60325	NaN	9.729350	-0.466490	-0.468563	0.087947	-0.043764	-0.047228	-165.693908	-86.572884	-46.008020
60326	NaN	9.708740	-0.367912	-0.510057	0.099956	-0.040878	-0.051933	-166.157007	-86.554861	-45.485290
60327	NaN	9.674730	-0.271569	-0.520126	0.100367	-0.047377	-0.061639	-166.727965	-86.534750	-44.854903
60328	NaN	9.747940	-0.165590	-0.597504	0.095988	-0.044715	-0.058767	-167.253184	-86.514904	-44.273666
60329	NaN	9.773104	-0.072061	-0.602062	0.068545	-0.039893	-0.069520	-167.886080	-86.499208	-43.599468
60330	NaN	9.803234	-0.108094	-0.634609	0.056032	-0.041624	-0.078199	-168.593194	-86.482590	-42.858827
60331	NaN	9.854797	-0.136025	-0.675976	0.055596	-0.031841	-0.083259	-169.332565	-86.471935	-42.085364
60332	NaN	9.798351	-0.118277	-0.607599	0.060326	-0.027072	-0.083380	-170.049813	-86.463008	-41.333642
60333	NaN	9.708455	-0.064299	-0.586923	0.066796	-0.020022	-0.083994	-170.762979	-86.457907	-40.579992
60334	NaN	9.659694	-0.014129	-0.474664	0.069553	-0.030081	-0.090539	-171.536898	-86.446610	-39.767456
60335	NaN	9.687545	0.088657	-0.402001	0.046282	-0.037262	-0.084481	-172.281558	-86.430550	-38.994008
60336	NaN	9.700315	0.200087	-0.485071	-0.001651	-0.037023	-0.071973	-172.924702	-86.412788	-38.351484
60337	NaN	9.696536	0.301233	-0.613599	-0.049267	-0.047759	-0.062101	-173.518733	-86.388147	-37.783784
60338	NaN	9.667115	0.267798	-0.652075	-0.064761	-0.045569	-0.059289	-174.078362	-86.363866	-37.261769
60339	NaN	9.726547	0.169321	-0.603410	-0.074247	-0.048091	-0.052830	-174.588788	-86.337824	-36.792154
60340	NaN	9.743629	0.129104	-0.604464	-0.091948	-0.041149	-0.045446	-175.023254	-86.314763	-36.409461
60341	NaN	9.755847	0.164057	-0.619607	-0.102496	-0.049569	-0.038380	-175.410714	-86.286729	-36.079263
60342	NaN	9.798004	0.183478	-0.643061	-0.110445	-0.053203	-0.036616	-175.775545	-86.255976	-35.777303
60343	NaN	9.831932	0.197845	-0.688901	-0.131852	-0.047296	-0.026199	-176.062025	-86.228485	-35.565137
60344	NaN	9.751329	0.169102	-0.710582	-0.138930	-0.051135	-0.020125	-176.291357	-86.198196	-35.414227
60345	NaN	9.748025	0.138278	-0.813073	-0.147250	-0.046031	-0.012169	-176.459183	-86.170811	-35.329807
60346	NaN	9.781159	0.131199	-0.748009	-0.151768	-0.038183	-0.005124	-176.556117	-86.147299	-35.318380
60347	NaN	9.751869	0.092911	-0.786175	-0.158783	-0.042541	0.006552	-176.567902	-86.121249	-35.396975
60348	NaN	9.721574	0.108493	-0.781807	-0.148580	-0.034940	0.008546	-176.547184	-86.099236	-35.500829
60349	NaN	9.734147	0.064217	-0.727887	-0.138413	-0.029586	0.014052	-176.479157	-86.080329	-35.647728
60350	NaN	9.741738	0.095278	-0.686872	-0.151993	-0.030775	0.017847	-176.381609	-86.060218	-35.831401
60351	NaN	9.826016	0.152313	-0.705502	-0.169236	-0.030762	0.021153	-176.275416	-86.040345	-36.034265
60352	NaN	9.788501	0.107364	-0.765137	-0.182300	-0.023493	0.035505	-176.050689	-86.023810	-36.363189
60353	NaN	9.780487	0.073783	-0.811379	-0.174555	-0.025881	0.038592	-175.805432	-86.005920	-36.708518
60354	NaN	9.751943	-0.069957	-0.802999	-0.166078	-0.020583	0.041088	-175.526104	-85.990394	-37.080303
60355	NaN	9.740020	-0.157137	-0.838114	-0.156365	-0.024225	0.041633	-175.249881	-85.973084	-37.446241
60356	NaN	9.718532	-0.168065	-0.831173	-0.124738	-0.018578	0.048599	-174.889627	-85.958104	-37.873150
60357	NaN	9.735313	-0.190632	-0.809630	-0.104116	-0.018464	0.051303	-174.507005	-85.943262	-38.315753
60358	NaN	9.763951	-0.129400	-0.754767	-0.088632	-0.013848	0.054752	-174.078888	-85.930246	-38.789483
60359	NaN	9.721303	-0.149445	-0.737517	-0.083089	-0.008832	0.053396	-173.665021	-85.920314	-39.251348
60360	NaN	9.716426	-0.077774	-0.750482	-0.081131	-0.010020	0.050840	-173.265513	-85.909224	-39.692354
60361	NaN	9.707684	-0.059129	-0.752144	-0.093707	-0.004711	0.048500	-172.896859	-85.901522	-40.115000
60362	NaN	9.698379	0.013134	-0.710376	-0.107114	-0.011579	0.053678	-172.496705	-85.888922	-40.574151
60363	NaN	9.767248	-0.097726	-0.770800	-0.129680	-0.008035	0.050007	-172.143980	-85.878817	-41.001502
60364	NaN	9.746643	-0.189679	-0.827932	-0.130506	-0.008265	0.051278	-171.777552	-85.867853	-41.441396
60365	NaN	9.763945	-0.266003	-0.849010	-0.121628	-0.002643	0.050377	-171.414909	-85.860386	-41.874075
60366	NaN	9.725522	-0.335016	-0.797895	-0.091114	-0.002541	0.052300	-171.014525	-85.852178	-42.324686
60367	NaN	9.745986	-0.251469	-0.741642	-0.055101	0.003068	0.047310	-170.633384	-85.847802	-42.737702
60368	NaN	9.766570	-0.167862	-0.684801	-0.049212	0.006226	0.046013	-170.248430	-85.844656	-43.147603
60369	NaN	9.800329	-0.107102	-0.681651	-0.063843	0.001485	0.046827	-169.879843	-85.839039	-43.553058
60370	NaN	9.745364	-0.107675	-0.740824	-0.076833	0.004155	0.051420	-169.473824	-85.833731	-44.001284
60371	NaN	9.690009	-0.158096	-0.712317	-0.072249	0.004914	0.052727	-169.061588	-85.829006	-44.455338
60372	NaN	9.664415	-0.223706	-0.692395	-0.069035	0.003860	0.051037	-168.657269	-85.823165	-44.899008
60373	NaN	9.677391	-0.250703	-0.746030	-0.070410	0.002078	0.048032	-168.286665	-85.816928	-45.310270
60374	NaN	9.694289	-0.300418	-0.744760	-0.079921	0.002471	0.045366	-167.936057	-85.810502	-45.704803
60375	NaN	9.673217	-0.391649	-0.801724	-0.072117	0.002135	0.044994	-167.591863	-85.804295	-46.090571
60376	NaN	9.719696	-0.429660	-0.787235	-0.044774	-0.001399	0.038793	-167.280165	-85.796253	-46.426067
60377	NaN	9.741063	-0.478341	-0.840415	-0.029264	0.005871	0.033243	-166.996307	-85.793324	-46.726723
60378	NaN	9.715237	-0.542455	-0.820756	-0.012997	0.001506	0.032558	-166.710689	-85.787490	-47.018617
60379	NaN	9.783127	-0.598505	-0.836875	0.009770	0.006881	0.022362	-166.485929	-85.786361	-47.237593
60380	NaN	9.736635	-0.619267	-0.894752	0.037400	0.008893	0.016970	-166.275866	-85.786481	-47.423861
60381	NaN	9.753315	-0.587053	-0.826094	0.068740	0.011932	0.008584	-166.112078	-85.789934	-47.547820
60382	NaN	9.740283	-0.538940	-0.748537	0.095927	0.014119	0.001031	-165.978452	-85.795071	-47.623612
60383	NaN	9.727933	-0.440328	-0.758179	0.106677	0.016770	-0.004513	-165.882322	-85.802995	-47.657934
60384	NaN	9.740880	-0.383237	-0.743896	0.105352	0.017255	-0.010989	-165.828337	-85.811646	-47.649919
60385	NaN	9.732735	-0.386388	-0.764067	0.102731	0.024996	-0.017570	-165.817525	-85.825967	-47.600960
60386	NaN	9.732875	-0.358616	-0.739546	0.113959	0.020108	-0.021726	-165.834540	-85.837560	-47.516716
60387	NaN	9.682235	-0.402676	-0.763435	0.113778	0.019068	-0.029465	-165.920241	-85.850246	-47.364646
60388	NaN	9.674034	-0.377468	-0.761985	0.127134	0.016886	-0.037511	-166.058313	-85.862280	-47.152687
60389	NaN	9.720944	-0.408996	-0.744574	0.153600	0.020566	-0.041676	-166.214167	-85.877426	-46.907411
60390	NaN	9.708639	-0.307135	-0.754313	0.178861	0.023569	-0.041121	-166.340128	-85.893517	-46.678388
60391	NaN	9.789214	-0.220246	-0.689981	0.197733	0.031027	-0.040703	-166.446427	-85.914278	-46.457454
60392	NaN	9.733776	-0.079650	-0.637704	0.191925	0.032502	-0.046403	-166.593130	-85.936051	-46.201318
60393	NaN	9.703954	-0.033910	-0.604728	0.174005	0.029470	-0.049530	-166.789222	-85.957027	-45.904007
60394	NaN	9.746542	0.011918	-0.598755	0.143434	0.027208	-0.048031	-166.991023	-85.975963	-45.619760
60395	NaN	9.712352	0.004890	-0.555044	0.122908	0.028952	-0.048677	-167.215624	-85.996388	-45.323232
60396	NaN	9.639718	0.035892	-0.504467	0.108336	0.023631	-0.042241	-167.401955	-86.012447	-45.073822
60397	NaN	9.682708	0.027517	-0.542742	0.080570	0.010659	-0.041758	-167.632173	-86.021631	-44.795992
60398	NaN	9.725066	0.073193	-0.538936	0.047457	0.005693	-0.038473	-167.858110	-86.027120	-44.542161
60399	NaN	9.747017	0.030015	-0.590325	0.021758	0.009639	-0.034896	-168.070354	-86.034762	-44.316129
60400	NaN	9.714610	-0.037430	-0.723391	0.012285	-0.006614	-0.041059	-168.359509	-86.033502	-44.018911
60401	NaN	9.757250	-0.120704	-0.696502	0.024602	0.001295	-0.039422	-168.621795	-86.036832	-43.741085
60402	NaN	9.748440	-0.169448	-0.630267	0.035504	0.005128	-0.037274	-168.847535	-86.041495	-43.493183
60403	NaN	9.726858	-0.146935	-0.599299	0.034584	0.000383	-0.028998	-169.021697	-86.043018	-43.297961
60404	NaN	9.679968	-0.008548	-0.660704	0.031206	-0.002460	-0.025949	-169.171009	-86.042141	-43.130183
60405	NaN	9.730056	0.067060	-0.614171	0.017576	-0.005895	-0.018660	-169.280589	-86.038955	-43.009466
60406	NaN	9.750571	0.130422	-0.581014	0.007478	-0.002566	-0.015805	-169.361462	-86.036875	-42.925271
60407	NaN	9.750540	0.132050	-0.581173	-0.031963	-0.001027	-0.016148	-169.471330	-86.036138	-42.832717
60408	NaN	9.711954	0.172018	-0.574226	-0.062787	0.000529	-0.018148	-169.607273	-86.035969	-42.735327
60409	NaN	9.691387	0.112127	-0.608048	-0.104557	-0.006742	-0.009709	-169.714752	-86.031321	-42.686861
60410	NaN	9.718023	-0.008895	-0.648181	-0.121802	-0.006712	-0.006415	-169.799918	-86.025933	-42.672972
60411	NaN	9.697819	-0.096562	-0.704430	-0.126868	-0.012334	0.002690	-169.827468	-86.016867	-42.717441
60412	NaN	9.711132	-0.119465	-0.759077	-0.101395	-0.012708	0.001170	-169.847540	-86.007367	-42.754679
60413	NaN	9.698391	-0.149392	-0.750144	-0.085689	-0.011585	0.002556	-169.851622	-85.998738	-42.799024
60414	NaN	9.680155	-0.125146	-0.643694	-0.062662	-0.012881	0.004915	-169.819334	-85.988746	-42.865540
60415	NaN	9.687961	-0.094236	-0.600946	-0.047542	-0.015572	0.005518	-169.783857	-85.977566	-42.927631
60416	NaN	9.737984	-0.021499	-0.554953	-0.052293	-0.013406	0.011890	-169.690696	-85.966472	-43.049498
60417	NaN	9.711995	0.046211	-0.559365	-0.080882	-0.017038	0.010865	-169.634517	-85.953905	-43.151494
60418	NaN	9.788400	0.099155	-0.598686	-0.122904	-0.017906	0.012255	-169.587682	-85.940279	-43.269149
60419	NaN	9.747524	0.024871	-0.757057	-0.177146	-0.024903	0.014077	-169.573639	-85.922937	-43.384201
60420	NaN	9.770522	-0.204161	-0.832789	-0.184483	-0.022369	0.013083	-169.563561	-85.906767	-43.499934
60421	NaN	9.735000	-0.509776	-0.978983	-0.143972	-0.008452	0.010146	-169.538498	-85.899099	-43.606983
60422	NaN	9.727142	-0.643241	-0.980322	-0.076903	-0.001144	0.011431	-169.449901	-85.895002	-43.741179
60423	NaN	9.701080	-0.651561	-0.917319	0.000784	-0.004803	0.011267	-169.328336	-85.889249	-43.861828
60424	NaN	9.750573	-0.526876	-0.825798	0.069401	-0.001477	0.016943	-169.112566	-85.884286	-44.037502
60425	NaN	9.727455	-0.300269	-0.751716	0.110015	-0.004721	0.016027	-168.891972	-85.878001	-44.194690
60426	NaN	9.737651	-0.057695	-0.587335	0.112833	0.003471	0.015045	-168.659507	-85.875896	-44.363435
60427	NaN	9.745497	0.073989	-0.587298	0.071733	-0.002185	0.010932	-168.497457	-85.871530	-44.483920
60428	NaN	9.795762	0.145641	-0.540074	0.027856	-0.006940	0.010664	-168.363673	-85.864009	-44.599410
60429	NaN	9.754059	0.048565	-0.587362	-0.014719	-0.002471	0.014125	-168.227509	-85.859068	-44.743606
60430	NaN	9.649040	-0.125412	-0.650562	-0.032937	-0.006636	0.020077	-168.057618	-85.850700	-44.931459
60431	NaN	9.718118	-0.261024	-0.732674	-0.022606	-0.016300	0.024192	-167.872089	-85.836747	-45.129683
60432	NaN	9.709615	-0.267305	-0.756915	-0.004484	-0.016631	0.025198	-167.664677	-85.822027	-45.338493
60433	NaN	9.713274	-0.189890	-0.747867	0.017248	-0.020426	0.030160	-167.420513	-85.804922	-45.572622
60434	NaN	9.721146	-0.162162	-0.705499	0.032856	-0.021064	0.029427	-167.171345	-85.787047	-45.804609
60435	NaN	9.716073	-0.035609	-0.675915	0.038209	-0.022256	0.032926	-166.901480	-85.768415	-46.052477
60436	NaN	9.677289	0.025768	-0.648871	0.032916	-0.021617	0.035025	-166.614607	-85.749255	-46.321152
60437	NaN	9.706580	0.060374	-0.616102	0.012623	-0.026201	0.041410	-166.307910	-85.727105	-46.620667
60438	NaN	9.702101	0.132240	-0.630737	-0.008927	-0.030932	0.046931	-165.980682	-85.701067	-46.955186
60439	NaN	9.740296	0.089446	-0.641535	-0.033481	-0.038061	0.052044	-165.651131	-85.670588	-47.304131
60440	NaN	9.753315	0.034097	-0.720178	-0.054857	-0.032012	0.062544	-165.245635	-85.641255	-47.741647
60441	NaN	9.680807	0.001686	-0.718554	-0.075385	-0.039889	0.064684	-164.862408	-85.607549	-48.168533
60442	NaN	9.718968	-0.095951	-0.773499	-0.079423	-0.039058	0.067644	-164.461548	-85.573272	-48.616632
60443	NaN	9.744083	-0.197646	-0.796579	-0.076681	-0.035371	0.073611	-164.019371	-85.540209	-49.103429
60444	NaN	9.734813	-0.257362	-0.734835	-0.063801	-0.032841	0.073211	-163.570184	-85.507814	-49.590332
60445	NaN	9.665622	-0.362578	-0.589779	-0.032624	-0.026821	0.072441	-163.106606	-85.479046	-50.073318
60446	NaN	9.605284	-0.361444	-0.466269	-0.003706	-0.034812	0.076166	-162.620520	-85.444474	-50.563889
60447	NaN	9.677747	-0.239719	-0.519185	-0.018725	-0.039934	0.080449	-162.136023	-85.406525	-51.059918
60448	NaN	9.695931	0.015408	-0.654279	-0.075207	-0.048672	0.080683	-161.705937	-85.363101	-51.532778
60449	NaN	9.700370	0.057408	-0.801811	-0.143065	-0.063695	0.085671	-161.327291	-85.310700	-51.994143
60450	NaN	9.741360	-0.147669	-1.001441	-0.179235	-0.058171	0.076779	-161.020695	-85.262311	-52.403611
60451	NaN	9.776973	-0.427634	-1.081446	-0.186639	-0.054974	0.070217	-160.764155	-85.217125	-52.767565
60452	NaN	9.744231	-0.702812	-1.057606	-0.146406	-0.046449	0.060831	-160.527377	-85.177615	-53.088659
60453	NaN	9.660665	-0.940290	-0.861963	-0.088768	-0.039381	0.059296	-160.259621	-85.142684	-53.407635
60454	NaN	9.518769	-1.044310	-0.690990	0.010929	-0.032010	0.056244	-159.938051	-85.111708	-53.723427
60455	NaN	9.557446	-0.929055	-0.570364	0.101474	-0.051043	0.057277	-159.609734	-85.070618	-53.993818
60456	NaN	9.649866	-0.539221	-0.620948	0.121730	-0.056224	0.053536	-159.305710	-85.026875	-54.227195
60457	NaN	9.748420	0.030298	-0.837138	0.093081	-0.074193	0.051041	-159.083904	-84.974423	-54.395532
60458	NaN	9.774821	0.504924	-0.721690	-0.012923	-0.082182	0.049910	-158.947911	-84.917309	-54.539015
60459	NaN	9.663471	0.436274	-0.651243	-0.093470	-0.103331	0.058930	-158.859868	-84.847581	-54.680399
60460	NaN	9.791726	-0.072555	-0.892619	-0.127923	-0.082954	0.054726	-158.769397	-84.789086	-54.843847
60461	NaN	9.694775	-0.554894	-1.050833	-0.178789	-0.054615	0.053428	-158.657292	-84.746469	-55.058507
60462	NaN	9.511068	-1.119314	-1.215969	-0.103022	-0.063026	0.051066	-158.534749	-84.699340	-55.241837
60463	NaN	9.640214	-1.132515	-1.377667	0.093699	-0.078029	0.050693	-158.341078	-84.644728	-55.381648
60464	NaN	9.891947	-0.600367	-0.957824	0.182458	-0.064816	0.059255	-158.018853	-84.594726	-55.599168
60465	NaN	9.672331	-0.106501	-0.561228	0.168907	-0.063429	0.059625	-157.707451	-84.545807	-55.813978
60466	NaN	9.850879	0.109100	-0.433473	0.144839	-0.048295	0.052549	-157.416019	-84.505878	-56.023498
60467	NaN	9.757556	0.637927	0.521079	0.373960	0.030397	0.070028	-156.721976	-84.503869	-56.504712
60468	NaN	9.796372	-0.002181	-1.516802	-0.527034	-0.154448	0.059150	-157.033123	-84.406352	-56.494208
60469	NaN	9.405296	0.694197	-0.106173	-0.022760	-0.022497	0.034604	-156.887038	-84.384310	-56.653315
60470	NaN	9.986026	0.471150	-0.676145	-0.452846	-0.141421	0.016694	-157.348595	-84.303017	-56.449732
60471	NaN	9.722165	-0.174883	-1.461101	-0.532308	-0.040494	0.028149	-157.569211	-84.273006	-56.533745
60472	NaN	9.814732	-0.629175	-1.489795	-0.480883	-0.075147	0.026804	-157.838961	-84.224535	-56.537033
60473	NaN	9.993952	-0.821199	-1.751754	-0.493415	-0.011659	0.028977	-157.970317	-84.209719	-56.688375
60474	NaN	9.671962	-0.902507	-1.855134	-0.381417	0.006255	0.012461	-158.083049	-84.207562	-56.790714
60475	NaN	9.716822	-1.218529	-1.567467	-0.291128	0.010500	-0.001356	-158.210548	-84.211063	-56.829439
60476	NaN	9.793154	-1.370972	-1.392087	-0.129917	0.036881	0.006898	-158.143155	-84.226280	-56.967469
60477	NaN	9.727427	-0.772313	-1.441982	-0.089455	0.041264	0.012082	-158.018973	-84.243255	-57.143015
60478	NaN	9.761099	-0.424290	-1.338829	-0.134083	0.031117	0.003401	-157.982643	-84.256076	-57.250739
60479	NaN	9.846065	-0.470423	-1.309746	-0.138988	0.044909	-0.009442	-157.991650	-84.279581	-57.320939
60480	NaN	9.900306	-0.807157	-1.652297	-0.188924	0.068431	-0.010292	-157.979410	-84.315222	-57.437794
60481	NaN	9.660911	-1.045054	-1.495166	-0.102021	0.092592	-0.012567	-157.879263	-84.364710	-57.596390
60482	NaN	9.382174	-1.043316	-1.034657	0.028163	0.099555	-0.013902	-157.689710	-84.417607	-57.765747
60483	NaN	9.435786	-0.692187	-0.615118	0.104152	0.084444	-0.015053	-157.497401	-84.463230	-57.898226
60484	NaN	9.736883	-0.069228	-0.564390	0.088662	0.076859	-0.004000	-157.262958	-84.501691	-58.076371
60485	NaN	9.864410	0.415158	-0.641060	0.020015	0.076181	0.015046	-156.966597	-84.536137	-58.361790
60486	NaN	9.885252	0.448442	-0.882184	-0.106081	0.085224	0.028290	-156.638856	-84.571527	-58.744519
60487	NaN	9.867805	0.262929	-1.263711	-0.203580	0.097871	0.036883	-156.289050	-84.612059	-59.212270
60488	NaN	9.821433	-0.425300	-1.414246	-0.256260	0.102115	0.039148	-155.936461	-84.653414	-59.709116
60489	NaN	9.803404	-1.442541	-1.379871	-0.154786	0.131169	0.047654	-155.400037	-84.708171	-60.336146
60490	NaN	9.740092	-1.702650	-1.338078	0.064080	0.151424	0.056157	-154.620247	-84.770214	-61.080083
60491	NaN	9.680734	-1.141612	-0.919384	0.252840	0.159256	0.065320	-153.642438	-84.833457	-61.915681
60492	NaN	9.744734	-0.355111	-0.680666	0.350989	0.162464	0.068612	-152.554284	-84.895456	-62.802611
60493	NaN	9.977033	0.284906	-0.831320	0.264331	0.176768	0.082403	-151.372304	-84.960046	-63.836409
60494	NaN	9.956697	0.551403	-1.102601	0.123069	0.196837	0.095230	-150.102407	-85.028483	-65.039128
60495	NaN	9.892674	0.285150	-1.523181	-0.001152	0.217571	0.110258	-148.714621	-85.100940	-66.431956
60496	NaN	9.959812	-0.195123	-1.804963	-0.017876	0.239686	0.123785	-147.136494	-85.176243	-68.025403
60497	NaN	10.071535	-0.429614	-1.633087	0.025075	0.284317	0.143205	-145.199628	-85.263075	-69.953828
60498	NaN	10.087679	-0.491351	-1.339232	0.103997	0.321422	0.133959	-143.042894	-85.363758	-72.057289
60499	NaN	10.103678	-0.191273	-1.010099	0.131861	0.339853	0.132567	-140.701672	-85.467111	-74.329447
60500	NaN	10.056303	0.293501	-0.890020	0.049372	0.351412	0.129321	-138.267298	-85.568356	-76.742250
60501	NaN	10.017564	0.396565	-0.724369	-0.080750	0.347640	0.125052	-135.840804	-85.662291	-79.221482
60502	NaN	9.944526	-0.102735	-0.523938	-0.178751	0.348308	0.130201	-133.339416	-85.745496	-81.831951
60503	NaN	9.962163	-1.061470	-0.404791	-0.180337	0.364351	0.142025	-130.583251	-85.821409	-84.698416
60504	NaN	9.745485	-1.452871	-0.042850	-0.032066	0.370739	0.139074	-127.622812	-85.889707	-87.684413
60505	NaN	9.504157	-1.595532	0.115262	0.169836	0.355365	0.137811	-124.557720	-85.942578	-90.658964
60506	NaN	9.520752	-1.266852	0.207171	0.260251	0.335786	0.129487	-121.545343	-85.981387	-93.528564
60507	NaN	9.468157	-0.835908	0.047835	0.335665	0.309027	0.130745	-118.623693	-86.001989	-96.263799
60508	NaN	9.513692	-0.346911	-0.025566	0.334644	0.295106	0.124599	-115.809897	-86.011881	-98.891765
60509	NaN	9.687444	-0.101358	-0.189840	0.214920	0.284499	0.113853	-113.167340	-86.016720	-101.416505
60510	NaN	9.828191	-0.194464	-0.144305	0.113204	0.288508	0.098353	-110.601283	-86.022095	-103.923108
60511	NaN	9.749445	-0.591025	-0.220818	0.060142	0.283646	0.080628	-108.141636	-86.029060	-106.353359
60512	NaN	9.692796	-1.153888	-0.154098	0.058277	0.271879	0.064739	-105.814183	-86.035218	-108.652556
60513	NaN	9.626826	-1.586904	0.001510	0.127926	0.267789	0.053580	-103.491530	-86.040999	-110.906517
60514	NaN	9.501035	-1.758443	0.064802	0.220149	0.261751	0.043382	-101.184424	-86.044950	-113.092070
60515	NaN	9.544112	-1.722069	0.100662	0.317213	0.248798	0.036113	-98.929908	-86.046188	-115.168999
60516	NaN	9.557973	-1.542030	0.099835	0.398703	0.233104	0.032620	-96.768784	-86.042121	-117.105473
60517	NaN	9.637440	-1.337939	0.151808	0.454425	0.225489	0.020712	-94.647366	-86.039946	-118.970193
60518	NaN	9.591191	-1.042551	0.226899	0.481225	0.228770	0.003990	-92.501417	-86.042120	-120.844746
60519	NaN	9.501992	-0.838582	0.248235	0.461354	0.212364	-0.012170	-90.497084	-86.049141	-122.588113
60520	NaN	9.457273	-0.696477	0.262733	0.420395	0.202983	-0.022072	-88.594876	-86.057271	-124.253388
60521	NaN	9.419959	-0.576992	0.276037	0.359732	0.189453	-0.027567	-86.824242	-86.065670	-125.820832
60522	NaN	9.420381	-0.523822	0.261441	0.299345	0.183745	-0.037961	-85.130286	-86.076519	-127.346992
60523	NaN	9.374813	-0.505333	0.315987	0.235489	0.170901	-0.041874	-83.560737	-86.087790	-128.784194
60524	NaN	9.362786	-0.562375	0.243416	0.178427	0.157681	-0.052326	-82.122195	-86.102993	-130.124373
60525	NaN	9.400682	-0.623624	0.233618	0.129536	0.149605	-0.062135	-80.747600	-86.122561	-131.426965
60526	NaN	9.496493	-0.739385	0.267701	0.096120	0.141804	-0.064365	-79.448073	-86.141717	-132.674267
60527	NaN	9.595133	-0.784249	0.211549	0.081336	0.141342	-0.067665	-78.135853	-86.161221	-133.941963
60528	NaN	9.581501	-0.833962	0.213807	0.078706	0.139921	-0.079361	-76.809114	-86.185127	-135.226658
60529	NaN	9.656448	-0.905206	0.220839	0.084811	0.134194	-0.088764	-75.483046	-86.213400	-136.506167
60530	NaN	9.700704	-0.931843	0.254283	0.084716	0.130763	-0.092970	-74.164839	-86.242180	-137.778711
60531	NaN	9.766189	-0.924214	0.301483	0.099386	0.127959	-0.093871	-72.832004	-86.270325	-139.056548
60532	NaN	9.840054	-0.890390	0.316228	0.113973	0.127509	-0.100435	-71.464984	-86.299745	-140.360723
60533	NaN	9.882770	-0.811991	0.357357	0.131289	0.125541	-0.105080	-70.061529	-86.330397	-141.690924
60534	NaN	9.803206	-0.753236	0.332362	0.144083	0.122844	-0.111218	-68.639991	-86.362434	-143.032845
60535	NaN	9.738865	-0.740243	0.311104	0.158363	0.116680	-0.118432	-67.203664	-86.397809	-144.380345
60536	NaN	9.701264	-0.612562	0.312201	0.173889	0.112502	-0.122641	-65.759120	-86.433918	-145.728197
60537	NaN	9.700170	-0.573089	0.344978	0.175480	0.110467	-0.113926	-64.329501	-86.464138	-147.059048
60538	NaN	9.701264	-0.512800	0.321944	0.173594	0.118379	-0.118693	-62.801817	-86.492309	-148.490138
60539	NaN	9.743020	-0.432631	0.361203	0.171273	0.111799	-0.111287	-61.330185	-86.516512	-149.865417
60540	NaN	9.786141	-0.380243	0.379406	0.154160	0.116227	-0.110315	-59.827691	-86.536512	-151.282341
60541	NaN	9.739741	-0.354765	0.426312	0.129844	0.115422	-0.111248	-58.314915	-86.555215	-152.722558
60542	NaN	9.723317	-0.345716	0.468258	0.104969	0.114213	-0.108760	-56.833494	-86.570567	-154.146606
60543	NaN	9.660464	-0.362041	0.423918	0.083990	0.106236	-0.109628	-55.400694	-86.586936	-155.532974
60544	NaN	9.718919	-0.355417	0.445458	0.053353	0.094954	-0.119940	-54.011033	-86.609588	-156.894050
60545	NaN	9.736486	-0.417020	0.439220	0.040454	0.090610	-0.122233	-52.622369	-86.633036	-158.261132
60546	NaN	9.770669	-0.476417	0.402570	0.042857	0.091074	-0.120413	-51.230352	-86.653301	-159.630262
60547	NaN	9.797860	-0.464895	0.327916	0.045259	0.091539	-0.118592	-49.819985	-86.670848	-161.016269
60548	NaN	9.783655	-0.483211	0.346950	0.052165	0.094636	-0.113181	-48.414237	-86.682678	-162.393794
60549	NaN	9.687656	-0.516130	0.261583	0.059898	0.098553	-0.116797	-46.932021	-86.692722	-163.843332
60550	NaN	9.634768	-0.543432	0.318084	0.087219	0.091039	-0.119994	-45.467535	-86.704722	-165.259595
60551	NaN	9.583070	-0.474254	0.302695	0.104910	0.085640	-0.126447	-43.963889	-86.719580	-166.704731
60552	NaN	9.609251	-0.422224	0.347819	0.132550	0.078120	-0.127451	-42.485623	-86.735649	-168.108672
60553	NaN	9.644438	-0.332817	0.459093	0.134753	0.070468	-0.120518	-41.086027	-86.750469	-169.432418
60554	NaN	9.631245	-0.290210	0.540315	0.125721	0.074284	-0.117415	-39.689738	-86.760514	-170.758314
60555	NaN	9.632074	-0.218151	0.611545	0.099709	0.070216	-0.110231	-38.373063	-86.768103	-172.019090
60556	NaN	9.618902	-0.128794	0.655958	0.070421	0.063617	-0.105708	-37.155545	-86.775421	-173.197615
60557	NaN	9.566274	-0.061861	0.636762	0.034246	0.055700	-0.104565	-36.000046	-86.784700	-174.334508
60558	NaN	9.593936	-0.039548	0.658206	0.005805	0.051640	-0.107018	-34.867788	-86.795330	-175.464602
60559	NaN	9.610336	-0.027444	0.632787	-0.031595	0.047065	-0.102688	-33.802947	-86.805582	-176.548455
60560	NaN	9.629388	-0.043655	0.586397	-0.053942	0.038026	-0.098914	-32.837326	-86.817832	-177.545845
60561	NaN	9.698732	-0.041649	0.548933	-0.082349	0.036438	-0.081680	-32.030668	-86.824755	-178.400221
60562	NaN	9.712349	-0.065006	0.478979	-0.089018	0.042325	-0.074652	-31.264400	-86.825999	-179.218136
60563	NaN	9.775986	-0.117405	0.454264	-0.095781	0.034598	-0.068678	-30.585877	-86.828748	-179.951883
60564	NaN	9.692376	-0.147863	0.408190	-0.086735	0.032252	-0.061954	-29.982351	-86.830213	179.394716
60565	NaN	9.675534	-0.204879	0.376692	-0.060486	0.022340	-0.060213	-29.420441	-86.835791	178.798019
60566	NaN	9.747782	-0.220886	0.417399	-0.037722	0.024865	-0.052394	-28.910700	-86.837590	178.266614
60567	NaN	9.742105	-0.269232	0.432033	-0.000145	0.020664	-0.041553	-28.489713	-86.838299	177.845683
60568	NaN	9.719628	-0.260195	0.541029	0.013566	0.025585	-0.040467	-28.055687	-86.836042	177.419594
60569	NaN	9.739073	-0.221568	0.556998	0.024147	0.021494	-0.032679	-27.698312	-86.833619	177.076311
60570	NaN	9.744664	-0.165455	0.546555	0.031388	0.019094	-0.031228	-27.371228	-86.831929	176.767335
60571	NaN	9.744739	-0.114887	0.512413	0.018316	0.013407	-0.020161	-27.171581	-86.830139	176.578674
60572	NaN	9.761300	-0.050094	0.547807	0.011407	0.013927	-0.021503	-26.970539	-86.828403	176.384588
60573	NaN	9.750147	-0.105744	0.538234	-0.003526	0.010598	-0.021458	-26.784962	-86.828313	176.197483
60574	NaN	9.758486	-0.126605	0.541508	-0.022195	-0.001562	-0.019071	-26.696957	-86.833840	176.096962
60575	NaN	9.747435	-0.182991	0.530595	-0.014704	-0.000474	-0.011298	-26.662969	-86.836769	176.055265
60576	NaN	9.728044	-0.216938	0.516818	-0.004480	-0.002095	-0.011411	-26.638223	-86.840575	176.028504
60577	NaN	9.703260	-0.207898	0.443865	0.013850	-0.004034	-0.009249	-26.623330	-86.844799	176.022317
60578	NaN	9.764310	-0.177460	0.499886	0.019784	-0.000673	-0.010318	-26.587912	-86.847568	175.999106
60579	NaN	9.769889	-0.123796	0.487396	0.017079	0.000242	-0.004500	-26.595381	-86.848383	176.017167
60580	NaN	9.714055	-0.135655	0.554319	0.011422	-0.001421	0.000819	-26.671799	-86.848688	176.101032
60581	NaN	9.739275	-0.108178	0.491103	0.012954	-0.003112	0.001865	-26.756536	-86.849578	176.194111
60582	NaN	9.691809	-0.143316	0.560560	0.006991	-0.004679	0.005002	-26.889172	-86.850460	176.331609
60583	NaN	9.725307	-0.187278	0.535751	0.001305	-0.004548	0.012389	-27.085104	-86.849322	176.529367
60584	NaN	9.750349	-0.256778	0.544037	-0.001453	-0.001260	0.012479	-27.275135	-86.846448	176.719556
60585	NaN	9.708724	-0.252601	0.500968	-0.006413	-0.008493	0.015959	-27.526952	-86.846297	176.968855
60586	NaN	9.739359	-0.269270	0.496076	-0.000393	-0.010513	0.008686	-27.726301	-86.849032	177.169268
60587	NaN	9.725544	-0.252387	0.468862	-0.005464	-0.011785	0.010573	-27.944285	-86.851886	177.385226
60588	NaN	9.759035	-0.296583	0.443026	-0.013461	-0.017426	0.009894	-28.196687	-86.857748	177.630666
60589	NaN	9.742315	-0.300088	0.471398	-0.018866	-0.016806	0.011668	-28.458409	-86.862735	177.882737
60590	NaN	9.709061	-0.318245	0.429999	-0.019479	-0.016613	0.007303	-28.687973	-86.868750	178.102197
60591	NaN	9.700684	-0.343955	0.461559	-0.019003	-0.010264	0.002280	-28.832068	-86.872934	178.236383
60592	NaN	9.714588	-0.362074	0.486494	-0.012067	-0.012573	0.001549	-28.985228	-86.878423	178.383863
60593	NaN	9.684051	-0.346527	0.489128	-0.014744	-0.014661	-0.004564	-29.087254	-86.886678	178.478361
60594	NaN	9.692485	-0.369007	0.490254	-0.009257	-0.019443	-0.002683	-29.237183	-86.896798	178.623609
60595	NaN	9.678715	-0.350924	0.462319	-0.003880	-0.018268	-0.002391	-29.373026	-86.906222	178.758205
60596	NaN	9.695474	-0.288076	0.494487	-0.005636	-0.020643	-0.001959	-29.534737	-86.916688	178.917237
60597	NaN	9.709496	-0.257816	0.483025	-0.012014	-0.016151	-0.002589	-29.664014	-86.925075	179.040588
60598	NaN	9.731849	-0.250481	0.474406	-0.017641	-0.019599	0.000664	-29.853885	-86.934191	179.221568
60599	NaN	9.751430	-0.275926	0.422197	-0.014156	-0.013053	0.001869	-30.010758	-86.939727	179.371324
60600	NaN	9.765404	-0.293849	0.446432	-0.010681	-0.023696	-0.002143	-30.195130	-86.951636	179.550658
60601	NaN	9.773845	-0.316365	0.447262	-0.003325	-0.016078	-0.003760	-30.311353	-86.960249	179.665918
60602	NaN	9.701603	-0.294845	0.407160	0.001522	-0.018876	-0.004177	-30.445138	-86.970321	179.801474
60603	NaN	9.743423	-0.300294	0.447777	0.017741	-0.019522	0.000347	-30.608102	-86.979410	179.975624
60604	NaN	9.737918	-0.257425	0.387136	0.018890	-0.015743	0.005415	-30.805615	-86.985101	-179.815268
60605	NaN	9.743540	-0.252988	0.408883	0.024601	-0.016455	0.005815	-31.000480	-86.991012	-179.605238
60606	NaN	9.757511	-0.271386	0.433449	0.029088	-0.015571	0.007352	-31.210563	-86.995968	-179.377662
60607	NaN	9.754785	-0.244411	0.452672	0.032019	-0.011204	0.009916	-31.411067	-86.998009	-179.157731
60608	NaN	9.699128	-0.269790	0.418930	0.024527	-0.011071	0.012020	-31.643279	-86.999275	-178.910443
60609	NaN	9.701981	-0.238254	0.461579	0.022438	-0.011556	0.012341	-31.874352	-87.000666	-178.665399
60610	NaN	9.754851	-0.247538	0.449537	0.022438	-0.011553	0.012340	-32.114269	-87.001975	-178.411739
60611	NaN	9.699161	-0.273277	0.415887	0.017013	-0.009140	0.016191	-32.370310	-87.000910	-178.144806
60612	NaN	9.729741	-0.290470	0.410807	0.020388	-0.012609	0.020456	-32.692284	-87.000067	-177.809532
60613	NaN	9.721385	-0.317547	0.442974	0.010367	-0.005128	0.021180	-32.973615	-86.995376	-177.521086
60614	NaN	9.687869	-0.336764	0.403007	0.009144	-0.003531	0.022318	-33.262524	-86.989424	-177.225697
60615	NaN	9.721123	-0.334091	0.342356	0.021145	-0.004571	0.019677	-33.518779	-86.984794	-176.956175
60616	NaN	9.718362	-0.308441	0.362413	0.025054	-0.004067	0.024643	-33.820998	-86.978244	-176.638885
60617	NaN	9.749027	-0.313939	0.458101	0.011499	0.000464	0.028308	-34.127713	-86.968315	-176.324363
60618	NaN	9.696128	-0.308174	0.468878	0.009784	-0.005495	0.024610	-34.444445	-86.962226	-176.000425
60619	NaN	9.696100	-0.310698	0.467797	-0.005606	-0.016932	0.027652	-34.858427	-86.960513	-175.588295
60620	NaN	9.732345	-0.275956	0.449453	-0.014026	-0.016517	0.023218	-35.242582	-86.959874	-175.211420
60621	NaN	9.737978	-0.273418	0.471030	-0.022716	-0.016571	0.024398	-35.634760	-86.958775	-174.830942
60622	NaN	9.774250	-0.238265	0.452813	-0.028800	-0.013400	0.016096	-35.945078	-86.958798	-174.536180
60623	NaN	9.776846	-0.315152	0.466720	-0.040802	-0.015362	0.006811	-36.186464	-86.962850	-174.317084
60624	NaN	9.746012	-0.360400	0.404952	-0.040185	-0.018561	-0.000758	-36.390280	-86.970819	-174.135200
60625	NaN	9.748711	-0.388316	0.382752	-0.031535	-0.014916	0.002194	-36.584720	-86.976153	-173.957801
60626	NaN	9.759670	-0.438908	0.363648	-0.030399	-0.012355	-0.002603	-36.727715	-86.981850	-173.831471
60627	NaN	9.748766	-0.436175	0.415606	-0.017758	-0.015391	-0.002960	-36.873723	-86.989120	-173.694668
60628	NaN	9.698718	-0.407281	0.369120	-0.001930	-0.011805	-0.004298	-36.983669	-86.995114	-173.585081
60629	NaN	9.718422	-0.371724	0.381500	0.005247	-0.011854	-0.008590	-37.045218	-87.002680	-173.519656
60630	NaN	9.710214	-0.348166	0.377583	0.013359	-0.012183	-0.006343	-37.131756	-87.009520	-173.424399
60631	NaN	9.743852	-0.330463	0.416071	0.013028	-0.010297	-0.006455	-37.197884	-87.015627	-173.349926
60632	NaN	9.785807	-0.287479	0.421696	0.014805	-0.009717	-0.008959	-37.246275	-87.022269	-173.292618
60633	NaN	9.757931	-0.346220	0.440754	0.005303	0.000513	-0.017375	-37.149266	-87.027224	-173.385936
60634	NaN	9.771965	-0.314509	0.430713	-0.008974	-0.006558	-0.017061	-37.117121	-87.035198	-173.422377
60635	NaN	9.732803	-0.382918	0.403166	-0.021303	-0.003616	-0.014521	-37.087565	-87.041044	-173.463414
60636	NaN	9.715900	-0.444202	0.368795	-0.019214	-0.003129	-0.014846	-37.058265	-87.046671	-173.502616
60637	NaN	9.679775	-0.432097	0.349145	-0.005352	-0.007755	-0.016349	-37.030776	-87.055039	-173.532431
60638	NaN	9.699488	-0.395259	0.361899	0.001511	-0.007703	-0.022825	-36.949149	-87.065524	-173.612525
60639	NaN	9.696965	-0.365339	0.381377	0.012396	-0.013101	-0.022753	-36.889541	-87.078541	-173.664319
60640	NaN	9.738932	-0.320825	0.386630	0.022617	-0.014726	-0.022903	-36.840940	-87.092244	-173.698874
60641	NaN	9.725412	-0.240507	0.423518	0.027088	-0.012053	-0.019305	-36.796100	-87.103592	-173.727451
60642	NaN	9.795235	-0.184371	0.445010	0.030781	-0.015613	-0.012868	-36.840831	-87.114270	-173.664012
60643	NaN	9.759079	-0.172439	0.424652	0.012426	-0.011876	-0.012891	-36.861534	-87.123334	-173.635374
60644	NaN	9.720251	-0.132721	0.424838	-0.002268	-0.012922	-0.016337	-36.875661	-87.134007	-173.622332
60645	NaN	9.731329	-0.181645	0.405944	-0.017869	-0.012471	-0.016460	-36.885383	-87.144569	-173.622068
60646	NaN	9.758971	-0.228287	0.356757	-0.031936	-0.013704	-0.015544	-36.928045	-87.155306	-173.597066
60647	NaN	9.761868	-0.302668	0.370569	-0.037888	-0.015255	-0.012388	-37.006490	-87.165741	-173.539479
60648	NaN	9.750739	-0.359596	0.358365	-0.042104	-0.012646	-0.007598	-37.122330	-87.173283	-173.447775
60649	NaN	9.773047	-0.351303	0.350124	-0.034693	-0.010403	-0.015445	-37.137528	-87.182550	-173.451680
60650	NaN	9.795522	-0.390618	0.378110	-0.018023	-0.002928	-0.013911	-37.112331	-87.187802	-173.486781
60651	NaN	9.784039	-0.350965	0.295399	-0.003270	-0.007246	-0.016680	-37.075640	-87.196053	-173.524612
60652	NaN	9.745360	-0.358958	0.332224	0.016394	-0.000780	-0.018795	-36.968511	-87.201991	-173.621725
60653	NaN	9.756810	-0.347228	0.378571	0.023327	-0.003082	-0.019554	-36.859529	-87.209317	-173.716674
60654	NaN	9.734452	-0.304569	0.349752	0.019369	0.000005	-0.020376	-36.731360	-87.215429	-173.833344
60655	NaN	9.679025	-0.266637	0.381252	0.014344	-0.004835	-0.022612	-36.609803	-87.224588	-173.946035
60656	NaN	9.709705	-0.279797	0.376494	0.005676	-0.006690	-0.023489	-36.504584	-87.234776	-174.046547
60657	NaN	9.709798	-0.277704	0.375631	-0.004115	-0.011113	-0.019567	-36.465637	-87.245771	-174.087120
60658	NaN	9.765691	-0.251347	0.406958	-0.008292	-0.012089	-0.018914	-36.449544	-87.256915	-174.107244
60659	NaN	9.723794	-0.244040	0.363655	-0.014025	-0.009593	-0.017228	-36.427488	-87.266413	-174.136589
60660	NaN	9.707371	-0.244698	0.392686	-0.018161	-0.014139	-0.020718	-36.413858	-87.279107	-174.159674
60661	NaN	9.752185	-0.275839	0.413192	-0.026063	-0.009760	-0.024430	-36.329344	-87.291127	-174.258453
60662	NaN	9.751712	-0.286108	0.311930	-0.027399	-0.016383	-0.018162	-36.361129	-87.303979	-174.241184
60663	NaN	9.793481	-0.242116	0.316963	-0.033469	-0.012003	-0.016583	-36.373198	-87.314367	-174.247519
60664	NaN	9.743450	-0.260458	0.306868	-0.030892	-0.003981	-0.012057	-36.377513	-87.319468	-174.260843
60665	NaN	9.749202	-0.254290	0.329550	-0.031188	-0.005660	-0.016312	-36.344810	-87.326838	-174.310690
60666	NaN	9.724097	-0.292862	0.291953	-0.023284	-0.010035	-0.012606	-36.382127	-87.334893	-174.285944
60667	NaN	9.768539	-0.276815	0.277232	-0.013518	-0.003820	-0.014455	-36.344026	-87.340783	-174.331060
60668	NaN	9.719125	-0.283185	0.367467	-0.000572	-0.005144	-0.010582	-36.354640	-87.345916	-174.320293
60669	NaN	9.732913	-0.252102	0.357537	-0.001266	0.000403	-0.008724	-36.335444	-87.347910	-174.339456
60670	NaN	9.769265	-0.261795	0.376428	-0.007529	-0.001066	-0.007745	-36.348063	-87.350144	-174.329308
60671	NaN	9.741008	-0.225096	0.324452	-0.008162	-0.000863	-0.012107	-36.308296	-87.353870	-174.373019
60672	NaN	9.771670	-0.239170	0.320080	-0.014193	-0.000052	-0.014671	-36.247613	-87.358038	-174.441440
60673	NaN	9.758387	-0.315813	0.365203	-0.018664	-0.002710	-0.018274	-36.165237	-87.364702	-174.533828
60674	NaN	9.736058	-0.381853	0.307608	-0.011452	-0.001543	-0.012710	-36.134840	-87.368856	-174.569337
60675	NaN	9.719634	-0.383270	0.337452	-0.003860	-0.005821	-0.011186	-36.137794	-87.374559	-174.567814
60676	NaN	9.719684	-0.382148	0.337267	0.004679	0.001982	-0.011885	-36.079410	-87.376809	-174.622387
60677	NaN	9.716531	-0.305254	0.322351	0.013704	0.000180	-0.012976	-36.009805	-87.380336	-174.683424
60678	NaN	9.727524	-0.246214	0.333279	0.014906	0.000375	-0.012049	-35.954981	-87.383395	-174.729026
60679	NaN	9.754976	-0.184922	0.313974	0.008939	0.000582	-0.006815	-35.947437	-87.384658	-174.730670
60680	NaN	9.716338	-0.194027	0.351079	0.006894	-0.003469	-0.010636	-35.941407	-87.389029	-174.731853
60681	NaN	9.685712	-0.177856	0.355323	0.006514	0.001974	-0.006596	-35.927199	-87.389572	-174.741559
60682	NaN	9.724825	-0.215428	0.354030	0.008896	0.004144	-0.002668	-35.943358	-87.387737	-174.719656
60683	NaN	9.736061	-0.265610	0.336459	-0.003627	0.001196	-0.000709	-36.000540	-87.386661	-174.663714
60684	NaN	9.722485	-0.235717	0.410900	-0.006750	0.008132	0.001368	-36.036254	-87.381612	-174.631172
60685	NaN	9.744485	-0.288358	0.340443	-0.009809	0.009728	-0.002776	-36.013047	-87.377276	-174.659249
60686	NaN	9.777889	-0.330968	0.316545	-0.001122	0.009811	-0.003973	-35.980899	-87.373295	-174.692548
60687	NaN	9.827933	-0.310564	0.326599	0.007609	0.006334	-0.009318	-35.906650	-87.372732	-174.761730
60688	NaN	9.755696	-0.337034	0.325371	0.002376	0.014560	-0.004842	-35.828384	-87.366818	-174.838795
60689	NaN	9.744860	-0.334206	0.380040	0.007566	0.009896	-0.005171	-35.770338	-87.363201	-174.891782
60690	NaN	9.688673	-0.310253	0.312769	0.012417	0.007115	-0.005607	-35.733565	-87.360966	-174.920643
60691	NaN	9.722205	-0.292579	0.352954	0.018447	0.006311	-0.003042	-35.716981	-87.358302	-174.925884
60692	NaN	9.738768	-0.229650	0.387832	0.015999	0.009484	-0.000751	-35.709091	-87.353312	-174.923051
60693	NaN	9.713308	-0.161312	0.380639	0.015999	0.009485	-0.000751	-35.694042	-87.348405	-174.928159
60694	NaN	9.721753	-0.183894	0.384181	0.013048	0.006915	-0.001245	-35.700952	-87.344787	-174.912595
60695	NaN	9.768894	-0.196535	0.350445	0.000733	0.008024	-0.000761	-35.705093	-87.340563	-174.907247
60696	NaN	9.741454	-0.256606	0.370714	-0.010125	0.009827	-0.004967	-35.668335	-87.336873	-174.949525
60697	NaN	9.780565	-0.294265	0.370097	-0.018813	0.009741	-0.003773	-35.641292	-87.332855	-174.986607
60698	NaN	9.744660	-0.331679	0.387316	-0.015056	0.002601	-0.001483	-35.693405	-87.331373	-174.943040
60699	NaN	9.741796	-0.363885	0.344172	-0.005951	0.010815	-0.005617	-35.632961	-87.327472	-175.006182
60700	NaN	9.730494	-0.312956	0.362755	-0.004049	0.005463	-0.006545	-35.608554	-87.326339	-175.032696
60701	NaN	9.744197	-0.282201	0.353602	-0.002848	0.005658	-0.005617	-35.583334	-87.324837	-175.058796
60702	NaN	9.749844	-0.276858	0.377500	-0.000784	0.007932	-0.003869	-35.564653	-87.321633	-175.077051
60703	NaN	9.716317	-0.293895	0.338927	0.006970	0.011285	0.000339	-35.553148	-87.315523	-175.083790
60704	NaN	9.749342	-0.228784	0.343798	0.013339	0.008598	0.003016	-35.591558	-87.309759	-175.037980
60705	NaN	9.710153	-0.190963	0.346446	0.003319	0.014263	0.001699	-35.574490	-87.301808	-175.052382
60706	NaN	9.737941	-0.178721	0.363984	-0.000831	0.011497	0.000275	-35.572041	-87.295588	-175.055065
60707	NaN	9.735502	-0.259358	0.356883	-0.009181	0.009526	0.001574	-35.594372	-87.289886	-175.037195
60708	NaN	9.743932	-0.282282	0.360757	-0.012285	0.014685	0.001572	-35.588255	-87.281744	-175.049989
60709	NaN	9.707975	-0.320282	0.378542	-0.006465	0.009816	0.005613	-35.646396	-87.274559	-174.994710
60710	NaN	9.722022	-0.338585	0.405786	-0.002420	0.016751	0.003385	-35.638205	-87.264785	-175.001796
60711	NaN	9.707846	-0.321107	0.381136	-0.003491	0.010607	0.004035	-35.673321	-87.257757	-174.967862
60712	NaN	9.721913	-0.339229	0.407845	-0.003990	0.004863	0.001250	-35.727473	-87.254292	-174.915632
60713	NaN	9.713407	-0.316839	0.405665	-0.003701	0.006542	0.005506	-35.804899	-87.248658	-174.839460
60714	NaN	9.749288	-0.279604	0.389649	-0.008504	0.005763	0.001789	-35.862835	-87.244573	-174.785332
60715	NaN	9.729904	-0.314739	0.376780	-0.001693	0.009421	-0.000544	-35.860288	-87.239627	-174.788073
60716	NaN	9.766162	-0.325109	0.396731	-0.001693	0.009422	-0.000544	-35.863494	-87.234657	-174.786156
60717	NaN	9.737935	-0.289344	0.345792	-0.002031	0.011307	-0.000653	-35.847031	-87.228871	-174.803024
60718	NaN	9.699125	-0.299298	0.383967	0.003683	0.010602	-0.000261	-35.842896	-87.223159	-174.802060
60719	NaN	9.699099	-0.299066	0.384808	0.009448	0.006334	-0.004016	-35.822138	-87.220811	-174.816643
60720	NaN	9.726883	-0.286447	0.402149	0.009607	0.013966	-0.001341	-35.781358	-87.213932	-174.850025
60721	NaN	9.735309	-0.309041	0.406056	0.008197	0.009705	-0.000800	-35.768937	-87.208940	-174.856979
60722	NaN	9.698977	-0.298723	0.388134	0.008145	0.013271	0.003346	-35.779690	-87.200858	-174.840841
60723	NaN	9.748946	-0.279059	0.398506	0.008874	0.005936	-0.000581	-35.794775	-87.197544	-174.819866
60724	NaN	9.735195	-0.308943	0.408839	0.005822	0.007532	-0.004732	-35.767182	-87.194813	-174.843198
60725	NaN	9.765497	-0.275995	0.369766	0.007647	0.007525	0.000562	-35.782919	-87.190378	-174.822274
60726	NaN	9.729536	-0.313456	0.387208	0.007884	0.009809	-0.002983	-35.755867	-87.185973	-174.842913
60727	NaN	9.715446	-0.295121	0.362053	0.011224	0.006932	-0.006521	-35.706602	-87.184184	-174.885019
60728	NaN	9.729511	-0.312452	0.388650	0.010987	0.004649	-0.002977	-35.712808	-87.182178	-174.870514
60729	NaN	9.698817	-0.296923	0.393476	0.010622	0.008318	-0.001015	-35.706575	-87.177902	-174.869880
60730	NaN	9.712852	-0.314584	0.420440	0.012371	0.010697	-0.001448	-35.685563	-87.172659	-174.884662
60731	NaN	9.735022	-0.306906	0.414465	0.000420	0.008135	-0.002946	-35.668268	-87.169113	-174.900956
60732	NaN	9.757201	-0.299211	0.408321	-0.009469	0.007850	-0.002695	-35.668553	-87.165497	-174.903026
60733	NaN	9.760066	-0.326582	0.388457	-0.010330	0.005769	-0.003515	-35.668075	-87.163243	-174.908650
60734	NaN	9.715653	-0.341014	0.402787	-0.011842	0.005676	-0.006628	-35.646780	-87.162047	-174.937018
60735	NaN	9.723800	-0.315113	0.370261	-0.006989	0.002893	-0.007053	-35.630561	-87.162313	-174.956485
60736	NaN	9.726695	-0.342252	0.350061	-0.002190	0.003677	-0.003332	-35.648912	-87.160954	-174.939683
60737	NaN	9.687870	-0.351832	0.387606	0.008249	0.006145	-0.004944	-35.621886	-87.159002	-174.961229
60738	NaN	9.710066	-0.344056	0.381195	0.013726	0.003159	-0.001004	-35.657008	-87.157095	-174.918062
60739	NaN	9.707169	-0.315897	0.402141	0.019053	0.004947	-0.008518	-35.598357	-87.156893	-174.965074
60740	NaN	9.732056	-0.275168	0.439507	0.018477	0.004549	-0.005084	-35.581659	-87.155644	-174.969500
60741	NaN	9.762395	-0.241748	0.400261	0.008825	0.006546	-0.008381	-35.519471	-87.154647	-175.025922
60742	NaN	9.740188	-0.248249	0.407826	0.000712	0.006854	-0.010637	-35.446972	-87.154288	-175.099940
60743	NaN	9.748677	-0.269868	0.411216	-0.003775	0.005967	-0.012175	-35.360286	-87.154815	-175.188118
60744	NaN	9.720908	-0.281282	0.395328	-0.002813	0.003879	-0.007700	-35.334337	-87.154841	-175.217372
60745	NaN	9.723824	-0.308335	0.375283	0.004073	0.005160	-0.004301	-35.322574	-87.153130	-175.226033
60746	NaN	9.751586	-0.295464	0.392331	0.009995	0.008531	-0.005378	-35.281304	-87.150113	-175.259875
60747	NaN	9.770843	-0.259715	0.406915	0.012631	0.011211	-0.007064	-35.198593	-87.146483	-175.334662
60748	NaN	9.751552	-0.294049	0.394238	0.017825	0.006546	-0.007375	-35.147464	-87.145090	-175.375191
60749	NaN	9.765251	-0.263150	0.385302	0.022311	0.007438	-0.005837	-35.095926	-87.142817	-175.413214
60750	NaN	9.756734	-0.239739	0.383534	0.018005	0.012404	-0.006781	-35.010554	-87.138456	-175.487353
60751	NaN	9.770776	-0.256584	0.410505	0.013029	0.005761	-0.011098	-34.926130	-87.138692	-175.563627
60752	NaN	9.740068	-0.240369	0.415330	0.009684	0.008638	-0.007564	-34.866780	-87.136384	-175.617195
60753	NaN	9.737447	-0.272367	0.372311	0.004072	0.005163	-0.004303	-34.855312	-87.134669	-175.625560
60754	NaN	9.728932	-0.249390	0.370068	0.008868	0.005955	-0.000582	-34.874706	-87.131373	-175.602642
60755	NaN	9.715214	-0.279326	0.380354	0.007359	0.005858	-0.003695	-34.862528	-87.129132	-175.609834
60756	NaN	9.751454	-0.289367	0.400085	0.005582	0.005261	-0.001190	-34.886005	-87.126378	-175.584911
60757	NaN	9.737377	-0.271583	0.374704	0.003124	0.008436	0.001090	-34.904188	-87.121357	-175.564132
60758	NaN	9.706981	-0.304447	0.415297	0.005862	0.006947	0.003063	-34.956513	-87.116309	-175.506523
60759	NaN	9.743197	-0.314744	0.435288	0.005790	0.009332	-0.002668	-34.932173	-87.112100	-175.526793
60760	NaN	9.743154	-0.314485	0.436434	0.000595	0.013997	-0.002362	-34.886949	-87.105584	-175.572279
60761	NaN	9.709831	-0.331509	0.397925	0.003393	0.008937	-0.004529	-34.849429	-87.102169	-175.607120
60762	NaN	9.701306	-0.308469	0.395956	0.001615	0.008340	-0.002025	-34.848153	-87.098198	-175.607902
60763	NaN	9.706821	-0.303127	0.419983	0.004622	0.007350	-0.005669	-34.809728	-87.095901	-175.642945
60764	NaN	9.718272	-0.353081	0.403190	0.005790	0.009335	-0.002668	-34.791616	-87.091717	-175.659760
60765	NaN	9.726417	-0.327585	0.371168	0.005790	0.009335	-0.002668	-34.767665	-87.087503	-175.679640
60766	NaN	9.701211	-0.307060	0.399363	0.010305	0.008444	-0.003198	-34.748631	-87.083812	-175.691269
60767	NaN	9.737433	-0.316719	0.419452	0.010575	0.008943	-0.008817	-34.667765	-87.081788	-175.765393
60768	NaN	9.731894	-0.320892	0.397162	0.016257	0.010038	-0.006346	-34.604375	-87.078411	-175.819724
60769	NaN	9.715198	-0.322535	0.428177	0.011804	0.007358	-0.009956	-34.522590	-87.077496	-175.894064
60770	NaN	9.742913	-0.309153	0.445526	0.013519	0.011530	-0.008322	-34.433438	-87.074010	-175.974462
60771	NaN	9.715176	-0.320864	0.429927	0.007390	0.004078	-0.005765	-34.413863	-87.073278	-175.989042
60772	NaN	9.728874	-0.289955	0.420698	0.011256	0.005175	-0.008591	-34.365641	-87.072893	-176.030204
60773	NaN	9.715172	-0.319472	0.431067	0.014818	0.007561	-0.003729	-34.338659	-87.069854	-176.047941
60774	NaN	9.720335	-0.266135	0.419180	0.013961	0.005476	-0.004546	-34.324103	-87.068023	-176.054026
60775	NaN	9.720339	-0.265583	0.419427	0.010500	-0.001081	-0.005745	-34.335542	-87.069724	-176.035768
60776	NaN	9.745059	-0.224859	0.456330	0.011016	0.002893	-0.005042	-34.334629	-87.069277	-176.030082
60777	NaN	9.734030	-0.234334	0.410350	0.005819	0.007554	-0.004743	-34.303531	-87.066569	-176.057103
60778	NaN	9.711812	-0.241437	0.417684	0.007151	0.001796	-0.002216	-34.337606	-87.065740	-176.019128
60779	NaN	9.742532	-0.256521	0.413896	0.001746	0.002386	-0.000436	-34.381167	-87.064084	-175.973728
60780	NaN	9.742524	-0.256409	0.414149	0.002635	0.002685	-0.001688	-34.415860	-87.062677	-175.938105
60781	NaN	9.725809	-0.258824	0.444594	0.000516	0.003973	0.000702	-34.460477	-87.059899	-175.892353
60782	NaN	9.728809	-0.286594	0.424500	0.000857	0.002087	0.000816	-34.523351	-87.057992	-175.830719
60783	NaN	9.736978	-0.261630	0.391759	0.004451	0.002687	0.003610	-34.600335	-87.054871	-175.750300
60784	NaN	9.692552	-0.276739	0.405594	0.005713	-0.000688	0.000403	-34.672207	-87.054347	-175.674944
60785	NaN	9.759173	-0.254548	0.384973	0.008418	-0.000386	0.004449	-34.773824	-87.052387	-175.567583
60786	NaN	9.736943	-0.262379	0.392122	0.009482	0.005773	0.003783	-34.834450	-87.047656	-175.499357
60787	NaN	9.734229	-0.282975	0.448696	0.005100	0.000703	0.005908	-34.943966	-87.044690	-175.385990
60788	NaN	9.703481	-0.268193	0.452929	0.002023	0.004076	0.003816	-35.018824	-87.040787	-175.309966
60789	NaN	9.723174	-0.293866	0.402753	-0.004239	0.002578	0.004779	-35.111077	-87.037296	-175.219242
60790	NaN	9.759371	-0.304620	0.422293	-0.008755	0.003467	0.005307	-35.208929	-87.033140	-175.124832
60791	NaN	9.723429	-0.342774	0.439152	-0.012040	0.002768	0.004696	-35.303232	-87.029572	-175.036530
60792	NaN	9.745618	-0.335759	0.432471	-0.016523	0.001870	0.003155	-35.395527	-87.026898	-174.953666
60793	NaN	9.703883	-0.330761	0.390019	-0.014404	0.000581	0.000765	-35.469472	-87.025643	-174.887106
60794	NaN	9.737614	-0.373689	0.365605	-0.010197	-0.000209	-0.001946	-35.527226	-87.025578	-174.834014
60795	NaN	9.743116	-0.368669	0.388863	-0.012316	0.001081	0.000444	-35.593806	-87.024189	-174.773631
60796	NaN	9.712387	-0.353550	0.392937	-0.003318	0.001089	0.001458	-35.668372	-87.022458	-174.702126
60797	NaN	9.743103	-0.368838	0.389020	0.009888	0.000307	-0.000237	-35.720991	-87.021650	-174.642982
60798	NaN	9.731580	-0.318315	0.406800	0.015810	0.003690	-0.001314	-35.744509	-87.019519	-174.607768
60799	NaN	9.714859	-0.320574	0.437257	0.018238	0.002303	-0.001521	-35.767972	-87.018209	-174.573030
60800	NaN	9.742258	-0.260147	0.418061	0.016458	0.001707	0.000983	-35.824116	-87.016303	-174.507575
60801	NaN	9.711527	-0.244739	0.422354	-0.000100	0.004171	-0.003666	-35.826893	-87.014842	-174.504072
60802	NaN	9.720034	-0.267221	0.425415	-0.001198	-0.000200	-0.000931	-35.886014	-87.014488	-174.446612
60803	NaN	9.764457	-0.252174	0.411855	-0.010878	0.003563	-0.002176	-35.912092	-87.012809	-174.425960
60804	NaN	9.753757	-0.309865	0.401595	-0.011219	0.005450	-0.002291	-35.930847	-87.010250	-174.413749
60805	NaN	9.778966	-0.330050	0.374884	-0.007625	0.006051	0.000503	-35.962764	-87.006514	-174.385384
60806	NaN	9.748517	-0.362752	0.415274	0.000175	0.005861	0.000587	-35.996128	-87.002706	-174.347994
60807	NaN	9.762199	-0.332526	0.406142	0.007668	0.005770	-0.001512	-36.003131	-86.999778	-174.335803
60808	NaN	9.728993	-0.349711	0.366950	0.013414	0.003293	-0.003175	-36.012409	-86.998501	-174.318255
60809	NaN	9.745152	-0.286543	0.401474	0.017215	0.007968	-0.001863	-35.996704	-86.994673	-174.323325
60810	NaN	9.758828	-0.256295	0.392491	0.011261	0.006372	0.001282	-36.026575	-86.990567	-174.289996
60811	NaN	9.742068	-0.258731	0.423339	0.002811	0.008547	-0.001102	-36.022101	-86.986214	-174.292084
60812	NaN	9.750552	-0.281224	0.426970	-0.004956	0.006947	-0.003256	-36.018647	-86.983268	-174.297650
60813	NaN	9.750526	-0.280966	0.427737	-0.004100	0.009035	-0.002440	-36.003284	-86.979139	-174.314608
60814	NaN	9.734340	-0.343680	0.394669	-0.004990	0.008737	-0.001188	-36.006717	-86.974772	-174.317211
60815	NaN	9.748305	-0.361252	0.421513	-0.000133	0.005961	-0.001598	-36.016092	-86.971784	-174.307121
60816	NaN	9.712365	-0.398538	0.438763	0.007909	0.008058	-0.005062	-35.981726	-86.968957	-174.337523
60817	NaN	9.748279	-0.360484	0.422774	0.011327	0.002797	-0.002852	-35.993675	-86.967859	-174.318280
60818	NaN	9.748281	-0.360032	0.423120	0.013107	0.003396	-0.005356	-35.984524	-86.967287	-174.320170
60819	NaN	9.731258	-0.313945	0.417749	0.007087	0.004182	-0.007947	-35.945512	-86.967262	-174.354392
60820	NaN	9.714227	-0.267704	0.412543	0.010920	0.007070	-0.008704	-35.882752	-86.966132	-174.411485
60821	NaN	9.741908	-0.254458	0.429560	0.009481	0.004585	-0.006084	-35.856154	-86.965291	-174.431901
60822	NaN	9.744954	-0.281595	0.409679	0.002878	0.004972	-0.005240	-35.843706	-86.963932	-174.442008
60823	NaN	9.700517	-0.295858	0.423921	0.001032	0.006756	-0.008472	-35.787342	-86.962882	-174.497080
60824	NaN	9.741880	-0.252731	0.431212	-0.002221	0.005461	-0.001280	-35.808212	-86.959989	-174.477251
60825	NaN	9.711125	-0.237633	0.435453	-0.003012	0.000990	0.003640	-35.896526	-86.957554	-174.389762
60826	NaN	9.705648	-0.242909	0.412378	-0.003660	0.002975	0.001340	-35.956706	-86.954921	-174.331312
60827	NaN	9.744602	-0.233310	0.375693	0.001469	0.001892	0.005184	-36.049906	-86.951535	-174.236359
60828	NaN	9.733283	-0.231270	0.429359	-0.003388	0.004667	0.005591	-36.136452	-86.946696	-174.152071
60829	NaN	9.730841	-0.264637	0.386229	-0.006707	0.005756	0.007047	-36.225510	-86.940878	-174.065955
60830	NaN	9.764208	-0.295839	0.462309	-0.016288	0.005344	0.009461	-36.348679	-86.934368	-173.951173
60831	NaN	9.700278	-0.299165	0.427060	-0.019607	0.006435	0.010916	-36.473289	-86.926903	-173.836856
60832	NaN	9.742528	-0.365814	0.405918	-0.020088	0.000671	0.008147	-36.615370	-86.922981	-173.706296
60833	NaN	9.770169	-0.354197	0.422568	-0.018683	0.004948	0.007596	-36.719532	-86.917307	-173.611924
60834	NaN	9.742446	-0.367446	0.406408	-0.013826	0.002172	0.007188	-36.839400	-86.912964	-173.498276
60835	NaN	9.725651	-0.370423	0.436714	-0.010264	0.003369	0.002182	-36.902171	-86.909857	-173.440524
60836	NaN	9.733880	-0.345487	0.404324	-0.011286	0.009034	0.001836	-36.928316	-86.904153	-173.417119
60837	NaN	9.686347	-0.332903	0.438991	-0.004001	0.004867	0.001225	-36.969620	-86.900687	-173.377272
60838	NaN	9.766955	-0.328450	0.445120	-0.006979	0.004069	0.002795	-37.036239	-86.897013	-173.315110
60839	NaN	9.703061	-0.331103	0.409703	-0.013277	0.004362	0.005819	-37.124538	-86.892185	-173.233520
60840	NaN	9.716980	-0.349426	0.436180	-0.016562	0.003665	0.005205	-37.217475	-86.887797	-173.148207
60841	NaN	9.711505	-0.354884	0.413029	-0.016186	-0.000012	0.003251	-37.313310	-86.885840	-173.060739
60842	NaN	9.730888	-0.367981	0.462613	-0.012692	0.004763	0.002384	-37.373578	-86.881934	-173.006306
60843	NaN	9.695343	-0.418122	0.379329	-0.012283	-0.000702	-0.001640	-37.430504	-86.881982	-172.955564
60844	NaN	9.723033	-0.405496	0.395729	-0.009304	0.000096	-0.003209	-37.472371	-86.882157	-172.918508
60845	NaN	9.728491	-0.400255	0.419135	-0.004272	0.003180	-0.003027	-37.488281	-86.880920	-172.904247
60846	NaN	9.714537	-0.382325	0.393233	-0.001538	0.001690	-0.001047	-37.535760	-86.879655	-172.859282
60847	NaN	9.761389	-0.334556	0.423564	0.003529	0.002985	-0.002934	-37.549186	-86.878473	-172.843032
60848	NaN	9.711493	-0.353962	0.414100	-0.004544	0.001492	-0.007280	-37.544121	-86.879450	-172.850398
60849	NaN	9.747465	-0.315702	0.397652	0.000620	-0.001388	-0.005504	-37.565823	-86.881151	-172.827529
60850	NaN	9.733755	-0.345417	0.407375	0.002332	0.002787	-0.003867	-37.577319	-86.880429	-172.818070
60851	NaN	9.697583	-0.334595	0.388342	0.002917	0.003187	-0.007302	-37.553404	-86.880681	-172.839569
60852	NaN	9.733547	-0.296171	0.372048	0.004489	-0.000290	-0.008324	-37.548808	-86.882804	-172.841407
60853	NaN	9.717026	-0.345845	0.438001	0.006542	0.001997	-0.006573	-37.536511	-86.883342	-172.849190
60854	NaN	9.730761	-0.315091	0.428337	0.004246	-0.002579	-0.004775	-37.573656	-86.885205	-172.806375
60855	NaN	9.714007	-0.317155	0.458183	0.005442	-0.002379	-0.003842	-37.612894	-86.886775	-172.763177
60856	NaN	9.691558	-0.276416	0.428908	0.008177	-0.003869	-0.001862	-37.680724	-86.888231	-172.688597
60857	NaN	9.772212	-0.271517	0.434261	0.006090	-0.004368	-0.001544	-37.751686	-86.889891	-172.613257
60858	NaN	9.758519	-0.301478	0.443684	-0.003591	-0.000598	-0.002798	-37.798712	-86.890224	-172.568008
60859	NaN	9.742444	-0.363825	0.409696	0.003257	0.001299	-0.007188	-37.787702	-86.891295	-172.576386
60860	NaN	9.753088	-0.305352	0.420827	0.008252	0.006174	-0.004938	-37.766930	-86.889359	-172.593978
60861	NaN	9.708630	-0.319858	0.435039	0.007361	0.005875	-0.003687	-37.753211	-86.887129	-172.602715
60862	NaN	9.730847	-0.311940	0.428688	-0.004579	0.003278	-0.005212	-37.756551	-86.886589	-172.603656
60863	NaN	9.733930	-0.339247	0.408398	-0.003590	-0.000599	-0.002799	-37.798274	-86.886979	-172.563154
60864	NaN	9.739376	-0.333980	0.431811	-0.002186	0.003678	-0.003347	-37.810542	-86.885538	-172.550064
60865	NaN	9.706270	-0.351149	0.392265	-0.006019	0.000790	-0.002595	-37.846363	-86.885226	-172.516865
60866	NaN	9.750739	-0.335885	0.378339	-0.007047	-0.007163	-0.004002	-37.927245	-86.888961	-172.439797
60867	NaN	9.747972	-0.355456	0.433966	-0.005022	-0.004273	-0.010054	-37.933316	-86.893561	-172.435821
60868	NaN	9.709470	-0.376999	0.370534	-0.002629	-0.003874	-0.008189	-37.954540	-86.897327	-172.417670
60869	NaN	9.698194	-0.373701	0.423328	-0.001055	-0.007350	-0.009211	-37.985471	-86.903019	-172.386521
60870	NaN	9.759462	-0.355327	0.379066	0.001888	-0.004762	-0.008711	-38.005293	-86.907361	-172.366826
60871	NaN	9.731411	-0.354523	0.462121	0.001546	-0.002873	-0.008826	-38.008864	-86.910895	-172.361585
60872	NaN	9.726008	-0.358497	0.438722	-0.002729	0.000305	-0.011853	-37.972205	-86.913972	-172.397355
60873	NaN	9.734290	-0.332059	0.405696	-0.004781	-0.001981	-0.013605	-37.933437	-86.918788	-172.438144
60874	NaN	9.729190	-0.383860	0.418236	-0.007282	0.002982	-0.009262	-37.903054	-86.919799	-172.473065
60875	NaN	9.698463	-0.367635	0.422466	-0.006698	0.003385	-0.012697	-37.837742	-86.921865	-172.541536
60876	NaN	9.720714	-0.358987	0.415795	-0.012617	-0.000004	-0.011628	-37.811837	-86.925068	-172.576121
60877	NaN	9.707090	-0.388093	0.425425	-0.010530	0.000497	-0.011947	-37.773748	-86.928173	-172.619529
60878	NaN	9.696261	-0.396736	0.378840	-0.007516	-0.000486	-0.015587	-37.713119	-86.932871	-172.681896
60879	NaN	9.727102	-0.410470	0.374396	-0.002518	-0.009227	-0.014402	-37.713109	-86.941241	-172.682573
60880	NaN	9.729518	-0.376357	0.417421	-0.000227	-0.004647	-0.016200	-37.670016	-86.948055	-172.723479
60881	NaN	9.724157	-0.379681	0.393716	0.008465	-0.004530	-0.017359	-37.607447	-86.955328	-172.780502
60882	NaN	9.734762	-0.319888	0.404158	0.005421	-0.002936	-0.021524	-37.503919	-86.963275	-172.880585
60883	NaN	9.768745	-0.360606	0.379455	0.009048	-0.004121	-0.020796	-37.408091	-86.971550	-172.970579
60884	NaN	9.743493	-0.338369	0.406553	0.012534	0.000660	-0.021662	-37.275154	-86.977849	-173.094944
60885	NaN	9.718227	-0.315973	0.433913	0.006513	0.001449	-0.024257	-37.113102	-86.984759	-173.252707
60886	NaN	9.679790	-0.336039	0.370923	0.002376	-0.001338	-0.025691	-36.962437	-86.993350	-173.401089
60887	NaN	9.693895	-0.351479	0.397088	0.009212	0.001752	-0.020208	-36.830757	-86.998685	-173.526886
60888	NaN	9.735646	-0.354418	0.439527	0.009976	-0.005592	-0.024120	-36.718152	-87.008664	-173.633894
60889	NaN	9.727140	-0.329373	0.436450	0.017940	0.000098	-0.023441	-36.562696	-87.015835	-173.778491
60890	NaN	9.737642	-0.269117	0.446935	0.007890	-0.006091	-0.023803	-36.454713	-87.025916	-173.881930
60891	NaN	9.751310	-0.236281	0.436776	-0.002068	-0.004021	-0.029312	-36.283886	-87.036946	-174.053394
60892	NaN	9.779946	-0.281126	0.388949	-0.009671	0.000235	-0.030885	-36.077129	-87.046521	-174.268180
60893	NaN	9.752424	-0.290740	0.372237	-0.014349	-0.004746	-0.030952	-35.900669	-87.058380	-174.452328
60894	NaN	9.756236	-0.363740	0.387209	-0.011380	-0.002765	-0.022646	-35.788134	-87.066422	-174.569383
60895	NaN	9.739043	-0.316315	0.381341	0.000555	-0.000140	-0.021123	-35.660200	-87.072807	-174.696389
60896	NaN	9.722360	-0.316811	0.411558	0.004380	0.002760	-0.021876	-35.507902	-87.077962	-174.842894
60897	NaN	9.735954	-0.284089	0.402188	0.003457	0.003075	-0.028433	-35.289175	-87.085235	-175.059143
60898	NaN	9.730594	-0.286205	0.379323	0.002803	0.005070	-0.030734	-35.039601	-87.092298	-175.309464
60899	NaN	9.708493	-0.290882	0.386530	0.010062	0.002714	-0.029277	-34.809344	-87.099926	-175.533467
60900	NaN	9.705321	-0.260515	0.407120	0.009827	0.000420	-0.025726	-34.630440	-87.107307	-175.703000
60901	NaN	9.738406	-0.240441	0.446633	0.003376	-0.005180	-0.023287	-34.508738	-87.116642	-175.822142
60902	NaN	9.722206	-0.253340	0.376570	-0.007247	0.000035	-0.021218	-34.383322	-87.122822	-175.952946
60903	NaN	9.727678	-0.246309	0.399864	-0.003965	0.000746	-0.020605	-34.251608	-87.128459	-176.086323
60904	NaN	9.716890	-0.254272	0.353364	-0.006359	0.000345	-0.022472	-34.110418	-87.134815	-176.230340
60905	NaN	9.731048	-0.269822	0.379687	-0.006749	0.004015	-0.020516	-33.959099	-87.138838	-176.384943
60906	NaN	9.717626	-0.298323	0.389589	-0.001265	0.001048	-0.016553	-33.864076	-87.142867	-176.477301
60907	NaN	9.712250	-0.301738	0.366574	0.003753	0.004154	-0.016373	-33.744669	-87.145472	-176.593924
60908	NaN	9.740514	-0.335459	0.419311	0.009428	0.005269	-0.013892	-33.641590	-87.146650	-176.689107
60909	NaN	9.741988	-0.253504	0.427617	0.015494	0.002715	-0.013367	-33.553071	-87.148969	-176.768070
60910	NaN	9.742005	-0.252194	0.427996	0.014255	0.004296	-0.012230	-33.471225	-87.150160	-176.842640
60911	NaN	9.753362	-0.253128	0.375113	0.013640	0.004509	-0.016603	-33.341038	-87.152628	-176.964385
60912	NaN	9.758789	-0.246651	0.398820	0.012170	0.003790	-0.011912	-33.262820	-87.153948	-177.036950
60913	NaN	9.750766	-0.270634	0.432369	0.004557	0.008028	-0.013487	-33.145397	-87.153730	-177.151125
60914	NaN	9.714489	-0.259429	0.413838	0.013555	0.008077	-0.012462	-33.035891	-87.153134	-177.253127
60915	NaN	9.717823	-0.285834	0.394022	0.008889	0.003081	-0.012527	-32.956326	-87.154973	-177.326913
60916	NaN	9.739996	-0.277007	0.387535	0.009196	0.002976	-0.010341	-32.901701	-87.156180	-177.377429
60917	NaN	9.717867	-0.283608	0.394555	0.008350	0.000887	-0.011159	-32.849276	-87.158641	-177.424350
60918	NaN	9.721224	-0.310251	0.374376	0.016108	0.002518	-0.008996	-32.809097	-87.159591	-177.454191
60919	NaN	9.692421	-0.261623	0.422100	0.020979	-0.000232	-0.009403	-32.773356	-87.162044	-177.477163
60920	NaN	9.736738	-0.245378	0.408638	0.024216	0.002267	-0.006720	-32.749909	-87.162370	-177.484224
60921	NaN	9.725375	-0.242302	0.462381	0.019653	0.004915	-0.004128	-32.733992	-87.160706	-177.488107
60922	NaN	9.733394	-0.216555	0.429664	0.013792	-0.000289	-0.005123	-32.749233	-87.161770	-177.462239
60923	NaN	9.742138	-0.238700	0.432688	0.008032	0.002153	-0.003465	-32.763679	-87.161231	-177.442389
60924	NaN	9.753502	-0.240925	0.379480	0.000889	0.000308	-0.001253	-32.818868	-87.160847	-177.385884
60925	NaN	9.742143	-0.238240	0.432828	-0.001503	-0.000099	-0.003120	-32.856216	-87.161284	-177.348575
60926	NaN	9.736760	-0.243030	0.409527	0.004213	-0.000758	-0.002709	-32.902151	-87.161865	-177.299426
60927	NaN	9.756879	-0.267887	0.358865	0.006111	-0.004328	-0.001542	-32.977071	-87.163840	-177.220131
60928	NaN	9.745532	-0.265521	0.411769	-0.001965	-0.004699	0.003993	-33.117103	-87.164315	-177.084442
60929	NaN	9.731411	-0.248177	0.385120	0.010938	-0.005294	0.000122	-33.211713	-87.166218	-176.982664
60930	NaN	9.786522	-0.222523	0.417495	0.008546	-0.005702	-0.001745	-33.294481	-87.168792	-176.891782
60931	NaN	9.700558	-0.233177	0.388164	0.009655	-0.001932	0.003327	-33.399668	-87.168059	-176.780149
60932	NaN	9.697208	-0.205900	0.408464	0.005092	0.000713	0.005919	-33.518093	-87.165114	-176.654876
60933	NaN	9.722679	-0.226404	0.381490	0.005630	0.002908	0.004549	-33.606164	-87.161663	-176.562690
60934	NaN	9.697173	-0.206848	0.408799	0.001811	-0.000004	0.005306	-33.726707	-87.159441	-176.445462
60935	NaN	9.678337	-0.243038	0.395451	0.002032	0.003459	0.011631	-33.880666	-87.153451	-176.289370
60936	NaN	9.753481	-0.243436	0.378424	-0.001676	0.007032	0.005157	-33.955867	-87.147743	-176.213113
60937	NaN	9.736683	-0.246801	0.409091	-0.007316	0.005288	0.010489	-34.091438	-87.141221	-176.080793
60938	NaN	9.776248	-0.285280	0.408644	-0.005538	0.005905	0.007983	-34.200474	-87.135178	-175.975217
60939	NaN	9.717782	-0.283771	0.396527	-0.008776	0.003406	0.005300	-34.298886	-87.131195	-175.880938
60940	NaN	9.731870	-0.301979	0.422979	-0.010554	0.002791	0.007806	-34.427179	-87.126706	-175.760569
60941	NaN	9.756633	-0.274968	0.360184	-0.008469	0.003303	0.007486	-34.546013	-87.122042	-175.645666
60942	NaN	9.735122	-0.331258	0.403295	-0.007623	0.005395	0.008302	-34.660756	-87.116107	-175.535753
60943	NaN	9.717639	-0.286700	0.397901	-0.006691	0.003920	0.004980	-34.750401	-87.111948	-175.449056
60944	NaN	9.720943	-0.314862	0.377806	-0.007537	0.001829	0.004163	-34.848548	-87.109028	-175.356012
60945	NaN	9.722983	-0.282602	0.421632	-0.003060	0.002748	0.005711	-34.950025	-87.105166	-175.255383
60946	NaN	9.698729	-0.323829	0.384946	-0.004182	0.000141	0.010519	-35.114646	-87.100975	-175.095922
60947	NaN	9.724987	-0.251555	0.465602	-0.003103	0.004531	0.007780	-35.222989	-87.095570	-174.988443
60948	NaN	9.745044	-0.277525	0.415378	-0.013179	0.000091	0.009492	-35.383955	-87.091661	-174.835731
60949	NaN	9.767173	-0.270800	0.408695	-0.009359	0.003000	0.008737	-35.513815	-87.086627	-174.710295
60950	NaN	9.717420	-0.292021	0.399376	-0.010904	0.004685	0.007687	-35.626269	-87.081081	-174.602039
60951	NaN	9.712637	-0.345837	0.412120	-0.009549	-0.001081	0.010222	-35.795649	-87.077419	-174.437140
60952	NaN	9.742833	-0.313954	0.372362	-0.013529	0.001982	0.009375	-35.942232	-87.072492	-174.295257
60953	NaN	9.751488	-0.337769	0.375444	-0.001833	0.002332	0.014455	-36.122062	-87.065776	-174.115466
60954	NaN	9.720573	-0.324069	0.379535	0.002380	0.001569	0.011748	-36.281494	-87.060300	-173.955724
60955	NaN	9.748093	-0.312465	0.396065	0.001533	-0.000521	0.010930	-36.445176	-87.056044	-173.790171
60956	NaN	9.708506	-0.275872	0.397077	0.005704	0.000498	0.010293	-36.597276	-87.051482	-173.635051
60957	NaN	9.691696	-0.279517	0.427255	0.002380	0.001570	0.011747	-36.752889	-87.045940	-173.477088
60958	NaN	9.708436	-0.278082	0.397229	0.000643	-0.000826	0.012182	-36.931372	-87.041315	-173.298305
60959	NaN	9.744651	-0.289272	0.416572	0.005120	0.000089	0.013731	-37.111634	-87.035717	-173.114087
60960	NaN	9.730530	-0.273258	0.390362	0.001562	-0.001135	0.018740	-37.347729	-87.028828	-172.874946
60961	NaN	9.722390	-0.299987	0.423300	-0.001791	0.000555	0.012384	-37.515488	-87.023419	-172.707211
60962	NaN	9.752622	-0.268648	0.383466	-0.009521	-0.001685	0.018030	-37.752872	-87.017008	-172.475790
60963	NaN	9.775318	-0.310329	0.412631	-0.003683	0.004129	0.011217	-37.886117	-87.010332	-172.343699
60964	NaN	9.806099	-0.326331	0.409497	-0.005381	0.011785	0.008566	-37.946802	-87.001122	-172.287374
60965	NaN	9.723309	-0.365033	0.361351	-0.001863	0.014793	0.005627	-37.958200	-86.991582	-172.276252
60966	NaN	9.764877	-0.370306	0.405199	0.000653	0.009845	0.001286	-37.966633	-86.985820	-172.269128
60967	NaN	9.756706	-0.395567	0.439180	-0.009887	0.011490	-0.000794	-37.949611	-86.980035	-172.291069
60968	NaN	9.726982	-0.441167	0.379963	-0.013100	0.008380	0.004330	-38.004692	-86.973832	-172.245426
60969	NaN	9.700950	-0.373504	0.372031	-0.000195	0.007755	0.000469	-38.017784	-86.969288	-172.231650
60970	NaN	9.675473	-0.353348	0.399666	0.007148	0.001830	-0.002205	-38.045099	-86.968335	-172.199627
60971	NaN	9.721918	-0.305303	0.430278	0.010888	0.008304	0.001182	-38.054167	-86.963292	-172.183523
60972	NaN	9.694327	-0.317877	0.414481	-0.001349	0.005769	-0.002535	-38.058646	-86.960690	-172.180448
60973	NaN	9.752720	-0.320055	0.427574	-0.007606	0.004244	-0.001582	-38.081776	-86.958454	-172.160874
60974	NaN	9.694306	-0.317537	0.415237	-0.008454	0.002154	-0.002400	-38.113832	-86.957485	-172.135939
60975	NaN	9.747324	-0.324830	0.404946	-0.008844	0.005828	-0.000447	-38.136696	-86.954133	-172.117341
60976	NaN	9.733796	-0.354828	0.415081	-0.016018	0.004616	-0.006052	-38.126891	-86.953203	-172.133886
60977	NaN	9.733802	-0.354421	0.415287	-0.015018	0.000736	-0.003634	-38.160124	-86.953273	-172.108446
60978	NaN	9.750626	-0.351428	0.385171	-0.014975	-0.001048	-0.005704	-38.188511	-86.954826	-172.087155
60979	NaN	9.719783	-0.335975	0.389293	-0.006174	0.006748	-0.004201	-38.171873	-86.952388	-172.106582
60980	NaN	9.741961	-0.327805	0.383069	0.000474	0.004599	-0.007107	-38.145230	-86.951932	-172.134908
60981	NaN	9.752712	-0.316975	0.430055	-0.001917	0.004196	-0.008976	-38.102740	-86.952333	-172.177781
60982	NaN	9.713192	-0.278642	0.431404	0.003213	0.003115	-0.005122	-38.098995	-86.951855	-172.180602
60983	NaN	9.718547	-0.273299	0.455194	-0.002588	0.007353	-0.001398	-38.100090	-86.948152	-172.180214
60984	NaN	9.716465	-0.305672	0.412208	-0.005284	0.007055	-0.005453	-38.074353	-86.946017	-172.210988
60985	NaN	9.725122	-0.328182	0.415574	-0.010279	0.003327	0.002171	-38.136663	-86.942867	-172.153711
60986	NaN	9.714383	-0.338252	0.369246	-0.008455	0.002157	-0.002402	-38.171225	-86.941924	-172.129160
60987	NaN	9.711594	-0.358461	0.425679	-0.003673	0.002963	0.001337	-38.224966	-86.939229	-172.076674
60988	NaN	9.711594	-0.358382	0.425740	-0.006868	-0.001314	-0.003422	-38.272221	-86.940041	-172.031399
60989	NaN	9.750610	-0.347747	0.388900	-0.006325	0.000882	-0.004789	-38.289680	-86.940452	-172.016769
60990	NaN	9.747844	-0.367553	0.445166	-0.006326	0.000882	-0.004789	-38.308147	-86.940817	-172.001968
60991	NaN	9.720319	-0.379695	0.428653	-0.003001	-0.000192	-0.006242	-38.318625	-86.942226	-171.992421
60992	NaN	9.756024	-0.341236	0.412220	-0.003891	-0.000498	-0.004990	-38.344444	-86.943262	-171.967593
60993	NaN	9.737184	-0.375918	0.398566	-0.000024	0.000624	-0.007810	-38.334606	-86.944862	-171.976682
60994	NaN	9.733885	-0.347442	0.419211	0.005885	0.004038	-0.008875	-38.293520	-86.945395	-172.019957
60995	NaN	9.706362	-0.359178	0.403083	0.004689	0.003838	-0.009810	-38.242705	-86.946259	-172.067379
60996	NaN	9.706388	-0.358178	0.403347	0.009558	0.001078	-0.010212	-38.205773	-86.948491	-172.100426
60997	NaN	9.733956	-0.344583	0.419919	0.010212	-0.000916	-0.007910	-38.199376	-86.950819	-172.100197
60998	NaN	9.733425	-0.295829	0.384136	0.008668	0.000771	-0.008961	-38.177407	-86.952647	-172.114951
60999	NaN	9.725318	-0.320206	0.417202	0.011949	0.001483	-0.008343	-38.150362	-86.954048	-172.134404
61000	NaN	9.730690	-0.314281	0.440809	0.007969	0.004550	-0.009193	-38.100756	-86.954317	-172.179504
61001	NaN	9.734055	-0.340942	0.420590	0.006626	-0.001520	-0.010715	-38.076553	-86.957909	-172.199165
61002	NaN	9.756270	-0.332154	0.413810	-0.000634	0.000835	-0.012184	-38.030547	-86.960854	-172.243480
61003	NaN	9.737477	-0.366379	0.400280	0.001756	0.001240	-0.010314	-37.994069	-86.963057	-172.278226
61004	NaN	9.725462	-0.315062	0.417772	-0.001175	-0.001361	-0.010816	-37.975298	-86.966623	-172.300865
61005	NaN	9.720152	-0.319127	0.394223	0.004000	-0.004224	-0.009031	-37.984752	-86.970840	-172.288327
61006	NaN	9.747721	-0.305609	0.410304	0.001024	-0.005041	-0.007463	-38.017346	-86.974816	-172.254144
61007	NaN	9.716879	-0.290065	0.413713	-0.003192	-0.004278	-0.004759	-38.067900	-86.977549	-172.204574
61008	NaN	9.702843	-0.271809	0.387308	-0.004501	-0.000289	-0.009364	-38.057419	-86.980062	-172.217949
61009	NaN	9.725662	-0.311140	0.416055	-0.003452	-0.005955	-0.009016	-38.083061	-86.985054	-172.193478
61010	NaN	9.720346	-0.315444	0.392397	-0.008367	-0.001415	-0.006544	-38.104849	-86.987098	-172.177391
61011	NaN	9.756614	-0.324604	0.411703	-0.004502	-0.000288	-0.009364	-38.090120	-86.989657	-172.193948
61012	NaN	9.737219	-0.311161	0.362120	-0.004152	-0.002176	-0.009248	-38.090792	-86.992960	-172.193368
61013	NaN	9.729166	-0.335618	0.394782	0.000674	-0.003149	-0.007580	-38.107656	-86.996178	-172.175319
61014	NaN	9.739276	-0.276942	0.405267	0.003955	-0.002436	-0.006962	-38.125519	-86.998809	-172.153875
61015	NaN	9.717127	-0.284096	0.412031	0.008036	0.002150	-0.003455	-38.137925	-86.998179	-172.136067
61016	NaN	9.733958	-0.280937	0.381806	-0.003146	-0.006060	-0.006830	-38.185137	-87.002395	-172.090462
61017	NaN	9.717179	-0.283353	0.411323	-0.002274	-0.004597	0.001801	-38.294309	-87.002936	-171.981669
61018	NaN	9.748082	-0.298326	0.407072	-0.011927	-0.002650	-0.001536	-38.371689	-87.003689	-171.909211
61019	NaN	9.742734	-0.303296	0.383600	-0.011082	-0.000559	-0.000717	-38.436919	-87.003296	-171.849475
61020	NaN	9.742745	-0.303278	0.383329	-0.010382	-0.004335	-0.000486	-38.530486	-87.004456	-171.760903
61021	NaN	9.707163	-0.341286	0.399339	-0.012817	-0.002957	-0.000285	-38.616785	-87.004973	-171.681064
61022	NaN	9.723978	-0.338652	0.368941	-0.007101	-0.003622	0.000131	-38.711252	-87.005567	-171.589174
61023	NaN	9.746150	-0.331004	0.361871	-0.001735	-0.002399	0.000432	-38.793553	-87.005565	-171.506980
61024	NaN	9.738074	-0.356243	0.394867	0.000189	0.004086	-0.001482	-38.816623	-87.003309	-171.483579
61025	NaN	9.723982	-0.338455	0.369013	0.007146	0.001841	-0.002203	-38.842209	-87.002356	-171.453083
61026	NaN	9.751512	-0.325544	0.385497	0.003676	-0.002957	-0.001338	-38.909429	-87.003194	-171.382664
61027	NaN	9.730690	-0.252505	0.400219	0.007991	0.003931	-0.001383	-38.927096	-87.001011	-171.359613
61028	NaN	9.744770	-0.269901	0.426675	-0.000656	0.001995	-0.002302	-38.957305	-86.999921	-171.326819
61029	NaN	9.725330	-0.257076	0.377258	-0.006867	-0.001318	-0.003422	-39.002204	-87.000810	-171.285024
61030	NaN	9.737439	-0.307152	0.359636	-0.008997	-0.000047	-0.001034	-39.062086	-87.000266	-171.231235
61031	NaN	9.712562	-0.335050	0.422649	-0.017150	0.001996	-0.001249	-39.108490	-86.998892	-171.193832
61032	NaN	9.710575	-0.367755	0.378927	-0.014058	-0.001377	0.000851	-39.197139	-86.998200	-171.112235
61033	NaN	9.724670	-0.385277	0.404990	-0.015020	0.000728	-0.003638	-39.230787	-86.998250	-171.086383
61034	NaN	9.693794	-0.370106	0.408737	-0.005321	-0.003003	-0.002373	-39.297583	-86.999449	-171.022006
61035	NaN	9.707235	-0.339501	0.399097	-0.005483	0.002972	-0.003970	-39.307434	-86.998622	-171.014512
61036	NaN	9.734095	-0.278546	0.380056	-0.003937	0.001285	-0.002920	-39.340032	-86.998106	-170.983024
61037	NaN	9.756925	-0.318436	0.409122	-0.008413	0.000372	-0.004473	-39.365305	-86.998613	-170.961769
61038	NaN	9.765001	-0.292822	0.376320	-0.008458	0.002153	-0.002402	-39.396370	-86.997541	-170.935051
61039	NaN	9.728744	-0.282843	0.357152	-0.004872	0.002756	0.000404	-39.444216	-86.995217	-170.889160
61040	NaN	9.724039	-0.335794	0.369948	-0.006418	0.004444	-0.000646	-39.474570	-86.992504	-170.862555
61041	NaN	9.712572	-0.333651	0.423522	-0.003020	0.000961	0.003640	-39.560869	-86.989791	-170.777094
61042	NaN	9.738091	-0.353763	0.396692	0.002229	0.006378	0.000275	-39.580684	-86.985894	-170.756489
61043	NaN	9.729338	-0.331273	0.394210	-0.002131	0.001270	0.002388	-39.653567	-86.983494	-170.683952
61044	NaN	9.738045	-0.354171	0.397444	0.003730	0.006470	0.003397	-39.698096	-86.978377	-170.636594
61045	NaN	9.718578	-0.341883	0.348563	0.004080	0.004582	0.003512	-39.753544	-86.974098	-170.577952
61046	NaN	9.729254	-0.332092	0.395604	0.003775	0.004690	0.001325	-39.793116	-86.970483	-170.533755
61047	NaN	9.729218	-0.332345	0.396262	0.004574	0.008561	0.004217	-39.826299	-86.964190	-170.497125
61048	NaN	9.712364	-0.335151	0.427102	-0.000512	0.007865	-0.001711	-39.820789	-86.960345	-170.503279
61049	NaN	9.723816	-0.337475	0.374253	0.007757	0.001624	0.002174	-39.882988	-86.957852	-170.435766
61050	NaN	9.732524	-0.360268	0.377483	0.007055	0.005403	0.001944	-39.920696	-86.953776	-170.395006
61051	NaN	9.723758	-0.337988	0.375302	0.003684	0.008253	0.005468	-39.966350	-86.947153	-170.346399
61052	NaN	9.727104	-0.365999	0.355504	0.002885	0.004382	0.002576	-40.017427	-86.943288	-170.295041
61053	NaN	9.723703	-0.338515	0.376254	0.008647	0.001934	0.000923	-40.066178	-86.941109	-170.240484
61054	NaN	9.732409	-0.361246	0.379507	0.007055	0.005403	0.001944	-40.102758	-86.937002	-170.200028
61055	NaN	9.751161	-0.325961	0.393923	0.006050	0.009290	-0.000474	-40.090704	-86.932111	-170.207854
61056	NaN	9.751142	-0.325767	0.394561	-0.002201	0.003684	-0.003353	-40.102312	-86.930675	-170.196460
61057	NaN	9.737692	-0.355759	0.404615	-0.002551	0.005574	-0.003468	-40.096292	-86.928518	-170.203178
61058	NaN	9.723623	-0.337814	0.378923	-0.000115	0.004195	-0.003669	-40.099597	-86.927025	-170.200592
61059	NaN	9.723616	-0.337424	0.379456	0.009422	0.006440	-0.003996	-40.076476	-86.924683	-170.217566
61060	NaN	9.728937	-0.332070	0.403336	0.012162	0.004954	-0.002010	-40.080439	-86.922183	-170.204486
61061	NaN	9.706758	-0.339397	0.410626	0.013943	0.005574	-0.004513	-40.056498	-86.920411	-170.219687
61062	NaN	9.706753	-0.339080	0.411011	0.014058	0.001379	-0.000843	-40.093985	-86.919020	-170.171060
61063	NaN	9.728907	-0.331312	0.404686	0.010030	0.006228	0.000376	-40.107586	-86.915158	-170.150909
61064	NaN	9.751055	-0.323575	0.398488	0.009186	0.004137	-0.000444	-40.133068	-86.912499	-170.121107
61065	NaN	9.706698	-0.338918	0.412424	0.004664	0.005004	0.000072	-40.155558	-86.909284	-170.095133
61066	NaN	9.710091	-0.366480	0.392325	0.002976	0.000820	-0.001567	-40.196920	-86.908398	-170.048884
61067	NaN	9.746299	-0.376258	0.412260	0.011765	0.008630	-0.000057	-40.189404	-86.903642	-170.048886
61068	NaN	9.729416	-0.378858	0.443166	0.011765	0.008631	-0.000057	-40.185595	-86.898831	-170.044892
61069	NaN	9.737505	-0.353366	0.411150	0.012351	0.009047	-0.003495	-40.147167	-86.895163	-170.075515
61070	NaN	9.732167	-0.357962	0.388713	0.013593	0.007468	-0.004630	-40.114211	-86.892536	-170.099377
61071	NaN	9.742789	-0.347310	0.436073	0.006682	0.007929	-0.005987	-40.066663	-86.890275	-170.142386
61072	NaN	9.723413	-0.334228	0.387395	0.007876	0.008132	-0.005052	-40.027699	-86.887568	-170.177917
61073	NaN	9.737441	-0.351340	0.414390	-0.000816	0.007974	-0.003906	-40.001057	-86.884518	-170.204293
61074	NaN	9.706529	-0.336081	0.418674	-0.001849	0.001793	-0.003240	-40.027496	-86.883822	-170.176215
61075	NaN	9.751472	-0.368221	0.441441	-0.000465	0.006085	-0.003789	-40.014401	-86.881558	-170.188822
61076	NaN	9.740842	-0.378066	0.395360	0.000189	0.004089	-0.001485	-40.034643	-86.879303	-170.168861
61077	NaN	9.718670	-0.385345	0.402507	0.000473	0.004611	-0.007111	-40.004255	-86.878910	-170.198248
61078	NaN	9.719942	-0.304260	0.410801	0.003165	0.004911	-0.003052	-40.006790	-86.876875	-170.194946
61079	NaN	9.692464	-0.316579	0.394593	-0.000067	0.002412	-0.005743	-40.002584	-86.876943	-170.198422
61080	NaN	9.750857	-0.318307	0.407466	-0.001498	-0.000097	-0.003123	-40.039598	-86.877129	-170.162816
61081	NaN	9.750865	-0.318043	0.407487	-0.006019	0.000768	-0.002610	-40.075094	-86.876762	-170.129946
61082	NaN	9.714656	-0.307918	0.388116	-0.001849	0.001793	-0.003240	-40.096791	-86.876145	-170.108556
61083	NaN	9.734001	-0.320114	0.437868	-0.002200	0.003683	-0.003357	-40.104365	-86.874775	-170.101458
61084	NaN	9.749001	-0.349901	0.364465	-0.000654	0.001997	-0.002304	-40.131869	-86.873736	-170.074435
61085	NaN	9.728688	-0.324601	0.415242	-0.000466	0.006086	-0.003790	-40.118726	-86.871473	-170.087089
61086	NaN	9.713394	-0.387269	0.381612	0.000237	0.002306	-0.003556	-40.135800	-86.870707	-170.068286
61087	NaN	9.740870	-0.374102	0.398429	0.001128	0.002616	-0.004807	-40.137037	-86.870340	-170.065626
61088	NaN	9.740863	-0.373691	0.398994	0.010263	0.008544	-0.003178	-40.110842	-86.866708	-170.084829
61089	NaN	9.718675	-0.381241	0.406276	0.002928	0.002606	0.000504	-40.153596	-86.864384	-170.039557
61090	NaN	9.715226	-0.353169	0.427050	0.003450	0.005436	-0.008678	-40.107516	-86.864086	-170.079881
61091	NaN	9.706478	-0.330041	0.424628	0.002273	0.004603	-0.001801	-40.118745	-86.861738	-170.066555
61092	NaN	9.715213	-0.352377	0.427979	-0.000115	0.004197	-0.003673	-40.121800	-86.860147	-170.059963
61093	NaN	9.737377	-0.344353	0.421688	0.001079	0.004400	-0.002737	-40.127581	-86.858234	-170.052779
61094	NaN	9.737372	-0.344068	0.422057	0.003516	0.003023	-0.002935	-40.142865	-86.856907	-170.033122
61095	NaN	9.737382	-0.343628	0.422173	0.002722	-0.000853	-0.005823	-40.158420	-86.858435	-170.015206
61096	NaN	9.723972	-0.373553	0.431844	0.005062	0.001337	-0.001881	-40.189716	-86.857504	-169.980245
61097	NaN	9.715220	-0.350518	0.429351	0.003401	0.007220	-0.006608	-40.144288	-86.855786	-170.023014
61098	NaN	9.746141	-0.364983	0.425907	0.005413	-0.000553	-0.001763	-40.193499	-86.855667	-169.971583
61099	NaN	9.746149	-0.364668	0.425991	-0.000957	0.002103	-0.004493	-40.201872	-86.855407	-169.962972
61100	NaN	9.696537	-0.384627	0.416233	-0.000908	0.000320	-0.006562	-40.210579	-86.856645	-169.954407
61101	NaN	9.749648	-0.391230	0.405823	0.003565	0.001241	-0.005005	-40.218095	-86.856952	-169.944059
61102	NaN	9.718739	-0.375824	0.409768	0.005650	0.001755	-0.005320	-40.221381	-86.857113	-169.937336
61103	NaN	9.723413	-0.322339	0.397351	0.002371	0.001037	-0.005941	-40.223493	-86.857856	-169.933085
61104	NaN	9.723438	-0.321435	0.397473	0.001463	0.001358	-0.012504	-40.175369	-86.860904	-169.982793
61105	NaN	9.742166	-0.285065	0.411041	0.000687	-0.003149	-0.007578	-40.193610	-86.864085	-169.963355
61106	NaN	9.728782	-0.314888	0.420492	-0.003582	-0.000611	-0.002809	-40.239738	-86.864272	-169.915968
61107	NaN	9.745677	-0.311900	0.390461	-0.008407	0.000357	-0.004485	-40.264268	-86.864773	-169.895450
61108	NaN	9.723531	-0.319049	0.397131	-0.013183	-0.000457	-0.008230	-40.268978	-86.866962	-169.897110
61109	NaN	9.727033	-0.346062	0.376762	-0.013232	0.001327	-0.006160	-40.276345	-86.867659	-169.896550
61110	NaN	9.713652	-0.375760	0.386517	-0.010256	0.002153	-0.007727	-40.265639	-86.868480	-169.910293
61111	NaN	9.733010	-0.387412	0.436135	-0.008122	0.000885	-0.010112	-40.241472	-86.870833	-169.938381
61112	NaN	9.672862	-0.417225	0.379935	-0.005245	0.005276	-0.007537	-40.208981	-86.870225	-169.971564
61113	NaN	9.722482	-0.396060	0.390185	-0.000067	0.002417	-0.005744	-40.204753	-86.870291	-169.975061
61114	NaN	9.731274	-0.417919	0.393368	0.008323	0.002693	-0.009072	-40.170613	-86.871363	-170.001571
61115	NaN	9.710247	-0.344048	0.408454	0.012678	0.007815	-0.011188	-40.078988	-86.871074	-170.085283
61116	NaN	9.737695	-0.330057	0.425768	0.006121	0.006379	-0.012432	-39.993548	-86.871770	-170.164758
61117	NaN	9.773923	-0.338704	0.445854	0.001060	0.005038	-0.010552	-39.932375	-86.872453	-170.224639
61118	NaN	9.742997	-0.322862	0.449998	-0.008474	0.002774	-0.010231	-39.899754	-86.873949	-170.261042
61119	NaN	9.688168	-0.347474	0.416813	-0.012240	-0.001928	-0.011556	-39.884932	-86.878060	-170.282133
61120	NaN	9.743061	-0.321061	0.449907	-0.015317	0.000810	-0.005849	-39.904827	-86.878790	-170.269296
61121	NaN	9.754710	-0.322584	0.396600	-0.013787	-0.000238	-0.012611	-39.870955	-86.882546	-170.310354
61122	NaN	9.736104	-0.357111	0.382858	-0.010794	-0.000048	-0.006361	-39.888601	-86.883829	-170.296207
61123	NaN	9.750188	-0.374040	0.409059	-0.000908	0.000327	-0.006564	-39.892328	-86.885114	-170.292219
61124	NaN	9.758308	-0.347923	0.376305	0.007129	0.002498	-0.010009	-39.851948	-86.886652	-170.327428
61125	NaN	9.705934	-0.387774	0.422657	0.005751	-0.001798	-0.009460	-39.842758	-86.889935	-170.332555
61126	NaN	9.719331	-0.356454	0.413013	0.007482	0.000609	-0.009892	-39.814495	-86.892281	-170.356480
61127	NaN	9.718646	-0.307695	0.377337	0.013148	0.001736	-0.007396	-39.793880	-86.893252	-170.368806
61128	NaN	9.710563	-0.332310	0.410636	0.012743	0.005408	-0.005443	-39.767430	-86.891763	-170.383883
61129	NaN	9.720377	-0.273770	0.421807	0.008927	0.002486	-0.004697	-39.766050	-86.891413	-170.379367
61130	NaN	9.768951	-0.333207	0.424073	0.002371	0.001046	-0.005942	-39.770556	-86.892199	-170.376736
61131	NaN	9.727479	-0.328283	0.381145	0.009703	-0.003713	0.001284	-39.859095	-86.892384	-170.281723
61132	NaN	9.749647	-0.320293	0.374286	0.006003	-0.000124	-0.005202	-39.875054	-86.893226	-170.257817
61133	NaN	9.741575	-0.345118	0.407260	0.002673	0.000938	-0.003754	-39.895366	-86.893210	-170.235165
61134	NaN	9.719438	-0.352431	0.413944	0.000640	-0.001361	-0.005510	-39.918659	-86.894847	-170.212777
61135	NaN	9.750413	-0.366778	0.410252	0.002319	0.002828	-0.003872	-39.925416	-86.894043	-170.203904
61136	NaN	9.746886	-0.338814	0.430447	-0.002518	-0.006283	-0.002457	-40.008096	-86.896669	-170.121992
61137	NaN	9.723039	-0.379035	0.393200	0.000588	0.000421	-0.003440	-40.035678	-86.896761	-170.093256
61138	NaN	9.760264	-0.307680	0.420588	-0.006625	0.000978	-0.006990	-40.036624	-86.897831	-170.093821
61139	NaN	9.727599	-0.325090	0.380803	-0.010846	0.001726	-0.004291	-40.054999	-86.897664	-170.080866
61140	NaN	9.732870	-0.319580	0.404248	-0.009955	0.002040	-0.005542	-40.061921	-86.897854	-170.082099
61141	NaN	9.723099	-0.377084	0.393589	-0.015318	0.000803	-0.005851	-40.076522	-86.898667	-170.075491
61142	NaN	9.714296	-0.354016	0.390823	-0.012394	0.003414	-0.005346	-40.081461	-86.898103	-170.077153
61143	NaN	9.705490	-0.330928	0.388092	-0.013233	0.001321	-0.006166	-40.088796	-86.898804	-170.076624
61144	NaN	9.697429	-0.355682	0.421170	-0.013588	0.003212	-0.006283	-40.087027	-86.898715	-170.087359
61145	NaN	9.771007	-0.386989	0.360739	-0.009774	0.006137	-0.007029	-40.052620	-86.897623	-170.126648
61146	NaN	9.723160	-0.374008	0.395008	-0.001331	0.004644	-0.012427	-39.985590	-86.899016	-170.189445
61147	NaN	9.755843	-0.355152	0.435209	-0.004540	0.001500	-0.007306	-39.977471	-86.900059	-170.199404
61148	NaN	9.733709	-0.362140	0.442212	-0.005553	0.005392	-0.009728	-39.927151	-86.900142	-170.248517
61149	NaN	9.710823	-0.321088	0.413405	-0.006036	0.001408	-0.010432	-39.895110	-86.902373	-170.283292
61150	NaN	9.728518	-0.365141	0.419272	-0.011701	0.000282	-0.012931	-39.857796	-86.905980	-170.327101
61151	NaN	9.740201	-0.366411	0.366012	-0.014730	0.001231	-0.009295	-39.841087	-86.907870	-170.351510
61152	NaN	9.714504	-0.345651	0.393144	-0.009314	0.000691	-0.011056	-39.812289	-86.910577	-170.383658
61153	NaN	9.714535	-0.344791	0.393135	-0.004185	-0.000387	-0.007190	-39.817654	-86.912406	-170.379911
61154	NaN	9.737491	-0.383970	0.422313	-0.003061	0.002244	-0.011997	-39.767906	-86.914758	-170.429348
61155	NaN	9.723437	-0.365363	0.396280	0.001765	0.001278	-0.010319	-39.732926	-86.917000	-170.462588
61156	NaN	9.714621	-0.341840	0.393586	0.000519	0.002854	-0.009185	-39.699996	-86.918083	-170.495061
61157	NaN	9.736784	-0.333043	0.387232	0.003494	0.003687	-0.010749	-39.644044	-86.919417	-170.548313
61158	NaN	9.756149	-0.344451	0.436949	-0.001512	0.000558	-0.010944	-39.615550	-86.922055	-170.573435
61159	NaN	9.727981	-0.308548	0.384788	-0.007337	0.004767	-0.007227	-39.587299	-86.921623	-170.605160
61160	NaN	9.756181	-0.342758	0.437557	-0.014195	0.003437	-0.010665	-39.545946	-86.922969	-170.653700
61161	NaN	9.727203	-0.387193	0.377438	-0.012057	0.002178	-0.013051	-39.490047	-86.925802	-170.715821
61162	NaN	9.736899	-0.327872	0.388751	-0.004433	0.008033	-0.014537	-39.380445	-86.926487	-170.826020
61163	NaN	9.710367	-0.387420	0.408336	-0.005146	0.001731	-0.011686	-39.334661	-86.929012	-170.874045
61164	NaN	9.745812	-0.348079	0.392386	-0.002225	0.004344	-0.011177	-39.275970	-86.930046	-170.929393
61165	NaN	9.733341	-0.296862	0.410182	0.001766	0.001285	-0.010320	-39.240415	-86.932270	-170.963208
61166	NaN	9.720094	-0.326253	0.419965	0.001409	0.003176	-0.010436	-39.197241	-86.933682	-171.006749
61167	NaN	9.728155	-0.299870	0.387251	-0.003595	0.000045	-0.010632	-39.170455	-86.936567	-171.034860
61168	NaN	9.728185	-0.298912	0.387228	-0.004486	-0.000270	-0.009381	-39.159810	-86.939093	-171.046826
61169	NaN	9.764456	-0.307534	0.406780	-0.000621	0.000881	-0.012196	-39.112561	-86.942171	-171.093721
61170	NaN	9.711341	-0.299821	0.417202	0.000643	-0.001348	-0.005513	-39.139054	-86.943841	-171.068616
61171	NaN	9.731914	-0.323903	0.366795	0.000875	0.000972	-0.009069	-39.116304	-86.945748	-171.090121
61172	NaN	9.737163	-0.318182	0.390189	0.001479	0.000746	-0.004691	-39.133735	-86.946136	-171.071059
61173	NaN	9.737177	-0.317566	0.390352	-0.000374	0.002546	-0.007935	-39.110465	-86.946932	-171.093799
61174	NaN	9.709823	-0.329809	0.374113	0.004932	0.005566	-0.005550	-39.084669	-86.945587	-171.121188
61175	NaN	9.746062	-0.338785	0.394302	0.004272	0.007571	-0.007856	-39.025411	-86.944118	-171.177303
61176	NaN	9.738035	-0.363452	0.427876	0.001297	0.006735	-0.006292	-38.992254	-86.942393	-171.208033
61177	NaN	9.768181	-0.329747	0.388944	-0.002568	0.005582	-0.003477	-38.986921	-86.940228	-171.214071
61178	NaN	9.732795	-0.367480	0.405892	-0.003888	0.009590	-0.008089	-38.917189	-86.937853	-171.283542
61179	NaN	9.751272	-0.330959	0.420186	-0.005447	0.001848	-0.013878	-38.851938	-86.941094	-171.351235
61180	NaN	9.713520	-0.352710	0.357222	-0.001335	0.004667	-0.012431	-38.781390	-86.942525	-171.422501
61181	NaN	9.718758	-0.346525	0.381033	0.003135	0.005594	-0.010867	-38.711053	-86.943003	-171.490363
61182	NaN	9.732881	-0.363042	0.407819	0.005520	0.006001	-0.008990	-38.655519	-86.942586	-171.542695
61183	NaN	9.732891	-0.362091	0.408419	0.012130	0.005673	-0.009811	-38.588334	-86.942644	-171.602239
61184	NaN	9.773470	-0.317763	0.416053	0.007962	0.004632	-0.009186	-38.539080	-86.942907	-171.646518
61185	NaN	9.725521	-0.305068	0.450361	0.009989	0.006931	-0.007426	-38.484738	-86.941543	-171.694429
61186	NaN	9.742445	-0.301294	0.420992	0.007660	0.004747	-0.011376	-38.416570	-86.942515	-171.757561
61187	NaN	9.728345	-0.282515	0.395436	0.005449	0.008440	-0.014739	-38.293334	-86.943067	-171.877069
61188	NaN	9.711435	-0.284044	0.425966	0.008019	0.002858	-0.011259	-38.238072	-86.944910	-171.929899
