// General information: 
//  MT Manager version: 2022.2.0 
//  XDA version: 2022.2.0 build 7381 rev 124627 built on 2023-07-19
// Device information: 
//  DeviceId: 00B4BAF3
//  ProductCode: MTW2-3A7G6
//  Firmware Version: 4.6.0
//  Hardware Version: 2.0.0
// Device settings: 
//  Filter Profile: human(46.1)
//  Option Flags: Orientation Smoother Disabled, Position/Velocity Smoother Disabled, Continuous Zero Rotation Update Disabled, AHS Disabled, ICC Disabled
// Coordinate system: ENU
PacketCounter	SampleTimeFine	Acc_X	Acc_Y	Acc_Z	Gyr_X	Gyr_Y	Gyr_Z	Roll	Pitch	Yaw
09340	NaN	9.628922	1.403145	0.416475	0.011790	0.010785	0.002860	73.853890	-81.266761	-83.116000
09341	NaN	9.662471	1.410613	0.419973	0.013101	0.009740	0.002871	73.845643	-81.267532	-83.096689
09342	NaN	9.649773	1.382686	0.436884	0.012585	0.010961	0.001092	73.833985	-81.266974	-83.076534
09343	NaN	9.662408	1.410524	0.421729	0.016843	0.012737	-0.000805	73.820318	-81.265232	-83.054451
09344	NaN	9.657824	1.359221	0.404400	0.013733	0.007461	0.002069	73.820843	-81.265768	-83.045957
09345	NaN	9.618810	1.375295	0.402172	0.020142	0.011883	0.000034	73.811520	-81.264554	-83.021459
09346	NaN	9.642311	1.355676	0.387427	0.018948	0.011868	-0.002559	73.804067	-81.261839	-83.001868
09347	NaN	9.615948	1.375612	0.438285	0.023043	0.011189	-0.003489	73.802800	-81.258869	-82.984417
09348	NaN	9.652109	1.384010	0.407379	0.026503	0.012791	-0.003613	73.797485	-81.255426	-82.962611
09349	NaN	9.643854	1.432282	0.373138	0.020889	0.008545	-0.003345	73.803711	-81.252817	-82.953407
09350	NaN	9.632888	1.456006	0.442353	0.018266	0.010637	-0.003366	73.801137	-81.249855	-82.939150
09351	NaN	9.617410	1.452488	0.424492	0.013211	0.008687	0.000298	73.798975	-81.249334	-82.928900
09352	NaN	9.635509	1.456597	0.408997	0.013802	0.002889	-0.002122	73.820249	-81.248295	-82.941358
09353	NaN	9.635449	1.456858	0.409486	0.009396	0.010761	-0.002320	73.811330	-81.246033	-82.925618
09354	NaN	9.646283	1.409375	0.410834	0.003665	0.007575	0.000527	73.807296	-81.245703	-82.918347
09355	NaN	9.635375	1.432587	0.479900	-0.002742	0.003153	0.002559	73.813563	-81.247293	-82.923121
09356	NaN	9.612740	1.401365	0.409088	0.000204	0.005974	0.000653	73.813139	-81.247287	-82.921508
09357	NaN	9.636316	1.381392	0.394140	0.002868	0.007402	0.002296	73.807778	-81.248063	-82.910400
09358	NaN	9.602769	1.373519	0.392040	0.002192	0.006165	0.001481	73.806949	-81.248483	-82.907225
09359	NaN	9.640828	1.432478	0.413264	0.006287	0.005485	0.000553	73.811909	-81.248573	-82.906399
09360	NaN	9.589108	1.420900	0.426784	0.001635	0.003866	-0.001918	73.822505	-81.247490	-82.915106
09361	NaN	9.622664	1.428488	0.429670	0.000394	-0.000156	0.004364	73.840740	-81.250576	-82.927130
09362	NaN	9.625451	1.428383	0.395347	0.003340	0.002665	0.002459	73.852076	-81.252093	-82.935597
09363	NaN	9.656314	1.435422	0.432633	0.000273	0.000907	0.006948	73.863397	-81.256369	-82.941042
09364	NaN	9.625591	1.427394	0.395524	0.000394	-0.000156	0.004365	73.881178	-81.259382	-82.957739
09365	NaN	9.628347	1.402965	0.430147	0.001705	-0.001201	0.004377	73.903667	-81.262608	-82.974540
09366	NaN	9.646551	1.406513	0.414332	0.002543	0.002491	0.004228	73.913364	-81.265124	-82.981810
09367	NaN	9.636630	1.378613	0.396199	0.001867	0.001254	0.003412	73.928250	-81.267528	-82.994641
09368	NaN	9.639402	1.378643	0.361760	0.008070	-0.000298	0.000729	73.954733	-81.268560	-83.015691
09369	NaN	9.644886	1.354543	0.361842	0.006990	-0.001864	0.006047	73.980703	-81.272836	-83.036128
09370	NaN	9.646735	1.405290	0.414214	0.003340	0.002665	0.002460	73.992083	-81.274349	-83.044640
09371	NaN	9.670319	1.385336	0.398877	0.002150	0.002647	-0.000137	74.005673	-81.274572	-83.056697
09372	NaN	9.642170	1.353988	0.396739	-0.000351	0.003674	-0.002747	74.016674	-81.273058	-83.066964
09373	NaN	9.631269	1.401727	0.396565	-0.000472	0.004738	-0.000163	74.021087	-81.272863	-83.069149
09374	NaN	9.613169	1.422045	0.343513	0.002784	0.000365	-0.000940	74.043900	-81.272865	-83.089549
09375	NaN	9.638446	1.429203	0.449730	-0.007231	0.003990	-0.000880	74.048132	-81.272465	-83.095990
09376	NaN	9.600399	1.394552	0.360093	-0.006638	-0.001811	-0.003301	74.075771	-81.271507	-83.126735
09377	NaN	9.631183	1.402034	0.397553	-0.011448	0.005734	0.002632	74.067733	-81.272694	-83.121785
09378	NaN	9.607628	1.421595	0.413464	-0.003582	-0.000538	0.002708	74.086407	-81.274845	-83.141687
09379	NaN	9.641186	1.429179	0.416318	-0.004609	0.001900	-0.000854	74.099801	-81.274801	-83.155532
09380	NaN	9.610397	1.421553	0.379588	-0.008150	0.004880	0.003474	74.095627	-81.276523	-83.154967
09381	NaN	9.620388	1.448801	0.398295	-0.008192	0.001362	0.001855	74.105814	-81.277957	-83.166143
09382	NaN	9.631286	1.400904	0.399046	-0.007678	0.000143	0.003636	74.118767	-81.280512	-83.182631
09383	NaN	9.631324	1.400610	0.399170	-0.006881	0.000316	0.001868	74.133933	-81.282266	-83.199767
09384	NaN	9.610443	1.396165	0.449673	-0.012288	0.002043	0.002784	74.138297	-81.284052	-83.210239
09385	NaN	9.654971	1.380127	0.384268	-0.004852	0.004026	0.004317	74.138256	-81.286428	-83.209883
09386	NaN	9.642293	1.351937	0.400717	-0.002230	0.001934	0.004341	74.147191	-81.289089	-83.219149
09387	NaN	9.645088	1.351817	0.366625	0.007478	0.005500	0.003153	74.150520	-81.290727	-83.217553
09388	NaN	9.642346	1.351408	0.401235	0.013520	0.001491	0.001434	74.173051	-81.291855	-83.231443
09389	NaN	9.636940	1.375049	0.401024	0.014872	0.003965	0.003067	74.186436	-81.293703	-83.235443
09390	NaN	9.663300	1.355182	0.351468	0.014400	0.008703	0.002908	74.182013	-81.294517	-83.221556
09391	NaN	9.631526	1.398489	0.401728	0.016508	0.007831	0.001153	74.183872	-81.294571	-83.211751
09392	NaN	9.639697	1.374923	0.368021	0.015155	0.005358	-0.000478	74.195376	-81.294040	-83.213537
09393	NaN	9.678629	1.358931	0.371674	0.006613	0.010396	-0.001372	74.184667	-81.292351	-83.199463
09394	NaN	9.654938	1.379276	0.388125	0.016562	0.011836	-0.007723	74.181054	-81.286815	-83.185141
09395	NaN	9.621288	1.372080	0.386167	0.009234	0.008306	-0.001344	74.179691	-81.285441	-83.175868
09396	NaN	9.636589	1.376216	0.405428	0.013614	0.009017	-0.005817	74.182595	-81.281396	-83.169848
09397	NaN	9.633839	1.400730	0.371441	0.011504	0.009890	-0.004062	74.179486	-81.278322	-83.161098
09398	NaN	9.626364	1.551109	0.476080	0.001759	0.002801	-0.004500	74.196590	-81.275974	-83.176317
09399	NaN	9.656184	1.432837	0.443963	-0.009918	0.011147	-0.007208	74.179699	-81.270881	-83.163090
09400	NaN	9.660041	1.181158	0.235977	0.016910	0.008165	-0.004969	74.186694	-81.267436	-83.159298
09401	NaN	9.622573	1.450268	0.373847	0.033961	0.018308	-0.000400	74.162807	-81.265084	-83.114184
09402	NaN	9.649678	1.557185	0.394897	-0.001499	0.007175	-0.003726	74.161553	-81.262479	-83.112717
09403	NaN	9.628723	1.352207	0.358724	0.004719	0.017728	-0.009457	74.131741	-81.255115	-83.078510
09404	NaN	9.645067	1.305641	0.292006	0.015797	0.015190	-0.004321	74.112307	-81.250925	-83.048623
09405	NaN	9.629174	1.479749	0.431473	0.013173	0.017282	-0.004348	74.084209	-81.246489	-83.009561
09406	NaN	9.631836	1.480470	0.398737	-0.001489	0.019282	-0.006782	74.042810	-81.240296	-82.967471
09407	NaN	9.637096	1.457383	0.400791	-0.006297	0.015203	-0.008296	74.015237	-81.234057	-82.941283
09408	NaN	9.652529	1.485764	0.352017	-0.007184	0.019618	-0.002325	73.964916	-81.230257	-82.893465
09409	NaN	9.621485	1.454354	0.385793	-0.011992	0.015539	-0.003841	73.928170	-81.226355	-82.860780
09410	NaN	9.664819	1.489857	0.408650	-0.003889	0.018766	-0.001475	73.881975	-81.223148	-82.815225
09411	NaN	9.608552	1.426829	0.405608	-0.008785	0.019274	0.001213	73.828816	-81.221420	-82.762939
09412	NaN	9.646474	1.485784	0.428372	-0.010772	0.019082	0.000382	73.775692	-81.219171	-82.714363
09413	NaN	9.624061	1.454391	0.359101	-0.008913	0.020340	0.003801	73.715897	-81.218735	-82.657752
09414	NaN	9.639385	1.457693	0.379763	-0.015158	0.018372	0.004852	73.658168	-81.219043	-82.607059
09415	NaN	9.615711	1.477177	0.397281	-0.019642	0.019208	0.001408	73.598969	-81.217520	-82.558486
09416	NaN	9.641908	1.432772	0.418742	-0.024157	0.019561	0.008462	73.528063	-81.219604	-82.499677
09417	NaN	9.634936	1.404672	0.368203	-0.026018	0.018307	0.005048	73.464350	-81.220114	-82.448860
09418	NaN	9.631078	1.478763	0.422667	-0.028899	0.022529	0.010196	73.378284	-81.222642	-82.377461
09419	NaN	9.632081	1.402809	0.407436	-0.030633	0.020213	0.004197	73.305938	-81.222368	-82.320907
09420	NaN	9.637504	1.378395	0.410049	-0.030125	0.018995	0.005982	73.236177	-81.223138	-82.266716
09421	NaN	9.624698	1.349989	0.428449	-0.025193	0.022012	0.004928	73.159928	-81.222949	-82.203086
09422	NaN	9.658212	1.357058	0.433756	-0.021897	0.021157	0.005778	73.087407	-81.223226	-82.141333
09423	NaN	9.642888	1.352756	0.417488	-0.015651	0.023126	0.004736	73.012559	-81.222667	-82.074113
09424	NaN	9.638929	1.427090	0.472026	-0.013028	0.021034	0.004764	72.946660	-81.222386	-82.013920
09425	NaN	9.635935	1.426434	0.508487	-0.021806	0.016579	0.001569	72.895222	-81.221242	-81.974519
09426	NaN	9.673369	1.358895	0.461089	-0.020625	0.016595	0.004172	72.841368	-81.221368	-81.930917
09427	NaN	9.632907	1.323477	0.407550	-0.005438	0.025477	0.005374	72.763390	-81.220707	-81.853642
09428	NaN	9.592934	1.414240	0.424358	-0.006306	0.018260	0.003879	72.712164	-81.220374	-81.804397
09429	NaN	9.615049	1.444835	0.497769	-0.018350	0.018186	0.001465	72.657215	-81.218866	-81.758332
09430	NaN	9.596819	1.338884	0.375940	-0.010279	0.017883	0.002215	72.606908	-81.217674	-81.712320
09431	NaN	9.647001	1.401212	0.451782	-0.005406	0.013854	-0.002102	72.578848	-81.214985	-81.685963
09432	NaN	9.631687	1.397367	0.434546	-0.005160	0.014755	0.004853	72.539631	-81.215763	-81.648205
09433	NaN	9.673619	1.381175	0.404963	-0.002881	0.016343	0.002145	72.499109	-81.214853	-81.607745
09434	NaN	9.646907	1.400438	0.456172	-0.000418	0.011788	0.003124	72.475024	-81.215191	-81.582549
09435	NaN	9.674993	1.431591	0.460406	-0.008298	0.018075	0.003055	72.424182	-81.214491	-81.535657
09436	NaN	9.641415	1.423683	0.459150	-0.004868	0.016155	0.001314	72.384144	-81.213079	-81.496898
09437	NaN	9.610240	1.391716	0.492307	-0.005031	0.013696	0.002269	72.351853	-81.212774	-81.466877
09438	NaN	9.636932	1.371923	0.443815	-0.001733	0.012837	0.003117	72.323318	-81.212915	-81.437942
09439	NaN	9.624080	1.343753	0.460730	0.004029	0.007422	0.004942	72.314974	-81.215084	-81.427774
09440	NaN	9.641019	1.296137	0.393306	0.008027	0.011322	0.008249	72.291586	-81.218288	-81.398388
09441	NaN	9.621814	1.366572	0.427445	0.024784	0.004903	0.007310	72.301704	-81.222180	-81.391851
09442	NaN	9.601236	1.386013	0.408819	0.023498	0.009475	0.008936	72.292908	-81.226080	-81.368261
09443	NaN	9.613556	1.388535	0.462264	0.025155	0.004745	0.011683	72.298305	-81.232347	-81.359728
09444	NaN	9.615722	1.463187	0.445832	0.020811	0.004528	0.005646	72.309174	-81.235313	-81.357594
09445	NaN	9.637139	1.466806	0.395837	0.013755	0.002389	0.008446	72.320467	-81.240288	-81.360281
09446	NaN	9.615932	1.461770	0.445951	0.006192	0.001473	0.009468	72.329474	-81.245873	-81.364738
09447	NaN	9.632290	1.389291	0.446898	0.004581	0.001125	0.012999	72.334882	-81.253590	-81.368150
09448	NaN	9.624017	1.411664	0.481031	0.007370	0.001489	0.012071	72.341580	-81.260593	-81.369588
09449	NaN	9.649957	1.466153	0.449053	0.002730	-0.000127	0.009574	72.354404	-81.266648	-81.379922
09450	NaN	9.627361	1.409888	0.446587	-0.002849	-0.000853	0.011431	72.364316	-81.273709	-81.390534
09451	NaN	9.626575	1.484064	0.464412	-0.002550	0.000543	0.007887	72.373597	-81.278726	-81.400976
09452	NaN	9.598566	1.451664	0.461842	-0.010248	0.000694	0.011497	72.373715	-81.285553	-81.405969
09453	NaN	9.639974	1.410378	0.500079	-0.011426	0.000679	0.008895	72.376313	-81.291071	-81.414034
09454	NaN	9.619483	1.429471	0.481353	-0.011561	0.001743	0.011486	72.371956	-81.297711	-81.415261
09455	NaN	9.641005	1.432327	0.431616	-0.017947	0.000846	0.015112	72.362930	-81.306551	-81.415536
09456	NaN	9.622880	1.427108	0.447762	-0.018156	0.003466	0.009790	72.350557	-81.311965	-81.412476
09457	NaN	9.623037	1.425843	0.448419	-0.028646	0.003258	0.014335	72.327304	-81.319948	-81.407426
09458	NaN	9.619552	1.298256	0.412869	-0.022964	-0.000604	0.008251	72.328466	-81.325229	-81.420845
09459	NaN	9.614320	1.320897	0.413096	-0.008878	0.006691	0.014793	72.304403	-81.333015	-81.402638
09460	NaN	9.641832	1.425934	0.434298	-0.008404	0.001946	0.014935	72.297136	-81.341502	-81.399091
09461	NaN	9.621481	1.345427	0.466730	-0.018192	-0.000052	0.008161	72.299055	-81.346780	-81.413728
09462	NaN	9.660483	1.328366	0.470455	-0.019339	0.003459	0.007197	72.288944	-81.350779	-81.413643
09463	NaN	9.650660	1.300249	0.452521	-0.007670	0.003678	0.005255	72.287263	-81.353886	-81.417088
09464	NaN	9.624758	1.343642	0.433805	-0.016549	0.003821	0.006269	72.278511	-81.357316	-81.416762
09465	NaN	9.653792	1.299669	0.419073	-0.011370	0.001181	-0.001601	72.290896	-81.356997	-81.437958
09466	NaN	9.624788	1.343135	0.434714	-0.010296	0.005778	0.005235	72.279885	-81.359521	-81.431723
09467	NaN	9.630128	1.319202	0.435674	-0.006261	0.006649	-0.003601	72.278454	-81.357322	-81.436306
09468	NaN	9.619337	1.367198	0.435783	-0.005621	0.004363	-0.004415	72.286272	-81.354827	-81.446405
09469	NaN	9.616181	1.367392	0.470617	-0.005486	0.003301	-0.007007	72.301033	-81.351295	-81.466383
09470	NaN	9.645086	1.324373	0.455953	-0.003335	0.005948	-0.007122	72.307558	-81.347045	-81.473851
09471	NaN	9.657919	1.352773	0.440544	-0.003502	0.003488	-0.006170	72.321772	-81.343885	-81.490733
09472	NaN	9.645634	1.350164	0.387810	0.002081	0.004209	-0.008030	72.338653	-81.339441	-81.505537
09473	NaN	9.670639	1.381937	0.425212	0.005213	0.000885	-0.006231	72.367628	-81.336745	-81.530070
09474	NaN	9.652233	1.378566	0.441234	0.004096	0.007918	-0.005553	72.369522	-81.333009	-81.528547
09475	NaN	9.642219	1.351937	0.423414	0.007830	0.007392	-0.010841	72.381362	-81.326592	-81.536591
09476	NaN	9.638964	1.352660	0.458577	0.010651	0.011277	-0.010130	72.380191	-81.319774	-81.528169
09477	NaN	9.652608	1.306332	0.425588	0.009171	0.009866	-0.009188	72.382250	-81.313789	-81.522414
09478	NaN	9.665348	1.335232	0.410619	0.017710	0.013412	-0.012926	72.380679	-81.305074	-81.509495
09479	NaN	9.614664	1.375813	0.477014	0.014946	0.016575	-0.010355	72.363319	-81.297339	-81.483962
09480	NaN	9.620580	1.377847	0.409580	0.019486	0.016225	-0.017404	72.357861	-81.285690	-81.466081
09481	NaN	9.630138	1.406971	0.428927	0.018320	0.007607	-0.015370	72.380442	-81.276830	-81.477675
09482	NaN	9.614695	1.404580	0.411115	0.016924	0.016767	-0.009511	72.362691	-81.269398	-81.448841
09483	NaN	9.644895	1.413103	0.449807	0.015719	0.013231	-0.013751	72.361547	-81.260340	-81.438138
09484	NaN	9.639268	1.438171	0.450571	0.012120	0.012694	-0.011057	72.357312	-81.252769	-81.425763
09485	NaN	9.605524	1.431679	0.448414	0.007988	0.009857	-0.011780	72.361947	-81.245538	-81.427041
09486	NaN	9.629023	1.413049	0.433957	0.009464	0.011270	-0.012718	72.363131	-81.237308	-81.421687
09487	NaN	9.647119	1.418237	0.419384	0.008820	0.013557	-0.011904	72.355223	-81.229214	-81.404502
09488	NaN	9.614656	1.462685	0.469821	0.002405	0.009131	-0.009926	72.356802	-81.222880	-81.403640
09489	NaN	9.628397	1.416319	0.437173	0.000610	0.014928	-0.010077	72.336929	-81.215585	-81.384672
09490	NaN	9.619636	1.440953	0.472451	0.004688	0.010719	-0.012626	72.337258	-81.207501	-81.381222
09491	NaN	9.614027	1.465714	0.473232	-0.005135	0.011739	-0.007274	72.322534	-81.202254	-81.366994
09492	NaN	9.633238	1.395384	0.440788	-0.002370	0.008579	-0.009837	72.323249	-81.196064	-81.368027
09493	NaN	9.642862	1.423606	0.460150	-0.003316	0.009467	-0.005483	72.315554	-81.192201	-81.360485
09494	NaN	9.652495	1.451686	0.479636	-0.008596	0.010137	-0.007174	72.304231	-81.187194	-81.352946
09495	NaN	9.589527	1.362256	0.422116	-0.009935	0.007661	-0.008826	72.302662	-81.181885	-81.359266
09496	NaN	9.604547	1.366777	0.441852	-0.003016	0.010868	-0.009020	72.294055	-81.175742	-81.351239
09497	NaN	9.608722	1.418818	0.461148	0.001618	0.012485	-0.006514	72.279589	-81.170813	-81.336206
09498	NaN	9.629143	1.399538	0.481405	-0.003524	0.012092	-0.010795	72.268411	-81.163487	-81.325872
09499	NaN	9.608366	1.420541	0.463256	-0.000550	0.006310	-0.008042	72.276500	-81.158819	-81.332077
09500	NaN	9.622230	1.374096	0.430204	0.002402	0.009138	-0.009915	72.278104	-81.152490	-81.331243
09501	NaN	9.626389	1.426206	0.449084	0.008188	0.007245	-0.006445	72.285796	-81.148490	-81.333343
09502	NaN	9.641428	1.430561	0.468553	0.005559	0.009342	-0.006471	72.284632	-81.144005	-81.327877
09503	NaN	9.626143	1.427425	0.450482	0.007380	0.007070	-0.004681	72.290455	-81.141026	-81.329888
09504	NaN	9.628303	1.403853	0.485636	0.003253	0.004228	-0.005411	72.304692	-81.138010	-81.341345
09505	NaN	9.625939	1.428452	0.451590	0.008208	0.010772	-0.004802	72.298059	-81.134284	-81.330505
09506	NaN	9.636705	1.381410	0.452796	0.002585	0.002989	-0.006237	72.317155	-81.131033	-81.347268
09507	NaN	9.612792	1.401962	0.468523	0.002239	0.006676	-0.008962	72.325936	-81.125700	-81.355400
09508	NaN	9.625568	1.430492	0.453037	0.002585	0.002990	-0.006237	72.345004	-81.122448	-81.372136
09509	NaN	9.597372	1.399770	0.450556	0.001571	0.005437	-0.009788	72.359043	-81.116989	-81.384921
09510	NaN	9.636176	1.384585	0.454363	0.002725	0.001927	-0.008825	72.384745	-81.112507	-81.408289
09511	NaN	9.619689	1.456883	0.453686	0.002885	0.004390	-0.009774	72.402816	-81.107185	-81.426329
09512	NaN	9.625010	1.433857	0.454264	-0.000874	0.001385	-0.006141	72.425335	-81.104260	-81.448564
09513	NaN	9.633535	1.411033	0.420515	0.005534	0.005820	-0.008106	72.438286	-81.099599	-81.457602
09514	NaN	9.591238	1.427795	0.451545	0.005495	-0.001231	-0.011384	72.479318	-81.094258	-81.494882
09515	NaN	9.637468	1.464342	0.439011	0.000254	0.006486	-0.009800	72.488467	-81.088536	-81.505354
09516	NaN	9.624420	1.437473	0.455326	-0.004031	0.001178	-0.009583	72.513600	-81.083760	-81.532068
09517	NaN	9.615632	1.461782	0.489662	-0.000715	0.003848	-0.007089	72.528326	-81.079932	-81.547901
09518	NaN	9.637048	1.466734	0.440246	-0.004661	0.006990	-0.007130	72.530137	-81.075495	-81.551373
09519	NaN	9.579615	1.479431	0.452866	-0.008944	0.001682	-0.006913	72.548012	-81.072255	-81.574210
09520	NaN	9.618480	1.463868	0.456827	-0.011717	0.004840	-0.004352	72.550212	-81.069706	-81.582168
09521	NaN	9.623851	1.440556	0.457610	-0.013718	0.001123	-0.006832	72.567105	-81.066619	-81.607512
09522	NaN	9.593482	1.433508	0.420335	-0.008579	0.001521	-0.002548	72.580664	-81.065625	-81.625148
09523	NaN	9.623725	1.441196	0.458233	-0.011877	0.002377	-0.003402	72.590455	-81.064089	-81.639321
09524	NaN	9.642013	1.445486	0.443099	-0.013193	0.003425	-0.003414	72.595686	-81.062294	-81.651203
09525	NaN	9.622610	1.390706	0.406469	-0.007264	0.000474	-0.002534	72.613309	-81.061523	-81.673736
09526	NaN	9.647371	1.422243	0.444060	-0.005630	0.004353	-0.004416	72.620727	-81.059020	-81.683446
09527	NaN	9.645047	1.446608	0.409826	-0.007913	0.002760	-0.001720	72.629415	-81.058346	-81.695920
09528	NaN	9.616966	1.415383	0.407193	-0.003665	0.001020	-0.005216	72.650403	-81.055975	-81.718227
09529	NaN	9.647155	1.423384	0.445097	-0.006805	0.004340	-0.007016	72.659923	-81.052103	-81.730966
09530	NaN	9.613549	1.416232	0.442417	-0.009596	0.003972	-0.006095	72.668191	-81.048747	-81.743837
09531	NaN	9.637280	1.396983	0.427633	-0.007614	0.004163	-0.005254	72.675731	-81.045869	-81.756159
09532	NaN	9.654584	1.377151	0.481538	-0.005490	0.003293	-0.007002	72.689671	-81.042131	-81.772391
09533	NaN	9.651222	1.351079	0.394624	-0.000575	0.002793	-0.009671	72.711247	-81.037111	-81.791091
09534	NaN	9.628221	1.422625	0.462768	0.005373	0.003366	-0.007151	72.731287	-81.033277	-81.807197
09535	NaN	9.631302	1.423740	0.428763	0.003548	0.005639	-0.008937	72.744299	-81.028194	-81.818801
09536	NaN	9.633394	1.400659	0.463978	0.010604	0.007794	-0.011712	72.756869	-81.021112	-81.824312
09537	NaN	9.625479	1.449494	0.429437	0.005372	0.003367	-0.007149	72.776674	-81.017338	-81.841162
09538	NaN	9.617985	1.398645	0.445740	0.010795	0.001643	-0.008043	72.806678	-81.013305	-81.864211
09539	NaN	9.637117	1.454674	0.482794	0.011094	0.003046	-0.011577	72.835539	-81.007177	-81.887836
09540	NaN	9.621813	1.452018	0.464191	0.008969	0.003915	-0.009828	72.858490	-81.001779	-81.904805
09541	NaN	9.655153	1.460661	0.467699	0.008827	0.004977	-0.007240	72.874568	-80.997618	-81.915164
09542	NaN	9.608672	1.425863	0.480740	0.004862	0.004592	-0.008921	72.891820	-80.992602	-81.928747
09543	NaN	9.639749	1.458530	0.449578	0.005371	0.003368	-0.007147	72.911434	-80.988791	-81.945464
09544	NaN	9.606147	1.451471	0.446545	0.011459	0.002885	-0.007211	72.936516	-80.984997	-81.963147
09545	NaN	9.624396	1.456169	0.431132	0.009335	0.003754	-0.005464	72.956042	-80.982114	-81.971185
09546	NaN	9.609170	1.452980	0.412683	0.006701	0.005847	-0.005492	72.966327	-80.978763	-81.976646
09547	NaN	9.600338	1.477023	0.446972	0.007195	0.001097	-0.005357	72.993115	-80.976389	-82.000087
09548	NaN	9.600248	1.477606	0.446976	0.005213	0.000904	-0.006198	73.020322	-80.973478	-82.023546
09549	NaN	9.657515	1.466133	0.435100	0.009191	0.004816	-0.002876	73.032786	-80.971786	-82.028930
09550	NaN	9.612978	1.506108	0.431343	0.004106	-0.000675	-0.000904	73.059222	-80.972037	-82.052251
09551	NaN	9.603335	1.478793	0.412754	0.002932	-0.000691	-0.003505	73.087700	-80.970970	-82.079948
09552	NaN	9.642311	1.462940	0.416179	-0.001473	-0.001417	0.000933	73.111574	-80.972349	-82.103911
09553	NaN	9.623946	1.458906	0.431931	0.002295	0.005121	-0.001053	73.116771	-80.971628	-82.110359
09554	NaN	9.623936	1.458903	0.432143	0.008736	0.000951	0.001605	73.137623	-80.972980	-82.125339
09555	NaN	9.644612	1.438591	0.451283	0.005803	0.001642	0.005110	73.150891	-80.976168	-82.130626
09556	NaN	9.647916	1.438385	0.416991	0.001032	0.001078	0.005188	73.163159	-80.979462	-82.141384
09557	NaN	9.657570	1.465618	0.435604	0.006102	0.003044	0.001577	73.175579	-80.980608	-82.149747
09558	NaN	9.647976	1.437859	0.417402	0.003978	0.003913	0.003322	73.181700	-80.982408	-82.152573
09559	NaN	9.635159	1.409686	0.433694	-0.000128	0.004588	0.004226	73.182014	-80.984618	-82.151915
09560	NaN	9.627410	1.457267	0.399034	0.009557	0.004654	0.001487	73.190687	-80.985289	-82.154089
09561	NaN	9.627422	1.457016	0.399643	-0.000623	0.009339	0.004091	73.175029	-80.986789	-82.137191
09562	NaN	9.627423	1.456823	0.400329	-0.000495	0.004750	-0.000135	73.179308	-80.986555	-82.140745
09563	NaN	9.637041	1.484207	0.419252	-0.002111	0.004395	0.003385	73.180640	-80.988475	-82.141276
09564	NaN	9.613200	1.503621	0.435067	-0.004744	0.006489	0.003355	73.172823	-80.989867	-82.135048
09565	NaN	9.637106	1.483425	0.420529	-0.010324	0.005748	0.005191	73.162685	-80.992528	-82.129891
09566	NaN	9.609179	1.451324	0.418267	-0.004236	0.005265	0.005130	73.157529	-80.995095	-82.126063
09567	NaN	9.609245	1.450671	0.419014	-0.011784	0.007857	0.007765	73.136684	-80.998833	-82.109928
09568	NaN	9.612569	1.450297	0.385389	-0.004236	0.005265	0.005131	73.131516	-81.001401	-82.106088
09569	NaN	9.618100	1.426083	0.386466	-0.007377	0.008583	0.003329	73.115132	-81.002601	-82.094581
09570	NaN	9.638756	1.405452	0.406514	-0.005032	0.008614	0.008533	73.094322	-81.006476	-82.075366
09571	NaN	9.633335	1.428496	0.407026	0.001865	0.008307	0.006713	73.080918	-81.009617	-82.060152
09572	NaN	9.650718	1.407568	0.461371	-0.001433	0.009162	0.005857	73.063066	-81.011932	-82.041844
09573	NaN	9.666911	1.435145	0.412017	0.001357	0.009532	0.004940	73.046817	-81.013892	-82.025511
09574	NaN	9.635683	1.402784	0.444304	-0.000117	0.008115	0.005872	73.033313	-81.016389	-82.010843
09575	NaN	9.624714	1.450051	0.444439	0.002310	0.008647	0.000593	73.025000	-81.015995	-82.000258
09576	NaN	9.624750	1.449572	0.445225	-0.001737	0.007761	0.009392	73.008057	-81.020479	-81.983047
09577	NaN	9.628080	1.449326	0.411584	0.000836	0.007231	0.001525	73.002879	-81.020810	-81.974907
09578	NaN	9.624817	1.448625	0.446848	0.004666	0.012205	0.007442	72.976243	-81.023479	-81.944168
09579	NaN	9.645438	1.428014	0.466935	0.007444	0.009048	0.004884	72.964985	-81.025402	-81.928052
09580	NaN	9.648788	1.427682	0.433267	0.007140	0.007647	0.008419	72.954515	-81.029369	-81.912246
09581	NaN	9.648862	1.426987	0.433906	0.007950	0.007824	0.006660	72.945821	-81.032426	-81.897501
09582	NaN	9.633841	1.422588	0.415668	0.006475	0.006408	0.007591	72.940135	-81.036148	-81.886923
09583	NaN	9.610067	1.441535	0.431510	0.005013	0.008519	0.010165	72.923487	-81.041107	-81.870486
09584	NaN	9.615615	1.417093	0.432373	0.010727	0.004666	0.004103	72.929994	-81.043211	-81.869787
09585	NaN	9.630747	1.420478	0.451440	0.007271	0.003057	0.004190	72.939832	-81.045702	-81.876546
09586	NaN	9.602781	1.388486	0.448927	0.005968	0.007633	0.005818	72.931468	-81.048246	-81.863553
09587	NaN	9.636305	1.395793	0.452744	0.009410	0.005714	0.004090	72.933874	-81.050301	-81.858458
09588	NaN	9.612447	1.415410	0.468239	0.013662	0.003971	0.000602	72.948218	-81.050604	-81.863990
09589	NaN	9.652556	1.423569	0.403095	0.010219	0.005891	0.002331	72.952018	-81.051636	-81.861705
09590	NaN	9.634152	1.419460	0.419128	0.004942	0.006554	0.000626	72.952358	-81.051518	-81.858118
09591	NaN	9.625350	1.442929	0.453751	0.005606	0.007794	0.001456	72.947789	-81.051768	-81.851240
09592	NaN	9.621975	1.442815	0.488862	0.001950	0.008809	-0.003769	72.943261	-81.048864	-81.844461
09593	NaN	9.610142	1.439622	0.436197	0.000969	0.002640	-0.002705	72.958428	-81.047659	-81.859235
09594	NaN	9.633958	1.420003	0.421731	-0.005599	0.011407	-0.001142	72.937741	-81.045757	-81.840476
09595	NaN	9.580657	1.483635	0.452609	-0.002169	0.005959	-0.004512	72.941978	-81.043133	-81.845366
09596	NaN	9.617408	1.491830	0.422205	-0.007897	0.006286	-0.000095	72.936663	-81.042665	-81.843502
09597	NaN	9.611910	1.515626	0.422403	-0.010700	0.002389	-0.000824	72.943817	-81.042544	-81.858885
09598	NaN	9.604437	1.463908	0.439323	-0.014132	0.007837	0.002548	72.926721	-81.043263	-81.848710
09599	NaN	9.586035	1.459625	0.455644	-0.016935	0.003941	0.001820	72.922771	-81.044320	-81.849769
09600	NaN	9.622861	1.467400	0.425207	-0.012164	0.004502	0.001752	72.919241	-81.045164	-81.852187
09601	NaN	9.624973	1.443277	0.460601	-0.016631	0.005343	-0.001712	72.914029	-81.044133	-81.857728
09602	NaN	9.630395	1.419493	0.461927	-0.017937	0.009919	-0.000081	72.890325	-81.043061	-81.843071
09603	NaN	9.644659	1.372000	0.429263	-0.012819	0.006791	0.002569	72.877865	-81.044075	-81.835383
09604	NaN	9.600233	1.411582	0.426156	-0.011344	0.008208	0.001641	72.862042	-81.044233	-81.824881
09605	NaN	9.630332	1.418926	0.464970	-0.009711	0.012091	-0.000231	72.835915	-81.042832	-81.803011
09606	NaN	9.635757	1.395069	0.466427	-0.008553	0.008578	0.000728	72.821390	-81.042427	-81.792204
09607	NaN	9.648659	1.422908	0.451470	-0.003633	0.008075	-0.001930	72.814422	-81.040767	-81.786269
09608	NaN	9.646505	1.446959	0.417831	-0.003771	0.012666	0.002306	72.786749	-81.040532	-81.759378
09609	NaN	9.628071	1.442667	0.434551	-0.000474	0.011810	0.003167	72.763276	-81.041075	-81.735007
09610	NaN	9.598678	1.486123	0.450436	-0.002970	0.009316	-0.001099	72.751361	-81.039543	-81.723604
09611	NaN	9.617069	1.490017	0.436101	-0.007881	0.013347	0.003207	72.717878	-81.039830	-81.696693
09612	NaN	9.604104	1.461853	0.453221	-0.010021	0.010691	0.003305	72.692405	-81.040471	-81.675654
09613	NaN	9.610859	1.462136	0.385620	-0.010684	0.009451	0.002475	72.671575	-81.040890	-81.659600
09614	NaN	9.630071	1.417386	0.474968	-0.007229	0.011060	0.002394	72.647403	-81.040967	-81.638259
09615	NaN	9.594511	1.433403	0.437961	-0.005408	0.008785	0.004182	72.630461	-81.042593	-81.624652
09616	NaN	9.643087	1.444255	0.461054	-0.005716	0.007382	0.007715	72.614129	-81.046207	-81.610369
09617	NaN	9.645210	1.419489	0.496698	0.000691	0.011825	0.005779	72.588311	-81.048187	-81.585608
09618	NaN	9.633574	1.415663	0.444490	0.002157	0.009714	0.003203	72.573288	-81.048933	-81.568085
09619	NaN	9.609707	1.434969	0.460433	0.003165	0.007262	0.006750	72.563882	-81.052153	-81.553011
09620	NaN	9.628190	1.438474	0.445666	0.000681	0.008297	0.004131	72.551909	-81.053648	-81.539432
09621	NaN	9.628230	1.437913	0.446622	-0.000123	0.011649	0.007540	72.524318	-81.056442	-81.506040
09622	NaN	9.633725	1.413558	0.447906	0.000681	0.008298	0.004132	72.512330	-81.057936	-81.492446
09623	NaN	9.624881	1.436676	0.482616	-0.003438	0.005450	0.003380	72.509524	-81.059742	-81.488159
09624	NaN	9.631749	1.436789	0.414585	-0.002926	0.007753	0.006804	72.494426	-81.062790	-81.473508
09625	NaN	9.652263	1.416293	0.434527	0.000831	0.007235	0.001542	72.489226	-81.063175	-81.466606
09626	NaN	9.620826	1.384120	0.466719	0.000689	0.011827	0.005784	72.463149	-81.064961	-81.438745
09627	NaN	9.633856	1.411420	0.451808	0.003976	0.007439	0.004995	72.455166	-81.067147	-81.425835
09628	NaN	9.628434	1.434801	0.452196	0.005453	0.008857	0.004069	72.444010	-81.068508	-81.410316
09629	NaN	9.613427	1.430716	0.434095	0.000679	0.008299	0.004134	72.431685	-81.070049	-81.398001
09630	NaN	9.623025	1.457819	0.453494	-0.000638	0.009348	0.004120	72.415265	-81.071352	-81.380686
09631	NaN	9.608024	1.453705	0.435466	-0.004094	0.007741	0.004199	72.402627	-81.073144	-81.370224
09632	NaN	9.626517	1.457242	0.420804	-0.006888	0.007374	0.005111	72.388387	-81.075329	-81.358741
09633	NaN	9.623147	1.456222	0.456031	-0.014607	0.007513	0.008679	72.365406	-81.079554	-81.343274
09634	NaN	9.641660	1.459630	0.441395	-0.011510	0.005754	0.002584	72.356932	-81.080639	-81.340308
09635	NaN	9.632109	1.431698	0.423732	-0.019070	0.008360	0.005213	72.332361	-81.082821	-81.324738
09636	NaN	9.628703	1.430791	0.459103	-0.017754	0.007311	0.005228	72.311953	-81.085078	-81.313313
09637	NaN	9.613736	1.426489	0.441101	-0.014458	0.006452	0.006091	72.295379	-81.088025	-81.304762
09638	NaN	9.613807	1.425794	0.441810	-0.014619	0.003985	0.007032	72.286325	-81.091845	-81.303013
09639	NaN	9.595424	1.420972	0.458019	-0.009837	0.008071	0.008622	72.264047	-81.096006	-81.288693
09640	NaN	9.619384	1.400486	0.443854	-0.009525	0.009476	0.005091	72.240932	-81.097808	-81.269756
09641	NaN	9.629037	1.427226	0.463182	-0.002590	0.004060	0.009526	72.235770	-81.103078	-81.265216
09642	NaN	9.629155	1.426215	0.463840	-0.003900	0.008639	0.011168	72.211978	-81.108340	-81.242333
09643	NaN	9.593824	1.441630	0.426562	-0.004563	0.007400	0.010334	72.193365	-81.113495	-81.223800
09644	NaN	9.623954	1.447982	0.465150	-0.006543	0.007212	0.009487	72.174875	-81.118088	-81.207816
09645	NaN	9.632969	1.423450	0.431892	-0.010154	0.006670	0.012159	72.153672	-81.124384	-81.188926
09646	NaN	9.620034	1.394517	0.448541	-0.007198	0.009503	0.010310	72.125836	-81.129022	-81.163863
09647	NaN	9.629687	1.421237	0.468063	-0.008871	0.007191	0.004274	72.111894	-81.130889	-81.155233
09648	NaN	9.620152	1.393141	0.450272	-0.015279	0.006283	0.007858	72.093410	-81.134754	-81.144323
09649	NaN	9.622154	1.368148	0.486025	-0.017090	0.012093	0.007731	72.053694	-81.137593	-81.112890
09650	NaN	9.644137	1.372012	0.437414	-0.011353	0.008232	0.001656	72.037641	-81.137732	-81.102163
09651	NaN	9.620261	1.391346	0.453492	-0.009027	0.008254	0.006873	72.016866	-81.140764	-81.085047
09652	NaN	9.635303	1.394407	0.473276	-0.008874	0.007192	0.004278	72.002887	-81.142515	-81.074982
09653	NaN	9.620330	1.390317	0.455174	-0.008874	0.007193	0.004279	71.988861	-81.144281	-81.062818
09654	NaN	9.635372	1.393376	0.474901	-0.007711	0.007203	0.006888	71.972531	-81.147451	-81.049700
09655	NaN	9.614998	1.413057	0.456569	-0.009375	0.008422	0.002508	71.956671	-81.148241	-81.036468
09656	NaN	9.651990	1.420732	0.426712	-0.006733	0.009849	0.004193	71.934704	-81.149472	-81.017077
09657	NaN	9.635419	1.392156	0.477525	-0.008883	0.003665	0.002622	71.935172	-81.151068	-81.020855
09658	NaN	9.633556	1.415855	0.443599	-0.009030	0.008255	0.006878	71.914386	-81.154044	-81.003992
09659	NaN	9.638977	1.391559	0.445043	-0.009869	0.013182	0.002398	71.881208	-81.153804	-80.973819
09660	NaN	9.635452	1.390881	0.480563	-0.009377	0.008424	0.002511	71.864615	-81.154370	-80.961400
09661	NaN	9.605468	1.383394	0.443649	-0.011357	0.008238	0.001663	71.848744	-81.154683	-80.952017
09662	NaN	9.625832	1.363056	0.463793	-0.003783	0.009153	0.000690	71.834892	-81.154126	-80.939129
09663	NaN	9.644304	1.366996	0.449256	-0.002466	0.008101	0.000702	71.825643	-81.153898	-80.930565
09664	NaN	9.658595	1.319731	0.416379	0.004452	0.011307	0.000554	71.809135	-81.152881	-80.910213
09665	NaN	9.628017	1.438423	0.450207	0.009222	0.008329	-0.001169	71.808285	-81.151684	-80.903056
09666	NaN	9.675245	1.524627	0.491345	-0.002129	0.004404	0.003409	71.808870	-81.153455	-80.903819
09667	NaN	9.652559	1.469089	0.489257	-0.015311	0.011395	0.001626	71.779351	-81.153041	-80.881732
09668	NaN	9.629872	1.413469	0.487386	-0.003441	0.008985	0.005060	71.761255	-81.154889	-80.864350
09669	NaN	9.632232	1.488310	0.472089	-0.009036	0.008257	0.006881	71.740258	-81.157989	-80.850502
09670	NaN	9.605418	1.381143	0.451664	-0.005577	0.009860	0.006809	71.715838	-81.160631	-80.827958
09671	NaN	9.627533	1.384891	0.402837	-0.007720	0.007206	0.006894	71.699308	-81.163892	-80.815799
09672	NaN	9.615733	1.458083	0.524821	-0.013658	0.006648	0.004347	71.684325	-81.165771	-80.807493
09673	NaN	9.614481	1.356088	0.420082	-0.011522	0.005774	0.002600	71.675701	-81.166970	-80.805168
09674	NaN	9.639699	1.437393	0.511177	-0.006403	0.006154	0.006908	71.663627	-81.170330	-80.795598
09675	NaN	9.626627	1.408867	0.527686	-0.005579	0.009861	0.006813	71.639205	-81.173054	-80.772485
09676	NaN	9.615252	1.405106	0.475365	-0.003443	0.008987	0.005065	71.621028	-81.174900	-80.755024
09677	NaN	9.620686	1.380669	0.476531	-0.002283	0.008995	0.007675	71.600782	-81.178318	-80.734566
09678	NaN	9.663166	1.364315	0.446811	-0.002787	0.006696	0.004240	71.591951	-81.180127	-80.726182
09679	NaN	9.614727	1.352786	0.425084	0.000174	0.009528	0.002397	71.576936	-81.180580	-80.713666
09680	NaN	9.624278	1.380084	0.444642	0.000332	0.008468	-0.000201	71.568862	-81.179653	-80.704240
09681	NaN	9.657728	1.387705	0.448977	-0.003129	0.006866	-0.000129	71.563746	-81.179073	-80.703015
09682	NaN	9.654103	1.387367	0.484138	-0.000167	0.009699	-0.001972	71.553146	-81.176961	-80.691322
09683	NaN	9.648668	1.411260	0.484646	-0.006589	0.005265	-0.000058	71.552360	-81.176818	-80.693403
09684	NaN	9.634874	1.332723	0.448101	-0.000992	0.005992	-0.001877	71.554161	-81.175429	-80.694738
09685	NaN	9.633627	1.407847	0.466922	0.001649	0.007415	-0.000188	71.550557	-81.174817	-80.689632
09686	NaN	9.633593	1.407834	0.467668	0.002310	0.008654	0.000651	71.541978	-81.174319	-80.678548
09687	NaN	9.600054	1.400345	0.464822	0.005267	0.007957	-0.002856	71.541698	-81.172113	-80.673364
09688	NaN	9.609595	1.427689	0.484151	-0.001472	0.005644	0.004252	71.537282	-81.174118	-80.668686
09689	NaN	9.614970	1.403692	0.485154	0.003790	0.010071	-0.000269	71.525708	-81.173049	-80.656752
09690	NaN	9.620321	1.379829	0.486219	0.000828	0.007238	0.001573	71.520160	-81.173309	-80.649595
09691	NaN	9.657369	1.387818	0.456287	0.003790	0.010071	-0.000268	71.508894	-81.172249	-80.635481
09692	NaN	9.631576	1.382986	0.541243	0.003789	0.010071	-0.000267	71.497286	-81.170994	-80.620473
09693	NaN	9.636943	1.408162	0.438830	0.003128	0.008833	-0.001106	71.490893	-81.169622	-80.609987
09694	NaN	9.633282	1.407857	0.473972	0.003128	0.008833	-0.001106	71.484225	-81.168136	-80.600361
09695	NaN	9.651775	1.412002	0.459299	0.005764	0.006727	-0.001081	71.486858	-81.167173	-80.595980
09696	NaN	9.651755	1.411959	0.459861	0.004123	0.006372	0.002437	71.485219	-81.168060	-80.590868
09697	NaN	9.661287	1.439285	0.479180	0.006424	0.007966	-0.000241	71.482241	-81.167326	-80.586901
09698	NaN	9.627771	1.431593	0.476469	0.002310	0.012187	0.002321	71.459369	-81.167090	-80.561351
09699	NaN	9.609202	1.427356	0.492852	0.000168	0.009532	0.002401	71.444383	-81.167385	-80.542530
09700	NaN	9.636764	1.407677	0.444287	0.005443	0.008850	0.004118	71.432858	-81.168731	-80.526649
09701	NaN	9.624137	1.430295	0.513561	0.007583	0.011506	0.004039	71.413352	-81.169660	-80.502880
09702	NaN	9.594291	1.422737	0.476542	0.004124	0.009904	0.004106	71.397392	-81.170807	-80.483275
09703	NaN	9.614633	1.402019	0.496522	0.004458	0.006204	0.006810	71.391355	-81.174217	-80.474934
09704	NaN	9.636883	1.405918	0.447272	0.001159	0.003540	0.004278	71.395741	-81.176620	-80.477637
09705	NaN	9.641112	1.456567	0.466178	0.000341	0.006895	0.007704	71.383747	-81.180417	-80.467914
09706	NaN	9.633380	1.404194	0.482755	0.000340	0.006895	0.007705	71.371878	-81.184066	-80.454643
09707	NaN	9.637102	1.403851	0.449030	-0.003119	0.005293	0.007771	71.363499	-81.188134	-80.448039
09708	NaN	9.609595	1.422576	0.498975	-0.002298	0.005470	0.006013	71.357088	-81.191125	-80.441821
09709	NaN	9.633608	1.402078	0.484362	-0.005261	0.002638	0.007851	71.356558	-81.195729	-80.445457
09710	NaN	9.618788	1.397682	0.465748	0.000176	0.004425	0.008638	71.352115	-81.200337	-80.439797
09711	NaN	9.618895	1.396802	0.466173	-0.002624	0.004063	0.009545	71.345833	-81.205554	-80.437393
09712	NaN	9.656145	1.403883	0.435854	0.003471	0.003557	0.009504	71.345288	-81.210791	-80.433767
09713	NaN	9.617952	1.470169	0.484690	-0.002629	-0.003000	0.006209	71.367859	-81.215532	-80.460417
09714	NaN	9.637783	1.398432	0.451313	-0.006579	0.003694	0.007840	71.363055	-81.219840	-80.458309
09715	NaN	9.637883	1.397597	0.451763	-0.009379	0.003332	0.008747	71.356788	-81.224832	-80.458735
09716	NaN	9.643313	1.373102	0.452566	-0.011031	0.004555	0.004363	71.350520	-81.227095	-80.457728
09717	NaN	9.639716	1.372128	0.487364	-0.009218	0.002270	0.006148	71.351435	-81.230951	-80.464546
09718	NaN	9.645120	1.347807	0.488047	-0.006915	0.003863	0.003470	71.351022	-81.232857	-80.467076
09719	NaN	9.663704	1.351534	0.473235	-0.002632	0.005640	0.001645	71.349228	-81.233554	-80.464251
09720	NaN	9.654155	1.323849	0.455087	-0.001477	0.005648	0.004258	71.344710	-81.235560	-80.459475
09721	NaN	9.643474	1.371075	0.455275	-0.000652	0.009357	0.004168	71.328071	-81.237014	-80.441050
09722	NaN	9.641769	1.395221	0.421355	0.005107	0.005486	-0.001914	71.335236	-81.235699	-80.444277
09723	NaN	9.632738	1.418560	0.455915	0.001323	0.006010	0.003352	71.332499	-81.237394	-80.442108
09724	NaN	9.603488	1.461796	0.471366	-0.002135	0.007942	0.005087	71.318532	-81.239429	-80.428153
09725	NaN	9.627459	1.441463	0.456999	-0.004278	0.005288	0.005164	71.312676	-81.242051	-80.421972
09726	NaN	9.640732	1.468791	0.442094	-0.008891	0.007213	0.004287	71.298350	-81.243785	-80.411569
09727	NaN	9.627565	1.440347	0.458280	-0.010044	0.002096	0.007907	71.297228	-81.248551	-80.415595
09728	NaN	9.623460	1.388205	0.440397	-0.014160	0.006322	0.010473	71.275620	-81.253805	-80.400880
09729	NaN	9.629484	1.413995	0.494084	-0.011031	0.002981	0.012270	71.265184	-81.260743	-80.398346
09730	NaN	9.645608	1.341641	0.495338	-0.007740	0.003689	0.005232	71.262794	-81.263637	-80.399353
09731	NaN	9.625459	1.361045	0.476620	-0.004110	0.006180	0.012142	71.245948	-81.270039	-80.383539
09732	NaN	9.645818	1.339684	0.496541	0.001491	0.006901	0.010331	71.231369	-81.275108	-80.366864
09733	NaN	9.629385	1.359367	0.443467	0.001325	0.004431	0.011261	71.224080	-81.281194	-80.358749
09734	NaN	9.627450	1.333798	0.512686	0.003629	0.002490	0.006911	71.230416	-81.285220	-80.361994
09735	NaN	9.649797	1.337581	0.463408	0.004455	0.006199	0.006824	71.224236	-81.288623	-80.352283
09736	NaN	9.627560	1.332745	0.513360	0.009394	0.002148	0.002498	71.240401	-81.290319	-80.362131
09737	NaN	9.664774	1.340425	0.482868	0.007252	0.003027	0.004247	71.249875	-81.293005	-80.373268
09738	NaN	9.634992	1.333042	0.445277	0.007585	0.007968	0.002387	71.244526	-81.293568	-80.362399
09739	NaN	9.635566	1.383566	0.498438	0.006592	0.001789	0.003405	71.259233	-81.295897	-80.373176
09740	NaN	9.633942	1.407704	0.464034	0.010383	0.004795	-0.000189	71.269828	-81.295646	-80.376816
09741	NaN	9.624915	1.431075	0.498340	0.006098	0.003021	0.001634	71.282830	-81.296955	-80.383639
09742	NaN	9.633975	1.407333	0.464489	0.006428	0.002852	0.006008	71.290604	-81.300425	-80.386718
09743	NaN	9.630330	1.406465	0.499054	0.010712	0.004627	0.004186	71.296750	-81.302798	-80.390744
09744	NaN	9.637758	1.406961	0.430831	0.001322	0.006011	0.003356	71.293582	-81.304248	-80.385712
09745	NaN	9.639448	1.382073	0.465926	0.004122	0.004796	0.010358	71.288260	-81.309904	-80.376759
09746	NaN	9.634239	1.405048	0.465931	0.005603	0.002677	0.007770	71.294071	-81.314362	-80.378331
09747	NaN	9.600247	1.346146	0.409998	0.006103	0.010088	0.004979	71.277320	-81.316038	-80.356518
09748	NaN	9.630068	1.352798	0.448684	0.006593	0.005323	0.005081	71.277528	-81.318550	-80.351848
09749	NaN	9.624794	1.376243	0.448704	0.005273	0.002845	0.003396	71.288274	-81.320758	-80.356698
09750	NaN	9.639711	1.379502	0.468095	0.006100	0.006555	0.003308	71.285957	-81.322082	-80.349759
09751	NaN	9.639734	1.379177	0.468578	0.009393	0.005683	0.004178	71.287754	-81.324179	-80.346253
09752	NaN	9.658356	1.382844	0.453760	0.004123	0.006371	0.002453	71.285984	-81.325073	-80.341012
09753	NaN	9.644040	1.429718	0.488209	0.003300	0.009731	0.005885	71.267808	-81.327279	-80.317899
09754	NaN	9.604705	1.394873	0.432118	0.003463	0.005132	0.001611	71.271080	-81.327943	-80.318141
09755	NaN	9.601013	1.394115	0.466942	-0.002304	0.005479	0.006021	71.264743	-81.331118	-80.313736
09756	NaN	9.632979	1.425292	0.436602	-0.004281	0.005296	0.005165	71.258704	-81.333681	-80.309048
09757	NaN	9.619721	1.397036	0.452719	-0.004940	0.004057	0.004322	71.257878	-81.336168	-80.310698
09758	NaN	9.638415	1.400249	0.437927	-0.006755	0.004771	0.010445	71.245902	-81.341692	-80.301439
09759	NaN	9.639069	1.450114	0.491407	-0.005104	0.008656	0.008599	71.223360	-81.345732	-80.285253
09760	NaN	9.624283	1.445680	0.473133	-0.015487	0.003864	0.008781	71.211599	-81.350519	-80.281272
09761	NaN	9.611113	1.416696	0.489356	-0.012525	0.005120	0.014858	71.189485	-81.358547	-80.270254
09762	NaN	9.624626	1.442959	0.474459	-0.022083	0.004040	0.014955	71.165775	-81.366650	-80.258010
09763	NaN	9.607181	1.362485	0.472338	-0.020599	0.005456	0.014041	71.138963	-81.374149	-80.244059
09764	NaN	9.625970	1.364978	0.457800	-0.024063	0.003861	0.014104	71.115730	-81.381823	-80.233446
09765	NaN	9.622415	1.363045	0.492697	-0.019454	0.001931	0.014988	71.101334	-81.390571	-80.231554
09766	NaN	9.635373	1.338511	0.424832	-0.018796	0.003170	0.015834	71.081418	-81.399310	-80.221244
09767	NaN	9.628077	1.336088	0.494038	-0.022751	0.002809	0.014125	71.062977	-81.407388	-80.214793
09768	NaN	9.652107	1.314977	0.479702	-0.011371	0.006706	0.009579	71.042279	-81.412078	-80.199390
09769	NaN	9.640176	1.385790	0.445103	-0.011220	0.000532	0.013209	71.039664	-81.420008	-80.200591
09770	NaN	9.658996	1.388288	0.430140	-0.012704	0.002653	0.015804	71.025039	-81.428825	-80.192102
09771	NaN	9.627193	1.355090	0.461455	-0.015172	0.003706	0.013178	71.008159	-81.436139	-80.186700
09772	NaN	9.613089	1.400907	0.495960	-0.020610	0.005467	0.014063	70.980979	-81.443487	-80.170097
09773	NaN	9.622278	1.376058	0.462515	-0.014684	0.002475	0.014954	70.966572	-81.451972	-80.166476
09774	NaN	9.631481	1.351181	0.428765	-0.016833	-0.000175	0.015027	70.960641	-81.460895	-80.169173
09775	NaN	9.637580	1.376330	0.482260	-0.012876	0.003718	0.018420	70.938526	-81.471045	-80.157185
09776	NaN	9.633422	1.323360	0.464216	-0.008096	0.004252	0.018372	70.917397	-81.480952	-80.139451
09777	NaN	9.618740	1.318337	0.445529	-0.011228	0.000537	0.013219	70.914462	-81.488861	-80.141199
09778	NaN	9.624827	1.343590	0.498978	-0.018321	0.001951	0.017631	70.896669	-81.498796	-80.132764
09779	NaN	9.639217	1.295004	0.465615	-0.013525	0.004065	0.009667	70.883713	-81.504045	-80.128107
09780	NaN	9.644573	1.270042	0.466339	-0.011059	0.003010	0.012297	70.872903	-81.510893	-80.122525
09781	NaN	9.644701	1.268889	0.466832	-0.011548	0.004244	0.010526	70.859368	-81.516643	-80.115605
09782	NaN	9.639563	1.291880	0.467120	-0.010554	0.003358	0.006155	70.855296	-81.520101	-80.116544
09783	NaN	9.639647	1.291117	0.467514	-0.008089	0.002302	0.008784	70.853334	-81.525292	-80.118777
09784	NaN	9.643451	1.291180	0.433538	-0.003949	0.003178	-0.000029	70.861500	-81.525437	-80.128263
09785	NaN	9.653134	1.318162	0.452653	0.001643	0.002301	0.006074	70.868375	-81.529185	-80.135807
09786	NaN	9.662818	1.345074	0.471933	0.000839	0.007241	0.001603	70.862462	-81.529450	-80.128285
09787	NaN	9.629317	1.337450	0.468544	-0.002973	0.000709	0.003516	70.875478	-81.532064	-80.145016
09788	NaN	9.633101	1.337715	0.434564	0.002155	0.006182	0.001613	70.874156	-81.532533	-80.141373
09789	NaN	9.634562	1.313124	0.469602	0.002643	0.004947	0.003386	70.875617	-81.534365	-80.140757
09790	NaN	9.639025	1.363899	0.488658	0.004620	0.005125	0.004242	70.876235	-81.536456	-80.137648
09791	NaN	9.644267	1.339698	0.489373	0.001327	0.006007	0.003376	70.872924	-81.538152	-80.137975
09792	NaN	9.659150	1.342885	0.508879	0.000005	0.003533	0.001683	70.879917	-81.539157	-80.143985
09793	NaN	9.648040	1.339916	0.455898	0.009082	0.005828	-0.000189	70.886428	-81.538917	-80.145428
09794	NaN	9.624173	1.359659	0.471491	0.001987	0.007245	0.004223	70.877846	-81.540600	-80.134544
09795	NaN	9.651833	1.339974	0.422586	0.001321	0.002474	0.001693	70.889592	-81.541941	-80.143767
09796	NaN	9.624187	1.359268	0.472334	0.000177	0.006005	0.000758	70.888857	-81.541981	-80.141864
09797	NaN	9.634617	1.311415	0.473235	0.001982	0.003711	0.002540	70.895391	-81.543560	-80.147773
09798	NaN	9.644275	1.338507	0.492459	0.003471	0.005123	0.001625	70.898661	-81.544234	-80.148011
09799	NaN	9.620397	1.358374	0.507879	0.005616	0.004238	-0.000128	70.908558	-81.544244	-80.155033
09800	NaN	9.633175	1.335466	0.439812	0.000005	0.003534	0.001684	70.915558	-81.545249	-80.161049
09801	NaN	9.642841	1.362467	0.459152	0.001986	0.007245	0.004224	70.907157	-81.547076	-80.150446
09802	NaN	9.633215	1.334788	0.440989	0.001986	0.007246	0.004225	70.898564	-81.548760	-80.139551
09803	NaN	9.642901	1.361667	0.460262	0.002469	0.002477	0.004314	70.907945	-81.551624	-80.148478
09804	NaN	9.663028	1.340792	0.479762	-0.000337	0.002125	0.005219	70.915431	-81.554807	-80.155184
09805	NaN	9.657861	1.364261	0.479750	-0.001485	0.002122	0.002599	70.925855	-81.556716	-80.165621
09806	NaN	9.624383	1.356562	0.476099	-0.000998	0.000888	0.004372	70.938556	-81.559671	-80.177982
09807	NaN	9.624411	1.356307	0.476263	-0.000656	0.002297	0.000837	70.950863	-81.560599	-80.191319
09808	NaN	9.629648	1.332188	0.476663	-0.005780	0.000359	0.004420	70.962710	-81.563678	-80.205586
09809	NaN	9.648345	1.335802	0.461466	-0.000829	-0.000175	0.001763	70.982898	-81.565574	-80.226419
09810	NaN	9.643943	1.284297	0.442954	0.001639	0.002302	0.006077	70.989827	-81.569188	-80.231418
09811	NaN	9.644657	1.334478	0.495905	0.004440	-0.000880	0.003487	71.013486	-81.572089	-80.250974
09812	NaN	9.629848	1.330725	0.476703	-0.000342	-0.001409	0.003535	71.036070	-81.575016	-80.272946
09813	NaN	9.648538	1.334440	0.461383	0.001977	0.000177	0.000857	71.057611	-81.576275	-80.292298
09814	NaN	9.642700	1.307461	0.408278	0.001808	0.001240	0.003467	71.071842	-81.578671	-80.304580
09815	NaN	9.658254	1.361239	0.480415	0.003297	0.002651	0.002552	71.082980	-81.580438	-80.314686
09816	NaN	9.658269	1.361155	0.480352	-0.002811	-0.003886	-0.000779	71.118678	-81.581482	-80.351343
09817	NaN	9.604732	1.374012	0.456947	0.000145	-0.002643	0.005308	71.144172	-81.585777	-80.375975
09818	NaN	9.658401	1.360418	0.479797	0.000145	-0.002643	0.005309	71.169424	-81.589887	-80.400362
09819	NaN	9.639810	1.356068	0.494914	-0.001658	-0.000348	0.003526	71.187373	-81.592693	-80.419219
09820	NaN	9.630218	1.328313	0.475948	-0.002661	-0.002994	0.006214	71.211217	-81.597356	-80.443806
09821	NaN	9.650362	1.307327	0.495098	0.002295	0.000006	0.005240	71.228009	-81.600957	-80.458087
09822	NaN	9.648330	1.280718	0.407498	0.001803	-0.002294	0.001783	71.257414	-81.603085	-80.485710
09823	NaN	9.634896	1.252793	0.422790	0.005269	-0.000706	0.001725	71.283126	-81.605057	-80.508827
09824	NaN	9.659443	1.283362	0.460777	0.009570	0.004590	0.001588	71.291929	-81.605810	-80.511126
09825	NaN	9.648341	1.280611	0.407561	0.009246	0.001227	-0.004479	71.320458	-81.604017	-80.535149
09826	NaN	9.630309	1.327658	0.475937	0.011888	0.006176	-0.001089	71.328089	-81.603025	-80.534920
09827	NaN	9.654091	1.308171	0.461143	0.012880	0.001752	-0.007145	71.360398	-81.599707	-80.559140
09828	NaN	9.648803	1.332728	0.460783	0.012706	-0.000719	-0.006218	71.400190	-81.597193	-80.590948
09829	NaN	9.652508	1.333906	0.426348	0.012879	0.001753	-0.007143	71.432325	-81.593855	-80.614508
09830	NaN	9.638946	1.306928	0.441792	0.012219	0.000516	-0.007989	71.469440	-81.590147	-80.643893
09831	NaN	9.633616	1.331725	0.441497	0.009755	0.001572	-0.010620	71.504622	-81.584946	-80.673622
09832	NaN	9.643887	1.285054	0.441963	0.013046	0.000691	-0.009750	71.543664	-81.580245	-80.704477
09833	NaN	9.642329	1.310412	0.407581	0.014052	0.006871	-0.010755	71.561771	-81.573973	-80.714316
09834	NaN	9.681555	1.345445	0.465079	0.020470	0.009710	-0.004723	71.565773	-81.570366	-80.705448
09835	NaN	9.665818	1.417581	0.464711	0.018976	0.004763	-0.005488	71.588398	-81.567444	-80.717678
09836	NaN	9.653036	1.315540	0.462253	0.011732	0.005287	-0.008075	71.607689	-81.562816	-80.729328
09837	NaN	9.648498	1.265056	0.444198	0.017003	0.008122	-0.004662	71.615532	-81.559633	-80.726193
09838	NaN	9.632718	1.337400	0.443930	0.024268	0.009175	-0.009988	71.630066	-81.553262	-80.725774
09839	NaN	9.622923	1.311084	0.425659	0.017998	0.007232	-0.009028	71.647217	-81.547970	-80.732958
09840	NaN	9.652424	1.319303	0.464315	0.021971	0.009165	-0.015224	71.666798	-81.538753	-80.738971
09841	NaN	9.630749	1.365263	0.410642	0.019309	0.002639	-0.010691	71.703092	-81.533269	-80.764022
09842	NaN	9.638784	1.418087	0.394790	0.018161	0.002633	-0.013310	71.741962	-81.526267	-80.791744
09843	NaN	9.620491	1.466187	0.463104	0.007948	0.007400	-0.010714	71.754567	-81.520001	-80.800329
09844	NaN	9.644211	1.447252	0.448651	0.002998	0.004395	-0.009744	71.773959	-81.514620	-80.817142
09845	NaN	9.605337	1.464459	0.444908	-0.003438	0.003514	-0.006182	71.789000	-81.511475	-80.830579
09846	NaN	9.639606	1.397396	0.430976	-0.008216	0.002980	-0.006141	71.802773	-81.508307	-80.848208
09847	NaN	9.626080	1.370161	0.447040	-0.008874	0.005277	-0.005308	71.807163	-81.505294	-80.854916
09848	NaN	9.636466	1.322950	0.448153	-0.006242	0.003161	-0.005281	71.820358	-81.502561	-80.870816
09849	NaN	9.636395	1.323318	0.448587	-0.001633	0.004762	-0.002714	71.827799	-81.501102	-80.876119
09850	NaN	9.632498	1.323185	0.483486	0.005291	0.007949	-0.002822	71.827210	-81.498851	-80.871401
09851	NaN	9.631027	1.347728	0.449335	0.005778	0.003180	-0.002728	71.844448	-81.497629	-80.884221
09852	NaN	9.612298	1.344155	0.464861	0.007265	0.004593	-0.003641	71.858184	-81.495532	-80.892843
09853	NaN	9.645720	1.352043	0.468980	0.009410	0.003708	-0.005387	71.878747	-81.492799	-80.907247
09854	NaN	9.612153	1.345016	0.465372	0.007752	0.003362	-0.001866	71.895119	-81.491886	-80.918252
09855	NaN	9.645590	1.352894	0.469206	0.005947	-0.001423	-0.007012	71.934148	-81.489155	-80.952832
09856	NaN	9.625427	1.373845	0.449775	0.005947	0.002115	-0.005333	71.958124	-81.486574	-80.972573
09857	NaN	9.658831	1.381923	0.453684	0.001340	0.000512	-0.007900	71.988734	-81.483074	-81.001722
09858	NaN	9.619971	1.399135	0.449461	-0.002780	-0.002321	-0.008693	72.027785	-81.479444	-81.041762
09859	NaN	9.634246	1.352408	0.415410	-0.006094	-0.006553	-0.003332	72.073873	-81.479552	-81.090838
09860	NaN	9.628966	1.376562	0.414716	-0.000488	-0.002305	-0.003452	72.107971	-81.478768	-81.124543
09861	NaN	9.660987	1.408725	0.383662	-0.002293	-0.003553	-0.006919	72.149163	-81.476363	-81.169537
09862	NaN	9.643677	1.381049	0.433388	-0.007899	-0.000726	-0.003440	72.173234	-81.475303	-81.197396
09863	NaN	9.654109	1.333859	0.434215	-0.000637	0.003869	-0.007080	72.189483	-81.471684	-81.214298
09864	NaN	9.632541	1.378791	0.380360	-0.005436	-0.001776	-0.000806	72.215692	-81.472241	-81.242894
09865	NaN	9.654011	1.334455	0.434556	-0.005585	0.004398	-0.004434	72.223317	-81.469822	-81.255282
09866	NaN	9.639085	1.331467	0.415991	-0.006732	0.004391	-0.007053	72.233624	-81.465891	-81.268548
09867	NaN	9.616008	1.276970	0.413094	-0.000807	0.001399	-0.006152	72.257444	-81.463145	-81.291947
09868	NaN	9.624062	1.329169	0.397506	0.001338	0.004052	-0.006219	72.272611	-81.459726	-81.305452
09869	NaN	9.670862	1.364992	0.386167	0.006116	0.004590	-0.006258	72.288875	-81.456327	-81.317239
09870	NaN	9.637704	1.409076	0.435474	0.000191	0.004045	-0.008838	72.306423	-81.451479	-81.333816
09871	NaN	9.618883	1.406032	0.451222	-0.004418	0.005978	-0.009725	72.315576	-81.445924	-81.343838
09872	NaN	9.622601	1.407140	0.417426	-0.006244	0.003158	-0.005279	72.328505	-81.443172	-81.359474
09873	NaN	9.637334	1.411182	0.436840	-0.006902	0.001919	-0.006125	72.346892	-81.440266	-81.377694
09874	NaN	9.623862	1.383793	0.452772	-0.011194	0.003685	-0.002633	72.352002	-81.438866	-81.388291
09875	NaN	9.633362	1.411394	0.471884	-0.009217	0.000331	-0.003453	72.371432	-81.437681	-81.411978
09876	NaN	9.652974	1.340595	0.438689	-0.010535	0.001389	-0.003465	72.386199	-81.436224	-81.431959
09877	NaN	9.624698	1.309654	0.435345	-0.001636	0.001226	-0.004391	72.408033	-81.434486	-81.455723
09878	NaN	9.696466	1.250401	0.390677	0.003143	0.001764	-0.004431	72.430370	-81.432435	-81.475434
09879	NaN	9.672855	1.321578	0.458817	0.013694	0.009025	-0.005514	72.433923	-81.428657	-81.469360
09880	NaN	9.639233	1.314902	0.455499	0.007771	0.004943	-0.009773	72.453495	-81.423137	-81.483593
09881	NaN	9.624664	1.363142	0.489628	0.011232	0.006540	-0.009824	72.469442	-81.417450	-81.492880
09882	NaN	9.600102	1.333541	0.452381	0.009106	0.008998	-0.015986	72.482164	-81.407835	-81.499413
09883	NaN	9.585075	1.331412	0.433685	0.010576	0.001765	-0.012348	72.517849	-81.401595	-81.528831
09884	NaN	9.657139	1.323962	0.441676	0.018327	0.001599	-0.015887	72.562390	-81.393305	-81.562202
09885	NaN	9.647770	1.348982	0.475628	0.023760	0.003381	-0.015075	72.603053	-81.385317	-81.586865
09886	NaN	9.646116	1.374744	0.441050	0.029191	0.005164	-0.014263	72.638982	-81.377298	-81.605232
09887	NaN	9.636722	1.399853	0.474902	0.026562	0.000205	-0.017643	72.695590	-81.368355	-81.640602
09888	NaN	9.649510	1.378507	0.406389	0.023097	0.002145	-0.015911	72.740625	-81.359944	-81.671711
09889	NaN	9.640151	1.403311	0.440282	0.026044	0.003406	-0.009825	72.775880	-81.354686	-81.690127
09890	NaN	9.653638	1.483284	0.477383	0.017000	0.002659	-0.015886	72.815418	-81.346195	-81.719211
09891	NaN	9.630558	1.429709	0.473959	0.014036	-0.003709	-0.015736	72.875988	-81.338900	-81.769094
09892	NaN	9.652905	1.435392	0.423986	0.004970	-0.002490	-0.012218	72.922936	-81.333277	-81.812645
09893	NaN	9.626019	1.381147	0.455144	0.003983	0.003509	-0.014087	72.950294	-81.325737	-81.833596
09894	NaN	9.634708	1.308169	0.368680	0.011393	0.001944	-0.014089	72.986949	-81.318337	-81.863015
09895	NaN	9.624160	1.408030	0.420599	0.011883	0.000714	-0.012315	73.027346	-81.312359	-81.892451
09896	NaN	9.601420	1.405147	0.470165	0.010901	0.003175	-0.015859	73.061128	-81.303777	-81.919249
09897	NaN	9.605069	1.407008	0.435718	0.009914	-0.003009	-0.014848	73.115776	-81.296957	-81.967390
09898	NaN	9.652895	1.368574	0.405782	0.012537	0.001958	-0.011466	73.149956	-81.290980	-81.993643
09899	NaN	9.623375	1.413528	0.420104	0.022091	-0.000484	-0.013205	73.200568	-81.284609	-82.030151
09900	NaN	9.623449	1.465726	0.472499	0.013853	0.000904	-0.011447	73.239155	-81.278811	-82.060102
09901	NaN	9.632496	1.443375	0.438351	0.006941	-0.002303	-0.011347	73.284997	-81.273647	-82.100965
09902	NaN	9.601375	1.286701	0.398370	0.019116	0.000225	-0.009705	73.327068	-81.268910	-82.131388
09903	NaN	9.617202	1.390681	0.366104	0.028982	0.001162	-0.005394	73.367170	-81.266584	-82.155163
09904	NaN	9.611976	1.466306	0.417876	0.011548	-0.004225	-0.010447	73.421523	-81.262161	-82.202402
09905	NaN	9.662859	1.379421	0.456969	0.010892	-0.005467	-0.011290	73.480822	-81.257533	-82.253809
09906	NaN	9.671506	1.254966	0.317317	0.018948	-0.002243	-0.008770	73.530461	-81.253695	-82.291988
09907	NaN	9.670307	1.382250	0.387290	0.030970	-0.000617	-0.014096	73.586554	-81.246689	-82.329192
09908	NaN	9.679567	1.411131	0.405360	0.016488	-0.004740	-0.013071	73.648106	-81.240880	-82.380853
09909	NaN	9.663758	1.360388	0.489302	0.015832	-0.005982	-0.013913	73.714843	-81.234916	-82.436203
09910	NaN	9.639339	1.330756	0.451027	0.020928	-0.000487	-0.015801	73.766453	-81.226905	-82.475231
09911	NaN	9.632053	1.329236	0.362656	0.033605	-0.006254	-0.015715	73.845608	-81.219944	-82.535461
09912	NaN	9.629010	1.429966	0.344982	0.029640	0.000449	-0.014099	73.896941	-81.212708	-82.569161
09913	NaN	9.611860	1.454528	0.447145	0.033090	0.002059	-0.014144	73.944879	-81.205289	-82.594422
09914	NaN	9.648768	1.412997	0.363435	0.028997	-0.007871	-0.018266	74.029546	-81.197062	-82.662226
09915	NaN	9.624684	1.485651	0.429865	0.030949	-0.000597	-0.014067	74.085196	-81.190166	-82.701816
09916	NaN	9.656410	1.518637	0.398547	0.030113	0.002772	-0.010644	74.124743	-81.184449	-82.723317
09917	NaN	9.652405	1.519479	0.432563	0.022384	-0.000619	-0.008790	74.169854	-81.180321	-82.754392
09918	NaN	9.621124	1.536985	0.359347	0.014324	-0.000314	-0.009645	74.210235	-81.175631	-82.785892
09919	NaN	9.646587	1.493981	0.379176	0.002644	-0.000550	-0.007857	74.243178	-81.172097	-82.816480
09920	NaN	9.602027	1.483792	0.322168	-0.000155	0.004180	-0.013201	74.262804	-81.164742	-82.835372
09921	NaN	9.618247	1.464247	0.376452	-0.004447	0.004383	-0.001837	74.267952	-81.163586	-82.836850
09922	NaN	9.618159	1.464787	0.376600	0.000018	-0.001986	-0.009562	74.305872	-81.159193	-82.874156
09923	NaN	9.614162	1.465434	0.411243	-0.003132	0.008426	-0.008050	74.303687	-81.154103	-82.871667
09924	NaN	9.589983	1.485896	0.426694	-0.000827	0.004922	-0.004480	74.311535	-81.151440	-82.879030
09925	NaN	9.592348	1.561534	0.410451	-0.003130	0.003330	-0.001816	74.321377	-81.150635	-82.889397
09926	NaN	9.612532	1.541457	0.430406	-0.006097	0.004035	0.001670	74.323230	-81.151502	-82.893749
09927	NaN	9.586991	1.584839	0.410705	-0.007413	-0.000010	0.007882	74.332471	-81.156477	-82.905840
09928	NaN	9.559071	1.552524	0.407726	-0.015483	0.003833	0.008691	74.322678	-81.161248	-82.903848
09929	NaN	9.584810	1.507700	0.428032	-0.016459	-0.002352	0.009712	74.333392	-81.167636	-82.923104
09930	NaN	9.622161	1.463328	0.345219	-0.017949	-0.000228	0.012290	74.333027	-81.175021	-82.932083
09931	NaN	9.603711	1.457953	0.360802	-0.010725	0.002835	0.016566	74.321702	-81.184355	-82.925138
09932	NaN	9.642789	1.440168	0.365440	-0.009408	0.001783	0.016588	74.314786	-81.193800	-82.922533
09933	NaN	9.667238	1.469636	0.403475	-0.009579	0.002854	0.019186	74.301273	-81.204595	-82.914721
09934	NaN	9.652879	1.515094	0.437357	-0.008926	0.004098	0.020031	74.282884	-81.215580	-82.900230
09935	NaN	9.617029	1.378944	0.398177	-0.014523	0.003371	0.021816	74.262249	-81.227895	-82.891693
09936	NaN	9.635950	1.380813	0.383809	-0.012066	0.010974	0.019890	74.217516	-81.237730	-82.852367
09937	NaN	9.632109	1.327785	0.366450	-0.009906	0.003015	0.014821	74.208028	-81.246175	-82.847218
09938	NaN	9.628429	1.326033	0.401181	-0.012705	0.002652	0.015714	74.196853	-81.255003	-82.842218
09939	NaN	9.633969	1.300771	0.402149	-0.000203	0.006592	0.013837	74.181007	-81.262274	-82.822598
09940	NaN	9.621937	1.371029	0.367079	0.016573	0.007212	0.016392	74.169517	-81.270763	-82.800307
09941	NaN	9.659688	1.428374	0.389505	0.015091	0.005797	0.017305	74.161651	-81.280145	-82.783352
09942	NaN	9.629066	1.494525	0.369554	0.012454	0.007906	0.017268	74.144346	-81.289006	-82.757566
09943	NaN	9.640015	1.445061	0.371144	0.010137	0.009859	0.021604	74.114165	-81.299932	-82.717077
09944	NaN	9.592279	1.482695	0.401552	0.011935	0.011121	0.025071	74.076842	-81.312585	-82.671343
09945	NaN	9.634587	1.641532	0.494485	-0.009770	-0.004694	0.026369	74.082868	-81.328504	-82.680875
09946	NaN	9.704579	1.554941	0.519421	-0.024251	0.003368	0.024483	74.053255	-81.342048	-82.663916
09947	NaN	9.647147	1.182946	0.198355	-0.010451	0.004689	0.030539	74.021454	-81.358930	-82.633143
09948	NaN	9.627620	1.530444	0.459696	0.003515	0.008480	0.035665	73.977397	-81.377823	-82.585485
09949	NaN	9.693074	1.464153	0.328383	-0.029542	0.002506	0.030654	73.941327	-81.395082	-82.568372
09950	NaN	9.673099	1.306905	0.343523	-0.028880	0.012392	0.026939	73.873244	-81.408538	-82.515192
09951	NaN	9.644915	1.221813	0.289304	-0.011773	0.017932	0.027644	73.794364	-81.421793	-82.445772
09952	NaN	9.629922	1.393040	0.394503	-0.018990	0.007805	0.020017	73.755675	-81.432156	-82.416591
09953	NaN	9.640723	1.343293	0.396894	-0.022125	0.018231	0.021553	73.675674	-81.441740	-82.344380
09954	NaN	9.632463	1.238811	0.362116	-0.026060	0.010778	0.016480	73.625646	-81.449670	-82.307830
09955	NaN	9.655831	1.343548	0.419335	-0.019294	0.016608	0.011085	73.563983	-81.453773	-82.255888
09956	NaN	9.651692	1.291017	0.402854	-0.012064	0.016109	0.013702	73.505326	-81.459300	-82.202504
09957	NaN	9.656035	1.341000	0.422785	-0.009919	0.015224	0.011965	73.452822	-81.464054	-82.154457
09958	NaN	9.636064	1.360186	0.405110	-0.006781	0.020525	0.009220	73.385788	-81.466381	-82.089543
09959	NaN	9.622642	1.331679	0.422676	-0.010064	0.017856	0.006661	73.330032	-81.467898	-82.036053
09960	NaN	9.598677	1.350946	0.439353	0.000137	0.020182	0.007460	73.270090	-81.469296	-81.974302
09961	NaN	9.616102	1.378286	0.391350	-0.007264	0.018215	0.005772	73.215255	-81.470322	-81.925735
09962	NaN	9.589150	1.322456	0.424508	-0.008237	0.020674	0.002224	73.154475	-81.468749	-81.867989
09963	NaN	9.625240	1.354242	0.361432	-0.008717	0.018362	-0.001228	73.105651	-81.465692	-81.821848
09964	NaN	9.674403	1.290346	0.368492	-0.012661	0.017994	-0.002959	73.057939	-81.461709	-81.779878
09965	NaN	9.721244	1.325874	0.358522	0.007759	0.015558	-0.004713	73.032831	-81.457384	-81.754308
09966	NaN	9.644099	1.460997	0.456915	-0.017099	0.022399	-0.004786	72.968635	-81.451653	-81.698240
09967	NaN	9.683691	1.370064	0.445734	-0.023670	0.020605	-0.008232	72.910610	-81.444366	-81.655943
09968	NaN	9.640549	1.335852	0.425215	-0.019066	0.018675	-0.007326	72.861844	-81.437855	-81.616618
09969	NaN	9.597606	1.352507	0.457584	-0.016769	0.027349	-0.006623	72.782121	-81.430434	-81.549037
09970	NaN	9.610886	1.380806	0.444536	-0.008866	0.021003	-0.006515	72.730001	-81.423958	-81.500408
09971	NaN	9.630654	1.361372	0.466290	-0.012464	0.022039	-0.011777	72.677961	-81.414441	-81.453090
09972	NaN	9.610254	1.331894	0.396328	-0.010315	0.021156	-0.013512	72.632544	-81.404100	-81.412077
09973	NaN	9.628897	1.387761	0.435949	-0.003918	0.020478	-0.009134	72.588162	-81.396390	-81.372515
09974	NaN	9.632740	1.388925	0.403564	0.000688	0.018547	-0.008230	72.552661	-81.389375	-81.335154
09975	NaN	9.593872	1.457108	0.453759	0.000369	0.022254	-0.010923	72.507250	-81.380372	-81.284989
09976	NaN	9.602980	1.434547	0.421838	-0.010835	0.017280	-0.009056	72.470786	-81.373117	-81.253330
09977	NaN	9.599868	1.360008	0.439648	-0.006215	0.011807	-0.009836	72.458024	-81.366474	-81.239995
09978	NaN	9.613158	1.388638	0.425587	-0.004744	0.016766	-0.009054	72.426987	-81.359305	-81.210294
09979	NaN	9.611314	1.340747	0.530776	-0.004911	0.014293	-0.008132	72.404315	-81.353293	-81.189687
09980	NaN	9.644565	1.349171	0.536221	-0.001927	0.013583	-0.011623	72.389328	-81.345269	-81.174586
09981	NaN	9.616154	1.268118	0.481146	0.002195	0.012885	-0.012490	72.380575	-81.337213	-81.169346
09982	NaN	9.628187	1.321446	0.432068	0.011273	0.011661	-0.015980	72.385035	-81.327142	-81.166266
09983	NaN	9.637328	1.350284	0.451810	0.014380	0.011858	-0.012487	72.386830	-81.319111	-81.159955
09984	NaN	9.639960	1.376362	0.383743	0.021001	0.011684	-0.018614	72.399765	-81.307599	-81.159811
09985	NaN	9.654352	1.381644	0.403940	0.010602	0.013964	-0.015141	72.394630	-81.297657	-81.147528
09986	NaN	9.639327	1.430641	0.438730	0.009629	0.016429	-0.018682	72.384215	-81.285284	-81.130353
09987	NaN	9.614907	1.452368	0.454576	0.006676	0.010051	-0.018559	72.394838	-81.274251	-81.138058
09988	NaN	9.601139	1.426324	0.471080	-0.001571	0.011445	-0.016827	72.393672	-81.263756	-81.136732
09989	NaN	9.662499	1.416000	0.427398	-0.002058	0.012678	-0.018596	72.390424	-81.252209	-81.130544
09990	NaN	9.633943	1.437411	0.477444	-0.006814	0.008588	-0.020265	72.400261	-81.240331	-81.143389
09991	NaN	9.637873	1.388709	0.391617	-0.004031	0.012494	-0.019461	72.396984	-81.228279	-81.140794
09992	NaN	9.623998	1.413498	0.460724	-0.006676	0.005950	-0.014967	72.410242	-81.219751	-81.157023
09993	NaN	9.580814	1.430999	0.491329	-0.004197	0.010020	-0.018538	72.414032	-81.208606	-81.165026
09994	NaN	9.619465	1.365547	0.444220	-0.007001	0.009659	-0.017654	72.416969	-81.197968	-81.171000
09995	NaN	9.608666	1.364038	0.391651	0.001245	0.008272	-0.019381	72.431085	-81.186646	-81.184994
09996	NaN	9.584229	1.385708	0.407248	0.015543	0.013467	-0.017732	72.433585	-81.175307	-81.177455
09997	NaN	9.625006	1.548416	0.501619	-0.001073	0.006677	-0.016726	72.449174	-81.165791	-81.195498
09998	NaN	9.635433	1.502347	0.503316	-0.019355	0.008194	-0.016743	72.449099	-81.155903	-81.205588
09999	NaN	9.640770	1.429057	0.452053	-0.002579	0.008803	-0.014138	72.453541	-81.147438	-81.212175
10000	NaN	9.620558	1.450371	0.433325	-0.007049	0.008087	-0.009753	72.453117	-81.141388	-81.214775
10001	NaN	9.566942	1.463992	0.410281	0.000550	0.005460	-0.012331	72.468717	-81.134432	-81.232011
10002	NaN	9.594524	1.547349	0.467436	-0.013145	0.008592	-0.009758	72.463027	-81.128291	-81.232817
10003	NaN	9.587793	1.421569	0.466247	-0.022020	0.005189	-0.010567	72.464847	-81.122292	-81.246488
10004	NaN	9.635952	1.382916	0.437649	-0.008350	0.005602	-0.011452	72.474224	-81.115742	-81.259764
10005	NaN	9.620853	1.431119	0.471886	-0.005083	0.008278	-0.008878	72.473247	-81.110275	-81.262585
10006	NaN	9.629948	1.459292	0.491452	-0.008047	0.005436	-0.007080	72.478535	-81.106142	-81.271546
10007	NaN	9.668605	1.443865	0.496593	-0.012636	0.003818	-0.009670	72.490176	-81.100973	-81.286075
10008	NaN	9.635435	1.385671	0.440316	-0.005472	0.005290	0.002533	72.486854	-81.102117	-81.284828
10009	NaN	9.628461	1.484610	0.458848	-0.003972	0.011833	-0.004568	72.469554	-81.098430	-81.271198
10010	NaN	9.624530	1.433686	0.441155	-0.008554	0.001549	-0.002643	72.483214	-81.097391	-81.288928
10011	NaN	9.605989	1.379248	0.403846	-0.010179	0.002773	-0.007031	72.496882	-81.093903	-81.306980
10012	NaN	9.652709	1.415263	0.393075	-0.004108	0.005813	-0.005338	72.501171	-81.090657	-81.312647
10013	NaN	9.657644	1.442836	0.446921	-0.008722	0.007738	-0.006241	72.497975	-81.086754	-81.308723
10014	NaN	9.639080	1.388504	0.410122	-0.006753	0.007926	-0.005371	72.493424	-81.083125	-81.306974
10015	NaN	9.610588	1.408428	0.459920	-0.008723	0.007739	-0.006240	72.488761	-81.079042	-81.309061
10016	NaN	9.628890	1.463891	0.498462	-0.005919	0.008105	-0.007120	72.485990	-81.074427	-81.308631
10017	NaN	9.580736	1.453199	0.475987	-0.008076	0.008983	-0.005386	72.476613	-81.070692	-81.307398
10018	NaN	9.586036	1.429751	0.477218	-0.004296	0.006880	-0.002732	72.474219	-81.068685	-81.306408
10019	NaN	9.618180	1.461840	0.447360	-0.006425	0.004215	-0.002687	72.479958	-81.067324	-81.317043
10020	NaN	9.633111	1.414924	0.414279	0.002475	0.004078	-0.003562	72.492090	-81.065347	-81.326831
10021	NaN	9.676849	1.426128	0.472497	-0.001492	0.007246	-0.003612	72.491021	-81.062866	-81.325558
10022	NaN	9.671755	1.399499	0.420162	-0.000010	0.008668	-0.004509	72.486815	-81.059581	-81.320248
10023	NaN	9.647478	1.419546	0.435533	0.000966	0.006199	-0.000975	72.487877	-81.058762	-81.321090
10024	NaN	9.618976	1.439271	0.485168	0.000824	0.008847	-0.006258	72.485448	-81.054490	-81.317096
10025	NaN	9.588497	1.456591	0.412829	-0.000357	0.007256	-0.000991	72.482460	-81.053514	-81.312560
10026	NaN	9.569650	1.452578	0.428673	0.000938	0.009743	0.000715	72.469353	-81.052897	-81.297691
10027	NaN	9.558838	1.500121	0.428302	0.003293	-0.000868	0.000887	72.494425	-81.054304	-81.319534
10028	NaN	9.606855	1.511277	0.451778	0.001295	0.002487	0.001706	72.505623	-81.055480	-81.329061
10029	NaN	9.639145	1.542643	0.421529	0.002731	0.002327	0.008696	72.510629	-81.060574	-81.330572
10030	NaN	9.650836	1.520776	0.509865	-0.000073	0.001961	0.009576	72.514267	-81.066141	-81.333239
10031	NaN	9.661778	1.472108	0.510938	-0.001583	0.004082	0.012162	72.507062	-81.072897	-81.326374
10032	NaN	9.658138	1.419604	0.492948	-0.003741	0.004961	0.013896	72.493415	-81.080308	-81.313671
10033	NaN	9.643696	1.414824	0.474088	-0.009623	0.000856	0.009596	72.495787	-81.086205	-81.318548
10034	NaN	9.625450	1.358736	0.436690	-0.003254	0.003726	0.015665	72.484748	-81.094795	-81.308203
10035	NaN	9.605244	1.428449	0.470166	-0.002232	0.002840	0.011312	72.482200	-81.101241	-81.305957
10036	NaN	9.570832	1.443916	0.431551	0.001060	0.001970	0.012200	72.483557	-81.108240	-81.305659
10037	NaN	9.560263	1.490253	0.430954	0.002194	0.001979	0.014821	72.482554	-81.116744	-81.303464
10038	NaN	9.608482	1.500098	0.454442	0.002868	-0.000321	0.013986	72.490990	-81.125114	-81.309282
10039	NaN	9.636779	1.529914	0.458199	-0.004413	-0.001404	0.019247	72.493013	-81.136613	-81.315397
10040	NaN	9.667758	1.460236	0.478689	-0.005575	0.002132	0.018318	72.483236	-81.146928	-81.307678
10041	NaN	9.653462	1.454619	0.459563	-0.010862	-0.002307	0.022761	72.481045	-81.160500	-81.310661
10042	NaN	9.639194	1.448830	0.440379	-0.010701	0.000172	0.021850	72.471265	-81.173083	-81.305911
10043	NaN	9.615293	1.466702	0.455456	-0.016288	0.004572	0.017413	72.447896	-81.182594	-81.290865
10044	NaN	9.610536	1.437799	0.402881	-0.020094	0.001555	0.020961	72.428785	-81.194451	-81.282120
10045	NaN	9.593100	1.407632	0.452864	-0.020556	-0.000751	0.017504	72.421658	-81.204919	-81.285023
10046	NaN	9.631006	1.413794	0.423098	-0.024686	-0.000054	0.018372	72.408446	-81.215639	-81.284909
10047	NaN	9.617763	1.384193	0.438758	-0.022530	-0.000933	0.016639	72.401479	-81.225786	-81.296614
10048	NaN	9.671073	1.420465	0.515660	-0.021883	0.000311	0.017497	72.389540	-81.235966	-81.296164
10049	NaN	9.695758	1.347974	0.448667	-0.019939	0.004039	0.020066	72.362682	-81.247043	-81.282372
10050	NaN	9.651924	1.386245	0.444189	-0.012981	0.000160	0.016624	72.357321	-81.256773	-81.283417
10051	NaN	9.617640	1.401226	0.405844	-0.013678	0.006005	0.019162	72.327796	-81.266904	-81.260967
10052	NaN	9.623199	1.375492	0.406892	-0.017136	0.004404	0.019191	72.302006	-81.277297	-81.243751
10053	NaN	9.604588	1.369718	0.422687	-0.016136	0.007061	0.016529	72.269983	-81.285743	-81.219612
10054	NaN	9.622548	1.396393	0.373931	-0.016786	0.005821	0.015676	72.243251	-81.293967	-81.201242
10055	NaN	9.643696	1.350222	0.429006	-0.021401	0.007759	0.014779	72.208012	-81.301490	-81.178871
10056	NaN	9.662439	1.403539	0.467924	-0.019727	0.008115	0.011275	72.176362	-81.306908	-81.157231
10057	NaN	9.658526	1.351359	0.450426	-0.024153	0.008991	0.007770	72.142836	-81.310323	-81.138839
10058	NaN	9.620917	1.342442	0.481617	-0.020213	0.009354	0.009513	72.108451	-81.314559	-81.114714
10059	NaN	9.625251	1.341952	0.448462	-0.014114	0.008835	0.009516	72.078991	-81.318920	-81.094859
10060	NaN	9.596142	1.334139	0.410867	-0.012604	0.006712	0.006920	72.061349	-81.322205	-81.083263
10061	NaN	9.596206	1.333392	0.411788	-0.008497	0.009552	0.007752	72.035218	-81.325525	-81.059159
10062	NaN	9.600523	1.333190	0.378492	0.000413	0.009389	0.006870	72.015501	-81.328308	-81.037919
10063	NaN	9.610652	1.386162	0.485958	0.000579	0.011869	0.005961	71.987999	-81.330298	-81.011648
10064	NaN	9.687062	1.377458	0.461754	0.001774	0.013462	0.000688	71.961674	-81.328987	-80.982935
10065	NaN	9.712457	1.282391	0.429446	-0.002350	0.001947	0.004351	71.969546	-81.331827	-80.995663
10066	NaN	9.704694	1.455728	0.466443	0.006031	0.010106	0.005107	71.952504	-81.333518	-80.973873
10067	NaN	9.662746	1.446617	0.531757	-0.006362	0.012215	0.007715	71.918101	-81.336415	-80.942383
10068	NaN	9.624337	1.411623	0.475342	-0.009149	0.008315	0.006896	71.896652	-81.339397	-80.924934
10069	NaN	9.600532	1.379991	0.438121	-0.003911	0.011157	0.010355	71.864434	-81.343901	-80.891768
10070	NaN	9.576496	1.398836	0.453807	-0.001269	0.009036	0.010382	71.840796	-81.348649	-80.867538
10071	NaN	9.552458	1.417780	0.469251	0.002213	0.007092	0.008656	71.828554	-81.352928	-80.851412
10072	NaN	9.571446	1.420810	0.454628	0.000390	0.000715	0.011369	71.834467	-81.359699	-80.856111
10073	NaN	9.586174	1.423249	0.473897	0.009301	0.000548	0.010491	71.847408	-81.366104	-80.861728
10074	NaN	9.618822	1.453791	0.443771	0.013026	0.005515	0.016550	71.837260	-81.374838	-80.842860
10075	NaN	9.661603	1.537438	0.520075	0.007070	-0.000155	0.020134	71.839365	-81.386585	-80.844314
10076	NaN	9.667388	1.460995	0.467529	0.000295	0.002674	0.020976	71.826862	-81.398237	-80.830443
10077	NaN	9.682480	1.411729	0.434154	-0.007296	0.001783	0.021870	71.812119	-81.410602	-80.818910
10078	NaN	9.669161	1.381677	0.449836	-0.015559	0.003197	0.023610	71.785436	-81.423592	-80.799886
10079	NaN	9.704057	1.311750	0.436226	-0.014241	0.002136	0.023626	71.763029	-81.436851	-80.787337
10080	NaN	9.637436	1.294787	0.427952	-0.011240	0.001428	0.020133	71.749241	-81.448264	-80.778851
10081	NaN	9.613558	1.312900	0.442983	-0.012850	0.002665	0.015740	71.735604	-81.457216	-80.771706
10082	NaN	9.618992	1.287328	0.443803	-0.007612	0.005503	0.019204	71.710172	-81.467391	-80.749345
10083	NaN	9.608925	1.282757	0.390551	-0.004759	-0.001230	0.014912	71.716262	-81.476736	-80.763175
10084	NaN	9.661290	1.343242	0.432953	0.005622	0.003553	0.014843	71.710670	-81.484888	-80.753209
10085	NaN	9.656264	1.365629	0.433050	0.000170	0.005326	0.015700	71.694473	-81.493357	-80.739254
10086	NaN	9.694972	1.398247	0.491136	-0.006582	0.004618	0.014839	71.677972	-81.501315	-80.725329
10087	NaN	9.700497	1.322285	0.439185	-0.008573	0.007986	0.015674	71.647047	-81.509207	-80.699354
10088	NaN	9.675697	1.365043	0.420046	-0.016147	0.003560	0.014863	71.628824	-81.517366	-80.689230
10089	NaN	9.623500	1.352426	0.431671	-0.018924	0.011885	0.011254	71.583086	-81.522208	-80.654919
10090	NaN	9.590158	1.343916	0.428395	-0.020568	0.004447	0.011353	71.563284	-81.528298	-80.645759
10091	NaN	9.600661	1.295157	0.429596	-0.020377	0.003384	0.008739	71.550468	-81.533165	-80.643246
10092	NaN	9.623843	1.349241	0.433966	-0.013625	0.004089	0.009602	71.538054	-81.538368	-80.637534
10093	NaN	9.638512	1.351728	0.453901	-0.014104	0.005329	0.007835	71.523051	-81.542466	-80.628792
10094	NaN	9.662679	1.330916	0.439965	-0.011484	0.006745	0.009570	71.502167	-81.547168	-80.613277
10095	NaN	9.667848	1.356536	0.494105	-0.008865	0.008161	0.011304	71.475483	-81.552687	-80.592177
10096	NaN	9.644851	1.300504	0.491018	-0.006032	0.004969	0.008711	71.465232	-81.557244	-80.584254
10097	NaN	9.663808	1.303616	0.477038	-0.007678	0.013297	0.007736	71.424592	-81.559842	-80.548752
10098	NaN	9.643263	1.347832	0.424002	-0.003697	0.006561	0.006061	71.413080	-81.562668	-80.538202
10099	NaN	9.600355	1.363084	0.454491	-0.006532	0.009754	0.008656	71.385235	-81.566502	-80.515776
10100	NaN	9.581525	1.358368	0.470291	-0.006511	0.006210	0.006945	71.372281	-81.569871	-80.505398
10101	NaN	9.591108	1.334337	0.436985	-0.009325	0.005860	0.007829	71.358670	-81.574022	-80.493304
10102	NaN	9.663274	1.324371	0.446597	-0.007162	0.004971	0.006085	71.350930	-81.577151	-80.488576
10103	NaN	9.629778	1.366745	0.495844	-0.006879	0.004795	0.010471	71.338485	-81.582797	-80.482038
10104	NaN	9.674497	1.300916	0.535894	-0.008676	0.007101	0.008693	71.318816	-81.586951	-80.466127
10105	NaN	9.674680	1.249712	0.483350	-0.005172	0.001603	0.005247	71.326489	-81.590492	-80.473884
10106	NaN	9.668780	1.297216	0.449149	0.005481	0.009738	0.011281	71.302008	-81.595566	-80.444911
10107	NaN	9.610571	1.333125	0.425520	0.013207	0.004412	0.013969	71.298637	-81.603210	-80.432165
10108	NaN	9.581502	1.375722	0.440253	0.012730	0.005653	0.012202	71.292129	-81.609532	-80.417161
10109	NaN	9.600575	1.378395	0.425685	0.009071	0.005130	0.014843	71.282484	-81.617571	-80.401261
10110	NaN	9.590449	1.424855	0.425365	0.007121	0.001411	0.012258	71.288289	-81.624703	-80.401952
10111	NaN	9.662729	1.414184	0.434428	-0.004135	0.000016	0.015790	71.289153	-81.634283	-80.404079
10112	NaN	9.659369	1.387691	0.503359	-0.003961	0.002496	0.014885	71.281320	-81.642641	-80.397403
10113	NaN	9.655309	1.334999	0.484816	-0.015869	-0.000137	0.017556	71.273422	-81.653111	-80.397572
10114	NaN	9.641746	1.305629	0.500088	-0.011541	-0.001919	0.014067	71.278584	-81.661837	-80.408419
10115	NaN	9.631746	1.301335	0.446661	-0.009592	0.001800	0.016655	71.268384	-81.671508	-80.404273
10116	NaN	9.594182	1.241370	0.423693	0.003265	0.001950	0.017523	71.263349	-81.681399	-80.396241
10117	NaN	9.613309	1.243617	0.408843	0.009368	0.001405	0.017526	71.263677	-81.691450	-80.391332
10118	NaN	9.560335	1.305763	0.437888	0.017440	0.001033	0.018404	71.269041	-81.701987	-80.385602
10119	NaN	9.598427	1.311780	0.407711	0.020550	-0.002338	0.020199	71.286363	-81.714171	-80.390662
10120	NaN	9.617607	1.364316	0.445287	0.032084	-0.001123	0.021061	71.304825	-81.726547	-80.389690
10121	NaN	9.684142	1.401022	0.419157	0.018837	0.000866	0.025436	71.302805	-81.741084	-80.379102
10122	NaN	9.670654	1.421653	0.487089	0.016410	-0.001611	0.021081	71.314104	-81.753561	-80.379967
10123	NaN	9.713949	1.403104	0.457330	0.011691	0.002313	0.029817	71.297779	-81.770275	-80.352638
10124	NaN	9.695453	1.396320	0.472182	-0.006304	-0.003304	0.030772	71.290077	-81.788322	-80.347452
10125	NaN	9.615003	1.300705	0.425733	-0.014865	0.001861	0.029838	71.258856	-81.805084	-80.330426
10126	NaN	9.572413	1.263291	0.402690	-0.013745	0.001864	0.032477	71.225082	-81.823103	-80.303210
10127	NaN	9.596165	1.315217	0.406757	-0.009420	0.000074	0.028988	71.205036	-81.839655	-80.287197
10128	NaN	9.577643	1.308326	0.421975	-0.001562	0.004309	0.034209	71.166509	-81.858158	-80.248129
10129	NaN	9.606487	1.336433	0.426123	-0.000494	-0.003678	0.026401	71.168910	-81.874079	-80.253599
10130	NaN	9.635372	1.364533	0.429736	0.005506	-0.005813	0.034335	71.172557	-81.894520	-80.253045
10131	NaN	9.702881	1.375375	0.437905	0.003339	-0.004913	0.036088	71.169300	-81.915953	-80.251129
10132	NaN	9.636572	1.408054	0.481888	-0.003626	-0.000977	0.039565	71.142363	-81.938336	-80.224969
10133	NaN	9.565141	1.413766	0.472602	-0.009626	-0.006611	0.043159	71.129142	-81.963891	-80.215774
10134	NaN	9.522292	1.450124	0.467193	-0.035903	-0.010732	0.045871	71.112677	-81.991499	-80.218870
10135	NaN	9.715389	1.185849	0.365098	-0.040581	-0.013200	0.036245	71.116418	-82.014535	-80.243579
10136	NaN	9.650553	0.919007	0.334297	-0.021249	-0.012236	0.033586	71.130453	-82.035762	-80.268993
10137	NaN	9.750142	1.110946	0.349817	0.009774	0.006565	0.037737	71.084133	-82.055898	-80.215708
10138	NaN	9.845463	1.051920	0.256878	0.019000	0.003305	0.024575	71.072827	-82.069355	-80.192251
10139	NaN	9.828888	1.023243	0.428925	0.010363	0.011138	0.018336	71.034394	-82.078032	-80.146173
10140	NaN	9.833015	0.971882	0.343059	0.018902	0.020822	0.011179	70.972600	-82.080961	-80.071800
10141	NaN	9.747018	1.079055	0.422619	0.015735	0.019757	0.000638	70.927562	-82.078557	-80.018485
10142	NaN	9.632023	1.105818	0.445080	0.003837	0.021397	-0.009931	70.883332	-82.069931	-79.970559
10143	NaN	9.587488	1.121684	0.354707	-0.007322	0.021629	-0.014326	70.838192	-82.059047	-79.929251
10144	NaN	9.696281	1.219880	0.319782	0.004311	0.016613	-0.009871	70.812907	-82.051345	-79.900176
10145	NaN	9.695695	1.296275	0.340168	0.004792	0.023148	-0.019621	70.776205	-82.037281	-79.858877
10146	NaN	9.614240	1.381533	0.420728	-0.011952	0.030700	-0.011784	70.689930	-82.025874	-79.777625
10147	NaN	9.623314	1.359352	0.389958	-0.023961	0.030762	-0.014418	70.600416	-82.013177	-79.701823
10148	NaN	9.608473	1.357261	0.373855	-0.031101	0.028682	-0.011749	70.511383	-82.002139	-79.628860
10149	NaN	9.627185	1.361978	0.362197	-0.033272	0.029587	-0.009992	70.415492	-81.992013	-79.553599
10150	NaN	9.627515	1.338129	0.400042	-0.039112	0.029984	-0.005589	70.308897	-81.984014	-79.467534
10151	NaN	9.670239	1.322316	0.374111	-0.037433	0.033877	-0.007378	70.191736	-81.974542	-79.370570
10152	NaN	9.651599	1.294228	0.427329	-0.043477	0.035342	-0.000345	70.055345	-81.968275	-79.256936
10153	NaN	9.641958	1.317521	0.465382	-0.047888	0.036257	-0.003858	69.918104	-81.959973	-79.144197
10154	NaN	9.627646	1.239901	0.431308	-0.051432	0.033798	-0.010857	69.798154	-81.948283	-79.051766
10155	NaN	9.665403	1.248043	0.405595	-0.041150	0.036941	-0.002955	69.661519	-81.940372	-78.940596
10156	NaN	9.646202	1.294735	0.477731	-0.035516	0.037623	-0.004707	69.528109	-81.931162	-78.825355
10157	NaN	9.627438	1.216219	0.478054	-0.032072	0.042752	-0.002977	69.375084	-81.921967	-78.692044
10158	NaN	9.693688	1.305301	0.510380	-0.023332	0.040046	-0.002945	69.237588	-81.913129	-78.565621
10159	NaN	9.640951	1.294479	0.524724	-0.027661	0.038301	-0.001166	69.101704	-81.905599	-78.444958
10160	NaN	9.669734	1.250518	0.514503	-0.026835	0.042026	-0.001182	68.952772	-81.897212	-78.309005
10161	NaN	9.688407	1.304807	0.557214	-0.016384	0.039664	-0.004670	68.824163	-81.887489	-78.187671
10162	NaN	9.668703	1.325638	0.542019	-0.022079	0.046086	0.000570	68.660802	-81.879099	-78.034385
10163	NaN	9.615971	1.314499	0.556365	-0.027401	0.034588	0.001526	68.536291	-81.873793	-77.928699
10164	NaN	9.587087	1.257775	0.468146	-0.028360	0.040634	-0.000260	68.391435	-81.866002	-77.797736
10165	NaN	9.634799	1.267784	0.496536	-0.031190	0.040300	0.000629	68.245163	-81.858853	-77.669759
10166	NaN	9.576853	1.330831	0.563880	-0.026378	0.037260	-0.001099	68.115739	-81.851243	-77.553234
10167	NaN	9.629223	1.341413	0.557549	-0.038045	0.030940	0.004205	67.995667	-81.847973	-77.456333
10168	NaN	9.595890	1.309504	0.590799	-0.045995	0.032963	-0.004595	67.876562	-81.839361	-77.361584
10169	NaN	9.639973	1.143900	0.526778	-0.040254	0.027426	-0.002795	67.778616	-81.833005	-77.289943
10170	NaN	9.591688	1.183692	0.558929	-0.019047	0.026924	0.003391	67.685537	-81.829891	-77.205887
10171	NaN	9.638551	1.292815	0.570885	-0.012964	0.029901	0.005149	67.582205	-81.827116	-77.110554
10172	NaN	9.619929	1.213741	0.569417	-0.015369	0.027443	0.000763	67.493469	-81.822456	-77.028754
10173	NaN	9.638893	1.217387	0.557468	-0.008146	0.026858	0.003416	67.407118	-81.819514	-76.948180
10174	NaN	9.671990	1.248811	0.530454	0.003437	0.024476	0.002563	67.337473	-81.816426	-76.874781
10175	NaN	9.642566	1.317141	0.512911	0.005403	0.024639	0.003447	67.266388	-81.813760	-76.804343
10176	NaN	9.647381	1.318096	0.603144	0.004329	0.025526	0.007842	67.185353	-81.813202	-76.718920
10177	NaN	9.647485	1.291936	0.517624	0.000673	0.021465	0.008730	67.115739	-81.814042	-76.646949
10178	NaN	9.642691	1.290593	0.553767	0.003926	0.019682	0.002587	67.064072	-81.811985	-76.591430
10179	NaN	9.623529	1.286177	0.570445	0.008935	0.023543	0.008745	66.991754	-81.812460	-76.514659
10180	NaN	9.628483	1.261594	0.572569	0.002205	0.019333	0.006106	66.934934	-81.812320	-76.454929
10181	NaN	9.638235	1.237808	0.540166	0.007276	0.016096	0.008767	66.888300	-81.814428	-76.408643
10182	NaN	9.647608	1.264047	0.561065	0.008780	0.017509	0.007889	66.839118	-81.815622	-76.352824
10183	NaN	9.633478	1.235463	0.577265	0.011884	0.014110	0.009667	66.801233	-81.818574	-76.308924
10184	NaN	9.628369	1.283139	0.544128	0.006413	0.015924	0.010529	66.752306	-81.821505	-76.254735
10185	NaN	9.652135	1.312221	0.584064	0.008044	0.007562	0.011437	66.733124	-81.826884	-76.234332
10186	NaN	9.661845	1.312674	0.516570	-0.000069	0.011526	0.012284	66.693750	-81.831726	-76.193546
10187	NaN	9.642791	1.307725	0.532409	-0.002497	0.012614	0.009636	66.653061	-81.834954	-76.153518
10188	NaN	9.614505	1.251161	0.563262	-0.005324	0.012278	0.010510	66.610644	-81.838684	-76.112701
10189	NaN	9.643077	1.280991	0.569126	-0.007475	0.009629	0.010512	66.576915	-81.843175	-76.083985
10190	NaN	9.623881	1.300739	0.550482	-0.012268	0.009131	0.010500	66.542004	-81.847610	-76.054770
10191	NaN	9.662403	1.282569	0.556553	-0.020751	0.008123	0.013119	66.501723	-81.853721	-76.025167
10192	NaN	9.648199	1.278227	0.537939	-0.007661	0.007142	0.011401	66.475236	-81.859079	-76.001797
10193	NaN	9.634010	1.273877	0.519130	-0.010029	0.005556	0.014039	66.448883	-81.866295	-75.981867
10194	NaN	9.662806	1.278571	0.558746	-0.010215	0.003069	0.014925	66.430185	-81.874433	-75.967844
10195	NaN	9.629528	1.269957	0.554446	-0.011110	0.006446	0.018437	66.392858	-81.883770	-75.938796
10196	NaN	9.615503	1.240427	0.569919	-0.008928	0.005545	0.016687	66.362849	-81.892263	-75.912604
10197	NaN	9.610768	1.262592	0.570259	-0.010621	0.001647	0.018452	66.343401	-81.902649	-75.898299
10198	NaN	9.615915	1.236856	0.570730	-0.007149	0.003219	0.018460	66.320016	-81.912604	-75.877769
10199	NaN	9.635374	1.214130	0.590733	-0.008658	0.001809	0.019341	66.299680	-81.923447	-75.860729
10200	NaN	9.640430	1.213143	0.556714	-0.000359	0.000323	0.017607	66.292186	-81.933620	-75.852320
10201	NaN	9.635776	1.210751	0.591108	-0.000632	0.004063	0.014959	66.275159	-81.941633	-75.833318
10202	NaN	9.655092	1.213311	0.576519	0.006191	-0.002386	0.012349	66.289988	-81.949672	-75.843666
10203	NaN	9.631560	1.181808	0.537480	0.002250	0.001722	0.019376	66.275863	-81.960572	-75.828341
10204	NaN	9.674583	1.238801	0.527407	0.010121	-0.002066	0.014123	66.288887	-81.969468	-75.834591
10205	NaN	9.641321	1.230335	0.522290	0.004889	-0.000431	0.019390	66.284627	-81.980914	-75.825453
10206	NaN	9.660769	1.207744	0.541684	0.007748	-0.003649	0.016764	66.297892	-81.991560	-75.833319
10207	NaN	9.651140	1.278809	0.506732	0.007290	-0.002397	0.015000	66.309380	-82.001121	-75.839296
10208	NaN	9.627685	1.198037	0.536036	-0.000116	-0.004284	0.013221	66.326371	-82.010053	-75.855474
10209	NaN	9.685381	1.183543	0.526189	0.000717	-0.000559	0.013217	66.330067	-82.018223	-75.857415
10210	NaN	9.637477	1.222356	0.555025	-0.002301	-0.003378	0.014977	66.339587	-82.027868	-75.867312
10211	NaN	9.647383	1.197868	0.520624	-0.000118	-0.004283	0.013224	66.356807	-82.036903	-75.883084
10212	NaN	9.661881	1.199664	0.539808	0.001391	-0.002873	0.012345	66.370929	-82.045050	-75.895492
10213	NaN	9.623731	1.190798	0.568793	0.003356	-0.002714	0.013232	66.384287	-82.053760	-75.906676
10214	NaN	9.638208	1.192755	0.588028	0.009877	-0.001881	0.009725	66.403901	-82.060303	-75.919720
10215	NaN	9.628849	1.189610	0.533893	0.014481	-0.003878	0.010624	66.432266	-82.067849	-75.938652
10216	NaN	9.638449	1.215730	0.552695	0.009904	-0.005431	0.007972	66.468235	-82.074282	-75.968193
10217	NaN	9.681783	1.174038	0.557282	0.006618	-0.004511	0.007080	66.500242	-82.080127	-75.997293
10218	NaN	9.658057	1.168141	0.483397	0.018845	-0.005690	0.007119	66.543815	-82.086165	-76.029337
10219	NaN	9.677114	1.221340	0.521676	0.022937	0.000667	0.009762	66.561581	-82.092268	-76.032879
10220	NaN	9.676980	1.295474	0.540377	0.014239	-0.003690	0.006223	66.596505	-82.097376	-76.058855
10221	NaN	9.653291	1.240214	0.535565	0.009608	0.001860	0.007076	66.606354	-82.101717	-76.061971
10222	NaN	9.643895	1.212638	0.516128	0.017039	0.000193	0.007105	66.626767	-82.106403	-76.071678
10223	NaN	9.634268	1.284478	0.481098	0.015338	-0.003701	0.008874	66.658143	-82.112996	-76.094007
10224	NaN	9.677614	1.242434	0.485926	0.006826	-0.001136	0.013248	66.667727	-82.121215	-76.098687
10225	NaN	9.687454	1.193491	0.486134	0.002441	-0.000205	0.009705	66.677130	-82.127445	-76.105820
10226	NaN	9.673265	1.164836	0.500776	0.011835	-0.001714	0.010623	66.696125	-82.134414	-76.117103
10227	NaN	9.659004	1.185703	0.446841	0.011116	0.003269	0.006199	66.703247	-82.138026	-76.115650
10228	NaN	9.639739	1.231490	0.515048	0.003494	0.002453	0.007057	66.707460	-82.142173	-76.116835
10229	NaN	9.682984	1.214424	0.485938	-0.002136	-0.001758	0.007051	66.724532	-82.147378	-76.135230
10230	NaN	9.668720	1.210780	0.466505	-0.001753	0.003214	0.005274	66.725772	-82.150414	-76.136450
10231	NaN	9.644776	1.205800	0.515673	-0.003718	0.003055	0.004387	66.727949	-82.153116	-76.140672
10232	NaN	9.649481	1.280773	0.500972	-0.010047	0.004714	0.007006	66.715860	-82.156724	-76.133235
10233	NaN	9.678364	1.236127	0.487070	-0.009158	0.001331	0.003492	66.722953	-82.159355	-76.145941
10234	NaN	9.659243	1.231838	0.502196	-0.013331	0.005635	0.006112	66.706924	-82.162284	-76.136425
10235	NaN	9.664142	1.207087	0.503054	-0.010266	0.005782	0.009649	66.686338	-82.167139	-76.120838
10236	NaN	9.649891	1.203148	0.484159	-0.017672	0.003901	0.007868	66.671535	-82.171384	-76.115071
10237	NaN	9.640276	1.200886	0.553281	-0.015970	0.007795	0.006101	66.645815	-82.173917	-76.097631
10238	NaN	9.673999	1.181382	0.471377	-0.022494	0.006970	0.009611	66.613586	-82.178381	-76.077062
10239	NaN	9.673920	1.230474	0.525727	-0.012907	0.007942	0.009642	66.583055	-82.182747	-76.053606
10240	NaN	9.678808	1.205587	0.526858	-0.011397	0.009349	0.008763	66.549425	-82.186220	-76.025206
10241	NaN	9.659711	1.225559	0.508514	-0.016026	0.014905	0.009620	66.490451	-82.188994	-75.975462
10242	NaN	9.635889	1.169943	0.505406	-0.020150	0.012106	0.008733	66.441232	-82.191814	-75.936389
10243	NaN	9.616748	1.165305	0.521326	-0.021444	0.009634	0.006972	66.403687	-82.194341	-75.909720
10244	NaN	9.664624	1.199187	0.512608	-0.013600	0.009379	0.003470	66.377424	-82.195017	-75.890031
10245	NaN	9.655062	1.147178	0.528441	-0.012928	0.007063	0.002595	66.361927	-82.195891	-75.882170
10246	NaN	9.664619	1.198459	0.514400	-0.015759	0.006737	0.003470	66.344538	-82.197172	-75.872687
10247	NaN	9.717332	1.109332	0.520721	-0.009686	0.008812	-0.001806	66.331681	-82.195339	-75.865252
10248	NaN	9.688574	1.078739	0.517040	-0.002087	0.013174	-0.000905	66.304828	-82.192842	-75.838309
10249	NaN	9.702803	1.081857	0.537833	0.006858	0.012904	-0.001758	66.285742	-82.190053	-75.813653
10250	NaN	9.736072	1.163626	0.563250	0.013811	0.016030	-0.001738	66.258513	-82.186457	-75.777136
10251	NaN	9.649953	1.096857	0.515853	0.013797	0.015151	-0.008791	66.246613	-82.179435	-75.755186
10252	NaN	9.668882	1.076799	0.537146	0.018755	0.021676	-0.007897	66.211107	-82.171302	-75.707453
10253	NaN	9.649408	1.173495	0.538306	0.023577	0.018608	-0.009636	66.192960	-82.163039	-75.675363
10254	NaN	9.620429	1.243425	0.519890	0.018327	0.019376	-0.011417	66.172026	-82.153589	-75.642586
10255	NaN	9.610721	1.217756	0.501945	0.013560	0.015339	-0.013192	66.166803	-82.144239	-75.628340
10256	NaN	9.596183	1.216199	0.483698	0.007667	0.014868	-0.015859	66.164423	-82.133503	-75.620457
10257	NaN	9.609945	1.270651	0.557729	0.004906	0.008316	-0.011452	66.177901	-82.126690	-75.631037
10258	NaN	9.643401	1.328044	0.494930	-0.001661	0.010160	-0.013246	66.183638	-82.118413	-75.636743
10259	NaN	9.643091	1.304562	0.530256	-0.004492	0.009832	-0.012375	66.187556	-82.110746	-75.641976
10260	NaN	9.686058	1.264456	0.536671	-0.006901	0.011808	-0.007978	66.175256	-82.104849	-75.632504
10261	NaN	9.685901	1.265113	0.537953	-0.004294	0.013204	-0.006204	66.156430	-82.099671	-75.614594
10262	NaN	9.647334	1.258049	0.568577	-0.009765	0.015035	-0.005347	66.125960	-82.094404	-75.588434
10263	NaN	9.633063	1.156076	0.565761	-0.008899	0.015207	-0.007105	66.098623	-82.088281	-75.563274
10264	NaN	9.628439	1.130443	0.513724	-0.003009	0.015681	-0.004433	66.068137	-82.083339	-75.533190
10265	NaN	9.652001	1.160753	0.554098	0.009672	0.013245	-0.002608	66.051226	-82.080024	-75.509041
10266	NaN	9.632744	1.182369	0.535532	0.015970	0.014260	-0.010511	66.047173	-82.072228	-75.494665
10267	NaN	9.651269	1.212577	0.609595	0.016909	0.008205	-0.008738	66.063454	-82.066842	-75.500231
10268	NaN	9.680366	1.243599	0.493088	0.017098	0.010694	-0.009618	66.071959	-82.060343	-75.497881
10269	NaN	9.665405	1.267002	0.562003	0.013623	0.009127	-0.009633	66.084453	-82.054289	-75.501274
10270	NaN	9.660487	1.316634	0.528289	0.000753	0.009071	-0.010580	66.091270	-82.047663	-75.506675
10271	NaN	9.636541	1.263001	0.524545	-0.007324	0.009503	-0.011503	66.093428	-82.040543	-75.512114
10272	NaN	9.622447	1.186107	0.487044	-0.005397	0.013218	-0.008850	66.078315	-82.033860	-75.498930
10273	NaN	9.640921	1.216120	0.561495	-0.002114	0.012298	-0.007950	66.066868	-82.027896	-75.488034
10274	NaN	9.654987	1.220073	0.582081	-0.004684	0.007346	-0.011485	66.078515	-82.021197	-75.501458
10275	NaN	9.669525	1.174004	0.549259	-0.001248	0.012471	-0.009706	66.069885	-82.014287	-75.493030
10276	NaN	9.650105	1.171313	0.564800	0.005769	0.008499	-0.013190	66.086012	-82.006427	-75.504931
10277	NaN	9.692851	1.231078	0.555705	0.002938	0.008168	-0.012323	66.100449	-81.999231	-75.517039
10278	NaN	9.663919	1.177071	0.585864	0.002067	0.007115	-0.017613	66.126847	-81.989374	-75.541455
10279	NaN	9.640103	1.148726	0.547434	0.000557	0.005705	-0.016738	66.156200	-81.980392	-75.569295
10280	NaN	9.668303	1.156661	0.587253	0.003800	0.007461	-0.021124	66.187936	-81.968611	-75.598100
10281	NaN	9.668038	1.158567	0.587860	0.008178	0.006531	-0.017573	66.219815	-81.959017	-75.624745
10282	NaN	9.677187	1.212319	0.573625	0.009002	0.009379	-0.024614	66.252944	-81.944959	-75.651948
10283	NaN	9.629169	1.204758	0.549749	0.010963	0.009541	-0.023718	66.284981	-81.931419	-75.677570
10284	NaN	9.633263	1.257846	0.569642	0.016663	0.007535	-0.020158	66.321882	-81.920120	-75.704152
10285	NaN	9.623226	1.332503	0.535565	0.012922	0.009704	-0.022820	66.352826	-81.907035	-75.727923
10286	NaN	9.565325	1.347581	0.545596	0.009453	0.009014	-0.015795	66.372935	-81.897681	-75.741717
10287	NaN	9.588653	1.404050	0.550852	0.005568	0.005136	-0.019337	66.410774	-81.887438	-75.775859
10288	NaN	9.550046	1.422567	0.545878	-0.000047	0.001793	-0.012326	66.446355	-81.881559	-75.810780
10289	NaN	9.612436	1.386336	0.537035	-0.009627	0.001681	-0.005343	66.465490	-81.879403	-75.834719
10290	NaN	9.626451	1.365312	0.591280	-0.003969	0.002351	-0.007068	66.488278	-81.876154	-75.858989
10291	NaN	9.679866	1.350762	0.494177	-0.005203	-0.001921	0.003490	66.509233	-81.879498	-75.881468
10292	NaN	9.679728	1.300963	0.562978	-0.006567	0.002712	0.005240	66.509496	-81.882632	-75.884487
10293	NaN	9.660630	1.321373	0.543531	-0.007663	0.002724	0.002593	66.513214	-81.884432	-75.892343
10294	NaN	9.636973	1.241555	0.573473	-0.011999	0.000977	0.004328	66.518226	-81.887483	-75.903304
10295	NaN	9.613535	1.210911	0.534789	-0.015511	0.002960	0.006067	66.511077	-81.891033	-75.903677
10296	NaN	9.585038	1.179765	0.530195	-0.008077	0.000421	-0.000929	66.528820	-81.891449	-75.925227
10297	NaN	9.598697	1.257565	0.568843	-0.007807	-0.003321	0.001714	66.556420	-81.894220	-75.956903
10298	NaN	9.617967	1.261346	0.553854	-0.003614	-0.007619	-0.000901	66.606373	-81.896478	-76.008405
10299	NaN	9.684999	1.299664	0.529384	0.000869	0.001053	0.005287	66.617099	-81.900058	-76.015900
10300	NaN	9.680138	1.323154	0.529125	0.000911	-0.002503	0.003527	66.643714	-81.903476	-76.041209
10301	NaN	9.680104	1.297990	0.563373	-0.001960	0.000718	0.006151	66.652702	-81.907622	-76.050000
10302	NaN	9.656585	1.242498	0.558862	-0.008302	0.002366	0.008755	66.647702	-81.912683	-76.048708
10303	NaN	9.675781	1.220928	0.579049	-0.007890	0.003791	0.005236	66.643272	-81.915645	-76.048335
10304	NaN	9.666656	1.218050	0.525572	-0.011546	-0.000271	0.006095	66.650434	-81.919906	-76.061204
10305	NaN	9.652379	1.189868	0.540451	-0.003512	0.001983	0.001741	66.660972	-81.921414	-76.071022
10306	NaN	9.647608	1.238093	0.506300	-0.001135	0.004447	0.006157	66.656524	-81.924636	-76.066139
10307	NaN	9.604411	1.278379	0.501080	0.001324	-0.000200	0.007052	66.669377	-81.929459	-76.076800
10308	NaN	9.618707	1.280718	0.520837	-0.000680	0.003195	0.007921	66.667008	-81.933893	-76.073754
10309	NaN	9.623206	1.330705	0.540370	-0.003056	0.001610	0.010549	66.664544	-81.940083	-76.073981
10310	NaN	9.618436	1.353581	0.540345	-0.006527	0.000039	0.010529	66.666372	-81.946606	-76.078557
10311	NaN	9.614177	1.301628	0.521168	-0.016114	-0.000948	0.010474	66.666439	-81.953410	-76.088125
10312	NaN	9.652553	1.258579	0.561071	-0.016382	0.003674	0.014879	66.642097	-81.961395	-76.071974
10313	NaN	9.681764	1.213145	0.547011	-0.015848	-0.004688	0.013119	66.652096	-81.970409	-76.089339
10314	NaN	9.643453	1.204026	0.576271	-0.012912	0.005246	0.014903	66.623785	-81.978050	-76.067173
10315	NaN	9.658555	1.180348	0.508499	-0.012192	-0.000625	0.012263	66.621861	-81.985718	-76.073534
10316	NaN	9.672757	1.157492	0.562500	-0.006530	0.000040	0.010535	66.623666	-81.992244	-76.078089
10317	NaN	9.687650	1.109689	0.528675	0.002190	-0.000029	0.005298	66.639324	-81.996105	-76.090798
10318	NaN	9.648937	1.200963	0.542625	0.009588	0.001859	0.007102	66.649126	-82.000412	-76.094102
10319	NaN	9.639089	1.223487	0.576743	0.011097	0.003270	0.006231	66.655647	-82.003962	-76.094166
10320	NaN	9.644177	1.223852	0.542597	0.015930	0.000206	0.004496	66.679501	-82.007273	-76.107991
10321	NaN	9.634520	1.270958	0.542146	0.013097	0.000753	0.012410	66.687006	-82.014716	-76.106905
10322	NaN	9.658174	1.300196	0.581030	0.012456	-0.001364	0.004477	66.714821	-82.018371	-76.126740
10323	NaN	9.620522	1.266494	0.522107	0.000906	-0.001624	0.010578	66.727033	-82.025352	-76.138042
10324	NaN	9.639903	1.269338	0.507414	-0.001057	-0.001782	0.009686	66.740305	-82.031842	-76.151010
10325	NaN	9.644893	1.244594	0.507373	-0.005624	-0.003338	0.007016	66.761564	-82.037426	-76.173645
10326	NaN	9.644829	1.219166	0.541552	-0.008267	-0.001179	0.007001	66.772819	-82.042366	-76.188745
10327	NaN	9.616312	1.187859	0.536557	-0.005209	-0.001914	0.003494	66.794470	-82.045748	-76.212919
10328	NaN	9.649838	1.194254	0.541399	-0.003435	-0.004245	0.005266	66.822897	-82.050464	-76.242563
10329	NaN	9.625820	1.213881	0.555229	-0.001434	-0.007642	0.004396	66.866603	-82.055565	-76.288091
10330	NaN	9.645017	1.192339	0.574389	0.000943	-0.005180	0.008816	66.895428	-82.062357	-76.315603
10331	NaN	9.669381	1.196363	0.525263	0.002227	-0.003583	0.003537	66.927634	-82.066084	-76.345126
10332	NaN	9.640503	1.239953	0.538921	0.007285	-0.006836	0.006208	66.970652	-82.071868	-76.383300
10333	NaN	9.621366	1.235658	0.552718	0.003359	-0.007152	0.004424	67.015207	-82.076841	-76.428029
10334	NaN	9.640693	1.239066	0.537564	0.005510	-0.004504	0.004437	67.051324	-82.081162	-76.460260
10335	NaN	9.640790	1.238576	0.536944	0.002490	-0.007324	0.006183	67.093672	-82.087109	-76.500793
10336	NaN	9.607410	1.231342	0.531317	0.005057	-0.003253	0.002672	67.127686	-82.090213	-76.531164
10337	NaN	9.607304	1.206474	0.565091	0.000300	-0.007297	0.000883	67.177122	-82.093295	-76.579535
10338	NaN	9.602868	1.155408	0.544856	0.006678	-0.011628	0.003563	67.242576	-82.098721	-76.640708
10339	NaN	9.645796	1.188983	0.568219	0.015812	-0.009400	0.001851	67.307561	-82.102775	-76.695275
10340	NaN	9.646051	1.213401	0.532667	0.023473	-0.011254	0.006303	67.377018	-82.109547	-76.750773
10341	NaN	9.660095	1.290809	0.569918	0.027622	-0.012002	0.005448	67.453194	-82.116082	-76.809954
10342	NaN	9.646157	1.311907	0.514583	0.023244	-0.010183	0.008952	67.514445	-82.124003	-76.857299
10343	NaN	9.637082	1.308822	0.459606	0.019092	-0.009432	0.009812	67.569412	-82.132261	-76.898423
10344	NaN	9.656517	1.311615	0.443530	0.018520	-0.016897	0.012462	67.648395	-82.143492	-76.966398
10345	NaN	9.695193	1.318054	0.412851	0.000372	-0.012634	0.011476	67.702710	-82.153376	-77.018372
10346	NaN	9.700249	1.292883	0.411925	-0.001173	-0.010486	0.014111	67.743475	-82.164070	-77.059154
10347	NaN	9.676016	1.361791	0.478763	-0.016871	-0.010869	0.014026	67.776788	-82.174873	-77.103476
10348	NaN	9.657300	1.281570	0.473651	-0.027360	-0.008456	0.017497	67.789564	-82.186919	-77.131150
10349	NaN	9.676779	1.283560	0.458681	-0.030645	-0.007532	0.016602	67.798355	-82.198304	-77.155283
10350	NaN	9.648243	1.226356	0.487698	-0.030840	-0.010018	0.017490	67.815318	-82.210682	-77.189193
10351	NaN	9.662981	1.152602	0.487631	-0.026273	-0.008463	0.020162	67.824812	-82.224217	-77.212722
10352	NaN	9.691954	1.081830	0.507098	-0.014499	-0.008402	0.018458	67.843477	-82.236757	-77.238899
10353	NaN	9.677924	1.076919	0.487137	-0.002788	-0.001233	0.020275	67.837943	-82.248774	-77.235357
10354	NaN	9.706811	1.105892	0.491674	0.016645	-0.003921	0.015958	67.861045	-82.259019	-77.248001
10355	NaN	9.673375	1.172471	0.505216	0.016643	-0.003920	0.015961	67.884612	-82.269358	-77.258419
10356	NaN	9.693077	1.124762	0.436700	0.020985	-0.002185	0.014218	67.906268	-82.278303	-77.267094
10357	NaN	9.664412	1.167720	0.450626	0.017251	-0.000009	0.011553	67.921565	-82.285433	-77.271293
10358	NaN	9.659727	1.190823	0.450270	0.012229	-0.000310	0.007119	67.942193	-82.290204	-77.283993
10359	NaN	9.697986	1.247771	0.474420	-0.003472	-0.000676	0.007042	67.955956	-82.295141	-77.296511
10360	NaN	9.688386	1.195824	0.489395	-0.008076	0.000442	-0.000923	67.974810	-82.295479	-77.319160
10361	NaN	9.693391	1.196146	0.455299	-0.013928	-0.001810	0.008757	67.983886	-82.301525	-77.335259
10362	NaN	9.640744	1.185033	0.465093	-0.002217	0.004468	0.003515	67.983247	-82.303354	-77.334849
10363	NaN	9.644965	1.335596	0.591317	-0.017181	-0.004440	0.006098	68.004766	-82.308519	-77.366680
10364	NaN	9.664705	1.139047	0.485296	-0.015956	0.004260	0.004333	67.995773	-82.310828	-77.365784
10365	NaN	9.656060	0.961250	0.305782	0.018987	0.000323	0.008032	68.016467	-82.315956	-77.372423
10366	NaN	9.635975	1.256680	0.518835	0.021787	0.004205	0.008927	68.022017	-82.320717	-77.364381
10367	NaN	9.631933	1.204558	0.377857	0.006053	0.006512	0.003554	68.018058	-82.322146	-77.353775
10368	NaN	9.660292	1.185694	0.451682	0.008269	0.002044	0.000039	68.038516	-82.322649	-77.368591
10369	NaN	9.645773	1.232635	0.485893	0.001903	0.007269	0.004415	68.027700	-82.324393	-77.355303
10370	NaN	9.689008	1.215957	0.457491	-0.000480	0.004806	-0.000007	68.032332	-82.324278	-77.359208
10371	NaN	9.640965	1.256352	0.486833	-0.006593	0.005406	-0.000038	68.030997	-82.324031	-77.360118
10372	NaN	9.645718	1.232413	0.487556	-0.012031	0.003688	-0.000946	68.034913	-82.323657	-77.369979
10373	NaN	9.650494	1.208333	0.488159	-0.012450	0.002269	0.002583	68.039311	-82.325699	-77.380791
10374	NaN	9.621966	1.202234	0.449413	-0.012032	0.003689	-0.000945	68.043224	-82.325326	-77.390649
10375	NaN	9.621740	1.177611	0.484289	-0.010519	0.005095	-0.001820	68.044488	-82.324318	-77.394368
10376	NaN	9.674432	1.188130	0.475236	-0.003956	0.003244	-0.000021	68.053310	-82.324531	-77.404511
10377	NaN	9.645591	1.232426	0.490028	-0.001381	0.007308	-0.003541	68.053233	-82.322094	-77.404803
10378	NaN	9.655109	1.184607	0.491061	-0.008782	0.006320	0.001718	68.044400	-82.322572	-77.399922
10379	NaN	9.640812	1.181688	0.472129	-0.004857	0.005746	-0.003557	68.048895	-82.320549	-77.407000
10380	NaN	9.655003	1.184944	0.492333	-0.002894	0.005902	-0.002664	68.052044	-82.318788	-77.410804
10381	NaN	9.659949	1.185747	0.458830	-0.003988	0.006801	0.001743	68.044199	-82.319247	-77.403250
10382	NaN	9.669186	1.187933	0.513235	-0.000931	0.006058	-0.001771	68.046441	-82.317927	-77.405004
10383	NaN	9.673913	1.164167	0.514041	0.002544	0.007620	-0.001754	68.044357	-82.316345	-77.401506
10384	NaN	9.664599	1.162178	0.460826	-0.005051	0.003258	-0.002674	68.056696	-82.315145	-77.415831
10385	NaN	9.664341	1.137669	0.495676	0.002544	0.007621	-0.001753	68.054586	-82.313487	-77.409921
10386	NaN	9.645269	1.158726	0.476508	-0.000482	0.004807	-0.000003	68.059202	-82.313374	-77.413811
10387	NaN	9.630955	1.156094	0.457447	0.001676	0.006567	-0.007052	68.068809	-82.309117	-77.422702
10388	NaN	9.664100	1.138926	0.497485	0.004058	0.008143	-0.009686	68.078231	-82.303144	-77.428818
10389	NaN	9.664172	1.164566	0.463731	0.009978	0.005055	-0.008772	68.101801	-82.298416	-77.446480
10390	NaN	9.673494	1.192378	0.483607	0.008658	0.006137	-0.008778	68.120273	-82.293354	-77.459068
10391	NaN	9.664104	1.191142	0.430517	0.010363	0.010033	-0.010533	68.127532	-82.286644	-77.458192
10392	NaN	9.653933	1.190674	0.499434	0.010845	0.005226	-0.010528	68.153548	-82.280844	-77.477129
10393	NaN	9.668228	1.219362	0.485260	0.015605	0.009267	-0.008737	68.163234	-82.275228	-77.481012
10394	NaN	9.672521	1.246340	0.539424	0.019336	0.007093	-0.006067	68.179745	-82.271402	-77.485448
10395	NaN	9.639109	1.265173	0.500544	0.017792	0.008356	-0.010485	68.196939	-82.265022	-77.494809
10396	NaN	9.682254	1.249707	0.472160	0.015410	0.006780	-0.007851	68.215192	-82.260314	-77.503274
10397	NaN	9.634225	1.216003	0.482111	0.013705	0.002885	-0.006094	68.244535	-82.257459	-77.528499
10398	NaN	9.663030	1.271896	0.452868	0.012158	0.005035	-0.003457	68.260861	-82.255459	-77.536900
10399	NaN	9.643724	1.268491	0.467684	0.010646	0.003627	-0.002583	68.280115	-82.254203	-77.549351
10400	NaN	9.619396	1.264238	0.516903	-0.003574	0.008219	-0.001791	68.272362	-82.252413	-77.542547
10401	NaN	9.658025	1.197247	0.469342	-0.000031	0.002669	-0.005294	68.294263	-82.249977	-77.559040
10402	NaN	9.643313	1.244819	0.503353	0.003892	0.002985	-0.003505	68.313925	-82.248384	-77.575587
10403	NaN	9.643478	1.170258	0.484510	-0.000450	0.001250	-0.001768	68.334961	-82.248096	-77.596385
10404	NaN	9.667295	1.225081	0.489426	0.006496	0.004382	-0.001725	68.347875	-82.247154	-77.604617
10405	NaN	9.667244	1.225325	0.489829	0.008007	0.005790	-0.002598	68.357094	-82.245418	-77.608453
10406	NaN	9.652979	1.222467	0.470671	0.009099	0.005779	0.000055	68.363268	-82.245129	-77.608377
10407	NaN	9.652950	1.222545	0.471062	0.008457	0.004541	-0.000830	68.375493	-82.244729	-77.614497
10408	NaN	9.657542	1.273250	0.490829	0.002532	0.008514	0.005304	68.359067	-82.246658	-77.595409
10409	NaN	9.624517	1.216057	0.432905	0.002153	0.002647	0.000013	68.373110	-82.246974	-77.608092
10410	NaN	9.652941	1.222153	0.472253	-0.001961	-0.000158	-0.000895	68.397649	-82.247432	-77.632946
10411	NaN	9.662544	1.174319	0.472964	-0.001805	0.005889	-0.000015	68.397400	-82.247127	-77.631132
10412	NaN	9.657681	1.198461	0.473299	-0.000708	0.004988	-0.004417	68.407974	-82.244621	-77.641168
10413	NaN	9.676886	1.202417	0.459307	-0.001806	0.005889	-0.000015	68.407673	-82.244379	-77.641816
10414	NaN	9.628929	1.168127	0.469379	-0.000900	0.002500	-0.003535	68.426499	-82.242867	-77.660291
10415	NaN	9.652478	1.198462	0.508831	0.004725	0.006713	-0.003499	68.432292	-82.240587	-77.661451
10416	NaN	9.657478	1.199409	0.475037	0.001511	0.001408	-0.000872	68.452642	-82.240723	-77.680070
10417	NaN	9.652621	1.223528	0.475240	0.005367	0.007952	-0.002613	68.452625	-82.238620	-77.673360
10418	NaN	9.647753	1.247701	0.475493	0.007814	0.003303	-0.001712	68.470470	-82.237909	-77.685805
10419	NaN	9.642657	1.247269	0.509811	0.005211	0.001905	-0.003493	68.495251	-82.236664	-77.707155
10420	NaN	9.647675	1.248125	0.475953	0.001474	0.004967	0.000890	68.498941	-82.236990	-77.708981
10421	NaN	9.657286	1.200215	0.476903	-0.001806	0.005889	-0.000015	68.498866	-82.236711	-77.706658
10422	NaN	9.690979	1.231603	0.448046	0.004113	0.002806	0.000909	68.512489	-82.237501	-77.716983
10423	NaN	9.633390	1.245239	0.457554	0.003442	0.004235	-0.005270	68.529694	-82.234652	-77.727307
10424	NaN	9.637650	1.172354	0.527091	-0.003576	0.008219	-0.001792	68.521901	-82.232866	-77.720464
10425	NaN	9.671534	1.129329	0.479396	0.002800	0.002997	-0.006155	68.544993	-82.229975	-77.742539
10426	NaN	9.666877	1.178486	0.445069	0.009553	0.003642	-0.005226	68.567876	-82.227317	-77.759063
10427	NaN	9.637635	1.198548	0.493996	0.007104	0.008292	-0.006126	68.572420	-82.223245	-77.759034
10428	NaN	9.666415	1.155227	0.480522	0.006691	0.005983	-0.009655	68.591281	-82.217734	-77.773155
10429	NaN	9.666283	1.156200	0.480844	0.010650	0.002743	-0.009624	68.625426	-82.213001	-77.797634
10430	NaN	9.651907	1.253615	0.446167	0.014952	0.008040	-0.009594	68.640852	-82.207091	-77.803509
10431	NaN	9.646929	1.278481	0.446535	0.007330	0.007223	-0.008767	68.653656	-82.201841	-77.812035
10432	NaN	9.632344	1.251753	0.461781	0.001258	0.004256	-0.010574	68.677433	-82.196196	-77.834261
10433	NaN	9.641840	1.205050	0.462699	0.003637	0.005834	-0.013201	68.700562	-82.188899	-77.853742
10434	NaN	9.680164	1.213965	0.434436	-0.002735	0.010164	-0.015895	68.707070	-82.179182	-77.860846
10435	NaN	9.626662	1.254964	0.497858	-0.002664	0.003937	-0.012364	68.732490	-82.172688	-77.886015
10436	NaN	9.684035	1.242917	0.489236	-0.006396	0.006107	-0.015037	68.751295	-82.164272	-77.907650
10437	NaN	9.660049	1.189760	0.485182	0.000583	0.005687	-0.016746	68.778260	-82.155070	-77.932700
10438	NaN	9.669163	1.218282	0.505185	-0.001607	0.006598	-0.014999	68.797751	-82.146571	-77.952259
10439	NaN	9.630648	1.236765	0.500427	-0.003117	0.005188	-0.014127	68.820466	-82.138845	-77.974515
10440	NaN	9.668751	1.221002	0.506489	0.004462	0.009570	-0.013188	68.829147	-82.130696	-77.979652
10441	NaN	9.659470	1.219935	0.453286	0.006274	0.003682	-0.013172	68.861726	-82.123913	-78.009537
10442	NaN	9.654198	1.220500	0.487817	0.010383	0.006494	-0.012258	68.884232	-82.116895	-78.025206
10443	NaN	9.682586	1.252546	0.493338	0.005780	0.008492	-0.013175	68.897503	-82.109013	-78.035124
10444	NaN	9.625446	1.216990	0.449917	0.006648	0.008663	-0.014929	68.913419	-82.100119	-78.046300
10445	NaN	9.648701	1.248513	0.489644	0.009929	0.007746	-0.014020	68.933618	-82.091949	-78.057373
10446	NaN	9.653601	1.250562	0.456068	0.008420	0.006336	-0.013150	68.956800	-82.084485	-78.074861
10447	NaN	9.657808	1.302841	0.475728	0.006459	0.006175	-0.014045	68.980982	-82.076652	-78.093154
10448	NaN	9.652966	1.228721	0.491546	0.003177	0.007092	-0.014952	69.000836	-82.068066	-78.110316
10449	NaN	9.614429	1.247122	0.486855	0.000986	0.008000	-0.013208	69.013318	-82.060249	-78.120322
10450	NaN	9.628388	1.251584	0.507024	0.002350	0.003362	-0.014956	69.046928	-82.052424	-78.151850
10451	NaN	9.662333	1.209808	0.459485	-0.000559	0.009260	-0.017623	69.060388	-82.042020	-78.162517
10452	NaN	9.656963	1.210831	0.494400	0.006872	0.007600	-0.017559	69.084068	-82.031932	-78.181404
10453	NaN	9.646928	1.260228	0.494534	0.009922	0.007755	-0.014009	69.103632	-82.023787	-78.195631
10454	NaN	9.651833	1.262356	0.460963	0.009283	0.006514	-0.014893	69.128858	-82.015346	-78.214685
10455	NaN	9.665769	1.266944	0.481128	0.004493	0.006018	-0.014933	69.153265	-82.006986	-78.233434
10456	NaN	9.655708	1.316329	0.481191	0.008828	0.007765	-0.016656	69.175926	-81.997343	-78.250162
10457	NaN	9.660408	1.293756	0.482142	0.002070	0.007995	-0.010550	69.185077	-81.990958	-78.255422
10458	NaN	9.640936	1.291190	0.497148	0.002347	0.003365	-0.014947	69.218222	-81.983124	-78.286489
10459	NaN	9.664929	1.272455	0.483452	0.000978	0.008003	-0.013199	69.230306	-81.975273	-78.295038
10460	NaN	9.645454	1.269836	0.498694	0.000108	0.007832	-0.011445	69.240065	-81.968406	-78.303782
10461	NaN	9.612058	1.288632	0.459703	0.002115	0.004436	-0.012306	69.265095	-81.961822	-78.326415
10462	NaN	9.645101	1.272061	0.499840	0.004027	0.008161	-0.009648	69.273231	-81.955850	-78.331254
10463	NaN	9.640010	1.296872	0.500312	0.001198	0.007825	-0.008793	69.279273	-81.950318	-78.334571
10464	NaN	9.664073	1.277722	0.486666	0.001246	0.004265	-0.010551	69.301844	-81.944651	-78.355598
10465	NaN	9.635653	1.272380	0.447808	-0.000946	0.005170	-0.008810	69.316945	-81.939703	-78.369391
10466	NaN	9.640218	1.225030	0.482878	0.002346	0.003368	-0.014941	69.349742	-81.931862	-78.400110
10467	NaN	9.673670	1.257743	0.454115	0.002518	0.006749	-0.008778	69.361018	-81.926647	-78.407577
10468	NaN	9.663633	1.306502	0.454027	0.002567	0.003189	-0.010537	69.388272	-81.921200	-78.432570
10469	NaN	9.644192	1.303697	0.468898	-0.000079	0.005343	-0.010561	69.406072	-81.915414	-78.449740
10470	NaN	9.624763	1.300803	0.483765	0.001698	0.003017	-0.008784	69.430930	-81.910940	-78.472816
10471	NaN	9.624627	1.301705	0.484031	0.004526	0.003355	-0.009638	69.457379	-81.905976	-78.494910
10472	NaN	9.648759	1.282268	0.470268	-0.004878	0.005730	-0.003565	69.460811	-81.903754	-78.500152
10473	NaN	9.620203	1.251966	0.465792	0.001698	0.003017	-0.008783	69.485372	-81.899271	-78.523039
10474	NaN	9.648549	1.283587	0.470972	0.002788	0.003010	-0.006133	69.507057	-81.896216	-78.542280
10475	NaN	9.648442	1.284276	0.471290	0.002333	0.004260	-0.007897	69.526229	-81.891989	-78.557859
10476	NaN	9.658255	1.237156	0.472213	0.001465	0.004087	-0.006145	69.543083	-81.888711	-78.572987
10477	NaN	9.628935	1.281818	0.486510	0.007121	0.004763	-0.007852	69.562917	-81.884410	-78.587792
10478	NaN	9.633789	1.258611	0.487156	0.001464	0.004087	-0.006145	69.579740	-81.881130	-78.602890
10479	NaN	9.676459	1.317861	0.477585	0.004111	0.001934	-0.006120	69.606137	-81.878296	-78.624226
10480	NaN	9.633612	1.259815	0.487551	-0.000677	0.001430	-0.006164	69.631728	-81.875534	-78.649420
10481	NaN	9.672097	1.268010	0.459049	0.001412	0.007648	-0.004385	69.632804	-81.872550	-78.647139
10482	NaN	9.681141	1.295690	0.478921	0.008443	0.003688	-0.007837	69.657434	-81.868438	-78.666084
10483	NaN	9.647833	1.313841	0.439784	0.008158	0.008318	-0.003441	69.658432	-81.865860	-78.662086
10484	NaN	9.628247	1.285921	0.489304	0.008391	0.007249	-0.006077	69.667173	-81.861984	-78.665012
10485	NaN	9.633331	1.287132	0.455526	0.008029	0.002266	-0.004321	69.691731	-81.860041	-78.683749
10486	NaN	9.647380	1.290715	0.475424	0.007340	0.004585	-0.003448	69.706206	-81.858107	-78.693074
10487	NaN	9.633204	1.287901	0.456051	0.003877	0.003004	-0.003481	69.724547	-81.856505	-78.708751
10488	NaN	9.633148	1.288213	0.456346	0.004512	0.004246	-0.002595	69.737481	-81.855096	-78.718156
10489	NaN	9.647006	1.267057	0.510841	0.005148	0.005489	-0.001709	69.744505	-81.853839	-78.719074
10490	NaN	9.642166	1.315921	0.476366	0.005434	0.000858	-0.006103	69.775537	-81.851214	-78.746228
10491	NaN	9.632766	1.264727	0.491535	0.005836	0.003171	-0.002581	69.793337	-81.850014	-78.756051
10492	NaN	9.652213	1.293403	0.442881	0.005835	0.003171	-0.002581	69.811028	-81.848824	-78.769497
10493	NaN	9.656117	1.319981	0.496780	0.007741	0.006899	0.000076	69.812215	-81.848349	-78.763712
10494	NaN	9.646955	1.293012	0.477801	0.007794	0.003337	-0.001681	69.829156	-81.847609	-78.775266
10495	NaN	9.646923	1.293120	0.478141	0.004278	0.005317	0.000042	69.834012	-81.847340	-78.773582
10496	NaN	9.646930	1.292971	0.478412	0.006511	0.001743	0.003584	69.848946	-81.849746	-78.783850
10497	NaN	9.647148	1.317325	0.444367	0.003590	0.007636	0.000914	69.843414	-81.849478	-78.772985
10498	NaN	9.646924	1.292787	0.479027	0.000688	-0.002319	-0.000872	69.876413	-81.850288	-78.804873
10499	NaN	9.627624	1.288923	0.493648	0.006871	0.006727	0.001828	69.875347	-81.850791	-78.796775
10500	NaN	9.623674	1.262456	0.440608	0.003643	0.004074	-0.000843	69.885986	-81.850354	-78.804364
10501	NaN	9.632777	1.289598	0.460259	0.002139	0.002659	0.000021	69.899558	-81.850632	-78.814857
10502	NaN	9.642723	1.241765	0.461221	0.001450	0.004978	0.000893	69.903157	-81.850952	-78.816604
10503	NaN	9.651835	1.268779	0.480987	0.002774	0.003902	0.000907	69.911554	-81.851509	-78.821153
10504	NaN	9.618639	1.286296	0.441680	-0.001143	0.003568	-0.000892	69.921419	-81.851145	-78.830731
10505	NaN	9.665879	1.272056	0.501546	-0.000328	0.007303	-0.000884	69.918038	-81.850169	-78.825996
10506	NaN	9.656713	1.245137	0.482658	0.001049	0.002664	-0.002628	69.934936	-81.849049	-78.841409
10507	NaN	9.675940	1.249407	0.468572	0.004926	0.005669	-0.006106	69.947188	-81.845484	-78.852036
10508	NaN	9.665662	1.273162	0.502920	0.009477	0.007246	-0.003420	69.952779	-81.843036	-78.851149
10509	NaN	9.646735	1.318811	0.448896	0.006704	0.003344	-0.004327	69.972478	-81.840878	-78.866521
10510	NaN	9.636250	1.317899	0.517499	0.003187	0.005324	-0.002606	69.980561	-81.839246	-78.871793
10511	NaN	9.632526	1.316185	0.430044	0.000360	0.004984	-0.001756	69.986919	-81.838202	-78.879111
10512	NaN	9.646546	1.319762	0.450155	-0.003322	0.003578	-0.006192	70.002718	-81.834981	-78.895944
10513	NaN	9.646253	1.295462	0.485270	-0.008631	0.008775	0.000786	69.986104	-81.834463	-78.881707
10514	NaN	9.627122	1.316356	0.465882	-0.000040	0.002670	-0.005277	70.005932	-81.831912	-78.900712
10515	NaN	9.612971	1.313522	0.446466	-0.008522	0.001650	-0.002729	70.020772	-81.830851	-78.918629
10516	NaN	9.631788	1.268392	0.501154	-0.002648	0.002152	-0.000028	70.033880	-81.831227	-78.932354
10517	NaN	9.627024	1.316821	0.466585	-0.001324	0.001076	-0.000014	70.051705	-81.831822	-78.948674
10518	NaN	9.641109	1.320016	0.486327	0.000000	0.000000	0.000000	70.074371	-81.832632	-78.970523
10519	NaN	9.651066	1.272303	0.487076	-0.001778	0.002325	-0.001778	70.089708	-81.832045	-78.984860
10520	NaN	9.651052	1.272387	0.487139	0.001324	-0.001076	0.000014	70.117157	-81.833070	-79.010774
10521	NaN	9.665140	1.275597	0.506755	0.004785	0.000507	0.000051	70.140420	-81.833764	-79.028219
10522	NaN	9.646053	1.296357	0.486866	0.004965	0.003000	-0.000826	70.155798	-81.833541	-79.039831
10523	NaN	9.608775	1.262830	0.428358	0.001268	0.002487	0.001772	70.167334	-81.834847	-79.049953
10524	NaN	9.665122	1.275512	0.507310	0.004096	0.002827	0.000923	70.180494	-81.835599	-79.059828
10525	NaN	9.670563	1.300794	0.438791	0.009806	-0.000055	-0.002532	70.212095	-81.835054	-79.085160
10526	NaN	9.656456	1.297739	0.419156	0.002138	0.002660	0.000023	70.225983	-81.835352	-79.096903
10527	NaN	9.626677	1.292685	0.502191	0.002317	0.005152	-0.000855	70.231755	-81.834720	-79.098869
10528	NaN	9.631892	1.293285	0.468352	0.002592	0.001411	0.001787	70.248216	-81.836211	-79.112948
10529	NaN	9.631854	1.293542	0.468421	-0.001308	0.000183	-0.007049	70.278916	-81.833162	-79.141942
10530	NaN	9.656123	1.273650	0.454429	0.000399	0.002314	0.003522	70.288394	-81.835412	-79.150236
10531	NaN	9.647037	1.246389	0.435345	0.005599	0.004243	0.000061	70.298365	-81.835419	-79.152576
10532	NaN	9.640917	1.320629	0.488463	0.004095	0.002827	0.000924	70.311535	-81.836168	-79.162461
10533	NaN	9.675416	1.277357	0.440716	0.004331	0.001757	-0.001711	70.332253	-81.835698	-79.178587
10534	NaN	9.631785	1.293689	0.469432	0.006922	0.003168	0.000076	70.346905	-81.835923	-79.188332
10535	NaN	9.660166	1.324733	0.474517	0.004330	0.001757	-0.001711	70.367380	-81.835485	-79.208171
10536	NaN	9.631989	1.318318	0.435496	-0.002704	0.005715	0.001728	70.364719	-81.836111	-79.205998
10537	NaN	9.640852	1.320644	0.489706	0.000398	0.002315	0.003522	70.374464	-81.838412	-79.211981
10538	NaN	9.646086	1.321182	0.455817	-0.001778	0.002324	-0.001779	70.389797	-81.837798	-79.227449
10539	NaN	9.651049	1.297403	0.456333	-0.003281	0.000908	-0.000916	70.408363	-81.837939	-79.245770
10540	NaN	9.617407	1.265781	0.485772	-0.004841	0.003055	0.001705	70.414522	-81.839064	-79.253744
10541	NaN	9.636967	1.294043	0.437189	-0.002648	0.002152	-0.000029	70.427614	-81.839457	-79.266035
10542	NaN	9.631734	1.293321	0.471489	-0.002193	0.000903	0.001735	70.443358	-81.841010	-79.282160
10543	NaN	9.645845	1.296167	0.491469	-0.007904	0.003786	0.005189	70.440319	-81.843852	-79.280114
10544	NaN	9.651093	1.296570	0.457761	-0.001144	0.003568	-0.000892	70.450148	-81.843476	-79.289655
10545	NaN	9.631771	1.292684	0.472490	-0.003517	0.001979	0.001720	70.461229	-81.844896	-79.301310
10546	NaN	9.631755	1.292757	0.472620	-0.003046	-0.000162	-0.003551	70.487578	-81.843797	-79.328641
10547	NaN	9.617679	1.289536	0.453004	-0.007849	0.000223	0.003431	70.500588	-81.846467	-79.344073
10548	NaN	9.631771	1.292539	0.472882	-0.007433	0.001645	-0.000082	70.512985	-81.846895	-79.359847
10549	NaN	9.646978	1.245317	0.439706	-0.006799	0.002888	0.000805	70.519570	-81.847604	-79.371822
10550	NaN	9.655190	1.347146	0.478132	-0.008303	0.001472	0.001668	70.529789	-81.849009	-79.385901
10551	NaN	9.651074	1.296179	0.459264	-0.002412	0.001082	-0.002664	70.550710	-81.848217	-79.407178
10552	NaN	9.645823	1.295505	0.493639	-0.012455	0.002208	0.002503	70.554667	-81.849932	-79.417334
10553	NaN	9.670379	1.299911	0.445416	-0.011350	0.001312	-0.001882	70.568006	-81.849401	-79.435791
10554	NaN	9.612685	1.312806	0.454649	-0.011822	0.003452	0.003391	70.566457	-81.851358	-79.440018
10555	NaN	9.631751	1.291837	0.475203	-0.014235	0.004535	0.000728	70.563413	-81.851821	-79.443379
10556	NaN	9.631748	1.291742	0.475532	-0.014359	-0.001520	-0.000156	70.583898	-81.852809	-79.471333
10557	NaN	9.641989	1.268385	0.441855	-0.008305	0.001473	0.001671	70.594234	-81.854271	-79.485343
10558	NaN	9.660157	1.322508	0.480854	-0.010027	0.000237	-0.001866	70.612851	-81.853998	-79.508902
10559	NaN	9.646061	1.319411	0.461437	-0.015504	0.002051	-0.001043	70.620244	-81.853896	-79.526954
10560	NaN	9.656294	1.296058	0.427998	-0.012459	0.002210	0.002508	70.624208	-81.855611	-79.537119
10561	NaN	9.655174	1.346039	0.481563	-0.015922	0.000628	0.002471	70.632572	-81.857706	-79.552378
10562	NaN	9.602749	1.359472	0.456696	-0.015742	0.003122	0.001597	70.632428	-81.858755	-79.560294
10563	NaN	9.665170	1.297679	0.483098	-0.024684	0.003354	0.002385	70.624376	-81.860138	-79.568377
10564	NaN	9.656373	1.294892	0.429735	-0.015924	0.000630	0.002474	70.632382	-81.862135	-79.584631
10565	NaN	9.637096	1.290601	0.444465	-0.011373	0.002203	0.005163	70.633465	-81.865363	-79.592059
10566	NaN	9.646242	1.317095	0.464266	-0.016162	0.001699	0.005113	70.633794	-81.868583	-79.600695
10567	NaN	9.675578	1.272565	0.450919	-0.008602	0.006105	0.006078	70.620484	-81.871571	-79.592110
10568	NaN	9.665710	1.319525	0.450909	-0.009199	0.002186	0.010464	70.615834	-81.877591	-79.591687
10569	NaN	9.637418	1.287569	0.446263	-0.005736	0.003768	0.010503	70.606701	-81.883360	-79.587137
