// General information: 
//  MT Manager version: 2022.2.0 
//  XDA version: 2022.2.0 build 7381 rev 124627 built on 2023-07-19
// Device information: 
//  DeviceId: 00B4BB52
//  ProductCode: MTW2-3A7G6
//  Firmware Version: 4.6.0
//  Hardware Version: 2.0.0
// Device settings: 
//  Filter Profile: human(46.1)
//  Option Flags: Orientation Smoother Disabled, Position/Velocity Smoother Disabled, Continuous Zero Rotation Update Disabled, AHS Disabled, ICC Disabled
// Coordinate system: ENU
PacketCounter	SampleTimeFine	Acc_X	Acc_Y	Acc_Z	Gyr_X	Gyr_Y	Gyr_Z	Roll	Pitch	Yaw
34640	NaN	9.541104	0.203194	1.903709	-0.009601	0.000112	0.001595	7.737268	-78.592001	-93.768286
34641	NaN	9.589406	0.220244	1.922189	-0.006225	-0.004138	0.002916	7.732924	-78.593564	-93.763541
34642	NaN	9.565065	0.218190	1.922923	-0.009781	0.004477	0.000228	7.729152	-78.590418	-93.761496
34643	NaN	9.563629	0.224022	1.889112	-0.011124	-0.001856	0.000616	7.727601	-78.590508	-93.762464
34644	NaN	9.565092	0.217671	1.922849	-0.009466	-0.003254	0.001049	7.724709	-78.591801	-93.761189
34645	NaN	9.563714	0.223527	1.888741	-0.007989	-0.000287	0.000115	7.725765	-78.590961	-93.762984
34646	NaN	9.540789	0.215464	1.923410	-0.008002	0.000169	0.001572	7.720959	-78.590333	-93.758718
34647	NaN	9.565160	0.216850	1.922603	-0.009480	-0.002798	0.002506	7.715391	-78.591103	-93.754628
34648	NaN	9.565189	0.216503	1.922497	-0.006405	0.000226	0.001549	7.711494	-78.590459	-93.750458
34649	NaN	9.566594	0.210269	1.956513	-0.009632	0.000656	-0.001775	7.716565	-78.588939	-93.757310
34650	NaN	9.563368	0.236222	1.908565	-0.007868	-0.003197	0.001025	7.714622	-78.590194	-93.756026
34651	NaN	9.564821	0.229973	1.942350	-0.009572	-0.000799	-0.001320	7.719002	-78.589535	-93.762137
34652	NaN	9.563850	0.222042	1.888225	-0.007928	-0.001742	0.000570	7.717778	-78.589915	-93.761516
34653	NaN	9.588804	0.245327	1.961446	-0.009511	-0.002254	-0.000865	7.721467	-78.590117	-93.766886
34654	NaN	9.588277	0.223414	1.887134	-0.006284	-0.002684	0.002459	7.716161	-78.591192	-93.761071
34655	NaN	9.564563	0.243116	1.961713	-0.009511	-0.002254	-0.000865	7.719850	-78.591394	-93.766441
34656	NaN	9.589798	0.216993	1.920604	-0.006256	-0.003595	-0.000456	7.723094	-78.592767	-93.769372
34657	NaN	9.565969	0.201150	1.900783	-0.007747	-0.006108	0.001934	7.721388	-78.595373	-93.768207
34658	NaN	9.588153	0.236606	1.905803	-0.011034	-0.004222	-0.001845	7.726113	-78.596982	-93.775583
34659	NaN	9.590065	0.216514	1.919321	-0.009450	-0.003709	-0.000410	7.729114	-78.598045	-93.780216
34660	NaN	9.563969	0.234608	1.905750	-0.009390	-0.005165	0.000045	7.729809	-78.600333	-93.782408
34661	NaN	9.566305	0.200488	1.899160	-0.009464	-0.003255	0.001048	7.728524	-78.601251	-93.782677
34662	NaN	9.590300	0.215906	1.918219	-0.009450	-0.003709	-0.000410	7.729918	-78.602674	-93.785615
34663	NaN	9.564187	0.234041	1.904727	-0.007853	-0.003652	-0.000433	7.733880	-78.603703	-93.790295
34664	NaN	9.590451	0.215547	1.917501	-0.011000	-0.004768	0.001525	7.729221	-78.605918	-93.788113
34665	NaN	9.539995	0.231833	1.904745	-0.009510	-0.002254	-0.000864	7.732914	-78.606120	-93.793486
34666	NaN	9.588747	0.235191	1.902991	-0.009389	-0.005165	0.000044	7.733637	-78.608409	-93.795900
34667	NaN	9.590654	0.214895	1.916559	-0.009536	-0.001345	0.002052	7.728750	-78.608321	-93.792538
34668	NaN	9.566770	0.198948	1.896982	-0.009463	-0.003255	0.001048	7.725845	-78.609605	-93.791199
34669	NaN	9.566424	0.212567	1.916782	-0.006268	-0.003140	0.001001	7.726478	-78.610454	-93.791556
34670	NaN	9.590831	0.214153	1.915759	-0.007852	-0.003652	-0.000434	7.728783	-78.611858	-93.794574
34671	NaN	9.590880	0.213925	1.915539	-0.007939	-0.001288	0.002029	7.724854	-78.611735	-93.791254
34672	NaN	9.615265	0.215289	1.914647	-0.009475	-0.002801	0.002506	7.717718	-78.612857	-93.785661
34673	NaN	9.588707	0.247130	1.921479	-0.007986	-0.000286	0.000117	7.718768	-78.612018	-93.787448
34674	NaN	9.566591	0.211411	1.916077	-0.004912	0.002740	-0.000837	7.721469	-78.609743	-93.788931
34675	NaN	9.564703	0.231228	1.902476	-0.008072	0.002077	0.002579	7.714626	-78.607752	-93.782717
34676	NaN	9.542188	0.209120	1.917159	-0.006402	0.000225	0.001551	7.710722	-78.607108	-93.778783
34677	NaN	9.591289	0.198467	1.895601	-0.006341	-0.001231	0.002005	7.707753	-78.606951	-93.775509
34678	NaN	9.564731	0.230359	1.902445	-0.006328	-0.001685	0.000547	7.707421	-78.607303	-93.774852
34679	NaN	9.587671	0.238162	1.867623	-0.007911	-0.002196	-0.000888	7.712071	-78.607471	-93.780269
34680	NaN	9.564815	0.230029	1.902058	-0.006281	-0.002687	0.002458	7.706856	-78.608509	-93.774540
34681	NaN	9.591029	0.211520	1.915057	-0.004791	-0.000172	0.000070	7.709822	-78.607602	-93.776415
34682	NaN	9.564428	0.243489	1.922122	-0.006461	0.001681	0.001098	7.706590	-78.606092	-93.773061
34683	NaN	9.565239	0.215561	1.881929	-0.009521	-0.001799	0.000593	7.705992	-78.606149	-93.774065
34684	NaN	9.591037	0.210850	1.915093	-0.007998	0.000168	0.001575	7.701070	-78.605532	-93.769634
34685	NaN	9.566277	0.222681	1.936016	-0.006461	0.001681	0.001099	7.699475	-78.603652	-93.767832
34686	NaN	9.564423	0.242518	1.922269	-0.007984	-0.000286	0.000117	7.699002	-78.603150	-93.768212
34687	NaN	9.566670	0.208456	1.916006	-0.003207	0.000339	0.001505	7.698639	-78.602063	-93.765764
34688	NaN	9.590999	0.210005	1.915375	-0.011238	0.001056	-0.000290	7.696905	-78.600763	-93.766542
34689	NaN	9.588729	0.243672	1.921810	-0.006461	0.001680	0.001099	7.695311	-78.598884	-93.764741
34690	NaN	9.566666	0.207878	1.916089	-0.006193	-0.005050	-0.000007	7.697961	-78.601081	-93.767036
34691	NaN	9.564470	0.241542	1.922160	-0.007997	0.000167	0.001575	7.694721	-78.600097	-93.764453
34692	NaN	9.591104	0.209185	1.914937	-0.007790	-0.005107	0.000016	7.696366	-78.602352	-93.766873
34693	NaN	9.566440	0.221002	1.935405	-0.007876	-0.002745	0.002480	7.691752	-78.603092	-93.762818
34694	NaN	9.565074	0.226874	1.901136	-0.007803	-0.004654	0.001475	7.689030	-78.605219	-93.760720
34695	NaN	9.589493	0.228334	1.900062	-0.009460	-0.003255	0.001046	7.687744	-78.606138	-93.760986
34696	NaN	9.589541	0.228124	1.899844	-0.004730	-0.001627	0.000523	7.688372	-78.606458	-93.760535
34697	NaN	9.542750	0.204364	1.914871	-0.011056	-0.003312	0.001069	7.686127	-78.607411	-93.760755
34698	NaN	9.564905	0.239772	1.920219	-0.009507	-0.002251	-0.000865	7.688261	-78.607939	-93.764415
34699	NaN	9.616279	0.195479	1.892090	-0.006253	-0.003593	-0.000460	7.693184	-78.608935	-93.769140
34700	NaN	9.564926	0.239418	1.920157	-0.003487	0.007521	0.004072	7.681097	-78.604314	-93.754954
34701	NaN	9.566790	0.218794	1.933923	-0.014021	-0.008798	0.004382	7.669898	-78.608636	-93.747773
34702	NaN	9.566237	0.196894	1.859289	-0.006339	-0.001232	0.002005	7.665302	-78.608829	-93.742825
34703	NaN	9.564641	0.251943	1.939895	-0.003327	0.003251	0.000602	7.666310	-78.606021	-93.741846
34704	NaN	9.568765	0.197738	1.947178	-0.010874	-0.007680	0.002424	7.660464	-78.609888	-93.738370
34705	NaN	9.591343	0.219262	1.932299	-0.004790	-0.000171	0.000071	7.663428	-78.608982	-93.740242
34706	NaN	9.565559	0.223601	1.899082	-0.011176	-0.000399	0.000165	7.660857	-78.608577	-93.740148
34707	NaN	9.565605	0.223305	1.898885	-0.004621	-0.004087	0.002885	7.657471	-78.610110	-93.735443
34708	NaN	9.589596	0.238537	1.918123	-0.006399	0.000224	0.001553	7.653741	-78.609407	-93.731758
34709	NaN	9.565675	0.222659	1.898608	-0.007875	-0.002745	0.002480	7.649121	-78.610147	-93.727697
34710	NaN	9.590046	0.224038	1.897781	-0.009591	0.000110	0.001600	7.643375	-78.609519	-93.723468
34711	NaN	9.566111	0.208139	1.878330	-0.009531	-0.001346	0.002052	7.638483	-78.609432	-93.720097
34712	NaN	9.567186	0.215358	1.932351	-0.006398	0.000224	0.001553	7.634551	-78.608771	-93.715940
34713	NaN	9.590063	0.223075	1.897811	-0.009651	0.001567	0.001149	7.631036	-78.606961	-93.714043
34714	NaN	9.544707	0.193029	1.946807	-0.009385	-0.005162	0.000037	7.631876	-78.609184	-93.716353
34715	NaN	9.542945	0.212824	1.932664	-0.006278	-0.002689	0.002456	7.628216	-78.609890	-93.712337
34716	NaN	9.588765	0.228508	1.863206	-0.006338	-0.001232	0.002004	7.623587	-78.610080	-93.707272
34717	NaN	9.567360	0.213966	1.931642	-0.007921	-0.001741	0.000569	7.623945	-78.610105	-93.708314
34718	NaN	9.565164	0.247568	1.937877	-0.006338	-0.001232	0.002004	7.619503	-78.610255	-93.703680
34719	NaN	9.592566	0.187556	1.890243	-0.007801	-0.004654	0.001472	7.618484	-78.612002	-93.703249
34720	NaN	9.567872	0.199438	1.910958	-0.004849	0.001286	-0.000380	7.620491	-78.610587	-93.704274
34721	NaN	9.566089	0.219242	1.896918	-0.006096	-0.007058	0.003809	7.614765	-78.613878	-93.698045
34722	NaN	9.590127	0.234229	1.915999	-0.006362	-0.000329	0.004922	7.601635	-78.613760	-93.684490
34723	NaN	9.566251	0.218240	1.896217	-0.006084	-0.007510	0.002349	7.600195	-78.617195	-93.682625
34724	NaN	9.566351	0.217823	1.895764	-0.006289	-0.002237	0.003914	7.590772	-78.618055	-93.672843
34725	NaN	9.568256	0.197233	1.909264	-0.006229	-0.003694	0.004365	7.582122	-78.619476	-93.663709
34726	NaN	9.568339	0.196733	1.908899	-0.009409	-0.004259	0.002954	7.574341	-78.621405	-93.657158
34727	NaN	9.591284	0.204229	1.873982	-0.004705	-0.001730	0.005350	7.563045	-78.621784	-93.644434
34728	NaN	9.543361	0.221520	1.949452	-0.009469	-0.002802	0.002503	7.555678	-78.622925	-93.638295
34729	NaN	9.592159	0.224451	1.947493	-0.004452	-0.008007	0.005693	7.545901	-78.626895	-93.626974
34730	NaN	9.591591	0.202437	1.872602	-0.012504	-0.006383	0.006821	7.526038	-78.630373	-93.610036
34731	NaN	9.566985	0.213758	1.893023	-0.007824	-0.003751	0.004389	7.516409	-78.631826	-93.600836
34732	NaN	9.566677	0.226844	1.912948	-0.007908	-0.001392	0.006857	7.497296	-78.632447	-93.582048
34733	NaN	9.567485	0.198538	1.872361	-0.006180	-0.004700	0.006274	7.483628	-78.634580	-93.567767
34734	NaN	9.569025	0.191445	1.905995	-0.009504	-0.001449	0.006881	7.463540	-78.635220	-93.548653
34735	NaN	9.568354	0.218328	1.946082	-0.003036	-0.003581	0.004317	7.456783	-78.636570	-93.539585
34736	NaN	9.567005	0.223977	1.911643	-0.009251	-0.007726	0.007223	7.438329	-78.640782	-93.522408
34737	NaN	9.592247	0.197242	1.869795	-0.012383	-0.009295	0.007721	7.418684	-78.645630	-93.505658
34738	NaN	9.568830	0.215646	1.944040	-0.004498	-0.006206	0.011527	7.390071	-78.649307	-93.475033
34739	NaN	9.545360	0.185435	1.903756	-0.017207	-0.008907	0.004426	7.376818	-78.653689	-93.467622
34740	NaN	9.639519	0.218113	1.852695	-0.006347	-0.000780	0.003465	7.367896	-78.653718	-93.458411
34741	NaN	9.542924	0.231892	1.929954	-0.004834	0.001633	0.005909	7.353666	-78.652218	-93.442771
34742	NaN	9.568050	0.205433	1.888559	-0.012419	-0.008739	0.004352	7.341868	-78.656756	-93.433830
34743	NaN	9.593997	0.200135	1.921168	-0.006238	-0.003244	0.005824	7.328850	-78.658021	-93.420248
34744	NaN	9.567925	0.218075	1.907719	-0.009324	-0.006613	0.000486	7.328871	-78.661108	-93.421666
34745	NaN	9.569527	0.211341	1.941079	-0.004570	-0.005095	0.004790	7.320407	-78.663349	-93.411753
34746	NaN	9.569984	0.196944	1.920424	-0.014145	-0.005430	0.004937	7.304736	-78.666064	-93.400201
34747	NaN	9.592537	0.218299	1.905788	-0.003263	0.001795	0.001059	7.305089	-78.664117	-93.398516
34748	NaN	9.568193	0.216322	1.906571	-0.009526	-0.001342	0.002055	7.298327	-78.664381	-93.392742
34749	NaN	9.568549	0.202166	1.886381	-0.008001	0.000621	0.003041	7.290773	-78.663246	-93.385763
34750	NaN	9.592886	0.203429	1.885709	-0.008001	0.000621	0.003041	7.281665	-78.662402	-93.377001
34751	NaN	9.570357	0.181336	1.900284	-0.008038	0.001178	-0.000327	7.283436	-78.660705	-93.379553
34752	NaN	9.570021	0.194880	1.920448	-0.011110	-0.001847	0.000620	7.280350	-78.661097	-93.379162
34753	NaN	9.594384	0.196398	1.919620	-0.004787	-0.000167	0.000073	7.283336	-78.660193	-93.381054
34754	NaN	9.592909	0.202392	1.885704	-0.009547	-0.000443	0.004974	7.268464	-78.660061	-93.367841
34755	NaN	9.568575	0.200226	1.886456	-0.006394	0.000227	0.001557	7.266182	-78.659041	-93.365300
34756	NaN	9.567890	0.227424	1.926855	-0.006393	0.000227	0.001557	7.262445	-78.658288	-93.361163
34757	NaN	9.593274	0.187705	1.865505	-0.006322	-0.001680	0.000547	7.263757	-78.658279	-93.362245
34758	NaN	9.568268	0.213300	1.906538	-0.007978	-0.000278	0.000122	7.263335	-78.657727	-93.362609
34759	NaN	9.568232	0.213302	1.906718	-0.004955	0.003755	-0.002733	7.272755	-78.654391	-93.371163
34760	NaN	9.545676	0.191431	1.921379	-0.006393	0.000226	0.001557	7.268601	-78.653746	-93.366454
34761	NaN	9.591041	0.221232	1.872340	-0.006431	0.000785	-0.001811	7.275635	-78.652165	-93.373435
34762	NaN	9.568129	0.213092	1.907254	-0.006572	0.004598	0.000211	7.273973	-78.648841	-93.371461
34763	NaN	9.545589	0.191165	1.921838	-0.007906	-0.002185	-0.000889	7.278622	-78.649015	-93.376873
34764	NaN	9.566313	0.232901	1.893529	-0.007929	-0.001287	0.002030	7.272966	-78.649218	-93.371574
34765	NaN	9.569969	0.192443	1.920955	-0.006441	0.001234	-0.000351	7.275695	-78.647487	-93.374171
34766	NaN	9.568146	0.212449	1.907242	-0.004726	-0.001624	0.000521	7.276433	-78.647751	-93.373979
34767	NaN	9.594679	0.180261	1.899912	-0.004775	-0.000616	-0.001386	7.283715	-78.646997	-93.380246
34768	NaN	9.543451	0.224203	1.928257	-0.006535	0.004038	0.003579	7.272620	-78.644279	-93.368853
34769	NaN	9.568475	0.198113	1.887183	-0.007857	-0.003193	0.001018	7.272260	-78.645165	-93.369127
34770	NaN	9.592858	0.199751	1.886246	-0.007954	-0.001176	-0.002797	7.280182	-78.644958	-93.377633
34771	NaN	9.545354	0.203600	1.941631	-0.006262	-0.003138	0.000994	7.280785	-78.645810	-93.377957
34772	NaN	9.569761	0.205069	1.940598	-0.007857	-0.003193	0.001018	7.278991	-78.646958	-93.376769
34773	NaN	9.593004	0.199195	1.885565	-0.006333	-0.001232	0.002005	7.276001	-78.646800	-93.373470
34774	NaN	9.568011	0.224671	1.926581	-0.006321	-0.001680	0.000546	7.275723	-78.647082	-93.372689
34775	NaN	9.594880	0.178657	1.899051	-0.007976	-0.000278	0.000122	7.276777	-78.646246	-93.374475
34776	NaN	9.544047	0.208907	1.906970	-0.007916	-0.001736	0.000570	7.275692	-78.646516	-93.373791
34777	NaN	9.568410	0.210424	1.906144	-0.007976	-0.000278	0.000122	7.276745	-78.645680	-93.375577
34778	NaN	9.568454	0.210177	1.905950	-0.003022	-0.004035	0.002852	7.272443	-78.647555	-93.369177
34779	NaN	9.568853	0.196260	1.885459	-0.009500	-0.002240	-0.000865	7.276128	-78.647762	-93.374536
34780	NaN	9.566743	0.229995	1.891715	-0.007845	-0.003642	-0.000442	7.278538	-78.649080	-93.377586
34781	NaN	9.570452	0.189654	1.918821	-0.006310	-0.002128	-0.000914	7.284149	-78.649220	-93.383045
34782	NaN	9.593328	0.197782	1.884063	-0.006370	-0.000671	-0.001362	7.288921	-78.648793	-93.387783
34783	NaN	9.566842	0.229802	1.891236	-0.009511	-0.001792	0.000595	7.288304	-78.648852	-93.388761
34784	NaN	9.568681	0.209656	1.904864	-0.004823	0.000394	-0.003294	7.298918	-78.647728	-93.398814
34785	NaN	9.593357	0.197695	1.883926	-0.007975	-0.000279	0.000122	7.299968	-78.646893	-93.400595
34786	NaN	9.568327	0.223569	1.925139	-0.004861	0.000956	-0.006661	7.319934	-78.645167	-93.419796
34787	NaN	9.568318	0.223898	1.925143	-0.007953	-0.001175	-0.002797	7.329582	-78.644627	-93.430334
34788	NaN	9.568686	0.210319	1.904768	-0.006298	-0.002577	-0.002374	7.338121	-78.645189	-93.439411
34789	NaN	9.569053	0.196774	1.884393	-0.004763	-0.001063	-0.002846	7.349693	-78.644582	-93.450048
34790	NaN	9.590902	0.246151	1.910305	-0.007953	-0.001175	-0.002797	7.357775	-78.644340	-93.459082
34791	NaN	9.570569	0.190707	1.918136	-0.004812	-0.000053	-0.004753	7.374343	-78.643018	-93.474843
34792	NaN	9.593412	0.198889	1.883520	-0.009581	0.000112	0.001607	7.368419	-78.642411	-93.470630
34793	NaN	9.593082	0.212464	1.903703	-0.007953	-0.001175	-0.002797	7.378062	-78.641870	-93.481163
34794	NaN	9.542255	0.243057	1.911568	-0.006286	-0.003024	-0.003835	7.390724	-78.642594	-93.493862
34795	NaN	9.568820	0.211082	1.904009	-0.009487	-0.002688	-0.002326	7.398708	-78.642947	-93.503601
34796	NaN	9.570348	0.204635	1.937747	-0.006368	-0.000671	-0.001362	7.403602	-78.642460	-93.508080
34797	NaN	9.570373	0.204605	1.937625	-0.007903	-0.002185	-0.000890	7.408248	-78.642632	-93.513488
34798	NaN	9.568578	0.224742	1.923751	-0.009487	-0.002688	-0.002326	7.414599	-78.643289	-93.521424
34799	NaN	9.568947	0.211163	1.903364	-0.006357	-0.001119	-0.002822	7.425202	-78.642712	-93.532003
34800	NaN	9.591823	0.219255	1.868563	-0.006270	-0.002692	0.002452	7.420080	-78.643667	-93.526341
34801	NaN	9.570186	0.218094	1.957127	-0.011141	-0.001286	-0.002748	7.427795	-78.643192	-93.536771
34802	NaN	9.544735	0.209163	1.903491	-0.006187	-0.005045	-0.000022	7.430200	-78.645436	-93.539253
34803	NaN	9.570292	0.217774	1.956646	-0.007996	0.000614	0.003043	7.422632	-78.644309	-93.532256
34804	NaN	9.569157	0.210408	1.902392	-0.006237	-0.004034	-0.001929	7.430584	-78.645664	-93.540121
34805	NaN	9.569214	0.210392	1.902109	-0.009497	-0.002241	-0.000866	7.434269	-78.645870	-93.545479
34806	NaN	9.593610	0.212020	1.901092	-0.006247	-0.003587	-0.000469	7.437615	-78.647147	-93.548321
34807	NaN	9.544973	0.208384	1.902383	-0.007924	-0.001291	0.002030	7.433657	-78.647028	-93.544964
34808	NaN	9.595559	0.191364	1.914249	-0.004603	-0.004542	0.001413	7.433059	-78.648948	-93.542562
34809	NaN	9.567580	0.229783	1.887503	-0.007973	-0.000280	0.000124	7.434093	-78.648113	-93.544326
34810	NaN	9.593483	0.224851	1.920382	-0.006187	-0.005045	-0.000023	7.436766	-78.650234	-93.546231
34811	NaN	9.595072	0.218105	1.953898	-0.006269	-0.002693	0.002452	7.433079	-78.650943	-93.542183
34812	NaN	9.567420	0.242804	1.906949	-0.006318	-0.001682	0.000545	7.433019	-78.651168	-93.541882
34813	NaN	9.594000	0.210552	1.899284	-0.006187	-0.005045	-0.000023	7.437252	-78.653030	-93.545865
34814	NaN	9.571252	0.202143	1.933535	-0.007852	-0.003196	0.001016	7.435561	-78.654149	-93.544902
34815	NaN	9.571301	0.201931	1.933316	-0.006318	-0.001682	0.000545	7.436867	-78.654142	-93.545976
34816	NaN	9.592654	0.216451	1.864618	-0.003079	-0.002582	0.002402	7.433417	-78.655086	-93.540000
34817	NaN	9.544921	0.233496	1.940086	-0.007731	-0.006112	0.001908	7.431691	-78.657697	-93.538808
34818	NaN	9.594720	0.195678	1.877180	-0.009255	-0.008073	0.000918	7.431199	-78.661617	-93.540220
34819	NaN	9.570140	0.207305	1.897779	-0.001555	-0.000622	0.003391	7.426778	-78.661219	-93.532670
34820	NaN	9.545851	0.205204	1.898322	-0.007802	-0.004208	0.002922	7.419623	-78.663192	-93.526314
34821	NaN	9.594299	0.221855	1.916650	-0.006207	-0.004152	0.002897	7.415238	-78.664763	-93.521519
34822	NaN	9.595031	0.194298	1.875733	-0.007781	-0.005100	0.000001	7.416758	-78.666989	-93.523595
34823	NaN	9.545769	0.217933	1.917468	-0.006328	-0.001236	0.002006	7.413751	-78.666837	-93.520277
34824	NaN	9.594172	0.234515	1.936048	-0.006288	-0.001802	0.005373	7.399929	-78.667529	-93.506087
34825	NaN	9.568409	0.239069	1.902453	-0.006045	-0.008852	-0.002054	7.411404	-78.671405	-93.517372
34826	NaN	9.596551	0.200196	1.928403	-0.007872	-0.002304	0.003938	7.400830	-78.672302	-93.507406
34827	NaN	9.595062	0.206302	1.894380	-0.007922	-0.001291	0.002032	7.396856	-78.672183	-93.504033
34828	NaN	9.570774	0.204156	1.894926	-0.006217	-0.003706	0.004358	7.386307	-78.673926	-93.492211
34829	NaN	9.548046	0.195420	1.929198	-0.007801	-0.004208	0.002922	7.380948	-78.675530	-93.487353
34830	NaN	9.570318	0.230508	1.934679	-0.007801	-0.004208	0.002922	7.373946	-78.677458	-93.481285
34831	NaN	9.572227	0.210092	1.948003	-0.006307	-0.002127	-0.000914	7.379563	-78.677598	-93.486749
34832	NaN	9.571046	0.202652	1.893708	-0.009475	-0.001914	0.005423	7.363511	-78.678393	-93.471420
34833	NaN	9.570836	0.215863	1.913509	-0.002877	-0.007849	0.000815	7.368285	-78.681911	-93.474020
34834	NaN	9.571003	0.215557	1.912710	-0.010797	-0.009140	0.002847	7.361412	-78.686632	-93.468923
34835	NaN	9.595482	0.216859	1.911292	-0.009384	-0.004709	0.001487	7.359395	-78.688416	-93.468400
34836	NaN	9.573084	0.194448	1.925237	-0.006165	-0.004720	0.006263	7.344041	-78.690834	-93.452196
34837	NaN	9.594130	0.222265	1.876604	-0.007810	-0.003762	0.004383	7.334347	-78.692292	-93.442924
34838	NaN	9.571717	0.199845	1.890616	-0.010988	-0.004319	0.002973	7.325572	-78.694230	-93.436842
34839	NaN	9.571499	0.212845	1.910531	-0.009413	-0.003373	0.005869	7.310587	-78.695574	-93.423111
34840	NaN	9.571549	0.212231	1.910347	-0.007930	-0.000846	0.003494	7.300762	-78.695577	-93.413938
34841	NaN	9.571587	0.211724	1.910213	-0.007869	-0.002304	0.003938	7.291757	-78.696172	-93.405404
34842	NaN	9.593905	0.246758	1.915578	-0.007609	-0.009028	0.002794	7.286976	-78.700797	-93.401101
34843	NaN	9.573688	0.190458	1.922632	-0.009352	-0.004832	0.006314	7.271277	-78.703001	-93.386607
34844	NaN	9.547025	0.235466	1.949900	-0.009342	-0.005277	0.004853	7.258114	-78.705670	-93.374487
34845	NaN	9.594894	0.217439	1.873260	-0.010765	-0.009263	0.007672	7.239330	-78.710490	-93.357672
34846	NaN	9.572252	0.208324	1.907251	-0.006163	-0.004721	0.006262	7.224385	-78.712787	-93.342195
34847	NaN	9.596688	0.209337	1.906068	-0.010996	-0.003873	0.004435	7.212722	-78.714308	-93.332778
34848	NaN	9.596830	0.208231	1.905475	-0.012335	-0.008998	0.013985	7.173125	-78.719722	-93.294997
34849	NaN	9.571124	0.211881	1.871563	-0.012357	-0.009318	0.007697	7.153318	-78.724569	-93.278071
34850	NaN	9.572779	0.204176	1.905055	-0.009567	0.001322	0.010826	7.120306	-78.723986	-93.245886
34851	NaN	9.572784	0.202830	1.905175	-0.006337	0.000862	0.014140	7.081931	-78.723498	-93.206508
34852	NaN	9.550325	0.179587	1.919429	-0.010971	-0.003553	0.010722	7.050646	-78.725535	-93.176969
34853	NaN	9.595501	0.222221	1.890037	-0.013892	-0.010830	0.008165	7.029094	-78.731268	-93.159159
34854	NaN	9.575218	0.165465	1.897163	-0.007902	-0.000526	0.009783	7.001096	-78.731586	-93.132288
34855	NaN	9.548442	0.223618	1.944350	-0.018364	-0.018732	0.008999	6.977328	-78.741869	-93.114833
34856	NaN	9.596869	0.178188	1.826616	-0.007704	-0.005791	0.008192	6.956102	-78.744932	-93.093808
34857	NaN	9.571578	0.230012	1.908141	-0.009408	-0.003372	0.005870	6.941007	-78.746259	-93.079964
34858	NaN	9.575817	0.161605	1.894467	-0.011070	-0.001523	0.006914	6.919601	-78.746909	-93.060623
34859	NaN	9.571726	0.228319	1.907603	-0.006109	-0.005737	0.008165	6.900646	-78.749738	-93.040917
34860	NaN	9.576297	0.146168	1.873201	-0.018790	-0.008074	0.007357	6.876102	-78.754047	-93.022641
34861	NaN	9.548058	0.197791	1.867188	-0.001866	0.007556	0.004100	6.866608	-78.749033	-93.010103
34862	NaN	9.547509	0.224441	1.908034	-0.009459	-0.002356	0.003966	6.855197	-78.749884	-93.000646
34863	NaN	9.600636	0.146146	1.872551	-0.009570	0.000118	0.001619	6.850949	-78.748931	-92.997957
34864	NaN	9.596440	0.213197	1.886305	-0.006535	0.004919	0.006526	6.831030	-78.745896	-92.977723
34865	NaN	9.551103	0.182327	1.935572	-0.014358	0.000400	0.003159	6.819544	-78.744888	-92.970451
34866	NaN	9.596649	0.198496	1.866358	-0.004797	0.000724	0.003001	6.812134	-78.744013	-92.962219
34867	NaN	9.573838	0.189802	1.901216	-0.008103	0.003534	0.002169	6.805994	-78.741153	-92.956745
34868	NaN	9.575654	0.169090	1.914827	-0.011052	-0.002410	0.003991	6.793406	-78.742048	-92.946196
34869	NaN	9.572008	0.209100	1.887825	-0.006509	0.003588	0.002143	6.788241	-78.739155	-92.940784
34870	NaN	9.597913	0.203662	1.920939	-0.006271	-0.002248	0.003912	6.778891	-78.739849	-92.930510
34871	NaN	9.596372	0.209928	1.887016	-0.009569	0.000119	0.001618	6.774652	-78.738895	-92.927830
34872	NaN	9.549507	0.185835	1.902176	-0.007940	0.000043	0.006419	6.756280	-78.738513	-92.909804
34873	NaN	9.598200	0.188532	1.900620	-0.007983	0.000616	0.003054	6.748683	-78.737372	-92.902773
34874	NaN	9.572260	0.192955	1.867794	-0.006474	0.003458	0.006969	6.728228	-78.735117	-92.881384
34875	NaN	9.571986	0.205911	1.888287	-0.012755	0.000012	0.001670	6.722056	-78.734226	-92.878594
34876	NaN	9.575610	0.164930	1.915409	-0.007991	0.001059	0.004515	6.708483	-78.733221	-92.865679
34877	NaN	9.573785	0.184574	1.901999	-0.009584	0.001005	0.004541	6.695597	-78.731957	-92.854191
34878	NaN	9.573777	0.184010	1.902091	-0.011169	0.000509	0.003106	6.684603	-78.731114	-92.845692
34879	NaN	9.573818	0.183542	1.901931	-0.007797	-0.004204	0.002917	6.679125	-78.732706	-92.840713
34880	NaN	9.572043	0.203302	1.888279	-0.006397	0.001112	0.004489	6.666829	-78.731601	-92.828558
34881	NaN	9.598460	0.170478	1.880680	-0.007880	-0.001418	0.006860	6.649109	-78.731869	-92.811145
34882	NaN	9.570244	0.222078	1.874876	-0.006472	0.003456	0.006970	6.628969	-78.729549	-92.790496
34883	NaN	9.575689	0.160482	1.915389	-0.007762	-0.004337	0.007743	6.609764	-78.731534	-92.771499
34884	NaN	9.549559	0.178225	1.902643	-0.009658	0.003349	0.007023	6.587591	-78.729328	-92.751112
34885	NaN	9.572313	0.185867	1.868242	-0.007990	0.001059	0.004515	6.575691	-78.728027	-92.739698
34886	NaN	9.549516	0.176907	1.902983	-0.009583	0.001006	0.004541	6.561344	-78.726969	-92.726408
34887	NaN	9.571795	0.211801	1.909164	-0.009633	0.002023	0.002638	6.553551	-78.724996	-92.720141
34888	NaN	9.572276	0.184256	1.868590	-0.011109	-0.000949	0.003547	6.542011	-78.724986	-92.711654
34889	NaN	9.573855	0.176950	1.902371	-0.006337	-0.000347	0.004930	6.530341	-78.724511	-92.699509
34890	NaN	9.573882	0.176251	1.902299	-0.007879	-0.001419	0.006859	6.511197	-78.724937	-92.679725
34891	NaN	9.596443	0.197448	1.888000	-0.007989	0.001059	0.004515	6.499310	-78.723634	-92.668323
34892	NaN	9.573643	0.188507	1.922740	-0.006396	0.001112	0.004489	6.486536	-78.722647	-92.655484
34893	NaN	9.571866	0.208215	1.909200	-0.009456	-0.002355	0.003961	6.476499	-78.723251	-92.646827
34894	NaN	9.572123	0.194057	1.888847	-0.007996	0.001500	0.005977	6.458916	-78.721984	-92.629559
34895	NaN	9.598268	0.174779	1.901588	-0.011108	-0.000949	0.003546	6.448664	-78.721759	-92.621646
34896	NaN	9.573928	0.172569	1.902405	-0.009581	0.001006	0.004541	6.434375	-78.720701	-92.608767
34897	NaN	9.571907	0.205852	1.909251	-0.009507	-0.001337	0.002058	6.429413	-78.720601	-92.605313
34898	NaN	9.596761	0.179866	1.867670	-0.007878	-0.001420	0.006858	6.409838	-78.721189	-92.586088
34899	NaN	9.573755	0.184414	1.922578	-0.009565	0.000123	0.001618	6.405632	-78.720230	-92.583439
34900	NaN	9.598600	0.158679	1.880998	-0.006262	-0.002690	0.002447	6.400489	-78.721131	-92.578158
34901	NaN	9.547687	0.202387	1.909608	-0.006320	-0.001231	0.002006	6.397467	-78.720967	-92.574821
34902	NaN	9.525194	0.180260	1.923598	-0.007781	-0.005085	-0.000011	6.398930	-78.723151	-92.577059
34903	NaN	9.574238	0.169973	1.901079	-0.007707	-0.007427	-0.002494	6.409950	-78.726228	-92.588851
34904	NaN	9.574157	0.183440	1.920671	-0.010841	-0.008552	-0.000540	6.412585	-78.730257	-92.593799
34905	NaN	9.574532	0.169873	1.899604	-0.004529	-0.006880	-0.001085	6.421233	-78.733112	-92.601315
34906	NaN	9.572639	0.203601	1.905818	-0.010899	-0.007092	-0.000980	6.424895	-78.736175	-92.606678
34907	NaN	9.550186	0.181550	1.919624	-0.004661	-0.003079	0.000959	6.426407	-78.736997	-92.606994
34908	NaN	9.598945	0.184651	1.917704	-0.007839	-0.003626	-0.000450	6.429142	-78.738212	-92.611146
34909	NaN	9.573093	0.189730	1.884362	-0.006246	-0.003573	-0.000477	6.434011	-78.739223	-92.615812
34910	NaN	9.599514	0.157425	1.876434	-0.009497	-0.001778	0.000598	6.431827	-78.739524	-92.615333
34911	NaN	9.548835	0.187787	1.884755	-0.009490	-0.002219	-0.000864	6.435508	-78.739739	-92.620683
34912	NaN	9.574977	0.169121	1.897429	-0.006481	0.002267	-0.002236	6.442354	-78.737407	-92.627419
34913	NaN	9.572921	0.202931	1.904474	-0.009607	0.000701	-0.001744	6.447538	-78.735903	-92.634369
34914	NaN	9.574956	0.169135	1.897531	-0.006304	-0.002113	-0.000917	6.451470	-78.736361	-92.638714
34915	NaN	9.550196	0.194372	1.938873	-0.006311	-0.001672	0.000545	6.452765	-78.736356	-92.639774
34916	NaN	9.575017	0.169006	1.897237	-0.007948	-0.001146	-0.002792	6.461241	-78.735965	-92.648588
34917	NaN	9.573005	0.202822	1.904061	-0.007955	-0.000706	-0.001330	6.466641	-78.735289	-92.654794
34918	NaN	9.599193	0.184073	1.916516	-0.009430	-0.003679	-0.000425	6.467559	-78.736725	-92.657300
34919	NaN	9.573341	0.189213	1.883158	-0.007830	-0.004066	-0.001914	6.475788	-78.737924	-92.666318
34920	NaN	9.574984	0.182234	1.916657	-0.006259	-0.002693	0.002446	6.470210	-78.738901	-92.659871
34921	NaN	9.597850	0.190234	1.881580	-0.009268	-0.007179	0.003817	6.462238	-78.742242	-92.653209
34922	NaN	9.575408	0.167920	1.895358	-0.007844	-0.003186	0.001011	6.460410	-78.743365	-92.652772
34923	NaN	9.575256	0.180929	1.915422	-0.006214	-0.003273	0.005810	6.447216	-78.744611	-92.639002
34924	NaN	9.575575	0.166745	1.894617	-0.006097	-0.006193	0.006688	6.431342	-78.747725	-92.622768
34925	NaN	9.573877	0.186400	1.880710	-0.006207	-0.003713	0.004348	6.422470	-78.749126	-92.613401
34926	NaN	9.573555	0.212773	1.920955	-0.004497	-0.006580	0.005199	6.411525	-78.752428	-92.600616
34927	NaN	9.549827	0.183544	1.880142	-0.005854	-0.012474	0.006982	6.398120	-78.758985	-92.586421
34928	NaN	9.575938	0.177609	1.912319	-0.002970	-0.004628	0.006196	6.384758	-78.761204	-92.570711
34929	NaN	9.574517	0.183632	1.877722	-0.009045	-0.012140	0.008498	6.365044	-78.767665	-92.551949
34930	NaN	9.598783	0.197811	1.896727	-0.003159	0.000632	0.007804	6.345136	-78.767024	-92.529705
34931	NaN	9.553744	0.153372	1.925017	-0.004549	-0.005560	0.003298	6.340786	-78.769408	-92.523980
34932	NaN	9.574586	0.195088	1.896911	-0.003028	-0.003168	0.005757	6.327678	-78.770908	-92.508908
34933	NaN	9.576672	0.160748	1.889588	-0.004555	-0.005120	0.004760	6.318983	-78.773133	-92.498757
34934	NaN	9.576762	0.160227	1.889175	-0.004614	-0.003660	0.004322	6.309424	-78.774728	-92.487380
34935	NaN	9.575001	0.180164	1.875588	-0.004783	0.000282	0.001543	6.308110	-78.773674	-92.484887
34936	NaN	9.599391	0.181543	1.874565	-0.004601	-0.004539	0.001397	6.307377	-78.775564	-92.482878
34937	NaN	9.576898	0.159362	1.888556	-0.006317	-0.001231	0.002009	6.304327	-78.775400	-92.479511
34938	NaN	9.576878	0.159090	1.888683	-0.001722	0.003747	0.002075	6.300642	-78.772600	-92.472374
34939	NaN	9.574828	0.192799	1.895922	-0.004888	0.002324	-0.002258	6.309527	-78.770143	-92.480340
34940	NaN	9.574962	0.179507	1.875853	-0.003354	0.003837	-0.002724	6.319001	-78.766927	-92.488245
34941	NaN	9.576498	0.172809	1.909956	-0.004887	0.002324	-0.002259	6.327878	-78.764470	-92.496203
34942	NaN	9.550468	0.178402	1.877379	-0.003458	0.005879	-0.006526	6.347190	-78.759925	-92.513932
34943	NaN	9.576297	0.173548	1.910897	-0.003412	0.005297	-0.003162	6.358541	-78.755717	-92.523551
34944	NaN	9.575976	0.187309	1.931833	-0.005057	0.006266	-0.005036	6.372591	-78.751086	-92.538013
34945	NaN	9.574252	0.194439	1.898660	-0.009840	0.006547	-0.003494	6.380790	-78.746144	-92.548175
34946	NaN	9.549778	0.193146	1.900084	-0.006642	0.005774	-0.006472	6.397998	-78.741679	-92.565446
34947	NaN	9.577627	0.154599	1.926536	-0.004932	0.002906	-0.005622	6.416245	-78.738674	-92.582985
34948	NaN	9.575765	0.175325	1.913399	-0.008116	0.002801	-0.005569	6.430798	-78.736009	-92.598595
34949	NaN	9.598247	0.197687	1.899451	-0.003340	0.002959	-0.005649	6.449998	-78.732970	-92.616176
34950	NaN	9.573864	0.196439	1.900412	-0.009590	-0.000173	-0.004666	6.462584	-78.731882	-92.629947
34951	NaN	9.600175	0.164662	1.892847	-0.006583	0.004314	-0.006034	6.480570	-78.728044	-92.648185
34952	NaN	9.573534	0.210647	1.921294	-0.006465	0.001393	-0.005158	6.494870	-78.726311	-92.662287
34953	NaN	9.598261	0.185756	1.879931	-0.009707	0.002748	-0.005542	6.510154	-78.723395	-92.679596
34954	NaN	9.549289	0.196289	1.902220	-0.009707	0.002748	-0.005543	6.523563	-78.720764	-92.694410
34955	NaN	9.571995	0.205006	1.867869	-0.008070	0.002217	-0.002206	6.530421	-78.718366	-92.702170
34956	NaN	9.573768	0.184707	1.881434	-0.009603	0.000703	-0.001742	6.534314	-78.717053	-92.708650
34957	NaN	9.550995	0.176326	1.916082	-0.007997	-0.000120	-0.004694	6.549070	-78.715824	-92.724422
34958	NaN	9.573527	0.198521	1.901893	-0.006412	0.000371	-0.003257	6.559273	-78.714563	-92.735032
34959	NaN	9.549371	0.183590	1.882451	-0.008070	0.002217	-0.002206	6.566118	-78.712165	-92.742780
34960	NaN	9.575052	0.191849	1.935961	-0.008004	0.000318	-0.003231	6.574876	-78.711094	-92.753469
34961	NaN	9.575258	0.178528	1.915637	-0.006419	0.000810	-0.001795	6.581952	-78.709524	-92.760488
34962	NaN	9.576812	0.171776	1.949567	-0.004879	0.001885	-0.003721	6.593396	-78.707485	-92.771363
34963	NaN	9.550941	0.177106	1.916280	-0.010833	-0.008553	-0.000554	6.597489	-78.711324	-92.777918
34964	NaN	9.575250	0.192137	1.934955	-0.009168	-0.010836	-0.003069	6.609003	-78.716468	-92.790426
34965	NaN	9.577258	0.171815	1.947372	-0.005998	-0.009854	-0.000196	6.615286	-78.721071	-92.796389
34966	NaN	9.575423	0.205535	1.953423	-0.005991	-0.010292	-0.001659	6.624019	-78.726138	-92.804795
34967	NaN	9.549877	0.197556	1.899132	-0.004451	-0.009215	-0.003586	6.640668	-78.730154	-92.820425
34968	NaN	9.574657	0.185749	1.876800	-0.010594	-0.014396	0.001195	6.640229	-78.737662	-92.821826
34969	NaN	9.601077	0.166820	1.888078	-0.004287	-0.012722	0.000651	6.646050	-78.743953	-92.826318
34970	NaN	9.574874	0.198771	1.895074	-0.009365	-0.005140	0.000010	6.646921	-78.746051	-92.828636
34971	NaN	9.576632	0.191775	1.928136	-0.005990	-0.010291	-0.001659	6.657572	-78.750806	-92.839047
34972	NaN	9.577030	0.178325	1.906779	-0.007588	-0.009907	-0.000169	6.661329	-78.755713	-92.844132
34973	NaN	9.573543	0.218916	1.879223	-0.007707	-0.006985	-0.001043	6.668138	-78.758627	-92.851629
34974	NaN	9.601912	0.166431	1.883858	-0.007521	-0.011806	-0.001196	6.675821	-78.764491	-92.861195
34975	NaN	9.551388	0.196950	1.891582	-0.004457	-0.008777	-0.002124	6.688200	-78.768352	-92.872474
34976	NaN	9.576108	0.185235	1.869434	-0.009172	-0.010398	-0.001605	6.695368	-78.773357	-92.880385
34977	NaN	9.575923	0.211994	1.909201	-0.009112	-0.011859	-0.001169	6.703395	-78.779035	-92.889944
34978	NaN	9.576282	0.198649	1.887957	-0.006168	-0.005908	-0.002970	6.715578	-78.781230	-92.902682
34979	NaN	9.576435	0.198761	1.887169	-0.012348	-0.010942	-0.003013	6.726751	-78.786262	-92.917339
34980	NaN	9.602782	0.180128	1.898830	-0.007699	-0.007423	-0.002506	6.736389	-78.789568	-92.928117
34981	NaN	9.575075	0.205821	1.851925	-0.009356	-0.005578	-0.001451	6.742988	-78.791652	-92.936364
34982	NaN	9.600939	0.213988	1.904942	-0.009530	-0.001632	-0.004223	6.754547	-78.791512	-92.949448
34983	NaN	9.578469	0.192217	1.918948	-0.007878	-0.003040	-0.003815	6.767919	-78.791991	-92.963736
34984	NaN	9.554403	0.177186	1.898938	-0.009302	-0.006603	0.000448	6.768201	-78.794925	-92.965504
34985	NaN	9.577012	0.199227	1.884191	-0.007812	-0.004937	-0.004842	6.785214	-78.796414	-92.983466
34986	NaN	9.578825	0.192526	1.917137	-0.009097	-0.012733	-0.004097	6.800575	-78.802623	-93.001290
34987	NaN	9.577512	0.186384	1.862113	-0.007812	-0.004937	-0.004841	6.817604	-78.804110	-93.019267
34988	NaN	9.577428	0.200099	1.881982	-0.010928	-0.006943	-0.005813	6.834507	-78.806958	-93.038756
34989	NaN	9.554905	0.191639	1.915805	-0.009168	-0.010399	-0.001607	6.843356	-78.811771	-93.049186
34990	NaN	9.577779	0.200301	1.880172	-0.010753	-0.010889	-0.003043	6.854115	-78.816955	-93.062258
34991	NaN	9.604179	0.181803	1.891589	-0.012332	-0.011816	-0.005941	6.874135	-78.822277	-93.085922
34992	NaN	9.578156	0.200714	1.878206	-0.009287	-0.007477	-0.002479	6.882818	-78.825609	-93.096362
34993	NaN	9.578324	0.200758	1.877344	-0.013934	-0.010997	-0.002986	6.893154	-78.830667	-93.111090
34994	NaN	9.580411	0.180410	1.889519	-0.010630	-0.013812	-0.002172	6.902247	-78.837696	-93.123293
34995	NaN	9.578962	0.187386	1.854540	-0.009104	-0.011861	-0.001173	6.910446	-78.843369	-93.133022
34996	NaN	9.554682	0.199002	1.874660	-0.010634	-0.013376	-0.000709	6.915628	-78.850080	-93.140272
34997	NaN	9.556644	0.191945	1.907080	-0.007386	-0.015165	-0.001795	6.927785	-78.857589	-93.153031
34998	NaN	9.579569	0.200623	1.870994	-0.008976	-0.015219	-0.001766	6.937183	-78.865382	-93.163288
34999	NaN	9.604000	0.215604	1.889264	-0.009103	-0.011861	-0.001173	6.945423	-78.871053	-93.173058
35000	NaN	9.553967	0.205781	1.835837	-0.009174	-0.009528	0.001320	6.944188	-78.875717	-93.172594
35001	NaN	9.606434	0.181520	1.880134	-0.009102	-0.011861	-0.001173	6.952442	-78.881388	-93.182376
35002	NaN	9.580205	0.213406	1.887437	-0.011014	-0.003301	0.001074	6.949016	-78.882461	-93.181943
35003	NaN	9.602906	0.221788	1.852420	-0.007771	-0.004654	0.001450	6.947903	-78.884215	-93.181402
35004	NaN	9.580526	0.199373	1.866223	-0.010958	-0.004326	0.002972	6.939223	-78.886032	-93.175353
35005	NaN	9.580460	0.212245	1.886275	-0.009367	-0.004273	0.002943	6.932737	-78.887672	-93.170268
35006	NaN	9.582569	0.177978	1.878773	-0.010962	-0.003891	0.004436	6.919879	-78.889252	-93.159366
35007	NaN	9.605251	0.186020	1.843858	-0.007846	-0.001887	0.005406	6.906286	-78.889704	-93.146151
35008	NaN	9.582638	0.176795	1.878536	-0.008025	0.002063	0.002640	6.897676	-78.887907	-93.137615
35009	NaN	9.605089	0.198370	1.864470	-0.011145	0.000494	0.003133	6.887945	-78.886849	-93.130262
35010	NaN	9.582449	0.189130	1.899285	-0.009620	0.002444	0.004133	6.874261	-78.884922	-93.118760
35011	NaN	9.580824	0.182308	1.845402	-0.008090	0.003960	0.003669	6.863522	-78.881929	-93.108595
35012	NaN	9.582419	0.174849	1.879832	-0.006743	0.009860	0.001904	6.855081	-78.875664	-93.099927
35013	NaN	9.604709	0.196416	1.866636	-0.008343	0.010676	0.004861	6.838434	-78.868930	-93.083889
35014	NaN	9.580166	0.194223	1.868615	-0.009990	0.011649	0.002992	6.824769	-78.861634	-93.072089
35015	NaN	9.557444	0.171756	1.884074	-0.010111	0.014572	0.002124	6.813706	-78.852496	-93.062773
35016	NaN	9.555182	0.205440	1.892474	-0.006843	0.011044	-0.004819	6.824019	-78.845132	-93.072725
35017	NaN	9.556825	0.185079	1.906851	-0.006803	0.011321	0.001470	6.817871	-78.837799	-93.066486
35018	NaN	9.579256	0.193740	1.873323	-0.008438	0.011426	-0.003326	6.822541	-78.830426	-93.072249
35019	NaN	9.582746	0.153025	1.901037	-0.010033	0.011806	-0.001834	6.823898	-78.822593	-93.075546
35020	NaN	9.602967	0.208802	1.895266	-0.008503	0.013322	-0.002296	6.825657	-78.814022	-93.078719
35021	NaN	9.554185	0.192341	1.877884	-0.008557	0.014349	-0.004193	6.833759	-78.804581	-93.088031
35022	NaN	9.580099	0.173794	1.891718	-0.005382	0.014891	-0.002786	6.838010	-78.795107	-93.091575
35023	NaN	9.577835	0.207755	1.900055	-0.011545	0.008988	-0.005765	6.850733	-78.788608	-93.107343
35024	NaN	9.603999	0.175746	1.893078	-0.006863	0.012782	0.001037	6.843903	-78.780568	-93.100067
35025	NaN	9.577596	0.194668	1.881694	-0.006766	0.008715	-0.007314	6.863870	-78.774118	-93.120430
35026	NaN	9.577419	0.194854	1.882575	-0.008326	0.009370	0.000468	6.858354	-78.768189	-93.115954
35027	NaN	9.578913	0.187749	1.917174	-0.009898	0.008014	-0.003897	6.866955	-78.762372	-93.126560
35028	NaN	9.577105	0.194943	1.884163	-0.009844	0.006986	-0.002000	6.868735	-78.757523	-93.129831
35029	NaN	9.576779	0.208370	1.905304	-0.005066	0.006714	-0.003547	6.879535	-78.752469	-93.139856
35030	NaN	9.601180	0.196848	1.884659	-0.009844	0.006986	-0.002000	6.881830	-78.747487	-93.143853
35031	NaN	9.574655	0.228851	1.893413	-0.008259	0.007474	-0.000563	6.881998	-78.742205	-93.144904
35032	NaN	9.601099	0.183472	1.865610	-0.008253	0.007040	-0.002027	6.885378	-78.737152	-93.148953
35033	NaN	9.550241	0.213745	1.875155	-0.008205	0.006445	0.001334	6.880513	-78.732585	-93.144840
35034	NaN	9.553482	0.199430	1.942916	-0.007939	-0.001137	-0.002792	6.888636	-78.732286	-93.154241
35035	NaN	9.600765	0.196540	1.886803	-0.011005	-0.003736	-0.000407	6.890648	-78.733391	-93.158776
35036	NaN	9.553564	0.199244	1.942531	-0.006361	-0.000216	0.000109	6.891394	-78.732667	-93.159491
35037	NaN	9.551919	0.206148	1.908799	-0.007958	0.000163	0.001601	6.888072	-78.731692	-93.156807
35038	NaN	9.576306	0.207423	1.907781	-0.009367	-0.004277	0.002926	6.880101	-78.733519	-93.149453
35039	NaN	9.553869	0.185036	1.921612	-0.006301	-0.001678	0.000542	6.881387	-78.733519	-93.150499
35040	NaN	9.551919	0.218467	1.928407	-0.007650	-0.007581	0.002299	6.877096	-78.737248	-93.145972
35041	NaN	9.578273	0.199350	1.940046	-0.004409	-0.008935	0.002677	6.875868	-78.741522	-93.143349
35042	NaN	9.552245	0.217706	1.926878	-0.006066	-0.007093	0.003736	6.868816	-78.744934	-93.135687
35043	NaN	9.578991	0.171935	1.897490	-0.005939	-0.010451	0.003136	6.865914	-78.750102	-93.132251
35044	NaN	9.603524	0.173195	1.895720	-0.005999	-0.008989	0.002704	6.861977	-78.754604	-93.126560
35045	NaN	9.577535	0.191550	1.882327	-0.005878	-0.011913	0.003568	6.858369	-78.760634	-93.122369
35046	NaN	9.575715	0.224676	1.888546	-0.005950	-0.009585	0.006065	6.844732	-78.765847	-93.107968
35047	NaN	9.577580	0.216852	1.921380	-0.004360	-0.009531	0.006037	6.834089	-78.770689	-93.095717
35048	NaN	9.579974	0.169399	1.892750	-0.009173	-0.009529	0.001296	6.832502	-78.775441	-93.094876
35049	NaN	9.578324	0.189324	1.878533	-0.004299	-0.010994	0.006469	6.821141	-78.781144	-93.081858
35050	NaN	9.602860	0.190245	1.876761	-0.010779	-0.008284	0.005717	6.806030	-78.785355	-93.068326
35051	NaN	9.578653	0.187922	1.876993	-0.007720	-0.005252	0.004797	6.795517	-78.787677	-93.058171
35052	NaN	9.554310	0.198931	1.897563	-0.007473	-0.011534	0.005060	6.784872	-78.793837	-93.047945
35053	NaN	9.603225	0.201608	1.894739	-0.005882	-0.011480	0.005032	6.776852	-78.799718	-93.039260
35054	NaN	9.554763	0.197677	1.895413	-0.004297	-0.010994	0.006468	6.764011	-78.805580	-93.024532
35055	NaN	9.581171	0.178330	1.906761	-0.005937	-0.010450	0.003135	6.761042	-78.810747	-93.021027
35056	NaN	9.579363	0.211454	1.913073	-0.007537	-0.009639	0.006093	6.746922	-78.815769	-93.005977
35057	NaN	9.605843	0.178523	1.904364	-0.009383	-0.002545	0.008789	6.723006	-78.816818	-92.983132
35058	NaN	9.579884	0.183312	1.871158	-0.001358	-0.005038	0.004684	6.714452	-78.819277	-92.970741
35059	NaN	9.579866	0.195905	1.891052	-0.009192	-0.007797	0.007154	6.697117	-78.823202	-92.954493
35060	NaN	9.606354	0.162989	1.882238	-0.010842	-0.006388	0.006752	6.677733	-78.826583	-92.937593
35061	NaN	9.578220	0.214661	1.876970	-0.004793	0.002002	0.007409	6.658864	-78.824947	-92.917212
35062	NaN	9.557570	0.171443	1.904392	-0.007903	-0.000432	0.004969	6.644441	-78.824724	-92.902610
35063	NaN	9.579937	0.206084	1.910784	-0.006318	0.000054	0.006405	6.628252	-78.824128	-92.885851
35064	NaN	9.602784	0.201065	1.855416	-0.006123	-0.005630	0.003304	6.621666	-78.826715	-92.879000
35065	NaN	9.554018	0.210583	1.877413	-0.003133	-0.000272	0.004883	6.611793	-78.826203	-92.866820
35066	NaN	9.580280	0.191096	1.889447	-0.009252	-0.006335	0.006722	6.594061	-78.829352	-92.850586
35067	NaN	9.603016	0.199028	1.854431	-0.006201	-0.002440	0.008732	6.572054	-78.830325	-92.827830
35068	NaN	9.582254	0.168836	1.902176	-0.007911	0.000433	0.007898	6.548925	-78.829818	-92.804957
35069	NaN	9.580540	0.175166	1.868577	-0.006381	0.001948	0.007439	6.529090	-78.828206	-92.784520
35070	NaN	9.581985	0.193685	1.943334	-0.009432	-0.001946	0.005429	6.513255	-78.828845	-92.770497
35071	NaN	9.557945	0.165005	1.903081	-0.006308	-0.000810	0.003476	6.505798	-78.828543	-92.762633
35072	NaN	9.580474	0.186568	1.888915	-0.011077	-0.000968	0.003562	6.493809	-78.828549	-92.752981
35073	NaN	9.582332	0.165547	1.902075	-0.006312	-0.000379	0.004940	6.481986	-78.828096	-92.740670
35074	NaN	9.578560	0.219158	1.896058	-0.004658	-0.002220	0.003877	6.473497	-78.828732	-92.730544
35075	NaN	9.580597	0.185115	1.888435	-0.006179	-0.004599	0.001407	6.473315	-78.830453	-92.730021
35076	NaN	9.578839	0.205051	1.874884	-0.004606	-0.002820	0.007237	6.454798	-78.831807	-92.709823
35077	NaN	9.603101	0.218822	1.894404	-0.007862	0.000263	0.012724	6.419430	-78.831487	-92.674418
35078	NaN	9.580858	0.168888	1.867524	-0.004687	0.000800	0.014131	6.380185	-78.831113	-92.633093
35079	NaN	9.580735	0.180789	1.888152	-0.009506	0.001243	0.010857	6.348946	-78.830108	-92.602858
35080	NaN	9.582424	0.172535	1.922038	-0.006378	0.001947	0.007440	6.327350	-78.828764	-92.581123
35081	NaN	9.578889	0.199335	1.875247	-0.009498	0.000380	0.007928	6.304850	-78.828061	-92.559790
35082	NaN	9.584248	0.150419	1.935374	-0.006311	-0.000378	0.004940	6.291987	-78.827666	-92.546568
35083	NaN	9.580726	0.177555	1.888505	-0.004780	0.001137	0.004481	6.281891	-78.826313	-92.535123
35084	NaN	9.580863	0.163756	1.867959	-0.006251	-0.001841	0.005370	6.267717	-78.826911	-92.520181
35085	NaN	9.580669	0.189623	1.908818	-0.007837	-0.002324	0.003934	6.258545	-78.827494	-92.511462
35086	NaN	9.580888	0.162788	1.867914	-0.004954	0.005095	0.001726	6.253769	-78.823825	-92.505406
35087	NaN	9.578778	0.209389	1.896060	-0.003187	0.000758	0.002987	6.249018	-78.822594	-92.498480
35088	NaN	9.580695	0.175330	1.888871	-0.008014	0.002065	0.002644	6.240491	-78.820814	-92.490833
35089	NaN	9.578852	0.195263	1.875868	-0.004784	0.001568	0.005946	6.226048	-78.819304	-92.474959
35090	NaN	9.580638	0.174212	1.889263	-0.006429	0.002548	0.004080	6.214696	-78.817181	-92.463310
35091	NaN	9.580515	0.187052	1.909842	-0.009477	-0.001774	0.000602	6.214015	-78.817243	-92.464206
35092	NaN	9.557966	0.164654	1.924031	-0.004898	0.004063	0.003622	6.203976	-78.814292	-92.452066
35093	NaN	9.582244	0.165840	1.923524	-0.008073	0.003528	0.002214	6.197798	-78.811434	-92.446537
35094	NaN	9.604945	0.161304	1.868784	-0.004945	0.004234	-0.001203	6.201930	-78.808049	-92.450040
35095	NaN	9.556047	0.171271	1.891506	-0.006539	0.004612	0.000291	6.201830	-78.804454	-92.449812
35096	NaN	9.578469	0.193307	1.878022	-0.005063	0.007160	-0.002062	6.207061	-78.799455	-92.454584
35097	NaN	9.557632	0.150749	1.905830	-0.006538	0.004612	0.000291	6.206960	-78.795860	-92.454354
35098	NaN	9.555552	0.184355	1.913917	-0.006774	0.010464	-0.001428	6.208060	-78.789072	-92.455448
35099	NaN	9.578110	0.193382	1.879844	-0.006404	-0.000036	-0.004711	6.223860	-78.787815	-92.471350
35100	NaN	9.579910	0.173152	1.893047	-0.007997	0.000343	-0.003217	6.232593	-78.786667	-92.480845
35101	NaN	9.579981	0.160130	1.872791	-0.005000	0.005266	-0.003097	6.242890	-78.782489	-92.490316
35102	NaN	9.579636	0.186871	1.914267	-0.003343	0.002995	-0.005627	6.260596	-78.779621	-92.506300
35103	NaN	9.579842	0.160705	1.873450	-0.011239	0.002132	-0.002125	6.265500	-78.777288	-92.513919
35104	NaN	9.555214	0.185539	1.915486	-0.003174	-0.000534	-0.001408	6.271940	-78.776769	-92.517938
35105	NaN	9.579527	0.187202	1.914778	-0.009708	0.003647	-0.002583	6.278550	-78.773544	-92.526403
35106	NaN	9.579514	0.187390	1.914828	-0.003106	-0.002857	-0.003910	6.293255	-78.774093	-92.538534
35107	NaN	9.579672	0.174304	1.894149	-0.004768	-0.000156	0.000085	6.296238	-78.773201	-92.540414
35108	NaN	9.579444	0.200676	1.935044	-0.006230	-0.003995	-0.001959	6.303995	-78.774569	-92.548736
35109	NaN	9.576149	0.215251	1.867281	-0.006234	-0.003565	-0.000494	6.308878	-78.775582	-92.553410
35110	NaN	9.579848	0.174289	1.893258	-0.006230	-0.003995	-0.001959	6.316676	-78.776924	-92.561447
35111	NaN	9.553640	0.206308	1.901090	-0.009353	-0.005132	-0.000008	6.318878	-78.778860	-92.565210
35112	NaN	9.580027	0.174005	1.892380	-0.007768	-0.004650	0.001429	6.316082	-78.780824	-92.562976
35113	NaN	9.580130	0.173734	1.891881	-0.004530	-0.006009	0.001801	6.316133	-78.783373	-92.561729
35114	NaN	9.553986	0.205508	1.899439	-0.004412	-0.008936	0.002658	6.313293	-78.787805	-92.557602
35115	NaN	9.582113	0.165732	1.924186	-0.007712	-0.005684	0.003323	6.307041	-78.790265	-92.551787
35116	NaN	9.580411	0.185856	1.910482	-0.004530	-0.006009	0.001801	6.305408	-78.793041	-92.548895
35117	NaN	9.582337	0.165183	1.923116	-0.006174	-0.005028	-0.000065	6.309564	-78.794914	-92.552792
35118	NaN	9.580625	0.185485	1.909444	-0.004530	-0.006009	0.001800	6.308252	-78.797569	-92.549557
35119	NaN	9.579055	0.192413	1.875124	-0.007652	-0.007147	0.003752	6.301259	-78.800890	-92.542952
35120	NaN	9.581000	0.171489	1.887676	-0.002945	-0.005528	0.003237	6.296204	-78.803488	-92.535581
35121	NaN	9.580981	0.184288	1.907772	-0.006182	-0.004168	0.002866	6.291650	-78.805056	-92.530604
35122	NaN	9.554997	0.189584	1.874662	-0.004656	-0.002224	0.003874	6.282618	-78.805850	-92.520350
35123	NaN	9.581136	0.183556	1.907068	-0.006115	-0.006490	0.000364	6.286038	-78.808583	-92.523462
35124	NaN	9.556782	0.194865	1.928012	-0.006181	-0.004168	0.002866	6.279920	-78.810297	-92.516042
35125	NaN	9.583131	0.162417	1.919394	-0.006241	-0.002705	0.002438	6.276096	-78.811005	-92.511843
35126	NaN	9.557157	0.167654	1.886215	-0.009303	-0.005306	0.004818	6.262745	-78.813592	-92.500029
35127	NaN	9.581454	0.182084	1.905610	-0.007941	-0.000688	-0.001320	6.268130	-78.812917	-92.506210
35128	NaN	9.555447	0.187668	1.872563	-0.007766	-0.004650	0.001429	6.265699	-78.814789	-92.504680
35129	NaN	9.581700	0.168424	1.884399	-0.006181	-0.004169	0.002866	6.261135	-78.816357	-92.499692
35130	NaN	9.579851	0.201911	1.891443	-0.007819	-0.004044	-0.001930	6.267959	-78.817706	-92.507188
35131	NaN	9.557499	0.166571	1.884579	-0.006237	-0.003134	0.000972	6.268490	-78.818567	-92.507427
35132	NaN	9.581908	0.168021	1.883375	-0.006233	-0.003563	-0.000493	6.272080	-78.819717	-92.511210
35133	NaN	9.581767	0.194238	1.924168	-0.009411	-0.003667	-0.000435	6.275017	-78.820793	-92.515754
35134	NaN	9.581923	0.180907	1.903362	-0.007884	-0.001723	0.000574	6.273724	-78.821009	-92.514973
35135	NaN	9.604477	0.202726	1.889210	-0.007888	-0.001294	0.002039	6.269652	-78.820889	-92.511484
35136	NaN	9.583853	0.146776	1.895941	-0.008122	0.004132	-0.001137	6.271341	-78.817675	-92.514360
35137	NaN	9.581987	0.167069	1.883058	-0.004773	0.000702	0.003019	6.265601	-78.816479	-92.507351
35138	NaN	9.555709	0.198760	1.891473	-0.004773	0.000702	0.003019	6.258681	-78.815351	-92.498820
35139	NaN	9.583613	0.172301	1.937311	-0.011055	-0.002683	-0.002300	6.265732	-78.815750	-92.508519
35140	NaN	9.580085	0.200126	1.890449	-0.006414	0.001256	-0.000311	6.267380	-78.814084	-92.509945
35141	NaN	9.607981	0.173837	1.936312	-0.007877	-0.002579	-0.002358	6.276387	-78.814421	-92.519781
35142	NaN	9.580110	0.200252	1.890310	-0.006407	0.000400	-0.003242	6.286399	-78.813152	-92.529732
35143	NaN	9.559420	0.157630	1.917385	-0.007884	-0.001723	0.000573	6.286688	-78.813184	-92.530686
35144	NaN	9.604475	0.201813	1.889316	-0.007996	0.000348	-0.003213	6.295988	-78.811911	-92.541606
35145	NaN	9.579993	0.213398	1.910946	-0.008062	0.002668	-0.000709	6.298469	-78.809362	-92.544899
35146	NaN	9.559259	0.170757	1.938243	-0.006410	0.000828	-0.001776	6.304050	-78.807970	-92.550580
35147	NaN	9.581895	0.179716	1.903613	-0.007880	-0.002151	-0.000893	6.308696	-78.808154	-92.555974
35148	NaN	9.557678	0.164974	1.883809	-0.004762	-0.000584	-0.001378	6.313821	-78.807732	-92.559299
35149	NaN	9.580228	0.187231	1.869649	-0.006284	-0.002955	-0.003854	6.328159	-78.808187	-92.573640
35150	NaN	9.581982	0.180000	1.903149	-0.011113	-0.001220	-0.002728	6.334681	-78.807833	-92.583057
35151	NaN	9.557642	0.178593	1.904000	-0.006403	-0.000028	-0.004708	6.350471	-78.806566	-92.598948
35152	NaN	9.581919	0.193557	1.923483	-0.009401	-0.004523	-0.003369	6.360873	-78.808020	-92.610626
35153	NaN	9.578519	0.208437	1.855864	-0.011112	-0.001220	-0.002727	6.368647	-78.807556	-92.621096
35154	NaN	9.581997	0.193626	1.923084	-0.009467	-0.002204	-0.000864	6.371005	-78.807908	-92.625558
35155	NaN	9.582203	0.167370	1.881932	-0.006469	0.002292	-0.002202	6.378797	-78.805478	-92.633334
35156	NaN	9.554089	0.219956	1.877246	-0.007879	-0.002152	-0.000894	6.381826	-78.805836	-92.636659
35157	NaN	9.584034	0.146694	1.895031	-0.008005	0.001631	0.001185	6.379202	-78.803998	-92.634714
35158	NaN	9.580257	0.200669	1.889518	-0.006353	-0.000208	0.000117	6.379770	-78.803246	-92.634314
35159	NaN	9.583939	0.159517	1.915596	-0.007879	-0.002152	-0.000894	6.384415	-78.803429	-92.639706
35160	NaN	9.557834	0.178411	1.903051	-0.007756	-0.005507	-0.001507	6.390331	-78.805682	-92.646251
35161	NaN	9.582251	0.179961	1.901801	-0.009467	-0.002204	-0.000864	6.394000	-78.805897	-92.651574
35162	NaN	9.556095	0.198793	1.889514	-0.004765	-0.000156	0.000088	6.395452	-78.805154	-92.651521
35163	NaN	9.608503	0.160848	1.913623	-0.010932	-0.005611	-0.001449	6.401062	-78.807272	-92.659680
35164	NaN	9.556118	0.211738	1.909496	-0.009466	-0.002204	-0.000864	6.403713	-78.807513	-92.663819
35165	NaN	9.580517	0.213238	1.908337	-0.007818	-0.003616	-0.000468	6.407641	-78.808556	-92.668444
35166	NaN	9.608702	0.160628	1.912642	-0.007815	-0.004043	-0.001934	6.414449	-78.809957	-92.677040
35167	NaN	9.558166	0.191065	1.921521	-0.009343	-0.005559	-0.001479	6.421044	-78.812042	-92.685275
35168	NaN	9.582730	0.179610	1.899417	-0.006104	-0.007346	-0.002578	6.431982	-78.815195	-92.696551
35169	NaN	9.584753	0.146019	1.891447	-0.006289	-0.002100	-0.000923	6.437609	-78.815346	-92.702015
35170	NaN	9.581034	0.200201	1.885624	-0.007814	-0.004043	-0.001934	6.444436	-78.816679	-92.709355
35171	NaN	9.582946	0.179683	1.898319	-0.009402	-0.004095	-0.001904	6.451757	-78.817902	-92.718363
35172	NaN	9.605523	0.201746	1.883991	-0.010993	-0.003721	-0.000409	6.452357	-78.819098	-92.720637
35173	NaN	9.581232	0.200026	1.884635	-0.007877	-0.002152	-0.000893	6.457007	-78.819280	-92.726033
35174	NaN	9.558779	0.177725	1.898364	-0.007820	-0.003190	0.000999	6.454789	-78.820412	-92.724353
35175	NaN	9.581456	0.186588	1.863407	-0.007757	-0.005080	-0.000042	6.458012	-78.822316	-92.728223
35176	NaN	9.583216	0.191873	1.917177	-0.012467	-0.005849	0.003404	6.447316	-78.825051	-92.720645
35177	NaN	9.559060	0.176916	1.897023	-0.007814	-0.004042	-0.001934	6.455621	-78.826242	-92.729729
35178	NaN	9.581647	0.198999	1.882634	-0.009344	-0.005133	-0.000013	6.456787	-78.828228	-92.732480
35179	NaN	9.581635	0.211891	1.902865	-0.006232	-0.003138	0.000969	6.457337	-78.829091	-92.732735
35180	NaN	9.559200	0.189579	1.916520	-0.007816	-0.003616	-0.000468	6.459913	-78.830235	-92.735518
35181	NaN	9.582038	0.172456	1.840365	-0.007813	-0.004042	-0.001934	6.468223	-78.831426	-92.744607
35182	NaN	9.583778	0.178088	1.894268	-0.009401	-0.004094	-0.001904	6.474149	-78.832729	-92.751057
35183	NaN	9.583793	0.191131	1.914367	-0.009281	-0.007023	-0.001055	6.480061	-78.835674	-92.758559
35184	NaN	9.583894	0.191023	1.913873	-0.009404	-0.003668	-0.000438	6.481787	-78.836832	-92.761749
35185	NaN	9.583936	0.191012	1.913660	-0.007933	-0.001113	-0.002784	6.491524	-78.836300	-92.772362
35186	NaN	9.583959	0.190880	1.913559	-0.009469	-0.001353	0.002070	6.484790	-78.836398	-92.766553
35187	NaN	9.582274	0.198086	1.879538	-0.007695	-0.006545	0.000381	6.487315	-78.839163	-92.769676
35188	NaN	9.582367	0.197857	1.879086	-0.009406	-0.003243	0.001029	6.484304	-78.840273	-92.768081
35189	NaN	9.584167	0.190144	1.912593	-0.007938	-0.000262	0.000150	6.485297	-78.839446	-92.769784
35190	NaN	9.559837	0.188212	1.913472	-0.007884	-0.000875	0.003507	6.475725	-78.839267	-92.761269
35191	NaN	9.582373	0.209960	1.899363	-0.006233	-0.002713	0.002435	6.471904	-78.839983	-92.757069
35192	NaN	9.584320	0.176096	1.891710	-0.007998	0.001203	-0.000275	6.472473	-78.838324	-92.757746
35193	NaN	9.558076	0.207858	1.900098	-0.006173	-0.004177	0.002859	6.467941	-78.839902	-92.752787
35194	NaN	9.558231	0.194482	1.879133	-0.007818	-0.003190	0.000998	6.465730	-78.841044	-92.751441
35195	NaN	9.584517	0.162155	1.870571	-0.006416	0.002106	0.002629	6.459667	-78.839029	-92.745062
35196	NaN	9.584352	0.187927	1.911881	-0.006293	-0.001248	0.002011	6.455627	-78.838936	-92.741683
35197	NaN	9.558254	0.193543	1.879111	-0.006353	0.000216	0.001587	6.453227	-78.837930	-92.739003
35198	NaN	9.560054	0.185738	1.912633	-0.010993	-0.003295	0.001058	6.449046	-78.839092	-92.736549
35199	NaN	9.608880	0.175577	1.889888	-0.004645	-0.002661	0.002404	6.446202	-78.839777	-92.732419
35200	NaN	9.586438	0.153068	1.903580	-0.006232	-0.002713	0.002434	6.441255	-78.840527	-92.726621
35201	NaN	9.560289	0.171673	1.891302	-0.009467	-0.001353	0.002071	6.436184	-78.840445	-92.723037
35202	NaN	9.582778	0.206792	1.897667	-0.006162	-0.005877	-0.003009	6.447621	-78.842779	-92.734498
35203	NaN	9.584689	0.186078	1.910373	-0.006295	-0.000824	0.003477	6.440134	-78.842487	-92.726598
35204	NaN	9.583036	0.180284	1.855887	-0.007814	-0.003615	-0.000469	6.442772	-78.843625	-92.729787
35205	NaN	9.583028	0.193244	1.876194	-0.006227	-0.003563	-0.000499	6.447696	-78.844637	-92.734497
35206	NaN	9.584849	0.185536	1.909624	-0.004704	-0.001197	0.001981	6.444278	-78.844574	-92.730183
35207	NaN	9.583101	0.192759	1.875869	-0.007879	-0.001301	0.002041	6.440184	-78.844461	-92.726666
35208	NaN	9.584890	0.184913	1.909477	-0.006352	0.000216	0.001587	6.436059	-78.843656	-92.721959
35209	NaN	9.586769	0.164075	1.922353	-0.007817	-0.003190	0.000998	6.435628	-78.844551	-92.722140
35210	NaN	9.558880	0.190387	1.876246	-0.009341	-0.005132	-0.000016	6.436046	-78.846696	-92.723396
35211	NaN	9.583255	0.191714	1.875189	-0.006414	0.002105	0.002631	6.429977	-78.844682	-92.717010
35212	NaN	9.585017	0.183914	1.908937	-0.006349	-0.000208	0.000121	6.430760	-78.843918	-92.718128
35213	NaN	9.558842	0.202658	1.896806	-0.007879	-0.001301	0.002041	6.426665	-78.843805	-92.714610
35214	NaN	9.560804	0.168782	1.888960	-0.004642	-0.003086	0.000937	6.426813	-78.844751	-92.713378
35215	NaN	9.585140	0.183184	1.908388	-0.009403	-0.003242	0.001027	6.425402	-78.845679	-92.713486
35216	NaN	9.587077	0.149369	1.900653	-0.007996	0.001205	-0.000272	6.425774	-78.844063	-92.713896
35217	NaN	9.559057	0.188758	1.875513	-0.007816	-0.003190	0.000997	6.425342	-78.844959	-92.714075
35218	NaN	9.560915	0.181020	1.908774	-0.006166	-0.005027	-0.000077	6.427810	-78.847036	-92.716004
35219	NaN	9.585388	0.169368	1.886904	-0.007878	-0.001301	0.002041	6.423713	-78.846924	-92.712483
35220	NaN	9.583533	0.202666	1.894295	-0.007755	-0.004655	0.001420	6.420949	-78.848862	-92.710242
35221	NaN	9.583674	0.189383	1.873282	-0.007815	-0.003190	0.000997	6.420516	-78.849758	-92.710421
35222	NaN	9.585507	0.181570	1.906699	-0.009463	-0.001777	0.000605	6.418398	-78.849936	-92.709518
35223	NaN	9.559377	0.200304	1.894356	-0.007755	-0.004655	0.001420	6.417255	-78.851693	-92.708937
35224	NaN	9.582037	0.209093	1.859305	-0.009284	-0.005749	0.003339	6.408557	-78.854330	-92.701321
35225	NaN	9.610089	0.182111	1.904668	-0.006290	-0.001249	0.002011	6.405436	-78.854186	-92.697868
35226	NaN	9.583958	0.200866	1.892333	-0.009340	-0.005131	-0.000017	6.406407	-78.856186	-92.699788
35227	NaN	9.585887	0.180092	1.904929	-0.004641	-0.003086	0.000936	6.407933	-78.857019	-92.700109
35228	NaN	9.584173	0.187538	1.870915	-0.006166	-0.005027	-0.000078	6.411036	-78.858938	-92.702980
35229	NaN	9.586101	0.166780	1.883509	-0.006228	-0.003138	0.000967	6.411582	-78.859803	-92.703228
35230	NaN	9.584283	0.200120	1.890766	-0.007694	-0.006120	0.001842	6.408388	-78.862481	-92.699562
35231	NaN	9.563803	0.143999	1.896482	-0.009341	-0.004707	0.001450	6.406261	-78.864270	-92.698904
35232	NaN	9.560161	0.184976	1.870252	-0.004701	-0.001621	0.000514	6.407350	-78.864269	-92.698273
35233	NaN	9.586362	0.178675	1.902673	-0.009343	-0.004284	0.002917	6.400840	-78.865910	-92.693149
35234	NaN	9.586436	0.178324	1.902330	-0.007814	-0.003190	0.000997	6.398258	-78.867176	-92.692193
35235	NaN	9.560272	0.197058	1.890178	-0.007936	0.000163	0.001621	6.394860	-78.866202	-92.689419
35236	NaN	9.562103	0.189174	1.923678	-0.007814	-0.003190	0.000997	6.392907	-78.867214	-92.687317
35237	NaN	9.584760	0.185142	1.868148	-0.007814	-0.003190	0.000997	6.392470	-78.868110	-92.687489
35238	NaN	9.586670	0.164238	1.880836	-0.006228	-0.002715	0.002434	6.387244	-78.868906	-92.681079
35239	NaN	9.586676	0.176863	1.901255	-0.007815	-0.002767	0.002464	6.382422	-78.869655	-92.676783
35240	NaN	9.560497	0.195656	1.889185	-0.004821	0.001310	-0.000329	6.384372	-78.868115	-92.677851
35241	NaN	9.584831	0.197105	1.888302	-0.011108	-0.000363	0.000215	6.383394	-78.867351	-92.679395
35242	NaN	9.560542	0.182360	1.868563	-0.004760	-0.000156	0.000092	6.385191	-78.866533	-92.680490
35243	NaN	9.584829	0.209950	1.908757	-0.009395	-0.004510	-0.003375	6.396923	-78.867902	-92.693989
35244	NaN	9.586736	0.189235	1.921446	-0.007875	-0.001302	0.002043	6.391495	-78.867874	-92.688858
35245	NaN	9.585015	0.183750	1.866975	-0.007870	-0.002570	-0.002360	6.400536	-78.868203	-92.698723
35246	NaN	9.560706	0.182056	1.867752	-0.004701	-0.001199	0.001981	6.397281	-78.868036	-92.693505
35247	NaN	9.585050	0.196424	1.887264	-0.009398	-0.003665	-0.000440	6.400248	-78.869110	-92.698072
35248	NaN	9.585071	0.196327	1.887165	-0.004820	0.001310	-0.000329	6.403058	-78.867365	-92.700554
35249	NaN	9.609417	0.197703	1.886231	-0.009461	-0.001355	0.002073	6.397965	-78.867285	-92.696944
35250	NaN	9.562606	0.173764	1.900962	-0.007930	-0.001104	-0.002781	6.406261	-78.866813	-92.704578
35251	NaN	9.585087	0.195834	1.887137	-0.007996	0.002050	0.002668	6.399183	-78.864832	-92.698088
35252	NaN	9.560746	0.194004	1.888094	-0.007871	-0.002147	-0.000893	6.402434	-78.865114	-92.701659
35253	NaN	9.560785	0.193941	1.887904	-0.007871	-0.002147	-0.000893	6.407090	-78.865296	-92.707055
35254	NaN	9.585178	0.195399	1.886718	-0.006226	-0.003139	0.000965	6.406799	-78.866127	-92.706420
35255	NaN	9.560880	0.193527	1.887466	-0.007874	-0.001303	0.002042	6.402688	-78.866016	-92.702883
35256	NaN	9.562754	0.172701	1.900316	-0.009518	-0.000733	-0.001283	6.405166	-78.865639	-92.707406
35257	NaN	9.587133	0.174178	1.899198	-0.004639	-0.003087	0.000934	6.406694	-78.866473	-92.707728
35258	NaN	9.562824	0.172379	1.899994	-0.011106	-0.000363	0.000216	6.403756	-78.865982	-92.707447
35259	NaN	9.585306	0.207412	1.906638	-0.006224	-0.003561	-0.000503	6.408687	-78.866994	-92.712161
35260	NaN	9.562883	0.185030	1.920202	-0.007812	-0.003191	0.000995	6.407088	-78.867901	-92.710236
35261	NaN	9.561120	0.192564	1.886348	-0.006284	-0.002095	-0.000924	6.412726	-78.868050	-92.715706
35262	NaN	9.609856	0.195635	1.884209	-0.006225	-0.003139	0.000964	6.411502	-78.869117	-92.713866
35263	NaN	9.561271	0.179280	1.865128	-0.006225	-0.003139	0.000964	6.412049	-78.869982	-92.714113
35264	NaN	9.585593	0.206470	1.905295	-0.009399	-0.002821	0.002494	6.404389	-78.870992	-92.707617
35265	NaN	9.587482	0.185543	1.918081	-0.007932	-0.000259	0.000155	6.405364	-78.870166	-92.709298
35266	NaN	9.611916	0.174016	1.896190	-0.009336	-0.005130	-0.000021	6.406511	-78.872137	-92.711881
35267	NaN	9.561434	0.191237	1.884891	-0.004700	-0.001200	0.001981	6.404359	-78.871963	-92.708487
35268	NaN	9.587622	0.184742	1.917459	-0.009460	-0.000934	0.003542	6.393477	-78.871837	-92.698667
35269	NaN	9.587676	0.171541	1.896699	-0.006344	-0.000629	-0.001344	6.399820	-78.871125	-92.704891
35270	NaN	9.561463	0.203518	1.905325	-0.006284	-0.002094	-0.000924	6.404547	-78.871279	-92.709877
35271	NaN	9.612025	0.185914	1.916248	-0.006346	0.000214	0.001592	6.402117	-78.870276	-92.707162
35272	NaN	9.585879	0.191747	1.883532	-0.011043	-0.001829	0.000637	6.399383	-78.870354	-92.706090
35273	NaN	9.587747	0.183821	1.916919	-0.004638	-0.003087	0.000933	6.400912	-78.871188	-92.706411
35274	NaN	9.587799	0.170643	1.896155	-0.009579	0.001576	0.001234	6.395828	-78.869474	-92.702392
35275	NaN	9.585898	0.204077	1.904019	-0.006344	-0.000628	-0.001344	6.402169	-78.868763	-92.708613
35276	NaN	9.563480	0.168717	1.897017	-0.007811	-0.002770	0.002462	6.395831	-78.869661	-92.702826
35277	NaN	9.586014	0.190732	1.882944	-0.007869	-0.002146	-0.000893	6.400485	-78.869842	-92.708219
35278	NaN	9.561722	0.188970	1.883657	-0.009396	-0.003243	0.001025	6.397935	-78.870813	-92.707231
35279	NaN	9.586093	0.203130	1.903138	-0.010983	-0.002874	0.002524	6.391150	-78.871628	-92.702785
35280	NaN	9.563674	0.167739	1.896124	-0.006343	-0.000628	-0.001344	6.395865	-78.871047	-92.706481
35281	NaN	9.612352	0.170779	1.894271	-0.009578	0.001576	0.001235	6.392174	-78.869245	-92.704366
35282	NaN	9.561810	0.200931	1.903854	-0.009334	-0.005129	-0.000024	6.392947	-78.871274	-92.705756
35283	NaN	9.588077	0.168745	1.894920	-0.006406	0.001679	0.001173	6.391219	-78.869409	-92.703789
35284	NaN	9.586236	0.189160	1.881975	-0.007809	-0.003191	0.000994	6.389272	-78.870413	-92.701695
35285	NaN	9.563750	0.179541	1.916400	-0.009517	0.000109	0.001655	6.384876	-78.869473	-92.698827
35286	NaN	9.561972	0.174091	1.862022	-0.007870	-0.001725	0.000575	6.383963	-78.869592	-92.699232
35287	NaN	9.586299	0.201238	1.902301	-0.006224	-0.002719	0.002430	6.380124	-78.870312	-92.695009
35288	NaN	9.586373	0.188079	1.881385	-0.004698	-0.001621	0.000512	6.381078	-78.870335	-92.694221
35289	NaN	9.586421	0.187856	1.881164	-0.010981	-0.003295	0.001056	6.378679	-78.871295	-92.694242
35290	NaN	9.563934	0.178172	1.915608	-0.004760	0.000685	0.003030	6.372278	-78.870014	-92.686836
35291	NaN	9.588308	0.166634	1.893939	-0.009515	-0.000730	-0.001281	6.376653	-78.869365	-92.692905
35292	NaN	9.586473	0.187181	1.880965	-0.006283	-0.001673	0.000543	6.376352	-78.869503	-92.692017
35293	NaN	9.608980	0.209338	1.867037	-0.007929	-0.000679	-0.001312	6.381708	-78.868822	-92.698160
35294	NaN	9.586516	0.186971	1.880765	-0.007869	-0.001725	0.000574	6.380298	-78.869024	-92.697003
35295	NaN	9.586550	0.186768	1.880614	-0.007869	-0.001725	0.000574	6.380566	-78.869059	-92.697925
35296	NaN	9.564053	0.177175	1.915107	-0.006344	0.000213	0.001593	6.377066	-78.868050	-92.693553
35297	NaN	9.584711	0.206979	1.867702	-0.007929	-0.000259	0.000156	6.378036	-78.867224	-92.695226
35298	NaN	9.586559	0.198940	1.901234	-0.009455	-0.001357	0.002074	6.371254	-78.867355	-92.690409
35299	NaN	9.586596	0.198790	1.901063	-0.007867	-0.002564	-0.002362	6.380291	-78.867681	-92.700267
35300	NaN	9.590365	0.157367	1.926521	-0.007808	-0.003191	0.000993	6.378881	-78.868568	-92.699303
35301	NaN	9.562410	0.184029	1.880651	-0.007747	-0.005077	-0.000058	6.382132	-78.870472	-92.703194
35302	NaN	9.588669	0.177736	1.912878	-0.006221	-0.003559	-0.000507	6.386372	-78.871405	-92.707260
35303	NaN	9.586895	0.185291	1.878999	-0.007808	-0.002772	0.002461	6.381552	-78.872157	-92.702962
35304	NaN	9.586923	0.184964	1.878889	-0.006343	0.000212	0.001594	6.378240	-78.871151	-92.699986
35305	NaN	9.588813	0.163999	1.891608	-0.010979	-0.003295	0.001055	6.375842	-78.872111	-92.700007
35306	NaN	9.586961	0.197216	1.899383	-0.004758	0.000683	0.003031	6.369529	-78.870814	-92.692941
35307	NaN	9.586961	0.196926	1.899415	-0.009514	-0.000310	0.000188	6.369515	-78.870020	-92.694537
35308	NaN	9.564479	0.174422	1.913235	-0.006343	0.000212	0.001594	6.366592	-78.868918	-92.692175
35309	NaN	9.586980	0.196467	1.899369	-0.006282	-0.001673	0.000543	6.367842	-78.868922	-92.693172
35310	NaN	9.587013	0.196279	1.899220	-0.007868	-0.001725	0.000574	6.366681	-78.869085	-92.692948
35311	NaN	9.588908	0.175448	1.911890	-0.009452	-0.002195	-0.000863	6.370352	-78.869297	-92.698263
35312	NaN	9.588982	0.162488	1.890885	-0.006221	-0.003558	-0.000508	6.373833	-78.870418	-92.701312
35313	NaN	9.538455	0.179840	1.879895	-0.006403	0.001678	0.001176	6.372096	-78.868554	-92.699336
35314	NaN	9.562811	0.194133	1.899527	-0.006160	-0.005025	-0.000091	6.375439	-78.870371	-92.701866
35315	NaN	9.589097	0.161994	1.890342	-0.009453	-0.001777	0.000606	6.374724	-78.870438	-92.702712
35316	NaN	9.587237	0.195278	1.898191	-0.007928	0.000160	0.001625	6.369874	-78.869583	-92.698550
35317	NaN	9.562942	0.193481	1.898937	-0.006160	-0.005025	-0.000091	6.374112	-78.871456	-92.702520
35318	NaN	9.587397	0.182062	1.876752	-0.009331	-0.005128	-0.000028	6.375264	-78.873376	-92.704276
35319	NaN	9.589311	0.161293	1.889319	-0.006341	-0.000625	-0.001343	6.381599	-78.872663	-92.710490
35320	NaN	9.561283	0.201051	1.864441	-0.006220	-0.003558	-0.000509	6.385762	-78.873585	-92.713896
35321	NaN	9.589409	0.173896	1.909518	-0.006161	-0.004188	0.002846	6.381228	-78.875168	-92.708927
35322	NaN	9.585765	0.215102	1.883487	-0.007805	-0.004028	-0.001946	6.388048	-78.876449	-92.715602
35323	NaN	9.565207	0.159046	1.889131	-0.007867	-0.000889	0.003512	6.379536	-78.876195	-92.707576
35324	NaN	9.563363	0.192340	1.896932	-0.006280	-0.002091	-0.000926	6.383443	-78.876546	-92.711535
35325	NaN	9.587759	0.193846	1.895701	-0.009391	-0.003661	-0.000446	6.386418	-78.877620	-92.716104
35326	NaN	9.563467	0.179322	1.875725	-0.007926	-0.000676	-0.001311	6.390673	-78.876935	-92.720597
35327	NaN	9.587806	0.180908	1.874774	-0.007987	0.000790	-0.001728	6.396720	-78.875392	-92.727477
35328	NaN	9.565340	0.158668	1.888489	-0.007865	-0.002561	-0.002363	6.403866	-78.875943	-92.735234
35329	NaN	9.587832	0.193763	1.895342	-0.007926	-0.000259	0.000158	6.404827	-78.875117	-92.736895
35330	NaN	9.587814	0.193744	1.895431	-0.011217	0.001736	-0.003550	6.411917	-78.873136	-92.745390
35331	NaN	9.565316	0.158640	1.888611	-0.004816	0.001311	-0.000322	6.415535	-78.871386	-92.747943
35332	NaN	9.563427	0.179264	1.875935	-0.006401	0.001260	-0.000290	6.416244	-78.869870	-92.747645
35333	NaN	9.565257	0.171384	1.909616	-0.006401	0.000842	-0.001759	6.423264	-78.868295	-92.754591
35334	NaN	9.587702	0.193728	1.896002	-0.008047	0.002257	-0.002144	6.429298	-78.865807	-92.761666
35335	NaN	9.563313	0.192290	1.897185	-0.004876	0.001943	-0.003676	6.442371	-78.863481	-92.773891
35336	NaN	9.585717	0.214767	1.883767	-0.009753	0.005139	-0.002945	6.447923	-78.859503	-92.780767
35337	NaN	9.587538	0.181298	1.876106	-0.006401	0.000842	-0.001759	6.454932	-78.857927	-92.787702
35338	NaN	9.565027	0.184718	1.931406	-0.011095	-0.001198	-0.002718	6.461430	-78.857506	-92.796710
35339	NaN	9.587517	0.181294	1.876215	-0.004877	0.003195	0.000731	6.461341	-78.854750	-92.795520
35340	NaN	9.609938	0.216358	1.883425	-0.007985	0.000790	-0.001728	6.466300	-78.853201	-92.801014
35341	NaN	9.564951	0.171781	1.911109	-0.008046	0.002257	-0.002144	6.473006	-78.850794	-92.808601
35342	NaN	9.587428	0.181272	1.876669	-0.007925	-0.000677	-0.001312	6.477006	-78.850209	-92.813693
35343	NaN	9.587424	0.181285	1.876689	-0.006400	0.000842	-0.001759	6.484005	-78.848632	-92.820617
35344	NaN	9.561249	0.213144	1.885377	-0.009267	-0.006597	0.000382	6.484609	-78.851439	-92.823052
35345	NaN	9.587529	0.181156	1.876168	-0.003230	0.000946	-0.001822	6.493570	-78.849798	-92.830125
35346	NaN	9.565072	0.197421	1.951879	-0.006034	-0.008794	-0.002203	6.503617	-78.853844	-92.840151
35347	NaN	9.565235	0.171680	1.909698	-0.007742	-0.004661	0.001404	6.502517	-78.855605	-92.839605
35348	NaN	9.589677	0.185976	1.928940	-0.010850	-0.007482	-0.002524	6.510958	-78.858667	-92.849890
35349	NaN	9.563626	0.204980	1.916334	-0.007559	-0.009479	0.001182	6.512197	-78.863156	-92.851621
35350	NaN	9.565705	0.184213	1.928094	-0.005912	-0.012144	-0.002842	6.525377	-78.869020	-92.864331
35351	NaN	9.590313	0.173117	1.905046	-0.005790	-0.015078	-0.002011	6.538735	-78.876489	-92.877379
35352	NaN	9.588668	0.206687	1.911842	-0.009142	-0.010364	-0.001724	6.546149	-78.881413	-92.885477
35353	NaN	9.564557	0.192278	1.890907	-0.010605	-0.013767	-0.002331	6.557266	-78.888113	-92.899051
35354	NaN	9.566721	0.184385	1.923028	-0.007312	-0.016597	-0.001564	6.568391	-78.896368	-92.910936
35355	NaN	9.591441	0.173185	1.899353	-0.013406	-0.023507	-0.002714	6.582307	-78.908586	-92.928999
35356	NaN	9.589944	0.181183	1.863780	-0.012004	-0.019054	-0.003991	6.598190	-78.918177	-92.947872
35357	NaN	9.614609	0.195665	1.881944	-0.010541	-0.015235	-0.001915	6.608706	-78.925737	-92.960796
35358	NaN	9.588670	0.214666	1.868690	-0.012063	-0.016338	0.000001	6.612178	-78.934033	-92.967448
35359	NaN	9.592673	0.160157	1.872270	-0.010785	-0.008117	0.000833	6.612174	-78.937723	-92.969795
35360	NaN	9.613366	0.215878	1.865901	-0.007739	-0.005495	-0.001531	6.618863	-78.939734	-92.976530
35361	NaN	9.591008	0.180771	1.858339	-0.012494	-0.006067	-0.002902	6.628067	-78.942011	-92.989257
35362	NaN	9.566698	0.179080	1.859200	-0.014385	0.002465	-0.000534	6.625453	-78.939571	-92.991241
35363	NaN	9.566656	0.191775	1.880311	-0.011277	0.003621	-0.002483	6.630856	-78.936362	-92.999383
35364	NaN	9.617148	0.161547	1.870592	-0.012862	0.003153	-0.003920	6.638817	-78.933292	-93.011449
35365	NaN	9.613238	0.203004	1.845698	-0.013045	0.008802	-0.000754	6.636415	-78.927248	-93.012673
35366	NaN	9.592550	0.185362	1.914664	-0.008292	0.008958	-0.000852	6.635655	-78.921173	-93.012645
35367	NaN	9.590492	0.193300	1.881882	-0.014568	0.006451	-0.003247	6.640416	-78.916302	-93.022057
35368	NaN	9.565922	0.178888	1.863208	-0.011768	0.016606	-0.001387	6.636577	-78.905859	-93.021076
35369	NaN	9.614366	0.194733	1.883283	-0.008291	0.009374	0.000617	6.632724	-78.899581	-93.018045
35370	NaN	9.591700	0.184907	1.918963	-0.010059	0.014139	0.000878	6.624587	-78.890550	-93.011210
35371	NaN	9.565229	0.191059	1.887629	-0.006767	0.010893	0.000171	6.622399	-78.883377	-93.008985
35372	NaN	9.591301	0.184598	1.920984	-0.009752	0.005556	-0.001462	6.622919	-78.879413	-93.011153
35373	NaN	9.564956	0.190743	1.889043	-0.006583	0.006906	0.002882	6.614332	-78.874689	-93.002300
35374	NaN	9.564808	0.190521	1.889816	-0.006705	0.009011	-0.000884	6.614655	-78.868518	-93.001653
35375	NaN	9.564685	0.190208	1.890471	-0.004876	0.004437	0.005147	6.601336	-78.865348	-92.986979
35376	NaN	9.588937	0.191573	1.889962	-0.009751	0.005142	-0.002933	6.606975	-78.861324	-92.994330
35377	NaN	9.615022	0.172406	1.902424	-0.005121	0.009478	0.000554	6.605114	-78.854982	-92.991477
35378	NaN	9.564293	0.202336	1.913283	-0.008167	0.007268	0.004383	6.589971	-78.850261	-92.978330
35379	NaN	9.564148	0.189230	1.893284	-0.003536	0.009530	0.000522	6.589103	-78.843887	-92.975564
35380	NaN	9.588328	0.216077	1.934667	-0.006521	0.005438	0.003295	6.578818	-78.840055	-92.965584
35381	NaN	9.562006	0.209322	1.881963	-0.005059	0.008425	0.002437	6.571933	-78.834436	-92.957573
35382	NaN	9.588116	0.189843	1.894298	-0.006460	0.003555	0.002239	6.565540	-78.831516	-92.950545
35383	NaN	9.563694	0.200600	1.916457	-0.004876	0.004022	0.003677	6.556657	-78.828483	-92.940391
35384	NaN	9.563629	0.200312	1.916813	-0.003291	0.003245	0.000706	6.556655	-78.825659	-92.938751
35385	NaN	9.565513	0.191976	1.950262	-0.004510	-0.005199	0.004686	6.548130	-78.827940	-92.928748
35386	NaN	9.586248	0.209162	1.881695	-0.007677	-0.006132	0.001810	6.545553	-78.830492	-92.926442
35387	NaN	9.565731	0.178475	1.928502	-0.004631	-0.002678	0.002390	6.542738	-78.831189	-92.922331
35388	NaN	9.588267	0.200413	1.914520	-0.006155	-0.003783	0.004305	6.532342	-78.832799	-92.912020
35389	NaN	9.564026	0.185797	1.894239	-0.007737	-0.005492	-0.001543	6.540018	-78.834841	-92.920416
35390	NaN	9.565941	0.177680	1.927533	-0.003169	0.000310	0.001533	6.538944	-78.833702	-92.918390
35391	NaN	9.588464	0.199726	1.913605	-0.006093	-0.005665	0.003248	6.533804	-78.836154	-92.912763
35392	NaN	9.588557	0.186592	1.892391	-0.006215	-0.002730	0.002422	6.528927	-78.836830	-92.906317
35393	NaN	9.566142	0.176708	1.926626	-0.004630	-0.003092	0.000921	6.530486	-78.837666	-92.906663
35394	NaN	9.562489	0.218093	1.900745	-0.010845	-0.007064	-0.001067	6.534051	-78.840734	-92.912510
35395	NaN	9.588835	0.198823	1.911842	-0.004508	-0.006441	0.000276	6.538647	-78.843435	-92.915881
35396	NaN	9.564599	0.184231	1.891493	-0.006153	-0.004198	0.002835	6.533089	-78.844955	-92.908269
35397	NaN	9.611462	0.220588	1.897415	-0.006275	-0.001262	0.002010	6.529956	-78.844821	-92.904794
35398	NaN	9.589039	0.197889	1.910914	-0.006214	-0.002730	0.002422	6.525124	-78.845530	-92.899420
35399	NaN	9.589049	0.172087	1.869240	-0.003229	0.002191	0.002591	6.520919	-78.843467	-92.893073
35400	NaN	9.587168	0.230663	1.919104	-0.007859	-0.000900	0.003511	6.510522	-78.843399	-92.882064
35401	NaN	9.564693	0.195059	1.912039	-0.006397	0.002501	0.004124	6.499978	-78.841259	-92.871106
35402	NaN	9.590913	0.175433	1.923780	-0.001462	-0.002160	0.003796	6.492963	-78.841856	-92.859039
35403	NaN	9.564754	0.207053	1.932650	-0.004630	-0.003092	0.000920	6.494519	-78.842693	-92.859380
35404	NaN	9.564789	0.194020	1.911665	0.001645	-0.000175	0.004790	6.486719	-78.842115	-92.847991
35405	NaN	9.566717	0.160071	1.903274	-0.001340	-0.005096	0.004621	6.480133	-78.844332	-92.838114
35406	NaN	9.564987	0.180650	1.889878	0.001949	-0.009583	-0.000497	6.490589	-78.848725	-92.842641
35407	NaN	9.613851	0.183787	1.887006	-0.004387	-0.009377	0.001100	6.493830	-78.853151	-92.844558
35408	NaN	9.565349	0.193049	1.908959	0.000366	-0.008394	0.003944	6.489850	-78.857235	-92.835223
35409	NaN	9.612234	0.178403	1.831291	-0.004629	-0.002264	0.003861	6.482633	-78.857790	-92.826624
35410	NaN	9.589810	0.206396	1.928365	-0.000059	0.003536	0.006937	6.465856	-78.855336	-92.805894
35411	NaN	9.542974	0.169343	1.922295	-0.001523	-0.001520	0.000444	6.470049	-78.855246	-92.807109
35412	NaN	9.565543	0.191485	1.908144	0.000365	-0.008394	0.003944	6.466059	-78.859404	-92.799420
35413	NaN	9.614413	0.194312	1.905268	-0.002742	-0.010379	0.002950	6.465210	-78.864520	-92.796209
35414	NaN	9.614525	0.181240	1.883813	-0.006213	-0.002729	0.002423	6.459559	-78.865443	-92.790123
35415	NaN	9.590227	0.192117	1.905532	-0.001583	0.000362	0.001502	6.460041	-78.864351	-92.787592
35416	NaN	9.592022	0.158469	1.897702	-0.006578	0.006079	-0.000050	6.459050	-78.859950	-92.786727
35417	NaN	9.565667	0.177627	1.886718	-0.008284	0.008550	-0.002312	6.464038	-78.853950	-92.792702
35418	NaN	9.567355	0.157236	1.900297	-0.008407	0.009833	-0.009016	6.486553	-78.846856	-92.816699
35419	NaN	9.565256	0.191722	1.909558	-0.007007	0.013048	-0.014695	6.526498	-78.837491	-92.857559
35420	NaN	9.542573	0.183280	1.945041	-0.005179	0.007228	-0.013079	6.562773	-78.831704	-92.892342
35421	NaN	9.520065	0.149603	1.937929	-0.012672	-0.006200	-0.020326	6.622013	-78.832912	-92.956178
35422	NaN	9.589426	0.172644	1.867253	-0.014255	-0.008731	-0.029115	6.706135	-78.834813	-93.047135
35423	NaN	9.613655	0.177211	1.866570	-0.010483	0.014502	-0.037269	6.808377	-78.823063	-93.153526
35424	NaN	9.564622	0.189886	1.890820	-0.013648	0.015223	-0.034266	6.898425	-78.811104	-93.248924
35425	NaN	9.611001	0.242529	1.919407	-0.013707	0.015865	-0.037618	6.998913	-78.798487	-93.355420
35426	NaN	9.588201	0.222854	1.934528	-0.018275	0.014190	-0.025997	7.062287	-78.787728	-93.426739
35427	NaN	9.587954	0.199785	1.894099	-0.018208	0.011484	-0.029997	7.139534	-78.778087	-93.512177
35428	NaN	9.587545	0.215019	1.916553	-0.015414	0.021225	-0.029587	7.212998	-78.762796	-93.592919
35429	NaN	9.609493	0.239941	1.905027	-0.015414	0.021638	-0.028117	7.282443	-78.747477	-93.668778
35430	NaN	9.564128	0.197347	1.934605	-0.015602	0.026867	-0.026410	7.343720	-78.729282	-93.736281
35431	NaN	9.563591	0.212072	1.957593	-0.013581	0.017055	-0.022093	7.398356	-78.716977	-93.795979
35432	NaN	9.585784	0.211078	1.903829	-0.019847	0.014545	-0.024501	7.455497	-78.706050	-93.862016
35433	NaN	9.585346	0.213141	1.905803	-0.010788	0.025975	-0.024619	7.515320	-78.688467	-93.925376
35434	NaN	9.562224	0.218304	1.963578	-0.010780	0.025151	-0.027560	7.581996	-78.671215	-93.994663
35435	NaN	9.561911	0.195462	1.924002	-0.016914	0.019291	-0.030620	7.657448	-78.656943	-94.077551
35436	NaN	9.606284	0.230593	1.878371	-0.018932	0.029102	-0.034935	7.738447	-78.636892	-94.167709
35437	NaN	9.554715	0.276138	1.912657	-0.011407	0.040248	-0.030193	7.807293	-78.610713	-94.240651
35438	NaN	9.559677	0.228868	1.974745	-0.015650	0.028333	-0.026822	7.866946	-78.591644	-94.305654
35439	NaN	9.579586	0.274573	1.950922	-0.015320	0.019757	-0.029184	7.938160	-78.577140	-94.383309
35440	NaN	9.582992	0.235271	1.978244	-0.015394	0.022459	-0.025182	7.995982	-78.561284	-94.446068
35441	NaN	9.576905	0.274324	1.901001	-0.013950	0.026685	-0.021619	8.043685	-78.543422	-94.498943
35442	NaN	9.580142	0.247269	1.949401	-0.010519	0.020103	-0.022978	8.098534	-78.529227	-94.558121
35443	NaN	9.508386	0.248403	2.008000	-0.010201	0.012761	-0.020928	8.151718	-78.519301	-94.614402
35444	NaN	9.555117	0.261783	1.973256	-0.012721	-0.002860	-0.019715	8.205155	-78.518326	-94.672291
35445	NaN	9.579842	0.239884	1.930148	-0.014107	-0.007733	-0.019928	8.261471	-78.520082	-94.734052
35446	NaN	9.575991	0.283053	1.904323	-0.011015	-0.005329	-0.017453	8.311020	-78.520512	-94.786414
35447	NaN	9.602125	0.277980	1.936739	-0.009639	0.000366	-0.014297	8.350883	-78.518123	-94.828773
35448	NaN	9.579714	0.256523	1.950305	-0.008062	0.000834	-0.012855	8.386170	-78.515667	-94.866183
35449	NaN	9.577675	0.278188	1.937904	-0.017634	0.002777	-0.010152	8.408862	-78.512248	-94.895697
35450	NaN	9.555038	0.268922	1.972680	-0.006623	0.005060	-0.009289	8.433325	-78.507572	-94.919279
35451	NaN	9.555135	0.256902	1.952098	-0.008019	0.001007	-0.006561	8.452217	-78.505453	-94.939294
35452	NaN	9.553004	0.290884	1.960185	-0.007751	-0.005688	-0.007867	8.476924	-78.506944	-94.965519
35453	NaN	9.555231	0.257862	1.951501	-0.006249	-0.002931	-0.003891	8.491018	-78.507280	-94.979603
35454	NaN	9.579655	0.259739	1.950171	-0.009228	-0.007043	-0.001136	8.496498	-78.510123	-94.986256
35455	NaN	9.553619	0.266057	1.917064	-0.007779	-0.003638	-0.000511	8.500592	-78.511145	-94.991029
35456	NaN	9.579951	0.246804	1.928730	-0.004824	0.002114	0.002618	8.493919	-78.509243	-94.982880
35457	NaN	9.577595	0.292543	1.958072	-0.001594	0.000762	0.002971	8.490018	-78.508067	-94.975879
35458	NaN	9.600356	0.289412	1.902604	-0.010833	-0.005461	0.004777	8.477106	-78.510590	-94.964260
35459	NaN	9.579972	0.245182	1.928834	-0.005045	0.008570	0.008748	8.451887	-78.505475	-94.937523
35460	NaN	9.557135	0.246862	1.984857	-0.004981	0.007101	0.009157	8.425419	-78.501096	-94.908571
35461	NaN	9.577625	0.276695	1.938366	-0.006365	0.002227	0.008940	8.401562	-78.499587	-94.883995
35462	NaN	9.557359	0.219533	1.943923	-0.009670	0.005868	0.011122	8.366892	-78.496212	-94.848871
35463	NaN	9.552744	0.298150	1.982281	0.004330	0.011443	0.006291	8.352793	-78.489254	-94.827998
35464	NaN	9.554888	0.263598	1.974121	-0.005871	-0.008294	0.016623	8.310891	-78.494395	-94.784696
35465	NaN	9.555317	0.249570	1.952157	0.000674	-0.014109	0.011851	8.289615	-78.502379	-94.758637
35466	NaN	9.559415	0.219057	1.996772	0.005587	-0.016295	0.020348	8.246963	-78.512333	-94.706994
35467	NaN	9.580436	0.248031	1.947855	0.002752	-0.024573	0.019506	8.209631	-78.526873	-94.663338
35468	NaN	9.558449	0.223713	1.959641	0.006918	-0.010363	0.018684	8.169681	-78.533435	-94.615258
35469	NaN	9.556641	0.255612	1.966672	0.002376	-0.016169	0.015583	8.139576	-78.542878	-94.579199
35470	NaN	9.579546	0.264048	1.930622	0.005664	-0.018584	0.017814	8.105292	-78.553712	-94.535973
35471	NaN	9.557589	0.239917	1.942222	0.004150	-0.020519	0.016780	8.074459	-78.565710	-94.498136
35472	NaN	9.580425	0.260993	1.926669	0.002637	-0.022454	0.015747	8.044861	-78.578803	-94.461793
35473	NaN	9.605272	0.248320	1.903179	0.002296	-0.012651	0.022530	7.993548	-78.586789	-94.404150
35474	NaN	9.534151	0.257983	1.980006	0.008620	-0.011607	0.025354	7.936180	-78.594412	-94.336087
35475	NaN	9.581453	0.254488	1.922426	0.004119	-0.016830	0.030020	7.866294	-78.605335	-94.258435
35476	NaN	9.606086	0.253163	1.920432	0.010052	-0.005335	0.036274	7.775830	-78.610370	-94.155819
35477	NaN	9.534983	0.248980	1.977153	0.008399	-0.002691	0.040308	7.673738	-78.614011	-94.042816
35478	NaN	9.561670	0.213740	1.966773	0.007526	-0.021364	0.036010	7.588302	-78.628099	-93.946838
35479	NaN	9.558373	0.226876	1.898313	0.003860	-0.009313	0.034268	7.502899	-78.634977	-93.853518
35480	NaN	9.582795	0.250654	1.938344	0.005382	-0.007790	0.033829	7.417457	-78.641019	-93.758911
35481	NaN	9.609446	0.178075	1.866286	-0.001502	0.004391	0.027325	7.343426	-78.639546	-93.680327
35482	NaN	9.537949	0.174847	1.924879	0.005598	0.025807	0.029212	7.259663	-78.625956	-93.588415
35483	NaN	9.537482	0.210461	1.988984	0.004777	0.004436	0.020913	7.207457	-78.623956	-93.528419
35484	NaN	9.584422	0.194913	1.912390	-0.000089	0.006392	0.017242	7.160893	-78.620587	-93.476529
35485	NaN	9.537262	0.207273	1.990370	0.007583	0.012125	0.013985	7.127192	-78.613704	-93.433768
35486	NaN	9.584098	0.217504	1.955357	0.001931	-0.005477	0.014193	7.094583	-78.616884	-93.395301
35487	NaN	9.537316	0.179434	1.949272	-0.000391	0.013326	0.013724	7.056685	-78.609288	-93.352919
35488	NaN	9.606371	0.225175	1.922492	0.005955	0.011077	0.004781	7.047485	-78.602310	-93.336263
35489	NaN	9.581670	0.235402	1.945803	-0.003860	0.020564	0.011736	7.010780	-78.590452	-93.297124
35490	NaN	9.581405	0.222022	1.926685	-0.005365	0.016170	0.001879	7.001453	-78.580419	-93.287292
35491	NaN	9.605415	0.210699	1.906992	-0.008959	0.027165	0.002014	6.987020	-78.564124	-93.273852
35492	NaN	9.557896	0.211396	1.965823	-0.005798	0.028092	0.004898	6.965200	-78.547447	-93.251671
35493	NaN	9.510791	0.161922	1.940643	-0.013444	0.018260	-0.006560	6.975378	-78.535620	-93.265964
35494	NaN	9.579504	0.234291	1.956571	-0.002544	0.023038	-0.007988	6.992762	-78.521043	-93.281223
35495	NaN	9.558519	0.178992	1.963888	-0.008815	0.021357	-0.007465	7.006997	-78.507390	-93.296950
35496	NaN	9.531783	0.211452	1.975091	-0.005644	0.021053	-0.008993	7.026390	-78.493749	-93.315758
35497	NaN	9.580034	0.228086	1.995747	-0.008381	0.009844	-0.009015	7.049094	-78.486531	-93.339875
35498	NaN	9.557456	0.206259	2.009563	-0.011058	-0.002833	-0.008630	7.072395	-78.486540	-93.365867
35499	NaN	9.551968	0.269304	1.971326	-0.010877	-0.007240	-0.007403	7.095062	-78.489146	-93.391406
35500	NaN	9.557852	0.169344	1.946518	-0.011495	0.009088	-0.005607	7.105283	-78.482653	-93.404241
35501	NaN	9.600722	0.248389	1.928463	-0.001741	0.001895	-0.010024	7.137306	-78.479876	-93.433986
35502	NaN	9.627067	0.192088	1.878481	-0.005529	0.018526	-0.006700	7.151100	-78.467853	-93.447875
35503	NaN	9.556584	0.209471	2.013372	0.009576	0.036690	-0.011882	7.182525	-78.445159	-93.470395
35504	NaN	9.601105	0.255270	1.988548	-0.008207	0.006256	-0.004848	7.193744	-78.440208	-93.481805
35505	NaN	9.625645	0.219346	1.925968	-0.021170	0.013170	-0.006672	7.201229	-78.431254	-93.497872
35506	NaN	9.600701	0.230434	1.949997	-0.012423	0.033578	-0.002912	7.194699	-78.411101	-93.495441
35507	NaN	9.532069	0.213358	2.076669	-0.012056	0.024355	-0.001933	7.190327	-78.396130	-93.494074
35508	NaN	9.575310	0.241239	1.976159	-0.014610	0.008738	-0.000737	7.184899	-78.390266	-93.492397
35509	NaN	9.501633	0.273719	2.042314	-0.000385	0.010860	0.004906	7.173016	-78.383456	-93.476537
35510	NaN	9.480583	0.292773	2.171360	0.001691	-0.041952	0.008490	7.169879	-78.406914	-93.469486
35511	NaN	9.574515	0.297365	2.019545	-0.020175	-0.088710	0.020080	7.139176	-78.457791	-93.445992
35512	NaN	9.578572	0.235609	1.960972	-0.008951	-0.087834	0.038763	7.061281	-78.509393	-93.367559
35513	NaN	9.533446	0.258157	2.049444	0.007810	-0.110973	0.038711	7.001282	-78.574226	-93.297822
35514	NaN	9.581194	0.285931	1.989296	-0.011233	-0.146348	0.056644	6.889501	-78.660442	-93.185655
35515	NaN	9.584559	0.292165	1.994795	-0.019412	-0.176292	0.069798	6.745282	-78.764498	-93.045983
35516	NaN	9.638871	0.228895	1.925105	-0.023430	-0.189751	0.084667	6.556754	-78.877044	-92.864024
35517	NaN	9.640559	0.228164	1.874265	-0.003330	-0.171366	0.096746	6.335539	-78.979849	-92.636611
35518	NaN	9.550855	0.207912	1.949724	-0.014018	-0.176210	0.109315	6.067234	-79.085960	-92.367044
35519	NaN	9.601517	0.220846	1.917017	-0.024119	-0.199422	0.112719	5.785856	-79.205300	-92.090667
35520	NaN	9.558683	0.172556	1.891161	-0.037584	-0.214808	0.121934	5.465700	-79.333598	-91.780754
35521	NaN	9.517120	0.078381	1.835310	-0.037632	-0.216607	0.109745	5.177195	-79.462027	-91.505232
35522	NaN	9.497442	0.091702	1.858376	-0.027110	-0.205907	0.095496	4.928260	-79.583315	-91.264058
35523	NaN	9.524783	0.130169	1.865921	-0.036073	-0.226188	0.080666	4.721256	-79.715368	-91.070702
35524	NaN	9.507833	0.053882	1.827803	-0.038473	-0.249062	0.072765	4.537283	-79.859954	-90.901075
35525	NaN	9.580295	0.125910	1.782355	-0.032975	-0.269020	0.068638	4.371133	-80.015711	-90.747583
35526	NaN	9.587918	0.110339	1.788873	-0.035148	-0.292802	0.068896	4.202037	-80.184996	-90.591944
35527	NaN	9.619849	0.141897	1.820529	-0.028985	-0.324783	0.072790	4.026908	-80.372629	-90.427182
35528	NaN	9.626519	0.191709	1.837601	-0.029735	-0.369106	0.096082	3.773451	-80.586286	-90.182566
35529	NaN	9.518452	0.157450	1.873623	-0.012914	-0.454760	0.122314	3.444988	-80.849777	-89.853318
35530	NaN	9.139850	-0.012947	1.765188	0.001369	-0.608755	0.130905	3.102560	-81.201354	-89.501599
35531	NaN	8.651579	-0.254457	1.150082	0.067824	-0.918220	0.091630	2.985063	-81.728543	-89.339574
35532	NaN	9.057867	-0.480551	0.708691	0.210207	-1.207510	0.046665	3.186198	-82.419882	-89.416541
35533	NaN	9.749002	-0.376260	0.589556	0.500292	-1.369239	0.024100	3.747011	-83.202837	-89.688964
35534	NaN	10.403542	-0.287491	0.949611	0.820954	-1.314744	0.037913	4.511725	-83.954818	-89.980824
35535	NaN	10.937704	0.099996	1.713000	1.133235	-1.149825	0.082133	5.261243	-84.614258	-90.077645
35536	NaN	11.671658	0.203385	2.794467	1.325746	-0.911688	0.180298	5.419132	-85.143162	-89.469001
35537	NaN	12.090656	0.114439	3.958006	1.510231	-0.574529	0.346401	4.217336	-85.486932	-87.391096
35538	NaN	12.030658	-0.557426	4.544740	1.740911	-0.128843	0.542109	1.295395	-85.574623	-83.454798
35539	NaN	11.208617	-0.398018	4.763392	2.164385	0.366081	0.707075	-2.536855	-85.359362	-78.362666
35540	NaN	11.025680	0.439366	5.168456	2.472061	0.683413	0.742161	-5.776792	-84.936484	-73.684167
35541	NaN	10.655751	2.025279	5.024053	2.665888	0.946321	0.623193	-7.362572	-84.355921	-70.553443
35542	NaN	8.830646	1.984968	4.860559	2.715260	1.269390	0.519265	-7.693879	-83.594650	-68.650236
35543	NaN	7.640833	2.372430	5.042252	2.734937	1.323614	0.448316	-7.417315	-82.808198	-67.346761
35544	NaN	7.513692	2.900612	5.186095	2.393429	1.102706	0.371717	-7.036615	-82.153275	-66.343259
35545	NaN	7.910778	2.854193	5.201866	1.980403	0.873667	0.303398	-6.685719	-81.634647	-65.547643
35546	NaN	8.247052	2.414253	4.882481	1.689825	0.731050	0.258238	-6.367848	-81.200260	-64.885905
35547	NaN	8.589028	2.096215	4.824771	1.574642	0.727439	0.235750	-6.021009	-80.770451	-64.319671
35548	NaN	8.611697	1.977822	4.993717	1.410895	0.703455	0.230547	-5.746308	-80.354478	-63.774592
35549	NaN	9.005781	1.828125	4.901176	1.177709	0.657912	0.204183	-5.522185	-79.966975	-63.313277
35550	NaN	9.484241	1.755361	4.933853	1.017637	0.711558	0.187207	-5.308903	-79.549393	-62.933399
35551	NaN	9.760079	1.647055	4.963038	0.866631	0.805201	0.191305	-5.160820	-79.079084	-62.574846
35552	NaN	9.854579	1.574692	4.824775	0.700078	0.890179	0.240857	-5.213491	-78.557000	-62.108134
35553	NaN	9.679083	1.494703	4.638488	0.507501	0.924494	0.305133	-5.516609	-78.012387	-61.497653
35554	NaN	9.489429	1.502081	4.445987	0.313361	0.900153	0.382233	-6.091793	-77.475414	-60.721141
35555	NaN	9.361244	1.593702	4.241967	0.102949	0.875212	0.444241	-6.890741	-76.947506	-59.837420
35556	NaN	9.298514	1.840480	3.990154	-0.053653	0.901999	0.448618	-7.712319	-76.400479	-59.020475
35557	NaN	8.755645	1.785749	3.716553	-0.222027	0.941071	0.411700	-8.470956	-75.832585	-58.366066
35558	NaN	8.486095	1.733877	3.455900	-0.343550	0.926297	0.351371	-9.116853	-75.275577	-57.898071
35559	NaN	8.701202	1.906146	3.421246	-0.505604	0.815959	0.323009	-9.795739	-74.783170	-57.491195
35560	NaN	9.312176	1.767368	3.482271	-0.709568	0.665957	0.349073	-10.661780	-74.370420	-57.010219
35561	NaN	9.607735	1.565474	3.399847	-0.852924	0.624015	0.385518	-11.664532	-73.976060	-56.471878
35562	NaN	8.893204	1.438445	2.970936	-0.836184	0.699672	0.332077	-12.485984	-73.542537	-56.110929
35563	NaN	7.447966	1.852144	2.447940	-0.778556	0.723891	0.151554	-12.904398	-73.118031	-56.135766
35564	NaN	6.013208	2.165728	1.582216	-0.738407	0.551126	-0.144420	-12.826024	-72.826915	-56.655801
35565	NaN	7.164620	2.787741	2.514815	-1.187520	0.103127	-0.395120	-12.743810	-72.818586	-57.449961
35566	NaN	9.569477	2.018464	2.956468	-1.864590	-0.287131	-0.536426	-12.946654	-73.045619	-58.350915
35567	NaN	11.161589	0.514878	1.860601	-1.848805	-0.138939	-0.560103	-13.028216	-73.194512	-59.368612
35568	NaN	10.825669	0.970735	1.287223	-1.432479	0.333500	-0.550338	-12.685890	-73.076687	-60.579561
35569	NaN	9.996412	1.463022	2.200908	-1.593648	0.416858	-0.570863	-12.379362	-72.913695	-61.850887
35570	NaN	9.806952	1.377333	1.674241	-1.882713	0.293945	-0.644190	-12.163167	-72.825878	-63.201521
35571	NaN	9.735249	1.076650	1.030047	-1.814694	0.452626	-0.753715	-11.664243	-72.660449	-64.808656
35572	NaN	8.846790	1.225910	0.635216	-1.754841	0.575394	-0.871088	-10.899286	-72.433064	-66.660116
35573	NaN	8.188653	1.258575	0.378210	-1.811522	0.513886	-1.061955	-9.884237	-72.252348	-68.810512
35574	NaN	7.607786	0.725598	-0.240204	-1.797313	0.521914	-1.336298	-8.408552	-72.077066	-71.438080
35575	NaN	7.402774	0.559750	-0.964617	-1.563737	0.487911	-1.568256	-6.445657	-71.915091	-74.439997
35576	NaN	8.154944	0.648523	-0.929384	-1.530404	0.264542	-1.714321	-4.281885	-71.854237	-77.634814
35577	NaN	6.904421	-0.491099	-2.142717	-1.525965	-0.008612	-1.695312	-2.186925	-71.913079	-80.754831
35578	NaN	7.303546	-1.488432	-4.075475	-1.662916	-1.202950	-1.318759	-0.826920	-72.620356	-83.178665
35579	NaN	9.084928	-2.966702	-5.007548	-3.207749	-3.805404	-0.695859	-1.442710	-74.807269	-84.447836
35580	NaN	12.778422	-7.274583	-5.189624	-1.565067	-2.509803	-0.816710	-0.619002	-76.252022	-86.220400
35581	NaN	7.579809	-4.263794	-6.480319	-2.361722	-0.955177	-0.871017	0.106561	-76.800669	-88.353958
35582	NaN	7.918340	-12.049944	-4.194307	-4.247449	-2.695281	-0.907811	0.049980	-78.343043	-90.783918
35583	NaN	35.334400	-24.135970	-4.141959	-2.814772	-6.099952	-1.076010	2.398169	-81.825144	-94.799606
35584	NaN	13.709555	-2.026320	-24.271636	-1.346421	-2.602308	0.566353	-0.685874	-83.319918	-92.463720
35585	NaN	19.047379	-6.101755	-21.514081	1.575041	3.316660	-0.569052	2.439903	-81.413556	-94.702633
35586	NaN	1.504058	-5.301743	1.750881	10.351522	6.230668	-0.298343	7.600691	-77.843293	-93.914160
35587	NaN	6.909082	17.147441	31.570835	7.573864	3.527275	-0.037754	10.665137	-75.843845	-92.600492
35588	NaN	2.986667	7.796194	0.207985	-4.995729	-4.085779	0.225401	8.986563	-78.171350	-93.811539
35589	NaN	19.177857	-3.769157	4.681817	-8.072708	-3.950329	0.026678	5.829691	-80.416384	-95.302380
35590	NaN	7.583631	-4.774244	-8.811907	-0.374889	1.288967	0.032660	5.112303	-79.681957	-94.788173
35591	NaN	7.355900	-1.200476	-7.598841	2.168422	-0.246466	-0.024225	6.516270	-79.820053	-94.948405
35592	NaN	16.921566	2.786311	9.390440	2.011725	1.610205	-0.114384	7.423750	-78.895546	-94.695013
35593	NaN	2.693320	-2.082496	2.030407	2.003505	1.817432	0.061438	7.739440	-77.866976	-93.841415
35594	NaN	10.145006	5.779044	8.102463	-0.333806	-0.659569	-0.034627	7.888107	-78.237764	-94.184912
35595	NaN	8.038258	-0.833142	1.645949	-2.423876	-1.588252	-0.002992	7.107116	-79.138757	-94.800798
35596	NaN	10.620839	-2.697385	-0.757417	-0.235416	-0.776204	-0.008049	7.297935	-79.578413	-95.128247
35597	NaN	11.154300	1.430289	0.101856	0.524885	0.115328	-0.038027	7.674938	-79.509065	-95.201860
35598	NaN	9.483828	-0.243332	1.560018	0.043850	0.710262	-0.003130	7.430678	-79.104480	-94.923773
35599	NaN	9.057870	0.066450	3.156328	0.509154	0.391753	-0.039485	7.691616	-78.878002	-94.888462
35600	NaN	9.400107	1.328071	2.534367	-0.109388	-0.115313	-0.035890	7.782633	-78.939757	-95.041130
35601	NaN	9.716653	-0.217250	1.544771	-0.443116	-0.211764	-0.018667	7.672925	-79.057552	-95.184060
35602	NaN	9.933481	0.038831	1.305614	0.098639	0.050390	-0.022526	7.779867	-79.026259	-95.231474
35603	NaN	9.681166	0.313477	1.643518	0.008684	0.234908	-0.021099	7.758711	-78.890271	-95.200901
35604	NaN	9.394487	0.160399	2.232286	0.122899	0.225023	-0.023049	7.811355	-78.759803	-95.178837
35605	NaN	9.368405	0.492737	2.283211	-0.014168	0.068865	-0.018089	7.833521	-78.718306	-95.205764
35606	NaN	9.550939	0.173706	1.989541	-0.084014	-0.034844	-0.016733	7.851088	-78.735825	-95.268810
35607	NaN	9.658571	0.222634	1.708035	-0.033575	0.005190	-0.016807	7.883372	-78.730565	-95.317392
35608	NaN	9.572667	0.162156	1.915729	0.032725	0.082592	-0.009540	7.901071	-78.681992	-95.312370
35609	NaN	9.491909	0.342515	2.100403	0.028368	0.035707	-0.012895	7.945440	-78.659713	-95.337092
35610	NaN	9.565057	0.276420	1.970524	-0.046292	-0.028165	-0.009456	7.961193	-78.673993	-95.376258
35611	NaN	9.638766	0.197422	1.816923	-0.032503	-0.017231	-0.006170	7.972552	-78.682283	-95.402883
35612	NaN	9.634452	0.239879	1.793875	-0.001608	0.036939	-0.003423	7.971032	-78.660100	-95.398321
35613	NaN	9.542126	0.253731	1.986680	0.019926	0.052284	0.003362	7.957938	-78.629702	-95.369369
35614	NaN	9.541403	0.253283	1.990206	-0.015071	0.021755	0.007037	7.925252	-78.616963	-95.340886
35615	NaN	9.587816	0.264965	1.956419	-0.017557	0.006117	0.008033	7.895813	-78.613128	-95.317164
35616	NaN	9.587718	0.239775	1.915237	-0.002326	0.020056	0.010522	7.861382	-78.601619	-95.279450
35617	NaN	9.514240	0.257134	1.962476	0.000886	0.020258	0.016755	7.812554	-78.590433	-95.225168
35618	NaN	9.564737	0.238080	1.973751	-0.001599	0.003841	0.014797	7.772897	-78.588449	-95.181696
35619	NaN	9.589280	0.214337	1.930135	-0.015321	-0.008563	0.011886	7.739628	-78.593233	-95.152758
35620	NaN	9.589465	0.188876	1.887556	-0.011186	0.005659	0.011250	7.703762	-78.589933	-95.118757
35621	NaN	9.540348	0.232526	1.975431	0.002548	0.016112	0.006779	7.685706	-78.580309	-95.094894
35622	NaN	9.562445	0.266792	1.984478	-0.012557	-0.000380	0.006538	7.664625	-78.580071	-95.076778
35623	NaN	9.589138	0.210406	1.931274	-0.021553	-0.012217	0.005010	7.648480	-78.586395	-95.068951
35624	NaN	9.611564	0.232601	1.917815	-0.009466	0.000820	0.004613	7.634120	-78.585326	-95.055885
35625	NaN	9.562822	0.228342	1.920190	-0.009798	0.008971	0.005626	7.614986	-78.579664	-95.038138
35626	NaN	9.586909	0.241404	1.941464	-0.008288	0.010892	0.006684	7.591712	-78.573030	-95.015289
35627	NaN	9.586670	0.240519	1.942755	-0.014792	0.015473	0.007117	7.563141	-78.563785	-94.990833
35628	NaN	9.564052	0.216678	1.957273	-0.008550	0.017178	0.006609	7.537652	-78.553571	-94.965876
35629	NaN	9.539371	0.226051	1.980895	-0.009931	0.012698	0.007802	7.511055	-78.545949	-94.940591
35630	NaN	9.563591	0.214850	1.959725	-0.012887	0.007770	0.007549	7.483990	-78.541143	-94.916560
35631	NaN	9.561450	0.235049	1.948508	-0.012887	0.007770	0.007549	7.458279	-78.536297	-94.893906
35632	NaN	9.561393	0.222160	1.928015	-0.009731	0.007496	0.006012	7.437462	-78.531528	-94.874404
35633	NaN	9.585563	0.223125	1.927994	-0.011439	0.010776	0.006744	7.413778	-78.524911	-94.852971
35634	NaN	9.562933	0.211705	1.963272	-0.005252	0.012401	-0.000058	7.410757	-78.516904	-94.849009
35635	NaN	9.560708	0.232646	1.952434	-0.009919	0.011142	0.001895	7.401405	-78.509719	-94.841311
35636	NaN	9.584861	0.234033	1.952450	-0.014516	0.007632	0.001282	7.391073	-78.504520	-94.835306
35637	NaN	9.560454	0.219945	1.932920	-0.013001	0.008776	-0.000612	7.387835	-78.498494	-94.835649
35638	NaN	9.584612	0.209577	1.912069	-0.011814	0.018069	-0.001488	7.383013	-78.487160	-94.833687
35639	NaN	9.584001	0.233450	1.956734	-0.012141	0.026219	-0.000470	7.373579	-78.471234	-94.827204
35640	NaN	9.536735	0.220868	1.994125	-0.010484	0.022861	-0.007497	7.384528	-78.456736	-94.840559
35641	NaN	9.558775	0.232325	1.961912	-0.011799	0.016516	-0.007397	7.398050	-78.445812	-94.857306
35642	NaN	9.538025	0.200357	2.009345	-0.017854	0.011163	-0.002781	7.395839	-78.438305	-94.861541
35643	NaN	9.558285	0.232697	1.964256	-0.011473	0.008756	-0.006940	7.411042	-78.431824	-94.879814
35644	NaN	9.556223	0.242302	1.931892	-0.014625	0.008640	-0.006883	7.422950	-78.425447	-94.896574
35645	NaN	9.557978	0.221550	1.944944	-0.006940	0.013741	-0.006707	7.438266	-78.416149	-94.912311
35646	NaN	9.559476	0.224732	2.000621	-0.013116	0.010560	-0.005821	7.447361	-78.408758	-94.925318
35647	NaN	9.557536	0.222149	1.947044	-0.012991	0.007998	-0.003571	7.452568	-78.402954	-94.934276
35648	NaN	9.555248	0.255553	1.957214	-0.008323	0.009259	-0.005519	7.464016	-78.396323	-94.946882
35649	NaN	9.558927	0.225413	2.003168	-0.006622	0.006755	-0.003297	7.472546	-78.391246	-94.955508
35650	NaN	9.556781	0.246723	1.991970	-0.008266	0.008559	-0.002178	7.475020	-78.385260	-94.958919
35651	NaN	9.532341	0.244690	1.993373	-0.006381	0.002405	0.004157	7.464655	-78.383209	-94.948115
35652	NaN	9.534400	0.222948	2.005031	-0.009076	-0.008810	0.003962	7.455983	-78.387546	-94.940621
35653	NaN	9.581520	0.223282	1.947968	-0.010648	-0.009255	0.002512	7.451938	-78.391997	-94.938763
35654	NaN	9.555305	0.242189	1.936444	-0.004676	-0.000487	0.004902	7.440163	-78.391674	-94.925529
35655	NaN	9.559189	0.211230	1.981475	-0.006184	-0.002407	0.003839	7.432527	-78.392333	-94.917396
35656	NaN	9.583711	0.200673	1.959050	-0.015628	-0.003915	-0.000425	7.430444	-78.393562	-94.920462
35657	NaN	9.557277	0.231765	1.969265	-0.004864	0.003550	0.002267	7.425762	-78.390719	-94.914572
35658	NaN	9.605991	0.223072	1.946651	-0.012805	0.004349	0.000544	7.419632	-78.387325	-94.911856
35659	NaN	9.510160	0.230215	2.026464	-0.001848	0.007389	0.004395	7.409423	-78.382457	-94.898559
35660	NaN	9.558897	0.221428	2.003753	-0.007820	-0.001377	0.002003	7.404176	-78.382423	-94.893828
35661	NaN	9.530928	0.237673	1.937861	-0.013932	-0.006033	0.003271	7.394974	-78.385099	-94.888627
35662	NaN	9.557189	0.229737	1.969926	0.004780	-0.000142	0.004734	7.388947	-78.384563	-94.875731
35663	NaN	9.557094	0.253088	2.011859	-0.013611	-0.013408	0.005199	7.377234	-78.391571	-94.867778
35664	NaN	9.606381	0.220234	1.945050	-0.008940	-0.012533	0.001775	7.375960	-78.397857	-94.867759
35665	NaN	9.557754	0.227865	1.967401	-0.002986	-0.001836	0.011555	7.348585	-78.398754	-94.837604
35666	NaN	9.557775	0.238798	1.988161	-0.009019	-0.009512	0.007299	7.330869	-78.403727	-94.820846
35667	NaN	9.558044	0.225954	1.966214	-0.009214	-0.004700	0.007621	7.311821	-78.405961	-94.802835
35668	NaN	9.582452	0.226732	1.965091	-0.007773	-0.000920	0.009777	7.284880	-78.406229	-94.775932
35669	NaN	9.535724	0.212909	1.999818	-0.002914	-0.004084	0.008985	7.265431	-78.408209	-94.753827
35670	NaN	9.558191	0.246703	2.007438	-0.011922	-0.014754	0.011851	7.235221	-78.416483	-94.726014
35671	NaN	9.583144	0.211322	1.941300	-0.007193	-0.014583	0.011765	7.209263	-78.424627	-94.699768
35672	NaN	9.538529	0.188174	2.008128	-0.002523	-0.013708	0.008340	7.193741	-78.432049	-94.681454
35673	NaN	9.583508	0.233072	1.981429	-0.007387	-0.009771	0.012088	7.165029	-78.437477	-94.652512
35674	NaN	9.559492	0.229972	1.980934	-0.013301	-0.019622	0.011557	7.136389	-78.448486	-94.627111
35675	NaN	9.586275	0.185244	1.947989	-0.005812	-0.009328	0.013537	7.104325	-78.453759	-94.593829
35676	NaN	9.535831	0.201669	1.937047	-0.002721	-0.008125	0.011617	7.077509	-78.458230	-94.564105
35677	NaN	9.582616	0.249097	1.964924	-0.011980	-0.013663	0.009989	7.053233	-78.465711	-94.542379
35678	NaN	9.560591	0.212921	1.955254	-0.007320	-0.011246	0.012473	7.022414	-78.472011	-94.511260
35679	NaN	9.585060	0.225318	1.974804	-0.007510	-0.006821	0.011319	6.994585	-78.475689	-94.483296
35680	NaN	9.536569	0.220752	1.975869	-0.004291	-0.008954	0.008690	6.975215	-78.480415	-94.462091
35681	NaN	9.564922	0.202891	2.040435	-0.010530	-0.010655	0.009191	6.952865	-78.486123	-94.441486
35682	NaN	9.561474	0.208695	1.951390	-0.010268	-0.018099	0.004818	6.943954	-78.495776	-94.434451
35683	NaN	9.565801	0.153625	1.952246	-0.007181	-0.016125	0.005852	6.934676	-78.504362	-94.425227
35684	NaN	9.588256	0.211772	2.002249	-0.007562	-0.007273	0.003547	6.927158	-78.507770	-94.418032
35685	NaN	9.586478	0.208691	1.947374	-0.006242	-0.000930	0.003458	6.919935	-78.507546	-94.410357
35686	NaN	9.539752	0.195534	1.982305	-0.004665	-0.001259	0.001951	6.916491	-78.507422	-94.405626
35687	NaN	9.586480	0.220129	1.968488	-0.011026	-0.001164	-0.002748	6.923968	-78.506903	-94.415749
35688	NaN	9.560266	0.227561	1.936045	-0.006177	-0.002791	0.002364	6.919017	-78.507677	-94.410363
35689	NaN	9.586633	0.219826	1.967775	-0.009131	-0.008870	-0.002335	6.929046	-78.511570	-94.421982
35690	NaN	9.611147	0.197676	1.923814	-0.007878	-0.000281	0.000149	6.928464	-78.510762	-94.422050
35691	NaN	9.562314	0.229870	1.989721	-0.001703	0.002895	-0.000738	6.934279	-78.508074	-94.425026
35692	NaN	9.564243	0.208722	2.001766	-0.007938	0.000425	-0.003191	6.942761	-78.506634	-94.434378
35693	NaN	9.562353	0.206204	1.947342	-0.009515	0.000753	-0.001683	6.947470	-78.505098	-94.440793
35694	NaN	9.562287	0.206196	1.947666	-0.006556	0.005677	-0.001416	6.949980	-78.500792	-94.443244
35695	NaN	9.537756	0.228378	1.991682	-0.001765	0.003986	-0.002599	6.960582	-78.497354	-94.451141
35696	NaN	9.584514	0.241133	1.956639	-0.010838	-0.004821	0.001358	6.956459	-78.499209	-94.449326
35697	NaN	9.588530	0.198353	1.980010	-0.007750	-0.003232	0.000915	6.956268	-78.500120	-94.449710
35698	NaN	9.562234	0.205819	1.947967	-0.003470	0.007650	-0.000380	6.956969	-78.494761	-94.448510
35699	NaN	9.535795	0.225100	1.937719	-0.006561	0.006831	0.003018	6.948157	-78.490095	-94.439399
35700	NaN	9.563914	0.207854	2.003428	-0.006238	-0.001701	0.000502	6.947993	-78.490115	-94.438936
35701	NaN	9.562110	0.204922	1.948672	-0.009265	-0.003995	0.004283	6.937785	-78.491693	-94.429982
35702	NaN	9.586435	0.217983	1.968946	-0.006306	0.000929	0.004552	6.925370	-78.490497	-94.417056
35703	NaN	9.564042	0.206435	2.002965	-0.006176	-0.002792	0.002363	6.921885	-78.491257	-94.413157
35704	NaN	9.560241	0.236234	1.957642	-0.006058	-0.003437	0.011997	6.890287	-78.493054	-94.380510
35705	NaN	9.586733	0.203930	1.946624	-0.005859	-0.010170	0.004279	6.884115	-78.498142	-94.373684
35706	NaN	9.564504	0.192100	1.979883	-0.007502	-0.007597	0.008359	6.863234	-78.502052	-94.352818
35707	NaN	9.540351	0.189525	1.980006	-0.002711	-0.009289	0.007175	6.850450	-78.506837	-94.337404
35708	NaN	9.538728	0.209988	1.966599	-0.005289	-0.023451	0.007726	6.837896	-78.519719	-94.323742
35709	NaN	9.587894	0.212622	1.962420	-0.008374	-0.025423	0.006691	6.828603	-78.533648	-94.315202
35710	NaN	9.564053	0.210209	1.961014	0.001015	-0.023612	0.006127	6.824148	-78.546511	-94.306121
35711	NaN	9.564582	0.209613	1.958498	-0.009819	-0.029198	0.004532	6.821330	-78.562440	-94.305032
35712	NaN	9.589472	0.198721	1.933627	-0.009946	-0.025479	0.006722	6.809508	-78.576403	-94.294843
35713	NaN	9.589892	0.209848	1.952931	0.002338	-0.016886	0.007518	6.801078	-78.585531	-94.280923
35714	NaN	9.541589	0.217584	1.974458	-0.005474	-0.019024	0.006577	6.790012	-78.595811	-94.268891
35715	NaN	9.592691	0.187060	1.960864	-0.011455	-0.027009	0.007137	6.778109	-78.610671	-94.259493
35716	NaN	9.544545	0.182749	1.960331	-0.003642	-0.024872	0.008076	6.765766	-78.624378	-94.245089
35717	NaN	9.589753	0.227771	1.932422	-0.006855	-0.023123	0.009234	6.749205	-78.637167	-94.228250
35718	NaN	9.567931	0.215706	1.964140	-0.003513	-0.027824	0.008840	6.735686	-78.652602	-94.212573
35719	NaN	9.544084	0.189314	1.919881	-0.006726	-0.026459	0.008521	6.722262	-78.667240	-94.198861
35720	NaN	9.546635	0.178928	1.950483	-0.003509	-0.027441	0.010317	6.704336	-78.682553	-94.178688
35721	NaN	9.567581	0.222090	1.923133	-0.003444	-0.028917	0.010699	6.687335	-78.698734	-94.159412
35722	NaN	9.570205	0.199740	1.931881	-0.009491	-0.035808	0.009402	6.671273	-78.718744	-94.144638
35723	NaN	9.595182	0.188433	1.906139	-0.007912	-0.035370	0.010847	6.653329	-78.738605	-94.127013
35724	NaN	9.571621	0.209295	1.946782	-0.000287	-0.028424	0.012109	6.632219	-78.754590	-94.101717
35725	NaN	9.596521	0.197997	1.921349	-0.009486	-0.035808	0.009403	6.617535	-78.774601	-94.088338
35726	NaN	9.597194	0.196790	1.918108	-0.011183	-0.032144	0.011628	6.592659	-78.792667	-94.065570
35727	NaN	9.573500	0.193906	1.916081	-0.004884	-0.032308	0.010015	6.577576	-78.810726	-94.049097
35728	NaN	9.574197	0.204683	1.934565	-0.006647	-0.027551	0.010381	6.557233	-78.826092	-94.028304
35729	NaN	9.576586	0.170480	1.922629	-0.006839	-0.023123	0.009236	6.540131	-78.838870	-94.010917
35730	NaN	9.550869	0.200878	1.930880	-0.006709	-0.026076	0.009999	6.520260	-78.853367	-93.990644
35731	NaN	9.600002	0.191460	1.904552	-0.011191	-0.033676	0.005716	6.514244	-78.871920	-93.987099
35732	NaN	9.576158	0.177143	1.881244	-0.009739	-0.030286	0.006396	6.504372	-78.888578	-93.978787
35733	NaN	9.601021	0.177987	1.877523	-0.005198	-0.024929	0.008103	6.491935	-78.902307	-93.965199
35734	NaN	9.577608	0.210961	1.940262	-0.008347	-0.025037	0.008174	6.475902	-78.916090	-93.949797
35735	NaN	9.577674	0.174499	1.873759	-0.009861	-0.026951	0.007112	6.464273	-78.930905	-93.939757
35736	NaN	9.576459	0.218490	1.902334	-0.013194	-0.021865	0.008996	6.441943	-78.942932	-93.920769
35737	NaN	9.578553	0.172487	1.869445	-0.006958	-0.020172	0.008471	6.425715	-78.953973	-93.904349
35738	NaN	9.577117	0.204748	1.877039	-0.013267	-0.021154	0.005659	6.412771	-78.965379	-93.894970
35739	NaN	9.579331	0.170615	1.865628	-0.008585	-0.017985	0.011083	6.387200	-78.975340	-93.869981
35740	NaN	9.604161	0.183098	1.884296	-0.015094	-0.014919	0.005650	6.371136	-78.983193	-93.858490
35741	NaN	9.580083	0.180529	1.884224	-0.005758	-0.010496	0.009105	6.350457	-78.988761	-93.836836
35742	NaN	9.628940	0.183055	1.881047	-0.012203	-0.008906	0.004055	6.338723	-78.993087	-93.828069
35743	NaN	9.558057	0.156101	1.895737	-0.004571	-0.001585	0.006785	6.322593	-78.993431	-93.810358
35744	NaN	9.605186	0.203595	1.923997	-0.016986	-0.007208	0.005262	6.304011	-78.996864	-93.797407
35745	NaN	9.558261	0.154544	1.894837	-0.009235	-0.003605	0.005797	6.288748	-78.998294	-93.783301
35746	NaN	9.580892	0.188733	1.902779	-0.005969	-0.007215	0.003527	6.281546	-79.001620	-93.775513
35747	NaN	9.578645	0.185631	1.847660	-0.013823	-0.006336	0.008146	6.257636	-79.004751	-93.755278
35748	NaN	9.580774	0.163364	1.858852	-0.007525	-0.006122	0.007999	6.236064	-79.007732	-93.733758
35749	NaN	9.579483	0.219236	1.910663	-0.007589	-0.004646	0.007619	6.216709	-79.009865	-93.714524
35750	NaN	9.580991	0.161594	1.857891	-0.015468	-0.005294	0.006324	6.195212	-79.012266	-93.697718
35751	NaN	9.629886	0.175828	1.876886	-0.009479	0.003065	0.007234	6.173439	-79.009980	-93.677124
35752	NaN	9.559102	0.160504	1.913441	-0.010802	-0.003276	0.007312	6.151065	-79.011289	-93.656702
35753	NaN	9.557156	0.181024	1.901511	-0.009363	-0.000651	0.005037	6.136987	-79.010984	-93.643878
35754	NaN	9.559260	0.159130	1.912764	-0.005841	-0.010168	0.004284	6.128501	-79.016030	-93.634707
35755	NaN	9.581647	0.169488	1.877284	-0.010293	-0.015471	0.008871	6.107284	-79.024399	-93.615156
35756	NaN	9.559630	0.145550	1.888631	-0.010235	-0.017329	0.007772	6.088245	-79.033735	-93.597801
35757	NaN	9.582508	0.179416	1.895530	-0.007150	-0.015746	0.007318	6.073424	-79.042165	-93.582931
35758	NaN	9.584826	0.157166	1.905728	-0.008652	-0.016895	0.009213	6.050849	-79.051337	-93.561051
35759	NaN	9.605568	0.200429	1.879149	-0.009982	-0.023617	0.007811	6.035353	-79.064279	-93.547147
35760	NaN	9.582861	0.141130	1.826386	-0.007391	-0.009077	0.008758	6.012336	-79.068965	-93.524083
35761	NaN	9.557396	0.195168	1.879185	-0.001143	-0.006627	0.011186	5.986608	-79.072426	-93.494602
35762	NaN	9.513448	0.171825	1.946572	-0.005438	-0.018266	0.009517	5.965264	-79.082389	-93.472102
35763	NaN	9.560996	0.206809	1.950876	-0.002696	-0.044415	0.017782	5.930696	-79.107772	-93.434526
35764	NaN	9.609638	0.161095	1.858200	-0.013285	-0.056263	0.016267	5.896355	-79.139779	-93.403374
35765	NaN	9.606515	0.201820	1.830387	-0.004623	-0.034465	0.019980	5.850740	-79.159610	-93.355681
35766	NaN	9.538091	0.152263	1.854680	0.004472	-0.023768	0.023388	5.795102	-79.173500	-93.292491
35767	NaN	9.587661	0.164968	1.870624	0.000387	-0.039073	0.025816	5.735981	-79.196277	-93.228131
35768	NaN	9.612103	0.140768	1.823197	-0.004684	-0.032987	0.019603	5.688799	-79.215182	-93.178898
35769	NaN	9.588851	0.160793	1.864877	0.004094	-0.014908	0.021112	5.638289	-79.223893	-93.121149
35770	NaN	9.567204	0.147839	1.897418	-0.005133	-0.022648	0.016951	5.595468	-79.236738	-93.076621
35771	NaN	9.571072	0.080221	1.875570	-0.008085	-0.030943	0.009674	5.576828	-79.253941	-93.058420
35772	NaN	9.612305	0.167679	1.823449	0.001179	-0.025824	0.009775	5.559935	-79.268189	-93.036606
35773	NaN	9.638683	0.135119	1.810588	-0.008694	-0.015031	0.010324	5.534230	-79.276350	-93.011570
35774	NaN	9.663221	0.135846	1.808291	-0.004379	-0.006777	0.004972	5.522975	-79.279468	-92.998737
35775	NaN	9.634377	0.164456	1.765838	-0.007355	0.029807	0.006656	5.496033	-79.261853	-92.971662
35776	NaN	9.615072	0.178091	1.900707	-0.001249	0.038203	0.013853	5.446961	-79.239801	-92.918510
35777	NaN	9.590272	0.175187	1.904436	-0.012946	0.013357	0.010979	5.408754	-79.231797	-92.883226
35778	NaN	9.564732	0.136766	1.842861	-0.019221	0.013914	0.014097	5.355813	-79.223594	-92.836613
35779	NaN	9.613080	0.138313	1.842162	-0.003776	0.022568	0.014764	5.309080	-79.210525	-92.787298
35780	NaN	9.543962	0.101318	1.892646	-0.006817	0.018752	0.012642	5.266422	-79.199471	-92.743916
35781	NaN	9.518528	0.155182	1.946865	-0.009014	-0.007265	0.009901	5.239606	-79.203156	-92.717930
35782	NaN	9.634996	0.145822	1.808809	-0.016249	-0.026046	0.005386	5.225580	-79.217271	-92.709197
35783	NaN	9.634901	0.133297	1.786247	-0.006254	0.001319	0.006075	5.209412	-79.215856	-92.692442
35784	NaN	9.543146	0.142819	1.921423	-0.009328	-0.003637	-0.000485	5.210780	-79.216879	-92.695344
35785	NaN	9.635463	0.144491	1.806423	-0.016597	-0.019800	-0.000943	5.215487	-79.227148	-92.705871
35786	NaN	9.637167	0.110990	1.796377	-0.006686	0.012038	0.004909	5.197916	-79.219508	-92.687953
35787	NaN	9.564991	0.141026	1.865158	-0.012813	0.006645	0.003244	5.185023	-79.214904	-92.678357
35788	NaN	9.610598	0.129645	1.787473	-0.014386	0.006595	0.003284	5.169419	-79.210283	-92.666932
35789	NaN	9.589872	0.084485	1.813764	-0.007179	0.027990	0.011865	5.128235	-79.193942	-92.625250
35790	NaN	9.612616	0.141728	1.868247	0.014417	0.039034	0.008670	5.104424	-79.171083	-92.588666
35791	NaN	9.516222	0.193350	1.983312	0.002287	0.029051	0.014584	5.060526	-79.154265	-92.538694
35792	NaN	9.611398	0.127757	1.851677	0.006386	0.003617	0.013155	5.028315	-79.151833	-92.498239
35793	NaN	9.588718	0.103598	1.866098	0.008658	0.028153	0.016285	4.983447	-79.135600	-92.443557
35794	NaN	9.538995	0.167468	1.944251	0.017205	0.011773	0.018769	4.938731	-79.128779	-92.384054
35795	NaN	9.610477	0.111758	1.833744	0.011739	-0.010626	0.018299	4.899749	-79.134767	-92.333567
35796	NaN	9.634798	0.111775	1.832726	0.013936	0.014628	0.018088	4.854518	-79.126265	-92.275448
35797	NaN	9.610341	0.120439	1.857647	0.017968	0.034402	0.020828	4.800326	-79.106651	-92.205835
35798	NaN	9.632146	0.141571	1.848119	0.017919	0.036259	0.021928	4.740906	-79.085961	-92.130934
35799	NaN	9.607107	0.138172	1.853078	0.014548	0.042830	0.023447	4.675438	-79.061630	-92.051822
35800	NaN	9.585757	0.091755	1.881865	0.016164	0.044400	0.029324	4.591816	-79.036599	-91.953284
35801	NaN	9.607432	0.112060	1.873151	0.016229	0.042923	0.029702	4.509570	-79.012459	-91.856088
35802	NaN	9.533527	0.105346	1.881212	0.018882	0.054074	0.023639	4.442799	-78.981595	-91.773113
35803	NaN	9.581770	0.130043	1.926776	0.023670	0.052741	0.023907	4.380389	-78.951546	-91.691763
35804	NaN	9.580366	0.104460	1.888532	0.014635	0.041734	0.025301	4.309860	-78.927766	-91.607422
35805	NaN	9.627029	0.150207	1.921038	0.008501	0.036350	0.023625	4.243882	-78.907034	-91.531280
35806	NaN	9.623480	0.122004	1.827623	0.001995	0.043210	0.026685	4.162409	-78.882428	-91.443155
35807	NaN	9.647119	0.132439	1.853093	0.013967	0.064742	0.035154	4.060837	-78.845901	-91.327530
35808	NaN	9.601708	0.130648	1.970823	0.009058	0.072414	0.041131	3.936702	-78.805122	-91.191772
35809	NaN	9.598504	0.136062	1.943844	-0.002900	0.055794	0.045581	3.798695	-78.774019	-91.048826
35810	NaN	9.621640	0.120864	1.926675	-0.001112	0.053315	0.054078	3.636873	-78.744510	-90.880555
35811	NaN	9.598272	0.104583	1.965977	-0.005821	0.053558	0.055655	3.470304	-78.714891	-90.710161
35812	NaN	9.643911	0.099199	1.914282	-0.019686	0.046907	0.062284	3.277174	-78.689126	-90.520783
35813	NaN	9.596064	0.080402	1.954973	-0.018785	0.068057	0.064707	3.076909	-78.651282	-90.323564
35814	NaN	9.640765	0.154505	2.000049	-0.018658	0.065483	0.066943	2.870417	-78.614768	-90.119909
35815	NaN	9.757623	0.160500	1.913180	-0.062039	0.049571	0.084204	2.595192	-78.587737	-89.871456
35816	NaN	9.731754	0.125146	1.877936	-0.065998	0.083298	0.105533	2.253211	-78.541577	-89.557192
35817	NaN	9.684291	0.170904	2.050504	-0.067953	0.104483	0.126911	1.852250	-78.483399	-89.183813
35818	NaN	9.658486	0.166086	2.081682	-0.118744	0.075494	0.149128	1.364418	-78.441527	-88.751422
35819	NaN	9.729973	0.128030	2.043307	-0.152841	0.067698	0.172000	0.798463	-78.403658	-88.259149
35820	NaN	9.802470	0.144899	2.111957	-0.177665	0.070554	0.204634	0.129419	-78.363153	-87.676100
35821	NaN	9.899567	0.066297	2.062902	-0.224174	0.069621	0.255791	-0.702145	-78.321593	-86.954215
35822	NaN	9.988678	0.120791	1.965938	-0.272000	0.070556	0.326933	-1.753220	-78.276136	-86.036047
35823	NaN	9.818606	0.074338	2.034030	-0.282357	0.082236	0.387046	-2.964325	-78.219010	-84.960296
35824	NaN	9.873413	0.035607	2.255854	-0.239111	0.021205	0.441090	-4.300376	-78.189860	-83.731441
35825	NaN	10.508006	0.380590	2.583808	-0.258834	-0.090724	0.536720	-5.930663	-78.213325	-82.213516
35826	NaN	11.129173	0.239627	2.648742	-0.296911	-0.196470	0.678050	-8.014284	-78.276906	-80.255088
35827	NaN	12.380995	0.260791	2.645095	-0.259283	-0.224052	0.800497	-10.442190	-78.329226	-77.923460
35828	NaN	11.242811	0.139307	2.090618	-0.182111	-0.078217	0.944239	-13.141306	-78.261543	-75.269657
35829	NaN	10.557848	0.041106	2.619993	-0.148841	-0.110426	1.050354	-16.087509	-78.170106	-72.343209
35830	NaN	10.657317	-0.038213	2.520216	-0.225064	-0.249535	1.151482	-19.409246	-78.104208	-69.076828
35831	NaN	10.541564	-0.255428	2.537565	-0.224683	-0.351168	1.238748	-23.006987	-78.034295	-65.527321
35832	NaN	10.630339	-0.266744	2.587030	-0.217051	-0.478476	1.311477	-26.874215	-77.965130	-61.696929
35833	NaN	10.424714	-0.394417	2.617881	-0.229285	-0.580123	1.392702	-31.011939	-77.869189	-57.595926
35834	NaN	10.073653	-0.657289	2.362561	-0.257331	-0.716988	1.443600	-35.399219	-77.759121	-53.254468
35835	NaN	9.733071	-0.935958	1.997827	-0.256937	-0.854865	1.466992	-39.961916	-77.632443	-48.731324
35836	NaN	9.729332	-1.346564	1.817061	-0.245735	-0.968009	1.477757	-44.623895	-77.472220	-44.097431
35837	NaN	9.559863	-1.465478	1.752829	-0.188336	-1.042819	1.480222	-49.255673	-77.260054	-39.457473
35838	NaN	9.544983	-1.388269	1.758750	-0.172295	-1.166332	1.463098	-53.921817	-77.017741	-34.768639
35839	NaN	10.046497	-1.522871	1.682759	-0.198727	-1.292060	1.455534	-58.655263	-76.734533	-30.021344
35840	NaN	10.315487	-1.659482	1.518098	-0.197680	-1.268362	1.476288	-63.133535	-76.348435	-25.529195
35841	NaN	9.808480	-1.675757	1.403215	-0.128416	-1.209236	1.492814	-67.193998	-75.862973	-21.418288
35842	NaN	9.428267	-1.856256	1.353769	-0.162518	-1.288443	1.494839	-71.151069	-75.324542	-17.424968
35843	NaN	9.519950	-1.941008	0.867516	-0.208754	-1.368600	1.489224	-74.998431	-74.736388	-13.562404
35844	NaN	9.366779	-2.121357	0.178973	-0.143011	-1.369181	1.485492	-78.508996	-74.087452	-9.998891
35845	NaN	9.114533	-1.984669	-0.230476	0.013439	-1.356841	1.464577	-81.616664	-73.395102	-6.749832
35846	NaN	10.252450	0.518271	0.693372	0.402286	-1.015620	1.338826	-83.596227	-72.709376	-4.435369
35847	NaN	8.790874	1.777856	2.210461	0.782644	0.080202	1.089644	-83.222775	-72.084284	-4.352648
35848	NaN	8.074865	2.980560	4.408502	1.290185	0.559302	0.757117	-81.680702	-71.612525	-5.193362
35849	NaN	7.174790	3.806518	3.190169	1.371693	0.596446	0.401999	-79.990690	-71.331031	-6.142781
35850	NaN	7.127181	3.834624	2.709046	1.358688	0.565403	0.019250	-78.270581	-71.259615	-7.132693
35851	NaN	6.890970	3.564547	2.016498	1.740089	0.745296	-0.318523	-75.916434	-71.342393	-8.561367
35852	NaN	6.922742	3.818003	2.084980	2.030065	0.802604	-0.670315	-73.116856	-71.590374	-10.283037
35853	NaN	7.464488	3.654566	2.515197	1.944589	0.570585	-0.892675	-70.567460	-71.974683	-11.789894
35854	NaN	8.728655	3.061984	2.795290	1.648248	0.230037	-0.956686	-68.633303	-72.443186	-12.825112
35855	NaN	9.707028	1.873927	2.652666	1.604459	0.178597	-0.956083	-66.736366	-72.911208	-13.845136
35856	NaN	9.750573	1.478381	2.672752	1.909196	0.431789	-0.944643	-64.150636	-73.301419	-15.399974
35857	NaN	9.335115	1.573505	3.376711	1.932832	0.529781	-0.966594	-61.270285	-73.654466	-17.245176
35858	NaN	9.159181	1.546977	3.406213	1.750924	0.456752	-1.029065	-58.452694	-74.033672	-19.129853
35859	NaN	9.508608	1.261166	3.206629	1.646910	0.436735	-1.071156	-55.575890	-74.412186	-21.134665
35860	NaN	9.684470	1.158910	3.338091	1.593867	0.461065	-1.076309	-52.562208	-74.757112	-23.309184
35861	NaN	9.745542	1.155378	3.340213	1.478862	0.466495	-1.077186	-49.496290	-75.068696	-25.602926
35862	NaN	9.610282	1.229955	3.487464	1.349697	0.463271	-1.073151	-46.403590	-75.347934	-27.997455
35863	NaN	9.701098	1.307617	3.639816	1.121768	0.406245	-1.072988	-43.437071	-75.616960	-30.393854
35864	NaN	9.656627	1.289078	3.479551	0.934134	0.400172	-1.078850	-40.476010	-75.859964	-32.892467
35865	NaN	9.514705	1.337069	3.504903	0.727620	0.379368	-1.095390	-37.551508	-76.085793	-35.473117
35866	NaN	9.695471	1.421172	3.398596	0.529640	0.354956	-1.121819	-34.631844	-76.300102	-38.162777
35867	NaN	9.820654	1.398059	3.462393	0.323089	0.316182	-1.133349	-31.782470	-76.503698	-40.899850
35868	NaN	10.037366	1.330590	3.416700	0.117665	0.262125	-1.134971	-29.025018	-76.703033	-43.660732
35869	NaN	10.226230	1.196138	3.405189	-0.030464	0.280282	-1.159450	-26.210771	-76.868145	-46.565437
