// General information: 
//  MT Manager version: 2022.2.0 
//  XDA version: 2022.2.0 build 7381 rev 124627 built on 2023-07-19
// Device information: 
//  DeviceId: 00B4BB52
//  ProductCode: MTW2-3A7G6
//  Firmware Version: 4.6.0
//  Hardware Version: 2.0.0
// Device settings: 
//  Filter Profile: human(46.1)
//  Option Flags: Orientation Smoother Disabled, Position/Velocity Smoother Disabled, Continuous Zero Rotation Update Disabled, AHS Disabled, ICC Disabled
// Coordinate system: ENU
PacketCounter	SampleTimeFine	Acc_X	Acc_Y	Acc_Z	Gyr_X	Gyr_Y	Gyr_Z	Roll	Pitch	Yaw
14201	NaN	8.746622	1.809565	3.418391	-0.079189	-0.003947	-0.025238	26.802641	-67.066195	-109.607470
14202	NaN	8.838778	1.782412	3.498254	-0.081975	-0.018735	-0.020303	26.795981	-67.069331	-109.646842
14203	NaN	8.909327	1.721349	3.456710	-0.084930	-0.024595	-0.009287	26.778063	-67.077648	-109.675743
14204	NaN	8.814345	1.754241	3.473784	-0.075171	-0.024655	-0.000434	26.754894	-67.088949	-109.692955
14205	NaN	8.627550	1.813338	3.410789	-0.081909	-0.044903	-0.000763	26.740796	-67.109857	-109.724119
14206	NaN	8.797859	1.799222	3.463299	-0.088984	-0.071517	0.001334	26.736228	-67.145596	-109.770102
14207	NaN	8.938658	1.681092	3.424532	-0.087652	-0.066703	0.014132	26.714152	-67.181496	-109.796163
14208	NaN	8.950718	1.832112	3.530027	-0.084089	-0.054394	0.027737	26.669833	-67.215279	-109.795960
14209	NaN	8.994523	1.689810	3.416943	-0.087498	-0.058862	0.046245	26.603805	-67.255424	-109.774246
14210	NaN	8.923470	1.690530	3.435372	-0.086237	-0.038590	0.067052	26.500287	-67.291176	-109.711195
14211	NaN	8.886719	1.782287	3.423862	-0.089174	-0.033512	0.081929	26.373635	-67.327387	-109.624824
14212	NaN	8.894914	1.817323	3.394572	-0.098713	-0.028990	0.102120	26.213369	-67.366997	-109.508061
14213	NaN	8.641802	1.922395	3.327068	-0.114207	-0.029893	0.114861	26.028730	-67.409464	-109.374456
14214	NaN	8.753836	2.021580	3.344757	-0.138403	-0.049981	0.123890	25.830301	-67.465058	-109.241070
14215	NaN	8.705890	1.989946	3.391158	-0.166398	-0.071251	0.125327	25.626213	-67.531114	-109.118876
14216	NaN	8.887090	1.755718	3.360757	-0.192815	-0.087931	0.135264	25.403270	-67.608767	-108.992824
14217	NaN	8.960967	1.740547	3.505364	-0.189222	-0.078024	0.144699	25.163681	-67.682699	-108.846506
14218	NaN	9.117303	1.505723	3.472583	-0.190285	-0.079730	0.155574	24.909140	-67.760614	-108.684878
14219	NaN	8.901300	1.451648	3.367237	-0.174498	-0.063684	0.173646	24.630009	-67.833529	-108.486897
14220	NaN	8.795451	1.570770	3.448622	-0.181899	-0.079378	0.177340	24.349185	-67.915842	-108.291885
14221	NaN	8.805364	1.601028	3.489024	-0.180450	-0.101342	0.169474	24.090653	-68.006728	-108.120037
14222	NaN	9.038986	1.406306	3.474415	-0.179718	-0.124022	0.171334	23.841142	-68.110342	-107.957690
14223	NaN	8.967488	1.344895	3.466206	-0.162977	-0.129534	0.163104	23.613606	-68.213983	-107.808689
14224	NaN	9.192576	1.110711	3.572141	-0.146063	-0.141749	0.148582	23.419900	-68.321230	-107.685896
14225	NaN	9.268586	1.029056	3.443760	-0.096864	-0.135235	0.134924	23.267636	-68.421097	-107.577343
14226	NaN	9.362293	0.931620	3.464077	-0.066470	-0.115496	0.130352	23.126178	-68.510148	-107.461861
14227	NaN	9.339487	1.090347	3.394738	-0.023175	-0.095540	0.122649	23.007723	-68.586145	-107.344415
14228	NaN	9.452087	1.164245	3.383706	0.003641	-0.069211	0.115649	22.898030	-68.647310	-107.220027
14229	NaN	9.388543	1.403264	3.288839	0.016254	-0.040026	0.104089	22.794177	-68.689707	-107.094108
14230	NaN	9.426862	1.488833	3.280506	0.010136	-0.023022	0.081895	22.706629	-68.718827	-106.989567
14231	NaN	9.642808	1.432701	3.311002	0.000344	0.020525	0.071844	22.602456	-68.721942	-106.873129
14232	NaN	9.633800	1.545708	3.235214	0.006176	0.084808	0.063480	22.476598	-68.689815	-106.729908
14233	NaN	9.646898	1.657539	3.190163	-0.022445	0.137234	0.058382	22.312740	-68.627982	-106.563357
14234	NaN	9.674483	1.528615	3.288513	-0.050480	0.201489	0.051849	22.107070	-68.531143	-106.369147
14235	NaN	9.355539	1.586362	3.325117	-0.056925	0.245112	0.050500	21.878022	-68.409892	-106.153531
14236	NaN	9.292815	1.539347	3.375112	-0.080667	0.252492	0.030536	21.660356	-68.280844	-105.964710
14237	NaN	9.316280	1.410641	3.457584	-0.082934	0.268257	0.009523	21.463786	-68.138042	-105.799722
14238	NaN	9.123828	1.335038	3.531880	-0.087611	0.271092	-0.015480	21.298115	-67.988988	-105.670872
14239	NaN	9.229532	1.073433	3.551509	-0.071630	0.267292	-0.038880	21.176484	-67.836310	-105.579421
14240	NaN	9.209321	1.201193	3.594605	-0.034209	0.285090	-0.054896	21.089259	-67.671427	-105.501985
14241	NaN	9.066931	1.318103	3.560941	-0.022507	0.280525	-0.077234	21.041331	-67.503674	-105.459608
14242	NaN	9.128445	1.315910	3.590021	-0.024162	0.280346	-0.088054	21.006780	-67.334457	-105.432798
14243	NaN	9.210738	1.288343	3.622210	-0.007925	0.289665	-0.107384	21.002251	-67.155605	-105.428318
14244	NaN	9.180200	1.349918	3.645885	0.001438	0.303963	-0.118328	21.009725	-66.967535	-105.431143
14245	NaN	9.273906	1.420655	3.652093	-0.000368	0.324593	-0.119965	21.008515	-66.767419	-105.425554
14246	NaN	9.290468	1.448774	3.611376	0.005991	0.368810	-0.111183	20.978940	-66.546127	-105.385195
14247	NaN	9.125788	1.647492	3.628332	-0.009890	0.402638	-0.095169	20.905877	-66.309329	-105.307142
14248	NaN	9.197872	1.853266	3.416864	-0.036691	0.446962	-0.074373	20.773287	-66.053649	-105.180763
14249	NaN	9.324113	1.725553	3.650238	-0.084877	0.514296	-0.048409	20.555040	-65.766303	-104.990414
14250	NaN	9.066993	1.605912	3.716764	-0.094881	0.576498	-0.009127	20.262053	-65.453721	-104.723963
14251	NaN	8.484883	1.695421	3.820804	-0.114828	0.573752	0.005422	19.949201	-65.144250	-104.447435
14252	NaN	8.355777	1.604010	3.864983	-0.143106	0.522578	0.010976	19.641637	-64.863478	-104.194090
14253	NaN	8.610420	1.469480	3.988644	-0.147169	0.483937	0.011762	19.352788	-64.602509	-103.963307
14254	NaN	8.541190	1.469275	4.050930	-0.136574	0.460789	0.018241	19.076498	-64.355467	-103.739370
14255	NaN	8.354666	1.481877	4.073222	-0.141792	0.416673	0.013574	18.824351	-64.130351	-103.544967
14256	NaN	8.312227	1.479620	4.129599	-0.147217	0.362492	-0.007194	18.615799	-63.931148	-103.402312
14257	NaN	8.276327	1.476401	4.133138	-0.146745	0.317862	-0.020331	18.441415	-63.752912	-103.297038
14258	NaN	8.525876	1.417544	4.190076	-0.153914	0.272491	-0.039322	18.301632	-63.596470	-103.234955
14259	NaN	8.539520	1.240858	4.249077	-0.142703	0.252196	-0.049143	18.187782	-63.448560	-103.194425
14260	NaN	8.411607	1.328298	4.303356	-0.129189	0.217684	-0.059682	18.105733	-63.318218	-103.180917
14261	NaN	8.169733	1.354017	4.219992	-0.122082	0.165943	-0.087648	18.076971	-63.210377	-103.222343
14262	NaN	7.990388	1.307546	4.386205	-0.106498	0.091020	-0.113712	18.111030	-63.139399	-103.324351
14263	NaN	7.561468	1.360603	4.266394	-0.094466	-0.005686	-0.163515	18.239569	-63.111385	-103.524439
14264	NaN	7.883153	1.358301	4.251215	-0.095804	-0.117760	-0.208509	18.454958	-63.136649	-103.822910
14265	NaN	8.435490	1.287694	4.330431	-0.089378	-0.180099	-0.229976	18.720594	-63.190543	-104.173311
14266	NaN	8.775560	1.072570	4.410163	-0.066238	-0.185672	-0.230722	19.003245	-63.247301	-104.527900
14267	NaN	8.797476	0.989536	4.375368	-0.022030	-0.172566	-0.208914	19.284498	-63.299531	-104.852260
14268	NaN	8.574113	1.178850	4.354759	0.011708	-0.168888	-0.208163	19.583749	-63.349922	-105.175119
14269	NaN	8.606958	1.364637	4.239032	0.032938	-0.177555	-0.210123	19.902053	-63.403077	-105.505419
14270	NaN	8.524895	1.515710	4.234012	0.044555	-0.187744	-0.201773	20.223113	-63.463279	-105.831314
14271	NaN	8.375812	1.621588	4.123823	0.040174	-0.215661	-0.203771	20.556745	-63.536486	-106.173761
14272	NaN	8.476295	1.631099	4.138406	0.031718	-0.240958	-0.186531	20.878984	-63.626625	-106.508764
14273	NaN	8.378820	1.778348	4.053576	0.027197	-0.248011	-0.166089	21.181893	-63.723158	-106.824711
14274	NaN	8.088270	1.966108	3.971698	0.004734	-0.298745	-0.157807	21.486657	-63.848516	-107.156877
14275	NaN	7.649190	1.895948	3.931095	-0.016737	-0.355864	-0.138533	21.786237	-64.006812	-107.496452
14276	NaN	7.499375	2.162135	3.779533	-0.053900	-0.469842	-0.137517	22.117867	-64.225851	-107.894886
14277	NaN	8.332415	2.269930	3.783073	-0.112457	-0.553772	-0.143165	22.466986	-64.486314	-108.349007
14278	NaN	8.850772	2.085005	3.734922	-0.159025	-0.562147	-0.116768	22.771679	-64.756704	-108.782610
14279	NaN	8.721096	2.049772	3.656075	-0.193980	-0.530845	-0.071938	22.998682	-65.018880	-109.151445
14280	NaN	8.640075	2.131429	3.728003	-0.233661	-0.525593	-0.048469	23.179458	-65.283817	-109.493740
14281	NaN	8.786878	1.868665	3.652679	-0.269306	-0.524843	-0.022549	23.315368	-65.553000	-109.808275
14282	NaN	8.828749	1.638220	3.740586	-0.286454	-0.504244	0.017875	23.388379	-65.821111	-110.064047
14283	NaN	9.044235	1.682298	3.784694	-0.277288	-0.467538	0.056785	23.405757	-66.077865	-110.252475
14284	NaN	8.767282	1.835580	3.560518	-0.286816	-0.450697	0.085664	23.376241	-66.333164	-110.395392
14285	NaN	8.776592	1.988036	3.499648	-0.328884	-0.455194	0.112896	23.293458	-66.596238	-110.506068
14286	NaN	8.746076	1.969353	3.465172	-0.374500	-0.445551	0.130378	23.157843	-66.859096	-110.587613
14287	NaN	9.035038	1.968485	3.467193	-0.420472	-0.446699	0.145848	22.976940	-67.125285	-110.648252
14288	NaN	9.156021	1.709748	3.390740	-0.457854	-0.416906	0.158315	22.741102	-67.379438	-110.672589
14289	NaN	9.297214	1.715774	3.413962	-0.473053	-0.385978	0.177710	22.453265	-67.620707	-110.649858
14290	NaN	9.223671	1.787771	3.436409	-0.502294	-0.341459	0.194947	22.098737	-67.842896	-110.573371
14291	NaN	8.975237	1.825283	3.459828	-0.546758	-0.332869	0.199007	21.705006	-68.060361	-110.482016
14292	NaN	9.401944	1.499251	3.562313	-0.571865	-0.329530	0.205441	21.281258	-68.277978	-110.374139
14293	NaN	9.790399	1.275387	3.469502	-0.579534	-0.257035	0.229075	20.778748	-68.460515	-110.186225
14294	NaN	9.848946	1.225431	3.504756	-0.567561	-0.172603	0.251026	20.203700	-68.602316	-109.913388
14295	NaN	10.183694	1.024600	3.447878	-0.561050	-0.065179	0.268183	19.550424	-68.687674	-109.552578
14296	NaN	10.084580	0.717651	3.465340	-0.523794	0.058847	0.289308	18.825149	-68.709132	-109.091894
14297	NaN	9.221645	0.880225	3.698878	-0.473938	0.105146	0.272255	18.130421	-68.699455	-108.633177
14298	NaN	8.948813	0.605834	3.597608	-0.457831	0.061855	0.238860	17.510886	-68.706427	-108.245433
14299	NaN	9.687323	-0.471977	3.505436	-0.352682	0.053971	0.266142	16.916875	-68.720044	-107.820283
14300	NaN	9.590713	-0.253444	3.549927	-0.196837	0.097120	0.288643	16.361327	-68.712918	-107.340761
14301	NaN	9.161597	0.260210	3.537698	-0.104426	0.099468	0.277271	15.874622	-68.700330	-106.878136
14302	NaN	8.568589	0.821543	3.597180	-0.047804	0.051398	0.250127	15.477770	-68.709540	-106.477255
14303	NaN	8.557387	1.274650	3.529632	-0.055890	-0.038685	0.207252	15.171846	-68.760362	-106.178875
14304	NaN	8.796695	1.353527	3.460536	-0.089764	-0.101029	0.160768	14.934828	-68.839029	-105.975475
14305	NaN	9.162774	1.641111	3.354783	-0.132844	-0.105209	0.142060	14.700350	-68.916174	-105.801229
14306	NaN	8.839448	1.365468	3.058659	-0.201640	-0.087090	0.122917	14.445366	-68.981035	-105.647466
14307	NaN	8.600408	1.557519	3.357893	-0.239831	-0.114238	0.104578	14.204340	-69.057337	-105.532006
14308	NaN	8.124983	2.169447	3.412427	-0.315783	-0.212452	0.056605	14.023819	-69.182147	-105.528112
14309	NaN	8.311334	2.373749	3.122095	-0.443696	-0.335838	-0.004305	13.904362	-69.366325	-105.667686
14310	NaN	9.289723	2.227612	3.121489	-0.580405	-0.380504	-0.039435	13.774727	-69.571457	-105.880038
14311	NaN	10.130177	1.987543	2.961754	-0.691192	-0.305272	-0.030508	13.541837	-69.735321	-106.049486
14312	NaN	10.689926	1.869277	2.918985	-0.781734	-0.137563	0.033815	13.097178	-69.815337	-106.048627
14313	NaN	9.777959	2.347799	3.031473	-0.884607	0.009838	0.105574	12.432633	-69.821268	-105.876040
14314	NaN	8.656237	2.016172	3.050983	-1.040590	0.030387	0.120766	11.647621	-69.817539	-105.670581
14315	NaN	8.935547	1.241641	3.451019	-1.138732	-0.002647	0.132769	10.799401	-69.831910	-105.457394
14316	NaN	8.873506	0.887904	3.546722	-1.168512	-0.025486	0.165539	9.888092	-69.862183	-105.195512
14317	NaN	8.780658	1.090523	4.258077	-1.193524	-0.048178	0.173278	8.955868	-69.903749	-104.926363
14318	NaN	8.069775	1.104467	3.783909	-1.258871	-0.126392	0.134706	8.060245	-69.985680	-104.736456
14319	NaN	8.217069	0.371539	3.368671	-1.315780	-0.241418	0.090500	7.222280	-70.127723	-104.642377
14320	NaN	9.610285	-1.133351	3.720112	-1.289034	-0.229254	0.126714	6.332063	-70.265633	-104.476887
14321	NaN	8.230178	-1.368004	3.588781	-1.132705	-0.191378	0.191110	5.416727	-70.383979	-104.189424
14322	NaN	7.221347	-0.933135	3.539537	-1.053199	-0.357329	0.095619	4.715934	-70.591675	-104.081844
14323	NaN	9.836509	-1.916332	3.427850	-0.966647	-0.461511	0.031565	4.175960	-70.854756	-104.091993
14324	NaN	10.895689	-3.500737	3.570934	-0.722579	-0.373268	0.062558	3.706655	-71.069515	-104.029212
14325	NaN	7.175329	-3.924787	1.902030	-0.079877	-0.375549	-0.054381	3.799882	-71.280259	-104.171610
14326	NaN	6.315857	-1.006836	3.372780	-0.004894	-0.602222	-0.226654	4.261093	-71.614263	-104.656789
14327	NaN	7.543422	-0.003799	3.309360	-0.026468	-0.920182	-0.452779	5.173789	-72.116437	-105.628783
14328	NaN	12.783705	-1.548227	2.780764	0.095396	-0.855379	-0.431151	6.158776	-72.578682	-106.600824
14329	NaN	13.313063	-1.415353	2.450446	0.476077	-0.325614	-0.241119	6.945159	-72.746314	-107.134586
14330	NaN	9.376153	2.233982	2.790776	0.458155	-0.025862	-0.065725	7.339662	-72.755240	-107.268562
14331	NaN	8.454708	3.035409	2.905164	0.154193	-0.108122	0.044946	7.376916	-72.818062	-107.210784
14332	NaN	9.665206	1.202694	3.020635	-0.042106	-0.150671	0.204117	7.017205	-72.917267	-106.855380
14333	NaN	4.864621	-0.875020	4.028173	0.015488	-0.317448	0.299532	6.544516	-73.116220	-106.347525
14334	NaN	6.912619	-0.669054	4.357106	0.275250	-1.183685	0.128418	6.725828	-73.797289	-106.367923
14335	NaN	10.803116	-0.021381	3.126701	0.375224	-1.496662	0.223500	6.855682	-74.661908	-106.275176
14336	NaN	10.731690	1.734040	2.777399	0.469145	-1.504401	0.318013	6.836759	-75.538349	-105.973256
14337	NaN	10.215939	1.586987	2.273026	0.083260	-1.464184	0.440130	6.271658	-76.398550	-105.337359
14338	NaN	10.876770	0.798523	1.722378	-0.006427	-1.301549	0.471754	5.453821	-77.166928	-104.496911
14339	NaN	10.172694	0.185505	1.820684	-0.012934	-1.076504	0.457097	4.519843	-77.802185	-103.543547
14340	NaN	11.076454	-0.126178	1.432771	-0.005926	-0.966778	0.330447	3.819195	-78.367351	-102.826811
14341	NaN	11.268600	0.490144	0.530476	0.065820	-0.484845	0.226292	3.313143	-78.650744	-102.267685
14342	NaN	10.374377	-0.054074	1.152084	-0.001401	-0.091039	0.182315	2.812263	-78.707356	-101.753555
14343	NaN	9.617175	-0.000368	1.884229	-0.015833	0.042909	0.122460	2.454961	-78.684167	-101.394194
14344	NaN	9.094809	0.020480	2.299028	-0.011584	-0.006514	0.076804	2.236415	-78.688649	-101.173958
14345	NaN	9.210991	0.000023	2.247706	-0.025777	-0.115409	0.031174	2.152963	-78.753552	-101.099680
14346	NaN	9.439640	0.156399	2.082304	-0.037997	-0.186261	0.007721	2.136186	-78.859316	-101.100644
14347	NaN	9.686729	0.163982	1.877784	-0.044151	-0.187807	0.017944	2.086888	-78.965359	-101.071948
14348	NaN	9.750535	0.194506	1.885050	-0.032844	-0.141468	0.035790	1.984626	-79.046046	-100.982819
14349	NaN	9.759405	0.148648	1.812687	-0.045856	-0.104656	0.051516	1.824152	-79.105094	-100.841904
14350	NaN	9.788625	0.038694	1.652226	-0.035290	-0.040181	0.052645	1.658044	-79.127980	-100.689220
14351	NaN	9.717803	0.047015	1.791814	-0.026492	0.017736	0.055468	1.484490	-79.116844	-100.523709
14352	NaN	9.412340	0.248115	2.114008	-0.033941	0.010466	0.058675	1.296849	-79.110626	-100.348309
14353	NaN	9.229155	0.207806	2.360066	-0.053488	-0.082368	0.076238	1.052228	-79.156859	-100.126186
14354	NaN	9.160219	0.090630	2.336018	-0.092781	-0.168638	0.057919	0.840804	-79.252982	-99.960950
14355	NaN	9.534164	-0.067155	1.896321	-0.112200	-0.222615	0.025792	0.716042	-79.378853	-99.895164
14356	NaN	9.500515	0.141492	2.003990	-0.109695	-0.230521	0.004016	0.656824	-79.509918	-99.894741
14357	NaN	9.502524	-0.075904	1.782153	-0.108182	-0.235638	-0.011925	0.649133	-79.642970	-99.945706
14358	NaN	9.668669	-0.071196	1.683656	-0.108540	-0.221010	-0.015836	0.652398	-79.768457	-100.008116
14359	NaN	9.594890	0.108887	1.869693	-0.074869	-0.193514	-0.006289	0.645436	-79.877416	-100.040394
14360	NaN	9.708946	-0.029236	1.648717	-0.091793	-0.193366	-0.013408	0.650829	-79.987082	-100.095175
14361	NaN	9.867830	-0.082888	1.338093	-0.080296	-0.162402	-0.016761	0.674551	-80.078145	-100.161745
14362	NaN	9.773269	0.003803	1.513559	-0.027090	-0.111525	-0.007849	0.696931	-80.140954	-100.196109
14363	NaN	9.725858	-0.045730	1.552344	-0.027702	-0.079436	-0.000077	0.693500	-80.184610	-100.204511
14364	NaN	9.865546	-0.007649	1.454622	-0.013160	-0.038547	0.003849	0.682495	-80.205689	-100.196886
14365	NaN	9.801654	-0.127584	1.489043	0.013257	0.033011	-0.003338	0.708828	-80.184912	-100.211680
14366	NaN	9.667722	0.014817	1.702283	0.029137	0.067667	-0.014423	0.778027	-80.145005	-100.260858
14367	NaN	9.781903	-0.004452	1.557940	0.045600	0.094198	-0.011076	0.845103	-80.089113	-100.298204
14368	NaN	9.694875	0.094767	1.682074	0.064976	0.124211	0.008775	0.855335	-80.016994	-100.266684
14369	NaN	9.533391	0.026353	1.832392	0.065727	0.109500	0.012666	0.855455	-79.952540	-100.224342
14370	NaN	9.776163	0.059971	1.656293	0.074819	0.114545	0.018893	0.839619	-79.886044	-100.160605
14371	NaN	9.816533	0.119126	1.701419	0.091927	0.158053	0.048016	0.740624	-79.794046	-100.002298
14372	NaN	9.545914	0.114464	1.889146	0.092055	0.166636	0.070785	0.570749	-79.698009	-99.771951
14373	NaN	9.462927	-0.016714	1.990256	0.088664	0.139285	0.073801	0.394980	-79.616739	-99.537407
14374	NaN	9.589029	0.124794	1.886887	0.099263	0.114969	0.065994	0.251725	-79.550053	-99.329809
14375	NaN	9.648694	0.088964	1.855693	0.074760	0.118815	0.073012	0.076279	-79.480271	-99.103585
14376	NaN	9.632311	0.198447	1.946025	0.059438	0.128805	0.075423	-0.113848	-79.405433	-98.871424
14377	NaN	9.765636	0.050724	1.880573	0.040619	0.143337	0.068749	-0.289918	-79.321345	-98.664352
14378	NaN	9.878019	-0.099359	1.593540	0.033276	0.196839	0.022297	-0.327501	-79.207477	-98.602573
14379	NaN	9.972074	0.126472	1.651849	0.017859	0.286325	-0.004507	-0.290465	-79.041627	-98.625620
14380	NaN	9.832263	0.236259	1.805405	-0.016921	0.384197	-0.030962	-0.197273	-78.820554	-98.726330
14381	NaN	9.835850	0.840444	2.002524	-0.117192	0.441007	-0.021012	-0.191321	-78.566115	-98.796617
14382	NaN	9.803002	0.808868	2.223502	-0.281923	0.482611	0.005717	-0.355139	-78.288565	-98.790149
14383	NaN	9.454133	0.284333	2.303586	-0.264039	0.461811	-0.011935	-0.456273	-78.022217	-98.837100
14384	NaN	9.114676	0.609669	2.563007	-0.273051	0.330029	0.001320	-0.600948	-77.832107	-98.844999
14385	NaN	8.979458	1.492588	2.961318	-0.280121	0.152724	0.060710	-0.908204	-77.742331	-98.690534
14386	NaN	8.546318	2.694398	3.439709	-0.359037	-0.043035	0.080670	-1.321877	-77.765073	-98.473588
14387	NaN	7.860453	5.106252	3.499611	-0.424052	-0.299071	-0.021045	-1.519349	-77.934804	-98.515762
14388	NaN	7.484005	5.311915	3.357897	-0.512711	-0.802266	-0.260291	-1.145269	-78.396810	-99.193965
14389	NaN	8.699582	4.820427	4.196894	-0.517572	-1.268446	-0.367998	-0.419926	-79.124448	-100.231360
14390	NaN	10.197346	4.148330	5.220550	-0.417350	-1.349104	-0.271436	0.179797	-79.896749	-101.080329
14391	NaN	11.141895	4.415501	6.195724	-0.278442	-1.066611	-0.180892	0.659204	-80.504961	-101.724204
14392	NaN	11.285334	4.835687	6.816921	-0.145798	-0.564461	-0.213842	1.363557	-80.825132	-102.518560
14393	NaN	10.702290	4.655501	6.897490	-0.000470	-0.044268	-0.339729	2.588886	-80.841347	-103.755410
14394	NaN	9.507522	4.193480	6.490483	0.141746	0.364144	-0.453416	4.190950	-80.616630	-105.292281
14395	NaN	8.350945	3.957494	5.863525	0.272124	0.546772	-0.559363	6.091062	-80.273077	-107.056303
14396	NaN	7.835765	3.895183	5.615250	0.321530	0.510342	-0.672352	8.263767	-79.933682	-109.070695
14397	NaN	8.273144	3.791816	5.812180	0.320808	0.412432	-0.767388	10.651509	-79.625145	-111.305359
14398	NaN	9.355333	3.642585	6.237783	0.264956	0.395059	-0.821538	13.037309	-79.305798	-113.573511
14399	NaN	10.310704	3.302211	6.447741	0.175821	0.475957	-0.825612	15.190257	-78.922401	-115.658452
14400	NaN	10.628855	3.065385	6.585235	0.087623	0.608006	-0.802597	16.973227	-78.459068	-117.421379
14401	NaN	10.785582	3.002781	6.482140	-0.031221	0.742004	-0.773622	18.368697	-77.915544	-118.860387
14402	NaN	10.700346	2.964367	6.040257	-0.166030	0.882190	-0.748406	19.381274	-77.297334	-119.990358
14403	NaN	10.332954	2.922131	5.406103	-0.303937	0.992569	-0.745128	20.121748	-76.613663	-120.924212
14404	NaN	10.249314	2.842456	4.657403	-0.417379	1.106475	-0.762338	20.657656	-75.866036	-121.717978
14405	NaN	10.110660	2.675894	3.683933	-0.506501	1.270996	-0.780272	20.988768	-75.022120	-122.354834
14406	NaN	9.178712	2.498177	2.713380	-0.549787	1.326267	-0.835772	21.304077	-74.139438	-123.004467
14407	NaN	8.708814	2.174100	2.085600	-0.555364	1.215605	-0.937289	21.827525	-73.289884	-123.876139
14408	NaN	8.847951	1.515416	1.942593	-0.515405	1.058219	-1.021298	22.553732	-72.506239	-124.940650
14409	NaN	9.836934	0.647946	2.281814	-0.379071	1.001669	-1.081880	23.418366	-71.731363	-126.072169
14410	NaN	10.750310	-0.029966	2.712450	-0.167409	1.129034	-1.110717	24.274411	-70.881177	-127.072846
14411	NaN	10.990959	-0.512858	3.000808	0.082137	1.387447	-1.119302	25.033307	-69.886751	-127.823310
14412	NaN	10.353883	-0.845239	3.041643	0.322383	1.672314	-1.135954	25.693075	-68.740927	-128.326743
14413	NaN	9.562584	-0.800393	2.967645	0.522560	1.877146	-1.162241	26.314528	-67.477979	-128.668581
14414	NaN	8.645165	-0.868990	2.559231	0.646439	1.955599	-1.179427	26.927681	-66.172271	-128.928221
14415	NaN	7.891992	-0.758024	2.339762	0.701082	1.877672	-1.168863	27.561089	-64.904947	-129.177532
14416	NaN	7.177477	-0.712092	2.175100	0.710554	1.760830	-1.171748	28.224742	-63.697981	-129.457699
14417	NaN	6.434403	-0.789981	1.880007	0.724191	1.664962	-1.233838	28.968286	-62.517854	-129.820877
14418	NaN	5.908895	-1.108444	1.265895	0.781896	1.579325	-1.347165	29.848257	-61.349333	-130.305789
14419	NaN	-0.363029	-2.422131	-2.094609	1.006112	1.209464	-1.391903	31.032560	-60.343754	-130.996509
14420	NaN	11.684335	-2.037522	-2.160546	0.286454	-1.294266	-0.458140	32.287657	-60.835981	-132.244201
14421	NaN	10.847803	-4.350078	2.953348	0.335881	-0.712530	-0.303571	33.145278	-61.081675	-132.999921
14422	NaN	10.150065	-5.743391	0.474984	0.473363	-0.298121	-0.061098	33.644167	-61.203797	-133.255248
14423	NaN	5.749208	-7.548568	-3.677048	0.584407	-0.677484	0.213770	34.193385	-61.590803	-133.494608
14424	NaN	8.531229	-6.633129	-1.411305	0.695312	-1.044843	0.692875	34.615870	-62.307821	-133.517320
14425	NaN	8.913002	-9.736899	-3.379708	0.896978	-1.421173	1.063262	35.064965	-63.321170	-133.439910
14426	NaN	12.842389	-12.289862	-5.253769	0.988372	-1.537016	1.631212	35.106195	-64.577804	-132.850970
14427	NaN	14.137512	0.149387	1.731012	1.961602	-0.906267	1.940539	34.911534	-65.638744	-131.393285
14428	NaN	6.870153	4.171662	2.185806	1.364019	-1.027088	1.691042	34.656086	-66.673624	-130.255143
14429	NaN	6.575220	6.384942	0.355018	1.105257	-1.679402	1.627090	34.768495	-67.993254	-129.686610
14430	NaN	14.999129	5.603381	1.293151	0.742772	-1.815057	1.685278	34.682053	-69.396817	-129.132704
14431	NaN	12.522470	2.220032	1.026917	0.679987	-1.244050	1.687629	33.987244	-70.528615	-127.974279
14432	NaN	13.532324	5.433481	1.460653	0.281498	-1.135340	1.627219	32.931215	-71.584191	-126.683029
14433	NaN	12.566352	3.841481	0.365864	0.093745	-0.940285	1.570788	31.524643	-72.517806	-125.143868
14434	NaN	12.625610	3.156949	0.762331	-0.271152	-0.665430	1.550561	29.514185	-73.296295	-123.198868
14435	NaN	12.789718	2.534603	2.006766	-0.450215	-0.397627	1.463187	27.120479	-73.892555	-120.968250
14436	NaN	11.979778	0.545960	2.632481	-0.467607	-0.271971	1.275010	24.787494	-74.351247	-118.817097
14437	NaN	10.314075	0.636284	3.036370	-0.364729	-0.236950	1.121978	22.652361	-74.732162	-116.814390
14438	NaN	10.428751	-0.025692	3.105370	-0.289279	-0.339076	1.003914	20.773938	-75.124302	-115.036525
14439	NaN	9.884936	0.165829	3.086510	-0.169175	-0.501603	0.847924	19.313737	-75.558813	-113.623149
14440	NaN	9.822391	0.266521	2.613415	-0.091892	-0.707419	0.693681	18.294725	-76.069445	-112.622225
14441	NaN	9.891390	0.499892	2.251188	-0.075217	-0.756813	0.567342	17.533845	-76.580020	-111.879282
14442	NaN	10.100931	0.696915	1.888941	-0.052432	-0.694828	0.478509	16.894524	-77.040261	-111.249339
14443	NaN	10.165079	0.724858	1.754457	-0.074275	-0.557159	0.416760	16.249605	-77.412341	-110.627480
14444	NaN	9.983259	0.603857	1.821068	-0.079822	-0.430823	0.362914	15.610285	-77.705609	-110.015476
14445	NaN	9.813701	0.145886	1.851023	-0.129830	-0.356044	0.250636	15.150846	-77.938418	-109.617352
14446	NaN	9.876975	0.901546	1.892999	-0.015865	-0.251956	0.211119	14.772371	-78.107951	-109.235607
14447	NaN	9.739017	0.245384	1.756252	-0.102955	-0.210818	0.187946	14.366609	-78.249989	-108.877116
14448	NaN	9.476150	0.415201	2.052780	-0.048312	-0.180925	0.140794	14.090087	-78.369141	-108.618868
14449	NaN	9.700635	0.434529	1.832324	-0.044090	-0.172821	0.126823	13.843341	-78.480825	-108.388587
14450	NaN	9.496087	0.368934	1.966206	-0.037957	-0.154232	0.099184	13.659090	-78.579013	-108.218639
14451	NaN	9.499031	0.333185	1.972000	-0.026421	-0.173953	0.067627	13.579582	-78.683062	-108.148786
14452	NaN	9.631660	0.437456	1.875223	-0.006642	-0.179958	0.049279	13.565532	-78.788762	-108.134211
14453	NaN	9.702786	0.452126	1.801116	-0.008457	-0.151836	0.037035	13.565787	-78.876367	-108.135220
14454	NaN	9.816575	0.463574	1.697717	-0.002089	-0.107006	0.025123	13.572691	-78.938188	-108.139348
14455	NaN	9.854655	0.529273	1.694519	-0.003563	-0.028995	0.015933	13.551421	-78.954547	-108.115568
14456	NaN	9.711035	0.469047	1.784514	-0.013485	0.026177	0.018033	13.480431	-78.941224	-108.046981
14457	NaN	9.599640	0.480000	1.857911	-0.016485	0.049670	0.012128	13.408933	-78.913237	-107.979562
14458	NaN	9.602579	0.475184	1.886887	-0.007977	0.055358	0.013931	13.333529	-78.883072	-107.903249
14459	NaN	9.526079	0.461741	1.902650	-0.017450	0.054490	0.005977	13.276397	-78.851555	-107.851020
14460	NaN	9.430936	0.514082	2.028978	-0.026325	0.023137	0.014580	13.210796	-78.839412	-107.795401
14461	NaN	9.472890	0.415305	1.934758	-0.018523	-0.003525	0.012248	13.174219	-78.841051	-107.764743
14462	NaN	9.573498	0.476226	1.876743	-0.036334	-0.016394	0.016228	13.124453	-78.851161	-107.731109
14463	NaN	9.506564	0.482662	1.912336	-0.018634	-0.014364	0.011578	13.096807	-78.858752	-107.709620
14464	NaN	9.521855	0.429257	1.901166	-0.036529	-0.019565	0.014958	13.052494	-78.870459	-107.681659
14465	NaN	9.563210	0.491486	1.926193	-0.034504	-0.036069	0.014834	13.020684	-78.890578	-107.665195
14466	NaN	9.444991	0.481559	1.965595	-0.023777	-0.043720	0.017787	12.991335	-78.916128	-107.645041
14467	NaN	9.500739	0.426321	1.894122	-0.034759	-0.069418	0.025818	12.949754	-78.956271	-107.618772
14468	NaN	9.510065	0.416434	1.934678	-0.020042	-0.083907	0.027987	12.919456	-79.005565	-107.595478
14469	NaN	9.604204	0.482898	1.821998	-0.013352	-0.077066	0.031113	12.879449	-79.050647	-107.558326
14470	NaN	9.653011	0.471444	1.806470	-0.020374	-0.062740	0.038086	12.805187	-79.089395	-107.490456
14471	NaN	9.635787	0.344882	1.811860	-0.018839	-0.043062	0.034851	12.728041	-79.115934	-107.418693
14472	NaN	9.650442	0.440263	1.795533	-0.023927	-0.025889	0.028769	12.653833	-79.132877	-107.352962
14473	NaN	9.645911	0.385983	1.812204	-0.028359	-0.013384	0.026690	12.575056	-79.141768	-107.285101
14474	NaN	9.579094	0.391959	1.848568	-0.013917	-0.007361	0.014914	12.534625	-79.146594	-107.247928
14475	NaN	9.642414	0.386037	1.786719	-0.005786	-0.008345	0.002152	12.536968	-79.149599	-107.249498
14476	NaN	9.622680	0.386905	1.814965	-0.001885	0.006346	-0.011411	12.571307	-79.143481	-107.281438
14477	NaN	9.583519	0.416290	1.851428	-0.004186	0.013183	-0.012948	12.604570	-79.132564	-107.313560
14478	NaN	9.502813	0.354621	1.881304	0.005080	0.001855	-0.018848	12.667392	-79.128016	-107.370440
14479	NaN	9.515806	0.400861	1.909575	0.006855	-0.022160	-0.020546	12.752156	-79.135881	-107.448564
14480	NaN	9.564568	0.450117	1.855872	0.018025	-0.028149	-0.027359	12.867040	-79.146982	-107.550902
14481	NaN	9.608358	0.448411	1.820359	0.010505	-0.026660	-0.023332	12.965317	-79.156947	-107.640650
14482	NaN	9.613080	0.474587	1.821046	0.013004	-0.013983	-0.020562	13.048338	-79.160950	-107.713468
14483	NaN	9.593038	0.449706	1.869240	0.003460	-0.012331	-0.016345	13.112753	-79.163776	-107.772846
14484	NaN	9.576373	0.410481	1.814975	0.003462	-0.012331	-0.016345	13.176984	-79.167373	-107.832098
14485	NaN	9.589450	0.456314	1.842655	-0.000463	-0.019677	-0.015377	13.241438	-79.174398	-107.893802
14486	NaN	9.580789	0.410487	1.835721	0.017067	-0.012141	-0.020806	13.326445	-79.177275	-107.966269
14487	NaN	9.633134	0.456394	1.807059	0.016199	-0.010641	-0.026080	13.425534	-79.177810	-108.053514
14488	NaN	9.585414	0.439722	1.836139	0.018221	-0.010805	-0.026269	13.526262	-79.179167	-108.141313
14489	NaN	9.613112	0.435682	1.854516	0.021056	-0.007297	-0.033923	13.648647	-79.176724	-108.249443
14490	NaN	9.609483	0.469754	1.809006	0.019803	-0.000961	-0.029052	13.751391	-79.172160	-108.338373
14491	NaN	9.604899	0.448923	1.806509	0.028656	0.006731	-0.024993	13.841999	-79.163057	-108.409721
14492	NaN	9.632679	0.471748	1.805544	0.026881	0.014400	-0.023262	13.920740	-79.150691	-108.470087
14493	NaN	9.710517	0.445561	1.715534	0.038639	0.034275	-0.026319	14.000745	-79.126053	-108.524820
14494	NaN	9.694172	0.473344	1.751343	0.050536	0.069327	-0.028436	14.067867	-79.082407	-108.559563
14495	NaN	9.692979	0.504360	1.738011	0.060578	0.099032	-0.029636	14.122536	-79.021302	-108.575704
14496	NaN	9.690661	0.507957	1.749852	0.055388	0.151377	-0.023735	14.119409	-78.932712	-108.536060
14497	NaN	9.528118	0.450129	1.907442	0.067309	0.171225	-0.026792	14.118195	-78.831895	-108.491327
14498	NaN	9.424642	0.633788	2.038300	0.050036	0.146154	-0.020311	14.106818	-78.746685	-108.446373
14499	NaN	9.347487	0.445896	2.085460	0.029688	0.104597	-0.006974	14.076356	-78.685648	-108.393768
14500	NaN	9.420184	0.367187	2.019444	0.045120	0.043775	-0.013103	14.114074	-78.658333	-108.401738
14501	NaN	9.838126	0.474474	1.746547	0.063799	0.042594	-0.037611	14.231081	-78.627448	-108.479602
14502	NaN	9.937762	0.597241	1.655177	0.057174	0.134524	-0.054309	14.325024	-78.543916	-108.537888
14503	NaN	9.653797	0.480793	1.898128	0.052794	0.202262	-0.070501	14.412317	-78.419695	-108.591904
14504	NaN	9.505846	0.458091	1.985241	0.062505	0.204690	-0.088547	14.550106	-78.292292	-108.691888
14505	NaN	9.489815	0.516901	2.036918	0.051616	0.190368	-0.107001	14.738075	-78.169327	-108.849481
14506	NaN	9.481897	0.531868	2.029980	0.052005	0.173620	-0.118897	14.965383	-78.054547	-109.047182
14507	NaN	9.452810	0.494262	2.092408	0.050422	0.161361	-0.130363	15.226196	-77.943889	-109.280082
14508	NaN	9.338475	0.574342	2.130517	0.051322	0.119323	-0.138355	15.533307	-77.855777	-109.559956
14509	NaN	9.320011	0.639405	2.148416	0.048682	0.076535	-0.128704	15.841090	-77.791666	-109.842082
14510	NaN	9.246263	0.635055	2.185749	0.035692	0.015285	-0.105193	16.123599	-77.765479	-110.106073
14511	NaN	9.389884	0.676824	2.117824	0.028861	-0.037754	-0.081671	16.381012	-77.771182	-110.348339
14512	NaN	9.546543	0.667980	2.013497	0.020194	-0.056991	-0.057105	16.585895	-77.792033	-110.541987
14513	NaN	9.619530	0.716058	1.954378	0.008974	-0.030138	-0.036172	16.711406	-77.800665	-110.660932
14514	NaN	9.583708	0.770209	1.989452	0.005223	-0.007659	-0.006293	16.741834	-77.802652	-110.684856
14515	NaN	9.575631	0.721810	1.984768	-0.009978	0.014010	0.015736	16.691216	-77.795584	-110.634708
14516	NaN	9.483284	0.702389	2.048062	-0.012230	0.024906	0.055697	16.529629	-77.789855	-110.472407
14517	NaN	9.450400	0.716895	2.132475	-0.016992	0.016604	0.092562	16.278121	-77.793733	-110.220827
14518	NaN	9.459130	0.633882	2.097556	-0.016107	-0.007174	0.125906	15.959172	-77.816536	-109.899812
14519	NaN	9.529406	0.666439	2.017333	-0.015601	-0.025322	0.156350	15.574519	-77.852865	-109.511249
14520	NaN	9.558324	0.643254	2.035111	-0.013904	-0.022531	0.180322	15.124574	-77.891493	-109.055038
14521	NaN	9.519670	0.625195	2.088260	-0.012257	-0.036835	0.217438	14.586423	-77.941865	-108.507654
14522	NaN	9.557401	0.551128	2.047557	0.001355	-0.041374	0.237882	14.000780	-77.997325	-107.903925
14523	NaN	9.587090	0.455286	1.979958	0.005969	-0.044063	0.239561	13.410015	-78.052410	-107.292297
14524	NaN	9.567959	0.406296	2.025147	0.033322	-0.042219	0.241894	12.821730	-78.106266	-106.667393
14525	NaN	9.498921	0.462131	2.115417	0.038981	-0.064270	0.237995	12.254915	-78.169864	-106.061164
14526	NaN	9.566513	0.461570	2.027047	0.054128	-0.075641	0.241596	11.686645	-78.239826	-105.444816
14527	NaN	9.549668	0.506518	2.130592	0.059238	-0.081845	0.246299	11.105400	-78.311735	-104.812296
14528	NaN	9.495548	0.567622	2.141356	0.063903	-0.097335	0.261384	10.485290	-78.393432	-104.137630
14529	NaN	9.495534	0.708244	2.228046	0.040574	-0.115621	0.293804	9.762336	-78.486297	-103.371747
14530	NaN	9.879989	0.558128	1.917730	0.051567	-0.152493	0.347458	8.898788	-78.603669	-102.456370
14531	NaN	9.893704	0.087470	1.696389	0.202232	-0.117448	0.488752	7.689232	-78.708734	-101.100298
14532	NaN	9.840931	0.271533	1.971444	0.482625	-0.129168	0.647369	6.163329	-78.825843	-99.258546
14533	NaN	9.820203	0.900001	2.169184	0.797836	-0.149987	0.832338	4.249771	-78.952854	-96.838347
14534	NaN	9.876453	1.331383	2.369389	1.087460	-0.178279	0.961759	2.073291	-79.084210	-93.982471
14535	NaN	9.341583	5.415091	4.268822	1.358277	-0.154561	0.952893	0.025593	-79.180960	-91.100670
14536	NaN	8.174185	9.217602	6.441457	1.087547	-0.205844	0.655833	-1.327513	-79.293616	-89.084941
14537	NaN	8.574686	10.951891	8.106927	0.551368	-0.128700	0.313688	-1.963895	-79.360227	-88.111409
14538	NaN	9.665881	9.457463	8.384671	-0.134625	0.044594	0.111826	-2.368445	-79.331268	-87.774129
14539	NaN	9.209850	8.738855	8.176834	-0.644747	0.364873	-0.025497	-2.598097	-79.120801	-87.911652
14540	NaN	8.215377	7.788885	7.309928	-1.134274	0.539104	-0.240872	-2.463071	-78.817306	-88.707216
14541	NaN	8.737368	6.593799	6.384046	-1.481329	0.666124	-0.470860	-1.882062	-78.443525	-90.160597
14542	NaN	7.852242	5.456800	5.335518	-1.750456	0.752056	-0.668689	-0.987214	-78.021288	-92.094974
14543	NaN	7.694893	4.082200	3.792376	-2.016855	0.534004	-0.797631	0.012649	-77.716215	-94.294474
14544	NaN	8.769175	2.257392	2.668761	-2.281141	0.185801	-0.801461	0.808443	-77.605418	-96.442838
14545	NaN	9.843217	0.724659	2.302501	-2.437623	0.053737	-0.735111	1.338954	-77.563531	-98.410923
14546	NaN	9.455168	-0.200774	1.676030	-2.465181	0.090945	-0.732947	1.825401	-77.498791	-100.351534
14547	NaN	8.909535	-1.155246	0.353257	-2.434889	0.009902	-0.803905	2.519085	-77.472313	-102.485937
14548	NaN	10.082919	-3.107457	-0.538652	-2.314346	-0.064824	-0.868250	3.445395	-77.482459	-104.789001
14549	NaN	10.720799	-5.214836	-1.855385	-2.003957	-0.032466	-0.829531	4.451643	-77.464913	-106.990867
14550	NaN	10.620728	-7.056051	-3.346846	-1.613953	-0.084134	-0.698929	5.347631	-77.477656	-108.851841
14551	NaN	10.712101	-8.911921	-4.699698	-1.104161	-0.114956	-0.554826	6.182723	-77.508081	-110.350374
14552	NaN	11.632283	-10.850834	-6.602402	-0.560611	-0.399442	-0.256448	6.649342	-77.717996	-111.152826
14553	NaN	12.127764	-12.278934	-7.036154	0.164277	-0.321826	0.095902	6.598669	-77.904793	-111.000136
14554	NaN	11.505530	-11.515325	-7.633304	0.953686	-0.285315	0.302432	6.429289	-78.085771	-110.264188
14555	NaN	11.424671	-7.527274	-6.538539	1.673114	-0.394413	0.397880	6.430500	-78.333780	-109.281942
14556	NaN	11.384954	1.256778	1.008573	1.649552	0.085637	0.340450	6.418127	-78.305747	-108.300061
14557	NaN	9.057043	3.818073	3.181451	0.995188	0.114273	0.244968	6.286940	-78.254416	-107.579637
14558	NaN	9.438170	4.230102	2.831348	0.115590	-0.102343	0.260707	5.672575	-78.327202	-106.880443
14559	NaN	10.925732	0.135094	1.041030	-0.256825	0.042751	0.309265	4.668121	-78.316920	-106.000806
14560	NaN	10.065192	-0.118549	1.596461	-0.012609	0.370528	0.317469	3.723642	-78.117416	-105.039241
14561	NaN	8.305259	-0.794077	2.557245	-0.028138	0.269772	0.197648	3.137426	-77.968116	-104.452287
14562	NaN	8.843558	-0.012674	2.553763	-0.002264	0.059203	0.061391	2.970013	-77.935051	-104.278287
14563	NaN	9.148839	0.187312	2.412516	0.016876	-0.032772	0.048097	2.862551	-77.953391	-104.154307
14564	NaN	8.868452	0.040356	2.482735	0.014453	-0.173198	0.060028	2.738938	-78.053125	-104.015327
14565	NaN	8.979823	-0.076837	2.311024	-0.003748	-0.341532	0.043497	2.669494	-78.247928	-103.942361
14566	NaN	9.205174	-0.022880	2.181373	0.027132	-0.434752	0.013738	2.710697	-78.496055	-103.964420
14567	NaN	9.373365	-0.034339	2.059302	0.009102	-0.482229	-0.032235	2.882157	-78.769266	-104.129799
14568	NaN	10.143075	0.105881	1.567306	0.003279	-0.473554	-0.123672	3.326829	-79.035292	-104.576900
14569	NaN	10.323621	0.176032	1.362028	-0.023802	-0.262067	-0.156888	3.835529	-79.177682	-105.104641
14570	NaN	10.076400	0.504791	1.729266	0.007197	-0.088809	-0.091904	4.140757	-79.223705	-105.407050
14571	NaN	9.806475	0.175077	1.753776	-0.035810	-0.046957	-0.055135	4.303797	-79.246371	-105.589713
14572	NaN	9.620429	0.142055	1.850090	-0.031237	-0.003185	-0.048953	4.441015	-79.244972	-105.743477
14573	NaN	9.461473	0.218556	1.998690	-0.032526	-0.024277	-0.046010	4.573951	-79.254930	-105.893576
14574	NaN	9.563817	0.200280	1.893820	-0.037063	-0.070636	-0.040468	4.699110	-79.292312	-106.038450
14575	NaN	9.675182	0.198136	1.815374	-0.034779	-0.071501	-0.026540	4.784803	-79.330037	-106.141753
14576	NaN	9.565780	0.174302	1.898113	-0.034363	-0.067916	-0.011870	4.825607	-79.367158	-106.199184
14577	NaN	9.504529	0.172442	1.952263	-0.032141	-0.091153	-0.011738	4.873949	-79.416783	-106.262922
14578	NaN	9.555878	0.134906	1.846073	-0.029080	-0.120535	-0.006986	4.917498	-79.484165	-106.320046
14579	NaN	9.666508	0.191085	1.830588	-0.034987	-0.125376	-0.008113	4.963348	-79.553482	-106.382883
14580	NaN	9.722844	0.205910	1.711191	-0.029149	-0.105591	0.004801	4.967405	-79.612905	-106.399869
14581	NaN	9.710885	0.164503	1.668269	-0.032626	-0.070807	0.009575	4.945466	-79.651949	-106.392392
14582	NaN	9.701203	0.177031	1.720358	-0.033357	-0.035392	0.007580	4.919403	-79.671439	-106.381208
14583	NaN	9.615651	0.176369	1.785141	-0.034384	-0.016441	0.014487	4.866214	-79.679691	-106.342991
14584	NaN	9.587188	0.125030	1.800919	-0.039242	-0.013106	0.008816	4.826791	-79.686515	-106.321656
14585	NaN	9.577870	0.196825	1.821789	-0.035244	-0.014613	0.009323	4.788712	-79.693465	-106.299299
14586	NaN	9.544852	0.122441	1.831276	-0.033087	-0.027998	0.009588	4.754211	-79.708823	-106.279383
14587	NaN	9.545902	0.150684	1.810890	-0.027029	-0.033030	0.010532	4.721730	-79.726340	-106.257935
14588	NaN	9.555544	0.166045	1.835871	-0.018966	-0.048061	0.011088	4.695634	-79.753222	-106.238340
14589	NaN	9.575922	0.167544	1.802303	-0.020436	-0.060246	0.012963	4.666085	-79.786387	-106.216036
14590	NaN	9.667570	0.187926	1.734890	-0.019149	-0.058074	0.020795	4.611341	-79.819432	-106.167444
14591	NaN	9.601627	0.159506	1.786083	-0.012277	-0.052931	0.027348	4.538309	-79.849070	-106.096217
14592	NaN	9.641273	0.162156	1.724039	-0.012388	-0.054315	0.038156	4.430222	-79.880721	-105.989511
14593	NaN	9.642120	0.158387	1.719647	-0.015040	-0.037236	0.035139	4.325824	-79.901691	-105.888043
14594	NaN	9.623485	0.151640	1.744737	-0.012723	-0.033367	0.037599	4.213153	-79.921280	-105.776891
14595	NaN	9.600521	0.151155	1.747112	-0.010217	-0.028572	0.041255	4.088968	-79.937483	-105.652532
14596	NaN	9.600595	0.117439	1.761856	-0.014937	-0.028610	0.036245	3.977475	-79.954218	-105.543877
14597	NaN	9.582362	0.140667	1.770083	-0.017577	-0.030020	0.031943	3.878703	-79.970798	-105.449619
14598	NaN	9.592677	0.094140	1.727215	-0.014870	-0.033701	0.024606	3.805321	-79.989933	-105.379639
14599	NaN	9.630691	0.128203	1.753126	-0.013676	-0.033232	0.020155	3.747094	-80.007861	-105.324292
14600	NaN	9.646212	0.135414	1.698531	-0.009259	-0.028580	0.023598	3.678628	-80.024003	-105.256047
14601	NaN	9.646132	0.103375	1.713801	-0.002052	-0.016817	0.021087	3.620240	-80.032559	-105.193779
14602	NaN	9.646346	0.101339	1.712716	-0.002313	-0.005722	0.020354	3.561321	-80.035488	-105.131190
14603	NaN	9.603655	0.099922	1.746190	0.003628	-0.003063	0.021186	3.502952	-80.036162	-105.065639
14604	NaN	9.655565	0.114342	1.741150	0.002601	0.004329	0.015662	3.460097	-80.033159	-105.016501
14605	NaN	9.594471	0.169916	1.769267	0.001097	0.008480	0.018549	3.406635	-80.027120	-104.957404
14606	NaN	9.584758	0.121836	1.758466	-0.003509	0.002903	0.013909	3.366327	-80.024860	-104.914404
14607	NaN	9.631841	0.113498	1.747814	-0.006185	-0.000658	0.009332	3.340504	-80.023723	-104.887605
14608	NaN	9.608288	0.115991	1.753317	-0.001961	0.003067	0.011576	3.308666	-80.021283	-104.852304
14609	NaN	9.603962	0.121287	1.730444	-0.005608	0.002119	0.012925	3.270996	-80.018670	-104.813139
14610	NaN	9.613483	0.076839	1.691040	-0.003199	0.007377	0.004577	3.260429	-80.013530	-104.800157
14611	NaN	9.632069	0.139700	1.732316	0.004161	0.015745	0.002711	3.259055	-80.002788	-104.792162
14612	NaN	9.612537	0.136187	1.762376	-0.002556	0.016626	0.009002	3.232837	-79.992499	-104.762912
14613	NaN	9.640082	0.125154	1.781735	-0.002555	0.016626	0.009002	3.207142	-79.981455	-104.734125
14614	NaN	9.583599	0.114504	1.765262	0.002183	0.016652	0.014010	3.167547	-79.971306	-104.688533
14615	NaN	9.578516	0.089924	1.761011	0.002332	0.013262	0.014654	3.127121	-79.962356	-104.641940
14616	NaN	9.588050	0.134980	1.773223	0.000697	0.004467	0.015877	3.082933	-79.959224	-104.592545
14617	NaN	9.626006	0.109577	1.733946	0.002754	0.000934	0.016307	3.039658	-79.957365	-104.542813
14618	NaN	9.635127	0.124558	1.762815	0.003481	0.000319	0.020544	2.982739	-79.956733	-104.478867
14619	NaN	9.626019	0.105956	1.734097	0.001403	0.001695	0.019837	2.927200	-79.954527	-104.417465
14620	NaN	9.635095	0.120644	1.763264	0.001815	0.005702	0.022510	2.862134	-79.950849	-104.346214
14621	NaN	9.583686	0.132211	1.751344	0.000078	0.004613	0.023644	2.793154	-79.947057	-104.271930
14622	NaN	9.554653	0.080664	1.768721	-0.000332	0.000605	0.020971	2.732712	-79.946224	-104.206624
14623	NaN	9.559016	0.072174	1.791366	-0.004463	-0.010820	0.018813	2.679137	-79.951106	-104.150627
14624	NaN	9.630479	0.089364	1.756698	-0.001032	-0.012959	0.015991	2.636377	-79.957884	-104.103686
14625	NaN	9.622098	0.100909	1.709761	0.000832	-0.001083	0.016243	2.592613	-79.957109	-104.054573
14626	NaN	9.607129	0.089882	1.761184	-0.001101	-0.003096	0.016179	2.547700	-79.958234	-104.005487
14627	NaN	9.645739	0.094070	1.704001	0.007119	-0.000901	0.018919	2.498873	-79.957409	-103.947573
14628	NaN	9.696971	0.078306	1.717065	0.009766	0.014674	0.023962	2.432579	-79.948538	-103.870449
14629	NaN	9.650193	0.113025	1.712415	0.016405	0.028724	0.029499	2.351059	-79.930988	-103.773924
14630	NaN	9.606844	0.111070	1.749306	0.014947	0.035033	0.032662	2.257465	-79.910624	-103.666050
14631	NaN	9.582734	0.111640	1.757972	0.013776	0.034561	0.037112	2.149964	-79.889845	-103.544652
14632	NaN	9.558061	0.082492	1.783356	0.006941	0.019587	0.030377	2.061727	-79.878212	-103.446866
14633	NaN	9.647731	0.071424	1.740479	0.009331	0.013584	0.032652	1.969057	-79.869284	-103.343109
14634	NaN	9.608791	0.062368	1.799095	0.008634	0.021437	0.040327	1.850152	-79.856723	-103.213177
14635	NaN	9.538631	0.099359	1.799225	0.011359	0.012968	0.044446	1.721390	-79.848286	-103.071568
14636	NaN	9.637642	0.103527	1.784283	0.006023	0.001083	0.046741	1.582867	-79.847385	-102.923218
14637	NaN	9.632677	0.075554	1.778915	0.009293	0.005248	0.054637	1.421332	-79.843399	-102.749511
14638	NaN	9.604907	0.080641	1.761568	0.009670	0.004938	0.056756	1.252712	-79.840279	-102.568461
14639	NaN	9.622573	0.018725	1.768732	0.007273	0.008782	0.054202	1.091460	-79.834088	-102.396211
14640	NaN	9.571123	0.028628	1.757404	0.011896	0.016192	0.036032	0.989956	-79.824140	-102.282046
14641	NaN	9.574974	0.019065	1.782336	0.003036	0.021106	0.029873	0.903693	-79.810540	-102.188441
14642	NaN	9.603174	0.035789	1.784530	0.000700	0.017249	0.027414	0.823620	-79.799850	-102.102559
14643	NaN	9.584323	0.060453	1.797319	0.003660	0.020953	0.022107	0.762859	-79.786230	-102.034496
14644	NaN	9.607517	0.054296	1.793894	0.002816	0.018021	0.028400	0.681187	-79.775068	-101.945751
14645	NaN	9.602163	0.028465	1.790089	0.000581	0.020637	0.026767	0.604254	-79.761627	-101.863041
14646	NaN	9.554767	0.033336	1.802502	0.001280	0.017862	0.030730	0.514710	-79.750524	-101.767183
14647	NaN	9.616643	0.092138	1.810489	0.002345	0.014778	0.036813	0.407544	-79.740440	-101.652716
14648	NaN	9.581952	0.015915	1.822990	0.001795	0.007224	0.044675	0.274771	-79.735414	-101.512622
14649	NaN	9.539844	0.042753	1.839790	-0.002985	0.005064	0.039383	0.156932	-79.730813	-101.390405
14650	NaN	9.559302	0.041905	1.811161	-0.005879	-0.009264	0.033424	0.055629	-79.735120	-101.286759
14651	NaN	9.597376	0.014451	1.770706	-0.012610	-0.013425	0.028066	-0.031858	-79.741030	-101.200992
14652	NaN	9.602679	0.034874	1.775161	-0.013136	-0.011883	0.025025	-0.110917	-79.746787	-101.124180
14653	NaN	9.601920	0.002440	1.791617	-0.015003	-0.009573	0.025511	-0.191824	-79.750452	-101.046495
14654	NaN	9.597965	0.006386	1.767563	-0.015366	-0.009264	0.023392	-0.267103	-79.754674	-100.974825
14655	NaN	9.603188	0.027090	1.772542	-0.011469	-0.005260	0.023523	-0.339716	-79.755838	-100.903513
14656	NaN	9.578843	-0.001333	1.794550	-0.015196	-0.010499	0.024313	-0.417945	-79.760730	-100.828747
14657	NaN	9.602605	-0.007703	1.787931	-0.021602	-0.017119	0.020798	-0.488093	-79.768668	-100.765841
14658	NaN	9.612109	-0.053551	1.746255	-0.016321	-0.021586	0.017493	-0.545806	-79.779917	-100.712580
14659	NaN	9.608308	0.011439	1.790439	-0.016780	-0.005868	0.015193	-0.595220	-79.781419	-100.667939
14660	NaN	9.627730	0.012495	1.761770	-0.009196	0.001217	0.014259	-0.637933	-79.779606	-100.625773
14661	NaN	9.599003	-0.008155	1.761908	-0.011884	0.009699	0.010143	-0.667919	-79.772212	-100.598022
14662	NaN	9.578470	-0.041658	1.808621	-0.008477	0.007544	0.007324	-0.687912	-79.766813	-100.578524
14663	NaN	9.603840	0.013128	1.769164	-0.010383	0.007698	0.007535	-0.708780	-79.760580	-100.559162
14664	NaN	9.622078	-0.014533	1.758969	-0.005561	0.009091	0.001743	-0.709308	-79.754332	-100.557746
14665	NaN	9.599386	0.018686	1.747846	-0.006856	0.012013	0.005549	-0.721653	-79.745641	-100.544991
14666	NaN	9.598163	-0.011680	1.766457	-0.009130	0.012480	0.003641	-0.730083	-79.737438	-100.537622
14667	NaN	9.644936	-0.020028	1.757238	-0.002960	0.016015	0.005683	-0.740415	-79.726455	-100.524644
14668	NaN	9.625206	-0.023493	1.787441	-0.000399	0.020783	0.009346	-0.761486	-79.713451	-100.499343
14669	NaN	9.602295	0.009331	1.777553	0.001428	0.026174	0.008771	-0.778542	-79.696625	-100.476973
14670	NaN	9.648793	0.000712	1.769885	0.001391	0.033877	0.008684	-0.795807	-79.676122	-100.454496
14671	NaN	9.615372	-0.012720	1.750052	0.009232	0.044036	0.009234	-0.808909	-79.649058	-100.431597
14672	NaN	9.665651	-0.027989	1.767258	0.003645	0.050968	0.010695	-0.830237	-79.618745	-100.403672
14673	NaN	9.641103	-0.024848	1.778090	0.012919	0.064671	0.008277	-0.837082	-79.579869	-100.384983
14674	NaN	9.592828	-0.017658	1.795154	0.019196	0.072512	0.010882	-0.848826	-79.537210	-100.357737
14675	NaN	9.609805	0.014787	1.859931	0.015243	0.074052	0.010375	-0.860176	-79.492942	-100.333106
14676	NaN	9.570660	-0.021680	1.837561	0.012950	0.072359	0.008185	-0.866884	-79.450392	-100.314614
14677	NaN	9.574495	0.000908	1.849945	0.011132	0.066966	0.008758	-0.875682	-79.410197	-100.294969
14678	NaN	9.600789	-0.010200	1.874259	0.013012	0.064650	0.008276	-0.882790	-79.372061	-100.276029
14679	NaN	9.590494	-0.027340	1.851608	0.017048	0.065256	0.009065	-0.889008	-79.332840	-100.255553
14680	NaN	9.590430	0.001677	1.840520	0.011750	0.067565	0.012075	-0.908025	-79.293000	-100.225226
14681	NaN	9.635066	-0.036783	1.854390	0.017384	0.070480	0.010819	-0.918845	-79.250769	-100.199865
14682	NaN	9.615253	-0.010577	1.872302	0.014092	0.076942	0.014174	-0.942027	-79.205534	-100.163923
14683	NaN	9.585048	-0.030821	1.879541	0.013798	0.087100	0.012236	-0.957965	-79.153767	-100.135435
14684	NaN	9.564947	-0.004720	1.898689	0.006196	0.087721	0.013041	-0.981253	-79.102363	-100.103980
14685	NaN	9.582967	-0.003238	1.878989	0.010297	0.090477	0.014115	-1.004126	-79.048639	-100.070462
14686	NaN	9.555799	0.030040	1.978775	0.006716	0.091706	0.015713	-1.034261	-78.994920	-100.031717
14687	NaN	9.565003	0.014097	1.929659	0.006809	0.075835	0.027909	-1.099795	-78.949428	-99.956759
14688	NaN	9.566075	-0.025335	1.977233	0.010912	0.068267	0.040813	-1.201433	-78.908829	-99.842694
14689	NaN	9.566116	0.000578	1.966014	0.009425	0.062569	0.043504	-1.310473	-78.870692	-99.721847
14690	NaN	9.581035	0.005425	1.920260	0.012606	0.054701	0.050969	-1.440031	-78.837638	-99.578307
14691	NaN	9.597825	0.033185	1.982864	0.021514	0.043730	0.069577	-1.617532	-78.809782	-99.380585
14692	NaN	9.712614	0.041117	1.921518	0.020622	0.038456	0.110684	-1.914741	-78.784789	-99.061428
14693	NaN	9.729236	-0.087778	1.864805	0.035078	0.063137	0.137832	-2.276681	-78.744014	-98.667696
14694	NaN	9.643291	0.021575	1.971320	0.034941	0.081253	0.158875	-2.694788	-78.692549	-98.216804
14695	NaN	9.547979	-0.043193	2.056479	0.023436	0.073122	0.170948	-3.150154	-78.643994	-97.734457
14696	NaN	9.590442	-0.121781	1.961816	0.013198	0.067611	0.178853	-3.631824	-78.598267	-97.231283
14697	NaN	9.559916	-0.157284	1.967904	0.020391	0.077380	0.174011	-4.088689	-78.545614	-96.749019
14698	NaN	9.552658	-0.196479	1.970093	0.014024	0.087403	0.169314	-4.530577	-78.487404	-96.285771
14699	NaN	9.494296	-0.159230	2.027233	0.011951	0.081561	0.156678	-4.934143	-78.431736	-95.862649
14700	NaN	9.517941	-0.147382	2.012312	0.003749	0.073646	0.131131	-5.270734	-78.382052	-95.512718
14701	NaN	9.558144	-0.252021	1.935955	0.003498	0.079477	0.128632	-5.594908	-78.328062	-95.175440
14702	NaN	9.537892	-0.176020	2.022596	0.008896	0.082634	0.125292	-5.904047	-78.272799	-94.850399
14703	NaN	9.506758	-0.145736	2.097693	0.002167	0.078549	0.119862	-6.199275	-78.219138	-94.543332
14704	NaN	9.605083	-0.272757	1.955198	0.001807	0.076695	0.117466	-6.487222	-78.167072	-94.243964
14705	NaN	9.626608	-0.288894	1.958744	0.021818	0.093781	0.130077	-6.788545	-78.103430	-93.919038
14706	NaN	9.462697	-0.214997	2.092337	0.018414	0.099817	0.120188	-7.061128	-78.037405	-93.625513
14707	NaN	9.393338	-0.218132	2.137695	0.016896	0.072635	0.102501	-7.292386	-77.987134	-93.374949
14708	NaN	9.473775	-0.254756	2.072836	0.015601	0.051914	0.085634	-7.486002	-77.950385	-93.163701
14709	NaN	9.403053	-0.283910	2.131446	0.023102	0.030921	0.063601	-7.621902	-77.926392	-93.006941
14710	NaN	9.431609	-0.269645	2.134642	0.021887	0.011606	0.035927	-7.692750	-77.916121	-92.917521
14711	NaN	9.407889	-0.206668	2.207540	0.018774	-0.013538	0.020827	-7.733065	-77.920565	-92.861035
14712	NaN	9.414253	-0.184728	2.210027	0.016193	-0.055916	0.011124	-7.765730	-77.950514	-92.814001
14713	NaN	9.483237	-0.131987	2.233758	-0.003239	-0.102500	0.005584	-7.810746	-78.006619	-92.765613
14714	NaN	9.591365	-0.105814	2.214755	-0.039244	-0.146088	0.016122	-7.922706	-78.087334	-92.670013
14715	NaN	9.744662	-0.139449	1.965080	-0.068200	-0.156744	0.029285	-8.091107	-78.172278	-92.533600
14716	NaN	10.013416	-0.203794	1.819910	-0.081600	-0.107391	0.057767	-8.328787	-78.227521	-92.334412
14717	NaN	9.979713	-0.254206	1.805565	-0.074040	-0.041471	0.093231	-8.632325	-78.241516	-92.063429
14718	NaN	9.795853	-0.332265	1.836866	-0.060566	0.000672	0.120689	-8.986858	-78.229624	-91.732596
14719	NaN	9.725527	-0.271584	1.919344	-0.055548	-0.003328	0.138418	-9.386223	-78.217245	-91.352891
14720	NaN	9.727768	-0.353553	1.874393	-0.045530	0.013976	0.148645	-9.800043	-78.194245	-90.952655
14721	NaN	9.422397	0.049816	1.965312	-0.025046	0.062690	0.136862	-10.143874	-78.143714	-90.611755
14722	NaN	8.731640	1.393309	2.234521	-0.031765	0.169439	0.083484	-10.295557	-78.038785	-90.471195
14723	NaN	8.699211	0.927795	2.065566	0.033627	0.116706	-0.079647	-9.999558	-77.979434	-90.749796
14724	NaN	9.529990	1.411491	2.352595	0.045794	0.162950	-0.173413	-9.433159	-77.903268	-91.298001
14725	NaN	10.255948	0.604408	2.540696	0.015906	0.132279	-0.140893	-8.986801	-77.839788	-91.740876
14726	NaN	9.549878	0.567518	2.508023	0.008615	0.103033	-0.055165	-8.787186	-77.785425	-91.935897
14727	NaN	8.995128	0.392713	2.335329	0.022743	0.066324	-0.046911	-8.614941	-77.750318	-92.094427
14728	NaN	9.409253	-0.735364	2.111965	0.030328	0.028673	-0.042634	-8.467318	-77.736774	-92.223564
14729	NaN	9.545172	-1.581372	1.852370	0.061356	-0.006010	0.019429	-8.475014	-77.736916	-92.175325
14730	NaN	9.437043	-2.439264	1.647249	0.112739	-0.067188	0.090616	-8.665509	-77.766319	-91.910147
14731	NaN	9.985279	-3.076917	1.337605	0.157871	-0.091280	0.118900	-8.913280	-77.805983	-91.559759
14732	NaN	9.675165	-2.516058	1.643298	0.177852	-0.009133	0.120318	-9.122279	-77.799427	-91.237532
14733	NaN	8.589037	0.097579	2.738067	0.061094	0.085393	-0.008232	-9.021122	-77.750263	-91.300967
14734	NaN	9.061087	-0.398122	2.306014	0.048007	-0.000091	-0.117060	-8.680450	-77.759712	-91.617277
14735	NaN	9.878312	-0.366071	1.917765	0.067403	-0.025365	-0.091163	-8.404441	-77.780209	-91.855922
14736	NaN	9.472381	-0.401215	2.087324	0.072933	-0.016400	-0.071790	-8.173040	-77.794507	-92.045779
14737	NaN	9.381613	-0.222084	2.221836	0.072447	-0.033471	-0.083816	-7.914925	-77.818580	-92.263132
14738	NaN	9.608423	-0.118929	2.237589	0.078760	-0.069541	-0.064793	-7.716459	-77.862166	-92.415845
14739	NaN	9.720438	-0.087445	2.119733	0.053206	-0.083204	-0.030381	-7.626256	-77.910087	-92.472671
14740	NaN	9.759940	-0.232809	1.938930	0.038251	-0.059239	-0.007422	-7.597845	-77.943353	-92.475169
14741	NaN	9.816455	-0.285025	1.887913	0.041326	-0.000105	-0.008952	-7.541367	-77.942444	-92.504453
14742	NaN	9.666725	-0.246653	1.998868	0.036452	0.065616	-0.012289	-7.457121	-77.905148	-92.565104
14743	NaN	9.554176	-0.233868	2.075627	0.027714	0.082957	-0.020340	-7.349915	-77.857878	-92.654255
14744	NaN	9.526647	-0.256148	2.105557	0.025445	0.074532	-0.021214	-7.246474	-77.816120	-92.741012
14745	NaN	9.443349	-0.284958	2.114864	0.026205	0.066780	-0.038715	-7.098677	-77.779287	-92.872607
14746	NaN	9.364379	-0.353722	2.187616	0.018248	0.054357	-0.072550	-6.872758	-77.752480	-93.088931
14747	NaN	9.406499	-0.251372	2.185906	0.016003	0.029882	-0.094104	-6.598983	-77.740148	-93.355451
14748	NaN	9.407876	-0.029313	2.372006	0.007824	-0.019165	-0.089737	-6.357283	-77.755904	-93.594050
14749	NaN	9.366121	-0.141132	2.263509	-0.013223	-0.093047	-0.077564	-6.178898	-77.812078	-93.780063
14750	NaN	9.534808	-0.101386	2.162653	-0.019904	-0.122132	-0.067501	-6.038622	-77.884813	-93.931074
14751	NaN	9.468288	-0.118194	2.204226	-0.040554	-0.156103	-0.059079	-5.939211	-77.975614	-94.052238
14752	NaN	9.679499	-0.174014	2.015006	-0.042009	-0.167743	-0.043948	-5.884159	-78.072843	-94.128977
14753	NaN	9.738711	-0.224751	1.952052	-0.026590	-0.133178	-0.026614	-5.855491	-78.148622	-94.169590
14754	NaN	9.696090	-0.184014	1.932356	-0.034240	-0.096804	-0.030142	-5.812219	-78.204591	-94.229702
14755	NaN	9.653988	-0.178836	1.957629	-0.026374	-0.055407	-0.034364	-5.739770	-78.236477	-94.314896
14756	NaN	9.571159	-0.177446	2.041897	-0.031205	-0.036726	-0.030486	-5.676403	-78.258187	-94.393741
14757	NaN	9.568503	-0.168306	2.015096	-0.024752	-0.035296	-0.038545	-5.585364	-78.278800	-94.496959
14758	NaN	9.625224	-0.157676	2.031491	-0.023473	-0.026379	-0.032037	-5.509977	-78.294650	-94.583545
14759	NaN	9.607812	-0.127927	2.039118	-0.019759	-0.028096	-0.021600	-5.460290	-78.310177	-94.641599
14760	NaN	9.640837	-0.175744	1.993018	-0.012928	-0.017689	-0.005508	-5.449401	-78.319597	-94.656144
14761	NaN	9.646576	-0.152374	1.997523	-0.012577	-0.003542	-0.004841	-5.435233	-78.320201	-94.673722
14762	NaN	9.619496	-0.142033	1.979298	-0.001403	0.010505	0.013530	-5.462824	-78.312504	-94.642229
14763	NaN	9.575672	-0.202024	1.945232	-0.002654	0.013451	0.017306	-5.499524	-78.302210	-94.602054
14764	NaN	9.558737	-0.151235	2.066000	0.003968	0.016605	0.021521	-5.544312	-78.290585	-94.549855
14765	NaN	9.552901	-0.176267	2.061724	0.005636	0.009967	0.020533	-5.585928	-78.282089	-94.499805
14766	NaN	9.536764	-0.181977	1.987142	0.003643	0.007993	0.020456	-5.630136	-78.275418	-94.448384
14767	NaN	9.545541	-0.166948	2.016887	0.004923	0.010581	0.016283	-5.660199	-78.266798	-94.410549
14768	NaN	9.568844	-0.172824	2.013095	0.002569	0.008916	0.014081	-5.687170	-78.259950	-94.377359
14769	NaN	9.595539	-0.185012	2.032889	0.004596	0.016424	0.013761	-5.708807	-78.248136	-94.348317
14770	NaN	9.560470	-0.227876	2.028543	0.000390	0.026010	0.010951	-5.723679	-78.231716	-94.328758
14771	NaN	9.582073	-0.197233	1.985489	0.003670	0.030570	0.006856	-5.722994	-78.212230	-94.323058
14772	NaN	9.584738	-0.204042	2.012429	0.005241	0.045150	0.003084	-5.708325	-78.185347	-94.330836
14773	NaN	9.589299	-0.180798	2.022663	0.008256	0.052169	-0.002869	-5.672716	-78.154103	-94.358133
14774	NaN	9.579197	-0.196891	1.999353	0.009893	0.063364	-0.005977	-5.626088	-78.117345	-94.395846
14775	NaN	9.517461	-0.201832	2.089531	0.007947	0.066922	-0.006455	-5.577439	-78.077883	-94.436656
14776	NaN	9.512756	-0.194113	2.072397	0.009976	0.062562	-0.017056	-5.501670	-78.042180	-94.504116
14777	NaN	9.525946	-0.152594	2.112536	0.008395	0.056897	-0.014346	-5.434809	-78.008846	-94.563293
14778	NaN	9.515899	-0.167823	2.089101	0.004582	0.057253	-0.013976	-5.372516	-77.975972	-94.620151
14779	NaN	9.471072	-0.163841	2.126593	0.008561	0.046748	-0.012350	-5.314087	-77.948293	-94.670623
14780	NaN	9.504837	-0.121020	2.136731	0.003192	0.029149	-0.007545	-5.277259	-77.931090	-94.702268
14781	NaN	9.571638	-0.127735	2.102029	-0.003530	0.021261	-0.000300	-5.264474	-77.917303	-94.713152
14782	NaN	9.542096	-0.146755	2.103246	-0.004212	0.024823	0.006793	-5.271259	-77.901811	-94.704537
14783	NaN	9.468771	-0.163771	2.136819	-0.005462	0.018855	0.011627	-5.291906	-77.888767	-94.682361
14784	NaN	9.465241	-0.158687	2.114368	-0.013548	-0.000099	0.012093	-5.324218	-77.887211	-94.653108
14785	NaN	9.535969	-0.173608	2.100223	-0.011764	-0.007964	0.012043	-5.356164	-77.889438	-94.623067
14786	NaN	9.541579	-0.151779	2.105235	-0.010027	-0.003533	0.010266	-5.382455	-77.889931	-94.597908
14787	NaN	9.530676	-0.199163	2.093447	-0.016379	-0.009141	0.007889	-5.406312	-77.893048	-94.578845
14788	NaN	9.532972	-0.170484	2.075196	-0.015038	-0.001021	0.003323	-5.416389	-77.892480	-94.573206
14789	NaN	9.532984	-0.171044	2.075095	-0.017301	-0.000534	0.001380	-5.421305	-77.891038	-94.574055
14790	NaN	9.536294	-0.178020	2.098376	-0.017080	0.000388	0.002576	-5.430209	-77.889706	-94.570812
14791	NaN	9.519368	-0.187002	2.149540	-0.015035	-0.001022	0.003323	-5.439113	-77.888438	-94.566254
14792	NaN	9.524214	-0.189065	2.045807	-0.014705	-0.004271	-0.005898	-5.425306	-77.890224	-94.584848
14793	NaN	9.512863	-0.173620	2.102408	-0.014243	0.000164	-0.015248	-5.384095	-77.889282	-94.631081
14794	NaN	9.507356	-0.195692	2.096881	-0.013802	0.002007	-0.012854	-5.349702	-77.887854	-94.670200
14795	NaN	9.536431	-0.175850	2.097937	-0.012899	-0.000628	-0.018754	-5.298615	-77.887536	-94.725749
14796	NaN	9.559994	-0.178820	2.093430	-0.014853	0.002932	-0.019232	-5.247660	-77.885903	-94.782423
14797	NaN	9.538617	-0.143171	2.080465	-0.011114	0.000423	-0.019866	-5.192353	-77.885023	-94.841242
14798	NaN	9.543108	-0.183862	2.144779	-0.013594	-0.000012	-0.023006	-5.131375	-77.885241	-94.907431
14799	NaN	9.512951	-0.164377	2.102757	-0.014293	0.000606	-0.027257	-5.058204	-77.884605	-94.986384
14800	NaN	9.534338	-0.195798	2.116116	-0.011345	0.005479	-0.033465	-4.966856	-77.882177	-95.082315
14801	NaN	9.536394	-0.163198	2.099125	-0.015560	0.009524	-0.035885	-4.869487	-77.876822	-95.186763
14802	NaN	9.541763	-0.136902	2.105421	-0.011902	0.004865	-0.036788	-4.769864	-77.874837	-95.291488
14803	NaN	9.516065	-0.158990	2.127905	-0.013278	0.000120	-0.032890	-4.681338	-77.874637	-95.385556
14804	NaN	9.559945	-0.158593	2.095281	-0.011097	-0.002519	-0.031216	-4.597690	-77.876541	-95.473471
14805	NaN	9.536481	-0.151292	2.099624	-0.009530	-0.002387	-0.033524	-4.505846	-77.877741	-95.568735
14806	NaN	9.513013	-0.144008	2.103969	-0.011088	-0.002521	-0.031216	-4.422144	-77.879589	-95.656698
14807	NaN	9.513121	-0.141091	2.103676	-0.009737	-0.003310	-0.034722	-4.327380	-77.881307	-95.755070
14808	NaN	9.511247	-0.167756	2.120607	-0.017361	-0.011525	-0.032940	-4.244407	-77.888316	-95.845962
14809	NaN	9.553988	-0.130984	2.046416	-0.016026	-0.003398	-0.037495	-4.145787	-77.890135	-95.951961
14810	NaN	9.520372	-0.144783	2.148352	-0.010368	-0.006074	-0.038314	-4.043287	-77.894185	-96.058722
14811	NaN	9.515995	-0.099039	2.083063	-0.009644	-0.015609	-0.033015	-3.955119	-77.902729	-96.150289
14812	NaN	9.570261	-0.118008	2.118725	-0.012926	-0.020184	-0.028936	-3.881482	-77.914409	-96.229026
14813	NaN	9.538354	-0.128054	2.092651	-0.009939	-0.015753	-0.023132	-3.819643	-77.922605	-96.293832
14814	NaN	9.540711	-0.096748	2.073530	-0.012847	-0.015104	-0.017316	-3.775886	-77.930904	-96.341962
14815	NaN	9.569951	-0.076640	2.073293	-0.008515	-0.011456	-0.015018	-3.734030	-77.936318	-96.385495
14816	NaN	9.519086	-0.125956	2.116575	-0.014540	-0.014011	-0.015934	-3.694641	-77.943926	-96.430148
14817	NaN	9.536238	-0.115828	2.063928	-0.021607	-0.015638	-0.023224	-3.638931	-77.952018	-96.495515
14818	NaN	9.568899	-0.101746	2.086797	-0.013532	-0.014487	-0.021567	-3.583824	-77.960085	-96.555647
14819	NaN	9.543583	-0.125123	2.108091	-0.013912	-0.005261	-0.024734	-3.517781	-77.962270	-96.627068
14820	NaN	9.584093	-0.118720	2.051726	-0.015819	-0.005090	-0.024550	-3.454327	-77.965039	-96.697072
14821	NaN	9.545747	-0.091446	2.089768	-0.013672	0.001193	-0.023921	-3.389255	-77.963473	-96.767361
14822	NaN	9.545746	-0.089546	2.089855	-0.013321	0.000883	-0.021796	-3.330788	-77.962701	-96.830801
14823	NaN	9.545759	-0.087787	2.089869	-0.013183	-0.000349	-0.020869	-3.273885	-77.961886	-96.892451
14824	NaN	9.540452	-0.109206	2.084135	-0.013181	-0.000349	-0.020869	-3.218027	-77.961762	-96.953143
14825	NaN	9.520271	-0.109849	2.112137	-0.010632	0.002242	-0.017459	-3.168438	-77.959332	-97.005821
14826	NaN	9.551139	-0.060028	2.095496	-0.014334	-0.004182	-0.015780	-3.127466	-77.961219	-97.051967
14827	NaN	9.564209	-0.109372	2.078909	-0.008331	-0.007156	-0.014481	-3.085922	-77.964056	-97.095069
14828	NaN	9.564312	-0.108073	2.078502	-0.010570	-0.001141	-0.016804	-3.039581	-77.964221	-97.144500
14829	NaN	9.537387	-0.095855	2.059639	-0.008734	-0.003463	-0.017260	-2.990263	-77.965016	-97.195788
14830	NaN	9.524084	-0.109432	2.133939	-0.011607	-0.000211	-0.023178	-2.927274	-77.964818	-97.262848
14831	NaN	9.517280	-0.094287	2.087423	-0.012087	0.001329	-0.026229	-2.855155	-77.963106	-97.339414
14832	NaN	9.569712	-0.077252	2.084119	-0.010580	0.004852	-0.029193	-2.774790	-77.960145	-97.423641
14833	NaN	9.540788	-0.093633	2.083357	-0.012426	0.001638	-0.028354	-2.697177	-77.958272	-97.506024
14834	NaN	9.569641	-0.072533	2.084613	-0.007490	0.002520	-0.022077	-2.634490	-77.956410	-97.570366
14835	NaN	9.519013	-0.055613	2.070846	-0.013428	0.002105	-0.022721	-2.572554	-77.954084	-97.637308
14836	NaN	9.535373	-0.110455	2.078564	-0.010420	0.009154	-0.028646	-2.493193	-77.948560	-97.720417
14837	NaN	9.525540	-0.063727	2.118908	-0.007213	0.011590	-0.032993	-2.399169	-77.941019	-97.816533
14838	NaN	9.525386	-0.060798	2.119685	-0.007084	0.004823	-0.031687	-2.310390	-77.937992	-97.907321
14839	NaN	9.550758	-0.032569	2.097840	-0.008718	0.002528	-0.029650	-2.227316	-77.935500	-97.993125
14840	NaN	9.574298	-0.034422	2.093495	-0.007608	0.003748	-0.023003	-2.162287	-77.932845	-98.059936
14841	NaN	9.543553	-0.080779	2.110393	-0.008430	0.005599	-0.028178	-2.082751	-77.928518	-98.141954
14842	NaN	9.533161	-0.058810	2.041299	-0.009848	0.009758	-0.025322	-2.012304	-77.922434	-98.215621
14843	NaN	9.548490	-0.053006	2.117595	-0.004052	0.005876	-0.025223	-1.938267	-77.917848	-98.289453
14844	NaN	9.544951	-0.044356	2.094925	-0.007318	0.006817	-0.021531	-1.876903	-77.913337	-98.352351
14845	NaN	9.515986	-0.061425	2.094535	-0.009361	0.008214	-0.022272	-1.813706	-77.907323	-98.418212
14846	NaN	9.564812	-0.037765	2.068608	-0.008613	0.010209	-0.029756	-1.730934	-77.900984	-98.503765
14847	NaN	9.519016	-0.062957	2.119696	-0.006835	0.011274	-0.030865	-1.643248	-77.893325	-98.593195
14848	NaN	9.503787	-0.039339	2.154435	-0.009082	0.011748	-0.032806	-1.552681	-77.886099	-98.687001
14849	NaN	9.505417	-0.006587	2.137565	-0.007656	0.002056	-0.035285	-1.454525	-77.883725	-98.787624
14850	NaN	9.564185	-0.026014	2.071686	-0.011058	0.004225	-0.032518	-1.366521	-77.880740	-98.879969
14851	NaN	9.543937	-0.025587	2.099853	-0.006963	0.001434	-0.031035	-1.279416	-77.878599	-98.968886
14852	NaN	9.547347	-0.029515	2.123200	-0.010302	0.000219	-0.027618	-1.204351	-77.877791	-99.047554
14853	NaN	9.543914	-0.020381	2.100014	-0.008865	0.001596	-0.030851	-1.118868	-77.875503	-99.135927
14854	NaN	9.564029	-0.015378	2.072511	-0.010089	0.006672	-0.026794	-1.045595	-77.870942	-99.212640
14855	NaN	9.552220	0.000907	2.130250	-0.009268	0.010355	-0.021996	-0.983623	-77.863501	-99.277204
14856	NaN	9.534958	-0.030471	2.072848	-0.009130	0.003589	-0.020695	-0.926301	-77.860613	-99.337042
14857	NaN	9.551950	0.004730	2.131458	-0.011785	0.007754	-0.025411	-0.856911	-77.854665	-99.410672
14858	NaN	9.514450	-0.028760	2.102201	-0.007827	0.011732	-0.025228	-0.786555	-77.847119	-99.483081
14859	NaN	9.519381	-0.003436	2.108840	-0.011642	0.006521	-0.024486	-0.719732	-77.841832	-99.554005
14860	NaN	9.578447	0.000484	2.152548	-0.007278	0.006808	-0.021529	-0.659204	-77.837048	-99.616042
14861	NaN	9.542743	-0.003872	2.105425	-0.008372	0.005117	-0.016171	-0.612752	-77.832481	-99.664213
14862	NaN	9.542624	-0.002589	2.105964	-0.010077	0.006199	-0.014788	-0.571838	-77.827983	-99.707828
14863	NaN	9.517190	-0.026692	2.128646	-0.009384	0.006048	-0.022545	-0.509089	-77.822902	-99.773266
14864	NaN	9.533871	-0.015483	2.078009	-0.012034	0.004677	-0.026886	-0.437288	-77.819314	-99.849628
14865	NaN	9.515207	0.014521	2.088958	-0.009699	0.006828	-0.036676	-0.337323	-77.813805	-99.953327
14866	NaN	9.494853	0.015071	2.117457	-0.009019	0.006206	-0.032427	-0.249190	-77.809306	-100.044632
14867	NaN	9.503343	0.034607	2.146500	-0.011316	-0.006544	-0.033898	-0.157777	-77.811384	-100.140532
14868	NaN	9.522206	0.010246	2.134768	-0.010890	-0.021306	-0.030381	-0.076318	-77.822587	-100.226104
14869	NaN	9.563024	0.017978	2.077121	-0.010619	-0.018235	-0.028904	0.002372	-77.831301	-100.308574
14870	NaN	9.576906	0.060226	2.110383	-0.010350	-0.015163	-0.027428	0.076550	-77.838936	-100.386377
14871	NaN	9.553517	0.066133	2.113832	-0.012624	-0.009634	-0.017733	0.124544	-77.842694	-100.438616
14872	NaN	9.592477	0.042945	2.074667	-0.008404	-0.008110	-0.015701	0.168722	-77.846274	-100.484587
14873	NaN	9.523587	0.019424	2.128536	-0.014826	-0.007489	-0.007391	0.187979	-77.848808	-100.508720
14874	NaN	9.540537	0.029315	2.076376	-0.009962	-0.013797	-0.013022	0.224236	-77.855642	-100.547500
14875	NaN	9.544242	0.023548	2.098493	-0.009160	-0.010115	-0.008220	0.249009	-77.859675	-100.573952
14876	NaN	9.544449	0.024083	2.097545	-0.012976	-0.009800	-0.007851	0.269777	-77.864225	-100.598654
14877	NaN	9.573307	0.043710	2.097852	-0.008758	-0.008275	-0.005819	0.288389	-77.867207	-100.618569
14878	NaN	9.529660	0.045346	2.129664	-0.010466	-0.007197	-0.004434	0.301477	-77.870272	-100.633944
14879	NaN	9.548415	0.018187	2.118522	-0.007682	-0.007056	0.000831	0.302981	-77.872574	-100.635728
14880	NaN	9.501342	0.025870	2.126929	-0.013731	-0.011807	-0.000371	0.303438	-77.878293	-100.640097
14881	NaN	9.530254	0.044792	2.127011	-0.011621	-0.011045	0.000645	0.303235	-77.882880	-100.642445
14882	NaN	9.545675	0.024336	2.091956	-0.009003	-0.016881	-0.006929	0.323994	-77.891485	-100.664807
14883	NaN	9.527425	0.051564	2.100841	-0.009696	-0.016738	0.000829	0.324504	-77.899334	-100.666755
14884	NaN	9.554884	0.040632	2.117880	-0.011403	-0.015661	0.002215	0.319461	-77.907269	-100.664134
14885	NaN	9.570283	0.019530	2.082836	-0.010940	-0.011670	0.004894	0.308309	-77.912228	-100.654883
14886	NaN	9.513157	-0.019388	2.079544	-0.011554	-0.008894	0.000925	0.306523	-77.916281	-100.655681
14887	NaN	9.503268	0.024415	2.118322	-0.009093	-0.007961	-0.007942	0.330721	-77.919076	-100.681500
14888	NaN	9.528668	0.050622	2.095218	-0.012552	-0.013494	-0.005080	0.344525	-77.925745	-100.698826
14889	NaN	9.498756	0.002381	2.110126	-0.016413	-0.014848	-0.016992	0.388932	-77.932447	-100.749599
14890	NaN	9.553012	0.048717	2.087236	-0.012560	-0.026234	-0.016633	0.434022	-77.946363	-100.798920
14891	NaN	9.553527	0.049781	2.084853	-0.011618	-0.023788	-0.010906	0.465169	-77.958200	-100.833320
14892	NaN	9.554004	0.050623	2.082645	-0.011754	-0.022557	-0.011828	0.497908	-77.970019	-100.869537
14893	NaN	9.554481	0.051466	2.080437	-0.011611	-0.023789	-0.010906	0.529193	-77.981850	-100.904071
14894	NaN	9.526343	0.032858	2.076906	-0.010988	-0.026567	-0.006938	0.549436	-77.995985	-100.927059
14895	NaN	9.554069	0.022682	2.092828	-0.010845	-0.027800	-0.006016	0.568206	-78.010137	-100.948346
14896	NaN	9.576187	0.055483	2.044978	-0.008676	-0.024886	-0.004723	0.583845	-78.023319	-100.965272
14897	NaN	9.603778	0.044731	2.061519	-0.011032	-0.015985	0.004341	0.574272	-78.030761	-100.957693
14898	NaN	9.548217	0.035478	2.040674	-0.005134	-0.009998	0.004615	0.566316	-78.035467	-100.948424
14899	NaN	9.546898	0.005301	2.057302	-0.009710	-0.005675	0.000102	0.568673	-78.036980	-100.952266
14900	NaN	9.555539	0.021729	2.086116	-0.010074	0.000175	-0.002384	0.576534	-78.035818	-100.962058
14901	NaN	9.511920	0.023094	2.118479	-0.008543	-0.007357	-0.004612	0.592350	-78.038268	-100.978976
14902	NaN	9.557268	0.052102	2.067576	-0.009141	-0.010115	-0.008217	0.616816	-78.042964	-101.005195
14903	NaN	9.557468	0.052546	2.066643	-0.008600	-0.009509	-0.004892	0.633439	-78.046643	-101.022971
14904	NaN	9.559093	0.082422	2.048553	-0.007801	-0.005832	-0.000086	0.636567	-78.048935	-101.026594
14905	NaN	9.547689	0.006236	2.053626	-0.012154	-0.006126	-0.003034	0.646042	-78.050688	-101.039141
14906	NaN	9.530629	0.063153	2.046563	-0.004012	-0.000607	-0.000824	0.653183	-78.049981	-101.044648
14907	NaN	9.581402	0.048532	2.060453	-0.009615	0.004164	0.000301	0.654766	-78.045862	-101.047642
14908	NaN	9.557680	0.052051	2.065672	-0.006968	0.005532	0.004639	0.645241	-78.041673	-101.037843
14909	NaN	9.537525	0.048690	2.094084	-0.010839	0.003692	0.004736	0.634150	-78.037855	-101.028599
14910	NaN	9.537450	0.048011	2.094441	-0.010838	0.003692	0.004736	0.622214	-78.034720	-101.018602
14911	NaN	9.500115	0.011779	2.064648	-0.009413	0.005083	0.001503	0.620650	-78.030084	-101.018260
14912	NaN	9.537251	0.047287	2.095361	-0.007848	0.005242	-0.000808	0.625370	-78.026026	-101.023537
14913	NaN	9.508537	0.028150	2.094499	-0.008505	0.000333	-0.004694	0.641203	-78.024072	-101.040450
14914	NaN	9.525058	0.037939	2.043269	-0.008903	-0.001504	-0.007098	0.662503	-78.023838	-101.063296
14915	NaN	9.533717	0.055195	2.072007	-0.009900	-0.006098	-0.013108	0.700459	-78.025509	-101.103638
14916	NaN	9.508750	0.030360	2.093502	-0.007993	-0.006253	-0.013296	0.739191	-78.027945	-101.143770
14917	NaN	9.556111	0.023796	2.083472	-0.006568	-0.004861	-0.016529	0.788277	-78.028870	-101.193539
14918	NaN	9.549005	0.038365	2.036930	-0.007760	0.002353	-0.012172	0.823797	-78.026372	-101.230250
14919	NaN	9.505313	0.040660	2.069649	-0.010319	-0.002399	-0.015871	0.868852	-78.025879	-101.278094
14920	NaN	9.551163	0.004634	2.077245	-0.013442	-0.002219	-0.023253	0.931218	-78.025888	-101.345577
14921	NaN	9.556159	0.029808	2.083178	-0.009656	0.003008	-0.023987	0.998308	-78.022199	-101.415563
14922	NaN	9.505254	0.046555	2.069797	-0.010333	0.003637	-0.028233	1.075585	-78.018769	-101.496469
14923	NaN	9.557450	0.064515	2.066386	-0.008678	0.000412	-0.029906	1.159257	-78.016463	-101.582833
14924	NaN	9.503783	0.022272	2.087250	-0.011852	-0.001562	-0.037569	1.261078	-78.015846	-101.689721
14925	NaN	9.498896	0.003293	2.080904	-0.012874	-0.007806	-0.055868	1.412876	-78.017833	-101.848189
14926	NaN	9.513968	0.078267	2.097732	-0.012419	-0.011007	-0.065112	1.589402	-78.022100	-102.031775
14927	NaN	9.480709	0.042376	2.089210	-0.012795	-0.020035	-0.079447	1.806074	-78.030482	-102.256510
14928	NaN	9.553352	0.068428	2.055619	-0.014029	-0.022168	-0.087300	2.043033	-78.040431	-102.502804
14929	NaN	9.552329	0.046812	2.071356	-0.006598	-0.010470	-0.089687	2.290556	-78.042734	-102.755432
14930	NaN	9.582317	0.104867	2.054098	0.002238	-0.012749	-0.095161	2.557601	-78.046655	-103.022944
14931	NaN	9.573891	0.097264	2.024190	-0.004817	-0.003866	-0.091150	2.809432	-78.044669	-103.278935
14932	NaN	9.667671	0.180211	2.057193	-0.000764	0.013782	-0.078184	3.025271	-78.033426	-103.495869
14933	NaN	9.524134	0.179493	2.104471	-0.000587	0.014198	-0.064977	3.205797	-78.021523	-103.676499
14934	NaN	9.542618	0.158431	2.094914	-0.005378	0.009391	-0.058607	3.366168	-78.013147	-103.839449
14935	NaN	9.543539	0.193484	2.078319	-0.002357	0.004919	-0.051791	3.511095	-78.006792	-103.984745
14936	NaN	9.542185	0.168048	2.096135	-0.004778	0.006109	-0.042640	3.629009	-78.000694	-104.103946
14937	NaN	9.562145	0.174574	2.068150	-0.009236	-0.006701	-0.034077	3.724123	-78.001508	-104.202357
14938	NaN	9.557262	0.154284	2.062498	-0.004682	0.012066	-0.029787	3.806308	-77.992404	-104.284978
14939	NaN	9.556971	0.156908	2.063651	-0.006251	0.011897	-0.027475	3.881946	-77.982782	-104.361714
14940	NaN	9.561395	0.182299	2.070951	-0.007210	0.016640	-0.021272	3.938745	-77.971352	-104.419866
14941	NaN	9.517307	0.184563	2.105318	-0.010498	0.017535	-0.017570	3.984111	-77.958869	-104.468155
14942	NaN	9.493333	0.189654	2.111319	-0.006528	0.008325	-0.016957	4.031106	-77.952344	-104.515887
14943	NaN	9.516924	0.187276	2.106811	-0.005749	-0.003373	-0.012005	4.068120	-77.952019	-104.552862
14944	NaN	9.508675	0.171642	2.076995	-0.007309	-0.011231	-0.009625	4.098725	-77.956956	-104.584293
14945	NaN	9.527866	0.145331	2.065062	-0.008448	-0.015098	-0.004555	4.116515	-77.963629	-104.603181
14946	NaN	9.512968	0.165603	2.097188	-0.006006	-0.022324	-0.001349	4.127873	-77.975242	-104.614168
14947	NaN	9.557154	0.164772	2.062188	-0.005049	-0.025415	0.004735	4.124715	-77.988193	-104.609645
14948	NaN	9.529251	0.144620	2.058711	-0.005003	-0.023264	0.005018	4.119742	-78.000605	-104.603347
14949	NaN	9.539232	0.190411	2.068382	-0.006907	-0.023121	0.005208	4.113782	-78.012266	-104.597048
14950	NaN	9.543393	0.182959	2.089375	-0.008477	-0.023291	0.007520	4.100059	-78.024796	-104.583842
14951	NaN	9.515522	0.162263	2.085833	-0.007703	-0.027303	0.012400	4.075026	-78.039141	-104.558500
14952	NaN	9.515111	0.131437	2.100118	-0.005062	-0.035260	0.004517	4.073602	-78.058387	-104.555866
14953	NaN	9.497009	0.157533	2.107304	-0.016428	-0.039937	0.006012	4.063171	-78.079691	-104.550578
14954	NaN	9.469643	0.137251	2.101477	-0.011082	-0.059742	0.002882	4.067423	-78.112863	-104.557270
14955	NaN	9.523134	0.152501	2.091401	-0.012403	-0.074378	0.006531	4.064506	-78.153869	-104.557309
14956	NaN	9.526827	0.211315	2.049671	-0.010032	-0.078226	0.009095	4.056012	-78.197857	-104.550362
14957	NaN	9.494279	0.137586	2.052117	-0.009981	-0.085923	0.009161	4.049482	-78.245568	-104.545282
14958	NaN	9.544389	0.158966	2.016778	-0.013313	-0.089343	0.012304	4.032310	-78.296038	-104.531395
14959	NaN	9.534996	0.170614	2.065288	-0.018204	-0.092933	0.017764	3.998441	-78.348101	-104.503227
14960	NaN	9.537054	0.168669	2.055926	-0.014554	-0.103995	0.015948	3.972901	-78.407089	-104.481528
14961	NaN	9.573934	0.149641	1.984029	-0.021899	-0.100355	0.018222	3.936526	-78.463403	-104.452957
14962	NaN	9.628929	0.193317	1.953462	-0.016031	-0.094336	0.018485	3.900610	-78.516964	-104.421540
14963	NaN	9.582518	0.168103	1.972168	-0.024290	-0.083799	0.027265	3.833526	-78.564158	-104.363042
14964	NaN	9.579314	0.142002	1.958454	-0.028875	-0.079496	0.022791	3.774465	-78.609386	-104.315532
14965	NaN	9.633850	0.184818	1.929880	-0.026099	-0.071665	0.027975	3.701084	-78.649644	-104.251697
14966	NaN	9.586078	0.128967	1.968084	-0.029693	-0.060610	0.029806	3.617185	-78.684305	-104.179346
14967	NaN	9.558836	0.106051	1.961418	-0.031769	-0.061388	0.028805	3.535370	-78.718684	-104.110234
14968	NaN	9.536484	0.106559	1.960641	-0.028486	-0.062284	0.025078	3.465103	-78.754097	-104.051097
14969	NaN	9.576993	0.109894	1.898206	-0.026758	-0.063352	0.023672	3.400410	-78.789389	-103.996524
14970	NaN	9.605712	0.097274	1.910431	-0.024971	-0.057430	0.011124	3.370930	-78.821531	-103.976925
14971	NaN	9.564526	0.126351	1.921432	-0.019336	-0.052326	0.010172	3.347184	-78.850053	-103.959773
14972	NaN	9.589097	0.121535	1.911389	-0.022090	-0.050308	0.005223	3.335064	-78.877921	-103.956189
14973	NaN	9.637145	0.113461	1.896572	-0.018874	-0.043501	0.001439	3.335373	-78.901103	-103.963297
14974	NaN	9.633795	0.119942	1.870110	-0.017580	-0.026693	-0.001901	3.342582	-78.915226	-103.976777
14975	NaN	9.624518	0.162980	1.908176	-0.013631	-0.018368	-0.001158	3.349234	-78.923951	-103.987265
14976	NaN	9.591390	0.120161	1.899939	-0.021516	-0.013157	-0.001877	3.351840	-78.930332	-103.998352
14977	NaN	9.572131	0.117031	1.926797	-0.010340	-0.017104	-0.004604	3.370267	-78.938220	-104.018925
14978	NaN	9.520356	0.101566	1.929754	-0.016714	-0.013873	-0.007935	3.393509	-78.944805	-104.048234
14979	NaN	9.496200	0.076501	1.950517	-0.017596	-0.019158	-0.025042	3.468063	-78.953162	-104.130217
14980	NaN	9.534763	0.055912	1.909022	-0.013286	-0.023322	-0.045801	3.606091	-78.963797	-104.274474
14981	NaN	9.554001	0.123128	1.947615	-0.008900	-0.028025	-0.054559	3.774214	-78.976064	-104.446725
14982	NaN	9.578110	0.124853	1.939395	-0.007986	-0.034913	-0.061075	3.963088	-78.992573	-104.639676
14983	NaN	9.599022	0.163665	1.890592	-0.009707	-0.036011	-0.059954	4.149156	-79.008973	-104.830665
14984	NaN	9.642568	0.168740	1.854047	-0.009370	-0.026479	-0.057591	4.326225	-79.020573	-105.012378
14985	NaN	9.632335	0.187288	1.909454	-0.003663	-0.014899	-0.057680	4.505174	-79.024787	-105.192565
14986	NaN	9.572263	0.190265	1.866620	-0.011192	-0.010025	-0.056269	4.673961	-79.026838	-105.366899
14987	NaN	9.647103	0.177932	1.873378	-0.011255	-0.002326	-0.056313	4.841630	-79.023735	-105.540037
14988	NaN	9.576279	0.193677	1.889118	-0.010832	0.001661	-0.053615	4.999842	-79.019053	-105.703392
14989	NaN	9.585098	0.214718	1.918251	-0.013943	-0.000854	-0.049253	5.144613	-79.015289	-105.854762
14990	NaN	9.566515	0.156207	1.877025	-0.018956	-0.003230	-0.044684	5.273002	-79.013706	-105.992481
14991	NaN	9.575388	0.176867	1.905938	-0.012376	-0.000676	-0.051579	5.425279	-79.009578	-106.150604
14992	NaN	9.623730	0.234158	1.861537	-0.016932	0.005244	-0.043729	5.549492	-79.003087	-106.282892
14993	NaN	9.622203	0.177980	1.896454	-0.014783	0.010331	-0.042151	5.669279	-78.993076	-106.409317
14994	NaN	9.623151	0.241748	1.863560	-0.014725	0.014639	-0.041569	5.785296	-78.981247	-106.531976
14995	NaN	9.598515	0.218537	1.887614	-0.013401	0.021061	-0.033137	5.875826	-78.965555	-106.627774
14996	NaN	9.621581	0.217836	1.884728	-0.014870	0.027341	-0.029937	5.953409	-78.947097	-106.711371
14997	NaN	9.553733	0.193775	1.943175	-0.012262	0.026564	-0.025909	6.021308	-78.928651	-106.783484
14998	NaN	9.582200	0.245554	1.928998	-0.013391	0.016206	-0.021719	6.078777	-78.916996	-106.845732
14999	NaN	9.596643	0.227186	1.896095	-0.013914	0.012909	-0.013331	6.113059	-78.907069	-106.884555
15000	NaN	9.582183	0.277738	1.914778	-0.013003	0.015341	-0.007598	6.129818	-78.896754	-106.905094
15001	NaN	9.544151	0.211819	1.903311	-0.015941	0.013737	-0.002036	6.129813	-78.887044	-106.910176
15002	NaN	9.628203	0.240852	1.924231	-0.011766	0.015299	-0.000038	6.125336	-78.877215	-106.908353
15003	NaN	9.576002	0.224070	1.930101	-0.014867	0.014931	0.004611	6.106334	-78.867233	-106.893430
15004	NaN	9.546795	0.173663	1.947730	-0.019199	0.014605	0.001700	6.092811	-78.857905	-106.886727
15005	NaN	9.551933	0.226453	1.937749	-0.019482	0.005071	-0.000677	6.089537	-78.853217	-106.890529
15006	NaN	9.555975	0.219357	1.961096	-0.019715	-0.000154	-0.002468	6.092336	-78.852044	-106.900763
15007	NaN	9.575498	0.222784	1.932750	-0.018187	-0.002124	-0.005085	6.104767	-78.851186	-106.919819
15008	NaN	9.543115	0.210149	1.908680	-0.018534	-0.001803	-0.007203	6.122438	-78.850662	-106.944521
15009	NaN	9.613932	0.200242	1.892965	-0.018694	-0.000566	-0.008116	6.142848	-78.848730	-106.971998
15010	NaN	9.575441	0.224242	1.932865	-0.014316	0.006774	-0.016325	6.186598	-78.842755	-107.020819
15011	NaN	9.570539	0.202454	1.927623	-0.020682	0.009976	-0.019649	6.235806	-78.834098	-107.078817
15012	NaN	9.542614	0.214196	1.910736	-0.016533	0.009384	-0.017943	6.282009	-78.826520	-107.131435
15013	NaN	9.570661	0.235538	1.912686	-0.017201	0.012180	-0.021884	6.338781	-78.816448	-107.195126
15014	NaN	9.598063	0.227021	1.931814	-0.019258	0.013552	-0.022590	6.395300	-78.806182	-107.259857
15015	NaN	9.542340	0.249293	1.897508	-0.022866	0.014736	-0.020973	6.445164	-78.794692	-107.319801
15016	NaN	9.597404	0.230556	1.934666	-0.021840	0.014328	-0.026621	6.511298	-78.783699	-107.395846
15017	NaN	9.588858	0.246503	1.890148	-0.023871	0.017853	-0.027031	6.576685	-78.770015	-107.472241
15018	NaN	9.568324	0.215106	1.937224	-0.024188	0.020327	-0.028854	6.645572	-78.755426	-107.552471
15019	NaN	9.544309	0.221056	1.944091	-0.025122	0.013594	-0.035184	6.734635	-78.743586	-107.653712
15020	NaN	9.587160	0.224319	1.911805	-0.021708	0.009342	-0.038304	6.835287	-78.734560	-107.764889
15021	NaN	9.657713	0.217953	1.897374	-0.017178	0.013302	-0.045887	6.959139	-78.722079	-107.896959
15022	NaN	9.676670	0.226371	1.871562	-0.007971	0.036302	-0.058978	7.116569	-78.696176	-108.058019
15023	NaN	9.590357	0.291517	1.908998	-0.012082	0.055348	-0.059226	7.265220	-78.658712	-108.212455
15024	NaN	9.597255	0.283119	1.960453	-0.012057	0.055343	-0.059227	7.412413	-78.621804	-108.365500
15025	NaN	9.524669	0.268405	1.997690	-0.014192	0.045939	-0.061418	7.567573	-78.589365	-108.527854
15026	NaN	9.558748	0.288302	1.922475	-0.016446	0.042080	-0.063927	7.728588	-78.559469	-108.697602
15027	NaN	9.584977	0.253791	1.961297	-0.014366	0.040708	-0.063220	7.888945	-78.529682	-108.865383
15028	NaN	9.540778	0.259259	1.998410	-0.016776	0.038085	-0.066641	8.057201	-78.501646	-109.042748
15029	NaN	9.602306	0.240004	1.957279	-0.006927	0.033381	-0.078129	8.264524	-78.474597	-109.254151
15030	NaN	9.673068	0.298633	1.912561	-0.003377	0.056776	-0.090589	8.497333	-78.433715	-109.489606
15031	NaN	9.611241	0.274558	1.893848	-0.002776	0.078539	-0.097498	8.739051	-78.379088	-109.733760
15032	NaN	9.579276	0.114660	1.985057	0.008354	0.086921	-0.124842	9.055706	-78.317684	-110.048050
15033	NaN	9.545894	0.346277	2.063388	0.040352	0.070611	-0.144438	9.448343	-78.262684	-110.421125
15034	NaN	9.593182	0.236437	2.024450	0.055308	0.080333	-0.159875	9.882808	-78.200785	-110.828408
15035	NaN	9.539597	0.236918	2.035123	0.047928	0.064678	-0.185462	10.385278	-78.143839	-111.309489
15036	NaN	9.574974	0.413485	2.003963	0.068956	0.067266	-0.200255	10.932934	-78.083587	-111.824627
15037	NaN	9.576792	0.428020	2.032909	0.030822	0.059309	-0.225134	11.523748	-78.023362	-112.406265
15038	NaN	9.538163	0.385436	2.026004	0.067664	0.082360	-0.261634	12.212329	-77.945189	-113.066489
15039	NaN	9.681353	0.246370	1.984728	0.041281	0.068048	-0.287386	12.952657	-77.869471	-113.795148
15040	NaN	9.631696	0.455328	2.026343	0.062463	0.081883	-0.328029	13.791620	-77.779184	-114.612657
15041	NaN	9.640120	0.417954	2.012236	0.078752	0.114383	-0.374426	14.723745	-77.661031	-115.516163
15042	NaN	9.639966	0.450586	2.046671	0.082050	0.127388	-0.407986	15.714886	-77.528046	-116.478711
15043	NaN	9.626131	0.589381	2.088480	0.090778	0.143737	-0.444878	16.768498	-77.375866	-117.500590
15044	NaN	9.679270	0.641054	2.145533	0.102339	0.164575	-0.475940	17.862494	-77.203475	-118.557799
15045	NaN	9.580868	0.694231	2.203588	0.124153	0.179874	-0.519626	19.030193	-77.009676	-119.678504
15046	NaN	9.663948	0.775653	2.160403	0.128483	0.172541	-0.541698	20.223588	-76.811087	-120.823988
15047	NaN	9.799734	0.790535	2.165489	0.138404	0.176751	-0.579155	21.467545	-76.596536	-122.016453
15048	NaN	9.871927	0.802361	2.230408	0.131376	0.153378	-0.591318	22.717036	-76.386450	-123.219906
15049	NaN	10.020045	0.806391	2.303380	0.129618	0.140689	-0.637545	24.037849	-76.165681	-124.498769
15050	NaN	10.113212	0.720625	2.385359	0.177436	0.153216	-0.686029	25.432964	-75.920230	-125.827385
15051	NaN	10.081610	0.768592	2.421562	0.206854	0.158725	-0.732644	26.884789	-75.651689	-127.198562
15052	NaN	9.636104	1.188136	2.264404	0.228377	0.104782	-0.790412	28.465169	-75.386919	-128.691454
15053	NaN	10.021985	0.856647	2.375613	0.205146	0.088477	-0.839405	30.085311	-75.105667	-130.241057
15054	NaN	9.695165	1.180057	2.369105	0.257847	0.092975	-0.901273	31.782745	-74.793246	-131.841591
15055	NaN	9.727150	1.173610	2.365874	0.260083	0.072622	-0.944209	33.510433	-74.464532	-133.474611
15056	NaN	9.521983	1.353696	2.397688	0.271418	0.064376	-0.972283	35.230812	-74.118312	-135.095964
15057	NaN	9.635734	1.364887	2.430766	0.277647	0.044693	-1.004524	36.955677	-73.756739	-136.721151
15058	NaN	9.505099	1.545371	2.341707	0.311722	0.033689	-1.030594	38.679504	-73.378156	-138.327934
15059	NaN	9.553560	1.734561	2.295624	0.305575	0.019581	-1.054502	40.375180	-72.983170	-139.912280
15060	NaN	9.492671	1.863892	2.202862	0.306616	0.024322	-1.072579	42.016316	-72.566656	-141.442287
15061	NaN	9.451929	1.990811	2.232850	0.297996	0.033929	-1.086011	43.582528	-72.127856	-142.902509
15062	NaN	9.380654	2.098403	2.239495	0.293040	0.051671	-1.094587	45.063017	-71.667231	-144.279168
15063	NaN	9.355054	2.255574	2.249139	0.286150	0.069321	-1.103063	46.456587	-71.185008	-145.572139
15064	NaN	9.327843	2.364694	2.250074	0.271995	0.088718	-1.098772	47.747948	-70.687983	-146.769240
15065	NaN	9.299312	2.399832	2.365113	0.262405	0.117271	-1.098390	48.935751	-70.171442	-147.866081
15066	NaN	9.614967	2.494694	2.631202	0.266216	0.156536	-1.081910	50.006175	-69.640782	-148.839136
15067	NaN	9.190131	2.450754	2.307884	0.299316	0.196924	-1.065934	50.980295	-69.096134	-149.692537
15068	NaN	9.027312	2.806212	2.137218	0.289939	0.174838	-1.050029	51.915316	-68.562013	-150.512727
15069	NaN	9.258242	3.181512	2.114843	0.275745	0.094566	-1.031545	52.874027	-68.059089	-151.370218
15070	NaN	9.169123	2.948143	2.140487	0.231915	0.050501	-1.043909	53.828282	-67.560760	-152.252905
15071	NaN	9.274220	3.048195	2.213387	0.251855	0.087615	-1.038310	54.707712	-67.046926	-153.045473
15072	NaN	9.055949	3.272673	2.119417	0.236370	0.088017	-1.047013	55.549334	-66.524752	-153.809454
15073	NaN	9.051674	3.304357	2.102512	0.218577	0.091914	-1.048690	56.342281	-65.995884	-154.534602
15074	NaN	9.072801	3.423799	2.171865	0.210047	0.114563	-1.046365	57.073654	-65.457572	-155.200427
15075	NaN	8.981627	3.518545	2.160190	0.198765	0.127667	-1.050114	57.756882	-64.909679	-155.823384
15076	NaN	8.928359	3.647387	2.122132	0.186012	0.137521	-1.043140	58.392009	-64.359607	-156.403830
15077	NaN	8.947414	3.722458	2.163480	0.174363	0.151948	-1.038115	58.976956	-63.804704	-156.938774
15078	NaN	8.969808	3.774495	2.201763	0.162869	0.152861	-1.041878	59.534823	-63.245751	-157.453212
15079	NaN	8.912190	3.881557	2.138653	0.157676	0.164555	-1.050864	60.060952	-62.676469	-157.938104
15080	NaN	8.730899	4.005609	2.127994	0.152950	0.173923	-1.057950	60.560040	-62.099415	-158.397861
15081	NaN	8.641173	4.169757	2.129211	0.128385	0.160101	-1.075997	61.047288	-61.515031	-158.862825
15082	NaN	8.602491	4.218762	2.129411	0.118995	0.153110	-1.091667	61.525430	-60.923217	-159.325936
15083	NaN	8.622456	4.313053	2.248200	0.104070	0.134952	-1.114285	62.002711	-60.322724	-159.800763
15084	NaN	8.705165	4.332422	2.318518	0.096243	0.114555	-1.141047	62.487884	-59.712510	-160.292542
15085	NaN	8.766112	4.409175	2.348149	0.101420	0.103678	-1.171650	62.978897	-59.087160	-160.790984
15086	NaN	8.830267	4.408732	2.416785	0.101664	0.099930	-1.204691	63.468638	-58.444058	-161.290870
15087	NaN	8.670231	4.575520	2.371720	0.117201	0.088215	-1.250760	63.975080	-57.777717	-161.803706
15088	NaN	8.519889	4.637593	2.360698	0.111544	0.071618	-1.287724	64.486434	-57.094367	-162.329791
15089	NaN	8.084586	4.845489	2.193977	0.125572	0.052074	-1.352096	65.023170	-56.379579	-162.881058
15090	NaN	8.267257	4.950934	2.264676	0.105026	0.007710	-1.409716	65.581025	-55.642848	-163.476384
15091	NaN	8.639560	5.032743	2.465144	0.114179	-0.027987	-1.460870	66.163298	-54.884175	-164.100664
15092	NaN	8.765133	4.958639	2.545997	0.124616	-0.051879	-1.522660	66.764218	-54.095152	-164.746173
15093	NaN	8.785269	4.998675	2.556463	0.153820	-0.039482	-1.582028	67.363566	-53.267908	-165.375921
15094	NaN	8.582584	5.400353	2.465584	0.175356	-0.049775	-1.636949	67.972152	-52.410150	-166.008390
15095	NaN	8.427992	5.516663	2.310955	0.184671	-0.088284	-1.706096	68.602670	-51.519463	-166.669786
15096	NaN	8.359212	5.546232	2.277267	0.180082	-0.133895	-1.783651	69.252256	-50.592406	-167.367083
15097	NaN	8.385736	5.638932	2.323995	0.189725	-0.152838	-1.852691	69.904678	-49.626984	-168.070833
15098	NaN	8.420515	5.882203	2.374818	0.206301	-0.149566	-1.916193	70.548408	-48.621803	-168.760458
15099	NaN	8.212490	6.042900	2.269357	0.222291	-0.165487	-1.980197	71.192462	-47.579845	-169.449639
15100	NaN	8.262978	6.251251	2.204946	0.218622	-0.201203	-2.040502	71.836504	-46.506604	-170.152904
15101	NaN	8.442450	6.272690	2.249116	0.219050	-0.212780	-2.099526	72.465669	-45.397887	-170.848499
15102	NaN	8.536207	6.455967	2.316099	0.228821	-0.209779	-2.158438	73.078203	-44.251303	-171.525641
15103	NaN	8.516685	6.514199	2.302663	0.236361	-0.199434	-2.223235	73.668455	-43.062484	-172.179198
15104	NaN	8.378191	6.461198	2.214486	0.237575	-0.186938	-2.307476	74.236244	-41.820567	-172.812804
15105	NaN	8.106176	6.490412	2.186646	0.249480	-0.145338	-2.394058	74.772474	-40.520134	-173.404757
15106	NaN	7.810009	6.639676	2.066964	0.253562	-0.114239	-2.485020	75.280833	-39.160638	-173.965108
15107	NaN	7.511558	6.662978	1.973891	0.260796	-0.082301	-2.580203	75.762682	-37.740290	-174.493963
15108	NaN	7.089386	6.711371	1.886959	0.251150	-0.062440	-2.672095	76.215508	-36.262579	-175.000477
15109	NaN	6.613235	6.905585	1.760413	0.249873	-0.041424	-2.760993	76.642637	-34.729747	-175.483449
15110	NaN	6.160362	7.116501	1.625173	0.235688	-0.052230	-2.859373	77.051623	-33.140325	-175.966843
15111	NaN	5.721567	7.261944	1.535777	0.210911	-0.084513	-2.956826	77.441811	-31.498116	-176.464069
15112	NaN	5.346711	7.338306	1.381002	0.180920	-0.151925	-3.053221	77.821490	-29.807095	-176.997433
15113	NaN	5.315594	6.013389	0.851975	0.081201	-0.260289	-3.090271	78.155579	-28.105803	-177.584148
15114	NaN	6.766257	4.529222	0.221699	0.129879	-0.446525	-2.877871	78.535174	-26.541687	-178.240089
15115	NaN	8.798657	5.735523	0.662573	0.076186	-0.547430	-2.424378	78.863314	-25.240688	-178.883576
15116	NaN	9.762438	4.550126	0.675305	0.122196	-0.669704	-1.923199	79.207090	-24.230999	-179.528104
15117	NaN	10.335164	4.011380	1.131982	0.217149	-0.689801	-1.384078	79.571254	-23.524340	179.888163
15118	NaN	10.790356	3.812343	1.645310	0.292474	-0.510112	-0.752463	79.899722	-23.151335	179.492264
15119	NaN	10.809677	3.863788	2.092997	0.360153	-0.216278	-0.129752	80.166812	-23.100024	179.346172
15120	NaN	10.686422	4.394128	2.331127	0.418684	0.126473	0.424804	80.362079	-23.326814	179.469665
15121	NaN	9.894573	5.111214	2.450199	0.443951	0.477178	0.885668	80.465088	-23.782533	179.856421
15122	NaN	8.929185	5.879177	2.351739	0.408139	0.772400	1.266837	80.453496	-24.424148	-179.532656
15123	NaN	7.889776	6.493535	2.124815	0.331426	1.009121	1.551607	80.313981	-25.205280	-178.740582
15124	NaN	6.681937	6.967875	1.807586	0.224775	1.170315	1.726007	80.048384	-26.064547	-177.819660
15125	NaN	5.468137	7.207627	1.460418	0.108927	1.230604	1.782026	79.677698	-26.946902	-176.842831
15126	NaN	4.331870	7.476340	1.104892	-0.009294	1.174993	1.743110	79.238604	-27.804768	-175.890724
15127	NaN	3.645080	7.687303	0.921677	-0.133604	1.012493	1.652423	78.762147	-28.624817	-175.039005
15128	NaN	3.488982	7.667082	0.944966	-0.252076	0.786027	1.541313	78.279025	-29.399767	-174.332338
15129	NaN	3.573530	7.511971	1.054660	-0.355225	0.567144	1.437932	77.798479	-30.139686	-173.768870
15130	NaN	3.941931	7.201947	1.144608	-0.434668	0.387056	1.350243	77.327315	-30.846518	-173.323172
15131	NaN	4.375935	6.955629	1.263896	-0.494510	0.255007	1.287775	76.860443	-31.534300	-172.963459
15132	NaN	4.821487	6.659927	1.305761	-0.532677	0.164081	1.250127	76.398903	-32.208515	-172.659706
15133	NaN	5.380793	6.400624	1.319045	-0.549931	0.084024	1.254577	75.946717	-32.896199	-172.399817
15134	NaN	6.260002	6.077590	1.369190	-0.575677	-0.012883	1.351020	75.499805	-33.647275	-172.179042
15135	NaN	7.296263	5.590863	1.437179	-0.606517	-0.109188	1.580975	75.039701	-34.540492	-171.973345
15136	NaN	7.878501	5.040253	1.605288	-0.618822	-0.150332	1.904518	74.545960	-35.615155	-171.724134
15137	NaN	8.139347	4.874541	1.793891	-0.606677	-0.119763	2.223975	73.995837	-36.861674	-171.377108
15138	NaN	8.064685	5.010919	1.898717	-0.559540	-0.034690	2.468595	73.388073	-38.223812	-170.899245
15139	NaN	7.487315	5.001987	1.812722	-0.490168	0.085505	2.595071	72.721399	-39.633383	-170.281242
15140	NaN	6.832108	5.036226	1.647546	-0.388361	0.185021	2.609624	72.032149	-41.025378	-169.553875
15141	NaN	6.195622	5.073155	1.402707	-0.280986	0.221802	2.545422	71.357429	-42.371693	-168.777992
15142	NaN	5.962308	5.063857	1.272450	-0.183046	0.161440	2.441556	70.750412	-43.663824	-168.036078
15143	NaN	6.149827	4.846583	1.270724	-0.092045	0.053245	2.346909	70.233218	-44.922728	-167.367593
15144	NaN	6.599607	4.572290	1.330890	-0.020114	-0.052710	2.282021	69.798498	-46.160843	-166.769044
15145	NaN	7.130395	4.347591	1.466846	0.044076	-0.130143	2.254349	69.420769	-47.399152	-166.212837
15146	NaN	7.560058	4.279894	1.570561	0.086680	-0.176981	2.238040	69.074112	-48.633195	-165.674248
15147	NaN	7.884551	4.327060	1.743596	0.109244	-0.221457	2.231640	68.741355	-49.873492	-165.149376
15148	NaN	8.050007	4.405729	1.844671	0.112433	-0.265446	2.239359	68.412200	-51.122450	-164.634076
15149	NaN	8.305643	4.427745	1.973077	0.094209	-0.317328	2.249849	68.075288	-52.388798	-164.133507
15150	NaN	8.605182	4.519858	2.194661	0.061747	-0.355125	2.259102	67.717203	-53.663590	-163.635964
15151	NaN	8.702205	4.389099	2.242384	0.024409	-0.363297	2.260509	67.310214	-54.941646	-163.114886
15152	NaN	8.687203	4.133221	2.154961	-0.008770	-0.359983	2.252538	66.852032	-56.209674	-162.560642
15153	NaN	8.680340	3.828933	1.912818	-0.021227	-0.356242	2.244189	66.345350	-57.472561	-161.967358
15154	NaN	8.735175	3.433023	1.774468	-0.019877	-0.357639	2.229190	65.805729	-58.722126	-161.340402
15155	NaN	8.940266	3.203445	1.665376	-0.002486	-0.369413	2.224539	65.238250	-59.971615	-160.679949
15156	NaN	9.217919	3.002058	1.615134	0.008260	-0.391831	2.235498	64.643998	-61.225952	-159.987803
15157	NaN	9.561882	2.825716	1.574672	0.009390	-0.418193	2.274632	63.996548	-62.506140	-159.245155
15158	NaN	9.851473	2.601436	1.487441	0.016404	-0.436624	2.335566	63.277308	-63.815197	-158.424061
15159	NaN	10.014879	2.361684	1.422203	0.029382	-0.443690	2.392303	62.457389	-65.152834	-157.494634
15160	NaN	10.109330	2.155911	1.323225	0.064776	-0.439292	2.444372	61.526858	-66.506493	-156.429641
15161	NaN	10.201955	2.010112	1.280887	0.103842	-0.425578	2.479420	60.453450	-67.869011	-155.198467
15162	NaN	10.337330	2.027471	1.298641	0.140898	-0.408545	2.501019	59.219415	-69.224563	-153.781580
15163	NaN	10.563349	2.014914	1.345333	0.180482	-0.397426	2.504939	57.802001	-70.569295	-152.160054
15164	NaN	10.806345	2.129153	1.479988	0.202188	-0.387523	2.511024	56.160957	-71.895666	-150.300363
15165	NaN	11.105268	2.237101	1.578969	0.211441	-0.374808	2.515731	54.220776	-73.203651	-148.137637
15166	NaN	11.217769	2.432609	1.682109	0.203232	-0.366793	2.522432	51.921964	-74.484358	-145.619040
15167	NaN	11.395833	2.622809	1.772294	0.176585	-0.389498	2.519866	49.214903	-75.743132	-142.711397
15168	NaN	11.607322	2.871852	1.913450	0.136268	-0.427772	2.514997	46.039813	-76.972194	-139.359856
15169	NaN	11.817420	3.061594	2.071840	0.090812	-0.472405	2.517274	42.240204	-78.172700	-135.413973
15170	NaN	12.052874	3.289979	2.229499	0.034204	-0.523246	2.513242	37.680828	-79.327044	-130.741493
15171	NaN	12.680703	3.466369	2.469253	-0.027677	-0.556592	2.522339	32.031229	-80.416614	-125.016798
15172	NaN	13.613721	3.550708	2.757386	-0.081923	-0.533417	2.584027	24.756969	-81.390245	-117.693834
15173	NaN	14.413435	3.700671	2.873274	-0.134500	-0.439718	2.703686	15.175541	-82.158407	-108.089074
15174	NaN	14.669960	3.960216	2.880064	-0.169599	-0.299964	2.846574	3.244861	-82.590291	-96.146743
15175	NaN	14.483617	4.340742	2.661269	-0.204177	-0.161808	2.979896	-10.054659	-82.579929	-82.851633
15176	NaN	14.070226	4.690704	2.287207	-0.223333	-0.074355	3.075109	-22.866423	-82.117860	-70.050861
15177	NaN	13.727091	5.042152	1.966966	-0.231630	-0.031661	3.158206	-33.978869	-81.266387	-58.953134
15178	NaN	13.270272	5.459063	1.724008	-0.230879	0.031718	3.198060	-42.799531	-80.110463	-50.145546
15179	NaN	12.408705	5.959595	1.465306	-0.217232	0.097053	3.189026	-49.494781	-78.749829	-43.459250
15180	NaN	11.302229	6.812651	1.232644	-0.218197	0.141488	3.100585	-54.469083	-77.298882	-38.498476
15181	NaN	10.122677	7.933873	0.944669	-0.265121	0.134605	2.946841	-58.264782	-75.847800	-34.749541
15182	NaN	8.960354	9.120356	0.639213	-0.367072	0.060512	2.756147	-61.350339	-74.465030	-31.771121
15183	NaN	7.594852	10.456726	0.507053	-0.545551	-0.110653	2.543745	-64.152429	-73.196781	-29.175781
15184	NaN	6.242171	11.847667	0.424710	-0.819684	-0.404576	2.333178	-67.055337	-72.074986	-26.622270
15185	NaN	4.641321	13.308208	0.671859	-1.153815	-0.804542	2.130009	-70.331800	-71.104748	-23.862046
15186	NaN	3.289362	14.447766	1.164113	-1.493254	-1.288839	1.877402	-74.126768	-70.305824	-20.743629
15187	NaN	2.666862	14.887358	1.907710	-1.737625	-1.688064	1.496140	-78.258411	-69.704425	-17.402175
15188	NaN	17.622631	7.249987	13.483692	-2.403869	-2.212756	0.459079	-83.122253	-69.650418	-13.680113
15189	NaN	15.174208	3.800670	1.795849	2.247617	3.144140	-0.790826	-76.809474	-69.784130	-19.031721
15190	NaN	6.182019	-0.282241	-1.189973	-1.583408	1.725283	-1.007480	-74.695727	-70.100844	-22.243357
15191	NaN	6.717193	1.402484	-0.463135	0.731963	2.629660	-1.273939	-69.655220	-70.336013	-27.148759
15192	NaN	3.401417	-11.963894	-3.989019	0.772201	2.004459	-1.409405	-65.337553	-70.642893	-31.255526
15193	NaN	7.342020	-16.895326	-7.126210	0.777614	0.171616	-1.296903	-63.698427	-71.272291	-32.513204
15194	NaN	12.346725	-6.735154	-1.981686	1.557378	0.162598	-1.072651	-61.707005	-71.775844	-33.667748
15195	NaN	9.520743	-0.606563	2.257034	1.384976	0.713911	-1.051181	-58.900179	-72.096906	-35.780803
15196	NaN	7.616014	-1.406883	3.944884	1.468856	0.514751	-1.213245	-56.099495	-72.524777	-37.832819
15197	NaN	9.840694	-1.171885	5.478070	1.222765	0.193436	-1.309217	-53.702885	-73.075179	-39.603574
15198	NaN	12.455961	-0.330345	7.388075	0.861757	0.338199	-1.159553	-51.343267	-73.484476	-41.547545
15199	NaN	9.202315	-0.259730	6.557557	0.426545	0.485387	-1.064999	-49.030482	-73.775318	-43.698580
15200	NaN	6.861056	-0.855248	4.624174	0.146330	0.167510	-1.166084	-47.133532	-74.208202	-45.580591
15201	NaN	8.208957	-1.339280	3.091710	0.038566	-0.185991	-1.268308	-45.567698	-74.807535	-47.177724
15202	NaN	10.061384	-1.477618	1.919594	0.013602	-0.283494	-1.247006	-44.075129	-75.426168	-48.709819
15203	NaN	10.288782	-1.478058	1.229439	0.031647	-0.319830	-1.143858	-42.666747	-76.009256	-50.139636
15204	NaN	13.480315	-0.969042	1.830147	0.143199	-0.392339	-1.100562	-41.268682	-76.597776	-51.489979
15205	NaN	12.866074	-1.128389	1.427887	0.080257	-0.047094	-0.893573	-39.625578	-76.950205	-53.125872
15206	NaN	11.031530	-1.143294	1.023978	0.095475	0.027342	-0.699393	-38.160302	-77.189235	-54.568979
15207	NaN	10.707289	-1.117647	1.171060	0.148163	0.058798	-0.607034	-36.747222	-77.373673	-55.925845
15208	NaN	10.702658	-1.168148	1.438646	0.178275	0.137903	-0.528411	-35.329301	-77.487454	-57.269777
15209	NaN	10.363013	-0.938937	1.898243	0.178412	0.191212	-0.445021	-33.984347	-77.541929	-58.537883
15210	NaN	9.865690	-0.818920	2.185769	0.139229	0.210403	-0.408614	-32.708794	-77.569413	-59.758282
15211	NaN	9.550552	-0.794978	2.249661	0.105528	0.200147	-0.413965	-31.444660	-77.597703	-60.986045
15212	NaN	9.369909	-0.919005	2.057950	0.092713	0.114342	-0.417748	-30.292287	-77.663720	-62.107270
15213	NaN	9.242654	-0.840896	2.144243	0.070725	0.079711	-0.433990	-29.142669	-77.746723	-63.237661
15214	NaN	9.323430	-0.890649	2.044988	0.064041	0.031439	-0.450517	-28.008522	-77.853775	-64.356324
15215	NaN	9.684494	-0.701947	2.147196	0.050779	-0.015436	-0.444276	-26.929077	-77.978341	-65.425741
15216	NaN	9.794811	-0.686821	2.073331	0.029270	-0.038230	-0.419868	-25.932135	-78.104398	-66.423513
15217	NaN	9.783217	-0.703690	1.959445	0.018568	-0.058981	-0.401771	-24.984008	-78.233079	-67.376617
15218	NaN	9.737165	-0.721988	1.924670	0.012634	-0.072899	-0.382445	-24.089054	-78.361399	-68.279037
15219	NaN	9.581266	-0.679567	1.892907	0.004131	-0.074956	-0.368524	-23.211839	-78.484589	-69.167328
15220	NaN	9.558313	-0.708228	1.852860	-0.006816	-0.067131	-0.376678	-22.297963	-78.602831	-70.099630
15221	NaN	9.593009	-0.667846	1.742518	-0.013149	-0.051269	-0.384588	-21.325194	-78.711051	-71.094746
15222	NaN	9.433248	-0.741578	1.617521	-0.001002	-0.028660	-0.402431	-20.261388	-78.807517	-72.175810
15223	NaN	9.329808	-0.721410	1.629589	0.013583	0.002049	-0.429725	-19.060584	-78.888250	-73.387085
15224	NaN	9.172150	-0.664422	1.709282	0.023065	0.019782	-0.477359	-17.693957	-78.962944	-74.762046
15225	NaN	9.919442	-0.569328	2.106213	0.022557	0.061003	-0.512254	-16.171068	-79.013888	-76.295636
15226	NaN	10.175025	-0.338296	2.110652	0.004576	0.172581	-0.503639	-14.592685	-78.994253	-77.896737
15227	NaN	10.089084	-0.462762	1.708366	-0.018055	0.195522	-0.477589	-13.087767	-78.949709	-79.435812
15228	NaN	10.511731	-0.567239	1.359145	0.008958	0.232185	-0.449486	-11.645037	-78.874030	-80.896624
15229	NaN	10.694275	-0.505917	1.263702	0.060568	0.348543	-0.417187	-10.220140	-78.721975	-82.309125
15230	NaN	10.411043	-0.339080	1.547693	0.105933	0.459503	-0.374833	-8.883111	-78.497047	-83.606963
15231	NaN	9.907520	-0.179150	1.919160	0.105269	0.516471	-0.348096	-7.644606	-78.231508	-84.805173
15232	NaN	9.655834	-0.167566	2.075747	0.088095	0.516882	-0.340906	-6.493855	-77.960673	-85.925484
15233	NaN	9.589488	-0.172669	2.151083	0.080652	0.507224	-0.333160	-5.415396	-77.689997	-86.976767
15234	NaN	9.576688	0.003152	2.272552	0.069246	0.450020	-0.312470	-4.458382	-77.447521	-87.911976
15235	NaN	9.454770	0.092034	2.460863	0.047546	0.351909	-0.269125	-3.670083	-77.255842	-88.687233
15236	NaN	9.405368	0.083117	2.438807	0.013106	0.247644	-0.224325	-3.054485	-77.120723	-89.306690
15237	NaN	9.421521	-0.105209	2.269913	0.016454	0.168952	-0.188025	-2.543885	-77.027758	-89.816151
15238	NaN	9.466095	0.036088	2.399587	0.046381	0.135888	-0.161031	-2.097515	-76.952676	-90.242847
15239	NaN	9.190322	0.004671	2.509339	0.027427	0.056299	-0.134157	-1.734497	-76.921434	-90.594631
15240	NaN	9.304504	0.025503	2.423173	0.039878	-0.026670	-0.111968	-1.430170	-76.937448	-90.879436
15241	NaN	9.364502	0.004938	2.355297	0.036970	-0.087168	-0.102226	-1.149452	-76.987088	-91.141095
15242	NaN	9.560860	0.125887	2.290092	0.045154	-0.124686	-0.081656	-0.919135	-77.058322	-91.346741
15243	NaN	9.563402	0.066018	2.216784	0.034515	-0.123836	-0.062238	-0.736674	-77.128153	-91.508902
15244	NaN	9.630328	0.064009	2.146055	0.029800	-0.110278	-0.046646	-0.598526	-77.190601	-91.628925
15245	NaN	9.594470	0.098706	2.171058	0.032529	-0.096209	-0.034843	-0.482571	-77.244275	-91.723979
15246	NaN	9.608231	0.050054	2.151727	0.023832	-0.090229	-0.028277	-0.391880	-77.295048	-91.798802
15247	NaN	9.636181	0.074792	2.119265	0.025138	-0.071814	-0.013866	-0.331661	-77.334605	-91.841029
15248	NaN	9.549851	0.089612	2.176813	0.016360	-0.055799	-0.009811	-0.290937	-77.365557	-91.869007
15249	NaN	9.504085	0.001659	2.163005	0.014731	-0.051090	0.002685	-0.278292	-77.393183	-91.868581
15250	NaN	9.450237	0.029066	2.244412	0.020916	-0.062968	0.005696	-0.274608	-77.428197	-91.855925
15251	NaN	9.410401	-0.004668	2.186968	0.015528	-0.093957	0.004868	-0.267617	-77.480373	-91.849241
15252	NaN	9.491557	0.030254	2.147759	0.025497	-0.107264	0.006393	-0.263716	-77.540765	-91.834124
15253	NaN	9.421010	0.018901	2.169627	0.017585	-0.126625	0.000094	-0.243498	-77.611668	-91.839784
15254	NaN	9.450739	0.010380	2.176370	0.012954	-0.149372	-0.009978	-0.204334	-77.696225	-91.868129
15255	NaN	9.573202	0.044218	2.075764	0.005254	-0.157737	-0.017636	-0.144145	-77.784978	-91.921924
15256	NaN	9.613917	0.016076	2.026389	-0.000968	-0.135842	-0.023151	-0.076738	-77.861785	-91.987305
15257	NaN	9.529425	0.031289	2.078720	0.002950	-0.118215	-0.016677	-0.018733	-77.927871	-92.040188
15258	NaN	9.468377	0.040791	2.127699	-0.005171	-0.121667	-0.016275	0.029275	-77.996528	-92.088162
15259	NaN	9.534555	0.034274	2.055017	-0.005569	-0.135840	-0.016193	0.082329	-78.072689	-92.140949
15260	NaN	9.551392	0.011057	2.010985	-0.008161	-0.133065	-0.020137	0.140400	-78.147854	-92.200930
15261	NaN	9.545772	0.061340	2.033085	-0.019221	-0.122507	-0.027179	0.217048	-78.216331	-92.285789
15262	NaN	9.544722	0.067771	1.997481	-0.018037	-0.124497	-0.031787	0.303112	-78.286525	-92.380111
15263	NaN	9.593944	0.059779	1.977270	-0.023564	-0.115198	-0.030627	0.388680	-78.350751	-92.476580
15264	NaN	9.601981	0.085219	1.969715	-0.029524	-0.106496	-0.020728	0.438959	-78.410625	-92.541045
15265	NaN	9.535089	0.070962	2.017760	-0.027347	-0.099051	-0.021445	0.497962	-78.465602	-92.612571
15266	NaN	9.578008	0.038542	1.996482	-0.033978	-0.095829	-0.025008	0.558673	-78.519315	-92.690260
15267	NaN	9.601843	0.066599	1.938324	-0.038313	-0.095196	-0.026770	0.627605	-78.572017	-92.778304
15268	NaN	9.687562	0.126575	1.902242	-0.022204	-0.071005	-0.009947	0.652715	-78.611575	-92.812764
15269	NaN	9.675071	0.051387	1.909782	-0.040694	-0.074792	0.011050	0.612739	-78.652816	-92.791086
15270	NaN	9.672474	0.053880	1.880348	-0.002890	-0.042137	0.012403	0.584256	-78.675974	-92.759593
15271	NaN	9.624275	0.035522	1.906350	-0.017293	-0.037052	0.010758	0.557123	-78.695590	-92.737345
15272	NaN	9.607355	0.062987	1.910938	-0.004645	-0.026563	0.011535	0.529482	-78.709813	-92.707739
15273	NaN	9.611594	0.057474	1.932253	-0.011964	-0.024916	0.015579	0.491087	-78.722499	-92.670896
15274	NaN	9.631737	0.054410	1.901511	0.001284	-0.024687	0.020998	0.439427	-78.735684	-92.613339
15275	NaN	9.579476	0.039268	1.905548	-0.002028	-0.017963	0.023980	0.382219	-78.744410	-92.551513
15276	NaN	9.546445	0.062961	1.963599	0.005944	-0.018841	0.023216	0.326506	-78.754231	-92.487104
15277	NaN	9.586136	0.058606	1.904875	0.002973	-0.022537	0.018826	0.286907	-78.765539	-92.440316
15278	NaN	9.584395	0.029423	1.923602	0.000515	-0.018760	0.016045	0.248580	-78.775276	-92.396809
15279	NaN	9.576976	0.076071	1.956210	-0.005793	-0.021244	0.015320	0.213908	-78.785824	-92.360169
15280	NaN	9.587326	0.053980	1.899012	-0.006351	-0.019851	0.012194	0.182654	-78.796167	-92.327885
15281	NaN	9.568138	0.053455	1.925312	-0.006657	-0.023814	0.021766	0.128721	-78.808188	-92.272117
15282	NaN	9.588140	0.049982	1.895008	-0.014755	-0.016230	0.020863	0.067365	-78.816455	-92.214059
15283	NaN	9.570645	-0.022455	1.884391	-0.011645	-0.012904	0.015371	0.028890	-78.822201	-92.176966
15284	NaN	9.502714	0.059742	1.958477	-0.013261	-0.012071	0.006827	0.008971	-78.828067	-92.160276
15285	NaN	9.573210	0.043240	1.942844	-0.021230	-0.024753	-0.001077	0.012681	-78.840595	-92.171782
15286	NaN	9.540602	0.029098	1.918205	-0.024520	-0.026072	-0.007446	0.027776	-78.854479	-92.197356
15287	NaN	9.547049	0.053017	1.918705	-0.029640	-0.028358	-0.012632	0.060366	-78.869065	-92.243208
15288	NaN	9.617693	0.038042	1.902152	-0.026374	-0.026217	-0.017134	0.102771	-78.883019	-92.297695
15289	NaN	9.497095	0.010713	1.964233	-0.040262	-0.027204	-0.025814	0.167965	-78.896910	-92.382974
15290	NaN	9.560178	0.005460	1.899787	-0.045424	-0.034182	-0.041192	0.270163	-78.915350	-92.509509
15291	NaN	9.556893	0.013220	1.873265	-0.043262	-0.023725	-0.052619	0.412496	-78.927094	-92.675136
15292	NaN	9.516327	0.092134	1.965975	-0.048944	-0.018267	-0.072471	0.604641	-78.936133	-92.895368
15293	NaN	9.588935	0.070468	1.847110	-0.056342	-0.023488	-0.078763	0.816803	-78.947346	-93.139772
15294	NaN	9.558003	0.031422	1.867377	-0.061883	-0.016703	-0.087581	1.046521	-78.955035	-93.405825
15295	NaN	9.677117	0.040915	1.822127	-0.061528	-0.007213	-0.097813	1.311402	-78.956317	-93.706961
15296	NaN	9.774370	0.083641	1.763160	-0.046552	0.027458	-0.087733	1.547355	-78.938267	-93.970421
15297	NaN	9.596119	0.091705	1.895995	-0.052528	0.041639	-0.078436	1.755765	-78.911422	-94.208793
15298	NaN	9.566082	0.080076	1.901487	-0.042946	0.040777	-0.081546	1.972592	-78.885477	-94.450700
15299	NaN	9.559479	0.063499	1.902252	-0.042664	0.041744	-0.080397	2.190170	-78.858186	-94.692701
15300	NaN	9.466980	0.059416	1.968847	-0.043572	0.033156	-0.095194	2.444995	-78.835921	-94.973746
15301	NaN	9.575843	0.051691	1.900520	-0.049617	0.020102	-0.115347	2.760479	-78.819679	-95.319643
15302	NaN	9.635311	0.126940	1.879824	-0.044468	0.034276	-0.122340	3.090920	-78.795403	-95.678333
15303	NaN	9.633133	0.071165	1.822339	-0.047581	0.057176	-0.131184	3.444522	-78.756660	-96.061968
15304	NaN	9.632769	0.151009	1.891039	-0.038259	0.081640	-0.149751	3.844479	-78.703430	-96.488007
15305	NaN	9.607433	0.169374	1.904072	-0.041183	0.091445	-0.145420	4.229321	-78.643531	-96.899904
15306	NaN	9.637302	0.130611	1.874436	-0.041033	0.114339	-0.158904	4.638131	-78.570076	-97.336781
15307	NaN	9.570409	0.250066	1.964998	-0.038046	0.121361	-0.155309	5.036136	-78.491497	-97.760482
15308	NaN	9.522831	0.240849	2.029260	-0.041062	0.106063	-0.137666	5.377108	-78.422711	-98.128369
15309	NaN	9.567204	0.176531	1.968105	-0.034282	0.102856	-0.134125	5.713488	-78.354819	-98.487170
15310	NaN	9.667542	0.182972	1.861198	-0.031090	0.119282	-0.152736	6.089398	-78.276723	-98.885086
15311	NaN	9.615777	0.246369	1.966018	-0.028822	0.155160	-0.167514	6.495095	-78.176014	-99.311711
15312	NaN	9.583410	0.242784	1.982249	-0.036251	0.159026	-0.165450	6.878271	-78.073356	-99.720350
15313	NaN	9.590083	0.305963	2.005448	-0.017821	0.181142	-0.179398	7.299206	-77.955836	-100.156441
15314	NaN	9.585785	0.322593	2.023309	-0.022864	0.190097	-0.176038	7.692647	-77.833559	-100.568082
15315	NaN	9.485722	0.269060	2.143442	-0.021993	0.185297	-0.172096	8.074321	-77.713010	-100.966841
15316	NaN	9.313449	0.355712	2.271906	-0.001092	0.149783	-0.177737	8.484365	-77.612281	-101.383070
15317	NaN	9.382659	0.291119	2.207257	-0.013417	0.072086	-0.160062	8.870675	-77.555726	-101.781832
15318	NaN	9.441364	0.400296	2.170132	-0.004238	0.035364	-0.162664	9.276548	-77.519873	-102.195835
15319	NaN	9.541407	0.354887	2.096991	0.002102	0.019248	-0.160099	9.688200	-77.491966	-102.611570
15320	NaN	9.639257	0.436396	2.021589	0.009299	0.033414	-0.155163	10.079199	-77.456693	-103.002492
15321	NaN	9.603680	0.502225	2.065043	0.000702	0.055626	-0.136305	10.409111	-77.409509	-103.335422
15322	NaN	9.614104	0.435522	2.080833	0.006570	0.082752	-0.128040	10.702336	-77.348300	-103.627898
15323	NaN	9.592754	0.475606	2.097486	0.001628	0.104677	-0.123688	10.972376	-77.274128	-103.899070
15324	NaN	9.507809	0.424705	2.133827	-0.001807	0.114631	-0.121511	11.223179	-77.195113	-104.153135
15325	NaN	9.475284	0.511365	2.186766	0.002539	0.104230	-0.119407	11.477226	-77.121146	-104.407533
15326	NaN	9.507027	0.471187	2.157173	-0.001420	0.094723	-0.118758	11.725551	-77.053132	-104.658978
15327	NaN	9.532779	0.501943	2.165882	0.001171	0.100817	-0.116279	11.967371	-76.980957	-104.901777
15328	NaN	9.524022	0.461959	2.192093	0.005801	0.096776	-0.125674	12.230180	-76.910476	-105.163985
15329	NaN	9.562040	0.474392	2.145800	0.009861	0.101925	-0.126653	12.495801	-76.835920	-105.426254
15330	NaN	9.669730	0.449396	2.108970	0.031726	0.120881	-0.170396	12.860904	-76.745745	-105.778443
15331	NaN	9.533686	0.478745	2.215965	0.029321	0.122448	-0.187503	13.262727	-76.651140	-106.169402
15332	NaN	9.512023	0.553338	2.214495	0.036166	0.120391	-0.196880	13.682368	-76.556596	-106.575313
15333	NaN	9.483282	0.549221	2.249814	0.037333	0.116460	-0.203793	14.118619	-76.461772	-106.997266
15334	NaN	9.525174	0.594030	2.207974	0.036279	0.101883	-0.211385	14.570915	-76.374022	-107.437020
15335	NaN	9.533403	0.658715	2.248889	0.035691	0.114412	-0.217948	15.027783	-76.276729	-107.881489
15336	NaN	9.567676	0.331623	2.219031	0.044442	0.110170	-0.284238	15.631374	-76.171602	-108.472565
15337	NaN	9.430543	0.668409	2.348728	0.059782	0.097525	-0.320067	16.325507	-76.065366	-109.147620
15338	NaN	9.502646	0.624083	2.283988	0.069307	0.092980	-0.355901	17.093095	-75.954507	-109.893571
15339	NaN	9.298753	0.644605	2.464474	0.079887	0.060545	-0.384168	17.941622	-75.853106	-110.716572
15340	NaN	9.389865	0.756719	2.367098	0.095100	0.013298	-0.394300	18.839931	-75.773385	-111.582756
15341	NaN	9.483531	0.838674	2.310880	0.094706	-0.003548	-0.402028	19.760025	-75.697065	-112.471461
15342	NaN	9.574103	0.954657	2.209102	0.099936	-0.008487	-0.428822	20.730469	-75.615381	-113.409843
15343	NaN	9.676047	1.031036	2.223379	0.100308	0.000506	-0.462899	21.755747	-75.516877	-114.404522
15344	NaN	9.632554	0.960246	2.233343	0.112759	0.002335	-0.514688	22.875157	-75.402430	-115.490038
15345	NaN	9.763056	0.870881	2.414673	0.127782	-0.015643	-0.565930	24.106317	-75.279234	-116.682273
15346	NaN	9.905965	0.773456	2.514558	0.138828	-0.055882	-0.621729	25.467119	-75.157710	-118.003190
15347	NaN	10.052207	0.875533	2.491338	0.168935	-0.063768	-0.705866	26.993343	-75.009526	-119.477811
15348	NaN	9.944643	0.944480	2.471202	0.210274	-0.062779	-0.786903	28.660394	-74.829609	-121.075337
15349	NaN	9.790555	1.048726	2.461343	0.235188	-0.065781	-0.860454	30.439747	-74.617006	-122.775533
15350	NaN	9.850626	1.060654	2.454739	0.253526	-0.082826	-0.931181	32.320525	-74.378426	-124.572352
15351	NaN	9.738379	1.255986	2.371881	0.295532	-0.086062	-1.014672	34.312704	-74.098020	-126.461787
15352	NaN	9.662939	1.465764	2.381763	0.295325	-0.107821	-1.071170	36.349865	-73.792201	-128.401312
15353	NaN	9.747278	1.392511	2.427129	0.321418	-0.106610	-1.130382	38.415878	-73.445201	-130.358163
15354	NaN	9.703589	1.621387	2.354921	0.340375	-0.109308	-1.212072	40.527833	-73.050774	-132.355791
15355	NaN	9.667575	1.787809	2.221649	0.338565	-0.106913	-1.263651	42.611140	-72.613866	-134.328599
15356	NaN	9.655484	1.863228	2.272996	0.346392	-0.078879	-1.314594	44.626924	-72.125682	-136.231190
15357	NaN	9.634758	1.973862	2.279647	0.354810	-0.087497	-1.372005	46.621591	-71.596542	-138.111624
15358	NaN	9.564043	2.113920	2.295075	0.381485	-0.097727	-1.423435	48.591435	-71.030689	-139.956024
15359	NaN	9.574574	2.349020	2.377576	0.394686	-0.117451	-1.459120	50.518997	-70.435816	-141.753774
15360	NaN	9.691859	2.224013	2.454822	0.433512	-0.132749	-1.492437	52.408620	-69.813073	-143.494612
15361	NaN	9.441447	2.551742	2.358293	0.470734	-0.145515	-1.532112	54.260861	-69.156458	-145.179689
15362	NaN	9.518880	2.671543	2.257075	0.480453	-0.199239	-1.565809	56.102943	-68.483885	-146.855597
15363	NaN	9.351480	2.898503	2.223290	0.494249	-0.282698	-1.616145	57.983000	-67.792814	-148.571588
15364	NaN	9.406553	2.966964	2.256087	0.509052	-0.323949	-1.668301	59.847336	-67.068839	-150.270238
15365	NaN	9.105996	3.449550	1.947398	0.550725	-0.377301	-1.714679	61.716225	-66.314763	-151.956993
15366	NaN	9.291196	4.310082	1.895089	0.501486	-0.533250	-1.770837	63.656567	-65.552291	-153.762863
15367	NaN	10.091304	3.649655	2.046450	0.454192	-0.556987	-1.798526	65.496877	-64.756474	-155.499436
15368	NaN	11.120001	3.506489	2.473779	0.477991	-0.390081	-1.774669	67.050707	-63.914431	-156.914936
15369	NaN	9.234143	3.985651	1.754197	0.532844	-0.329107	-1.805613	68.491561	-63.026128	-158.179499
15370	NaN	9.111473	4.211333	1.487813	0.500473	-0.381531	-1.830896	69.892892	-62.122119	-159.430587
15371	NaN	9.040491	4.332093	1.505883	0.497106	-0.391484	-1.831452	71.219622	-61.205376	-160.609664
15372	NaN	8.797571	4.513652	1.509705	0.475019	-0.424340	-1.829215	72.489639	-60.284137	-161.748695
15373	NaN	8.822015	4.475988	1.556461	0.479762	-0.430223	-1.832003	73.696794	-59.349695	-162.822472
15374	NaN	8.489011	4.963718	1.219591	0.484793	-0.453641	-1.819705	74.859752	-58.415543	-163.851654
15375	NaN	8.205004	5.376223	0.964249	0.438650	-0.570651	-1.809151	76.034668	-57.492617	-164.936510
15376	NaN	8.382117	5.454064	0.930258	0.370432	-0.683768	-1.783571	77.202222	-56.588177	-166.070183
15377	NaN	7.824255	5.794915	0.626296	0.330908	-0.807759	-1.784227	78.389988	-55.685091	-167.267407
15378	NaN	7.599079	6.311965	0.270517	0.252140	-0.997310	-1.775928	79.625107	-54.794266	-168.589972
15379	NaN	7.647818	6.620798	-0.257992	0.119788	-1.189950	-1.783385	80.873885	-53.900950	-170.037345
15380	NaN	7.045814	6.954391	-0.771871	-0.036874	-1.346189	-1.815190	82.092089	-52.985726	-171.575080
15381	NaN	6.347024	9.263330	-0.975572	-0.143205	-1.528402	-1.930707	83.326965	-51.997804	-173.230009
15382	NaN	5.790216	10.996094	-0.977417	-0.329885	-1.731118	-2.195346	84.544111	-50.850881	-175.023340
15383	NaN	5.640209	12.624710	-0.768987	-0.420033	-1.808216	-2.507958	85.690755	-49.505251	-176.824047
15384	NaN	4.988894	13.527270	-0.800848	-0.515601	-1.804200	-2.839230	86.696621	-47.949808	-178.549870
15385	NaN	4.340510	14.572968	-0.709487	-0.644019	-1.772892	-3.195790	87.519879	-46.169838	179.827564
15386	NaN	7.401434	15.654155	-0.249931	-0.822242	-1.740596	-3.371284	88.130120	-44.276624	178.310108
15387	NaN	10.335154	14.129944	0.218647	-1.002645	-1.510205	-3.143518	88.427164	-42.499435	177.047839
15388	NaN	10.771306	12.298882	0.289935	-1.035217	-1.336961	-2.735321	88.556833	-40.952158	175.967977
15389	NaN	10.842646	11.047260	0.508412	-1.039149	-1.117105	-2.235691	88.534827	-39.684957	175.088444
15390	NaN	10.584128	10.351391	0.656980	-0.963404	-0.822588	-1.756399	88.392127	-38.690899	174.447113
15391	NaN	9.746978	10.528778	0.729987	-0.848596	-0.520195	-1.427304	88.163265	-37.879675	174.038496
15392	NaN	8.705114	10.854069	0.584288	-0.732199	-0.280284	-1.267845	87.889452	-37.158501	173.805901
15393	NaN	7.592044	11.100537	0.436132	-0.620249	-0.098005	-1.283984	87.600485	-36.422899	173.701886
15394	NaN	6.630263	11.314372	0.381134	-0.514460	0.020608	-1.458983	87.327333	-35.586536	173.672008
15395	NaN	5.922034	11.380163	0.267800	-0.440202	0.054627	-1.745078	87.090221	-34.583557	173.652868
15396	NaN	5.603569	11.157012	0.129652	-0.393585	0.018486	-2.068970	86.902825	-33.398465	173.591938
15397	NaN	5.522397	10.681409	-0.046267	-0.367810	-0.094907	-2.344400	86.777532	-32.057356	173.441500
15398	NaN	5.922186	10.103164	-0.026015	-0.355639	-0.265908	-2.524350	86.719779	-30.621239	173.168557
15399	NaN	6.464038	9.599408	0.131797	-0.357190	-0.457335	-2.586995	86.717327	-29.153476	172.771023
15400	NaN	7.161709	9.055858	0.465047	-0.357130	-0.616208	-2.546586	86.752082	-27.716121	172.276832
15401	NaN	7.782408	8.624530	0.814842	-0.339978	-0.708196	-2.431453	86.807057	-26.345155	171.736146
15402	NaN	8.307644	8.449348	1.223687	-0.309839	-0.725756	-2.258091	86.867382	-25.075531	171.197242
15403	NaN	8.591318	8.118860	1.606793	-0.260226	-0.650490	-2.075406	86.920286	-23.905784	170.719376
15404	NaN	8.692995	7.880778	1.880436	-0.194096	-0.495342	-1.901375	86.960278	-22.832340	170.348411
15405	NaN	8.362639	7.639156	2.013021	-0.119924	-0.293225	-1.742696	86.985212	-21.841908	170.111810
15406	NaN	8.073767	7.621192	2.050269	-0.038629	-0.079172	-1.603422	87.003337	-20.926123	170.012519
15407	NaN	7.669769	7.844141	2.106012	0.028526	0.118015	-1.497387	87.014128	-20.063980	170.038503
15408	NaN	7.246410	8.036243	2.045743	0.072708	0.283862	-1.424810	87.016655	-19.239529	170.166912
15409	NaN	6.963392	8.347625	2.065612	0.095953	0.416068	-1.389425	87.007444	-18.430577	170.376203
15410	NaN	6.641660	8.454935	2.009819	0.088786	0.533127	-1.355781	86.975995	-17.638076	170.655195
15411	NaN	6.203661	8.455839	1.865277	0.069841	0.585138	-1.310274	86.927214	-16.869326	170.965466
15412	NaN	5.922191	8.451687	1.711400	0.047192	0.595669	-1.260381	86.868638	-16.129032	171.281194
