// General information: 
//  MT Manager version: 2022.2.0 
//  XDA version: 2022.2.0 build 7381 rev 124627 built on 2023-07-19
// Device information: 
//  DeviceId: 00B4BB52
//  ProductCode: MTW2-3A7G6
//  Firmware Version: 4.6.0
//  Hardware Version: 2.0.0
// Device settings: 
//  Filter Profile: human(46.1)
//  Option Flags: Orientation Smoother Disabled, Position/Velocity Smoother Disabled, Continuous Zero Rotation Update Disabled, AHS Disabled, ICC Disabled
// Coordinate system: ENU
PacketCounter	SampleTimeFine	Acc_X	Acc_Y	Acc_Z	Gyr_X	Gyr_Y	Gyr_Z	Roll	Pitch	Yaw
09340	NaN	9.516031	-0.180957	2.189689	-0.006807	-0.001032	0.004285	-3.956422	-77.179467	-85.981572
09341	NaN	9.544948	-0.175090	2.159509	-0.008678	0.001480	0.001965	-3.960961	-77.177501	-85.974379
09342	NaN	9.534053	-0.144072	2.195279	-0.005332	0.000485	0.005034	-3.970112	-77.175868	-85.963724
09343	NaN	9.486753	-0.170511	2.203742	-0.008481	-0.000534	0.002751	-3.976433	-77.174960	-85.964144
09344	NaN	9.544956	-0.176534	2.159356	-0.006433	-0.003803	0.003054	-3.981991	-77.175856	-85.957821
09345	NaN	9.515703	-0.164958	2.173398	-0.010738	0.005379	0.000261	-3.982165	-77.171557	-85.959433
09346	NaN	9.515975	-0.183618	2.189711	-0.009947	-0.002682	0.003402	-3.990413	-77.171799	-85.952416
09347	NaN	9.521106	-0.181493	2.155616	-0.008690	0.002110	0.000565	-3.991167	-77.169511	-85.953594
09348	NaN	9.521072	-0.181879	2.155733	-0.010332	0.000719	0.003233	-3.998613	-77.167815	-85.947626
09349	NaN	9.521038	-0.182264	2.155850	-0.008690	0.002111	0.000564	-3.998535	-77.165224	-85.947704
09350	NaN	9.534246	-0.165437	2.211744	-0.008503	0.000726	-0.000051	-3.996692	-77.163656	-85.950189
09351	NaN	9.515851	-0.185280	2.190109	-0.008680	0.001480	0.001965	-4.000735	-77.161572	-85.948199
09352	NaN	9.539641	-0.181705	2.194002	-0.008316	-0.000659	-0.000668	-3.997482	-77.160820	-85.952019
09353	NaN	9.539633	-0.181965	2.194018	-0.010344	0.001349	0.001832	-4.002572	-77.158965	-85.952340
09354	NaN	9.544762	-0.179765	2.159947	-0.009969	-0.001421	0.000599	-4.003579	-77.158597	-85.952764
09355	NaN	9.515845	-0.186433	2.190037	-0.010157	-0.000036	0.001216	-4.006891	-77.157388	-85.948995
09356	NaN	9.515553	-0.168397	2.173794	-0.009980	-0.000791	-0.000801	-4.004282	-77.156717	-85.953134
09357	NaN	9.544832	-0.180570	2.159567	-0.013099	-0.003700	0.001116	-4.009953	-77.157699	-85.950081
09358	NaN	9.521370	-0.203020	2.171684	-0.008494	0.000095	0.001349	-4.011728	-77.156435	-85.948850
09359	NaN	9.515638	-0.169382	2.173344	-0.006820	-0.000404	0.002883	-4.017172	-77.155329	-85.944860
09360	NaN	9.515940	-0.188044	2.189486	-0.010158	-0.000036	0.001215	-4.019587	-77.154146	-85.943950
09361	NaN	9.510213	-0.154431	2.191137	-0.008484	-0.000535	0.002750	-4.025978	-77.153160	-85.932397
09362	NaN	9.521106	-0.186234	2.155211	-0.004783	-0.003042	0.001783	-4.027266	-77.153671	-85.929483
09363	NaN	9.515714	-0.170885	2.172895	-0.010148	-0.000667	0.002616	-4.033944	-77.152670	-85.922469
09364	NaN	9.515748	-0.171213	2.172720	-0.008120	-0.002674	0.000116	-4.032900	-77.153038	-85.923908
09365	NaN	9.521849	-0.223883	2.186833	-0.006426	-0.004435	0.004450	-4.042636	-77.154079	-85.908565
09366	NaN	9.486689	-0.160096	2.185931	-0.007923	-0.004689	0.000899	-4.043800	-77.155568	-85.907624
09367	NaN	9.539828	-0.168565	2.175280	-0.006239	-0.005820	0.003833	-4.052575	-77.157639	-85.900598
09368	NaN	9.521527	-0.188533	2.153149	-0.008298	-0.001920	0.002133	-4.056558	-77.157495	-85.896987
09369	NaN	9.516197	-0.173218	2.170591	-0.004388	-0.007073	0.003349	-4.063178	-77.160249	-85.890104
09370	NaN	9.516325	-0.173608	2.169998	-0.006250	-0.005189	0.002433	-4.067322	-77.161960	-85.885123
09371	NaN	9.516722	-0.192314	2.185715	-0.008101	-0.003936	0.002916	-4.074621	-77.163008	-85.880115
09372	NaN	9.545732	-0.186287	2.155099	-0.009588	-0.004820	0.000766	-4.076434	-77.164577	-85.879488
09373	NaN	9.540099	-0.152393	2.156432	-0.004618	-0.003163	-0.001635	-4.069856	-77.165240	-85.884788
09374	NaN	9.511565	-0.177113	2.202428	-0.006271	-0.003926	-0.000368	-4.066764	-77.166344	-85.887242
09375	NaN	9.535456	-0.173409	2.205907	-0.006272	-0.003926	-0.000368	-4.064703	-77.167487	-85.890011
09376	NaN	9.493044	-0.178499	2.163756	-0.011274	-0.003689	-0.002168	-4.059919	-77.168528	-85.897141
09377	NaN	9.546132	-0.186852	2.153281	-0.006624	-0.002420	0.003667	-4.067467	-77.168454	-85.884122
09378	NaN	9.498608	-0.194566	2.145171	-0.005919	-0.005432	-0.004403	-4.054314	-77.170582	-85.896686
09379	NaN	9.511712	-0.159298	2.184271	-0.006075	-0.005942	0.000414	-4.054507	-77.172835	-85.893593
09380	NaN	9.517253	-0.175169	2.165800	-0.006075	-0.005942	0.000414	-4.053623	-77.175059	-85.893667
09381	NaN	9.541484	-0.189926	2.185275	-0.004587	-0.005058	0.002565	-4.057860	-77.176608	-85.886026
09382	NaN	9.517162	-0.157419	2.148643	-0.007926	-0.004689	0.000899	-4.059031	-77.178097	-85.885079
09383	NaN	9.517908	-0.194382	2.180361	-0.006054	-0.007206	0.003214	-4.066999	-77.181150	-85.875639
09384	NaN	9.522796	-0.173759	2.129690	-0.006460	-0.002541	0.000250	-4.065318	-77.181437	-85.876756
09385	NaN	9.523238	-0.192293	2.145237	-0.004017	-0.009843	0.002111	-4.068726	-77.185681	-85.871871
09386	NaN	9.518283	-0.195215	2.178648	-0.008113	-0.003305	0.001517	-4.071313	-77.186353	-85.869583
09387	NaN	9.517746	-0.158934	2.145944	-0.006252	-0.005190	0.002432	-4.076432	-77.188087	-85.864714
09388	NaN	9.547349	-0.189400	2.147652	-0.006460	-0.002541	0.000250	-4.074752	-77.188374	-85.865831
09389	NaN	9.536935	-0.176534	2.199258	-0.006263	-0.004558	0.001032	-4.076489	-77.189859	-85.861017
09390	NaN	9.542151	-0.174080	2.164631	-0.005890	-0.007326	-0.000205	-4.074196	-77.192900	-85.862426
09391	NaN	9.523854	-0.193759	2.142369	-0.004785	-0.003042	0.001783	-4.076078	-77.193291	-85.858496
09392	NaN	9.518840	-0.196521	2.176097	-0.007950	-0.003424	-0.001901	-4.070003	-77.194170	-85.864996
09393	NaN	9.518274	-0.159993	2.143520	-0.001456	-0.002780	0.002048	-4.070614	-77.194479	-85.869643
09394	NaN	9.518950	-0.196880	2.175582	-0.009976	-0.001419	0.000603	-4.071635	-77.194111	-85.870056
09395	NaN	9.518649	-0.178678	2.159369	-0.006669	0.000108	-0.001931	-4.064750	-77.192867	-85.875749
09396	NaN	9.537066	-0.159223	2.181101	-0.006658	-0.000525	-0.000531	-4.060859	-77.192033	-85.879249
09397	NaN	9.537086	-0.159207	2.181012	-0.004818	-0.001145	-0.002417	-4.051959	-77.191568	-85.888919
09398	NaN	9.529482	-0.210064	2.123370	-0.016844	0.000705	-0.002109	-4.049720	-77.190095	-85.896710
09399	NaN	9.478900	-0.153711	2.225677	0.012539	0.008483	-0.000662	-4.033452	-77.183995	-85.902707
09400	NaN	9.513703	-0.181369	2.192827	-0.022273	-0.026404	0.000544	-4.045807	-77.197909	-85.898722
09401	NaN	9.558510	-0.185347	2.074930	-0.005553	-0.008196	-0.005643	-4.030572	-77.201622	-85.913699
09402	NaN	9.548004	-0.172235	2.127078	-0.011512	0.012182	-0.000044	-4.028437	-77.193506	-85.918251
09403	NaN	9.479500	-0.172241	2.240597	0.003657	0.011979	0.000532	-4.019525	-77.185330	-85.923428
09404	NaN	9.513521	-0.163315	2.176082	-0.019910	-0.017325	-0.000299	-4.026785	-77.194088	-85.923280
09405	NaN	9.558841	-0.204112	2.090971	-0.011084	-0.005703	-0.001387	-4.024780	-77.196087	-85.922485
09406	NaN	9.519040	-0.179385	2.157586	-0.003759	0.017623	0.001079	-4.020072	-77.184816	-85.925120
09407	NaN	9.484438	-0.170281	2.207097	-0.008009	0.011694	-0.001796	-4.012674	-77.177087	-85.932767
09408	NaN	9.513287	-0.163927	2.177059	-0.014217	-0.007982	-0.000874	-4.013574	-77.180529	-85.935796
09409	NaN	9.547717	-0.173213	2.128288	-0.011096	-0.005069	-0.002788	-4.008202	-77.182326	-85.940870
09410	NaN	9.519128	-0.198101	2.174693	-0.009279	0.007529	-0.000367	-4.004818	-77.176882	-85.945392
09411	NaN	9.507856	-0.148554	2.195104	-0.005763	0.006408	-0.000720	-3.999389	-77.171962	-85.945220
09412	NaN	9.537024	-0.160517	2.181188	-0.014799	-0.002564	-0.001817	-3.997305	-77.172344	-85.951651
09413	NaN	9.512966	-0.146240	2.160909	-0.013112	-0.003700	0.001114	-4.002820	-77.173292	-85.950007
09414	NaN	9.548209	-0.210723	2.161089	-0.008896	0.004129	-0.000206	-4.000223	-77.169785	-85.953496
09415	NaN	9.513170	-0.165008	2.177490	-0.009094	0.006146	-0.000985	-3.996545	-77.165233	-85.959507
09416	NaN	9.536579	-0.142948	2.165582	-0.010189	0.001230	-0.001578	-3.991758	-77.163437	-85.966003
09417	NaN	9.513382	-0.183685	2.194027	-0.010354	0.001346	0.001839	-3.996306	-77.161361	-85.963283
09418	NaN	9.513039	-0.165623	2.178013	-0.008513	0.000728	-0.000046	-3.994490	-77.159791	-85.965746
09419	NaN	9.513292	-0.184211	2.194374	-0.012415	0.005250	0.000148	-3.995586	-77.155650	-85.967960
09420	NaN	9.518633	-0.200110	2.176673	-0.011844	0.000466	-0.000313	-3.995057	-77.154241	-85.971061
09421	NaN	9.536691	-0.162565	2.182490	-0.010366	0.001980	0.000440	-3.996035	-77.151857	-85.970231
09422	NaN	9.518246	-0.182264	2.160847	-0.010366	0.001980	0.000440	-3.996282	-77.149552	-85.971666
09423	NaN	9.513103	-0.185125	2.195118	-0.010388	0.003249	-0.002358	-3.989711	-77.146460	-85.980764
09424	NaN	9.518172	-0.182502	2.161153	-0.014990	-0.001179	-0.001201	-3.989051	-77.146026	-85.985847
09425	NaN	9.513000	-0.185270	2.195548	-0.005974	0.009060	-0.002894	-3.978092	-77.139797	-85.996285
09426	NaN	9.512537	-0.166852	2.180112	-0.008910	0.004763	-0.001604	-3.971910	-77.135982	-86.003460
09427	NaN	9.512552	-0.166751	2.180053	-0.009257	-0.005685	-0.004682	-3.960575	-77.138118	-86.015233
09428	NaN	9.541554	-0.160075	2.149425	-0.016294	-0.003443	-0.003975	-3.954114	-77.139087	-86.027034
09429	NaN	9.512245	-0.148134	2.163949	-0.003029	0.012724	-0.002783	-3.941286	-77.130793	-86.035865
09430	NaN	9.488863	-0.188509	2.193166	-0.010786	0.007284	-0.003914	-3.929983	-77.125627	-86.049395
09431	NaN	9.512011	-0.148047	2.164984	-0.011265	-0.004954	0.000620	-3.933391	-77.127278	-86.045398
09432	NaN	9.494017	-0.185852	2.158863	-0.007977	-0.002152	-0.004707	-3.920121	-77.127537	-86.059296
09433	NaN	9.541873	-0.196183	2.183022	-0.004157	0.009714	-0.007574	-3.895741	-77.120899	-86.082237
09434	NaN	9.512488	-0.184072	2.197868	-0.014108	0.006387	-0.002783	-3.889350	-77.116200	-86.092682
09435	NaN	9.512397	-0.183799	2.198287	-0.005053	0.002782	-0.007394	-3.867392	-77.113615	-86.115204
09436	NaN	9.530425	-0.145527	2.204266	-0.011706	0.001621	-0.006531	-3.851078	-77.111783	-86.134415
09437	NaN	9.517758	-0.198565	2.180640	-0.011706	0.001621	-0.006532	-3.835790	-77.109971	-86.151106
09438	NaN	9.511960	-0.164070	2.182836	-0.006918	0.004669	-0.008306	-3.811805	-77.106462	-86.175373
09439	NaN	9.511924	-0.163372	2.183049	-0.011354	0.000126	-0.010571	-3.786151	-77.105567	-86.205752
09440	NaN	9.517736	-0.196540	2.180917	-0.005783	-0.004263	-0.010634	-3.757188	-77.107247	-86.234459
09441	NaN	9.535830	-0.157708	2.186605	-0.009723	0.002164	-0.014632	-3.719720	-77.105152	-86.271689
09442	NaN	9.488492	-0.182473	2.195281	-0.010122	0.006200	-0.016187	-3.677688	-77.101047	-86.316355
09443	NaN	9.517292	-0.174599	2.165678	-0.008445	0.005697	-0.014654	-3.638831	-77.096928	-86.358256
09444	NaN	9.506341	-0.142238	2.202074	-0.008246	0.003678	-0.013878	-3.601936	-77.094167	-86.396551
09445	NaN	9.540934	-0.168410	2.170434	-0.006780	0.005829	-0.014520	-3.562952	-77.090097	-86.434888
09446	NaN	9.535375	-0.151628	2.189021	-0.008635	0.007079	-0.014033	-3.525406	-77.085386	-86.474080
09447	NaN	9.511734	-0.172770	2.202043	-0.014211	0.011466	-0.013970	-3.491105	-77.078028	-86.513722
09448	NaN	9.500565	-0.140416	2.239254	-0.004427	0.014914	-0.015339	-3.446782	-77.068869	-86.557396
09449	NaN	9.505831	-0.154927	2.222139	-0.010080	0.003657	-0.010596	-3.419987	-77.065913	-86.585449
09450	NaN	9.516369	-0.166592	2.170356	-0.007883	0.001550	-0.016521	-3.376753	-77.064426	-86.630038
09451	NaN	9.529177	-0.130580	2.210589	-0.012125	0.006288	-0.009487	-3.353499	-77.059903	-86.655274
09452	NaN	9.505286	-0.133699	2.207157	-0.008415	0.003789	-0.010462	-3.325358	-77.056923	-86.684691
09453	NaN	9.510742	-0.148511	2.189249	-0.009491	-0.001763	-0.009666	-3.301107	-77.056913	-86.708206
09454	NaN	9.529103	-0.128404	2.211034	-0.008014	-0.000247	-0.008909	-3.277194	-77.056185	-86.733049
09455	NaN	9.505321	-0.131690	2.207128	-0.009858	0.000365	-0.007024	-3.259476	-77.054887	-86.750343
09456	NaN	9.505345	-0.131305	2.207046	-0.004645	-0.001890	-0.004445	-3.244980	-77.054951	-86.763543
09457	NaN	9.510860	-0.146519	2.188871	-0.009657	-0.001653	-0.006248	-3.228983	-77.054696	-86.785030
09458	NaN	9.510895	-0.146441	2.188725	-0.006654	-0.001169	0.000859	-3.228735	-77.054174	-86.784791
09459	NaN	9.529275	-0.126999	2.210375	-0.011123	-0.003805	-0.005607	-3.216179	-77.055353	-86.800585
09460	NaN	9.511009	-0.146148	2.188251	-0.006502	-0.000641	-0.003958	-3.203784	-77.054684	-86.812720
09461	NaN	9.505907	-0.148895	2.222226	-0.010012	-0.000162	-0.002207	-3.198178	-77.053554	-86.822459
09462	NaN	9.487236	-0.149884	2.184278	-0.008345	-0.000029	-0.002072	-3.191449	-77.052474	-86.829865
09463	NaN	9.516538	-0.161575	2.169996	-0.007955	-0.003430	-0.001919	-3.186187	-77.053306	-86.835398
09464	NaN	9.511080	-0.145897	2.187959	-0.006893	0.002760	-0.004111	-3.173171	-77.050694	-86.848401
09465	NaN	9.511064	-0.145671	2.188042	-0.008169	-0.000774	-0.004093	-3.161706	-77.049896	-86.862471
09466	NaN	9.540321	-0.157243	2.173965	-0.011881	0.001723	-0.003117	-3.154169	-77.047845	-86.872786
09467	NaN	9.481770	-0.133915	2.202291	-0.006856	0.000849	0.000083	-3.152613	-77.046167	-86.876374
09468	NaN	9.516496	-0.161214	2.170205	-0.006680	0.000104	-0.001938	-3.145255	-77.045005	-86.883447
09469	NaN	9.505613	-0.130148	2.205958	-0.009421	-0.005582	-0.001280	-3.142778	-77.047097	-86.889972
09470	NaN	9.540036	-0.139006	2.157616	-0.006869	0.001486	-0.001315	-3.136891	-77.045124	-86.895647
09471	NaN	9.511104	-0.145783	2.187862	-0.008536	0.001353	-0.001450	-3.132209	-77.043106	-86.900816
09472	NaN	9.534908	-0.142036	2.191697	-0.006466	-0.002552	0.000235	-3.130496	-77.043395	-86.901972
09473	NaN	9.505664	-0.130306	2.205732	-0.010039	0.001113	-0.005003	-3.118044	-77.041662	-86.913081
09474	NaN	9.511489	-0.164130	2.203762	-0.006680	0.000104	-0.001938	-3.110693	-77.040499	-86.920148
09475	NaN	9.529451	-0.126317	2.209654	-0.013349	-0.000429	-0.002478	-3.106399	-77.039537	-86.930694
09476	NaN	9.516984	-0.179751	2.185645	-0.006668	-0.000533	-0.000540	-3.102603	-77.038695	-86.934105
09477	NaN	9.481503	-0.115605	2.185879	-0.008562	0.002628	-0.004245	-3.090668	-77.035949	-86.943521
09478	NaN	9.505603	-0.129986	2.206013	-0.010230	0.002495	-0.004380	-3.078967	-77.033492	-86.957137
09479	NaN	9.511018	-0.145378	2.188260	-0.013754	0.003610	-0.004027	-3.070744	-77.030314	-86.968440
09480	NaN	9.529202	-0.125964	2.210747	-0.007654	0.008287	-0.001616	-3.063673	-77.024457	-86.975791
09481	NaN	9.506006	-0.166654	2.239386	-0.010420	0.003876	-0.003757	-3.054395	-77.021187	-86.985524
09482	NaN	9.504837	-0.111166	2.191786	-0.007086	0.004143	-0.003486	-3.042917	-77.017758	-86.997065
09483	NaN	9.540250	-0.175113	2.191893	-0.008551	0.001990	-0.002848	-3.034812	-77.015446	-87.005258
09484	NaN	9.499587	-0.114014	2.226368	-0.008918	0.004115	-0.000203	-3.032542	-77.011933	-87.008426
09485	NaN	9.529137	-0.144205	2.228579	-0.008741	0.003372	-0.002224	-3.026255	-77.008961	-87.017913
09486	NaN	9.505275	-0.148210	2.224976	-0.008906	0.003477	0.001194	-3.027531	-77.005771	-87.017435
09487	NaN	9.509983	-0.126974	2.175209	-0.005204	0.001619	-0.001180	-3.021379	-77.003467	-87.017722
09488	NaN	9.481065	-0.134074	2.205313	-0.010157	-0.001334	0.004003	-3.030964	-77.002945	-87.009451
09489	NaN	9.481073	-0.134491	2.205256	-0.011862	0.000448	-0.000325	-3.031011	-77.001394	-87.014966
09490	NaN	9.528971	-0.145399	2.229213	-0.007062	0.002867	-0.000691	-3.026636	-76.998609	-87.019203
09491	NaN	9.499665	-0.133952	2.243465	-0.008515	0.000076	0.001344	-3.029241	-76.997266	-87.013334
09492	NaN	9.505184	-0.149779	2.225256	-0.008123	-0.003325	0.001492	-3.031698	-76.997958	-87.011184
09493	NaN	9.534506	-0.161717	2.210898	-0.008326	-0.001305	0.000719	-3.032638	-76.997392	-87.011216
09494	NaN	9.510396	-0.147262	2.190836	-0.008148	-0.002048	-0.001302	-3.028018	-76.997438	-87.016344
09495	NaN	9.504925	-0.131855	2.208823	-0.005193	0.000981	0.000218	-3.025731	-76.995658	-87.022466
09496	NaN	9.505317	-0.150627	2.224632	-0.009779	-0.004097	0.002753	-3.032362	-76.996754	-87.017006
09497	NaN	9.533937	-0.125632	2.178249	-0.011484	-0.002314	-0.001574	-3.029614	-76.996865	-87.024124
09498	NaN	9.510878	-0.166647	2.206212	-0.007038	0.001590	0.002104	-3.032320	-76.994727	-87.021081
09499	NaN	9.528840	-0.129170	2.212125	-0.008124	-0.003325	0.001492	-3.035428	-76.995319	-87.017437
09500	NaN	9.505477	-0.151746	2.223871	-0.008137	-0.002686	0.000094	-3.034346	-76.995688	-87.018927
09501	NaN	9.534438	-0.145029	2.193545	-0.006482	-0.001914	-0.001167	-3.029717	-76.995558	-87.023868
09502	NaN	9.505181	-0.133482	2.207622	-0.006861	0.000848	0.000082	-3.027411	-76.993906	-87.025864
09503	NaN	9.529355	-0.148335	2.227377	-0.006457	-0.003192	0.001627	-3.029957	-76.994470	-87.024586
09504	NaN	9.505294	-0.134011	2.207102	-0.011271	-0.004972	0.000595	-3.032211	-76.996132	-87.024495
09505	NaN	9.505700	-0.152708	2.222855	-0.005194	0.000981	0.000218	-3.029869	-76.994275	-87.024312
09506	NaN	9.510858	-0.149726	2.188664	-0.004435	-0.004542	-0.002282	-3.021024	-76.995778	-87.031594
09507	NaN	9.553389	-0.144935	2.230212	-0.009831	-0.001540	-0.002835	-3.014158	-76.995497	-87.041469
09508	NaN	9.505107	-0.115860	2.190372	-0.006837	-0.000431	0.002877	-3.018929	-76.994491	-87.036187
09509	NaN	9.505872	-0.153194	2.222082	-0.008126	-0.003325	0.001491	-3.022009	-76.995099	-87.035264
09510	NaN	9.529363	-0.131120	2.209753	-0.008139	-0.002686	0.000094	-3.020927	-76.995467	-87.036755
09511	NaN	9.511109	-0.150623	2.187510	-0.006471	-0.002553	0.000229	-3.019971	-76.995722	-87.039513
09512	NaN	9.523631	-0.097828	2.211376	-0.006799	-0.002350	0.007067	-3.035354	-76.995687	-87.023319
09513	NaN	9.505757	-0.136012	2.204986	-0.007773	-0.004807	-0.002554	-3.028539	-76.997289	-87.029968
09514	NaN	9.553073	-0.109874	2.196433	-0.009618	-0.004199	-0.000667	-3.026618	-76.998547	-87.033191
09515	NaN	9.506309	-0.154816	2.220101	-0.004778	-0.003699	0.003158	-3.032235	-76.999409	-87.027088
09516	NaN	9.505653	-0.118201	2.187879	-0.008127	-0.003325	0.001491	-3.034693	-77.000101	-87.024940
09517	NaN	9.506097	-0.137090	2.203453	-0.009783	-0.004098	0.002752	-3.041803	-77.001058	-87.020979
09518	NaN	9.506196	-0.137511	2.202999	-0.006257	-0.005213	0.002397	-3.045685	-77.002802	-87.016270
09519	NaN	9.530073	-0.134166	2.206507	-0.006623	-0.003092	0.005045	-3.057121	-77.003315	-87.005043
09520	NaN	9.525053	-0.137635	2.240139	-0.007939	-0.004706	0.000865	-3.058104	-77.004816	-87.004297
09521	NaN	9.535721	-0.150498	2.187589	-0.008103	-0.004605	0.004283	-3.068420	-77.006120	-86.995762
09522	NaN	9.506177	-0.120802	2.185458	-0.004791	-0.003059	0.001761	-3.069605	-77.006651	-86.992959
09523	NaN	9.506999	-0.158127	2.216909	-0.007926	-0.005346	0.002261	-3.074824	-77.008358	-86.983709
09524	NaN	9.530536	-0.136159	2.204383	-0.004589	-0.005080	0.002531	-3.078075	-77.010022	-86.978667
09525	NaN	9.483442	-0.162828	2.211931	-0.007902	-0.006626	0.005054	-3.090134	-77.012335	-86.967645
09526	NaN	9.536257	-0.152764	2.185093	-0.006233	-0.006493	0.005189	-3.101112	-77.014724	-86.955639
09527	NaN	9.531272	-0.156323	2.218613	-0.004779	-0.003700	0.003157	-3.106281	-77.015393	-86.946969
09528	NaN	9.512672	-0.157600	2.180209	-0.011252	-0.006251	0.003387	-3.115637	-77.017699	-86.939579
09529	NaN	9.483162	-0.127996	2.177976	-0.001429	-0.004075	0.004824	-3.123297	-77.018608	-86.926563
09530	NaN	9.507056	-0.124617	2.181417	-0.009597	-0.005477	0.002126	-3.128475	-77.020511	-86.922488
09531	NaN	9.507506	-0.143575	2.196950	-0.006637	-0.002452	0.003649	-3.135607	-77.020427	-86.916814
09532	NaN	9.531727	-0.158650	2.216490	-0.006461	-0.003191	0.001626	-3.137438	-77.021038	-86.914330
09533	NaN	9.507280	-0.125726	2.180377	-0.006273	-0.004572	0.000999	-3.138087	-77.022225	-86.911545
09534	NaN	9.512799	-0.141486	2.161960	-0.008319	-0.001944	0.002117	-3.142033	-77.022106	-86.907983
09535	NaN	9.526088	-0.125493	2.217850	-0.005007	-0.000397	-0.000405	-3.138516	-77.021181	-86.910335
09536	NaN	9.513572	-0.179047	2.193587	-0.006826	-0.001072	0.004275	-3.146843	-77.020496	-86.901400
09537	NaN	9.537058	-0.157305	2.181275	-0.011443	-0.004870	0.004013	-3.158347	-77.021904	-86.892163
09538	NaN	9.478263	-0.115944	2.193488	-0.003325	-0.000906	0.001126	-3.156829	-77.021222	-86.891272
09539	NaN	9.507911	-0.146257	2.195022	-0.006475	-0.002550	0.000229	-3.155695	-77.021410	-86.894102
09540	NaN	9.502503	-0.130994	2.212947	-0.004994	-0.001038	0.000991	-3.154816	-77.020808	-86.893536
09541	NaN	9.513815	-0.180732	2.192396	-0.008119	-0.003965	0.002886	-3.160993	-77.021563	-86.888935
09542	NaN	9.508102	-0.147014	2.194144	-0.006098	-0.005310	-0.001024	-3.156329	-77.023468	-86.892904
09543	NaN	9.532047	-0.143354	2.197383	-0.009223	-0.008237	0.000871	-3.159155	-77.026876	-86.891294
09544	NaN	9.508707	-0.165983	2.208998	-0.006852	0.000210	0.001484	-3.160393	-77.025544	-86.889649
09545	NaN	9.537226	-0.140955	2.162860	-0.006639	-0.002453	0.003648	-3.167820	-77.025509	-86.876895
09546	NaN	9.502981	-0.132687	2.210793	-0.002949	-0.003665	-0.000128	-3.163351	-77.026445	-86.878810
09547	NaN	9.532293	-0.144484	2.196241	-0.006463	-0.003191	0.001625	-3.166216	-77.027099	-86.875451
09548	NaN	9.503511	-0.151652	2.225982	-0.006275	-0.004571	0.000998	-3.166574	-77.028518	-86.874369
09549	NaN	9.479760	-0.155733	2.221873	-0.006853	0.000210	0.001484	-3.168331	-77.027032	-86.870751
09550	NaN	9.513723	-0.146031	2.157587	-0.006463	-0.003191	0.001625	-3.170166	-77.027641	-86.868265
09551	NaN	9.527518	-0.148756	2.228918	-0.009212	-0.008878	0.002265	-3.176765	-77.031483	-86.866168
09552	NaN	9.514360	-0.165201	2.172267	-0.001267	-0.004175	0.001402	-3.175204	-77.032662	-86.864111
09553	NaN	9.509017	-0.150140	2.189962	-0.008108	-0.004606	0.004282	-3.185434	-77.033952	-86.859619
09554	NaN	9.514537	-0.165891	2.171439	-0.002950	-0.003665	-0.000129	-3.180965	-77.034888	-86.861535
09555	NaN	9.508831	-0.132191	2.173217	-0.004581	-0.005722	0.003924	-3.188007	-77.036623	-86.852013
09556	NaN	9.509310	-0.151239	2.188615	-0.006438	-0.004474	0.004417	-3.196946	-77.037877	-86.842222
09557	NaN	9.509409	-0.151690	2.188152	-0.004594	-0.005080	0.002528	-3.200980	-77.039484	-86.836419
09558	NaN	9.533351	-0.148181	2.191400	-0.007557	-0.008104	0.001004	-3.202584	-77.042923	-86.834814
09559	NaN	9.510032	-0.170647	2.202931	-0.003151	-0.001643	-0.000897	-3.196545	-77.042568	-86.837261
09560	NaN	9.533484	-0.148355	2.190809	-0.008348	-0.000660	-0.000672	-3.193400	-77.041802	-86.840992
09561	NaN	9.504321	-0.136980	2.204765	-0.006264	-0.005213	0.002393	-3.198339	-77.043557	-86.832307
09562	NaN	9.522768	-0.118069	2.226450	-0.010005	-0.001433	0.000589	-3.199387	-77.043193	-86.832710
09563	NaN	9.534072	-0.167666	2.205714	-0.004420	-0.005818	0.000504	-3.198637	-77.045349	-86.828771
09564	NaN	9.504546	-0.137687	2.203751	-0.004996	-0.001038	0.000992	-3.197763	-77.044747	-86.828201
09565	NaN	9.504968	-0.156490	2.219414	-0.008135	-0.003323	0.001491	-3.201103	-77.045414	-86.824992
09566	NaN	9.533886	-0.149884	2.188952	-0.008135	-0.003323	0.001491	-3.203586	-77.046102	-86.822823
09567	NaN	9.510115	-0.153983	2.184921	-0.005184	0.000342	0.001620	-3.205110	-77.044687	-86.819352
09568	NaN	9.528103	-0.116607	2.191107	-0.008699	0.000816	0.003375	-3.212025	-77.042948	-86.812967
09569	NaN	9.504691	-0.139458	2.203014	-0.006641	-0.002454	0.003648	-3.219845	-77.043109	-86.807400
09570	NaN	9.528537	-0.135906	2.206685	-0.004822	-0.001775	-0.001031	-3.213943	-77.042993	-86.811888
09571	NaN	9.510170	-0.155449	2.184579	-0.008686	0.000173	0.004771	-3.225695	-77.041732	-86.802956
09572	NaN	9.504368	-0.121967	2.186850	-0.008525	0.000079	0.001352	-3.227580	-77.040479	-86.801631
09573	NaN	9.533938	-0.152396	2.188556	-0.007055	0.002232	0.000719	-3.227794	-77.038071	-86.802076
09574	NaN	9.504683	-0.140990	2.202948	-0.008538	0.000721	-0.000044	-3.226128	-77.036495	-86.804401
09575	NaN	9.509727	-0.137986	2.168935	-0.006680	-0.000526	-0.000538	-3.223143	-77.035593	-86.805319
09576	NaN	9.533898	-0.153041	2.188684	-0.008700	0.000815	0.003375	-3.230052	-77.033854	-86.798940
09577	NaN	9.528459	-0.137983	2.206893	-0.008538	0.000721	-0.000044	-3.228916	-77.032128	-86.799241
09578	NaN	9.504626	-0.141810	2.203142	-0.005224	0.002270	-0.002565	-3.218874	-77.029748	-86.808213
09579	NaN	9.509995	-0.157218	2.185213	-0.010410	0.002612	-0.000945	-3.216564	-77.027091	-86.814208
09580	NaN	9.528328	-0.138046	2.207454	-0.008565	0.002007	-0.002834	-3.207810	-77.024870	-86.823823
09581	NaN	9.509556	-0.138637	2.169643	-0.008364	-0.000015	-0.002068	-3.201647	-77.023644	-86.831025
09582	NaN	9.509950	-0.157163	2.185412	-0.009847	-0.001526	-0.002832	-3.194129	-77.023443	-86.840126
09583	NaN	9.504912	-0.160164	2.219394	-0.008391	0.001271	-0.004858	-3.181313	-77.021764	-86.858656
09584	NaN	9.528292	-0.137654	2.207637	-0.008754	0.003386	-0.002205	-3.174050	-77.018733	-86.866854
09585	NaN	9.509455	-0.138320	2.170102	-0.012282	0.004502	-0.001846	-3.170340	-77.015022	-86.875386
09586	NaN	9.503961	-0.122715	2.188576	-0.010088	0.002426	-0.007783	-3.150144	-77.012715	-86.897640
09587	NaN	9.528099	-0.137224	2.208495	-0.005212	0.001627	-0.001170	-3.144279	-77.010533	-86.900226
09588	NaN	9.504246	-0.140813	2.204845	-0.011947	0.003674	-0.007289	-3.126216	-77.007495	-86.921384
09589	NaN	9.528009	-0.136558	2.208923	-0.008217	0.000536	-0.006883	-3.107758	-77.006035	-86.942103
09590	NaN	9.527979	-0.136172	2.209079	-0.011934	0.003030	-0.005894	-3.093248	-77.003319	-86.959608
09591	NaN	9.509155	-0.136493	2.171533	-0.008782	0.004673	-0.004995	-3.079512	-76.999540	-86.977386
09592	NaN	9.504060	-0.139389	2.205735	-0.009875	-0.000239	-0.005624	-3.064940	-76.998684	-86.993744
09593	NaN	9.522847	-0.138568	2.243472	-0.009661	-0.002905	-0.003464	-3.056783	-76.999264	-87.004053
09594	NaN	9.527949	-0.135227	2.209266	-0.011533	-0.001015	-0.004364	-3.046387	-76.998812	-87.017101
09595	NaN	9.522555	-0.119638	2.227276	-0.008004	-0.002130	-0.004724	-3.034355	-76.999081	-87.028412
09596	NaN	9.498801	-0.123274	2.223203	-0.008179	-0.001395	-0.002699	-3.026213	-76.998795	-87.037174
09597	NaN	9.523008	-0.138072	2.242819	-0.008354	-0.000660	-0.000675	-3.023673	-76.997947	-87.044630
09598	NaN	9.504305	-0.138898	2.204712	-0.009810	-0.003459	0.001349	-3.026769	-76.998719	-87.042818
09599	NaN	9.509427	-0.136009	2.170374	-0.008139	-0.003327	0.001484	-3.029904	-76.999286	-87.035002
09600	NaN	9.533676	-0.151052	2.189787	-0.009824	-0.002815	-0.000045	-3.029468	-76.999732	-87.036823
09601	NaN	9.509940	-0.155101	2.185602	-0.004798	-0.003063	0.001754	-3.031551	-77.000310	-87.037787
09602	NaN	9.528347	-0.136317	2.207480	-0.011858	-0.000834	0.002474	-3.038265	-76.999546	-87.033466
09603	NaN	9.499160	-0.125173	2.221559	-0.008140	-0.003327	0.001484	-3.041173	-77.000059	-87.028871
09604	NaN	9.528825	-0.155607	2.222853	-0.008342	-0.001304	0.000720	-3.041586	-76.999617	-87.028950
09605	NaN	9.504706	-0.141073	2.202846	-0.007952	-0.004705	0.000853	-3.043575	-77.001124	-87.023591
09606	NaN	9.504786	-0.141295	2.202484	-0.008154	-0.002682	0.000089	-3.042499	-77.001490	-87.025085
09607	NaN	9.523208	-0.122424	2.224334	-0.008329	-0.001948	0.002114	-3.047155	-77.001305	-87.020982
09608	NaN	9.510326	-0.157144	2.183779	-0.011322	-0.003679	-0.002205	-3.042339	-77.002311	-87.028180
09609	NaN	9.523747	-0.141335	2.239475	-0.009638	-0.004192	-0.000676	-3.040877	-77.003408	-87.030856
09610	NaN	9.528478	-0.119693	2.189310	-0.004799	-0.003063	0.001753	-3.042054	-77.003941	-87.028067
09611	NaN	9.481296	-0.146193	2.197185	-0.008531	0.000074	0.001351	-3.044497	-77.002624	-87.032854
09612	NaN	9.528921	-0.139006	2.204834	-0.008316	-0.002594	0.003508	-3.051978	-77.002835	-87.025664
09613	NaN	9.505560	-0.161929	2.216488	-0.008317	-0.002594	0.003508	-3.059660	-77.002788	-87.017776
09614	NaN	9.504836	-0.125222	2.184632	-0.006645	-0.002462	0.003643	-3.066500	-77.002919	-87.010261
09615	NaN	9.524016	-0.143755	2.238177	-0.006847	-0.000439	0.002880	-3.072153	-77.001913	-87.005255
09616	NaN	9.505293	-0.144713	2.200073	-0.006458	-0.003840	0.003012	-3.077505	-77.002852	-86.999156
09617	NaN	9.504971	-0.126564	2.183966	-0.006646	-0.002462	0.003643	-3.085385	-77.003048	-86.992804
09618	NaN	9.529248	-0.141697	2.203251	-0.004424	-0.005819	0.000490	-3.083587	-77.005197	-86.992847
09619	NaN	9.500118	-0.130496	2.217152	-0.009989	-0.002725	0.003373	-3.092630	-77.005449	-86.979790
09620	NaN	9.529394	-0.142393	2.202571	-0.006485	-0.002549	0.000224	-3.090916	-77.005735	-86.980959
09621	NaN	9.524425	-0.146079	2.236285	-0.008304	-0.003239	0.004902	-3.102255	-77.006002	-86.963061
09622	NaN	9.505354	-0.128495	2.182186	-0.007943	-0.005350	0.002245	-3.106765	-77.007828	-86.958699
09623	NaN	9.476599	-0.135943	2.211951	-0.006660	-0.001817	0.002249	-3.111052	-77.007639	-86.951488
09624	NaN	9.535095	-0.159444	2.183005	-0.009802	-0.004103	0.002742	-3.117693	-77.008735	-86.946033
09625	NaN	9.505922	-0.148341	2.197112	-0.005176	-0.000307	0.003015	-3.122476	-77.007526	-86.936860
09626	NaN	9.505939	-0.148679	2.197018	-0.010017	-0.001434	0.000586	-3.123533	-77.007162	-86.937262
09627	NaN	9.505988	-0.148965	2.196786	-0.006473	-0.003195	0.001617	-3.125820	-77.007595	-86.932046
09628	NaN	9.500645	-0.133934	2.214690	-0.006473	-0.003195	0.001617	-3.127642	-77.008206	-86.929578
09629	NaN	9.524513	-0.130391	2.218284	-0.008158	-0.002680	0.000089	-3.126827	-77.008346	-86.931872
09630	NaN	9.501162	-0.153058	2.229884	-0.008145	-0.003326	0.001482	-3.129292	-77.009037	-86.929728
09631	NaN	9.530015	-0.146430	2.199620	-0.005351	0.000424	0.005041	-3.139257	-77.007429	-86.918290
09632	NaN	9.500814	-0.135383	2.213876	-0.008333	-0.001948	0.002114	-3.143208	-77.007312	-86.914731
09633	NaN	9.506309	-0.151211	2.195241	-0.006246	-0.006510	0.005166	-3.154897	-77.009643	-86.901107
09634	NaN	9.524792	-0.132562	2.216958	-0.010019	-0.001433	0.000586	-3.155955	-77.009279	-86.901508
09635	NaN	9.530280	-0.148334	2.198342	-0.006246	-0.006510	0.005165	-3.167473	-77.011539	-86.887370
09636	NaN	9.525378	-0.152245	2.231808	-0.006447	-0.004486	0.004404	-3.176373	-77.012800	-86.877623
09637	NaN	9.482482	-0.138359	2.173866	-0.008133	-0.003971	0.002876	-3.183077	-77.013711	-86.867638
09638	NaN	9.530555	-0.149988	2.197039	-0.008307	-0.003240	0.004901	-3.194108	-77.014243	-86.856798
09639	NaN	9.530217	-0.131845	2.181027	-0.004990	-0.001685	0.002383	-3.197735	-77.014025	-86.856157
09640	NaN	9.506865	-0.154771	2.192583	-0.006435	-0.005133	0.005797	-3.210179	-77.015611	-86.842766
09641	NaN	9.483472	-0.177840	2.204302	-0.012241	0.001924	0.003742	-3.220611	-77.013153	-86.833440
09642	NaN	9.525323	-0.136709	2.214420	-0.006302	-0.003925	-0.000409	-3.217417	-77.014246	-86.836019
09643	NaN	9.512398	-0.171440	2.173652	-0.008121	-0.004617	0.004268	-3.227539	-77.015443	-86.823612
09644	NaN	9.501307	-0.122665	2.193968	-0.003118	-0.003579	0.003278	-3.231622	-77.016220	-86.816851
09645	NaN	9.531349	-0.172001	2.210793	-0.008309	-0.003240	0.004901	-3.243353	-77.016640	-86.801855
09646	NaN	9.506833	-0.139132	2.175079	-0.008309	-0.003240	0.004901	-3.254390	-77.017169	-86.791009
09647	NaN	9.525716	-0.139321	2.212567	-0.008122	-0.004617	0.004268	-3.264494	-77.018393	-86.782901
09648	NaN	9.531567	-0.173865	2.209707	-0.004964	-0.002979	0.005170	-3.274246	-77.018763	-86.771407
09649	NaN	9.507452	-0.159599	2.189692	-0.011468	-0.004878	0.003999	-3.285574	-77.020092	-86.760706
09650	NaN	9.507503	-0.160115	2.189432	-0.005178	-0.000308	0.003016	-3.289725	-77.019005	-86.755086
09651	NaN	9.525938	-0.141544	2.211469	-0.008510	-0.001215	0.004140	-3.299135	-77.018220	-86.745136
09652	NaN	9.507137	-0.142390	2.173539	-0.006864	0.000209	0.001489	-3.300387	-77.016887	-86.743483
09653	NaN	9.502135	-0.146102	2.207516	-0.006851	-0.000438	0.002882	-3.305265	-77.015546	-86.734190
09654	NaN	9.526326	-0.161545	2.227104	-0.010370	0.000032	0.004639	-3.316365	-77.014209	-86.724493
09655	NaN	9.507513	-0.162449	2.189216	-0.010210	-0.000052	0.001220	-3.319943	-77.013046	-86.718500
09656	NaN	9.507148	-0.144130	2.173378	-0.004992	-0.001685	0.002383	-3.322610	-77.012767	-86.714293
09657	NaN	9.526362	-0.162813	2.226858	-0.011870	-0.000829	0.002478	-3.329841	-77.011831	-86.707436
09658	NaN	9.531403	-0.159831	2.192663	-0.004805	-0.003063	0.001749	-3.331029	-77.012360	-86.704637
09659	NaN	9.526064	-0.144968	2.210706	-0.008511	-0.001216	0.004140	-3.340631	-77.011636	-86.694048
09660	NaN	9.526083	-0.145539	2.210585	-0.006839	-0.001086	0.004274	-3.348959	-77.010950	-86.685117
09661	NaN	9.501912	-0.131198	2.190855	-0.008512	-0.001216	0.004140	-3.358572	-77.010262	-86.678280
09662	NaN	9.501964	-0.131713	2.190598	-0.008139	-0.003970	0.002873	-3.364590	-77.011272	-86.672485
09663	NaN	9.502416	-0.150916	2.205984	-0.006639	-0.003110	0.005033	-3.375870	-77.011706	-86.659547
09664	NaN	9.550118	-0.143837	2.213362	-0.004620	-0.004440	0.001115	-3.375583	-77.013044	-86.658153
09665	NaN	9.531751	-0.163376	2.190884	-0.015192	-0.002383	0.004995	-3.391546	-77.013072	-86.647930
09666	NaN	9.507873	-0.167567	2.187267	-0.002632	0.008051	0.000249	-3.386140	-77.007295	-86.650620
09667	NaN	9.491631	-0.121869	2.242556	-0.005392	0.002364	0.000864	-3.385321	-77.004616	-86.645503
09668	NaN	9.507454	-0.149379	2.171685	-0.014260	-0.009269	0.001825	-3.393029	-77.008692	-86.641573
09669	NaN	9.526402	-0.149409	2.208952	-0.004807	-0.003062	0.001748	-3.395034	-77.009221	-86.640838
09670	NaN	9.526469	-0.149694	2.208645	-0.006480	-0.003192	0.001614	-3.396868	-77.009828	-86.638361
09671	NaN	9.531537	-0.146668	2.174299	-0.008141	-0.003970	0.002872	-3.403327	-77.010680	-86.633157
09672	NaN	9.502782	-0.154316	2.204169	-0.006840	-0.001086	0.004274	-3.411654	-77.009992	-86.624229
09673	NaN	9.526639	-0.151014	2.207820	-0.008154	-0.003322	0.001479	-3.414876	-77.010633	-86.622330
09674	NaN	9.507834	-0.151685	2.169861	-0.007053	0.001587	0.002123	-3.417595	-77.008489	-86.619281
09675	NaN	9.521671	-0.155202	2.241659	-0.008328	-0.002593	0.003506	-3.425474	-77.008495	-86.611002
09676	NaN	9.521370	-0.136899	2.225593	-0.006295	-0.004569	0.000979	-3.425834	-77.009910	-86.609929
09677	NaN	9.497643	-0.140914	2.221337	-0.008155	-0.003322	0.001479	-3.429307	-77.010620	-86.605539
09678	NaN	9.526902	-0.152842	2.206560	-0.009815	-0.004100	0.002737	-3.435974	-77.011707	-86.600064
09679	NaN	9.526965	-0.153274	2.206258	-0.008341	-0.001945	0.002113	-3.440648	-77.011539	-86.597965
09680	NaN	9.532011	-0.150257	2.171978	-0.006469	-0.003840	0.003005	-3.446026	-77.012468	-86.591845
09681	NaN	9.503223	-0.157918	2.202011	-0.008900	0.002186	0.004017	-3.454675	-77.009716	-86.586789
09682	NaN	9.502882	-0.139590	2.186123	-0.004436	-0.005816	0.000478	-3.452918	-77.011863	-86.586797
09683	NaN	9.522154	-0.158219	2.239399	-0.010215	-0.000049	0.001221	-3.456215	-77.010611	-86.582005
09684	NaN	9.508713	-0.174042	2.183104	-0.008169	-0.002673	0.000086	-3.455155	-77.010973	-86.583491
09685	NaN	9.526836	-0.136429	2.189349	-0.009870	-0.001505	-0.002832	-3.448089	-77.010613	-86.594151
09686	NaN	9.527240	-0.155144	2.204940	-0.006695	-0.000518	-0.000537	-3.444318	-77.009764	-86.597553
09687	NaN	9.526894	-0.136579	2.189086	-0.006496	-0.002543	0.000220	-3.443171	-77.009892	-86.594318
09688	NaN	9.498492	-0.162571	2.234832	-0.010242	0.001248	-0.001563	-3.438627	-77.008068	-86.600599
09689	NaN	9.503117	-0.140627	2.185033	-0.008157	-0.003322	0.001478	-3.441649	-77.008649	-86.600784
09690	NaN	9.532320	-0.152395	2.170469	-0.008556	0.000729	-0.000036	-3.440000	-77.007070	-86.603101
09691	NaN	9.498190	-0.144571	2.218761	-0.006483	-0.003192	0.001612	-3.442526	-77.007612	-86.601317
09692	NaN	9.532785	-0.171551	2.185755	-0.004823	-0.002414	0.000354	-3.440175	-77.007817	-86.602161
09693	NaN	9.522138	-0.141193	2.222038	-0.007985	-0.004049	-0.000550	-3.438307	-77.008859	-86.598955
09694	NaN	9.503756	-0.160322	2.199537	-0.008171	-0.002673	0.000086	-3.437247	-77.009220	-86.600442
09695	NaN	9.532562	-0.153239	2.169347	-0.006895	0.001508	-0.001293	-3.432113	-77.007108	-86.598621
09696	NaN	9.551413	-0.153069	2.207144	-0.006497	-0.002543	0.000220	-3.430407	-77.007391	-86.599787
09697	NaN	9.503454	-0.141954	2.183483	-0.011533	-0.002282	-0.001575	-3.427614	-77.007490	-86.608999
09698	NaN	9.522332	-0.141861	2.221162	-0.006683	-0.001167	0.000855	-3.427386	-77.006965	-86.608758
09699	NaN	9.503533	-0.142325	2.183113	-0.008172	-0.002673	0.000085	-3.426496	-77.007059	-86.609831
09700	NaN	9.522018	-0.123603	2.205162	-0.006870	0.000209	0.001490	-3.427745	-77.005725	-86.608183
09701	NaN	9.503574	-0.142890	2.182899	-0.006670	-0.001817	0.002247	-3.431791	-77.005449	-86.601325
09702	NaN	9.527843	-0.158195	2.202114	-0.009647	-0.004828	0.000707	-3.433438	-77.007021	-86.600902
09703	NaN	9.493411	-0.131826	2.234444	-0.008146	-0.003972	0.002868	-3.439990	-77.007912	-86.595544
09704	NaN	9.522290	-0.124947	2.203912	-0.004625	-0.004440	0.001109	-3.439700	-77.009249	-86.594157
09705	NaN	9.504262	-0.162943	2.197156	-0.008531	-0.000570	0.002748	-3.445914	-77.008292	-86.590192
09706	NaN	9.498949	-0.148101	2.215276	-0.008160	-0.003322	0.001476	-3.448394	-77.008977	-86.588040
09707	NaN	9.504375	-0.163689	2.196613	-0.004798	-0.003713	0.003136	-3.453825	-77.009756	-86.580016
09708	NaN	9.522922	-0.145171	2.218420	-0.008147	-0.003972	0.002868	-3.459846	-77.010765	-86.574223
09709	NaN	9.528336	-0.160856	2.199789	-0.004984	-0.002337	0.003772	-3.466505	-77.010672	-86.568482
09710	NaN	9.523046	-0.146029	2.217831	-0.008160	-0.003322	0.001476	-3.468987	-77.011357	-86.566328
09711	NaN	9.504643	-0.165248	2.195333	-0.011523	-0.002930	-0.000183	-3.469626	-77.011720	-86.569975
09712	NaN	9.498941	-0.131568	2.197853	-0.006871	0.000210	0.001491	-3.470875	-77.010384	-86.568328
09713	NaN	9.523216	-0.146926	2.217039	-0.004414	-0.007116	0.003254	-3.476591	-77.013027	-86.563518
09714	NaN	9.509838	-0.162760	2.160253	-0.009637	-0.005477	0.002097	-3.481785	-77.014922	-86.559450
09715	NaN	9.504927	-0.166555	2.194008	-0.006884	0.000860	0.000100	-3.480103	-77.013182	-86.563078
09716	NaN	9.533729	-0.159553	2.163758	-0.006487	-0.003193	0.001610	-3.481940	-77.013788	-86.560603
09717	NaN	9.528447	-0.144567	2.181806	-0.006500	-0.002542	0.000219	-3.480973	-77.014033	-86.563124
09718	NaN	9.494010	-0.118153	2.214300	-0.006474	-0.003843	0.003001	-3.486350	-77.014962	-86.557007
09719	NaN	9.528616	-0.145335	2.181013	-0.007950	-0.005998	0.003622	-3.494891	-77.016923	-86.545988
09720	NaN	9.529052	-0.164366	2.196425	-0.010248	0.001253	-0.001558	-3.490352	-77.015097	-86.552268
09721	NaN	9.523724	-0.149443	2.214691	-0.006659	-0.002467	0.003638	-3.497831	-77.015125	-86.544447
09722	NaN	9.500024	-0.153408	2.210300	-0.004071	-0.008567	-0.000803	-3.493113	-77.018888	-86.547279
09723	NaN	9.528900	-0.146245	2.179715	-0.010050	-0.000773	-0.000803	-3.491635	-77.018249	-86.552092
09724	NaN	9.528936	-0.146397	2.179545	-0.006501	-0.002542	0.000219	-3.489931	-77.018531	-86.553259
09725	NaN	9.528983	-0.146670	2.179320	-0.008348	-0.001946	0.002113	-3.494295	-77.018221	-86.547885
09726	NaN	9.524105	-0.150528	2.212978	-0.007978	-0.004697	0.000839	-3.495302	-77.019714	-86.547138
09727	NaN	9.529542	-0.166191	2.194161	-0.004773	-0.005016	0.005917	-3.507771	-77.021117	-86.531414
09728	NaN	9.500046	-0.136438	2.192774	-0.006872	0.000210	0.001493	-3.509024	-77.019780	-86.529765
09729	NaN	9.518566	-0.117839	2.214817	-0.008164	-0.003321	0.001476	-3.512037	-77.020350	-86.528652
09730	NaN	9.505494	-0.152392	2.173879	-0.008137	-0.004623	0.004258	-3.521610	-77.021680	-86.519208
09731	NaN	9.529786	-0.167912	2.192968	-0.003125	-0.003586	0.003268	-3.526610	-77.022449	-86.509869
09732	NaN	9.505676	-0.153319	2.173016	-0.007952	-0.005999	0.003620	-3.534710	-77.024588	-86.501829
09733	NaN	9.530364	-0.187670	2.207697	-0.004972	-0.002990	0.005162	-3.544873	-77.024785	-86.490419
09734	NaN	9.500493	-0.139229	2.190664	-0.006661	-0.002468	0.003638	-3.551737	-77.024903	-86.482888
09735	NaN	9.529701	-0.151125	2.175874	-0.008165	-0.003321	0.001476	-3.554790	-77.025471	-86.479996
09736	NaN	9.530171	-0.170138	2.191124	-0.004629	-0.004439	0.001106	-3.554510	-77.026806	-86.478602
09737	NaN	9.487536	-0.174348	2.149088	-0.010012	-0.002725	0.003370	-3.563553	-77.027134	-86.476801
09738	NaN	9.524952	-0.155600	2.208976	-0.010066	-0.000119	-0.002193	-3.557534	-77.026117	-86.484492
09739	NaN	9.501166	-0.159454	2.204957	-0.006490	-0.003192	0.001609	-3.560075	-77.026635	-86.478974
09740	NaN	9.524632	-0.137295	2.193029	-0.006873	0.000210	0.001494	-3.561327	-77.025298	-86.477327
09741	NaN	9.501220	-0.159977	2.204684	-0.006504	-0.002541	0.000218	-3.560721	-77.025637	-86.475147
09742	NaN	9.501301	-0.160011	2.204333	-0.006148	-0.004640	-0.002448	-3.552521	-77.027213	-86.482772
09743	NaN	9.530118	-0.152747	2.173932	-0.008378	-0.000642	-0.000668	-3.550341	-77.026490	-86.488635
09744	NaN	9.525253	-0.156403	2.207623	-0.006134	-0.005291	-0.001058	-3.545685	-77.028390	-86.492617
09745	NaN	9.525312	-0.156403	2.207368	-0.006716	0.000138	-0.001925	-3.539235	-77.027204	-86.498129
09746	NaN	9.501089	-0.141414	2.187934	-0.008563	0.000733	-0.000030	-3.537596	-77.025622	-86.500443
09747	NaN	9.496599	-0.164051	2.237302	-0.007968	-0.005348	0.002227	-3.542735	-77.027315	-86.493439
09748	NaN	9.525452	-0.157186	2.206708	-0.008153	-0.003973	0.002865	-3.548771	-77.028321	-86.487634
09749	NaN	9.501680	-0.161210	2.202614	-0.005014	-0.001037	0.000990	-3.548335	-77.027529	-86.483607
09750	NaN	9.525158	-0.138999	2.190638	-0.006491	-0.003193	0.001608	-3.550178	-77.028134	-86.481127
09751	NaN	9.530490	-0.154496	2.172178	-0.007059	0.001585	0.002133	-3.553626	-77.025926	-86.476864
09752	NaN	9.507057	-0.177329	2.183911	-0.008352	-0.001946	0.002113	-3.557596	-77.025800	-86.473297
09753	NaN	9.525635	-0.158597	2.205814	-0.004474	-0.004510	-0.002316	-3.549342	-77.027179	-86.477844
09754	NaN	9.530628	-0.155290	2.171517	-0.008510	-0.001875	0.005532	-3.561879	-77.026891	-86.465577
09755	NaN	9.525757	-0.159423	2.205231	-0.009844	-0.003449	0.001341	-3.565835	-77.027633	-86.463107
09756	NaN	9.501606	-0.144607	2.185480	-0.008182	-0.002669	0.000084	-3.564783	-77.027992	-86.464593
09757	NaN	9.520566	-0.144703	2.223048	-0.006506	-0.002540	0.000218	-3.563759	-77.028212	-86.466333
09758	NaN	9.525937	-0.160042	2.204406	-0.008182	-0.002668	0.000084	-3.562708	-77.028571	-86.467818
09759	NaN	9.520272	-0.126301	2.207005	-0.005015	-0.001037	0.000990	-3.562778	-77.028029	-86.470926
09760	NaN	9.502204	-0.164051	2.200140	-0.011364	-0.003647	-0.002212	-3.558001	-77.029030	-86.478106
09761	NaN	9.550355	-0.175543	2.222956	-0.004447	-0.005815	0.000463	-3.556960	-77.031173	-86.483333
09762	NaN	9.549646	-0.138192	2.191410	-0.010043	-0.001422	0.000589	-3.558038	-77.030801	-86.483729
09763	NaN	9.496697	-0.130711	2.202041	-0.008552	0.000081	0.001362	-3.560535	-77.029477	-86.485973
09764	NaN	9.550487	-0.176441	2.222317	-0.008156	-0.003974	0.002864	-3.566573	-77.030483	-86.480169
09765	NaN	9.507438	-0.161851	2.164672	-0.008156	-0.003974	0.002864	-3.573703	-77.031583	-86.475381
09766	NaN	9.550236	-0.158519	2.206046	-0.006678	-0.001818	0.002246	-3.577028	-77.031378	-86.471492
09767	NaN	9.521172	-0.147363	2.220279	-0.007986	-0.004696	0.000834	-3.578864	-77.032859	-86.470745
09768	NaN	9.526553	-0.162857	2.201539	-0.011707	-0.002202	0.001846	-3.584138	-77.032889	-86.467815
09769	NaN	9.526213	-0.144419	2.185692	-0.004818	-0.003065	0.001740	-3.585934	-77.033291	-86.461466
09770	NaN	9.502859	-0.167103	2.197080	-0.009676	-0.004171	-0.000689	-3.584054	-77.034537	-86.464682
09771	NaN	9.526387	-0.144816	2.184909	-0.006310	-0.004568	0.000967	-3.584956	-77.035872	-86.467927
09772	NaN	9.531777	-0.160256	2.166106	-0.011524	-0.003577	0.001207	-3.588751	-77.036711	-86.466405
09773	NaN	9.550382	-0.141842	2.187971	-0.008157	-0.003974	0.002863	-3.595238	-77.037596	-86.464023
09774	NaN	9.503183	-0.168418	2.195579	-0.008356	-0.001946	0.002113	-3.599215	-77.037470	-86.460452
09775	NaN	9.526666	-0.146268	2.183592	-0.004818	-0.003065	0.001740	-3.601168	-77.037995	-86.462269
09776	NaN	9.526769	-0.146552	2.183124	-0.006113	-0.006595	0.001717	-3.603604	-77.040541	-86.458961
09777	NaN	9.497728	-0.135381	2.197306	-0.010047	-0.001421	0.000590	-3.605002	-77.039957	-86.456962
09778	NaN	9.532612	-0.181202	2.179587	-0.008144	-0.004628	0.004253	-3.614597	-77.041287	-86.447503
09779	NaN	9.527405	-0.166599	2.197567	-0.009835	-0.004102	0.002730	-3.621593	-77.042159	-86.441377
09780	NaN	9.508577	-0.167087	2.159267	-0.006284	-0.005874	0.003746	-3.629061	-77.044219	-86.433006
09781	NaN	9.503370	-0.152471	2.177260	-0.010020	-0.002727	0.003370	-3.637447	-77.044274	-86.427077
09782	NaN	9.503452	-0.152921	2.176870	-0.006298	-0.005221	0.002356	-3.641369	-77.046011	-86.422353
09783	NaN	9.527733	-0.168395	2.196005	-0.008555	0.000082	0.001364	-3.644071	-77.044686	-86.416717
09784	NaN	9.498629	-0.157292	2.210492	-0.008357	-0.001946	0.002113	-3.648052	-77.044559	-86.413144
09785	NaN	9.527825	-0.168901	2.195569	-0.007833	-0.004761	-0.002587	-3.641282	-77.046199	-86.422484
09786	NaN	9.551316	-0.146606	2.183574	-0.008541	-0.000572	0.002754	-3.646744	-77.045262	-86.417500
09787	NaN	9.503670	-0.154286	2.175821	-0.006694	-0.001164	0.000857	-3.647082	-77.044654	-86.420644
09788	NaN	9.522642	-0.154615	2.213469	-0.008358	-0.001946	0.002113	-3.651063	-77.044526	-86.417070
09789	NaN	9.498829	-0.158637	2.209538	-0.008556	0.000082	0.001364	-3.653607	-77.043176	-86.414317
09790	NaN	9.527949	-0.170458	2.194911	-0.006865	-0.000444	0.002887	-3.658416	-77.042161	-86.409016
09791	NaN	9.498852	-0.159415	2.209383	-0.008358	-0.001946	0.002113	-3.663310	-77.042105	-86.411621
09792	NaN	9.503812	-0.156031	2.175077	-0.007991	-0.004694	0.000832	-3.664334	-77.043596	-86.410868
09793	NaN	9.522440	-0.137513	2.196958	-0.004820	-0.003065	0.001738	-3.666359	-77.044112	-86.407721
09794	NaN	9.522875	-0.156694	2.212321	-0.008543	-0.000572	0.002754	-3.671819	-77.043175	-86.402738
09795	NaN	9.528603	-0.191080	2.209201	-0.008162	-0.003974	0.002861	-3.678342	-77.044023	-86.393818
09796	NaN	9.498751	-0.142394	2.192434	-0.006682	-0.001818	0.002246	-3.681673	-77.043817	-86.389927
09797	NaN	9.504469	-0.176699	2.189349	-0.008359	-0.001946	0.002113	-3.686477	-77.043668	-86.385139
09798	NaN	9.523065	-0.158380	2.211383	-0.008346	-0.002600	0.003502	-3.694009	-77.043862	-86.377916
09799	NaN	9.504565	-0.177664	2.188857	-0.008346	-0.002600	0.003502	-3.701995	-77.043902	-86.369247
09800	NaN	9.546575	-0.136816	2.199287	-0.006880	0.000210	0.001498	-3.703254	-77.042563	-86.367599
09801	NaN	9.504615	-0.178350	2.188583	-0.004821	-0.003065	0.001738	-3.705036	-77.042986	-86.363864
09802	NaN	9.522838	-0.141248	2.194996	-0.003286	-0.003528	0.006679	-3.717714	-77.043593	-86.348385
09803	NaN	9.547101	-0.156947	2.214175	-0.010235	-0.000044	0.001232	-3.721264	-77.042461	-86.347930
09804	NaN	9.504329	-0.160827	2.172469	-0.008374	-0.001290	0.000724	-3.721696	-77.042009	-86.348008
09805	NaN	9.528220	-0.157356	2.176029	-0.008008	-0.004038	-0.000559	-3.719885	-77.043113	-86.349666
09806	NaN	9.523404	-0.161347	2.209706	-0.008361	-0.001945	0.002113	-3.723868	-77.042984	-86.346093
09807	NaN	9.547682	-0.176803	2.228832	-0.006514	-0.002537	0.000215	-3.723008	-77.043267	-86.348081
09808	NaN	9.504572	-0.161719	2.171340	-0.004639	-0.004439	0.001096	-3.722734	-77.044601	-86.346688
09809	NaN	9.500187	-0.184695	2.220398	-0.008150	-0.004629	0.004249	-3.732929	-77.045834	-86.337546
09810	NaN	9.523723	-0.162434	2.208252	-0.004483	-0.004503	-0.002324	-3.724078	-77.047332	-86.344863
09811	NaN	9.499957	-0.166195	2.204127	-0.005006	-0.001691	0.002379	-3.727369	-77.046924	-86.336695
09812	NaN	9.523875	-0.162805	2.207570	-0.007812	-0.006067	0.000188	-3.726921	-77.049223	-86.337346
09813	NaN	9.505021	-0.162850	2.169288	-0.006331	-0.003911	-0.000426	-3.724185	-77.050140	-86.337252
09814	NaN	9.518751	-0.148005	2.225376	-0.008573	0.000739	-0.000022	-3.722548	-77.048556	-86.339570
09815	NaN	9.500621	-0.185732	2.218453	-0.006331	-0.003911	-0.000427	-3.720154	-77.049618	-86.342324
09816	NaN	9.524148	-0.163389	2.206350	-0.004640	-0.004439	0.001095	-3.719880	-77.050953	-86.340931
09817	NaN	9.529106	-0.159781	2.171969	-0.006332	-0.003911	-0.000427	-3.717342	-77.051970	-86.344028
09818	NaN	9.495238	-0.152365	2.220126	-0.009660	-0.005475	0.002085	-3.722574	-77.053860	-86.339936
09819	NaN	9.524453	-0.163954	2.204989	-0.006163	-0.004629	-0.002457	-3.714833	-77.055285	-86.346381
09820	NaN	9.524556	-0.164021	2.204541	-0.006318	-0.004566	0.000962	-3.715211	-77.056697	-86.345306
09821	NaN	9.524297	-0.145303	2.188390	-0.005769	-0.008687	-0.000965	-3.711414	-77.060308	-86.346805
09822	NaN	9.529741	-0.160502	2.169130	-0.004260	-0.007842	0.001199	-3.711730	-77.063584	-86.344583
09823	NaN	9.511323	-0.179316	2.146152	-0.005967	-0.006658	-0.001711	-3.706080	-77.066185	-86.352231
09824	NaN	9.543678	-0.145637	2.224430	-0.006910	0.001521	-0.001276	-3.700243	-77.064199	-86.357881
09825	NaN	9.525104	-0.164358	2.202144	-0.001495	-0.001500	-0.000775	-3.693740	-77.063866	-86.361445
09826	NaN	9.524313	-0.126878	2.171014	-0.011903	-0.000827	0.002491	-3.700521	-77.063084	-86.357083
09827	NaN	9.530408	-0.180024	2.183441	-0.006699	-0.001164	0.000858	-3.701172	-77.062526	-86.353310
09828	NaN	9.525171	-0.164962	2.201812	-0.008237	-0.000696	-0.004082	-3.689472	-77.061912	-86.365756
09829	NaN	9.548630	-0.142355	2.189996	-0.004852	-0.001754	-0.001040	-3.684122	-77.061673	-86.369001
09830	NaN	9.501408	-0.168544	2.197683	-0.008209	-0.002008	-0.001305	-3.679527	-77.061706	-86.374140
09831	NaN	9.524874	-0.146012	2.185831	-0.006545	-0.001225	-0.002561	-3.671355	-77.061239	-86.380694
09832	NaN	9.501020	-0.149629	2.182098	-0.012144	0.003170	-0.002419	-3.665418	-77.058351	-86.389523
09833	NaN	9.549063	-0.160925	2.205411	-0.001553	0.001124	-0.006329	-3.644316	-77.056573	-86.407280
09834	NaN	9.530066	-0.160607	2.167692	-0.011933	0.000484	-0.000286	-3.644000	-77.055143	-86.410218
09835	NaN	9.525162	-0.164607	2.201875	-0.007278	0.004268	0.000010	-3.642260	-77.051623	-86.411994
09836	NaN	9.519836	-0.149644	2.220620	-0.006912	0.001522	-0.001276	-3.636442	-77.049636	-86.417625
09837	NaN	9.525143	-0.164718	2.201950	-0.012880	-0.005136	-0.002991	-3.631430	-77.051421	-86.425788
09838	NaN	9.548621	-0.142126	2.190049	-0.008422	0.000678	-0.003440	-3.621231	-77.049994	-86.436802
09839	NaN	9.519930	-0.149517	2.220226	-0.008408	0.000021	-0.002052	-3.615409	-77.048901	-86.445794
09840	NaN	9.525168	-0.164448	2.201863	-0.006941	0.002835	-0.004052	-3.602507	-77.046262	-86.458713
09841	NaN	9.530007	-0.160647	2.167947	-0.010058	-0.001419	0.000591	-3.604009	-77.045739	-86.459778
09842	NaN	9.519881	-0.149498	2.220436	-0.005248	0.002305	-0.002531	-3.594005	-77.043348	-86.468728
09843	NaN	9.543675	-0.145771	2.224435	-0.011964	0.001797	-0.003062	-3.587469	-77.041300	-86.482280
09844	NaN	9.524667	-0.145672	2.186755	-0.008578	0.000738	-0.000021	-3.585859	-77.039715	-86.484573
09845	NaN	9.495962	-0.153344	2.216962	-0.008578	0.000738	-0.000021	-3.584786	-77.038010	-86.485727
09846	NaN	9.519819	-0.149882	2.220676	-0.008197	-0.002665	0.000080	-3.583740	-77.038367	-86.487219
09847	NaN	9.524758	-0.146329	2.186315	-0.007985	-0.005352	0.002212	-3.588971	-77.040109	-86.480620
09848	NaN	9.500552	-0.131328	2.166820	-0.010272	0.001268	-0.001541	-3.584473	-77.038275	-86.486873
09849	NaN	9.524825	-0.146759	2.185996	-0.008183	-0.003322	0.001468	-3.587518	-77.038828	-86.481374
09850	NaN	9.530543	-0.181064	2.182764	-0.008550	-0.000577	0.002755	-3.592995	-77.037894	-86.476379
09851	NaN	9.519646	-0.132559	2.204070	-0.008169	-0.003979	0.002855	-3.599957	-77.038918	-86.469094
09852	NaN	9.501549	-0.170546	2.196920	-0.008367	-0.001949	0.002111	-3.603944	-77.038792	-86.465520
09853	NaN	9.495883	-0.136911	2.199891	-0.008579	0.000738	-0.000020	-3.603117	-77.037176	-86.466783
09854	NaN	9.524994	-0.148580	2.185134	-0.008367	-0.001949	0.002111	-3.607103	-77.037050	-86.463209
09855	NaN	9.525473	-0.167724	2.200295	-0.008016	-0.004037	-0.000565	-3.605225	-77.038165	-86.467671
09856	NaN	9.525123	-0.149085	2.184539	-0.008368	-0.001949	0.002111	-3.609212	-77.038040	-86.464097
09857	NaN	9.501743	-0.171844	2.195977	-0.008213	-0.002007	-0.001308	-3.605541	-77.038104	-86.469671
09858	NaN	9.519984	-0.134488	2.202494	-0.006308	-0.005226	0.002343	-3.609437	-77.039843	-86.464979
09859	NaN	9.501500	-0.153331	2.179748	-0.008031	-0.003379	-0.001953	-3.603677	-77.040516	-86.473716
09860	NaN	9.544400	-0.150008	2.221042	-0.008200	-0.002664	0.000079	-3.602631	-77.040872	-86.475208
09861	NaN	9.525463	-0.149962	2.182996	-0.008200	-0.002664	0.000079	-3.602029	-77.041136	-86.482532
09862	NaN	9.496859	-0.157642	2.212816	-0.008017	-0.004037	-0.000565	-3.599492	-77.042301	-86.485448
09863	NaN	9.549440	-0.146548	2.186185	-0.006535	-0.001880	-0.001175	-3.595389	-77.042378	-86.491833
09864	NaN	9.521226	-0.173214	2.231573	-0.011728	-0.002204	0.001846	-3.600683	-77.042407	-86.488894
09865	NaN	9.497018	-0.158418	2.212078	-0.006675	-0.002481	0.003631	-3.607894	-77.042367	-86.483351
09866	NaN	9.520932	-0.154961	2.215550	-0.004490	-0.004497	-0.002332	-3.599017	-77.043858	-86.490700
09867	NaN	9.502414	-0.173680	2.192930	-0.008384	-0.001292	0.000724	-3.600325	-77.043431	-86.492064
09868	NaN	9.526291	-0.170423	2.196541	-0.008355	-0.002608	0.003499	-3.607859	-77.043632	-86.484845
09869	NaN	9.520613	-0.136813	2.199630	-0.007099	0.002896	-0.000628	-3.604385	-77.040826	-86.488640
09870	NaN	9.525825	-0.151937	2.181280	-0.005222	0.000992	0.000247	-3.601479	-77.039085	-86.490292
09871	NaN	9.501983	-0.155705	2.177474	-0.008399	-0.000634	-0.000664	-3.599233	-77.038299	-86.493100
09872	NaN	9.526226	-0.171188	2.196763	-0.012124	0.001858	0.000361	-3.600430	-77.036059	-86.494599
09873	NaN	9.520501	-0.137470	2.200071	-0.007100	0.002896	-0.000628	-3.596723	-77.033142	-86.495013
09874	NaN	9.525737	-0.152634	2.181613	-0.006705	-0.001165	0.000856	-3.596518	-77.032613	-86.494765
09875	NaN	9.496701	-0.141447	2.196072	-0.008019	-0.004036	-0.000567	-3.594453	-77.033667	-86.500243
09876	NaN	9.526275	-0.171965	2.196491	-0.006691	-0.001824	0.002243	-3.597788	-77.033465	-86.496353
09877	NaN	9.521086	-0.157222	2.214727	-0.009699	-0.004163	-0.000700	-3.596837	-77.034751	-86.500680
09878	NaN	9.502145	-0.156971	2.176677	-0.008232	-0.001347	-0.002696	-3.588713	-77.034453	-86.509456
09879	NaN	9.526422	-0.172022	2.195849	-0.004901	0.000224	-0.005205	-3.572833	-77.033242	-86.521446
09880	NaN	9.526422	-0.171781	2.195866	-0.011790	0.000431	-0.003703	-3.563973	-77.031963	-86.533069
09881	NaN	9.496919	-0.141573	2.195122	-0.006706	-0.001166	0.000856	-3.564616	-77.031442	-86.533519
09882	NaN	9.526476	-0.171880	2.195625	-0.006369	-0.002592	-0.003209	-3.554347	-77.031874	-86.543402
09883	NaN	9.526103	-0.152845	2.180001	-0.009913	-0.001473	-0.002829	-3.547703	-77.031642	-86.551698
09884	NaN	9.550352	-0.168154	2.199285	-0.007101	0.002896	-0.000627	-3.543423	-77.028843	-86.555866
09885	NaN	9.497381	-0.160401	2.210373	-0.005070	0.000938	-0.003172	-3.532814	-77.027230	-86.561545
09886	NaN	9.526462	-0.171579	2.195709	-0.008431	0.000685	-0.003438	-3.522660	-77.025794	-86.572521
09887	NaN	9.520754	-0.137534	2.198975	-0.005253	0.002310	-0.002526	-3.513256	-77.023249	-86.576091
09888	NaN	9.502179	-0.155980	2.176599	-0.011426	-0.002313	-0.004996	-3.501413	-77.023582	-86.590561
09889	NaN	9.515486	-0.122186	2.217590	-0.007132	0.004214	-0.003400	-3.490575	-77.019992	-86.600765
09890	NaN	9.515448	-0.121975	2.217762	-0.004888	-0.000434	-0.003818	-3.477627	-77.019208	-86.612524
09891	NaN	9.521160	-0.155544	2.214529	-0.006400	-0.001273	-0.005984	-3.460763	-77.018825	-86.627548
09892	NaN	9.526064	-0.151313	2.180277	-0.014589	-0.004598	-0.004521	-3.452255	-77.020445	-86.640456
09893	NaN	9.521287	-0.155017	2.214018	-0.003223	0.000353	-0.005072	-3.436110	-77.019261	-86.649812
09894	NaN	9.496610	-0.120566	2.179328	-0.011595	-0.001601	-0.002963	-3.429305	-77.019112	-86.659213
09895	NaN	9.526165	-0.150685	2.179882	-0.004888	-0.000433	-0.003818	-3.417743	-77.018473	-86.664358
09896	NaN	9.521338	-0.154460	2.213839	-0.008433	0.000684	-0.003438	-3.407612	-77.017033	-86.675312
09897	NaN	9.502315	-0.154129	2.176135	-0.005225	0.000991	0.000247	-3.406132	-77.015497	-86.676531
09898	NaN	9.545169	-0.150692	2.217689	-0.009762	-0.001526	-0.006251	-3.390115	-77.015416	-86.694306
09899	NaN	9.507642	-0.168706	2.157322	-0.008052	-0.002719	-0.003344	-3.381418	-77.015955	-86.704724
09900	NaN	9.526650	-0.168800	2.195112	-0.008647	0.003376	-0.005565	-3.365749	-77.013046	-86.721487
09901	NaN	9.520907	-0.134416	2.198504	0.001803	0.001395	-0.006060	-3.343754	-77.011201	-86.739165
09902	NaN	9.497630	-0.156517	2.209581	-0.008617	-0.011735	-0.005971	-3.329254	-77.016946	-86.754710
09903	NaN	9.526073	-0.129657	2.163113	-0.010848	-0.007748	-0.004164	-3.321045	-77.020461	-86.766741
09904	NaN	9.526519	-0.148429	2.178489	-0.005837	0.007744	-0.003358	-3.308623	-77.014976	-86.778518
09905	NaN	9.492868	-0.159696	2.243319	-0.002323	0.007948	-0.006511	-3.287246	-77.009500	-86.797637
09906	NaN	9.521095	-0.132538	2.197806	-0.015753	-0.007521	-0.009371	-3.267784	-77.012942	-86.822472
09907	NaN	9.531296	-0.143017	2.144835	-0.009765	-0.001526	-0.006251	-3.252446	-77.012799	-86.840435
09908	NaN	9.515842	-0.116336	2.216377	-0.004083	0.011123	-0.013575	-3.213252	-77.005707	-86.878658
09909	NaN	9.497970	-0.171722	2.225679	-0.008927	0.008708	-0.013236	-3.178941	-77.000002	-86.914604
09910	NaN	9.491766	-0.117690	2.213718	-0.009108	-0.003709	-0.015773	-3.139275	-77.001455	-86.956267
09911	NaN	9.550120	-0.138864	2.183715	-0.017161	-0.006430	-0.019119	-3.096752	-77.004443	-87.007178
09912	NaN	9.549646	-0.118488	2.168510	-0.005602	0.010286	-0.015741	-3.053282	-76.997873	-87.050683
09913	NaN	9.492008	-0.132500	2.230224	-0.005074	0.020622	-0.015883	-3.008885	-76.985428	-87.091500
09914	NaN	9.520448	-0.123449	2.201135	-0.014736	0.001341	-0.017006	-2.968771	-76.984000	-87.136935
09915	NaN	9.526200	-0.156130	2.198000	-0.007980	0.000532	-0.013700	-2.934170	-76.983122	-87.183627
09916	NaN	9.520340	-0.121121	2.201729	-0.010818	0.010612	-0.014108	-2.897841	-76.976291	-87.222875
09917	NaN	9.520610	-0.138839	2.218000	-0.008784	0.008660	-0.016656	-2.854736	-76.970534	-87.272571
09918	NaN	9.491348	-0.126410	2.233384	-0.011914	0.005049	-0.013412	-2.821510	-76.966854	-87.309279
09919	NaN	9.549020	-0.128943	2.189127	-0.012285	0.007790	-0.012117	-2.792276	-76.961610	-87.344383
09920	NaN	9.519790	-0.116883	2.204334	-0.013379	0.002227	-0.011422	-2.765186	-76.959482	-87.375656
09921	NaN	9.501231	-0.134599	2.182155	-0.008352	0.003275	-0.012406	-2.732815	-76.956511	-87.407325
09922	NaN	9.524945	-0.130080	2.186529	-0.015819	0.008242	-0.010351	-2.709088	-76.950904	-87.436583
09923	NaN	9.514600	-0.118669	2.239880	-0.010945	0.009338	-0.007915	-2.688934	-76.944469	-87.459020
09924	NaN	9.490609	-0.121800	2.236777	-0.010575	0.006597	-0.009211	-2.665249	-76.939768	-87.485151
09925	NaN	9.495345	-0.117116	2.203354	-0.010373	0.004565	-0.008473	-2.644301	-76.936224	-87.511125
09926	NaN	9.519563	-0.131945	2.222910	-0.010341	0.003242	-0.005701	-2.629548	-76.933346	-87.527950
09927	NaN	9.489914	-0.101461	2.222442	-0.009953	-0.000161	-0.005612	-2.615710	-76.932323	-87.545845
09928	NaN	9.519102	-0.112268	2.207542	-0.009582	-0.002901	-0.006908	-2.598246	-76.932992	-87.565007
09929	NaN	9.518712	-0.092997	2.191842	-0.004488	-0.004499	-0.002348	-2.589923	-76.934411	-87.574040
09930	NaN	9.519287	-0.111994	2.206761	-0.009702	-0.004179	-0.000716	-2.587938	-76.935649	-87.577383
09931	NaN	9.524652	-0.126873	2.187991	-0.006760	0.000807	-0.003309	-2.577925	-76.934007	-87.585795
09932	NaN	9.519297	-0.112040	2.206714	-0.010461	0.001964	0.000491	-2.578671	-76.931698	-87.586780
09933	NaN	9.519276	-0.112174	2.206797	-0.008425	0.000015	-0.002057	-2.572835	-76.930564	-87.599903
09934	NaN	9.495441	-0.116084	2.202997	-0.010445	0.001302	0.001877	-2.577063	-76.928598	-87.597305
09935	NaN	9.514438	-0.116890	2.240661	-0.004810	-0.003745	0.003106	-2.582715	-76.929639	-87.596708
09936	NaN	9.519432	-0.113085	2.206081	-0.009112	-0.009613	0.000108	-2.583030	-76.933966	-87.597344
09937	NaN	9.519568	-0.113108	2.205491	-0.006373	-0.002595	-0.003220	-2.573835	-76.934466	-87.608794
09938	NaN	9.514706	-0.117197	2.239509	-0.012364	0.004530	-0.001764	-2.569826	-76.930746	-87.615781
09939	NaN	9.519975	-0.132046	2.221140	-0.006761	0.000808	-0.003308	-2.559641	-76.929030	-87.622110
09940	NaN	9.519947	-0.131926	2.221266	-0.008629	0.002048	-0.002794	-2.551234	-76.926756	-87.631414
09941	NaN	9.519387	-0.112863	2.206283	-0.010700	0.005321	-0.003016	-2.543704	-76.922553	-87.642541
09942	NaN	9.519334	-0.112668	2.206524	-0.008275	-0.000029	-0.005478	-2.528716	-76.921536	-87.658394
09943	NaN	9.519846	-0.131555	2.221721	-0.011589	-0.002276	-0.001590	-2.525471	-76.921402	-87.662166
09944	NaN	9.513541	-0.078724	2.209748	-0.008816	0.003418	-0.002145	-2.518634	-76.918326	-87.669969
09945	NaN	9.506155	-0.145982	2.165518	-0.020236	0.000435	-0.005770	-2.510414	-76.916973	-87.683076
09946	NaN	9.490418	-0.119990	2.237688	0.011446	0.020700	-0.004899	-2.483343	-76.904073	-87.699734
09947	NaN	9.521593	-0.048767	2.285883	-0.019535	-0.022099	-0.001229	-2.488935	-76.915725	-87.697421
09948	NaN	9.554028	-0.137968	2.172243	-0.013062	-0.017559	-0.005584	-2.478308	-76.924741	-87.711612
09949	NaN	9.548216	-0.103930	2.175543	-0.005326	0.017417	-0.002085	-2.469052	-76.913736	-87.725397
09950	NaN	9.480348	-0.108969	2.289786	-0.001742	0.014980	0.000305	-2.462987	-76.903980	-87.728247
09951	NaN	9.519219	-0.111788	2.207064	-0.019976	-0.016707	-0.005476	-2.457693	-76.912677	-87.744745
09952	NaN	9.524282	-0.107492	2.172196	-0.014804	-0.002579	-0.005281	-2.447218	-76.913109	-87.759806
09953	NaN	9.524661	-0.126293	2.187988	-0.006452	0.013179	-0.004166	-2.433428	-76.904304	-87.769813
09954	NaN	9.485071	-0.104219	2.256406	-0.012810	0.009921	-0.006005	-2.418741	-76.897596	-87.788027
09955	NaN	9.471852	-0.137183	2.215632	-0.016352	-0.002087	-0.010224	-2.397534	-76.897793	-87.817491
09956	NaN	9.548154	-0.121186	2.193341	-0.015263	0.003478	-0.010909	-2.372878	-76.894888	-87.847384
09957	NaN	9.513433	-0.094505	2.227726	-0.013459	0.017348	-0.010979	-2.345709	-76.883777	-87.879491
09958	NaN	9.479098	-0.086921	2.277781	-0.009483	0.011508	-0.008504	-2.322892	-76.876212	-87.904096
09959	NaN	9.513529	-0.112205	2.244757	-0.012801	-0.003197	-0.010607	-2.299288	-76.877145	-87.926814
09960	NaN	9.518543	-0.107442	2.210193	-0.012172	-0.009961	-0.007019	-2.283797	-76.881834	-87.945480
09961	NaN	9.542399	-0.103522	2.213897	-0.010896	0.006689	-0.002363	-2.278117	-76.876903	-87.957436
09962	NaN	9.483946	-0.081256	2.243952	-0.007157	0.004211	-0.003394	-2.267271	-76.873394	-87.968382
09963	NaN	9.518433	-0.107178	2.210681	-0.011780	-0.000911	-0.000946	-2.265729	-76.872505	-87.971066
09964	NaN	9.513628	-0.111503	2.244374	-0.011407	-0.003649	-0.002248	-2.260899	-76.873470	-87.978334
09965	NaN	9.547161	-0.099150	2.180391	-0.013737	0.003650	-0.007355	-2.245030	-76.870442	-88.003557
09966	NaN	9.518301	-0.106684	2.211271	-0.011546	0.014118	-0.007334	-2.226100	-76.861348	-88.025386
09967	NaN	9.465562	-0.117917	2.238528	-0.012651	0.009217	-0.008037	-2.206899	-76.854909	-88.050398
09968	NaN	9.513039	-0.109886	2.246948	-0.013773	0.004980	-0.010126	-2.183309	-76.851105	-88.078325
09969	NaN	9.512544	-0.090281	2.231694	-0.012769	-0.004524	-0.007843	-2.166230	-76.852654	-88.103290
09970	NaN	9.470331	-0.112227	2.205089	-0.013518	0.000952	-0.005238	-2.154860	-76.851046	-88.118519
09971	NaN	9.517941	-0.104585	2.212920	-0.008451	0.000678	-0.003447	-2.145081	-76.849249	-88.125848
09972	NaN	9.494116	-0.108152	2.209102	-0.013519	0.000952	-0.005238	-2.133717	-76.847640	-88.141071
09973	NaN	9.512556	-0.089349	2.231682	-0.008282	-0.000026	-0.005483	-2.119628	-76.846622	-88.160505
09974	NaN	9.513052	-0.108115	2.246981	-0.010153	0.001213	-0.004967	-2.106982	-76.844856	-88.175064
09975	NaN	9.507131	-0.074151	2.250600	-0.010510	0.003285	-0.002280	-2.101446	-76.841712	-88.179575
09976	NaN	9.483762	-0.097065	2.262223	-0.005425	0.002345	0.000896	-2.100357	-76.839173	-88.179484
09977	NaN	9.512414	-0.089167	2.232294	-0.010118	-0.000118	-0.002199	-2.095089	-76.837957	-88.181967
09978	NaN	9.512380	-0.089361	2.232431	-0.012347	0.003192	0.001005	-2.098158	-76.834932	-88.181679
09979	NaN	9.517696	-0.104513	2.213977	-0.007092	0.001549	0.002145	-2.102099	-76.832867	-88.176011
09980	NaN	9.494368	-0.127645	2.225403	-0.006904	0.000181	0.001493	-2.103512	-76.831555	-88.174219
09981	NaN	9.512880	-0.109432	2.247643	-0.007803	-0.006754	0.001519	-2.107333	-76.834413	-88.175108
09982	NaN	9.488678	-0.094244	2.228033	-0.006360	-0.003259	-0.001847	-2.100568	-76.835141	-88.181395
09983	NaN	9.531486	-0.091158	2.269504	-0.006717	-0.001188	0.000841	-2.100911	-76.834539	-88.182896
09984	NaN	9.517958	-0.105494	2.212803	-0.008044	-0.003389	-0.001983	-2.094790	-76.835344	-88.189513
09985	NaN	9.518064	-0.105582	2.212344	-0.007821	-0.006089	0.000134	-2.094634	-76.837568	-88.185826
09986	NaN	9.512743	-0.090862	2.230822	-0.008642	0.002048	-0.002795	-2.086381	-76.835277	-88.194985
09987	NaN	9.488899	-0.094631	2.227072	-0.005239	0.000977	0.000245	-2.084459	-76.833524	-88.196385
09988	NaN	9.489437	-0.113812	2.242164	-0.004659	-0.003794	-0.000327	-2.080486	-76.834526	-88.198804
09989	NaN	9.512838	-0.091177	2.230403	-0.009693	-0.004851	0.000650	-2.082828	-76.836102	-88.191024
09990	NaN	9.513399	-0.110377	2.245399	-0.006753	0.000144	-0.001927	-2.075790	-76.834882	-88.197824
09991	NaN	9.508045	-0.095515	2.264036	-0.011636	-0.000949	-0.004371	-2.066395	-76.834278	-88.206560
09992	NaN	9.489081	-0.094991	2.226283	-0.008795	0.002084	0.000626	-2.066607	-76.831895	-88.207114
09993	NaN	9.512913	-0.091432	2.230075	-0.006343	-0.003924	-0.000464	-2.063566	-76.832817	-88.213143
09994	NaN	9.495044	-0.129090	2.222431	-0.008233	-0.002020	-0.001331	-2.059028	-76.832825	-88.218246
09995	NaN	9.508157	-0.095771	2.263555	-0.001514	-0.000832	-0.002172	-2.048871	-76.832036	-88.228136
09996	NaN	9.531107	-0.054090	2.236321	-0.013926	-0.013381	0.003167	-2.059602	-76.838456	-88.220907
09997	NaN	9.510903	-0.154888	2.149912	-0.010872	0.005356	0.000413	-2.060851	-76.834178	-88.224853
09998	NaN	9.502306	-0.062653	2.266899	0.001780	0.014537	-0.001426	-2.048892	-76.824706	-88.231685
09999	NaN	9.484261	-0.100285	2.259989	-0.009695	-0.004852	0.000647	-2.050930	-76.826276	-88.234794
10000	NaN	9.536983	-0.088594	2.232822	-0.003108	-0.016737	-0.001401	-2.044574	-76.834711	-88.238748
10001	NaN	9.541625	-0.065346	2.182387	-0.014150	-0.010680	0.001050	-2.050374	-76.839492	-88.240071
10002	NaN	9.496028	-0.149664	2.235539	-0.000001	0.012441	0.006013	-2.057827	-76.831067	-88.228016
10003	NaN	9.473428	-0.052898	2.280433	-0.001649	-0.001464	0.002632	-2.059761	-76.830575	-88.221362
10004	NaN	9.484295	-0.083014	2.242413	-0.009214	-0.011587	0.007644	-2.078600	-76.835875	-88.203034
10005	NaN	9.542841	-0.105714	2.211886	-0.002736	-0.007031	0.003305	-2.083327	-76.838639	-88.199573
10006	NaN	9.495276	-0.113768	2.203827	-0.007227	0.000916	0.006952	-2.098231	-76.836793	-88.184118
10007	NaN	9.461228	-0.107693	2.252662	-0.000339	0.001402	0.004074	-2.102747	-76.834634	-88.170688
10008	NaN	9.513798	-0.096443	2.226084	-0.010936	-0.010383	0.004741	-2.115377	-76.839303	-88.159751
10009	NaN	9.513494	-0.077672	2.209986	-0.000714	-0.008303	-0.000634	-2.109752	-76.842978	-88.164377
10010	NaN	9.538438	-0.112451	2.243791	-0.005169	-0.001690	0.005782	-2.120848	-76.842646	-88.151622
10011	NaN	9.489888	-0.082301	2.205175	-0.004404	-0.007828	0.004552	-2.129915	-76.845874	-88.139209
10012	NaN	9.532780	-0.079601	2.246395	-0.008405	-0.001317	0.000707	-2.130401	-76.845437	-88.139254
10013	NaN	9.509495	-0.102775	2.257620	-0.008574	-0.000616	0.002744	-2.136807	-76.844527	-88.124755
10014	NaN	9.508983	-0.084014	2.242414	-0.001854	0.000571	0.001902	-2.136294	-76.842983	-88.121971
10015	NaN	9.508537	-0.065320	2.226932	-0.013032	-0.006443	0.003144	-2.146178	-76.845258	-88.116916
10016	NaN	9.495930	-0.118039	2.200785	0.000938	0.005601	0.002750	-2.145679	-76.840816	-88.112474
10017	NaN	9.504165	-0.089433	2.276198	-0.006721	-0.001187	0.000842	-2.145860	-76.840180	-88.117564
10018	NaN	9.495964	-0.118721	2.200600	-0.009646	-0.006851	0.004798	-2.157585	-76.842823	-88.106797
10019	NaN	9.490253	-0.085508	2.203482	-0.004592	-0.006461	0.005204	-2.168357	-76.845324	-88.096363
10020	NaN	9.491346	-0.124270	2.233512	-0.003503	-0.000894	0.004533	-2.175368	-76.844561	-88.086823
10021	NaN	9.537987	-0.079015	2.210766	-0.008406	-0.001316	0.000707	-2.176389	-76.844029	-88.086640
10022	NaN	9.496737	-0.139643	2.214546	-0.008406	-0.001316	0.000707	-2.176875	-76.843591	-88.086686
10023	NaN	9.509377	-0.087450	2.240612	-0.005072	0.000279	-0.001789	-2.169863	-76.842272	-88.094501
10024	NaN	9.490940	-0.106081	2.217842	-0.006500	-0.003889	0.002955	-2.175002	-76.843258	-88.088647
10025	NaN	9.514838	-0.102766	2.221349	-0.011572	-0.003610	0.001166	-2.179369	-76.844089	-88.084789
10026	NaN	9.533377	-0.084513	2.243680	-0.004868	-0.001756	-0.001060	-2.173541	-76.843941	-88.089237
10027	NaN	9.485787	-0.092171	2.235734	-0.005002	-0.002392	0.003744	-2.180149	-76.843946	-88.079622
10028	NaN	9.538810	-0.099950	2.224522	-0.005002	-0.002392	0.003744	-2.186224	-76.844058	-88.071924
10029	NaN	9.520354	-0.118999	2.201783	-0.007042	-0.000454	0.006300	-2.199948	-76.842867	-88.058105
10030	NaN	9.509677	-0.090208	2.239230	-0.003690	0.000473	0.005187	-2.208536	-76.841306	-88.047056
10031	NaN	9.490734	-0.090331	2.201218	-0.008302	-0.005322	0.009006	-2.230470	-76.843013	-88.027655
10032	NaN	9.514667	-0.087356	2.204569	-0.001242	-0.005536	0.004089	-2.235537	-76.844915	-88.018781
10033	NaN	9.515821	-0.126048	2.234285	-0.011167	-0.007679	0.002623	-2.243361	-76.847953	-88.011747
10034	NaN	9.514978	-0.088148	2.203195	-0.002573	-0.007732	0.001261	-2.242477	-76.851175	-88.009767
10035	NaN	9.515648	-0.107568	2.217650	-0.006112	-0.007291	0.003029	-2.248331	-76.853972	-88.002732
10036	NaN	9.492458	-0.131029	2.228395	-0.004949	-0.004396	0.007893	-2.264749	-76.855135	-87.984384
10037	NaN	9.491549	-0.093612	2.197565	-0.004764	-0.005763	0.007239	-2.280141	-76.857020	-87.968355
10038	NaN	9.529184	-0.076760	2.257346	-0.004746	-0.006431	0.008622	-2.298436	-76.859329	-87.947960
10039	NaN	9.487468	-0.118970	2.245578	-0.003433	-0.003567	0.010066	-2.319701	-76.859859	-87.925422
10040	NaN	9.516229	-0.111914	2.214942	-0.007914	-0.008724	0.009080	-2.341177	-76.863467	-87.903625
10041	NaN	9.505789	-0.083541	2.251569	-0.002841	-0.009006	0.010867	-2.364526	-76.867040	-87.877326
10042	NaN	9.487999	-0.121884	2.243176	-0.004023	-0.011232	0.004620	-2.373104	-76.872185	-87.866484
10043	NaN	9.516846	-0.114444	2.212158	-0.002691	-0.009037	0.007446	-2.388351	-76.875990	-87.849317
10044	NaN	9.488406	-0.123423	2.241368	-0.006230	-0.008595	0.009215	-2.409226	-76.879514	-87.827148
10045	NaN	9.511909	-0.101618	2.229238	-0.004545	-0.008466	0.009349	-2.430253	-76.882939	-87.801349
10046	NaN	9.540673	-0.094525	2.198531	-0.004934	-0.005064	0.009276	-2.450187	-76.884437	-87.779383
10047	NaN	9.517952	-0.137462	2.224513	-0.006620	-0.005192	0.009142	-2.471715	-76.886137	-87.764544
10048	NaN	9.493719	-0.122942	2.205042	-0.004952	-0.004395	0.007893	-2.488200	-76.887283	-87.746131
10049	NaN	9.489580	-0.147049	2.253424	-0.004062	-0.009895	0.001853	-2.490802	-76.891758	-87.741872
10050	NaN	9.512593	-0.105804	2.226123	-0.008103	-0.007356	0.009735	-2.513950	-76.894551	-87.718473
10051	NaN	9.518080	-0.121349	2.206475	-0.005714	-0.011359	0.004483	-2.523951	-76.899733	-87.707634
10052	NaN	9.513043	-0.107200	2.224131	-0.007400	-0.011488	0.004349	-2.533917	-76.905024	-87.697356
10053	NaN	9.518542	-0.122546	2.204415	-0.006084	-0.008625	0.005793	-2.546499	-76.908382	-87.683140
10054	NaN	9.513409	-0.108520	2.222502	-0.006471	-0.005222	0.005721	-2.558638	-76.910052	-87.670085
10055	NaN	9.537314	-0.105561	2.225987	-0.008543	-0.001947	0.005516	-2.571617	-76.909769	-87.658833
10056	NaN	9.513494	-0.110055	2.222063	-0.007209	0.000246	0.008343	-2.590027	-76.908240	-87.639772
10057	NaN	9.518787	-0.125488	2.203190	-0.006691	-0.002517	0.003611	-2.597336	-76.908332	-87.633639
10058	NaN	9.513612	-0.111360	2.221493	-0.009660	-0.006845	0.004797	-2.609215	-76.910952	-87.622725
10059	NaN	9.490398	-0.134757	2.232262	-0.004804	-0.004426	0.004472	-2.617727	-76.912102	-87.614513
10060	NaN	9.513866	-0.112517	2.220347	-0.007790	-0.008084	0.004276	-2.627398	-76.915444	-87.604767
10061	NaN	9.519252	-0.127812	2.201046	-0.004988	-0.003059	0.005128	-2.637563	-76.915777	-87.590738
10062	NaN	9.514060	-0.113836	2.219449	-0.004954	-0.004397	0.007892	-2.654104	-76.916912	-87.572270
10063	NaN	9.537443	-0.092235	2.207877	-0.005638	-0.000936	0.014662	-2.687889	-76.915831	-87.538449
10064	NaN	9.490767	-0.139135	2.230426	-0.000431	-0.000582	0.011643	-2.710635	-76.914677	-87.510951
10065	NaN	9.537522	-0.094452	2.207443	-0.009663	-0.006843	0.004797	-2.722850	-76.917171	-87.505909
10066	NaN	9.514183	-0.117803	2.218713	-0.009350	0.006199	0.002610	-2.727668	-76.912380	-87.502065
10067	NaN	9.480164	-0.111530	2.268195	-0.002623	0.007377	0.001763	-2.727104	-76.906881	-87.496763
10068	NaN	9.490708	-0.141326	2.230538	-0.010982	-0.009704	0.003350	-2.736540	-76.911171	-87.489135
10069	NaN	9.542856	-0.110919	2.188266	-0.007627	-0.008780	0.002235	-2.741744	-76.914846	-87.480135
10070	NaN	9.514359	-0.119468	2.217869	-0.005191	-0.001022	0.004401	-2.749433	-76.914138	-87.470895
10071	NaN	9.509160	-0.105317	2.236370	-0.006493	-0.004553	0.004337	-2.758900	-76.915401	-87.455716
10072	NaN	9.490670	-0.124355	2.213338	-0.004956	-0.004398	0.007891	-2.775450	-76.916527	-87.437241
10073	NaN	9.485498	-0.110441	2.231728	-0.003287	-0.003601	0.006643	-2.788577	-76.917144	-87.415159
10074	NaN	9.514665	-0.122452	2.216394	-0.005106	-0.004370	0.011311	-2.813637	-76.918156	-87.388034
10075	NaN	9.519521	-0.119134	2.182009	-0.003236	-0.005610	0.010789	-2.837016	-76.919818	-87.364538
10076	NaN	9.485803	-0.113577	2.230274	-0.001367	-0.006850	0.010266	-2.857674	-76.922274	-87.339735
10077	NaN	9.519800	-0.121184	2.180681	-0.004557	-0.008470	0.009342	-2.878588	-76.925553	-87.313877
10078	NaN	9.515251	-0.126570	2.213644	-0.004191	-0.011203	0.008030	-2.895915	-76.930561	-87.294155
10079	NaN	9.496910	-0.145630	2.189864	-0.007216	-0.013520	0.005068	-2.908267	-76.936823	-87.283805
10080	NaN	9.515711	-0.127742	2.211598	-0.004660	-0.004452	0.001051	-2.907828	-76.938169	-87.282598
10081	NaN	9.515318	-0.108949	2.196047	-0.004809	-0.004425	0.004471	-2.916548	-76.939322	-87.269013
10082	NaN	9.515929	-0.128574	2.210613	-0.004443	-0.007158	0.003158	-2.921524	-76.942155	-87.262119
10083	NaN	9.486496	-0.098825	2.209897	-0.008182	-0.004677	0.004205	-2.932167	-76.943732	-87.254113
10084	NaN	9.511388	-0.134062	2.243603	-0.005009	-0.002388	0.003746	-2.938320	-76.943818	-87.246343
10085	NaN	9.516131	-0.130168	2.209651	-0.007244	0.001586	0.005583	-2.950482	-76.941582	-87.237272
10086	NaN	9.516143	-0.130837	2.209559	-0.008366	-0.003310	0.004861	-2.961426	-76.942162	-87.226559
10087	NaN	9.492372	-0.134969	2.205405	-0.004827	-0.003755	0.003089	-2.966543	-76.942982	-87.223107
10088	NaN	9.511070	-0.116871	2.227658	-0.008069	-0.003364	-0.001979	-2.960448	-76.943795	-87.229710
10089	NaN	9.516888	-0.151030	2.223496	-0.006297	-0.006588	0.005062	-2.971669	-76.946142	-87.215619
10090	NaN	9.511348	-0.117516	2.226436	-0.007488	-0.008804	-0.001187	-2.967892	-76.950044	-87.219501
10091	NaN	9.516673	-0.132273	2.207190	-0.006748	-0.000504	-0.000532	-2.964418	-76.948947	-87.221282
10092	NaN	9.511950	-0.137028	2.241039	-0.006896	-0.000478	0.002888	-2.969294	-76.947964	-87.215934
10093	NaN	9.516728	-0.132974	2.206911	-0.008201	-0.004007	0.002822	-2.975387	-76.948806	-87.212353
10094	NaN	9.487696	-0.122385	2.221739	-0.008766	0.000763	0.003412	-2.982468	-76.947097	-87.205842
10095	NaN	9.468572	-0.121937	2.184048	-0.003522	-0.000226	0.003154	-2.986635	-76.945919	-87.201345
10096	NaN	9.535401	-0.116036	2.229242	-0.011775	-0.002222	0.001832	-2.991922	-76.945965	-87.198445
10097	NaN	9.493058	-0.138263	2.202244	-0.004082	-0.009892	0.001840	-2.994115	-76.950247	-87.196442
10098	NaN	9.517048	-0.134954	2.205411	-0.008219	-0.003337	0.001441	-2.996544	-76.950942	-87.194384
10099	NaN	9.516616	-0.116126	2.190049	-0.008402	-0.001970	0.002098	-3.001455	-76.950918	-87.193256
10100	NaN	9.493817	-0.158404	2.216113	-0.008037	-0.004703	0.000783	-3.002334	-76.952415	-87.192682
10101	NaN	9.516804	-0.116837	2.189194	-0.009691	-0.006170	0.003413	-3.011525	-76.954603	-87.178940
10102	NaN	9.493520	-0.140152	2.200136	-0.005193	-0.001023	0.004403	-3.019236	-76.953885	-87.169680
10103	NaN	9.517381	-0.137076	2.203839	-0.003506	-0.000897	0.004536	-3.026820	-76.953014	-87.161978
10104	NaN	9.488390	-0.126628	2.218538	-0.009857	-0.005474	0.005451	-3.040373	-76.954811	-87.149465
10105	NaN	9.488551	-0.127072	2.217822	-0.014242	-0.009304	-0.001722	-3.040120	-76.959036	-87.150416
10106	NaN	9.512612	-0.123687	2.220696	-0.004084	-0.009892	0.001837	-3.042025	-76.963469	-87.146465
10107	NaN	9.517468	-0.119439	2.186164	-0.006534	-0.003211	0.001574	-3.044639	-76.964062	-87.138268
10108	NaN	9.518062	-0.138908	2.200780	-0.004465	-0.006488	0.001771	-3.046156	-76.966550	-87.134939
10109	NaN	9.517689	-0.120129	2.185163	-0.006500	-0.004552	0.004336	-3.055520	-76.967787	-87.123900
10110	NaN	9.518287	-0.140006	2.199741	-0.006466	-0.005894	0.007098	-3.071275	-76.969772	-87.107132
10111	NaN	9.518345	-0.140592	2.199450	-0.001835	-0.000101	0.003288	-3.075009	-76.968570	-87.099229
10112	NaN	9.489810	-0.149301	2.229431	-0.006847	-0.002491	0.007033	-3.090372	-76.968609	-87.083088
10113	NaN	9.517956	-0.122573	2.183863	-0.006336	-0.005247	0.002296	-3.094611	-76.970274	-87.077769
10114	NaN	9.513404	-0.127671	2.217076	-0.011166	-0.009003	0.005383	-3.109248	-76.974088	-87.064914
10115	NaN	9.518302	-0.123751	2.182292	-0.005939	-0.009322	0.003742	-3.117939	-76.978218	-87.052568
10116	NaN	9.489928	-0.132319	2.211617	-0.004450	-0.007159	0.003151	-3.122970	-76.981046	-87.045623
10117	NaN	9.514394	-0.148413	2.229913	-0.006501	-0.004552	0.004336	-3.132149	-76.982211	-87.035850
10118	NaN	9.495323	-0.148100	2.191818	-0.006666	-0.003857	0.006375	-3.145983	-76.983048	-87.021172
10119	NaN	9.514027	-0.130601	2.214230	-0.003670	-0.000204	0.006576	-3.158426	-76.981621	-87.005644
10120	NaN	9.514055	-0.131254	2.214069	-0.004995	-0.003061	0.005126	-3.168106	-76.982041	-86.994248
10121	NaN	9.514103	-0.132103	2.213813	-0.003619	-0.002218	0.010718	-3.191336	-76.981770	-86.971228
10122	NaN	9.485567	-0.141091	2.243829	-0.007063	0.000218	0.004930	-3.201263	-76.980319	-86.960794
10123	NaN	9.519368	-0.148165	2.194522	-0.001060	-0.007580	0.004796	-3.209226	-76.983259	-86.941843
10124	NaN	9.490971	-0.156840	2.223963	-0.006305	-0.006589	0.005057	-3.219980	-76.985696	-86.930114
10125	NaN	9.514532	-0.134654	2.211814	-0.005745	-0.011358	0.004462	-3.230258	-76.990914	-86.927468
10126	NaN	9.490899	-0.138728	2.207053	-0.004256	-0.009196	0.003872	-3.237280	-76.994880	-86.918367
10127	NaN	9.544484	-0.165929	2.209860	-0.002370	-0.011109	0.004726	-3.245862	-76.999702	-86.903753
10128	NaN	9.514669	-0.117138	2.193962	-0.003076	-0.006317	0.008742	-3.263880	-77.001862	-86.882672
10129	NaN	9.491439	-0.140747	2.204600	0.000480	-0.007434	0.008346	-3.279649	-77.004669	-86.868593
10130	NaN	9.491614	-0.141573	2.203791	-0.001011	-0.009596	0.008936	-3.297449	-77.008696	-86.846523
10131	NaN	9.544185	-0.130596	2.176589	-0.004438	-0.007829	0.004531	-3.306771	-77.011889	-86.840931
10132	NaN	9.486800	-0.128282	2.221074	0.000480	-0.007434	0.008346	-3.321962	-77.014696	-86.820663
10133	NaN	9.516539	-0.159273	2.219990	-0.000291	-0.015059	0.006300	-3.334155	-77.021842	-86.802548
10134	NaN	9.515913	-0.121710	2.188308	-0.006993	-0.017571	0.009916	-3.359024	-77.030393	-86.776743
10135	NaN	9.497461	-0.140875	2.164504	0.005561	-0.007733	0.010120	-3.376533	-77.033261	-86.746811
10136	NaN	9.511816	-0.128106	2.219695	-0.001571	-0.019930	0.008992	-3.396397	-77.043188	-86.722955
10137	NaN	9.527642	-0.173018	2.161297	-0.008505	-0.019060	0.009126	-3.421233	-77.052615	-86.698856
10138	NaN	9.546136	-0.136519	2.167649	-0.001406	-0.005520	0.007493	-3.435184	-77.054348	-86.680972
10139	NaN	9.518135	-0.164574	2.212750	-0.005731	0.003077	0.006385	-3.447865	-77.051007	-86.664062
10140	NaN	9.518103	-0.165004	2.212855	-0.008442	-0.000619	-0.000655	-3.444847	-77.050216	-86.667726
10141	NaN	9.475049	-0.167413	2.171330	-0.013199	-0.001707	-0.006507	-3.430808	-77.050223	-86.687869
10142	NaN	9.494296	-0.168072	2.208901	-0.011708	0.000455	-0.007097	-3.413479	-77.049038	-86.708137
10143	NaN	9.517710	-0.144732	2.197457	-0.011187	-0.002970	-0.010456	-3.388911	-77.049950	-86.733114
10144	NaN	9.522333	-0.139340	2.163684	-0.017220	0.006175	-0.013073	-3.359048	-77.045691	-86.769484
10145	NaN	9.522671	-0.157653	2.179477	-0.012532	0.009951	-0.012741	-3.327421	-77.039142	-86.797927
10146	NaN	9.488363	-0.131160	2.214218	-0.010613	0.006693	-0.009129	-3.303548	-77.034448	-86.824266
10147	NaN	9.517226	-0.141725	2.199751	-0.014153	0.007137	-0.007352	-3.286551	-77.029382	-86.851097
10148	NaN	9.540527	-0.118645	2.188756	-0.016759	-0.000591	-0.006113	-3.274755	-77.028751	-86.868659
10149	NaN	9.512027	-0.126667	2.218872	-0.013545	0.000351	-0.003811	-3.267392	-77.027482	-86.880251
10150	NaN	9.540913	-0.137621	2.204292	-0.007923	0.011059	-0.003466	-3.255465	-77.020100	-86.892752
10151	NaN	9.482670	-0.115313	2.235486	-0.007743	0.009693	-0.004126	-3.243141	-77.013643	-86.904126
10152	NaN	9.521369	-0.136480	2.168107	-0.022316	0.001114	-0.000390	-3.248508	-77.011850	-86.907343
10153	NaN	9.521336	-0.136666	2.168238	-0.008660	0.002089	-0.002758	-3.240195	-77.009356	-86.916847
10154	NaN	9.497866	-0.159652	2.179957	-0.014611	0.007870	0.001528	-3.244958	-77.003636	-86.916153
10155	NaN	9.516405	-0.141860	2.203288	-0.014449	0.007178	-0.000512	-3.245508	-76.998427	-86.922101
10156	NaN	9.516249	-0.142142	2.203944	-0.016138	0.007053	-0.000644	-3.245878	-76.993244	-86.926815
10157	NaN	9.516093	-0.142424	2.204599	-0.014450	0.007178	-0.000512	-3.246041	-76.987907	-86.934659
10158	NaN	9.515879	-0.142688	2.205506	-0.018405	0.012371	-0.001554	-3.244716	-76.979711	-86.942445
10159	NaN	9.510989	-0.147368	2.240341	-0.012633	0.007958	-0.005180	-3.231872	-76.973924	-86.958386
10160	NaN	9.491193	-0.127087	2.188177	-0.020831	0.003277	-0.000984	-3.234631	-76.970913	-86.963407
10161	NaN	9.486896	-0.151339	2.237535	-0.016143	0.007053	-0.000645	-3.235417	-76.965570	-86.964282
10162	NaN	9.481157	-0.117394	2.241785	-0.004956	0.000958	-0.006576	-3.215590	-76.964064	-86.983150
10163	NaN	9.520562	-0.157309	2.188698	-0.019749	-0.004913	-0.004951	-3.209919	-76.965932	-87.000301
10164	NaN	9.520106	-0.138170	2.173539	-0.010499	0.001983	0.000528	-3.210682	-76.963612	-87.001294
10165	NaN	9.515352	-0.143162	2.207747	-0.014257	0.005138	0.000207	-3.212960	-76.959457	-87.005539
10166	NaN	9.504908	-0.114393	2.245987	-0.010861	0.004713	0.001851	-3.216817	-76.955533	-87.003570
10167	NaN	9.520336	-0.158657	2.189584	-0.015716	0.001626	0.003550	-3.229268	-76.953463	-86.994398
10168	NaN	9.486080	-0.133713	2.223831	-0.005759	0.003737	0.005007	-3.238123	-76.949995	-86.984298
10169	NaN	9.528640	-0.112748	2.250199	-0.004786	-0.005784	0.007216	-3.253823	-76.951845	-86.966349
10170	NaN	9.515339	-0.146120	2.207611	-0.017220	-0.014965	0.002186	-3.264906	-76.959166	-86.960703
10171	NaN	9.515403	-0.146738	2.207294	-0.004628	0.008629	0.005746	-3.274680	-76.952750	-86.948465
10172	NaN	9.528766	-0.114651	2.249571	-0.004267	0.005900	0.004423	-3.280920	-76.948062	-86.940171
10173	NaN	9.472733	-0.169646	2.181239	-0.012678	-0.011173	0.005946	-3.298896	-76.953116	-86.928629
10174	NaN	9.543531	-0.121115	2.161741	-0.007840	-0.007412	0.002868	-3.305236	-76.956093	-86.922334
10175	NaN	9.520153	-0.144414	2.172928	-0.009534	0.007567	0.003309	-3.311587	-76.950262	-86.919709
10176	NaN	9.504994	-0.120624	2.245296	-0.002740	0.006713	0.006597	-3.322186	-76.945035	-86.906043
10177	NaN	9.505486	-0.140739	2.260176	-0.013041	-0.008444	0.007268	-3.342820	-76.948253	-86.883307
10178	NaN	9.520161	-0.146535	2.172749	-0.004461	-0.007165	0.003132	-3.347847	-76.951078	-86.876374
10179	NaN	9.515045	-0.132558	2.191451	-0.007432	0.002937	0.006255	-3.361812	-76.948068	-86.857889
10180	NaN	9.510355	-0.138063	2.225350	-0.005167	-0.002382	0.007159	-3.376489	-76.948021	-86.841464
10181	NaN	9.520730	-0.168032	2.187170	-0.010041	-0.004792	0.007478	-3.395603	-76.949330	-86.832610
10182	NaN	9.520790	-0.168829	2.186848	-0.005184	-0.001707	0.005780	-3.406789	-76.948942	-86.819779
10183	NaN	9.486676	-0.143910	2.220646	-0.008385	-0.003318	0.004853	-3.417988	-76.949294	-86.806522
10184	NaN	9.486688	-0.144579	2.220552	-0.007252	0.001573	0.005594	-3.429413	-76.947035	-86.794661
10185	NaN	9.510521	-0.141715	2.224411	-0.007072	0.000209	0.004931	-3.439484	-76.945438	-86.792265
10186	NaN	9.514772	-0.118201	2.175310	-0.009732	-0.005495	0.002016	-3.444549	-76.947344	-86.788391
10187	NaN	9.516314	-0.176667	2.219637	-0.004791	-0.005787	0.007212	-3.459759	-76.948975	-86.768142
10188	NaN	9.505664	-0.129028	2.241991	-0.006499	-0.005235	0.005701	-3.472029	-76.950604	-86.754971
10189	NaN	9.515554	-0.139413	2.188811	-0.006712	-0.002519	0.003606	-3.479825	-76.950810	-86.744360
10190	NaN	9.492245	-0.162809	2.199607	-0.006499	-0.005235	0.005701	-3.492099	-76.952438	-86.731185
10191	NaN	9.534936	-0.141923	2.225583	-0.006499	-0.005235	0.005701	-3.504547	-76.953832	-86.714858
10192	NaN	9.511213	-0.146057	2.221168	-0.006140	-0.007963	0.004375	-3.513763	-76.957065	-86.704611
10193	NaN	9.492166	-0.145398	2.182812	-0.006320	-0.006599	0.005038	-3.525015	-76.959435	-86.695959
10194	NaN	9.516159	-0.142615	2.185976	-0.008174	-0.006033	0.006947	-3.541463	-76.961473	-86.679486
10195	NaN	9.516751	-0.162728	2.200352	-0.004793	-0.005787	0.007211	-3.557519	-76.963451	-86.665839
10196	NaN	9.511268	-0.129709	2.203765	-0.008175	-0.006033	0.006947	-3.573978	-76.965487	-86.649356
10197	NaN	9.522115	-0.178909	2.180265	-0.006484	-0.005910	0.007079	-3.590100	-76.967252	-86.627749
10198	NaN	9.506825	-0.136162	2.236639	-0.003462	-0.002937	0.008669	-3.607641	-76.967453	-86.607383
10199	NaN	9.516670	-0.146811	2.183469	-0.004974	-0.004423	0.007874	-3.624792	-76.968417	-86.586250
10200	NaN	9.512141	-0.152419	2.216761	-0.011379	-0.007642	0.006019	-3.641065	-76.971401	-86.571842
10201	NaN	9.512269	-0.153314	2.216150	-0.003267	-0.004977	0.009384	-3.660963	-76.972565	-86.543762
10202	NaN	9.483424	-0.143087	2.230676	-0.004437	-0.008515	0.005884	-3.673074	-76.976052	-86.529543
10203	NaN	9.541529	-0.165812	2.199678	-0.003121	-0.004989	0.005964	-3.684566	-76.977458	-86.518714
10204	NaN	9.488325	-0.139725	2.195610	-0.003088	-0.006341	0.008720	-3.702583	-76.979596	-86.497641
10205	NaN	9.513252	-0.175704	2.228657	-0.006487	-0.005910	0.007079	-3.719484	-76.981613	-86.474006
10206	NaN	9.493697	-0.155767	2.175426	-0.002764	-0.007717	0.004637	-3.727449	-76.984688	-86.463058
10207	NaN	9.536932	-0.154182	2.216197	0.000277	-0.005421	0.007605	-3.741366	-76.986294	-86.440362
10208	NaN	9.512747	-0.139125	2.196798	-0.006114	-0.009313	0.007130	-3.757689	-76.990186	-86.422807
10209	NaN	9.513372	-0.159260	2.210991	-0.008179	-0.006031	0.006947	-3.774613	-76.992069	-86.404208
10210	NaN	9.513012	-0.140637	2.195551	-0.004830	-0.004435	0.004454	-3.782794	-76.993271	-86.394254
10211	NaN	9.513090	-0.141212	2.195180	-0.006699	-0.003193	0.004986	-3.793596	-76.993601	-86.379088
10212	NaN	9.518693	-0.175668	2.190934	-0.001804	-0.001463	0.006044	-3.803494	-76.993043	-86.365593
10213	NaN	9.513211	-0.142611	2.194564	-0.006473	-0.006585	0.008456	-3.823556	-76.995307	-86.345723
10214	NaN	9.508738	-0.148187	2.227724	-0.002750	-0.008393	0.006014	-3.835071	-76.998710	-86.331124
10215	NaN	9.513526	-0.144078	2.193100	-0.004620	-0.007151	0.006546	-3.849066	-77.001183	-86.310610
10216	NaN	9.538027	-0.160802	2.211009	-0.007970	-0.008747	0.009039	-3.871140	-77.004670	-86.288245
10217	NaN	9.490435	-0.168759	2.202763	-0.001384	-0.006897	0.010228	-3.892413	-77.006953	-86.268293
10218	NaN	9.495672	-0.184112	2.183072	-0.004443	-0.008515	0.005882	-3.904624	-77.010426	-86.253977
10219	NaN	9.533406	-0.148807	2.227807	-0.006507	-0.005232	0.005701	-3.917761	-77.012000	-86.236260
10220	NaN	9.514649	-0.167400	2.204887	-0.000307	0.000698	0.005461	-3.925003	-77.010223	-86.224611
10221	NaN	9.486228	-0.176169	2.234688	-0.002769	-0.007717	0.004635	-3.933596	-77.013203	-86.210604
10222	NaN	9.520025	-0.182895	2.184548	-0.005425	-0.014091	0.003095	-3.940429	-77.019972	-86.202383
10223	NaN	9.519764	-0.164114	2.168704	-0.004816	-0.005110	0.005832	-3.952987	-77.021503	-86.185226
10224	NaN	9.490914	-0.153672	2.183455	0.000259	-0.004747	0.006225	-3.962738	-77.022806	-86.170670
10225	NaN	9.539700	-0.185894	2.220270	-0.009745	-0.005484	0.002020	-3.968432	-77.024620	-86.166674
10226	NaN	9.515024	-0.151223	2.186110	-0.006330	-0.006595	0.005037	-3.979336	-77.027026	-86.154808
10227	NaN	9.510534	-0.156382	2.219481	-0.006395	-0.003888	-0.000474	-3.976767	-77.028019	-86.151471
10228	NaN	9.491795	-0.174536	2.196445	-0.004865	-0.003080	0.001699	-3.977946	-77.028549	-86.148725
10229	NaN	9.515740	-0.171364	2.199868	-0.006557	-0.003201	0.001568	-3.980274	-77.029069	-86.146801
10230	NaN	9.515321	-0.152289	2.184743	-0.005059	-0.001040	0.000986	-3.979441	-77.028460	-86.146232
10231	NaN	9.520413	-0.167097	2.165623	-0.008426	-0.001958	0.002102	-3.983894	-77.028258	-86.146607
10232	NaN	9.497032	-0.190016	2.176641	-0.006606	-0.001170	-0.002565	-3.975161	-77.027865	-86.155055
10233	NaN	9.539759	-0.168690	2.202934	-0.010134	-0.001402	0.000593	-3.976968	-77.027491	-86.160462
10234	NaN	9.515941	-0.172354	2.198923	-0.009780	-0.004130	-0.000736	-3.975103	-77.028717	-86.163730
10235	NaN	9.515992	-0.172476	2.198689	-0.006767	-0.000484	-0.000523	-3.971818	-77.027736	-86.167210
10236	NaN	9.539871	-0.169183	2.202413	-0.010329	0.000638	-0.000119	-3.970974	-77.026212	-86.169751
10237	NaN	9.515542	-0.153436	2.183701	-0.008282	-0.001968	-0.001318	-3.967003	-77.026154	-86.172951
10238	NaN	9.544964	-0.183781	2.183285	-0.008492	0.000750	-0.003408	-3.956931	-77.024696	-86.183884
10239	NaN	9.515532	-0.153478	2.183739	-0.012199	0.001881	0.000415	-3.958502	-77.022299	-86.189816
10240	NaN	9.515928	-0.172835	2.198939	-0.008880	0.004832	-0.004833	-3.944424	-77.018564	-86.205087
10241	NaN	9.515395	-0.153354	2.184345	-0.012055	0.001872	-0.003005	-3.937975	-77.016484	-86.217731
10242	NaN	9.515372	-0.153462	2.184441	-0.012022	0.000517	-0.000251	-3.937803	-77.015035	-86.220579
10243	NaN	9.520409	-0.168037	2.165566	-0.008671	0.002114	-0.002744	-3.929437	-77.012571	-86.229876
10244	NaN	9.515265	-0.153652	2.184893	-0.010879	0.005405	0.000498	-3.929637	-77.008298	-86.231671
10245	NaN	9.491291	-0.157243	2.181562	-0.008849	0.003478	-0.002079	-3.923135	-77.005176	-86.242304
10246	NaN	9.516091	-0.192548	2.215106	-0.013361	-0.002331	-0.001713	-3.920595	-77.005411	-86.248370
10247	NaN	9.515187	-0.153915	2.185213	-0.008478	0.000073	-0.002032	-3.914881	-77.004322	-86.255957
10248	NaN	9.491782	-0.176556	2.196341	-0.010026	-0.000055	-0.005583	-3.900462	-77.003406	-86.272253
10249	NaN	9.515102	-0.153567	2.185607	-0.009416	0.008923	-0.002836	-3.891675	-76.997208	-86.279430
10250	NaN	9.515471	-0.172654	2.200930	-0.008350	0.000745	-0.006829	-3.873088	-76.995882	-86.299019
10251	NaN	9.514970	-0.152926	2.186227	-0.012091	0.003229	-0.005760	-3.859167	-76.992917	-86.313655
10252	NaN	9.514942	-0.152411	2.186386	-0.011591	0.000497	-0.010512	-3.833375	-76.991872	-86.342544
10253	NaN	9.514442	-0.132349	2.171689	-0.008562	0.003465	-0.008918	-3.809807	-76.988980	-86.366908
10254	NaN	9.515303	-0.170384	2.201834	-0.010449	0.005385	-0.009760	-3.784435	-76.985106	-86.394697
10255	NaN	9.505074	-0.140877	2.240185	-0.013624	0.002423	-0.007935	-3.766338	-76.982751	-86.416289
10256	NaN	9.529380	-0.156328	2.259011	-0.005145	0.002351	-0.005901	-3.747984	-76.980463	-86.433756
10257	NaN	9.514672	-0.149517	2.187759	-0.010239	0.002665	-0.007672	-3.728501	-76.977940	-86.456123
10258	NaN	9.514131	-0.129845	2.173201	-0.010563	0.004033	-0.003587	-3.718715	-76.974602	-86.467981
10259	NaN	9.504821	-0.139636	2.241338	-0.009032	0.004838	-0.001412	-3.713487	-76.970517	-86.472719
10260	NaN	9.514901	-0.168582	2.203709	-0.008854	0.003476	-0.002079	-3.706547	-76.967440	-86.480652
10261	NaN	9.509290	-0.134801	2.208072	-0.010352	0.001313	-0.001500	-3.702963	-76.965539	-86.481291
10262	NaN	9.514363	-0.149293	2.189117	-0.008481	0.000072	-0.002035	-3.696467	-76.964407	-86.488549
10263	NaN	9.509783	-0.154303	2.222844	-0.008270	-0.002649	0.000052	-3.695979	-76.964644	-86.484180
10264	NaN	9.514466	-0.149518	2.188657	-0.014880	-0.003818	-0.002517	-3.692577	-76.965753	-86.492025
10265	NaN	9.538868	-0.165343	2.207044	-0.004934	-0.000368	-0.003815	-3.679971	-76.964758	-86.502202
10266	NaN	9.509374	-0.134788	2.207710	-0.012453	0.005954	-0.004428	-3.668913	-76.960350	-86.516479
10267	NaN	9.485928	-0.157469	2.219032	-0.010014	-0.000733	-0.004210	-3.658303	-76.959604	-86.530979
10268	NaN	9.504757	-0.139417	2.241622	-0.009819	-0.002775	-0.003500	-3.649410	-76.960151	-86.541483
10269	NaN	9.514505	-0.148833	2.188532	-0.009997	-0.001412	-0.002833	-3.642470	-76.959779	-86.549017
10270	NaN	9.509406	-0.134271	2.207604	-0.008695	0.002793	-0.004121	-3.630529	-76.957164	-86.561989
10271	NaN	9.504272	-0.119755	2.226821	-0.006968	0.001555	-0.001236	-3.625290	-76.955013	-86.564867
10272	NaN	9.490577	-0.152059	2.185030	-0.006611	-0.001169	-0.002570	-3.616607	-76.954608	-86.573270
10273	NaN	9.509859	-0.153503	2.222574	-0.010177	-0.000050	-0.002167	-3.610783	-76.953300	-86.582075
10274	NaN	9.514438	-0.148416	2.188851	-0.012100	0.003230	-0.005760	-3.596692	-76.950493	-86.599257
10275	NaN	9.514400	-0.148192	2.189033	-0.006807	0.000873	-0.003280	-3.586465	-76.948844	-86.610307
10276	NaN	9.519505	-0.162334	2.169974	-0.008161	-0.001293	-0.006122	-3.569932	-76.948634	-86.627679
10277	NaN	9.514428	-0.147486	2.188956	-0.010050	0.000627	-0.006963	-3.552817	-76.947354	-86.646889
10278	NaN	9.533662	-0.148662	2.226720	-0.008697	0.002793	-0.004120	-3.540908	-76.944734	-86.659831
10279	NaN	9.509257	-0.132444	2.208357	-0.008536	0.002111	-0.006164	-3.524149	-76.942370	-86.676413
10280	NaN	9.514838	-0.165815	2.204192	-0.011566	-0.000856	-0.007763	-3.505465	-76.941964	-86.697997
10281	NaN	9.508796	-0.112178	2.193462	-0.009855	-0.001414	-0.006255	-3.490072	-76.941740	-86.715524
10282	NaN	9.538743	-0.161465	2.207871	-0.010248	0.002670	-0.007672	-3.470333	-76.939311	-86.737416
10283	NaN	9.533148	-0.127038	2.212143	-0.008018	-0.001293	-0.009543	-3.445695	-76.939100	-86.762917
10284	NaN	9.485962	-0.152659	2.219221	-0.011227	-0.002899	-0.010475	-3.420440	-76.939949	-86.791047
10285	NaN	9.514945	-0.162893	2.203949	-0.010267	0.003350	-0.009048	-3.397678	-76.937093	-86.818150
10286	NaN	9.485440	-0.132022	2.204597	-0.008360	0.000750	-0.006832	-3.379231	-76.935726	-86.837605
10287	NaN	9.509288	-0.128119	2.208478	-0.010233	0.001989	-0.006296	-3.363589	-76.933584	-86.854239
10288	NaN	9.509329	-0.127946	2.208312	-0.006220	-0.005255	-0.001156	-3.358780	-76.935459	-86.858436
10289	NaN	9.504273	-0.113658	2.227133	-0.008649	0.000750	0.000008	-3.357446	-76.933637	-86.860607
10290	NaN	9.514553	-0.142744	2.188729	-0.004474	-0.007175	0.003103	-3.362412	-76.936467	-86.853742
10291	NaN	9.504950	-0.133640	2.241155	-0.006579	-0.002532	0.000180	-3.361047	-76.936606	-86.854480
10292	NaN	9.509630	-0.128997	2.206953	-0.008221	-0.004697	0.004175	-3.370446	-76.937983	-86.845268
10293	NaN	9.534096	-0.145477	2.225070	-0.004833	-0.004452	0.004439	-3.378954	-76.939137	-86.837601
10294	NaN	9.491581	-0.167309	2.197933	-0.006169	-0.007297	0.002970	-3.384590	-76.942040	-86.831045
10295	NaN	9.509987	-0.130424	2.205332	-0.008060	-0.005377	0.002131	-3.389145	-76.943671	-86.824737
10296	NaN	9.515213	-0.145147	2.185699	-0.006187	-0.006616	0.001594	-3.391302	-76.946231	-86.821763
10297	NaN	9.534098	-0.127798	2.208000	-0.006689	-0.003894	0.006351	-3.405603	-76.947013	-86.807078
10298	NaN	9.515449	-0.146368	2.184590	-0.004441	-0.008538	0.005853	-3.417555	-76.950527	-86.793023
10299	NaN	9.510465	-0.132488	2.203144	-0.006742	-0.001850	0.002224	-3.421110	-76.950152	-86.787209
10300	NaN	9.486612	-0.136509	2.199277	-0.005370	-0.000368	0.006445	-3.433851	-76.948973	-86.772890
10301	NaN	9.505932	-0.138795	2.236675	-0.004995	-0.003772	0.006483	-3.447527	-76.949683	-86.756669
10302	NaN	9.511132	-0.153905	2.217089	-0.004621	-0.007176	0.006521	-3.461041	-76.952393	-86.741116
10303	NaN	9.505712	-0.120791	2.220606	-0.004442	-0.008538	0.005852	-3.473771	-76.955945	-86.727951
10304	NaN	9.511472	-0.155196	2.215541	-0.006155	-0.007978	0.004345	-3.482925	-76.959188	-86.717776
10305	NaN	9.516646	-0.170105	2.196044	-0.012004	-0.000853	0.002499	-3.490145	-76.958266	-86.709689
10306	NaN	9.511605	-0.156109	2.214906	-0.004870	-0.003089	0.001687	-3.491269	-76.958804	-86.707001
10307	NaN	9.506600	-0.141899	2.233637	-0.004709	-0.003769	-0.000357	-3.487737	-76.959662	-86.705370
10308	NaN	9.520921	-0.146446	2.146497	-0.008242	-0.004014	0.002800	-3.493679	-76.960691	-86.699719
10309	NaN	9.535721	-0.153497	2.217557	-0.004853	-0.003771	0.003063	-3.498414	-76.961383	-86.694930
10310	NaN	9.530198	-0.120227	2.221576	-0.005192	-0.001730	0.005776	-3.509615	-76.961001	-86.682087
10311	NaN	9.487581	-0.142277	2.194724	-0.003284	-0.004333	0.007989	-3.526138	-76.961984	-86.662722
10312	NaN	9.511566	-0.139511	2.197953	-0.011436	-0.006299	0.003243	-3.535358	-76.964303	-86.655585
10313	NaN	9.512196	-0.159856	2.212101	-0.006621	-0.006622	0.011852	-3.563271	-76.966298	-86.626546
10314	NaN	9.506715	-0.126911	2.215968	-0.003337	-0.002288	0.003863	-3.568773	-76.966300	-86.618463
10315	NaN	9.512377	-0.161473	2.211205	-0.006462	-0.007301	0.009807	-3.591954	-76.968882	-86.596147
10316	NaN	9.530842	-0.125129	2.218542	-0.006319	-0.007298	0.006387	-3.606183	-76.971658	-86.580860
10317	NaN	9.517701	-0.177504	2.190881	-0.006692	-0.003894	0.006351	-3.620420	-76.972393	-86.566384
10318	NaN	9.512690	-0.163842	2.209680	-0.005193	-0.001730	0.005777	-3.631630	-76.972004	-86.553533
10319	NaN	9.512232	-0.144960	2.194713	-0.003338	-0.002288	0.003863	-3.637163	-76.971778	-86.546761
10320	NaN	9.531173	-0.127579	2.216980	-0.011084	-0.009019	0.001904	-3.643325	-76.975698	-86.542556
10321	NaN	9.511997	-0.126408	2.178761	-0.001448	-0.004210	0.004700	-3.650623	-76.976699	-86.531353
10322	NaN	9.513068	-0.165896	2.207900	-0.006693	-0.003894	0.006351	-3.664459	-76.977526	-86.516690
10323	NaN	9.512643	-0.147145	2.192787	-0.006710	-0.003212	0.004976	-3.675057	-76.977882	-86.508355
10324	NaN	9.537096	-0.163730	2.210902	-0.006533	-0.004573	0.004306	-3.683856	-76.979170	-86.498767
10325	NaN	9.517379	-0.143273	2.158084	-0.006516	-0.005255	0.005681	-3.696676	-76.980736	-86.484921
10326	NaN	9.484459	-0.157604	2.221672	-0.005176	-0.002413	0.007152	-3.711392	-76.980684	-86.468463
10327	NaN	9.537327	-0.165854	2.209744	-0.004999	-0.003774	0.006482	-3.725439	-76.981492	-86.451639
10328	NaN	9.536936	-0.147225	2.194495	-0.003092	-0.006379	0.008692	-3.743415	-76.983648	-86.430610
10329	NaN	9.513147	-0.151593	2.190295	-0.008549	-0.003336	0.008265	-3.763429	-76.984011	-86.412316
10330	NaN	9.508692	-0.157447	2.223670	-0.002950	-0.006375	0.005272	-3.772874	-76.986290	-86.399960
10331	NaN	9.508840	-0.158156	2.222987	-0.004612	-0.007860	0.007891	-3.790513	-76.989231	-86.376616
10332	NaN	9.503446	-0.125096	2.226706	-0.003128	-0.005014	0.005942	-3.801503	-76.990705	-86.362778
10333	NaN	9.518623	-0.168863	2.169086	-0.001786	-0.002172	0.007413	-3.815050	-76.990372	-86.353259
10334	NaN	9.532500	-0.137522	2.210672	-0.004983	-0.004456	0.007857	-3.831750	-76.991453	-86.334651
10335	NaN	9.509217	-0.161345	2.221142	-0.004773	-0.007182	0.009936	-3.854349	-76.993912	-86.309393
10336	NaN	9.513900	-0.157093	2.186634	0.002151	-0.006697	0.007038	-3.865321	-76.996303	-86.292470
10337	NaN	9.508989	-0.143526	2.205170	-0.003271	-0.005018	0.009362	-3.885085	-76.997454	-86.267057
10338	NaN	9.490259	-0.162435	2.181707	-0.004740	-0.008546	0.012685	-3.914310	-77.000679	-86.235454
10339	NaN	9.515274	-0.198987	2.214143	-0.002920	-0.007740	0.008021	-3.931088	-77.003476	-86.215365
10340	NaN	9.514460	-0.160880	2.183923	0.002166	-0.007381	0.008412	-3.945597	-77.006198	-86.194803
10341	NaN	9.500558	-0.157383	2.269887	0.002518	-0.010102	0.007072	-3.957391	-77.010381	-86.173841
10342	NaN	9.509931	-0.148026	2.200808	0.001610	-0.019079	0.011133	-3.980998	-77.019679	-86.144270
10343	NaN	9.510404	-0.148992	2.198698	0.000634	-0.025324	0.009696	-4.003245	-77.032498	-86.110694
10344	NaN	9.539784	-0.161087	2.181099	-0.003444	-0.020802	0.013492	-4.035994	-77.042680	-86.074716
10345	NaN	9.540167	-0.162148	2.179347	0.006484	-0.015995	0.009442	-4.052845	-77.050224	-86.044448
10346	NaN	9.535480	-0.148798	2.197045	-0.005894	-0.013429	0.011921	-4.081868	-77.056249	-86.013735
10347	NaN	9.541166	-0.183821	2.191676	-0.003063	-0.007742	0.011442	-4.107654	-77.059047	-85.989802
10348	NaN	9.492521	-0.152686	2.154233	-0.001594	-0.004215	0.008118	-4.123143	-77.059957	-85.970449
10349	NaN	9.536404	-0.171349	2.209670	-0.001385	-0.006941	0.010196	-4.144113	-77.062075	-85.945097
10350	NaN	9.512196	-0.156257	2.190425	-0.006123	-0.010019	0.008467	-4.164126	-77.066284	-85.923766
10351	NaN	9.541259	-0.168209	2.174101	-0.006298	-0.008658	0.009138	-4.185866	-77.069543	-85.904194
10352	NaN	9.512548	-0.158094	2.188765	-0.004636	-0.007174	0.006518	-4.199679	-77.072205	-85.888351
10353	NaN	9.518623	-0.212029	2.198482	-0.006349	-0.006610	0.005014	-4.211012	-77.074516	-85.877666
10354	NaN	9.531761	-0.141505	2.210235	-0.001105	-0.006932	0.003356	-4.214895	-77.077172	-85.869935
10355	NaN	9.494035	-0.177406	2.164042	-0.008062	-0.006046	0.003511	-4.223079	-77.079080	-85.858556
10356	NaN	9.537029	-0.156789	2.189756	-0.006001	-0.009332	0.003673	-4.231004	-77.083094	-85.849557
10357	NaN	9.518273	-0.175024	2.166145	-0.004480	-0.007852	0.004473	-4.239801	-77.086014	-85.840864
10358	NaN	9.542309	-0.172089	2.169181	-0.006384	-0.005244	0.002266	-4.243692	-77.087750	-85.836229
10359	NaN	9.513510	-0.161333	2.184343	-0.006783	-0.000474	-0.000515	-4.240800	-77.086892	-85.834926
10360	NaN	9.513995	-0.180990	2.199057	-0.006941	0.000204	0.001530	-4.242168	-77.085547	-85.833205
10361	NaN	9.518460	-0.176128	2.165236	-0.008654	0.000769	0.000027	-4.241154	-77.083876	-85.834527
10362	NaN	9.489598	-0.165117	2.180693	-0.004948	-0.000350	-0.003806	-4.228188	-77.083073	-85.846341
10363	NaN	9.495029	-0.198752	2.176384	-0.015489	0.002345	-0.004611	-4.218730	-77.080548	-85.865009
10364	NaN	9.508478	-0.147141	2.203759	0.008306	0.001953	0.001315	-4.210509	-77.078213	-85.864164
10365	NaN	9.538022	-0.177856	2.202159	-0.023580	-0.020165	0.000975	-4.223868	-77.088302	-85.856569
10366	NaN	9.552138	-0.182223	2.114369	-0.003409	0.000447	-0.001631	-4.215292	-77.086952	-85.862976
10367	NaN	9.508773	-0.147788	2.202439	-0.006341	0.010536	0.001565	-4.214681	-77.079508	-85.860298
10368	NaN	9.513602	-0.162318	2.183866	-0.010368	0.001334	-0.001476	-4.210322	-77.077644	-85.866468
10369	NaN	9.542009	-0.153932	2.153538	-0.009812	-0.004115	-0.000742	-4.208594	-77.078667	-85.869255
10370	NaN	9.524066	-0.210834	2.160048	-0.007116	0.001564	0.002202	-4.211488	-77.076516	-85.866072
10371	NaN	9.532490	-0.145173	2.206850	-0.006011	0.008498	-0.001151	-4.204409	-77.070413	-85.872752
10372	NaN	9.485122	-0.171595	2.214440	-0.013362	-0.003674	0.001045	-4.208960	-77.071304	-85.871541
10373	NaN	9.536981	-0.140532	2.172902	-0.008290	-0.002636	0.000058	-4.208767	-77.071669	-85.869469
10374	NaN	9.518037	-0.158365	2.150108	-0.005454	0.003050	-0.000417	-4.203918	-77.068779	-85.873253
10375	NaN	9.489649	-0.167110	2.180323	-0.008448	-0.001959	0.002103	-4.208435	-77.068522	-85.863087
10376	NaN	9.523030	-0.173195	2.130789	-0.006594	-0.002517	0.000186	-4.206760	-77.068788	-85.864285
10377	NaN	9.532506	-0.146761	2.206676	-0.009319	0.004842	0.005462	-4.219085	-77.064635	-85.853630
10378	NaN	9.513540	-0.164952	2.183940	-0.004881	-0.003083	0.001689	-4.220271	-77.065161	-85.850885
10379	NaN	9.489687	-0.168591	2.180041	-0.010162	-0.001393	0.000600	-4.222078	-77.064749	-85.850759
10380	NaN	9.518558	-0.179849	2.164497	-0.008640	0.000085	0.001401	-4.224120	-77.063476	-85.849345
10381	NaN	9.537951	-0.181870	2.202137	-0.008848	0.002814	-0.000674	-4.220849	-77.060566	-85.851737
10382	NaN	9.503634	-0.137303	2.222102	-0.008466	-0.001275	0.000728	-4.221369	-77.060099	-85.851783
10383	NaN	9.513562	-0.166042	2.183762	-0.005107	0.000330	-0.001761	-4.213963	-77.058755	-85.856693
10384	NaN	9.538005	-0.182174	2.201879	-0.009641	-0.005474	-0.001417	-4.210589	-77.060778	-85.861425
10385	NaN	9.514161	-0.185699	2.197950	-0.012051	0.000533	-0.000231	-4.210368	-77.059047	-85.862106
10386	NaN	9.533089	-0.168239	2.220813	-0.008658	0.000769	0.000027	-4.208880	-77.057441	-85.864325
10387	NaN	9.532581	-0.148877	2.206211	-0.008675	0.001454	-0.001346	-4.203471	-77.055157	-85.873592
10388	NaN	9.508666	-0.152271	2.202597	-0.008501	0.000094	-0.002019	-4.196932	-77.054024	-85.880902
10389	NaN	9.490217	-0.189497	2.194425	-0.008484	-0.000591	-0.000645	-4.194192	-77.053089	-85.884986
10390	NaN	9.513642	-0.166710	2.183365	-0.010199	-0.000024	-0.002148	-4.188329	-77.052028	-85.892601
10391	NaN	9.533098	-0.168628	2.220746	-0.006597	-0.002517	0.000184	-4.187149	-77.052219	-85.890277
10392	NaN	9.514171	-0.186421	2.197845	-0.010373	0.001336	-0.001475	-4.182812	-77.050353	-85.896428
10393	NaN	9.518101	-0.161691	2.149575	-0.007188	0.004302	-0.003291	-4.171536	-77.046676	-85.916216
10394	NaN	9.513582	-0.166795	2.183617	-0.006805	0.000212	-0.001890	-4.164332	-77.045468	-85.923211
10395	NaN	9.508650	-0.152575	2.202646	-0.008294	-0.002636	0.000054	-4.163385	-77.045643	-85.930437
10396	NaN	9.513685	-0.167037	2.183152	-0.009817	-0.004114	-0.000748	-4.161527	-77.046859	-85.933718
10397	NaN	9.518717	-0.181484	2.163663	-0.006597	-0.002518	0.000184	-4.160331	-77.047120	-85.941114
10398	NaN	9.508337	-0.133457	2.187188	-0.006806	0.000212	-0.001890	-4.153129	-77.045912	-85.948109
10399	NaN	9.513786	-0.167264	2.182693	-0.003394	-0.000236	-0.000258	-4.148160	-77.044699	-85.952540
10400	NaN	9.508904	-0.153165	2.201508	-0.009609	-0.006844	0.001325	-4.151823	-77.047389	-85.950034
10401	NaN	9.533361	-0.169601	2.219538	-0.012055	0.000533	-0.000231	-4.151916	-77.045746	-85.948164
10402	NaN	9.513924	-0.167850	2.182046	-0.006807	0.000213	-0.001890	-4.144716	-77.044537	-85.955157
10403	NaN	9.513930	-0.167896	2.182016	-0.008487	-0.000591	-0.000646	-4.142318	-77.043713	-85.957052
10404	NaN	9.513960	-0.167986	2.181881	-0.008313	-0.001950	-0.001319	-4.137789	-77.043716	-85.962191
10405	NaN	9.513992	-0.167912	2.181746	-0.008347	-0.000579	-0.004065	-4.125921	-77.042746	-85.977894
10406	NaN	9.505079	-0.178213	2.249327	-0.004935	-0.001028	-0.002434	-4.116523	-77.042268	-85.986043
10407	NaN	9.509085	-0.153369	2.200710	-0.008331	-0.001265	-0.002692	-4.108990	-77.041878	-85.992636
10408	NaN	9.538018	-0.164259	2.184893	-0.006250	-0.005237	-0.001165	-4.104249	-77.043753	-85.996778
10409	NaN	9.538558	-0.183860	2.199341	-0.005267	0.001005	0.000286	-4.101480	-77.041813	-86.001092
10410	NaN	9.514207	-0.167739	2.180821	-0.007965	-0.004669	-0.002667	-4.093888	-77.043424	-86.009169
10411	NaN	9.514267	-0.167760	2.180556	-0.008488	-0.000591	-0.000646	-4.091275	-77.042512	-86.010036
10412	NaN	9.514280	-0.167872	2.180493	-0.006791	-0.000473	-0.000517	-4.087605	-77.041637	-86.013397
10413	NaN	9.533747	-0.169848	2.217865	-0.010012	-0.002069	-0.001449	-4.084276	-77.041689	-86.020462
10414	NaN	9.514338	-0.168051	2.180223	-0.006791	-0.000473	-0.000517	-4.080607	-77.040814	-86.023822
10415	NaN	9.514348	-0.168122	2.180178	-0.011902	-0.000141	-0.002277	-4.076036	-77.039810	-86.031713
10416	NaN	9.514885	-0.187663	2.194645	-0.008141	-0.003310	-0.001994	-4.069974	-77.040616	-86.038323
10417	NaN	9.533355	-0.150357	2.202761	-0.006844	0.001586	-0.004635	-4.056041	-77.038584	-86.049004
10418	NaN	9.514376	-0.167780	2.180081	-0.005303	0.002377	-0.002459	-4.046199	-77.036158	-86.057824
10419	NaN	9.528842	-0.155272	2.236839	-0.010048	-0.000696	-0.004195	-4.035688	-77.035479	-86.071714
10420	NaN	9.514886	-0.187008	2.194696	-0.004937	-0.001028	-0.002434	-4.026297	-77.034998	-86.079856
10421	NaN	9.495465	-0.184874	2.157134	-0.008368	0.000108	-0.005438	-4.011601	-77.033875	-86.092805
10422	NaN	9.556764	-0.126357	2.191832	-0.008194	-0.001251	-0.006113	-3.994988	-77.033667	-86.110274
10423	NaN	9.490471	-0.170227	2.176499	-0.011078	0.006771	0.001224	-3.996909	-77.028345	-86.106281
10424	NaN	9.533244	-0.149342	2.203313	-0.003239	-0.000909	-0.002306	-3.986852	-77.027789	-86.114109
10425	NaN	9.514413	-0.167071	2.179971	-0.016231	-0.008680	0.000126	-3.992284	-77.031594	-86.114299
10426	NaN	9.542853	-0.158451	2.149465	-0.006846	0.001587	-0.004634	-3.978081	-77.029704	-86.128501
10427	NaN	9.509988	-0.172294	2.213651	-0.005461	0.003049	-0.000411	-3.973527	-77.026666	-86.132574
10428	NaN	9.514982	-0.186455	2.194327	-0.009509	-0.005459	-0.004847	-3.961540	-77.028811	-86.146068
10429	NaN	9.538459	-0.163394	2.183033	-0.010033	-0.001383	-0.002823	-3.954592	-77.028444	-86.151649
10430	NaN	9.509073	-0.132767	2.184029	-0.005340	0.003751	-0.005202	-3.937756	-77.025337	-86.167668
10431	NaN	9.510101	-0.171635	2.213219	-0.009666	-0.004787	-0.002801	-3.930935	-77.026843	-86.177141
10432	NaN	9.533522	-0.148608	2.202158	-0.010418	0.002709	-0.004218	-3.919635	-77.024292	-86.190465
10433	NaN	9.515057	-0.185746	2.194063	-0.005270	0.001003	0.000287	-3.917188	-77.022432	-86.191543
10434	NaN	9.537933	-0.143364	2.168535	-0.010208	-0.000024	-0.002148	-3.911370	-77.021361	-86.199118
10435	NaN	9.505062	-0.157354	2.232743	-0.010768	0.005426	-0.002867	-3.903532	-77.017099	-86.207773
10436	NaN	9.533833	-0.168212	2.217620	-0.010576	0.003381	-0.002170	-3.897300	-77.014083	-86.215989
10437	NaN	9.514850	-0.185845	2.194951	-0.006987	0.001572	-0.001215	-3.892054	-77.011953	-86.218955
10438	NaN	9.509867	-0.171635	2.214225	-0.008511	0.000095	-0.002020	-3.885571	-77.010809	-86.226214
10439	NaN	9.509360	-0.152066	2.199615	-0.006812	0.000213	-0.001890	-3.878708	-77.009450	-86.230194
10440	NaN	9.490403	-0.169561	2.176847	-0.010420	0.002710	-0.004218	-3.867438	-77.006896	-86.243490
10441	NaN	9.557144	-0.145180	2.207041	-0.006427	-0.003879	-0.000497	-3.864812	-77.007975	-86.248130
10442	NaN	9.514357	-0.165961	2.180302	-0.008390	0.000799	-0.006811	-3.846277	-77.006612	-86.267688
10443	NaN	9.533282	-0.148133	2.203229	-0.008512	0.000094	-0.002020	-3.840227	-77.005393	-86.274132
10444	NaN	9.533291	-0.148016	2.203201	-0.006656	-0.000458	-0.003938	-3.828030	-77.004636	-86.286165
10445	NaN	9.509379	-0.151420	2.199577	-0.010542	0.002005	0.000574	-3.829180	-77.002196	-86.286257
10446	NaN	9.537714	-0.142838	2.169530	-0.008512	0.000095	-0.002020	-3.822709	-77.001050	-86.293506
10447	NaN	9.533253	-0.148169	2.203351	-0.006813	0.000213	-0.001890	-3.816152	-76.999801	-86.297570
10448	NaN	9.489933	-0.149501	2.162108	-0.006639	-0.001145	-0.002566	-3.807462	-76.999384	-86.305995
10449	NaN	9.509379	-0.151552	2.199567	-0.012067	0.000527	-0.000231	-3.807628	-76.997807	-86.311489
10450	NaN	9.533781	-0.167850	2.217867	-0.006814	0.000213	-0.001890	-3.800489	-76.996588	-86.318424
10451	NaN	9.509364	-0.151753	2.199616	-0.010369	0.000646	-0.000102	-3.799993	-76.994893	-86.317664
10452	NaN	9.509870	-0.171429	2.214226	-0.008513	0.000095	-0.002020	-3.793529	-76.993746	-86.324906
10453	NaN	9.504401	-0.137797	2.218787	-0.010177	-0.001400	0.000594	-3.795061	-76.993267	-86.327374
10454	NaN	9.514352	-0.166434	2.180288	-0.008671	0.000765	0.000028	-3.793646	-76.991659	-86.329526
10455	NaN	9.489451	-0.130863	2.147322	-0.010002	-0.002758	-0.000083	-3.793418	-76.991872	-86.329017
10456	NaN	9.509450	-0.152519	2.199195	-0.010039	-0.001382	-0.002826	-3.786077	-76.991599	-86.338056
10457	NaN	9.528887	-0.154687	2.236690	-0.007129	0.001553	0.002206	-3.789440	-76.989363	-86.332344
10458	NaN	9.514391	-0.166934	2.180081	-0.010250	0.001354	-0.004893	-3.776662	-76.987604	-86.347088
10459	NaN	9.504440	-0.138482	2.218577	-0.006797	-0.000475	-0.000519	-3.773274	-76.986599	-86.350805
10460	NaN	9.533850	-0.168943	2.217488	-0.006623	-0.001833	-0.001196	-3.768087	-76.986522	-86.355625
10461	NaN	9.508968	-0.133202	2.184458	-0.008322	-0.001951	-0.001325	-3.763946	-76.986429	-86.360236
10462	NaN	9.509509	-0.153025	2.198904	-0.006936	-0.000494	0.002901	-3.768853	-76.985432	-86.354879
10463	NaN	9.510016	-0.172906	2.213483	-0.006973	0.000883	0.000158	-3.766657	-76.983491	-86.356970
10464	NaN	9.509587	-0.153594	2.198525	-0.007726	-0.008780	0.002129	-3.771459	-76.987261	-86.352185
10465	NaN	9.509710	-0.154050	2.197962	-0.010143	-0.002778	0.003336	-3.779811	-76.987388	-86.344924
10466	NaN	9.509737	-0.154305	2.197827	-0.006816	0.000215	-0.001890	-3.772683	-76.986166	-86.351850
10467	NaN	9.509779	-0.154337	2.197642	-0.006431	-0.003879	-0.000502	-3.769515	-76.987039	-86.354743
10468	NaN	9.528780	-0.136929	2.220252	-0.008305	-0.002640	0.000046	-3.768494	-76.987376	-86.356276
10469	NaN	9.510402	-0.174210	2.211723	-0.006799	-0.000474	-0.000519	-3.765556	-76.986520	-86.358280
10470	NaN	9.509933	-0.154705	2.196951	-0.004731	-0.003760	-0.000372	-3.761637	-76.987514	-86.360686
10471	NaN	9.509486	-0.135242	2.182077	-0.008306	-0.002640	0.000046	-3.760865	-76.987717	-86.361718
10472	NaN	9.538948	-0.165853	2.180711	-0.008113	-0.004687	0.000740	-3.761784	-76.989198	-86.361147
10473	NaN	9.505194	-0.141249	2.215171	-0.006745	-0.002542	0.003595	-3.768593	-76.989123	-86.355569
10474	NaN	9.515121	-0.169912	2.176662	-0.010567	0.002693	-0.000794	-3.765921	-76.986443	-86.360127
10475	NaN	9.534051	-0.152521	2.199601	-0.004907	-0.002402	0.000305	-3.764071	-76.986589	-86.358583
10476	NaN	9.505231	-0.141959	2.214965	-0.005063	-0.001734	0.002353	-3.766754	-76.986321	-86.354408
10477	NaN	9.510247	-0.156439	2.195467	-0.006589	-0.003210	0.001546	-3.768723	-76.986775	-86.352362
10478	NaN	9.509789	-0.137231	2.180633	-0.006745	-0.002543	0.003595	-3.775572	-76.986922	-86.344900
10479	NaN	9.510856	-0.176736	2.209570	-0.008500	-0.000592	-0.000648	-3.772892	-76.985977	-86.345762
10480	NaN	9.505431	-0.143137	2.214030	-0.004714	-0.004449	0.000998	-3.772465	-76.987313	-86.344574
10481	NaN	9.539355	-0.168153	2.178752	-0.007977	-0.004664	-0.002681	-3.765372	-76.988881	-86.351945
10482	NaN	9.510526	-0.157476	2.194183	-0.003731	0.001788	0.002467	-3.767001	-76.986596	-86.348068
10483	NaN	9.505552	-0.143551	2.213484	-0.010201	-0.000710	-0.000778	-3.765198	-76.985824	-86.352636
10484	NaN	9.505597	-0.143609	2.213286	-0.006451	-0.003188	-0.001874	-3.758456	-76.986547	-86.358950
10485	NaN	9.510622	-0.157828	2.193743	-0.006608	-0.002521	0.000175	-3.757065	-76.986706	-86.359970
10486	NaN	9.510157	-0.138384	2.178953	-0.006608	-0.002521	0.000175	-3.755372	-76.986970	-86.361195
10487	NaN	9.506293	-0.163606	2.227045	-0.006608	-0.002521	0.000175	-3.754048	-76.987165	-86.363949
10488	NaN	9.529710	-0.140805	2.216016	-0.011902	-0.000829	-0.000907	-3.752438	-76.986502	-86.368202
10489	NaN	9.505837	-0.144236	2.212216	-0.001526	-0.001476	-0.000808	-3.745384	-76.986024	-86.369345
10490	NaN	9.510841	-0.158633	2.192736	-0.010147	-0.002781	0.003335	-3.753578	-76.986318	-86.362503
10491	NaN	9.482000	-0.148190	2.208229	-0.005276	0.001002	0.000290	-3.751160	-76.984415	-86.357348
10492	NaN	9.559172	-0.171984	2.214548	-0.006802	-0.000473	-0.000518	-3.747533	-76.983535	-86.360672
10493	NaN	9.486970	-0.162623	2.188885	-0.006783	-0.001164	0.000852	-3.747628	-76.982860	-86.359992
10494	NaN	9.500986	-0.131092	2.230965	-0.004927	-0.001712	-0.001067	-3.741771	-76.982708	-86.364502
10495	NaN	9.534909	-0.156142	2.195624	-0.007750	-0.008091	0.000751	-3.743365	-76.986013	-86.360346
10496	NaN	9.511081	-0.159643	2.191622	-0.006995	0.001574	-0.001210	-3.737806	-76.983987	-86.365766
10497	NaN	9.534976	-0.156416	2.195311	-0.006784	-0.001164	0.000852	-3.737547	-76.983182	-86.364270
10498	NaN	9.486716	-0.143570	2.173154	-0.004578	-0.004426	-0.002424	-3.728571	-76.984632	-86.371776
10499	NaN	9.511188	-0.159747	2.191147	-0.006821	0.000217	-0.001888	-3.721768	-76.983305	-86.378857
10500	NaN	9.506218	-0.145640	2.210486	-0.010397	0.001338	-0.001469	-3.717560	-76.981423	-86.384890
10501	NaN	9.506194	-0.145770	2.210579	-0.006977	0.000884	0.000161	-3.715657	-76.979603	-86.388618
10502	NaN	9.539988	-0.170843	2.175771	-0.006977	0.000884	0.000160	-3.713595	-76.977921	-86.390439
10503	NaN	9.506201	-0.146183	2.210525	-0.008292	-0.003330	0.001414	-3.716175	-76.978435	-86.389837
10504	NaN	9.506223	-0.146578	2.210403	-0.005414	0.000977	0.003710	-3.721975	-76.976568	-86.382669
10505	NaN	9.535613	-0.177263	2.209242	-0.011731	-0.002185	-0.001586	-3.719626	-76.976784	-86.387664
10506	NaN	9.482372	-0.150397	2.206480	-0.006785	-0.001164	0.000852	-3.719491	-76.976247	-86.387393
10507	NaN	9.511291	-0.161227	2.190593	-0.006280	-0.004543	-0.002555	-3.711238	-76.977602	-86.399525
10508	NaN	9.530821	-0.163383	2.227812	-0.008505	-0.000591	-0.000648	-3.708289	-76.976793	-86.403153
10509	NaN	9.505892	-0.127498	2.195025	-0.006648	-0.001139	-0.002568	-3.699782	-76.976220	-86.412781
10510	NaN	9.511402	-0.161163	2.190116	-0.008349	-0.001257	-0.002697	-3.691787	-76.975867	-86.421499
10511	NaN	9.507036	-0.166712	2.223641	-0.009839	-0.004114	-0.000765	-3.690309	-76.977054	-86.429026
10512	NaN	9.529956	-0.124240	2.197988	-0.006611	-0.002521	0.000173	-3.688614	-76.977317	-86.430256
10513	NaN	9.531059	-0.163593	2.226780	-0.004929	-0.001711	-0.001068	-3.683163	-76.977089	-86.433343
10514	NaN	9.506676	-0.147567	2.208390	-0.006749	-0.002547	0.003592	-3.690003	-76.977241	-86.425892
10515	NaN	9.506723	-0.147841	2.208165	-0.008331	-0.001948	-0.001327	-3.685253	-76.976929	-86.430919
10516	NaN	9.501800	-0.133998	2.227321	-0.010344	-0.000736	0.002643	-3.691517	-76.976080	-86.426175
10517	NaN	9.511744	-0.162605	2.188525	-0.006593	-0.003212	0.001543	-3.693539	-76.976559	-86.423634
10518	NaN	9.506846	-0.148822	2.207572	-0.006768	-0.001856	0.002222	-3.696892	-76.976366	-86.419773
10519	NaN	9.511849	-0.163256	2.188021	-0.006594	-0.003212	0.001542	-3.698687	-76.976746	-86.415617
10520	NaN	9.511344	-0.144020	2.173401	-0.008818	0.000739	0.003452	-3.705839	-76.975025	-86.409062
10521	NaN	9.506955	-0.149864	2.207032	-0.006438	-0.003877	-0.000507	-3.702569	-76.975864	-86.410971
10522	NaN	9.507054	-0.150088	2.206588	-0.006401	-0.005260	0.002232	-3.706283	-76.977617	-86.406525
10523	NaN	9.535988	-0.161108	2.190571	-0.008314	-0.002638	0.000043	-3.705648	-76.977887	-86.408913
10524	NaN	9.507749	-0.170223	2.220325	-0.008122	-0.004687	0.000733	-3.706549	-76.979368	-86.408366
10525	NaN	9.506771	-0.131147	2.190998	-0.008315	-0.002638	0.000043	-3.706019	-76.979676	-86.410346
10526	NaN	9.531242	-0.147639	2.208969	-0.005086	-0.001046	0.000982	-3.705213	-76.979066	-86.409766
10527	NaN	9.507375	-0.151135	2.205136	-0.010035	-0.002064	-0.001456	-3.701962	-76.979131	-86.415124
10528	NaN	9.507416	-0.151344	2.204944	-0.005068	-0.001738	0.002351	-3.704643	-76.978866	-86.410954
10529	NaN	9.483587	-0.155039	2.200929	-0.006402	-0.005261	0.002231	-3.708623	-76.980488	-86.404400
10530	NaN	9.536419	-0.162879	2.188565	-0.010154	-0.002784	0.003333	-3.716814	-76.980784	-86.397565
10531	NaN	9.530978	-0.129606	2.193243	-0.005242	-0.000382	0.003032	-3.721306	-76.979575	-86.389341
10532	NaN	9.512028	-0.147348	2.170181	-0.005087	-0.001046	0.000982	-3.720500	-76.978965	-86.388761
10533	NaN	9.512586	-0.167285	2.184505	-0.006770	-0.001856	0.002222	-3.724045	-76.978626	-86.384216
10534	NaN	9.512639	-0.167610	2.184253	-0.006596	-0.003212	0.001541	-3.725836	-76.979234	-86.381857
10535	NaN	9.512177	-0.148243	2.169468	-0.006596	-0.003212	0.001541	-3.727963	-76.979775	-86.382467
10536	NaN	9.527304	-0.156250	2.240521	-0.008509	-0.000589	-0.000646	-3.725019	-76.978964	-86.386094
10537	NaN	9.507815	-0.154071	2.203034	-0.006826	0.000221	-0.001887	-3.718270	-76.977641	-86.391083
10538	NaN	9.507835	-0.154438	2.202923	-0.012013	-0.002239	0.005253	-3.732184	-76.977554	-86.379467
10539	NaN	9.532354	-0.171217	2.220654	-0.006249	-0.005924	0.000180	-3.731273	-76.979696	-86.378509
10540	NaN	9.512940	-0.169235	2.182816	-0.006771	-0.001856	0.002222	-3.734629	-76.979502	-86.374648
10541	NaN	9.531394	-0.132478	2.191261	-0.006963	0.000192	0.001533	-3.736637	-76.978142	-86.369882
10542	NaN	9.513516	-0.189535	2.197021	-0.008299	-0.003330	0.001412	-3.739103	-76.978822	-86.367832
10543	NaN	9.479245	-0.145367	2.217388	-0.006964	0.000192	0.001533	-3.740570	-76.977290	-86.366717
10544	NaN	9.532026	-0.153121	2.205211	-0.006579	-0.003905	0.002910	-3.745847	-76.978242	-86.360770
