// General information: 
//  MT Manager version: 2022.2.0 
//  XDA version: 2022.2.0 build 7381 rev 124627 built on 2023-07-19
// Device information: 
//  DeviceId: 00B4BB4E
//  ProductCode: MTW2-3A7G6
//  Firmware Version: 4.6.0
//  Hardware Version: 2.0.0
// Device settings: 
//  Filter Profile: human(46.1)
//  Option Flags: Orientation Smoother Disabled, Position/Velocity Smoother Disabled, Continuous Zero Rotation Update Disabled, AHS Disabled, ICC Disabled
// Coordinate system: ENU
PacketCounter	SampleTimeFine	Acc_X	Acc_Y	Acc_Z	Gyr_X	Gyr_Y	Gyr_Z	Roll	Pitch	Yaw
09340	NaN	9.739422	-0.114729	-0.288230	-0.001890	-0.005492	-0.021455	-164.685939	-88.475907	-54.493655
09341	NaN	9.757846	-0.128697	-0.288891	0.010697	-0.001894	-0.021194	-165.035233	-88.476416	-54.140274
09342	NaN	9.775504	-0.144402	-0.240620	0.015899	-0.002820	-0.023495	-165.431077	-88.476234	-53.734480
09343	NaN	9.770353	-0.074155	-0.213951	0.019037	-0.001859	-0.024617	-165.842554	-88.477005	-53.307563
09344	NaN	9.752720	-0.053629	-0.262685	0.022249	-0.003451	-0.031706	-166.409904	-88.477432	-52.726561
09345	NaN	9.733923	-0.035361	-0.237984	0.019150	0.003435	-0.034030	-166.997609	-88.482071	-52.130439
09346	NaN	9.749949	-0.013892	-0.236628	0.008747	0.005277	-0.029431	-167.485877	-88.486787	-51.636289
09347	NaN	9.770839	-0.061450	-0.237663	0.002017	0.004436	-0.029555	-167.991606	-88.491445	-51.129880
09348	NaN	9.739278	-0.094179	-0.263274	0.002588	0.008635	-0.036604	-168.628494	-88.498634	-50.490590
09349	NaN	9.755708	-0.071488	-0.286003	0.009480	0.006400	-0.032968	-169.198863	-88.503862	-49.917641
09350	NaN	9.739775	-0.086643	-0.286111	0.019656	0.010172	-0.035123	-169.798777	-88.511413	-49.305560
09351	NaN	9.771778	-0.046464	-0.283354	0.024139	0.008106	-0.033897	-170.383560	-88.517650	-48.705918
09352	NaN	9.753358	-0.027254	-0.282046	0.024327	0.012884	-0.033830	-170.954486	-88.526286	-48.120161
09353	NaN	9.750483	0.009416	-0.255629	0.023540	0.004144	-0.031597	-171.512671	-88.529981	-47.543826
09354	NaN	9.734938	-0.005512	-0.280419	0.027057	0.006577	-0.024389	-171.903507	-88.533986	-47.136657
09355	NaN	9.766456	0.032960	-0.253652	0.030317	0.004721	-0.026739	-172.356166	-88.537249	-46.669039
09356	NaN	9.732034	0.032764	-0.253720	0.021854	0.007489	-0.022094	-172.700442	-88.541452	-46.311428
09357	NaN	9.742092	0.120473	-0.201092	0.017956	0.005637	-0.022184	-173.063474	-88.544895	-45.943133
09358	NaN	9.742488	0.123274	-0.224775	0.012626	0.009374	-0.018661	-173.334871	-88.549830	-45.663716
09359	NaN	9.726551	0.106492	-0.224819	0.003518	0.008450	-0.016448	-173.565593	-88.554096	-45.429689
09360	NaN	9.745047	0.092101	-0.224234	-0.002454	0.008491	-0.015358	-173.776533	-88.558261	-45.219391
09361	NaN	9.747622	0.059099	-0.224444	-0.015283	0.010503	-0.013167	-173.947183	-88.563459	-45.065520
09362	NaN	9.718761	-0.009998	-0.251100	-0.012201	0.003866	-0.015581	-174.182020	-88.564965	-44.836905
09363	NaN	9.736453	-0.026195	-0.201806	-0.013332	0.011422	-0.013125	-174.347417	-88.570508	-44.683892
09364	NaN	9.771733	-0.020754	-0.249055	-0.006317	0.006395	-0.010703	-174.463221	-88.573150	-44.570975
09365	NaN	9.774336	-0.053932	-0.249628	-0.004703	0.005591	-0.014249	-174.663277	-88.575386	-44.378877
09366	NaN	9.752839	-0.003231	-0.223349	-0.000647	0.004384	-0.010637	-174.779508	-88.576861	-44.262285
09367	NaN	9.786857	-0.000645	-0.197615	-0.004032	0.009045	-0.007069	-174.808148	-88.581020	-44.234778
09368	NaN	9.750274	0.032930	-0.220826	-0.008265	0.005466	-0.010750	-174.929753	-88.583111	-44.117176
09369	NaN	9.750719	0.034504	-0.244235	-0.010252	0.014708	-0.003534	-174.867226	-88.590182	-44.183742
09370	NaN	9.750745	0.035118	-0.243108	-0.014360	0.008314	-0.008441	-174.933676	-88.593779	-44.124806
09371	NaN	9.735279	0.018062	-0.267775	-0.016580	0.005174	-0.002585	-174.874446	-88.595545	-44.191443
09372	NaN	9.735297	0.018349	-0.267085	-0.013566	0.008953	-0.002482	-174.800305	-88.599202	-44.272686
09373	NaN	9.753401	0.001833	-0.242059	-0.008783	0.008876	-0.002403	-174.721495	-88.602810	-44.355643
09374	NaN	9.736638	-0.018315	-0.193589	-0.012525	0.003967	0.001028	-174.574738	-88.603428	-44.508925
09375	NaN	9.739686	-0.052112	-0.218755	-0.004574	0.004615	0.004735	-174.338467	-88.604474	-44.745485
09376	NaN	9.771516	-0.015622	-0.216314	-0.011431	0.006577	0.005831	-174.071968	-88.606273	-45.017917
09377	NaN	9.753015	0.000082	-0.215514	-0.003416	0.004900	-0.001178	-173.969389	-88.607447	-45.124981
09378	NaN	9.771971	-0.015064	-0.239965	-0.000731	-0.001128	0.003534	-173.769341	-88.604958	-45.324811
09379	NaN	9.736676	-0.019866	-0.191492	-0.000800	0.009279	0.006052	-173.489298	-88.608500	-45.607272
09380	NaN	9.737575	-0.018635	-0.239514	-0.000676	0.006466	0.004827	-173.238644	-88.610205	-45.857692
09381	NaN	9.753501	-0.000628	-0.237981	0.006941	0.005388	0.004944	-172.983797	-88.611202	-46.110083
09382	NaN	9.719092	-0.003748	-0.238129	0.002919	0.006347	0.006075	-172.701063	-88.612695	-46.390531
09383	NaN	9.752637	-0.003633	-0.188002	-0.004241	0.006339	0.008325	-172.377281	-88.614498	-46.717525
09384	NaN	9.734143	0.011728	-0.187085	-0.011886	0.007662	0.003460	-172.158912	-88.616871	-46.942075
09385	NaN	9.736740	-0.023218	-0.187825	-0.013986	0.001709	0.008090	-171.852899	-88.615396	-47.256908
09386	NaN	9.724311	-0.074985	-0.238565	-0.014442	0.002794	0.005722	-171.598736	-88.614771	-47.518726
09387	NaN	9.739781	-0.057862	-0.212988	-0.010420	0.001834	0.004591	-171.374174	-88.613938	-47.747110
09388	NaN	9.739327	-0.059180	-0.188609	-0.008651	-0.002022	0.004568	-171.161697	-88.610635	-47.963911
09389	NaN	9.758274	-0.074580	-0.213490	-0.009412	-0.002906	0.003355	-170.985554	-88.607189	-48.146722
09390	NaN	9.758267	-0.074896	-0.213689	-0.005514	-0.001054	0.003450	-170.795577	-88.604501	-48.339220
09391	NaN	9.724286	-0.076653	-0.239047	-0.001826	-0.003737	-0.001272	-170.723293	-88.600609	-48.415501
09392	NaN	9.760836	-0.109391	-0.215375	-0.003137	-0.000969	0.001118	-170.586877	-88.598167	-48.553060
09393	NaN	9.740647	-0.057377	-0.262845	0.004478	-0.002046	0.001237	-170.443738	-88.595187	-48.684124
09394	NaN	9.755666	-0.040482	-0.213408	0.010542	-0.004644	-0.005816	-170.474192	-88.591316	-48.646923
09395	NaN	9.776750	-0.090502	-0.214950	0.007035	0.002821	-0.001024	-170.368486	-88.591222	-48.749872
09396	NaN	9.739745	-0.058451	-0.214505	0.010115	-0.003804	-0.003438	-170.341533	-88.587598	-48.770340
09397	NaN	9.740183	-0.057300	-0.239312	0.006978	-0.004773	-0.002319	-170.292280	-88.583356	-48.812439
09398	NaN	9.771572	-0.021014	-0.213314	0.008043	-0.001919	-0.002261	-170.232630	-88.580682	-48.866801
09399	NaN	9.758229	-0.073765	-0.215807	0.010573	-0.004893	-0.001071	-170.155384	-88.576121	-48.937522
09400	NaN	9.755192	-0.040045	-0.190680	0.012950	-0.004809	-0.003404	-170.130751	-88.571925	-48.954044
09401	NaN	9.740148	-0.056480	-0.240937	0.020567	-0.005890	-0.003287	-170.104935	-88.567238	-48.968222
09402	NaN	9.721187	-0.041169	-0.216966	0.026236	-0.007898	-0.003219	-170.080931	-88.561279	-48.976501
09403	NaN	9.771522	-0.019739	-0.215687	0.020292	-0.000026	-0.005589	-170.079847	-88.559857	-48.963130
09404	NaN	9.718585	-0.005981	-0.216494	0.013838	-0.006744	-0.003417	-170.062988	-88.554569	-48.971367
09405	NaN	9.753431	-0.002252	-0.240837	0.013838	-0.006745	-0.003417	-170.049480	-88.549266	-48.982400
09406	NaN	9.731446	0.046671	-0.191265	0.011004	-0.005742	-0.003453	-170.031299	-88.544547	-48.993584
09407	NaN	9.771040	-0.019594	-0.193595	0.002810	-0.008842	0.003491	-169.878674	-88.537561	-49.145315
09408	NaN	9.734439	0.012990	-0.218333	-0.000055	-0.007596	-0.001290	-169.827177	-88.531577	-49.196165
09409	NaN	9.752930	-0.003017	-0.219308	-0.009592	-0.007682	0.003297	-169.685389	-88.525234	-49.346647
09410	NaN	9.752908	-0.002958	-0.220316	-0.014159	-0.012989	-0.003976	-169.723069	-88.516483	-49.316374
09411	NaN	9.771389	-0.018561	-0.221731	-0.022203	-0.011066	-0.001712	-169.712221	-88.508567	-49.347265
09412	NaN	9.739537	-0.055147	-0.224579	-0.024306	-0.008938	-0.005281	-169.767551	-88.502232	-49.305153
09413	NaN	9.758442	-0.069683	-0.250348	-0.020888	-0.013844	-0.004106	-169.814561	-88.493161	-49.267374
09414	NaN	9.742499	-0.087790	-0.252515	-0.016228	-0.011110	-0.002803	-169.819846	-88.485348	-49.270693
09415	NaN	9.776481	-0.085966	-0.228599	-0.012173	-0.012316	0.000809	-169.752092	-88.476834	-49.342069
09416	NaN	9.705828	-0.054761	-0.278777	-0.009371	-0.013075	-0.003905	-169.784534	-88.468026	-49.314291
09417	NaN	9.737616	-0.017253	-0.278357	-0.010007	-0.016775	-0.006344	-169.882634	-88.457466	-49.221956
09418	NaN	9.755679	-0.033416	-0.255921	-0.007172	-0.017780	-0.006313	-169.980204	-88.446243	-49.127767
09419	NaN	9.754446	-0.035853	-0.184212	-0.013356	-0.012366	0.001974	-169.890973	-88.437444	-49.222732
09420	NaN	9.755211	-0.034157	-0.234298	-0.020847	-0.014106	0.000637	-169.838923	-88.427596	-49.286054
09421	NaN	9.771486	-0.014772	-0.258994	-0.024565	-0.011178	0.000617	-169.779455	-88.419488	-49.358987
09422	NaN	9.755541	-0.033145	-0.261167	-0.023253	-0.013952	-0.001779	-169.778686	-88.409969	-49.372389
09423	NaN	9.774015	-0.048885	-0.262889	-0.021604	-0.015001	-0.000582	-169.755034	-88.399561	-49.408982
09424	NaN	9.724406	-0.068076	-0.314599	-0.016945	-0.012261	0.000722	-169.694632	-88.390739	-49.478425
09425	NaN	9.722141	-0.032773	-0.339079	-0.013225	-0.015194	0.000738	-169.642871	-88.380421	-49.534339
09426	NaN	9.758365	-0.066724	-0.292285	-0.007345	-0.012657	0.005622	-169.482776	-88.370862	-49.698014
09427	NaN	9.757581	-0.069125	-0.244695	0.004165	-0.011873	0.005822	-169.312134	-88.361784	-49.866563
09428	NaN	9.726085	-0.105593	-0.272210	0.008610	-0.013671	0.002304	-169.215400	-88.351984	-49.957707
09429	NaN	9.738636	-0.054679	-0.222591	0.013816	-0.014586	-0.000002	-169.167597	-88.342188	-49.997403
09430	NaN	9.752286	-0.000925	-0.246300	-0.000827	-0.016344	0.000922	-169.114804	-88.331028	-50.049998
09431	NaN	9.734814	0.017670	-0.320651	-0.006494	-0.014342	0.000862	-169.061501	-88.321282	-50.106141
09432	NaN	9.755513	-0.033979	-0.299261	-0.008827	-0.014680	0.007943	-168.874612	-88.310284	-50.297476
09433	NaN	9.779149	-0.119007	-0.303724	-0.002350	-0.018118	-0.001507	-168.877380	-88.298196	-50.298122
09434	NaN	9.763186	-0.137559	-0.306061	-0.010636	-0.010572	0.003228	-168.768552	-88.290016	-50.412400
09435	NaN	9.743953	-0.123678	-0.258019	-0.000650	-0.011558	0.000995	-168.700344	-88.281605	-50.477948
09436	NaN	9.791333	-0.069303	-0.232173	0.004718	-0.015538	0.002204	-168.622381	-88.270741	-50.552546
09437	NaN	9.754623	-0.036656	-0.257293	0.006203	-0.013520	-0.000116	-168.583256	-88.261612	-50.587989
09438	NaN	9.771181	-0.016303	-0.306333	-0.007079	-0.010442	-0.000275	-168.540191	-88.253888	-50.634436
09439	NaN	9.733805	0.014676	-0.282204	-0.014693	-0.009369	-0.000376	-168.498068	-88.246817	-50.681177
09440	NaN	9.738620	-0.054923	-0.261361	-0.017402	-0.011186	-0.001635	-168.489285	-88.238830	-50.699245
09441	NaN	9.773343	-0.051216	-0.286388	-0.016515	-0.013119	-0.001654	-168.488783	-88.229609	-50.714371
09442	NaN	9.738884	-0.053921	-0.288018	-0.018668	-0.008668	0.005508	-168.342455	-88.222212	-50.870775
09443	NaN	9.723248	-0.071904	-0.314470	-0.010043	-0.014491	0.004358	-168.233587	-88.211564	-50.983989
09444	NaN	9.757309	-0.070516	-0.290985	-0.003655	-0.015358	0.000880	-168.189098	-88.200938	-51.029901
09445	NaN	9.770919	-0.016756	-0.314567	-0.004541	-0.013427	0.000898	-168.139071	-88.191501	-51.082792
09446	NaN	9.773463	-0.051295	-0.317042	-0.004664	-0.010611	0.002129	-168.056453	-88.183387	-51.167431
09447	NaN	9.770230	-0.018790	-0.267979	-0.010672	-0.010334	-0.001520	-168.040802	-88.175895	-51.187989
09448	NaN	9.751996	-0.002080	-0.293247	-0.013170	-0.015474	0.005479	-167.923748	-88.164650	-51.311957
09449	NaN	9.754844	-0.036361	-0.320056	-0.021872	-0.007091	0.012609	-167.657800	-88.157353	-51.589339
09450	NaN	9.717501	-0.006396	-0.295975	-0.020316	-0.015501	0.007741	-167.509406	-88.145788	-51.748762
09451	NaN	9.720620	-0.039777	-0.347560	-0.027882	-0.014688	0.012387	-167.286719	-88.134255	-51.989638
09452	NaN	9.776065	-0.088698	-0.350004	-0.018147	-0.010035	0.012612	-167.036930	-88.125085	-52.249269
09453	NaN	9.735886	-0.025556	-0.299900	-0.017085	-0.007174	0.012676	-166.777785	-88.117478	-52.521151
09454	NaN	9.752084	-0.007397	-0.324163	-0.018565	-0.009203	0.014991	-166.489512	-88.108380	-52.819528
09455	NaN	9.770550	-0.024856	-0.325306	-0.017923	-0.005504	0.017438	-166.149711	-88.101066	-53.170922
09456	NaN	9.717316	-0.014056	-0.301717	-0.025707	-0.009235	0.017253	-165.833534	-88.091526	-53.501316
09457	NaN	9.736068	-0.030699	-0.327072	-0.036390	-0.001537	0.019598	-165.450871	-88.085593	-53.899341
09458	NaN	9.738583	-0.066998	-0.328768	-0.039813	-0.004507	0.021862	-165.052150	-88.077859	-54.320415
09459	NaN	9.741076	-0.103281	-0.330724	-0.041336	-0.006284	0.019428	-164.706538	-88.069733	-54.688838
09460	NaN	9.722840	-0.088130	-0.355365	-0.034906	-0.007410	0.020689	-164.343883	-88.060398	-55.071017
09461	NaN	9.706844	-0.108362	-0.356844	-0.032360	-0.002522	0.018441	-163.996028	-88.054089	-55.433662
09462	NaN	9.740965	-0.108537	-0.332322	-0.030291	-0.004411	0.017248	-163.678484	-88.046799	-55.768061
09463	NaN	9.761612	-0.161649	-0.310372	-0.029822	-0.005517	0.019605	-163.331196	-88.038760	-56.130495
09464	NaN	9.764069	-0.197561	-0.312162	-0.017775	-0.000488	0.012766	-163.064007	-88.034238	-56.407337
09465	NaN	9.766813	-0.232099	-0.338005	-0.018658	0.001442	0.012788	-162.786326	-88.030707	-56.689854
09466	NaN	9.710842	-0.187284	-0.288081	-0.007567	-0.007086	0.008052	-162.623250	-88.023297	-56.856670
09467	NaN	9.740562	-0.115778	-0.309500	-0.003794	-0.002406	0.009387	-162.413119	-88.018524	-57.063101
09468	NaN	9.740541	-0.116670	-0.309832	-0.007686	-0.004273	0.009290	-162.218902	-88.012396	-57.261145
09469	NaN	9.742997	-0.151907	-0.311589	-0.005441	-0.001357	0.008194	-162.025309	-88.008342	-57.452245
09470	NaN	9.742982	-0.152518	-0.311767	-0.003843	-0.002137	0.004645	-161.892714	-88.004159	-57.586428
09471	NaN	9.740496	-0.118651	-0.310508	-0.010980	-0.002173	0.006905	-161.729654	-87.999663	-57.755036
09472	NaN	9.775198	-0.115708	-0.334481	-0.013511	0.000810	0.005736	-161.571588	-87.996861	-57.920247
09473	NaN	9.758933	-0.135714	-0.311022	-0.018285	0.000875	0.005662	-161.419411	-87.994302	-58.086032
09474	NaN	9.761668	-0.169438	-0.336931	-0.010264	-0.001022	0.003378	-161.306456	-87.990908	-58.204245
09475	NaN	9.727226	-0.172085	-0.337491	-0.001181	-0.000052	0.001167	-161.216219	-87.988430	-58.291807
09476	NaN	9.743477	-0.152696	-0.361123	0.003413	-0.004916	0.001144	-161.151035	-87.983324	-58.354378
09477	NaN	9.708478	-0.157488	-0.313132	0.005241	-0.001169	0.002432	-161.047000	-87.979944	-58.458862
09478	NaN	9.740165	-0.121924	-0.287044	0.012963	-0.005050	0.001291	-160.975492	-87.974731	-58.522288
09479	NaN	9.758877	-0.136945	-0.312263	0.015208	-0.002134	0.000196	-160.905317	-87.971475	-58.584979
09480	NaN	9.740418	-0.120975	-0.312046	0.017272	-0.004017	-0.000995	-160.861357	-87.967245	-58.618368
09481	NaN	9.737941	-0.086630	-0.310993	0.012964	-0.005053	0.001290	-160.791540	-87.962282	-58.681468
09482	NaN	9.737666	-0.087858	-0.286710	0.009433	0.002679	0.001384	-160.680783	-87.961221	-58.786192
09483	NaN	9.742587	-0.156638	-0.289743	0.002182	-0.004697	-0.002429	-160.672636	-87.957074	-58.794642
09484	NaN	9.740924	-0.118878	-0.361853	0.002947	-0.003816	-0.001214	-160.639838	-87.952991	-58.825075
09485	NaN	9.774545	-0.119578	-0.288430	0.007605	-0.001069	0.000097	-160.569218	-87.950447	-58.888191
09486	NaN	9.743107	-0.154175	-0.339292	0.009202	-0.001850	-0.003453	-160.556421	-87.947851	-58.895024
09487	NaN	9.724648	-0.137884	-0.339203	0.009022	-0.006649	-0.003548	-160.572716	-87.942477	-58.879540
09488	NaN	9.740876	-0.118314	-0.363317	0.007127	-0.007853	0.001145	-160.523953	-87.935761	-58.923554
09489	NaN	9.721876	-0.104349	-0.314651	0.008139	-0.004717	-0.003525	-160.526927	-87.931746	-58.912281
09490	NaN	9.738112	-0.084791	-0.338493	0.010137	-0.004055	0.001263	-160.454973	-87.927057	-58.977775
09491	NaN	9.738094	-0.084925	-0.338970	0.001468	-0.005851	0.001097	-160.402811	-87.921569	-59.034327
09492	NaN	9.770311	-0.047073	-0.361859	-0.001063	-0.002866	-0.000071	-160.351358	-87.917773	-59.085729
09493	NaN	9.756001	-0.102921	-0.291377	-0.003477	-0.002697	-0.002477	-160.337196	-87.914599	-59.103460
09494	NaN	9.774967	-0.116600	-0.340871	-0.007488	-0.001746	-0.001333	-160.302449	-87.911649	-59.141829
09495	NaN	9.758982	-0.134866	-0.341874	-0.011200	0.001189	-0.001333	-160.251626	-87.910357	-59.192629
09496	NaN	9.740272	-0.119883	-0.316989	-0.012679	-0.000846	0.000978	-160.181180	-87.907442	-59.269696
09497	NaN	9.724540	-0.137302	-0.342492	-0.014625	-0.001780	0.000930	-160.116788	-87.904119	-59.339645
09498	NaN	9.740777	-0.117750	-0.366144	-0.009433	-0.002680	-0.001382	-160.089346	-87.900670	-59.371818
09499	NaN	9.743238	-0.152127	-0.367756	-0.001181	-0.000051	0.001167	-160.007418	-87.898324	-59.457473
09500	NaN	9.777675	-0.149679	-0.367284	0.001181	0.000051	-0.001167	-159.956441	-87.896301	-59.507113
09501	NaN	9.774695	-0.117408	-0.316939	0.002711	0.001815	0.001263	-159.859467	-87.894792	-59.602239
09502	NaN	9.740258	-0.119993	-0.317371	0.006424	-0.001119	0.001263	-159.776503	-87.891654	-59.680881
09503	NaN	9.759226	-0.133888	-0.366650	0.007903	0.000915	-0.001049	-159.714750	-87.890197	-59.735859
09504	NaN	9.756508	-0.100574	-0.340608	0.004658	0.002747	0.001310	-159.611574	-87.889119	-59.835741
09505	NaN	9.722077	-0.103056	-0.340895	0.007903	0.000915	-0.001049	-159.550538	-87.887661	-59.890664
09506	NaN	9.774981	-0.116494	-0.340490	-0.002352	0.007785	-0.001073	-159.458783	-87.889754	-59.983134
09507	NaN	9.740827	-0.117829	-0.364788	-0.001766	0.003867	0.000047	-159.371483	-87.889768	-60.069360
09508	NaN	9.724596	-0.137250	-0.340944	-0.003415	0.004918	-0.001144	-159.296881	-87.890329	-60.145275
09509	NaN	9.775035	-0.116367	-0.338979	-0.003831	0.005749	0.001238	-159.182764	-87.890964	-60.260373
09510	NaN	9.722163	-0.102888	-0.338501	-0.001766	0.003867	0.000047	-159.095644	-87.890710	-60.347869
09511	NaN	9.759080	-0.134791	-0.339108	-0.000585	0.003917	-0.001120	-159.024572	-87.890910	-60.418412
09512	NaN	9.759362	-0.133737	-0.363076	-0.001001	0.004748	0.001262	-158.914466	-87.890868	-60.528472
09513	NaN	9.722201	-0.102962	-0.337384	0.002711	0.001814	0.001263	-158.818664	-87.889456	-60.621904
09514	NaN	9.772361	-0.083376	-0.311264	-0.005310	0.003714	0.003549	-158.683837	-87.888372	-60.759172
09515	NaN	9.756392	-0.102028	-0.311643	-0.002767	0.008614	0.001309	-158.552566	-87.890622	-60.891950
09516	NaN	9.740428	-0.120678	-0.311838	-0.007075	0.007580	0.003595	-158.396015	-87.891563	-61.051968
09517	NaN	9.740717	-0.119811	-0.335678	-0.012498	0.003951	0.001068	-158.299998	-87.891183	-61.154771
09518	NaN	9.756440	-0.102624	-0.309939	-0.014860	0.003848	0.003401	-158.172157	-87.890155	-61.290524
09519	NaN	9.724201	-0.140834	-0.287029	-0.013796	0.006712	0.003473	-158.026199	-87.890945	-61.443755
09520	NaN	9.741031	-0.119477	-0.358756	-0.016805	0.002913	0.003351	-157.905816	-87.889408	-61.573161
09521	NaN	9.743210	-0.155350	-0.335790	-0.012627	-0.001124	0.005711	-157.772466	-87.885392	-61.711975
09522	NaN	9.725040	-0.138573	-0.359563	-0.012495	0.003947	0.001066	-157.676827	-87.884880	-61.814147
09523	NaN	9.763565	-0.208394	-0.288486	-0.003362	0.004643	0.003597	-157.538585	-87.884352	-61.960975
09524	NaN	9.740773	-0.121710	-0.333362	-0.004127	0.003761	0.002381	-157.420542	-87.883437	-62.080770
09525	NaN	9.761404	-0.173289	-0.310652	-0.003711	0.002932	-0.000002	-157.340583	-87.882644	-62.160545
09526	NaN	9.758678	-0.140132	-0.284304	-0.004244	0.006574	0.003620	-157.188198	-87.882925	-62.314773
09527	NaN	9.758971	-0.139371	-0.308197	-0.010082	0.003775	0.003472	-157.059163	-87.881734	-62.451889
09528	NaN	9.758988	-0.139458	-0.307642	-0.007122	0.007847	-0.001146	-156.968701	-87.883727	-62.545801
09529	NaN	9.759302	-0.138343	-0.331187	-0.010366	0.009674	0.001210	-156.835871	-87.886190	-62.685628
09530	NaN	9.743331	-0.156859	-0.331553	-0.002945	0.003812	0.001214	-156.733687	-87.885512	-62.788877
09531	NaN	9.727060	-0.176469	-0.307816	-0.007719	0.003877	0.001138	-156.634104	-87.884787	-62.890794
09532	NaN	9.762382	-0.170977	-0.379960	0.000530	0.006506	0.003696	-156.478096	-87.884944	-63.045911
09533	NaN	9.745820	-0.191881	-0.331658	-0.002180	0.004692	0.002430	-156.354137	-87.884314	-63.174717
09534	NaN	9.727386	-0.176013	-0.330795	0.001064	0.002865	0.000074	-156.271995	-87.883370	-63.255610
09535	NaN	9.727389	-0.176200	-0.330617	0.003176	0.000710	0.003625	-156.151966	-87.880663	-63.373172
09536	NaN	9.761835	-0.174018	-0.329685	0.000065	0.007609	0.001337	-156.022929	-87.881899	-63.501565
09537	NaN	9.710831	-0.197079	-0.281847	0.006138	0.004783	-0.000992	-155.940693	-87.882231	-63.578717
09538	NaN	9.745579	-0.193589	-0.305236	0.003775	0.004678	0.001340	-155.827883	-87.881916	-63.688745
09539	NaN	9.743438	-0.158002	-0.327825	0.005491	0.001089	-0.003448	-155.803647	-87.880971	-63.707483
09540	NaN	9.761899	-0.173677	-0.327964	0.005673	0.005885	-0.003351	-155.748378	-87.882383	-63.758843
09541	NaN	9.780373	-0.189373	-0.327724	0.011512	0.008682	-0.003202	-155.669516	-87.885056	-63.830586
09542	NaN	9.780106	-0.190006	-0.302549	0.011165	0.006972	-0.006800	-155.652736	-87.887845	-63.840281
09543	NaN	9.761995	-0.172429	-0.325761	0.013577	0.006801	-0.004392	-155.601451	-87.890026	-63.883255
09544	NaN	9.761419	-0.174036	-0.276193	0.016241	0.008886	-0.007868	-155.584474	-87.894066	-63.890237
09545	NaN	9.727328	-0.174793	-0.300189	0.015824	0.009713	-0.005487	-155.529824	-87.897954	-63.939983
09546	NaN	9.759642	-0.136377	-0.321861	0.013696	0.003984	-0.005632	-155.514082	-87.898907	-63.947190
09547	NaN	9.743682	-0.154351	-0.322280	0.010750	0.007795	-0.004422	-155.458407	-87.901756	-63.997336
09548	NaN	9.744021	-0.152824	-0.346077	0.008922	0.004050	-0.005709	-155.446032	-87.902762	-64.003910
09549	NaN	9.759401	-0.136058	-0.295839	0.009687	0.004930	-0.004494	-155.410844	-87.903919	-64.034997
09550	NaN	9.725300	-0.136987	-0.320328	0.013698	0.003981	-0.005633	-155.395068	-87.904871	-64.042236
09551	NaN	9.743462	-0.153507	-0.295893	0.008041	0.005979	-0.005689	-155.369213	-87.907040	-64.060896
09552	NaN	9.743806	-0.151805	-0.319728	0.008459	0.005148	-0.008071	-155.383545	-87.909180	-64.041010
09553	NaN	9.709713	-0.152455	-0.344298	0.012171	0.002216	-0.008065	-155.413180	-87.909838	-63.999426
09554	NaN	9.759513	-0.132922	-0.293540	0.010407	0.006077	-0.008023	-155.419703	-87.912451	-63.986239
09555	NaN	9.759545	-0.132169	-0.292840	0.009525	0.008008	-0.008002	-155.414998	-87.915867	-63.989121
09556	NaN	9.757088	-0.097060	-0.290746	0.007278	0.005094	-0.006906	-155.413801	-87.917701	-63.985451
09557	NaN	9.757430	-0.095412	-0.314681	0.004149	0.004112	-0.005789	-155.404646	-87.918876	-63.992176
09558	NaN	9.722695	-0.098307	-0.290352	-0.000327	0.006160	-0.007012	-155.402315	-87.921291	-63.994002
09559	NaN	9.759639	-0.129604	-0.290818	-0.004520	0.002316	-0.005965	-155.413365	-87.921486	-63.986875
09560	NaN	9.743688	-0.147558	-0.291422	-0.008652	0.006077	-0.003591	-155.367214	-87.923042	-64.037324
09561	NaN	9.744354	-0.144972	-0.340035	-0.004701	-0.002478	-0.006056	-155.410662	-87.920968	-63.997612
09562	NaN	9.744034	-0.145646	-0.315627	-0.007305	0.003047	-0.001251	-155.350131	-87.920387	-64.061678
09563	NaN	9.712107	-0.182207	-0.317536	-0.006766	-0.000598	-0.004870	-155.366594	-87.918910	-64.053339
09564	NaN	9.727758	-0.164269	-0.292110	-0.006466	0.001383	-0.006015	-155.384847	-87.918599	-64.038087
09565	NaN	9.730604	-0.197087	-0.317692	-0.001810	0.004129	-0.004700	-155.363311	-87.919613	-64.060202
09566	NaN	9.764732	-0.195092	-0.292372	0.003386	0.003231	-0.007004	-155.377967	-87.920501	-64.042903
09567	NaN	9.730324	-0.196787	-0.292662	0.003806	0.002399	-0.009386	-155.431801	-87.921679	-63.987189
09568	NaN	9.762262	-0.159147	-0.290596	-0.002753	-0.001547	-0.006008	-155.467048	-87.919839	-63.952805
09569	NaN	9.728178	-0.159993	-0.315292	-0.004339	0.007106	-0.005874	-155.443216	-87.922680	-63.975891
09570	NaN	9.725676	-0.124885	-0.313801	-0.000566	-0.006240	-0.008432	-155.542706	-87.918969	-63.875967
09571	NaN	9.760107	-0.121633	-0.313559	0.000377	-0.000565	-0.007125	-155.584444	-87.918237	-63.831380
09572	NaN	9.759788	-0.121867	-0.289172	-0.004862	0.000598	-0.009564	-155.657805	-87.918354	-63.760064
09573	NaN	9.781455	-0.169278	-0.339848	-0.004398	-0.000501	-0.007204	-155.703470	-87.917650	-63.715691
09574	NaN	9.730422	-0.191569	-0.292851	-0.004278	-0.003314	-0.008441	-155.785621	-87.915454	-63.635245
09575	NaN	9.746717	-0.171166	-0.316272	-0.005745	0.002527	-0.009544	-155.846874	-87.916580	-63.577744
09576	NaN	9.728906	-0.152207	-0.364652	-0.004277	-0.003315	-0.008441	-155.928846	-87.914376	-63.497476
09577	NaN	9.749278	-0.203620	-0.318004	-0.000428	-0.001182	-0.013086	-156.062017	-87.914419	-63.365502
09578	NaN	9.749625	-0.201513	-0.342429	-0.001269	0.000481	-0.008321	-156.116071	-87.914165	-63.311446
09579	NaN	9.746458	-0.168207	-0.291943	0.006472	0.004480	-0.012866	-156.205167	-87.917223	-63.217174
09580	NaN	9.747467	-0.163798	-0.364942	0.009125	-0.001311	-0.012930	-156.331148	-87.917086	-63.085185
09581	NaN	9.728344	-0.148697	-0.315691	0.011370	0.001602	-0.014026	-156.453327	-87.918699	-62.956924
09582	NaN	9.744307	-0.128846	-0.314504	0.012554	0.001651	-0.015194	-156.591623	-87.920613	-62.810646
09583	NaN	9.741766	-0.093048	-0.312976	0.007480	-0.000268	-0.014127	-156.727086	-87.921505	-62.664394
09584	NaN	9.760278	-0.107678	-0.313342	0.005412	0.001610	-0.012940	-156.837433	-87.922865	-62.550178
09585	NaN	9.725870	-0.109090	-0.313664	0.002161	0.003439	-0.010586	-156.903188	-87.924741	-62.480960
09586	NaN	9.742143	-0.088538	-0.336848	0.001101	0.000575	-0.010656	-156.989450	-87.925031	-62.393316
09587	NaN	9.762578	-0.139971	-0.289846	-0.002913	0.001519	-0.009519	-157.055191	-87.925519	-62.329033
09588	NaN	9.760349	-0.103589	-0.312507	-0.001853	0.004383	-0.009449	-157.102156	-87.927542	-62.282405
09589	NaN	9.760037	-0.103832	-0.287792	0.001441	0.002291	-0.007058	-157.124220	-87.927747	-62.257937
09590	NaN	9.760381	-0.102038	-0.312000	0.000680	0.001407	-0.008274	-157.170994	-87.927936	-62.210048
09591	NaN	9.758133	-0.065834	-0.334856	-0.002449	0.000422	-0.007157	-157.207958	-87.927279	-62.172018
09592	NaN	9.758142	-0.065182	-0.334726	-0.004518	0.002301	-0.005970	-157.218587	-87.927427	-62.163279
09593	NaN	9.742232	-0.083290	-0.335622	-0.008368	0.000171	-0.001324	-157.176085	-87.925515	-62.209153
09594	NaN	9.741904	-0.084180	-0.311176	-0.011198	0.001165	-0.001353	-157.130226	-87.924036	-62.260770
09595	NaN	9.725996	-0.102382	-0.312036	-0.011661	0.002259	-0.003715	-157.111835	-87.923931	-62.284766
09596	NaN	9.726675	-0.099981	-0.360473	-0.012969	0.005021	-0.001312	-157.042714	-87.924475	-62.360673
09597	NaN	9.728282	-0.137332	-0.288524	-0.011959	0.000278	-0.002571	-157.019537	-87.922773	-62.388256
09598	NaN	9.727958	-0.138168	-0.263942	-0.014913	0.004084	-0.001362	-156.958082	-87.922831	-62.457607
09599	NaN	9.728633	-0.135913	-0.312532	-0.014325	0.000174	-0.000239	-156.906553	-87.920526	-62.523140
09600	NaN	9.746810	-0.152884	-0.288596	-0.015508	0.000122	0.000927	-156.836894	-87.917975	-62.601042
09601	NaN	9.747132	-0.151716	-0.313411	-0.021094	-0.008312	-0.001703	-156.858926	-87.911685	-62.586879
09602	NaN	9.781216	-0.150129	-0.288773	-0.016392	0.002048	0.000948	-156.777941	-87.910141	-62.676622
09603	NaN	9.763036	-0.133166	-0.312717	-0.019396	-0.001754	0.000824	-156.725117	-87.906548	-62.743106
09604	NaN	9.750041	-0.184982	-0.339894	-0.016565	-0.002748	0.000852	-156.675677	-87.902495	-62.801383
09605	NaN	9.784456	-0.182375	-0.339654	-0.017326	-0.003634	-0.000366	-156.649855	-87.898574	-62.836724
09606	NaN	9.750023	-0.184871	-0.340481	-0.011492	-0.000825	-0.000213	-156.601202	-87.895772	-62.891305
09607	NaN	9.749692	-0.185989	-0.316103	-0.004013	0.000939	0.001137	-156.517740	-87.893668	-62.976226
09608	NaN	9.750028	-0.184634	-0.340480	-0.005575	-0.000563	-0.006044	-156.547601	-87.892331	-62.948847
09609	NaN	9.750035	-0.184044	-0.340589	0.002028	-0.001610	-0.005934	-156.577156	-87.890468	-62.916612
09610	NaN	9.730883	-0.169770	-0.290988	-0.000454	0.008968	-0.005771	-156.541132	-87.894078	-62.952227
09611	NaN	9.731232	-0.168206	-0.315070	-0.002283	-0.002652	-0.003653	-156.545576	-87.891080	-62.944238
09612	NaN	9.731238	-0.167617	-0.315179	-0.001264	0.000478	-0.008325	-156.599041	-87.890809	-62.890768
09613	NaN	9.784193	-0.180296	-0.314980	-0.002870	0.001256	-0.004775	-156.598016	-87.889995	-62.893967
09614	NaN	9.733546	-0.201778	-0.292100	0.001864	0.001467	-0.009440	-156.659477	-87.890496	-62.830702
09615	NaN	9.731619	-0.164210	-0.339297	0.003933	-0.000409	-0.010629	-156.745952	-87.890461	-62.736807
09616	NaN	9.731640	-0.163183	-0.339191	0.000218	0.002510	-0.010636	-156.819126	-87.891775	-62.662764
09617	NaN	9.747565	-0.143775	-0.337900	0.002625	0.002350	-0.008223	-156.855874	-87.892762	-62.621449
09618	NaN	9.762821	-0.126578	-0.287834	0.004992	0.002455	-0.010555	-156.925641	-87.894024	-62.548078
09619	NaN	9.747939	-0.140858	-0.361902	-0.001263	0.000475	-0.008326	-156.980053	-87.893792	-62.496797
09620	NaN	9.728432	-0.127219	-0.288126	-0.002188	0.002666	-0.013051	-157.088598	-87.895716	-62.388740
09621	NaN	9.745019	-0.105288	-0.335547	-0.006201	0.003602	-0.011914	-157.179592	-87.897715	-62.306460
09622	NaN	9.731788	-0.157050	-0.337828	-0.009328	0.002611	-0.010800	-157.260519	-87.899098	-62.230134
09623	NaN	9.729167	-0.121528	-0.336202	-0.004428	-0.000254	-0.011960	-157.374227	-87.899546	-62.122766
09624	NaN	9.747044	-0.138513	-0.287927	-0.000838	-0.000359	-0.010712	-157.467003	-87.899329	-62.029715
09625	NaN	9.747732	-0.135144	-0.336637	0.000644	0.001673	-0.013023	-157.580371	-87.900683	-61.916954
09626	NaN	9.747415	-0.135104	-0.312185	0.003937	-0.000411	-0.010631	-157.669581	-87.900408	-61.824734
09627	NaN	9.713348	-0.135736	-0.336972	0.006513	0.004224	-0.008121	-157.693477	-87.901984	-61.797936
09628	NaN	9.760338	-0.081745	-0.284710	0.005032	0.002191	-0.005810	-157.696905	-87.902036	-61.790928
09629	NaN	9.728931	-0.116997	-0.310891	0.001740	0.004274	-0.008203	-157.723467	-87.903535	-61.761614
09630	NaN	9.761039	-0.078054	-0.332980	-0.003203	-0.000469	-0.008380	-157.784604	-87.902734	-61.701581
09631	NaN	9.748180	-0.129015	-0.359806	-0.009751	0.003435	-0.008418	-157.827559	-87.904176	-61.665252
09632	NaN	9.766398	-0.145255	-0.335893	-0.006627	-0.003441	-0.006122	-157.875414	-87.901307	-61.620473
09633	NaN	9.750530	-0.163055	-0.337104	-0.001260	0.000469	-0.008329	-157.929013	-87.901107	-61.567319
09634	NaN	9.734680	-0.180759	-0.337935	-0.003034	0.004323	-0.008285	-157.960422	-87.902823	-61.536936
09635	NaN	9.747556	-0.128212	-0.310687	0.004274	0.001306	-0.007029	-157.986852	-87.902667	-61.508002
09636	NaN	9.747235	-0.128581	-0.286072	-0.000203	0.003334	-0.008255	-158.022073	-87.903850	-61.472180
09637	NaN	9.710487	-0.094923	-0.309349	-0.006032	0.000516	-0.008412	-158.080101	-87.903661	-61.418282
09638	NaN	9.747601	-0.125680	-0.310320	-0.012323	-0.001208	-0.010932	-158.187691	-87.902997	-61.316993
09639	NaN	9.729058	-0.108782	-0.309896	-0.009621	0.000616	-0.009661	-158.262042	-87.903206	-61.241885
09640	NaN	9.735134	-0.174405	-0.361741	-0.012747	-0.000378	-0.008548	-158.330333	-87.902468	-61.180164
09641	NaN	9.751003	-0.154901	-0.360908	-0.003830	-0.004171	-0.010843	-158.448491	-87.900222	-61.064341
09642	NaN	9.734817	-0.173601	-0.337730	-0.004088	0.001454	-0.008361	-158.498465	-87.900414	-61.015984
09643	NaN	9.731793	-0.139380	-0.311802	-0.007548	-0.001260	-0.010852	-158.602877	-87.899602	-60.918393
09644	NaN	9.763850	-0.100170	-0.334134	-0.006789	-0.000374	-0.009633	-158.683297	-87.899078	-60.841118
09645	NaN	9.751054	-0.151004	-0.361183	-0.006789	-0.000375	-0.009633	-158.763315	-87.898519	-60.765298
09646	NaN	9.747342	-0.118993	-0.286566	0.001999	-0.001352	-0.010687	-158.859480	-87.897684	-60.667230
09647	NaN	9.734560	-0.169641	-0.313648	0.001537	-0.000260	-0.013051	-158.982948	-87.897873	-60.540893
09648	NaN	9.750420	-0.150066	-0.312704	0.002462	-0.002446	-0.008325	-159.050402	-87.895954	-60.471289
09649	NaN	9.729131	-0.099018	-0.310873	-0.005141	-0.001417	-0.008437	-159.117846	-87.894533	-60.406999
09650	NaN	9.750426	-0.148522	-0.313280	-0.002902	-0.006362	-0.006120	-159.177723	-87.890062	-60.348053
09651	NaN	9.750425	-0.147745	-0.313662	-0.003957	-0.001364	-0.009604	-159.260615	-87.888848	-60.267384
09652	NaN	9.769345	-0.161433	-0.338617	-0.010376	-0.000283	-0.010884	-159.360217	-87.888594	-60.172970
09653	NaN	9.753526	-0.178730	-0.339723	-0.002051	-0.000165	-0.014302	-159.504532	-87.888779	-60.032638
09654	NaN	9.734968	-0.161563	-0.339358	0.002427	-0.002188	-0.013076	-159.639008	-87.887924	-59.895986
09655	NaN	9.766648	-0.123321	-0.337378	0.006773	-0.001398	-0.010608	-159.732310	-87.887227	-59.802934
09656	NaN	9.748408	-0.105225	-0.361361	0.001538	-0.000264	-0.013054	-159.856493	-87.887382	-59.677092
09657	NaN	9.766352	-0.122291	-0.312730	0.007563	0.007096	-0.008048	-159.865039	-87.890406	-59.666567
09658	NaN	9.747790	-0.105335	-0.311955	0.001966	-0.001101	-0.015441	-160.028522	-87.890568	-59.501154
09659	NaN	9.748134	-0.103065	-0.336371	0.003517	0.000418	-0.008252	-160.078374	-87.890069	-59.452298
09660	NaN	9.748481	-0.101026	-0.360613	0.000224	0.002492	-0.010646	-160.153719	-87.891215	-59.376081
09661	NaN	9.698261	-0.121346	-0.362180	-0.002012	-0.000430	-0.009554	-160.228953	-87.890604	-59.301563
09662	NaN	9.735125	-0.153071	-0.338782	0.005129	-0.000364	-0.011806	-160.333555	-87.890425	-59.193258
09663	NaN	9.750961	-0.133543	-0.337609	0.002628	0.002342	-0.008230	-160.373584	-87.891171	-59.152258
09664	NaN	9.769907	-0.147331	-0.362323	0.005887	0.000524	-0.010587	-160.455273	-87.891229	-59.066446
09665	NaN	9.716585	-0.134496	-0.337915	0.002628	0.002341	-0.008230	-160.493802	-87.891847	-59.025537
09666	NaN	9.748223	-0.096327	-0.335767	0.002433	-0.002198	-0.013080	-160.628152	-87.890901	-58.889010
09667	NaN	9.747894	-0.096400	-0.311606	-0.002305	-0.002413	-0.008411	-160.699192	-87.888989	-58.822254
09668	NaN	9.732420	-0.112837	-0.337289	-0.008297	-0.002173	-0.012078	-160.824582	-87.887849	-58.700845
09669	NaN	9.751026	-0.127504	-0.338081	-0.003818	-0.004192	-0.010851	-160.938028	-87.885544	-58.583357
09670	NaN	9.754161	-0.159692	-0.364287	-0.002767	-0.001324	-0.010776	-161.036554	-87.884604	-58.485658
09671	NaN	9.735239	-0.144036	-0.339465	0.004704	0.000469	-0.009422	-161.100961	-87.884332	-58.416564
09672	NaN	9.732445	-0.108812	-0.337871	0.003519	0.000415	-0.008255	-161.150049	-87.883859	-58.364733
09673	NaN	9.751392	-0.122694	-0.362781	0.004410	-0.001511	-0.008277	-161.208540	-87.882459	-58.302991
09674	NaN	9.764388	-0.068832	-0.360121	0.004998	0.002446	-0.010567	-161.280547	-87.883510	-58.227378
09675	NaN	9.747617	-0.089751	-0.287881	0.001116	0.000559	-0.010672	-161.365769	-87.883354	-58.143815
09676	NaN	9.751435	-0.119951	-0.362537	-0.003623	0.000344	-0.006002	-161.386135	-87.882422	-58.124820
09677	NaN	9.763754	-0.068459	-0.311163	-0.002009	-0.000439	-0.009558	-161.462298	-87.881899	-58.049920
09678	NaN	9.751129	-0.119485	-0.338023	-0.001388	0.003265	-0.007095	-161.483005	-87.882752	-58.029303
09679	NaN	9.717062	-0.120533	-0.362923	0.002042	-0.001619	-0.005943	-161.507134	-87.880780	-57.999692
09680	NaN	9.732533	-0.102382	-0.337338	0.001738	0.004262	-0.008210	-161.537555	-87.882376	-57.967561
09681	NaN	9.766619	-0.100127	-0.312279	0.002505	-0.002708	-0.003578	-161.531175	-87.879153	-57.967756
09682	NaN	9.766947	-0.098549	-0.336874	0.002043	-0.001620	-0.005943	-161.556925	-87.877141	-57.940125
09683	NaN	9.748662	-0.081061	-0.360757	-0.004514	0.002266	-0.005980	-161.568419	-87.877359	-57.931563
09684	NaN	9.732227	-0.101355	-0.312933	-0.004807	0.000288	-0.004835	-161.572487	-87.876182	-57.929556
09685	NaN	9.732888	-0.098667	-0.361779	-0.009873	-0.001655	-0.003773	-161.572427	-87.873678	-57.934424
09686	NaN	9.769811	-0.131007	-0.338286	-0.010900	0.003084	-0.002507	-161.532258	-87.873599	-57.980178
09687	NaN	9.732584	-0.099113	-0.336854	-0.011498	0.006987	-0.003630	-161.491233	-87.875850	-58.031231
09688	NaN	9.738295	-0.167482	-0.339388	-0.005834	0.005026	-0.003570	-161.454139	-87.877017	-58.071004
09689	NaN	9.701062	-0.135567	-0.338092	-0.002110	0.002122	-0.003563	-161.427898	-87.876602	-58.096513
09690	NaN	9.751935	-0.111556	-0.384790	0.005652	0.005900	-0.003351	-161.376647	-87.878202	-58.143867
09691	NaN	9.754135	-0.147702	-0.337122	0.003386	0.003228	-0.007013	-161.392915	-87.879081	-58.125298
09692	NaN	9.750972	-0.113840	-0.310774	0.001309	0.005098	-0.005823	-161.384301	-87.880697	-58.132475
09693	NaN	9.751674	-0.110963	-0.358950	0.001602	0.007076	-0.006968	-161.384976	-87.883621	-58.136709
09694	NaN	9.751361	-0.111522	-0.334020	-0.001816	0.004099	-0.004709	-161.366707	-87.884491	-58.155341
09695	NaN	9.754242	-0.145320	-0.335075	-0.000338	0.006131	-0.007021	-161.373782	-87.886903	-58.154334
09696	NaN	9.719514	-0.148763	-0.310994	-0.001217	0.000197	-0.003586	-161.357996	-87.885448	-58.170137
09697	NaN	9.754621	-0.143095	-0.358842	0.000848	0.006184	-0.008189	-161.377831	-87.888073	-58.146539
09698	NaN	9.719899	-0.146378	-0.334660	0.000261	0.002228	-0.005899	-161.385147	-87.888145	-58.138377
09699	NaN	9.754325	-0.142916	-0.333683	0.002495	0.005151	-0.006991	-161.392335	-87.889688	-58.132199
09700	NaN	9.754348	-0.142182	-0.333314	0.002632	0.002336	-0.008234	-161.432188	-87.890245	-58.090118
09701	NaN	9.716755	-0.110933	-0.307577	0.002033	0.006236	-0.009357	-161.469827	-87.893204	-58.051427
09702	NaN	9.733243	-0.089097	-0.354652	-0.001554	0.006323	-0.010609	-161.527585	-87.896356	-57.993830
09703	NaN	9.754441	-0.139429	-0.331766	-0.003032	0.004291	-0.008297	-161.561626	-87.897956	-57.961293
09704	NaN	9.738357	-0.158237	-0.308094	-0.002601	0.003454	-0.010686	-161.635516	-87.899559	-57.888153
09705	NaN	9.756685	-0.174062	-0.283656	-0.009158	0.007332	-0.010726	-161.693845	-87.903298	-57.833047
09706	NaN	9.754532	-0.136250	-0.330397	-0.002169	0.002615	-0.013075	-161.807421	-87.904866	-57.719947
09707	NaN	9.719807	-0.138963	-0.306343	-0.005001	0.003592	-0.013107	-161.918629	-87.907081	-57.610310
09708	NaN	9.754588	-0.133569	-0.329840	0.003036	0.001745	-0.015379	-162.068197	-87.908566	-57.458211
09709	NaN	9.717664	-0.099576	-0.353039	0.004545	0.003527	-0.012937	-162.170403	-87.910537	-57.350587
09710	NaN	9.755001	-0.129821	-0.353520	0.003652	0.005449	-0.012916	-162.265442	-87.913589	-57.252699
09711	NaN	9.717015	-0.099365	-0.303295	0.008425	0.005417	-0.012831	-162.355594	-87.916512	-57.155943
09712	NaN	9.786555	-0.090093	-0.350260	0.003653	0.005446	-0.012917	-162.451214	-87.919552	-57.057474
09713	NaN	9.717070	-0.097120	-0.302240	0.003682	0.005199	-0.008161	-162.474531	-87.921540	-57.027894
09714	NaN	9.748569	-0.058945	-0.299587	-0.000658	0.004391	-0.010636	-162.543642	-87.923603	-56.958424
09715	NaN	9.752239	-0.089956	-0.349334	-0.003198	0.007342	-0.011814	-162.617448	-87.927512	-56.885080
09716	NaN	9.733610	-0.073062	-0.348169	-0.003197	0.007341	-0.011815	-162.692281	-87.931384	-56.811341
09717	NaN	9.767318	-0.071312	-0.297996	-0.002444	0.008233	-0.010594	-162.742454	-87.935519	-56.760116
09718	NaN	9.736614	-0.105344	-0.348352	-0.001842	0.004334	-0.009470	-162.795523	-87.937342	-56.707377
09719	NaN	9.752002	-0.087021	-0.322406	-0.002275	0.005172	-0.007081	-162.810122	-87.939136	-56.699019
09720	NaN	9.752385	-0.085113	-0.346474	-0.008846	0.001439	-0.008465	-162.865653	-87.939201	-56.647833
09721	NaN	9.733002	-0.071057	-0.296759	-0.002850	0.008824	-0.003449	-162.805471	-87.942353	-56.709512
09722	NaN	9.752065	-0.084941	-0.321045	-0.004533	0.002493	-0.010747	-162.888436	-87.943381	-56.628401
09723	NaN	9.717686	-0.087091	-0.321384	-0.006587	0.004115	-0.004801	-162.873801	-87.944523	-56.644725
09724	NaN	9.755425	-0.116836	-0.346272	-0.010172	0.004196	-0.006056	-162.880513	-87.945691	-56.643149
09725	NaN	9.721049	-0.119261	-0.346540	-0.007773	0.004060	-0.003634	-162.849085	-87.946189	-56.680213
09726	NaN	9.739371	-0.135679	-0.322266	-0.008525	0.003166	-0.004856	-162.841371	-87.946590	-56.692128
09727	NaN	9.741978	-0.170626	-0.299103	-0.010171	0.004194	-0.006057	-162.848284	-87.947774	-56.692262
09728	NaN	9.742364	-0.168750	-0.323460	-0.004222	-0.003381	-0.008478	-162.924216	-87.945201	-56.618011
09729	NaN	9.758094	-0.149271	-0.322305	-0.003026	0.004277	-0.008304	-162.959031	-87.946715	-56.582551
09730	NaN	9.739442	-0.132751	-0.321344	0.000851	0.006172	-0.008194	-162.982919	-87.949324	-56.557468
09731	NaN	9.721169	-0.114813	-0.344659	0.002013	0.006471	-0.014119	-163.096876	-87.953214	-56.445269
09732	NaN	9.758196	-0.146069	-0.320685	0.004554	0.003522	-0.012941	-163.204132	-87.955155	-56.334641
09733	NaN	9.758606	-0.143614	-0.344671	0.002908	0.004548	-0.014142	-163.324968	-87.957673	-56.211619
09734	NaN	9.723871	-0.146420	-0.320464	0.008433	0.005416	-0.012831	-163.420087	-87.960620	-56.110914
09735	NaN	9.755690	-0.106494	-0.342108	0.006470	0.004709	-0.017645	-163.593719	-87.963834	-55.934963
09736	NaN	9.739650	-0.124728	-0.318241	0.009913	0.007443	-0.015147	-163.715375	-87.968251	-55.806856
09737	NaN	9.755381	-0.104374	-0.316655	0.007803	0.001946	-0.020058	-163.937011	-87.970549	-55.574346
09738	NaN	9.771488	-0.082994	-0.339416	0.009478	0.008279	-0.012759	-164.019156	-87.975024	-55.486024
09739	NaN	9.758852	-0.134580	-0.341347	0.010351	0.006598	-0.017539	-164.184457	-87.979378	-55.317014
09740	NaN	9.737168	-0.083032	-0.338766	0.009624	0.005462	-0.014004	-164.299366	-87.982478	-55.195825
09741	NaN	9.740226	-0.115956	-0.339716	0.013938	0.006516	-0.016285	-164.445722	-87.986787	-55.045652
09742	NaN	9.740267	-0.114545	-0.339023	0.018275	0.007331	-0.013807	-164.545303	-87.990871	-54.934841
09743	NaN	9.771664	-0.075908	-0.335976	0.022154	0.009225	-0.013700	-164.631974	-87.996179	-54.831836
09744	NaN	9.740745	-0.110711	-0.361835	0.017965	0.005589	-0.017422	-164.797375	-87.999831	-54.655344
09745	NaN	9.786229	-0.057593	-0.260188	0.025283	0.010219	-0.014817	-164.898554	-88.005757	-54.541217
09746	NaN	9.715230	-0.025776	-0.307834	0.013361	0.010157	-0.012661	-164.972597	-88.011204	-54.458779
09747	NaN	9.699603	-0.043081	-0.307843	0.001709	0.012303	-0.016412	-165.105058	-88.018293	-54.328813
09748	NaN	9.736682	-0.074088	-0.283446	0.001732	0.004466	-0.012987	-165.216209	-88.020624	-54.215913
09749	NaN	9.721450	-0.090599	-0.308322	0.001147	0.008122	-0.009356	-165.255892	-88.024372	-54.181773
09750	NaN	9.774193	-0.103396	-0.282792	-0.006462	0.009115	-0.009481	-165.296250	-88.028761	-54.144406
09751	NaN	9.759384	-0.118837	-0.331826	-0.001249	0.008249	-0.011782	-165.374893	-88.033141	-54.065489
09752	NaN	9.774667	-0.099916	-0.305752	0.002173	0.003620	-0.015378	-165.529170	-88.035328	-53.909185
09753	NaN	9.721578	-0.086186	-0.305544	0.007568	0.007075	-0.008064	-165.548806	-88.038176	-53.890607
09754	NaN	9.753315	-0.046674	-0.327055	0.005612	0.006358	-0.012880	-165.649822	-88.041512	-53.785625
09755	NaN	9.734190	-0.030873	-0.301796	-0.000203	0.003511	-0.013044	-165.769632	-88.043397	-53.667047
09756	NaN	9.769002	-0.025423	-0.325027	-0.005873	0.005450	-0.013116	-165.885454	-88.046247	-53.553834
09757	NaN	9.752970	-0.043932	-0.301176	-0.008708	0.006418	-0.013152	-165.998728	-88.049594	-53.446357
09758	NaN	9.756101	-0.077032	-0.301969	-0.010794	0.008282	-0.011966	-166.087793	-88.053846	-53.362739
09759	NaN	9.737387	-0.060293	-0.300878	-0.017047	0.006275	-0.009741	-166.150844	-88.056954	-53.301996
09760	NaN	9.740521	-0.093713	-0.301795	-0.013462	0.006201	-0.008483	-166.193244	-88.059565	-53.266599
09761	NaN	9.756601	-0.073023	-0.324461	-0.008689	0.006182	-0.008392	-166.227589	-88.062188	-53.229350
09762	NaN	9.753093	-0.038931	-0.297865	-0.014359	0.008116	-0.008466	-166.262702	-88.065860	-53.201759
09763	NaN	9.687471	-0.078570	-0.300362	-0.021210	0.002397	-0.008708	-166.326220	-88.066318	-53.146880
09764	NaN	9.722289	-0.073564	-0.323705	-0.019713	0.004187	-0.006263	-166.344025	-88.067503	-53.139675
09765	NaN	9.738356	-0.053219	-0.346609	-0.015672	0.003040	-0.002632	-166.304245	-88.067784	-53.186785
09766	NaN	9.719619	-0.037225	-0.345823	-0.015380	0.005010	-0.003780	-166.275259	-88.069091	-53.223913
09767	NaN	9.791107	-0.066047	-0.320737	-0.016883	0.010813	-0.004891	-166.240028	-88.073762	-53.266609
09768	NaN	9.791561	-0.064304	-0.344444	-0.016874	0.003214	-0.006230	-166.259575	-88.074402	-53.256034
09769	NaN	9.775528	-0.083398	-0.320815	-0.015393	0.005239	-0.008546	-166.308834	-88.076417	-53.218047
09770	NaN	9.728693	-0.138932	-0.323436	-0.014197	0.012655	-0.003611	-166.245163	-88.081955	-53.289202
09771	NaN	9.709971	-0.122744	-0.322225	-0.008974	0.004203	-0.007248	-166.268891	-88.083209	-53.263832
09772	NaN	9.741238	-0.084734	-0.319316	-0.009566	0.007856	-0.003613	-166.221855	-88.086076	-53.315687
09773	NaN	9.710460	-0.120659	-0.345372	-0.003897	0.005927	-0.003538	-166.176400	-88.087842	-53.360301
09774	NaN	9.743987	-0.119454	-0.295316	-0.004644	0.005030	-0.004762	-166.157070	-88.089291	-53.381613
09775	NaN	9.741305	-0.083413	-0.317631	-0.003455	0.005085	-0.005929	-166.154173	-88.090964	-53.381875
09776	NaN	9.725269	-0.102715	-0.293931	-0.003454	0.005085	-0.005929	-166.153378	-88.092604	-53.383960
09777	NaN	9.760114	-0.097735	-0.316906	-0.004808	0.008075	-0.008282	-166.179187	-88.095978	-53.362054
09778	NaN	9.741824	-0.080358	-0.340159	-0.006731	0.006888	-0.003577	-166.133435	-88.098299	-53.410999
09779	NaN	9.744552	-0.115323	-0.316874	-0.006137	0.003236	-0.007213	-166.163750	-88.098872	-53.387857
09780	NaN	9.741865	-0.079100	-0.339267	-0.002264	0.005139	-0.007097	-166.181632	-88.100701	-53.370572
09781	NaN	9.726274	-0.097075	-0.340087	-0.002113	0.002327	-0.008341	-166.228860	-88.100784	-53.323583
09782	NaN	9.726292	-0.096262	-0.339816	-0.000176	0.003279	-0.008283	-166.273190	-88.101739	-53.278639
09783	NaN	9.759795	-0.094547	-0.289900	-0.000631	0.004353	-0.010655	-166.355153	-88.103676	-53.200754
09784	NaN	9.745552	-0.108747	-0.363945	0.003101	0.001475	-0.010636	-166.444664	-88.103939	-53.108725
09785	NaN	9.729066	-0.128675	-0.316399	0.002507	-0.002234	-0.013106	-166.589579	-88.102493	-52.959276
09786	NaN	9.726360	-0.092030	-0.339042	0.006076	0.005294	-0.010501	-166.659852	-88.104856	-52.884791
09787	NaN	9.738353	-0.039223	-0.311519	0.007430	0.002305	-0.008148	-166.698902	-88.105179	-52.836676
09788	NaN	9.726395	-0.090330	-0.338478	0.011455	0.001398	-0.009277	-166.761127	-88.105203	-52.767160
09789	NaN	9.742002	-0.070727	-0.337198	0.014290	0.000434	-0.009238	-166.823736	-88.104628	-52.695785
09790	NaN	9.760343	-0.086680	-0.313067	0.012202	0.002293	-0.008053	-166.861362	-88.104987	-52.650453
09791	NaN	9.743872	-0.106646	-0.265131	0.013673	0.004547	-0.015134	-167.007356	-88.107765	-52.491031
09792	NaN	9.775977	-0.065634	-0.311105	0.013685	0.004315	-0.010370	-167.075563	-88.109547	-52.414250
09793	NaN	9.726041	-0.086686	-0.312499	0.007570	0.007081	-0.008057	-167.096448	-88.112609	-52.387373
09794	NaN	9.760432	-0.082626	-0.311384	0.004004	-0.000450	-0.010658	-167.193760	-88.111760	-52.287021
09795	NaN	9.722414	-0.051468	-0.286130	0.007422	0.002527	-0.012917	-167.314754	-88.112609	-52.163147
09796	NaN	9.741675	-0.064855	-0.310513	0.009660	0.005219	-0.009244	-167.363190	-88.114741	-52.108456
09797	NaN	9.738934	-0.028436	-0.333019	0.007878	0.001453	-0.010544	-167.449777	-88.115064	-52.017838
09798	NaN	9.722912	-0.047470	-0.309571	0.014142	0.003239	-0.007999	-167.482167	-88.115929	-51.976632
09799	NaN	9.738505	-0.028033	-0.307948	0.013989	0.006051	-0.006757	-167.481972	-88.118126	-51.968793
09800	NaN	9.722494	-0.047236	-0.284132	0.005635	0.006123	-0.008118	-167.510470	-88.120618	-51.936358
09801	NaN	9.722511	-0.046446	-0.283675	-0.000173	0.003265	-0.008290	-167.556164	-88.121475	-51.892541
09802	NaN	9.761035	-0.074860	-0.332926	-0.004482	0.001978	-0.001246	-167.488981	-88.120797	-51.961637
09803	NaN	9.760595	-0.075512	-0.308056	-0.004809	0.008054	-0.008294	-167.519791	-88.124666	-51.932080
09804	NaN	9.779884	-0.089077	-0.332161	0.000118	0.005232	-0.009440	-167.577590	-88.126823	-51.873492
09805	NaN	9.741846	-0.058099	-0.306482	0.003246	0.006239	-0.010550	-167.650100	-88.129628	-51.802895
09806	NaN	9.726774	-0.074708	-0.331333	-0.002426	0.008160	-0.010630	-167.719156	-88.133565	-51.734502
09807	NaN	9.726338	-0.074740	-0.306295	-0.002271	0.005347	-0.011873	-167.818290	-88.136110	-51.633110
09808	NaN	9.742392	-0.054076	-0.328913	-0.001964	0.006865	-0.003490	-167.769391	-88.138452	-51.682469
09809	NaN	9.741476	-0.055757	-0.279562	-0.005843	0.005183	-0.008372	-167.812050	-88.140359	-51.642803
09810	NaN	9.757058	-0.036390	-0.277709	-0.002864	0.008778	-0.003473	-167.756082	-88.143770	-51.699751
09811	NaN	9.758020	-0.033703	-0.325897	-0.003744	0.003098	-0.004790	-167.746218	-88.144120	-51.716133
09812	NaN	9.741532	-0.054328	-0.277872	-0.008671	0.005917	-0.003646	-167.707146	-88.145948	-51.759506
09813	NaN	9.776868	-0.048521	-0.325201	-0.003155	0.006809	-0.002323	-167.638269	-88.147914	-51.833391
09814	NaN	9.741570	-0.053780	-0.276641	-0.005090	0.005855	-0.002381	-167.575269	-88.149549	-51.898651
09815	NaN	9.745802	-0.085586	-0.326291	-0.005990	0.007768	-0.002364	-167.503932	-88.152364	-51.970093
09816	NaN	9.729792	-0.105090	-0.302474	-0.003452	0.005065	-0.005941	-167.504532	-88.153995	-51.970781
09817	NaN	9.749113	-0.119054	-0.326496	0.003845	0.009723	-0.003315	-167.435507	-88.157842	-52.036091
09818	NaN	9.749151	-0.118858	-0.325410	0.002498	0.012479	-0.000906	-167.316042	-88.162987	-52.153496
09819	NaN	9.764256	-0.100907	-0.298792	0.004293	0.008877	-0.005708	-167.290329	-88.166579	-52.173912
09820	NaN	9.727148	-0.068063	-0.321644	0.008321	0.007972	-0.006833	-167.288128	-88.169947	-52.170654
09821	NaN	9.744035	-0.087473	-0.223539	0.005776	0.010898	-0.008026	-167.296756	-88.174980	-52.160538
09822	NaN	9.726723	-0.067734	-0.295507	0.005642	0.006118	-0.008118	-167.326017	-88.177473	-52.127337
09823	NaN	9.742298	-0.048113	-0.293576	0.003097	0.009044	-0.009310	-167.362160	-88.181621	-52.084533
09824	NaN	9.742316	-0.047608	-0.293039	0.000291	0.001967	-0.001150	-167.288380	-88.180917	-52.157492
09825	NaN	9.741835	-0.048389	-0.268176	-0.007186	0.007932	-0.005970	-167.278459	-88.184183	-52.168980
09826	NaN	9.758903	-0.025833	-0.339229	-0.001375	0.010568	-0.001026	-167.168870	-88.188266	-52.278721
09827	NaN	9.731113	-0.097694	-0.342549	-0.000900	0.001912	0.000016	-167.076874	-88.187462	-52.374232
09828	NaN	9.730122	-0.099871	-0.293498	0.005355	0.003928	-0.002199	-167.010596	-88.187976	-52.436783
09829	NaN	9.764504	-0.096393	-0.292106	0.012355	0.006842	-0.003190	-166.945713	-88.190157	-52.496353
09830	NaN	9.729653	-0.100605	-0.268096	0.011772	0.002908	-0.000889	-166.856690	-88.189928	-52.577982
09831	NaN	9.764026	-0.097312	-0.266893	0.013708	0.003861	-0.000831	-166.762497	-88.190175	-52.667168
09832	NaN	9.726909	-0.064692	-0.290028	0.009517	0.008019	-0.008002	-166.779149	-88.193723	-52.644362
09833	NaN	9.711388	-0.082718	-0.290759	0.005510	0.001336	-0.008209	-166.827684	-88.193323	-52.592687
09834	NaN	9.765099	-0.093336	-0.314200	0.002811	0.006850	-0.003395	-166.771586	-88.195616	-52.646510
09835	NaN	9.749584	-0.111814	-0.314764	0.005648	0.005891	-0.003352	-166.718469	-88.197622	-52.696795
09836	NaN	9.783455	-0.109503	-0.288980	0.010873	0.004818	-0.000875	-166.621350	-88.198445	-52.787039
09837	NaN	9.765160	-0.092500	-0.312549	0.012063	0.005091	-0.006810	-166.628175	-88.200148	-52.776275
09838	NaN	9.746355	-0.076332	-0.311726	0.012064	0.005090	-0.006810	-166.634405	-88.201907	-52.762437
09839	NaN	9.693183	-0.063365	-0.311918	0.012222	0.002278	-0.008051	-166.673208	-88.202366	-52.714187
09840	NaN	9.739789	-0.006447	-0.308244	0.008352	0.000153	-0.003399	-166.641816	-88.200921	-52.740117
09841	NaN	9.742592	-0.041820	-0.284649	0.003983	0.014268	0.001531	-166.462115	-88.206445	-52.915319
09842	NaN	9.761447	-0.056929	-0.284141	0.005063	0.002395	-0.010588	-166.551005	-88.207208	-52.822793
09843	NaN	9.746448	-0.073934	-0.309396	-0.002996	0.003989	-0.003573	-166.509617	-88.207878	-52.861502
09844	NaN	9.733719	-0.127766	-0.287206	-0.002704	0.005953	-0.004725	-166.483390	-88.209839	-52.888601
09845	NaN	9.734261	-0.126148	-0.311100	0.004163	0.004088	-0.005804	-166.479879	-88.210879	-52.890133
09846	NaN	9.748767	-0.109017	-0.260649	0.008036	0.005993	-0.005688	-166.464444	-88.212991	-52.900278
09847	NaN	9.729956	-0.092770	-0.259797	0.004906	0.005204	-0.009349	-166.520976	-88.215224	-52.843817
09848	NaN	9.730498	-0.090831	-0.283810	0.007452	0.002281	-0.008153	-166.565905	-88.215597	-52.793905
09849	NaN	9.764872	-0.086658	-0.282690	0.005065	0.002392	-0.010589	-166.655495	-88.216261	-52.704352
09850	NaN	9.723901	-0.020475	-0.280069	-0.000476	0.008867	-0.005821	-166.635268	-88.219994	-52.724172
09851	NaN	9.762649	-0.048635	-0.328928	0.000743	0.001333	-0.008314	-166.693181	-88.219985	-52.668547
09852	NaN	9.727776	-0.052275	-0.305169	0.000584	0.004144	-0.007075	-166.714974	-88.221250	-52.645719
09853	NaN	9.748903	-0.103592	-0.257766	0.001778	0.004196	-0.008242	-166.757009	-88.222812	-52.602232
09854	NaN	9.715096	-0.104924	-0.282585	0.000134	0.005206	-0.009453	-166.817453	-88.224981	-52.540992
09855	NaN	9.731167	-0.084132	-0.305188	-0.006734	0.007069	-0.008375	-166.851475	-88.227998	-52.507151
09856	NaN	9.783855	-0.096750	-0.279842	0.001195	0.000268	-0.005936	-166.868903	-88.226951	-52.488340
09857	NaN	9.731736	-0.081779	-0.328769	0.009071	0.008855	-0.005617	-166.840155	-88.230744	-52.512729
09858	NaN	9.749539	-0.098966	-0.279699	0.007003	0.003127	-0.005762	-166.839074	-88.231269	-52.509105
09859	NaN	9.746220	-0.063997	-0.277675	0.014297	0.008000	-0.007907	-166.847439	-88.234562	-52.488279
09860	NaN	9.749584	-0.097594	-0.278585	0.014165	0.003225	-0.007993	-166.882257	-88.235433	-52.444634
09861	NaN	9.742912	-0.028249	-0.275198	0.014006	0.006035	-0.006755	-166.876616	-88.237457	-52.434382
09862	NaN	9.761780	-0.043128	-0.274974	0.010134	0.004128	-0.006872	-166.889673	-88.238685	-52.414820
09863	NaN	9.723003	-0.013682	-0.225442	0.005971	0.000260	-0.005834	-166.903130	-88.237958	-52.396039
09864	NaN	9.743483	-0.025372	-0.298655	-0.000608	0.004085	-0.005911	-166.905109	-88.239038	-52.393717
09865	NaN	9.742947	-0.025753	-0.274194	-0.002223	-0.002490	-0.008445	-166.978932	-88.236570	-52.319053
09866	NaN	9.761804	-0.040881	-0.274452	-0.009709	0.002820	0.001032	-166.865611	-88.236043	-52.437302
09867	NaN	9.727449	-0.044040	-0.275406	-0.008935	-0.003652	-0.003836	-166.866384	-88.232655	-52.439332
09868	NaN	9.745761	-0.060364	-0.251523	-0.005516	-0.000897	-0.001328	-166.809361	-88.230357	-52.498853
09869	NaN	9.761255	-0.041450	-0.250523	-0.005807	-0.002860	-0.000175	-166.741694	-88.227025	-52.571114
09870	NaN	9.759505	-0.004033	-0.322455	-0.008648	-0.002116	0.004551	-166.586329	-88.223265	-52.730820
09871	NaN	9.758420	-0.006696	-0.273990	-0.008939	-0.004079	0.005704	-166.421017	-88.218258	-52.904671
09872	NaN	9.746804	-0.059176	-0.301241	-0.008356	-0.000154	0.003397	-166.278994	-88.215719	-53.050862
09873	NaN	9.747329	-0.058255	-0.325966	-0.009970	-0.006730	0.000861	-166.214332	-88.209813	-53.126509
09874	NaN	9.716314	-0.096196	-0.328648	-0.008807	0.000693	0.005789	-166.027318	-88.207398	-53.317973
09875	NaN	9.734628	-0.113301	-0.304489	-0.002840	0.000742	0.004726	-165.856388	-88.205081	-53.492303
09876	NaN	9.756824	-0.163491	-0.306318	0.003288	-0.002019	0.002423	-165.735208	-88.201599	-53.610968
09877	NaN	9.768437	-0.111758	-0.279316	0.007901	0.000788	0.003765	-165.575715	-88.199692	-53.764962
09878	NaN	9.746771	-0.061199	-0.301900	0.005966	-0.000166	0.003707	-165.422813	-88.197035	-53.913830
09879	NaN	9.745158	-0.064986	-0.228861	0.004480	-0.002182	0.006026	-165.241222	-88.192878	-54.097436
09880	NaN	9.761727	-0.044196	-0.276682	-0.004614	-0.002807	-0.001342	-165.196174	-88.189473	-54.144462
09881	NaN	9.742874	-0.028771	-0.276496	-0.006419	0.000799	0.003456	-165.050932	-88.187427	-54.291886
09882	NaN	9.727363	-0.047887	-0.277798	-0.014162	-0.003014	0.003222	-164.933191	-88.183224	-54.417114
09883	NaN	9.750083	-0.096912	-0.304070	-0.011192	0.000802	0.003352	-164.793916	-88.181038	-54.564413
09884	NaN	9.738983	-0.148206	-0.355452	-0.007612	0.000745	0.004622	-164.631222	-88.178682	-54.730863
09885	NaN	9.772809	-0.146223	-0.329950	-0.001804	0.003821	0.000028	-164.531575	-88.178766	-54.835535
09886	NaN	9.772824	-0.146196	-0.329521	0.010872	0.004820	-0.000873	-164.434431	-88.179481	-54.925806
09887	NaN	9.754000	-0.130546	-0.328548	0.021004	0.008737	-0.002972	-164.352436	-88.182575	-55.005322
09888	NaN	9.745720	-0.065197	-0.251905	0.026546	0.001831	0.001800	-164.214261	-88.181216	-55.127661
09889	NaN	9.742390	-0.031320	-0.249931	0.016228	0.008308	0.006461	-163.969081	-88.182585	-55.365102
09890	NaN	9.773967	0.006896	-0.271262	-0.001513	0.005569	0.003643	-163.796520	-88.182964	-55.537929
09891	NaN	9.762346	-0.045547	-0.297944	-0.010452	0.001707	0.004576	-163.634930	-88.180937	-55.712390
09892	NaN	9.712487	-0.068039	-0.299743	-0.003449	0.004616	0.003585	-163.469474	-88.180770	-55.879218
09893	NaN	9.731340	-0.083975	-0.299665	0.005806	0.002643	0.004945	-163.287998	-88.179376	-56.063271
09894	NaN	9.712498	-0.069064	-0.299135	0.003418	0.002538	0.007278	-163.066017	-88.177422	-56.282717
09895	NaN	9.750195	-0.100705	-0.299196	0.001166	0.007421	0.004926	-162.865418	-88.178949	-56.491271
09896	NaN	9.715852	-0.104432	-0.299526	0.006099	0.004604	0.003792	-162.691271	-88.178669	-56.661323
09897	NaN	9.750216	-0.101633	-0.298205	0.001775	0.003547	0.006066	-162.488468	-88.177895	-56.859679
09898	NaN	9.752995	-0.137528	-0.274978	-0.002547	0.002706	0.003570	-162.333604	-88.176582	-57.015395
09899	NaN	9.749678	-0.103600	-0.273071	-0.000770	0.006468	0.004867	-162.135134	-88.177285	-57.213499
09900	NaN	9.712562	-0.071876	-0.296379	0.001326	0.004609	0.003687	-161.965761	-88.176958	-57.381510
09901	NaN	9.746937	-0.068989	-0.294776	-0.009282	0.009342	0.004729	-161.757713	-88.178938	-57.597276
09902	NaN	9.753033	-0.138942	-0.272922	-0.011484	-0.000939	-0.000268	-161.694663	-88.176272	-57.666254
09903	NaN	9.722548	-0.175787	-0.299587	0.000580	0.003493	0.007232	-161.472786	-88.175057	-57.885419
09904	NaN	9.754144	-0.137746	-0.321268	0.009386	0.002580	0.006217	-161.267783	-88.173102	-58.084459
09905	NaN	9.743092	-0.037476	-0.267611	0.021458	0.007442	0.004177	-161.063804	-88.174315	-58.275416
09906	NaN	9.776902	-0.035719	-0.241840	0.009839	0.001732	0.003825	-160.904633	-88.172304	-58.428342
09907	NaN	9.740362	-0.002914	-0.289640	-0.003606	0.007426	0.004819	-160.701777	-88.173134	-58.632303
09908	NaN	9.725418	-0.021201	-0.314595	-0.005094	0.005411	0.007138	-160.473559	-88.172447	-58.862871
09909	NaN	9.730921	-0.092945	-0.268183	-0.012708	0.006161	0.011755	-160.167659	-88.171335	-59.179122
09910	NaN	9.749755	-0.109464	-0.267991	-0.016129	0.003410	0.009246	-159.923016	-88.169089	-59.432448
09911	NaN	9.773018	-0.157967	-0.318117	-0.008224	0.004405	0.008244	-159.683969	-88.167404	-59.676327
09912	NaN	9.737526	-0.164097	-0.269917	-0.002998	0.003550	0.005959	-159.487131	-88.165825	-59.874297
09913	NaN	9.739234	-0.161395	-0.342581	0.002812	0.006403	0.006137	-159.268711	-88.165942	-60.094524
09914	NaN	9.719286	-0.148549	-0.292782	0.006238	0.009369	0.003877	-159.064714	-88.167857	-60.294363
09915	NaN	9.716015	-0.114192	-0.290520	0.004015	0.006890	-0.004566	-159.015566	-88.170420	-60.333042
09916	NaN	9.753122	-0.146099	-0.265889	-0.000469	0.008643	-0.001058	-158.902015	-88.172938	-60.446233
09917	NaN	9.769254	-0.126042	-0.288263	-0.001211	0.007744	-0.002283	-158.812874	-88.175043	-60.534020
09918	NaN	9.764256	-0.094640	-0.212614	-0.006295	0.013585	-0.004684	-158.730671	-88.180942	-60.619186
09919	NaN	9.780984	-0.072803	-0.258875	-0.015384	0.012970	-0.012059	-158.780307	-88.188117	-60.577594
09920	NaN	9.810919	-0.035742	-0.206019	-0.034486	0.021005	-0.020709	-158.936794	-88.201296	-60.440111
09921	NaN	9.729462	-0.094245	-0.184145	-0.074008	0.024003	-0.023954	-159.155176	-88.216535	-60.269096
09922	NaN	9.761308	-0.204138	-0.309325	-0.076324	0.009150	-0.033827	-159.645205	-88.225960	-59.821896
09923	NaN	9.821877	-0.280478	-0.335138	-0.066186	0.012823	-0.031154	-160.063514	-88.236689	-59.442948
09924	NaN	9.722905	-0.319879	-0.363036	-0.059746	0.012231	-0.039381	-160.632829	-88.248615	-58.906927
09925	NaN	9.718517	-0.283627	-0.311662	-0.044222	0.012496	-0.044987	-161.297635	-88.261683	-58.267522
09926	NaN	9.714705	-0.245822	-0.284508	-0.018423	0.013684	-0.049133	-162.027063	-88.275777	-57.547634
09927	NaN	9.737199	-0.138097	-0.204453	-0.013029	0.010029	-0.052660	-162.848226	-88.288118	-56.732071
09928	NaN	9.756782	-0.147385	-0.227987	-0.018411	0.013654	-0.049147	-163.601746	-88.301600	-55.988084
09929	NaN	9.714441	-0.079927	-0.176216	-0.018676	0.003888	-0.044566	-164.329471	-88.308653	-55.267725
09930	NaN	9.718538	-0.108542	-0.202028	-0.024013	0.000158	-0.047160	-165.136983	-88.313788	-54.472939
09931	NaN	9.738098	-0.118321	-0.226719	-0.022824	-0.000014	-0.043557	-165.879983	-88.318071	-53.739971
09932	NaN	9.740587	-0.109213	-0.324251	-0.019246	-0.000068	-0.042282	-166.601717	-88.321796	-53.028272
09933	NaN	9.725815	-0.122862	-0.349996	-0.018060	-0.000237	-0.038677	-167.254704	-88.324707	-52.381027
09934	NaN	9.692135	-0.121478	-0.375308	-0.006311	0.002498	-0.034756	-167.819589	-88.328465	-51.818831
09935	NaN	9.777948	-0.130413	-0.300410	0.010248	-0.002318	-0.032058	-168.341249	-88.329488	-51.279437
09936	NaN	9.724116	-0.116636	-0.276689	0.021842	0.003443	-0.031667	-168.830617	-88.333125	-50.776653
09937	NaN	9.731274	-0.028570	-0.222758	0.031504	0.008242	-0.031344	-169.291883	-88.339543	-50.293101
09938	NaN	9.762087	0.012357	-0.219249	0.021526	0.009251	-0.033962	-169.810876	-88.346444	-49.760864
09939	NaN	9.747935	-0.000286	-0.268732	-0.000300	0.002952	-0.045374	-170.591345	-88.350602	-48.984799
09940	NaN	9.765666	-0.013889	-0.220176	-0.003269	-0.001093	-0.040745	-171.298618	-88.351886	-48.278420
09941	NaN	9.758092	-0.096428	-0.249138	-0.013726	0.000548	-0.036190	-171.913486	-88.353385	-47.667069
09942	NaN	9.759360	-0.090434	-0.297525	-0.014511	0.007210	-0.036087	-172.515468	-88.358570	-47.072468
09943	NaN	9.706708	-0.073715	-0.322636	0.003035	-0.006850	-0.039516	-173.209485	-88.355443	-46.380672
09944	NaN	9.739211	-0.069876	-0.249167	0.017807	-0.007630	-0.041566	-173.937930	-88.352124	-45.641031
09945	NaN	9.769899	-0.028188	-0.247266	0.008256	-0.007897	-0.037024	-174.579950	-88.348160	-44.995430
09946	NaN	9.728249	0.040305	-0.246172	-0.002877	-0.014743	-0.035035	-175.196709	-88.339961	-44.379376
09947	NaN	9.761927	0.046080	-0.221881	-0.009635	-0.008165	-0.033881	-175.785642	-88.335614	-43.802620
09948	NaN	9.766174	0.016474	-0.248436	-0.021431	-0.003375	-0.036471	-176.416433	-88.333595	-43.183159
09949	NaN	9.737322	-0.014184	-0.324589	-0.018588	-0.004319	-0.036425	-177.043680	-88.331078	-42.561123
09950	NaN	9.775934	-0.039890	-0.349853	-0.010403	-0.001310	-0.038565	-177.704195	-88.329896	-41.905604
09951	NaN	9.761991	-0.093894	-0.255190	0.002855	0.003893	-0.046524	-178.510599	-88.332056	-41.087468
09952	NaN	9.745567	-0.110578	-0.207279	0.006738	0.006017	-0.051181	-179.406820	-88.334676	-40.186317
09953	NaN	9.711914	-0.108081	-0.232321	0.006637	0.001236	-0.051282	179.697288	-88.333942	-39.287082
09954	NaN	9.755194	-0.009176	-0.275644	0.021773	-0.005141	-0.055833	178.719739	-88.329292	-38.295950
09955	NaN	9.727363	0.077786	-0.223986	0.019590	-0.007890	-0.059539	177.683170	-88.322371	-37.242197
09956	NaN	9.713230	0.066827	-0.274895	-0.004996	-0.009202	-0.056573	176.693751	-88.314362	-36.254527
09957	NaN	9.781185	0.078551	-0.249432	-0.020045	-0.010441	-0.053375	175.779800	-88.304821	-35.350245
09958	NaN	9.742958	0.114297	-0.250146	-0.019224	-0.017126	-0.053492	174.874908	-88.291493	-34.455284
09959	NaN	9.743427	0.120804	-0.276308	-0.024996	-0.020057	-0.053696	173.981140	-88.276075	-33.579949
09960	NaN	9.678021	0.082521	-0.257567	-0.025762	-0.021370	-0.045364	173.263563	-88.260063	-32.876123
09961	NaN	9.718398	0.061286	-0.357557	-0.020915	-0.016758	-0.040371	172.646060	-88.246994	-32.261203
09962	NaN	9.755949	0.033472	-0.335656	-0.002406	-0.020494	-0.037612	172.105901	-88.231611	-31.721479
09963	NaN	9.710314	-0.020122	-0.341470	0.017676	-0.017435	-0.037078	171.597207	-88.217483	-31.201991
09964	NaN	9.732202	-0.068780	-0.296398	0.031960	-0.017487	-0.031953	171.188262	-88.204007	-30.773837
09965	NaN	9.738358	0.019250	-0.244880	0.038097	-0.020392	-0.029475	170.842874	-88.189204	-30.400524
09966	NaN	9.750605	0.077723	-0.292617	0.050293	-0.018419	-0.027962	170.530228	-88.175407	-30.058201
09967	NaN	9.737570	0.180677	-0.240728	0.046540	-0.015610	-0.028002	170.216612	-88.162964	-29.715723
09968	NaN	9.730070	0.252789	-0.263793	0.019467	-0.021851	-0.022754	169.997429	-88.147633	-29.484577
09969	NaN	9.712410	0.273401	-0.338820	0.000821	-0.023273	-0.016015	169.897668	-88.132196	-29.375240
09970	NaN	9.730903	0.258390	-0.317134	-0.007817	-0.025456	-0.011459	169.874093	-88.115940	-29.355444
09971	NaN	9.746753	0.122296	-0.325449	-0.002615	-0.014081	-0.007526	169.893164	-88.106118	-29.377986
09972	NaN	9.743507	0.001114	-0.332923	0.014537	-0.014859	-0.007157	169.923556	-88.096271	-29.399371
09973	NaN	9.731777	-0.053017	-0.313129	0.012507	-0.020793	-0.002524	170.051656	-88.083707	-29.509961
09974	NaN	9.743373	0.001847	-0.336819	0.018667	-0.023509	-0.004840	170.147485	-88.069204	-29.594452
09975	NaN	9.785746	0.096114	-0.382524	0.028936	-0.022498	-0.003398	170.271451	-88.055224	-29.704311
09976	NaN	9.742905	0.159531	-0.357922	0.012771	-0.019024	0.001110	170.446847	-88.043812	-29.871797
09977	NaN	9.725166	0.178297	-0.432395	0.010950	-0.015044	-0.003650	170.531215	-88.034031	-29.953714
09978	NaN	9.727166	0.139436	-0.337513	-0.000362	-0.006737	0.001061	170.661930	-88.029537	-30.084024
09979	NaN	9.751230	0.092286	-0.389134	-0.002372	-0.012491	0.000906	170.801110	-88.021988	-30.222669
09980	NaN	9.773837	0.041364	-0.367766	0.003387	-0.009745	0.005879	171.019100	-88.016204	-30.438157
09981	NaN	9.738556	0.034229	-0.320920	0.009061	-0.011779	0.010756	171.319313	-88.010158	-30.725993
09982	NaN	9.784463	0.091554	-0.342719	0.016485	-0.009841	0.012150	171.644255	-88.004777	-31.040990
09983	NaN	9.746169	0.120640	-0.343080	0.012636	-0.011792	0.012029	171.969724	-87.998244	-31.355684
09984	NaN	9.745682	0.117997	-0.319686	0.000044	-0.008315	0.017822	172.370207	-87.994042	-31.755696
09985	NaN	9.727482	0.133992	-0.368893	0.000060	-0.008138	0.013030	172.689319	-87.989523	-32.078118
09986	NaN	9.765734	0.102404	-0.370123	-0.007469	-0.002475	0.012979	172.992345	-87.988132	-32.384922
09987	NaN	9.754063	0.046565	-0.348702	-0.001969	-0.001513	0.014312	173.319055	-87.987299	-32.711598
09988	NaN	9.753599	0.044001	-0.324420	-0.000043	-0.000540	0.014371	173.644581	-87.986979	-33.036659
09989	NaN	9.787902	0.046396	-0.323493	-0.001429	0.002224	0.016792	173.995777	-87.988476	-33.399638
09990	NaN	9.734986	0.057175	-0.347768	0.004437	0.009924	0.017064	174.350812	-87.994139	-33.751658
09991	NaN	9.749730	0.073586	-0.321443	0.007938	0.005310	0.013453	174.656367	-87.996845	-34.057808
09992	NaN	9.735047	0.054455	-0.346514	0.005560	0.005378	0.011007	174.922856	-87.999466	-34.320582
09993	NaN	9.735064	0.053039	-0.346240	-0.001705	0.000261	0.017944	175.314534	-87.999254	-34.704824
09994	NaN	9.749792	0.069088	-0.320537	-0.000244	0.002094	0.020406	175.736790	-88.000300	-35.126788
09995	NaN	9.712071	0.098514	-0.344199	-0.011536	-0.001968	0.023682	176.213535	-87.998897	-35.610029
09996	NaN	9.765964	0.086202	-0.368168	-0.010061	0.000045	0.021354	176.647974	-87.998573	-36.049812
09997	NaN	9.754206	0.029579	-0.346555	-0.006485	0.000027	0.022626	177.104876	-87.998215	-36.510005
09998	NaN	9.754214	0.027346	-0.346508	-0.010524	0.000900	0.023754	177.577382	-87.998200	-36.988143
09999	NaN	9.742420	-0.029524	-0.324837	-0.022454	0.000701	0.025889	178.078604	-87.997969	-37.502142
10000	NaN	9.758098	-0.011587	-0.348112	-0.012260	-0.002900	0.022441	178.530036	-87.995475	-37.960189
10001	NaN	9.738536	0.000417	-0.323365	-0.012618	0.002922	0.020150	178.943668	-87.996035	-38.379517
10002	NaN	9.723797	-0.019483	-0.348736	-0.012165	0.001873	0.022533	179.394246	-87.996035	-38.836655
10003	NaN	9.719947	0.012539	-0.347014	-0.016481	0.000784	0.024813	179.877384	-87.995291	-39.334182
10004	NaN	9.749933	0.047268	-0.320229	-0.023442	-0.002004	0.021013	-179.703981	-87.992815	-39.765823
10005	NaN	9.719947	0.008373	-0.347128	-0.028393	0.000770	0.022156	-179.267491	-87.991797	-40.215070
10006	NaN	9.738531	-0.010107	-0.323335	-0.035181	-0.005028	0.021890	-178.844152	-87.987355	-40.658151
10007	NaN	9.764746	-0.096948	-0.303016	-0.042044	-0.003039	0.018184	-178.489803	-87.984081	-41.042679
10008	NaN	9.731356	-0.100110	-0.353065	-0.035173	-0.005047	0.021880	-178.070089	-87.979417	-41.482129
10009	NaN	9.762302	-0.062979	-0.375215	-0.027926	-0.000312	0.024527	-177.604499	-87.977606	-41.962009
10010	NaN	9.711771	-0.090069	-0.328659	-0.025062	-0.000855	0.014997	-177.290587	-87.975294	-42.289796
10011	NaN	9.760849	-0.070090	-0.302218	-0.026716	-0.000066	0.018567	-176.922517	-87.973475	-42.674689
10012	NaN	9.762266	-0.067863	-0.375310	-0.015244	0.001183	0.014055	-176.617726	-87.972222	-42.987722
10013	NaN	9.743693	-0.052739	-0.399073	-0.007818	0.003107	0.015456	-176.291954	-87.972172	-43.330171
10014	NaN	9.718485	-0.010838	-0.274869	-0.004515	0.001322	0.013096	-175.996948	-87.970914	-43.627263
10015	NaN	9.753279	-0.006739	-0.298242	-0.011651	0.001562	0.005760	-175.821518	-87.969981	-43.804814
10016	NaN	9.708431	-0.061973	-0.350568	-0.020180	0.004154	0.010413	-175.575787	-87.970375	-44.061580
10017	NaN	9.746049	-0.094527	-0.326480	-0.009623	0.007311	0.005926	-175.388393	-87.972734	-44.247265
10018	NaN	9.762295	-0.073414	-0.373514	-0.009261	0.001680	0.003420	-175.252126	-87.971983	-44.388238
10019	NaN	9.716473	-0.130776	-0.377327	-0.009542	-0.000285	0.004569	-175.103619	-87.970439	-44.541585
10020	NaN	9.731255	-0.113523	-0.351789	-0.005057	-0.002208	0.005825	-174.932050	-87.967322	-44.715471
10021	NaN	9.766037	-0.109079	-0.375493	0.015202	-0.001984	0.005085	-174.761814	-87.964370	-44.879133
10022	NaN	9.758029	-0.042230	-0.347688	0.015764	0.001944	0.002787	-174.621798	-87.963748	-45.009511
10023	NaN	9.738509	-0.028651	-0.322891	0.015203	-0.001986	0.005084	-174.450276	-87.960839	-45.168710
10024	NaN	9.754267	-0.008634	-0.345978	0.009814	0.002043	-0.000936	-174.373429	-87.960459	-45.239291
10025	NaN	9.738986	-0.027313	-0.347380	0.001103	-0.004517	-0.006056	-174.395962	-87.956796	-45.218313
10026	NaN	9.761789	-0.076507	-0.349431	-0.006312	0.005732	-0.001216	-174.327133	-87.958532	-45.290116
10027	NaN	9.720710	-0.164772	-0.403262	-0.007767	0.004111	-0.008465	-174.378091	-87.959729	-45.246050
10028	NaN	9.708758	-0.218326	-0.381368	0.004435	0.006275	-0.011739	-174.470737	-87.962364	-45.150114
10029	NaN	9.743617	-0.211836	-0.404173	0.014721	0.007669	-0.019861	-174.686175	-87.966253	-44.927254
10030	NaN	9.723193	-0.198367	-0.329701	0.022892	0.010701	-0.022011	-174.927940	-87.971923	-44.671524
10031	NaN	9.770036	-0.136623	-0.373557	0.034086	0.009983	-0.025372	-175.219903	-87.977394	-44.359267
10032	NaN	9.739676	-0.016480	-0.366785	0.033995	0.017369	-0.019239	-175.404569	-87.986662	-44.154308
10033	NaN	9.761639	0.089775	-0.310795	0.027681	0.010915	-0.026700	-175.723457	-87.992482	-43.821251
10034	NaN	9.727337	0.088558	-0.310737	0.014295	0.008886	-0.027042	-176.060697	-87.997149	-43.474919
10035	NaN	9.727348	0.090737	-0.309764	-0.008557	0.011165	-0.017927	-176.258714	-88.002601	-43.281686
10036	NaN	9.702218	0.023878	-0.386046	-0.015250	0.010149	-0.018099	-176.467619	-88.007565	-43.080709
10037	NaN	9.713749	-0.077266	-0.390113	-0.007190	0.008210	-0.015563	-176.632176	-88.011326	-42.919323
10038	NaN	9.713799	-0.075747	-0.389177	-0.001410	0.011125	-0.015375	-176.789064	-88.016716	-42.762459
10039	NaN	9.762366	-0.053778	-0.337329	0.007580	0.007480	-0.017643	-176.980712	-88.020062	-42.564143
10040	NaN	9.781472	-0.067429	-0.337110	0.008946	0.004529	-0.015277	-177.137141	-88.021642	-42.401802
10041	NaN	9.777136	-0.032701	-0.310531	0.012815	0.006664	-0.019939	-177.365107	-88.024542	-42.163798
10042	NaN	9.750364	0.052749	-0.305912	0.007212	0.013105	-0.015146	-177.514844	-88.030990	-42.009149
10043	NaN	9.741625	0.120273	-0.252791	-0.006456	0.009110	-0.014338	-177.664584	-88.035287	-41.864257
10044	NaN	9.693147	0.101289	-0.302899	-0.017916	0.008046	-0.014620	-177.824999	-88.038799	-41.713330
10045	NaN	9.716638	0.054192	-0.328695	-0.028028	0.003841	-0.007749	-177.881594	-88.039851	-41.675675
10046	NaN	9.754826	0.024622	-0.329045	-0.032793	0.003790	-0.007861	-177.940578	-88.040770	-41.634768
10047	NaN	9.758722	-0.009071	-0.330259	-0.030152	0.005481	-0.001779	-177.895161	-88.042920	-41.688657
10048	NaN	9.746376	-0.064527	-0.283820	-0.026748	0.008472	-0.004037	-177.883731	-88.046439	-41.714739
10049	NaN	9.736118	-0.114873	-0.334992	-0.017309	0.003790	-0.003917	-177.870765	-88.047527	-41.738304
10050	NaN	9.769388	-0.112809	-0.285064	-0.001609	0.001374	-0.010791	-177.962713	-88.047123	-41.646536
10051	NaN	9.726807	-0.048466	-0.257826	0.002784	0.007051	-0.008176	-178.002380	-88.049749	-41.605011
10052	NaN	9.746442	-0.061507	-0.282209	0.005999	0.000496	-0.010633	-178.087881	-88.048833	-41.515333
10053	NaN	9.719556	0.023148	-0.278502	-0.000244	-0.001575	-0.008425	-178.138537	-88.046465	-41.466095
10054	NaN	9.731377	0.078526	-0.299936	-0.011888	0.000166	-0.007462	-178.181022	-88.045295	-41.429713
10055	NaN	9.735272	0.045043	-0.301656	-0.018579	-0.000860	-0.007639	-178.228305	-88.043526	-41.389788
10056	NaN	9.755934	0.034396	-0.375381	-0.016017	-0.003748	-0.006443	-178.257968	-88.040095	-41.368601
10057	NaN	9.748017	-0.053559	-0.356004	-0.012148	-0.001605	-0.011101	-178.361523	-88.038009	-41.270427
10058	NaN	9.748021	-0.052687	-0.356032	-0.006392	0.001128	-0.006117	-178.377640	-88.037364	-41.257276
10059	NaN	9.751420	-0.087519	-0.333205	0.002690	0.002277	-0.008277	-178.420106	-88.037258	-41.209966
10060	NaN	9.732856	-0.070385	-0.356876	0.008913	0.004157	-0.005696	-178.419004	-88.038341	-41.205270
10061	NaN	9.717159	-0.090041	-0.333496	0.013418	0.002440	-0.009222	-178.476852	-88.038461	-41.144769
10062	NaN	9.732367	-0.070112	-0.331789	0.009661	0.005263	-0.009251	-178.534377	-88.040230	-41.080982
10063	NaN	9.722186	-0.119743	-0.383077	0.008953	0.004539	-0.015275	-178.690165	-88.041635	-40.915484
10064	NaN	9.722227	-0.118327	-0.382474	0.019494	0.007516	-0.014969	-178.837455	-88.044755	-40.756243
10065	NaN	9.785854	-0.077329	-0.329748	0.030322	0.000086	-0.017269	-179.014848	-88.043466	-40.556828
10066	NaN	9.781947	-0.041487	-0.327389	0.028672	0.013429	-0.017036	-179.190879	-88.049959	-40.363568
10067	NaN	9.758916	0.009705	-0.324454	0.029243	0.004977	-0.020794	-179.435432	-88.051705	-40.106784
10068	NaN	9.754976	0.046023	-0.322220	0.025955	0.006939	-0.023231	-179.720441	-88.054452	-39.806042
10069	NaN	9.754456	0.046943	-0.297091	0.014308	0.008672	-0.022270	-179.997809	-88.058111	-39.524941
10070	NaN	9.729733	-0.019878	-0.373685	0.002828	0.007406	-0.017768	179.794568	-88.061037	-39.314890
10071	NaN	9.748369	-0.034324	-0.348689	0.002940	0.012362	-0.022463	179.503668	-88.066779	-39.027347
10072	NaN	9.718658	-0.069121	-0.374507	0.005784	0.011435	-0.022417	179.216090	-88.071917	-38.735602
10073	NaN	9.707561	-0.120012	-0.376489	0.019576	0.008040	-0.029358	178.814495	-88.075034	-38.328171
10074	NaN	9.722784	-0.098506	-0.373838	0.025952	0.019284	-0.021797	178.542568	-88.084558	-38.040527
10075	NaN	9.764268	-0.004572	-0.366552	0.036907	0.016804	-0.028789	178.157377	-88.092488	-37.630054
10076	NaN	9.706321	0.042226	-0.339508	0.024059	0.018471	-0.026664	177.794925	-88.101330	-37.252921
10077	NaN	9.735498	0.080656	-0.286570	0.037837	0.014886	-0.028814	177.404303	-88.107863	-36.842181
10078	NaN	9.803516	0.090193	-0.258759	0.025459	0.015694	-0.029093	176.996371	-88.114877	-36.418746
10079	NaN	9.760583	0.155940	-0.230813	0.023957	0.013499	-0.021976	176.714660	-88.120677	-36.120949
10080	NaN	9.757659	0.194675	-0.276580	0.010656	0.016208	-0.022239	176.412112	-88.128065	-35.811443
10081	NaN	9.737340	0.209403	-0.226300	-0.017152	0.009043	-0.018227	176.170395	-88.131396	-35.582462
10082	NaN	9.750684	0.110875	-0.279000	-0.027693	0.006058	-0.018533	175.919798	-88.133037	-35.346920
10083	NaN	9.783252	-0.002814	-0.331951	-0.030006	0.010708	-0.016104	175.699913	-88.137810	-35.139769
10084	NaN	9.743778	0.026697	-0.281421	-0.023031	0.013690	-0.017085	175.465609	-88.143812	-34.917857
10085	NaN	9.747898	-0.005833	-0.281863	-0.016420	0.009950	-0.017000	175.245839	-88.147624	-34.700684
10086	NaN	9.749085	-0.001776	-0.329833	-0.011008	0.006154	-0.015744	175.051078	-88.149334	-34.511444
10087	NaN	9.748524	-0.001340	-0.304797	0.002852	0.007363	-0.017789	174.829473	-88.151462	-34.287541
10088	NaN	9.721139	0.083593	-0.300686	0.010880	0.005292	-0.010437	174.741797	-88.152918	-34.192894
10089	NaN	9.746009	0.154867	-0.247662	-0.001188	-0.004307	-0.013309	174.615410	-88.148586	-34.067868
10090	NaN	9.747157	0.158271	-0.296565	-0.015918	0.000972	-0.006364	174.591506	-88.147787	-34.052388
10091	NaN	9.703086	0.103802	-0.349247	-0.022164	-0.001102	-0.004155	174.609630	-88.145749	-34.084315
10092	NaN	9.745006	0.038699	-0.327024	-0.019961	0.001828	-0.005247	174.601693	-88.145498	-34.087128
10093	NaN	9.738173	-0.048482	-0.331463	-0.019515	0.000791	-0.002857	174.644803	-88.144549	-34.137981
10094	NaN	9.771866	-0.045025	-0.305928	-0.011593	0.002063	-0.008641	174.581503	-88.144250	-34.080605
10095	NaN	9.771876	-0.044295	-0.305725	0.000310	0.002129	-0.005951	174.575862	-88.144147	-34.069291
10096	NaN	9.767758	-0.009247	-0.303922	0.003186	0.001387	-0.010696	174.486032	-88.143348	-33.976900
10097	NaN	9.767185	-0.009576	-0.279132	0.007557	0.007078	-0.008080	174.438151	-88.145829	-33.923284
10098	NaN	9.764233	0.027905	-0.325987	0.004553	-0.001545	-0.008320	174.395983	-88.143485	-33.877795
10099	NaN	9.730548	0.025731	-0.351458	0.001232	0.000232	-0.005966	174.388411	-88.142500	-33.867203
10100	NaN	9.695114	0.019796	-0.303478	0.007279	0.005122	-0.006925	174.360874	-88.144035	-33.834789
10101	NaN	9.696892	0.023959	-0.376119	0.003679	0.004945	-0.003416	174.393446	-88.145635	-33.867712
10102	NaN	9.753927	-0.022042	-0.352326	0.003155	0.001210	-0.005901	174.388329	-88.144997	-33.860095
10103	NaN	9.791757	-0.052696	-0.328355	0.013446	0.002427	-0.009229	174.328953	-88.144874	-33.792408
10104	NaN	9.772570	-0.037076	-0.327595	0.017061	0.007026	-0.003053	174.371860	-88.147712	-33.824868
10105	NaN	9.756944	-0.056642	-0.303916	0.020450	0.005589	-0.015001	174.204301	-88.149190	-33.650085
10106	NaN	9.756972	-0.055356	-0.303226	0.019052	0.008343	-0.012584	174.077459	-88.152225	-33.511568
10107	NaN	9.728103	-0.089781	-0.353497	0.018722	0.014310	-0.019683	173.807053	-88.158350	-33.237318
10108	NaN	9.738447	-0.035663	-0.324993	0.021769	0.010574	-0.020882	173.528772	-88.162094	-32.945727
10109	NaN	9.724048	-0.051584	-0.349591	0.026097	0.011661	-0.023161	173.210256	-88.166299	-32.611277
10110	NaN	9.742722	-0.065742	-0.324226	0.033515	0.013615	-0.021748	172.914097	-88.171614	-32.295067
10111	NaN	9.787887	-0.005819	-0.318907	0.037881	0.014863	-0.028828	172.489585	-88.177063	-31.851207
10112	NaN	9.750087	0.027767	-0.341312	0.042140	0.015613	-0.021514	172.193717	-88.183403	-31.530345
10113	NaN	9.793983	0.085256	-0.287023	0.033642	0.018515	-0.026476	171.797503	-88.190824	-31.115069
10114	NaN	9.754911	0.116929	-0.260593	0.021220	0.014695	-0.031652	171.304908	-88.195649	-30.609378
10115	NaN	9.744757	0.067571	-0.286180	0.012200	0.018304	-0.029409	170.829236	-88.202817	-30.127878
10116	NaN	9.769528	0.023392	-0.334881	0.011000	0.018243	-0.028242	170.375585	-88.209702	-29.667011
10117	NaN	9.735956	0.023218	-0.358648	0.015536	0.016508	-0.031768	169.868190	-88.214886	-29.153330
10118	NaN	9.734748	0.024011	-0.308050	0.021588	0.021382	-0.032742	169.321523	-88.222819	-28.593337
10119	NaN	9.757511	0.136478	-0.349140	0.027126	0.022513	-0.036197	168.712365	-88.230632	-27.968447
10120	NaN	9.708963	0.117205	-0.373673	-0.007280	0.023646	-0.027414	168.227644	-88.240103	-27.486982
10121	NaN	9.694969	-0.057471	-0.330575	0.011556	0.034596	-0.033980	167.585318	-88.254794	-26.836854
10122	NaN	9.771528	-0.115082	-0.304238	0.033326	0.019793	-0.038500	166.923578	-88.260394	-26.155018
10123	NaN	9.818200	-0.092285	-0.201757	0.044503	0.031429	-0.040445	166.174684	-88.271883	-25.388497
10124	NaN	9.713839	0.055780	-0.219997	0.058852	0.019111	-0.036694	165.553110	-88.276852	-24.732219
10125	NaN	9.749320	0.184447	-0.187142	0.045749	0.018949	-0.038234	164.899828	-88.281321	-24.042678
10126	NaN	9.764221	0.207514	-0.183914	0.027220	0.022563	-0.041049	164.154786	-88.287068	-23.281013
10127	NaN	9.746235	0.228314	-0.230691	0.014432	0.016489	-0.035454	163.543282	-88.289755	-22.665277
10128	NaN	9.750582	0.197761	-0.230258	-0.015295	0.020938	-0.039737	162.799219	-88.294287	-21.928964
10129	NaN	9.760047	0.134085	-0.255551	-0.013485	0.017006	-0.034947	162.168946	-88.297254	-21.300149
10130	NaN	9.773975	0.035984	-0.282733	-0.015470	0.011261	-0.035089	161.562505	-88.296844	-20.701620
10131	NaN	9.789598	0.059524	-0.304490	-0.007114	0.015958	-0.028797	161.050067	-88.299998	-20.189265
10132	NaN	9.759138	0.022985	-0.281156	0.007753	0.015426	-0.035648	160.419301	-88.301384	-19.553090
10133	NaN	9.696006	0.104138	-0.253644	0.015818	0.013566	-0.033070	159.859442	-88.301903	-18.984898
10134	NaN	9.670792	0.154176	-0.202094	0.019388	0.013577	-0.031780	159.316472	-88.302692	-18.429889
10135	NaN	9.701227	0.196655	-0.222899	0.011370	0.007574	-0.026063	158.915726	-88.301204	-18.027364
10136	NaN	9.746519	0.258042	-0.242613	0.002047	0.009232	-0.022668	158.557338	-88.301322	-17.666959
10137	NaN	9.724283	0.270727	-0.144148	-0.011835	0.008001	-0.020635	158.241127	-88.301114	-17.356127
10138	NaN	9.743583	0.258024	-0.143931	-0.025784	-0.002613	-0.023558	157.936788	-88.294624	-17.065745
10139	NaN	9.798532	0.251836	-0.191459	-0.032687	0.003764	-0.017626	157.697898	-88.292462	-16.850608
10140	NaN	9.784346	0.235336	-0.217069	-0.030170	-0.003846	-0.016477	157.528900	-88.286793	-16.698141
10141	NaN	9.739744	0.178925	-0.221403	-0.016128	-0.005562	-0.014941	157.409927	-88.280579	-16.586267
10142	NaN	9.764174	0.251996	-0.193774	-0.012184	-0.011309	-0.011320	157.398353	-88.272080	-16.580985
10143	NaN	9.727800	0.244982	-0.122958	-0.021347	-0.012614	-0.004357	157.512437	-88.264428	-16.709055
10144	NaN	9.729175	0.247586	-0.173165	-0.035282	-0.018624	-0.002406	157.694629	-88.254001	-16.910868
10145	NaN	9.759653	0.167636	-0.250752	-0.029078	-0.012072	0.005076	157.961956	-88.248542	-17.200789
10146	NaN	9.733061	0.091959	-0.207287	-0.028638	-0.013089	0.007475	158.276286	-88.243113	-17.530996
10147	NaN	9.683962	0.067434	-0.211594	-0.024258	-0.024475	0.008602	158.695441	-88.231695	-17.960807
10148	NaN	9.709158	0.019867	-0.264431	-0.018554	-0.026288	0.008715	159.118585	-88.219328	-18.394103
10149	NaN	9.734322	-0.027776	-0.317198	-0.012078	-0.022411	0.010147	159.541043	-88.209217	-18.822858
10150	NaN	9.714220	-0.014946	-0.294631	0.007555	-0.018205	0.008309	159.910356	-88.200922	-19.187333
10151	NaN	9.743208	0.022047	-0.269548	0.021423	-0.021573	0.001384	160.182595	-88.189569	-19.447300
10152	NaN	9.752174	0.072990	-0.220438	0.019886	-0.028338	0.003636	160.533497	-88.174781	-19.786291
10153	NaN	9.746961	0.105682	-0.197228	0.006565	-0.025707	0.003344	160.858754	-88.161050	-20.111043
10154	NaN	9.703684	0.169667	-0.198269	-0.001561	-0.033256	-0.004206	161.083682	-88.142019	-20.336296
10155	NaN	9.669390	0.165695	-0.202553	-0.007975	-0.032380	-0.005556	161.272742	-88.123296	-20.526546
10156	NaN	9.746847	0.226167	-0.152269	-0.032205	-0.039635	-0.000263	161.571207	-88.101464	-20.842948
10157	NaN	9.757649	0.161301	-0.232388	-0.055391	-0.043889	0.000291	161.882371	-88.077402	-21.184838
10158	NaN	9.723793	0.038574	-0.316754	-0.048474	-0.045664	-0.000787	162.179930	-88.052081	-21.509669
10159	NaN	9.732643	-0.029610	-0.324303	-0.040845	-0.046505	-0.000627	162.484786	-88.026112	-21.838928
10160	NaN	9.755756	-0.079596	-0.306489	-0.024178	-0.050926	-0.002720	162.775437	-87.997470	-22.142928
10161	NaN	9.742475	-0.095140	-0.385627	-0.019836	-0.045213	-0.000111	163.074137	-87.972239	-22.457855
10162	NaN	9.738376	-0.059507	-0.412679	0.005041	-0.041776	-0.004274	163.299515	-87.948256	-22.679799
10163	NaN	9.749126	-0.004358	-0.438198	0.028444	-0.040345	-0.006108	163.498070	-87.924947	-22.857080
10164	NaN	9.753717	0.081600	-0.388938	0.023234	-0.039422	-0.008624	163.648347	-87.901501	-22.993448
10165	NaN	9.745092	0.151885	-0.413892	0.015401	-0.035787	-0.007538	163.790586	-87.880304	-23.126491
10166	NaN	9.783665	0.122802	-0.417910	0.003730	-0.034125	-0.006573	163.931438	-87.860076	-23.264614
10167	NaN	9.757792	0.049428	-0.400778	0.010689	-0.031108	-0.007565	164.038743	-87.841683	-23.366954
10168	NaN	9.762186	0.016119	-0.405042	0.003875	-0.024442	-0.011204	164.067804	-87.826043	-23.393127
10169	NaN	9.747729	-0.001094	-0.433234	0.008111	-0.028262	-0.008777	164.148351	-87.808778	-23.467397
10170	NaN	9.732746	-0.019635	-0.437352	0.016669	-0.030982	-0.008642	164.246622	-87.789930	-23.555496
10171	NaN	9.752495	-0.032500	-0.464627	0.031566	-0.022060	-0.010557	164.289866	-87.775641	-23.583233
10172	NaN	9.786131	-0.028475	-0.441473	0.053020	-0.021767	-0.007684	164.383560	-87.762016	-23.645910
10173	NaN	9.727929	0.016677	-0.442410	0.065022	-0.016733	-0.009749	164.434670	-87.751022	-23.655706
10174	NaN	9.776436	0.040040	-0.417804	0.051385	-0.020840	-0.008920	164.505006	-87.737714	-23.695945
10175	NaN	9.762277	0.142327	-0.391156	0.040414	-0.022881	-0.011602	164.543392	-87.722730	-23.709751
10176	NaN	9.771569	0.194623	-0.341451	0.021202	-0.010816	-0.010585	164.534074	-87.714702	-23.687581
10177	NaN	9.763060	0.146838	-0.442739	0.007403	-0.011805	-0.018111	164.417710	-87.704861	-23.572489
10178	NaN	9.804904	0.081734	-0.372752	0.011760	-0.010581	-0.025223	164.202047	-87.694690	-23.349221
10179	NaN	9.794125	0.029526	-0.351507	0.004225	-0.000195	-0.025194	163.940241	-87.690349	-23.087080
10180	NaN	9.697407	-0.012459	-0.428681	0.005428	-0.000146	-0.026374	163.667324	-87.685657	-22.810141
10181	NaN	9.741869	0.048312	-0.425373	0.017601	-0.002714	-0.029783	163.368777	-87.679052	-22.494599
10182	NaN	9.736343	0.083205	-0.375431	0.018806	-0.002667	-0.030965	163.054452	-87.672103	-22.168544
10183	NaN	9.736771	0.087036	-0.399955	0.025730	0.000217	-0.027164	162.785647	-87.667235	-21.888407
10184	NaN	9.737195	0.090983	-0.424517	0.034824	-0.003271	-0.034269	162.442269	-87.659252	-21.524088
10185	NaN	9.741353	0.178609	-0.347714	0.034342	-0.002396	-0.031861	162.130780	-87.652111	-21.190127
10186	NaN	9.770888	0.220031	-0.345498	0.029090	0.003056	-0.024652	161.888599	-87.649121	-20.930374
10187	NaN	9.781911	0.278071	-0.391523	0.014768	0.002805	-0.024947	161.637633	-87.645719	-20.676389
10188	NaN	9.748098	0.276884	-0.416604	0.000182	0.000608	-0.024074	161.398735	-87.641413	-20.436498
10189	NaN	9.757342	0.210706	-0.419191	-0.007222	0.003255	-0.020566	161.187153	-87.639299	-20.229527
10190	NaN	9.713453	0.155529	-0.446462	-0.007446	0.006087	-0.019319	160.982976	-87.638771	-20.028760
10191	NaN	9.757428	0.094683	-0.472427	0.000863	0.001421	-0.018027	160.826441	-87.635708	-19.875880
10192	NaN	9.776409	0.080535	-0.447887	0.021918	0.007526	-0.017501	160.656662	-87.636253	-19.692702
10193	NaN	9.761179	0.061883	-0.424443	0.037150	-0.003564	-0.022204	160.485895	-87.629984	-19.498139
10194	NaN	9.736595	0.111543	-0.398148	0.040084	0.009744	-0.017108	160.321665	-87.631757	-19.310095
10195	NaN	9.722535	0.215356	-0.393700	0.042836	-0.000849	-0.012414	160.264875	-87.628957	-19.226021
10196	NaN	9.731657	0.267833	-0.342478	0.023018	0.002539	-0.009141	160.228362	-87.628367	-19.175591
10197	NaN	9.755787	0.219572	-0.343827	0.006996	0.003131	-0.005835	160.222458	-87.628663	-19.170895
10198	NaN	9.791382	0.227814	-0.415623	-0.008502	0.007614	-0.004865	160.199776	-87.631636	-19.152383
10199	NaN	9.795631	0.193440	-0.391755	-0.014894	0.008600	-0.011001	160.088231	-87.633863	-19.056555
10200	NaN	9.741357	0.083045	-0.396427	-0.014328	0.012601	-0.018156	159.864916	-87.636910	-18.840580
10201	NaN	9.742326	0.086885	-0.444097	-0.000974	0.009966	-0.017933	159.666159	-87.638388	-18.650763
10202	NaN	9.761818	0.073517	-0.443282	0.005189	0.011815	-0.010549	159.556046	-87.642475	-18.536896
10203	NaN	9.765649	0.038442	-0.394224	0.013648	0.021605	-0.013837	159.361611	-87.651150	-18.334703
10204	NaN	9.737290	0.123757	-0.413925	0.027682	0.015132	-0.012455	159.221854	-87.656602	-18.178270
10205	NaN	9.771527	0.129591	-0.411703	0.034608	0.013364	-0.013551	159.075048	-87.660973	-18.019424
10206	NaN	9.742157	0.212633	-0.383081	0.030768	0.016046	-0.008770	158.979481	-87.667640	-17.905450
10207	NaN	9.741712	0.212389	-0.357101	0.025052	0.017852	-0.008860	158.867155	-87.675280	-17.784390
10208	NaN	9.689102	0.224876	-0.404744	0.024782	0.020573	-0.002800	158.822482	-87.685585	-17.724785
10209	NaN	9.727591	0.194589	-0.379273	0.029493	0.011097	-0.002851	158.828821	-87.690741	-17.719203
10210	NaN	9.751861	0.145612	-0.379110	0.025718	0.023337	0.002074	158.834733	-87.703532	-17.709688
10211	NaN	9.751956	0.145155	-0.376827	0.039565	0.024467	0.004778	158.879863	-87.717399	-17.741138
10212	NaN	9.752571	0.145540	-0.398887	0.045555	0.024583	0.003691	158.912667	-87.731189	-17.747162
10213	NaN	9.752156	0.144103	-0.372025	0.047746	0.027496	0.002564	158.915924	-87.746378	-17.724559
10214	NaN	9.732783	0.158462	-0.369640	0.052726	0.019950	0.001348	158.945519	-87.757209	-17.723260
10215	NaN	9.765991	0.160840	-0.317939	0.045310	0.022604	0.004841	159.008372	-87.770031	-17.766163
10216	NaN	9.771888	0.127876	-0.365621	0.041513	0.025396	0.004795	159.050762	-87.784482	-17.784099
10217	NaN	9.751421	0.140316	-0.314624	0.040056	0.018731	0.002263	159.095670	-87.794841	-17.803605
10218	NaN	9.732039	0.154364	-0.312342	0.035751	0.027095	0.009508	159.192462	-87.811162	-17.879286
10219	NaN	9.717957	0.134874	-0.335330	0.041975	0.024366	0.007185	159.272699	-87.825621	-17.940194
10220	NaN	9.732214	0.152563	-0.307732	0.035010	0.021365	0.008206	159.383644	-87.838597	-18.030461
10221	NaN	9.765914	0.155540	-0.280444	0.037164	0.019504	0.007018	159.490654	-87.850218	-18.120486
10222	NaN	9.765975	0.155116	-0.278543	0.031989	0.020519	-0.000310	159.484306	-87.861021	-18.095110
10223	NaN	9.789638	0.105385	-0.253190	0.010260	0.023086	-0.001933	159.425055	-87.872941	-18.030514
10224	NaN	9.740172	0.080769	-0.229023	-0.000543	0.013463	-0.005882	159.357141	-87.878835	-17.962181
10225	NaN	9.740200	0.081574	-0.227567	0.000490	0.016432	-0.010648	159.205346	-87.885323	-17.811621
10226	NaN	9.741411	0.084330	-0.274614	-0.008097	0.019167	-0.010795	159.028933	-87.893254	-17.639047
10227	NaN	9.722570	0.101366	-0.297502	-0.013349	0.010648	-0.018234	158.786126	-87.895041	-17.411516
10228	NaN	9.717237	0.136568	-0.271160	-0.015040	0.006830	-0.019520	158.546871	-87.894519	-17.180039
10229	NaN	9.752020	0.144033	-0.293679	-0.018130	0.010570	-0.018338	158.303293	-87.896193	-16.950257
10230	NaN	9.719042	0.142761	-0.342323	-0.016705	0.012448	-0.015878	158.083089	-87.899365	-16.738801
10231	NaN	9.731357	0.160259	-0.242700	-0.008385	0.007782	-0.014552	157.915700	-87.900347	-16.572675
10232	NaN	9.713693	0.178978	-0.314967	-0.010535	0.009630	-0.013371	157.751042	-87.902517	-16.413265
10233	NaN	9.761972	0.203508	-0.288054	-0.005383	-0.000825	-0.010974	157.689645	-87.899638	-16.353712
10234	NaN	9.771890	0.258119	-0.285627	-0.008706	0.005749	-0.008557	157.618592	-87.900781	-16.286921
10235	NaN	9.756567	0.238797	-0.261803	-0.024476	0.003641	-0.011331	157.513588	-87.900173	-16.196278
10236	NaN	9.776030	0.225304	-0.261477	-0.045522	0.002349	-0.011801	157.394911	-87.898796	-16.102939
10237	NaN	9.732524	0.169099	-0.288695	-0.051240	0.004151	-0.011909	157.260748	-87.898379	-15.996367
10238	NaN	9.771493	0.141047	-0.288145	-0.051908	0.007964	-0.013089	157.086060	-87.899663	-15.850640
10239	NaN	9.748120	0.071102	-0.339696	-0.049575	0.003175	-0.010694	156.980547	-87.898899	-15.774728
10240	NaN	9.723537	-0.000536	-0.342807	-0.035883	0.002566	-0.016434	156.800008	-87.896561	-15.613958
10241	NaN	9.738846	0.021337	-0.365821	-0.026377	0.002625	-0.011403	156.696972	-87.895492	-15.522187
10242	NaN	9.738228	0.021920	-0.341528	-0.015353	-0.004663	-0.018490	156.544195	-87.888857	-15.377426
10243	NaN	9.709084	0.106715	-0.339416	-0.005084	-0.003557	-0.017043	156.414650	-87.883062	-15.251945
10244	NaN	9.723112	0.126794	-0.314613	-0.003733	-0.011209	-0.014703	156.364411	-87.873838	-15.203129
10245	NaN	9.746379	0.199379	-0.263317	0.000814	-0.008295	-0.013358	156.319290	-87.866530	-15.154164
10246	NaN	9.732876	0.183048	-0.313704	-0.001304	-0.001685	-0.012112	156.248812	-87.862896	-15.083702
10247	NaN	9.779282	0.204718	-0.214060	-0.011804	0.000033	-0.012322	156.157557	-87.860190	-14.998629
10248	NaN	9.771835	0.156547	-0.313926	-0.012897	0.000182	-0.020787	155.947993	-87.855505	-14.795630
10249	NaN	9.743070	0.120491	-0.340819	-0.012485	-0.005582	-0.018445	155.805813	-87.848359	-14.663201
10250	NaN	9.781452	0.092140	-0.317108	-0.012927	-0.004591	-0.020855	155.627139	-87.841121	-14.491130
10251	NaN	9.719131	0.052112	-0.369718	-0.012040	-0.006581	-0.016039	155.532538	-87.833873	-14.406744
10252	NaN	9.734404	0.196183	-0.388980	-0.001304	-0.011125	-0.017071	155.455532	-87.824103	-14.329748
10253	NaN	9.723981	0.265424	-0.363331	0.002560	-0.013819	-0.021849	155.332500	-87.811837	-14.202792
10254	NaN	9.701381	0.277321	-0.243140	-0.005402	-0.024485	-0.020967	155.285351	-87.794170	-14.158024
10255	NaN	9.770192	0.289770	-0.267949	-0.040377	-0.027208	-0.014539	155.323094	-87.776628	-14.219667
10256	NaN	9.734531	0.204082	-0.421026	-0.045207	-0.017969	-0.004868	155.428749	-87.766200	-14.350641
10257	NaN	9.691124	0.146938	-0.449988	-0.028955	-0.007267	0.000465	155.550306	-87.762629	-14.485668
10258	NaN	9.738194	0.046557	-0.380559	-0.000263	-0.011378	-0.003792	155.654430	-87.755875	-14.589340
10259	NaN	9.780391	-0.019418	-0.309932	0.003126	-0.008401	-0.006087	155.713296	-87.750112	-14.646890
10260	NaN	9.761976	-0.002173	-0.359274	0.017721	-0.006183	-0.006943	155.753851	-87.745320	-14.676632
10261	NaN	9.796126	0.003524	-0.358784	0.021611	-0.004104	-0.011655	155.719599	-87.740555	-14.630800
10262	NaN	9.756416	0.155010	-0.329635	0.032877	-0.004770	-0.015042	155.653315	-87.734591	-14.544930
10263	NaN	9.755738	0.277185	-0.300925	0.011795	-0.006234	-0.010695	155.641343	-87.728831	-14.533173
10264	NaN	9.742737	0.261676	-0.376026	-0.010204	-0.010480	-0.011230	155.635034	-87.720786	-14.532028
10265	NaN	9.743229	0.263902	-0.401314	-0.008731	-0.008497	-0.013584	155.588914	-87.713168	-14.492302
10266	NaN	9.742055	0.263067	-0.353207	-0.012593	-0.005807	-0.008802	155.585429	-87.708135	-14.495354
10267	NaN	9.741448	0.263069	-0.329487	-0.021910	-0.008833	-0.010255	155.578357	-87.701151	-14.499780
10268	NaN	9.716517	0.189848	-0.309438	-0.024325	-0.008932	-0.007896	155.598300	-87.694703	-14.533005
10269	NaN	9.781687	0.115663	-0.385084	-0.009730	-0.006708	-0.008757	155.602555	-87.689248	-14.541676
10270	NaN	9.752969	0.078507	-0.412223	0.011557	-0.003393	-0.009457	155.590247	-87.685320	-14.522048
10271	NaN	9.726276	0.124172	-0.313527	0.013473	-0.002401	-0.009402	155.572767	-87.681956	-14.497035
10272	NaN	9.676933	0.099681	-0.291339	0.015651	0.000528	-0.010520	155.526292	-87.679820	-14.440864
10273	NaN	9.761481	0.133060	-0.362154	0.020861	-0.014591	-0.013045	155.542287	-87.669144	-14.441107
10274	NaN	9.805263	0.192904	-0.359710	-0.003927	-0.003640	-0.013414	155.472243	-87.664145	-14.372573
10275	NaN	9.740536	0.270107	-0.309455	-0.013275	-0.001992	-0.009968	155.432890	-87.660852	-14.337023
10276	NaN	9.688392	0.283957	-0.384081	-0.027149	-0.012729	-0.012837	155.410291	-87.651252	-14.329291
10277	NaN	9.783935	0.208020	-0.288709	-0.030085	-0.016706	-0.008133	155.467145	-87.640770	-14.405201
10278	NaN	9.756265	0.172786	-0.365789	-0.025567	-0.018550	-0.006860	155.554100	-87.629554	-14.506209
10279	NaN	9.767437	0.229922	-0.438054	-0.012477	-0.013626	-0.000473	155.702067	-87.622360	-14.663003
10280	NaN	9.801529	0.234759	-0.438698	-0.008482	-0.019343	0.003145	155.926809	-87.613056	-14.892122
10281	NaN	9.786875	0.214928	-0.441093	-0.002696	-0.006811	0.003459	156.087202	-87.610417	-15.053770
10282	NaN	9.757627	0.175737	-0.444277	0.009751	-0.012185	-0.001190	156.226009	-87.603804	-15.186425
10283	NaN	9.752125	0.209001	-0.419178	0.007191	0.000198	-0.002260	156.280353	-87.603481	-15.235731
10284	NaN	9.723430	0.170772	-0.445993	0.011394	-0.003677	0.005011	156.450373	-87.602738	-15.398684
10285	NaN	9.741432	0.152500	-0.373259	0.005170	-0.000989	0.007336	156.632834	-87.603954	-15.575846
10286	NaN	9.741440	0.151738	-0.373367	-0.005590	-0.001237	0.008314	156.821456	-87.605200	-15.767156
10287	NaN	9.751111	0.204457	-0.371150	-0.008265	-0.003274	0.011847	157.062255	-87.606190	-16.011926
10288	NaN	9.743535	0.153906	-0.471060	-0.017983	0.004234	0.008137	157.212887	-87.610228	-16.172319
10289	NaN	9.722460	0.164755	-0.397263	-0.013206	0.004331	0.008238	157.367582	-87.614311	-16.334198
10290	NaN	9.703656	0.057831	-0.426064	-0.023204	0.005125	0.005625	157.479609	-87.618233	-16.458947
10291	NaN	9.748234	-0.005132	-0.451704	-0.013204	0.004328	0.008237	157.637739	-87.622229	-16.625636
10292	NaN	9.781385	-0.002837	-0.401274	-0.001663	0.010394	0.003748	157.711363	-87.628513	-16.699595
10293	NaN	9.756418	0.044630	-0.374425	0.011250	0.008802	0.001584	157.776168	-87.633474	-16.753958
10294	NaN	9.727561	0.128467	-0.395299	0.020334	0.005220	-0.000693	157.833105	-87.636045	-16.798600
10295	NaN	9.702047	0.175208	-0.344449	0.014612	0.007009	-0.000788	157.876108	-87.639577	-16.832689
10296	NaN	9.711222	0.227792	-0.317060	0.008368	0.004922	0.001460	157.955744	-87.642450	-16.906912
10297	NaN	9.716699	0.194540	-0.342392	-0.009791	0.002638	0.001039	158.032420	-87.644043	-16.989149
10298	NaN	9.755810	0.165270	-0.342347	-0.027926	0.005125	0.000690	158.080548	-87.646852	-17.052650
10299	NaN	9.732058	0.093258	-0.369797	-0.030285	0.005121	-0.001777	158.097978	-87.649050	-17.088966
10300	NaN	9.727326	0.005639	-0.373041	-0.020025	0.006262	-0.000333	158.131671	-87.652242	-17.133488
10301	NaN	9.747973	-0.006551	-0.421329	-0.007298	0.007606	-0.006073	158.091680	-87.654952	-17.096674
10302	NaN	9.727916	0.007550	-0.396044	0.008682	0.006963	-0.004531	158.083716	-87.657620	-17.083042
10303	NaN	9.732685	0.095916	-0.391485	0.018995	0.008207	-0.007910	158.030133	-87.660334	-17.015104
10304	NaN	9.741294	0.147977	-0.339644	0.025609	0.004428	-0.002999	158.065024	-87.661983	-17.034657
10305	NaN	9.776564	0.155251	-0.386731	0.022327	0.011085	-0.005383	158.032423	-87.666628	-16.991125
10306	NaN	9.736941	0.184064	-0.361045	0.011362	0.008994	-0.008067	157.968990	-87.669615	-16.920441
10307	NaN	9.771130	0.189779	-0.358938	0.009731	0.014708	-0.009223	157.857202	-87.675436	-16.803577
10308	NaN	9.722945	0.167296	-0.384117	0.002334	0.012668	-0.010622	157.735002	-87.679809	-16.679256
10309	NaN	9.765927	0.103109	-0.335882	0.000215	0.009831	-0.014333	157.580737	-87.681836	-16.519816
10310	NaN	9.772582	0.073390	-0.409198	0.003099	0.013707	-0.014213	157.405447	-87.685944	-16.341923
10311	NaN	9.746970	0.121600	-0.357903	0.008356	0.008138	-0.016597	157.230095	-87.686655	-16.160382
10312	NaN	9.726873	0.136355	-0.332169	0.012355	0.016642	-0.007933	157.125115	-87.693669	-16.047551
10313	NaN	9.742619	0.158988	-0.378653	0.014789	0.007291	-0.015263	156.980279	-87.693997	-15.895855
10314	NaN	9.737668	0.194341	-0.376174	0.007135	0.017529	-0.010452	156.833156	-87.700891	-15.743840
10315	NaN	9.762258	0.146639	-0.376043	0.012154	0.014793	-0.011590	156.688356	-87.706192	-15.586889
10316	NaN	9.743302	0.163303	-0.398867	0.016932	0.014891	-0.011485	156.546634	-87.711433	-15.434663
10317	NaN	9.761757	0.147694	-0.348799	0.025279	0.015040	-0.010093	156.426932	-87.717011	-15.303175
10318	NaN	9.747801	0.130133	-0.372751	0.028669	0.018011	-0.012394	156.260536	-87.723652	-15.119526
10319	NaN	9.747850	0.131109	-0.371127	0.031977	0.016122	-0.009936	156.142822	-87.729779	-14.980837
10320	NaN	9.747898	0.131981	-0.369554	0.024339	0.016911	-0.010096	156.008986	-87.736343	-14.832258
10321	NaN	9.733977	0.114393	-0.393220	0.026783	0.021767	-0.012394	155.817029	-87.744827	-14.627779
10322	NaN	9.748015	0.133995	-0.365714	0.020534	0.019683	-0.010148	155.661711	-87.752791	-14.459885
10323	NaN	9.748084	0.135004	-0.363494	0.026810	0.026522	-0.012335	155.443347	-87.763716	-14.223594
10324	NaN	9.732974	0.115554	-0.338056	0.024614	0.018824	-0.011282	155.277749	-87.770919	-14.043075
10325	NaN	9.762774	0.156612	-0.358207	0.032280	0.022786	-0.011063	155.092820	-87.780241	-13.842128
10326	NaN	9.738851	0.207091	-0.379142	0.036558	0.023776	-0.008543	154.937248	-87.790636	-13.664797
10327	NaN	9.752873	0.226086	-0.351125	0.031229	0.029254	-0.001352	154.837304	-87.805699	-13.546865
10328	NaN	9.710545	0.169407	-0.400876	0.036744	0.020842	-0.004960	154.746064	-87.815420	-13.433807
10329	NaN	9.743505	0.172515	-0.348782	0.055320	0.026795	0.002769	154.732968	-87.830120	-13.387917
10330	NaN	9.758804	0.192643	-0.369600	0.051055	0.025781	0.000237	154.687452	-87.843666	-13.312413
10331	NaN	9.753878	0.226276	-0.366046	0.051698	0.026633	0.006291	154.718626	-87.859128	-13.317010
10332	NaN	9.747641	0.257807	-0.313852	0.059090	0.023881	0.007625	154.792190	-87.873497	-13.356064
10333	NaN	9.720590	0.220381	-0.387422	0.052618	0.015191	0.006170	154.905909	-87.882974	-13.433555
10334	NaN	9.768046	0.242342	-0.334871	0.050221	0.019856	0.008573	155.016050	-87.895478	-13.514294
10335	NaN	9.748555	0.255661	-0.333153	0.057809	0.018953	0.013555	155.210235	-87.908617	-13.678169
10336	NaN	9.763912	0.274363	-0.354509	0.051333	0.024477	0.017079	155.415551	-87.925544	-13.853507
10337	NaN	9.772235	0.324521	-0.301631	0.046021	0.020526	0.019330	155.683200	-87.940769	-14.098614
10338	NaN	9.742535	0.282272	-0.277330	0.030140	0.022989	0.026238	156.027171	-87.959004	-14.424843
10339	NaN	9.767233	0.231098	-0.275894	0.015615	0.025641	0.022312	156.296507	-87.977530	-14.687178
10340	NaN	9.814350	0.128935	-0.202057	0.004561	0.023512	0.024457	156.607128	-87.995508	-14.994695
10341	NaN	9.800555	0.107846	-0.224874	-0.009500	0.029948	0.022987	156.854025	-88.016361	-15.251176
10342	NaN	9.763272	0.014700	-0.274836	-0.012995	0.029972	0.016868	157.006942	-88.035950	-15.410953
10343	NaN	9.727743	0.007063	-0.224851	-0.016745	0.018636	0.007023	157.080112	-88.047281	-15.498540
10344	NaN	9.719617	-0.045872	-0.273530	-0.016518	0.025238	0.010705	157.170602	-88.062979	-15.597871
10345	NaN	9.721142	-0.045050	-0.320088	-0.011685	0.020633	0.005946	157.221164	-88.075091	-15.661654
10346	NaN	9.750396	-0.006174	-0.316051	-0.005368	0.017994	-0.001174	157.180756	-88.084321	-15.623621
10347	NaN	9.711341	0.023249	-0.314483	-0.007018	0.018933	-0.002413	157.116289	-88.093773	-15.558827
10348	NaN	9.734125	0.095368	-0.260986	-0.004107	0.013350	-0.007223	157.010770	-88.099199	-15.454924
10349	NaN	9.747993	0.115067	-0.234199	-0.008815	0.013343	-0.012163	156.827756	-88.103359	-15.280208
10350	NaN	9.729950	0.132751	-0.281879	-0.017364	0.011369	-0.017213	156.567887	-88.105456	-15.029470
10351	NaN	9.728451	0.132674	-0.231974	-0.016224	0.011330	-0.013566	156.372652	-88.108220	-14.844910
10352	NaN	9.764131	0.140261	-0.278314	-0.019677	0.013058	-0.006391	156.270572	-88.113639	-14.753374
10353	NaN	9.714659	0.115981	-0.255055	-0.021006	0.011242	-0.013685	156.064894	-88.116427	-14.559004
10354	NaN	9.730775	0.138459	-0.301738	-0.024411	0.008291	-0.011381	155.913203	-88.118171	-14.420545
10355	NaN	9.745354	0.159342	-0.299955	-0.014087	0.004725	-0.014787	155.745922	-88.117001	-14.269994
10356	NaN	9.739591	0.193958	-0.273845	-0.012920	0.009439	-0.011094	155.596761	-88.119386	-14.127479
10357	NaN	9.712761	0.158331	-0.348279	-0.003863	0.010513	-0.008450	155.493568	-88.122799	-14.030248
10358	NaN	9.759961	0.181807	-0.296098	0.006843	0.010648	-0.004565	155.450132	-88.127351	-13.982186
10359	NaN	9.763446	0.146352	-0.247120	0.008521	0.014459	-0.003282	155.396637	-88.134224	-13.927168
10360	NaN	9.762695	0.145953	-0.221425	0.002330	0.012484	-0.005868	155.315699	-88.139417	-13.844172
10361	NaN	9.763495	0.147585	-0.244455	0.003387	0.015425	-0.010646	155.136482	-88.144968	-13.663953
10362	NaN	9.714027	0.122908	-0.221023	-0.001047	0.014284	-0.003520	155.076697	-88.151652	-13.604057
10363	NaN	9.748192	0.128258	-0.218549	-0.013509	0.010259	-0.003865	155.040943	-88.156060	-13.578178
10364	NaN	9.719873	0.090522	-0.244069	-0.024453	0.012945	-0.006528	154.928491	-88.161316	-13.479006
10365	NaN	9.734460	0.110889	-0.241635	-0.022018	0.013022	-0.008884	154.781858	-88.165876	-13.351209
10366	NaN	9.706946	0.074396	-0.291663	-0.026829	0.008182	-0.009051	154.662421	-88.168031	-13.246411
10367	NaN	9.702738	0.110444	-0.314148	-0.017691	0.009335	-0.011228	154.508125	-88.170106	-13.103609
10368	NaN	9.716493	0.130501	-0.288170	-0.005235	-0.000806	-0.015841	154.360415	-88.165920	-12.958145
10369	NaN	9.754849	0.102031	-0.263460	0.000523	0.002150	-0.015669	154.201839	-88.163186	-12.802988
10370	NaN	9.730218	0.151926	-0.262255	-0.002939	0.003872	-0.008493	154.138180	-88.163226	-12.740303
10371	NaN	9.778102	0.176511	-0.234976	0.004979	0.004990	-0.009491	154.057813	-88.163540	-12.655820
10372	NaN	9.757701	0.191152	-0.210381	-0.000777	0.002031	-0.009664	153.990998	-88.162332	-12.588737
10373	NaN	9.759295	0.193598	-0.258910	-0.008508	0.002760	-0.005021	153.986405	-88.162723	-12.592774
10374	NaN	9.725155	0.189107	-0.259970	-0.010427	0.001773	-0.005079	153.989709	-88.162534	-12.601378
10375	NaN	9.744742	0.175006	-0.259743	-0.010698	-0.000150	-0.003897	154.027995	-88.161572	-12.653554
10376	NaN	9.721501	0.102885	-0.287665	-0.014104	-0.003102	-0.001596	154.123102	-88.159742	-12.756117
10377	NaN	9.736033	0.122643	-0.286773	-0.009321	-0.003010	-0.001474	154.223068	-88.158009	-12.859958
10378	NaN	9.754815	0.107394	-0.262597	-0.016022	-0.004090	-0.001655	154.323359	-88.155643	-12.968807
10379	NaN	9.750555	0.142536	-0.286114	-0.009564	-0.000186	-0.000245	154.418037	-88.155739	-13.070252
10380	NaN	9.765091	0.162159	-0.285121	-0.007673	-0.003948	-0.000234	154.544434	-88.153785	-13.200435
10381	NaN	9.751338	0.143525	-0.310972	-0.013400	-0.002161	-0.000362	154.654007	-88.152660	-13.321207
10382	NaN	9.750529	0.142721	-0.286917	-0.014373	-0.005030	-0.000416	154.781356	-88.150083	-13.456184
10383	NaN	9.784660	0.147738	-0.285811	-0.008862	0.000756	0.000990	154.890570	-88.150858	-13.568864
10384	NaN	9.702646	0.118842	-0.313945	-0.008431	-0.000223	0.003407	155.046346	-88.151684	-13.728875
10385	NaN	9.775176	0.093632	-0.288006	-0.004080	0.000850	0.001112	155.164720	-88.152378	-13.850223
10386	NaN	9.736783	0.123428	-0.312797	0.001105	-0.004784	0.003604	155.363184	-88.150852	-14.047478
10387	NaN	9.775175	0.093039	-0.288247	0.004023	0.003820	0.003765	155.509022	-88.153740	-14.189737
10388	NaN	9.741045	0.087927	-0.289353	0.011996	0.000274	-0.002107	155.584094	-88.153466	-14.257292
10389	NaN	9.756382	0.108500	-0.312628	0.011725	-0.001651	-0.000926	155.695130	-88.152436	-14.363605
10390	NaN	9.755583	0.107603	-0.288324	0.014346	0.000280	0.000368	155.811519	-88.152740	-14.471152
10391	NaN	9.741041	0.088015	-0.289448	0.012699	0.001216	-0.000873	155.898226	-88.153268	-14.551441
10392	NaN	9.753994	0.105897	-0.239300	0.006972	0.003003	-0.001002	155.968533	-88.154665	-14.617110
10393	NaN	9.762245	0.075559	-0.337563	0.013757	0.004158	-0.005650	155.964881	-88.155594	-14.599863
10394	NaN	9.761461	0.074939	-0.312644	0.019429	0.007041	-0.000647	156.018995	-88.159185	-14.642189
10395	NaN	9.761473	0.075116	-0.312245	0.021134	0.001430	-0.004283	156.060913	-88.158981	-14.668627
10396	NaN	9.755625	0.108850	-0.286415	0.025515	0.007245	-0.006535	156.021237	-88.161308	-14.613626
10397	NaN	9.730980	0.158173	-0.284980	0.025761	0.004416	-0.007765	155.981845	-88.162000	-14.552111
10398	NaN	9.743910	0.176694	-0.234660	0.019762	0.004281	-0.006711	155.957400	-88.162733	-14.515646
10399	NaN	9.745519	0.179128	-0.282956	0.011684	0.006060	-0.009316	155.876677	-88.163735	-14.426258
10400	NaN	9.764316	0.164676	-0.257669	0.006226	0.009771	-0.010629	155.740210	-88.166413	-14.285472
10401	NaN	9.729378	0.159723	-0.233833	0.000900	0.005836	-0.008382	155.666398	-88.167520	-14.214948
10402	NaN	9.731805	0.163067	-0.306564	-0.000072	0.002969	-0.008433	155.611962	-88.167154	-14.159847
10403	NaN	9.751415	0.149037	-0.305944	0.001515	0.006709	-0.002318	155.629027	-88.170244	-14.173941
10404	NaN	9.765150	0.168067	-0.279606	-0.001078	0.009525	-0.003567	155.604837	-88.174449	-14.149678
10405	NaN	9.750642	0.148719	-0.279931	-0.002567	0.007563	-0.001206	155.639100	-88.178081	-14.184747
10406	NaN	9.764370	0.167699	-0.253638	-0.000131	0.007644	-0.003560	155.629505	-88.181306	-14.174544
10407	NaN	9.715726	0.143483	-0.255330	-0.001779	0.008579	-0.004803	155.591729	-88.184747	-14.138058
10408	NaN	9.768649	0.133434	-0.229048	-0.003566	-0.000051	-0.001300	155.674754	-88.184491	-14.222490
10409	NaN	9.730261	0.163532	-0.253515	-0.013107	0.004511	-0.001503	155.718321	-88.186531	-14.271429
10410	NaN	9.768662	0.133876	-0.228220	-0.009698	0.007459	-0.003807	155.700648	-88.189602	-14.258628
10411	NaN	9.750707	0.150345	-0.276776	-0.009567	-0.000185	-0.000247	155.798309	-88.189514	-14.363028
10412	NaN	9.737011	0.131651	-0.302155	-0.006675	0.003667	-0.000138	155.871409	-88.191464	-14.439313
10413	NaN	9.736190	0.130719	-0.277730	-0.008191	-0.003042	0.002179	156.030810	-88.190489	-14.603178
10414	NaN	9.770321	0.135636	-0.276455	-0.011730	0.001652	0.000922	156.133702	-88.191620	-14.712167
10415	NaN	9.735374	0.129736	-0.253130	-0.011458	0.003573	-0.000262	156.201457	-88.193565	-14.784819
10416	NaN	9.756636	0.117030	-0.301434	-0.012158	0.002627	-0.001498	156.257000	-88.194640	-14.846680
10417	NaN	9.737861	0.132521	-0.325744	-0.016511	0.001556	0.000796	156.356018	-88.195679	-14.956908
10418	NaN	9.742126	0.097481	-0.302139	-0.012674	0.003529	0.000913	156.445093	-88.197774	-15.052614
10419	NaN	9.760909	0.082080	-0.277487	-0.016265	-0.001271	-0.000434	156.545882	-88.197072	-15.161259
10420	NaN	9.706342	0.090909	-0.254688	-0.013829	-0.001187	-0.002787	156.606823	-88.195836	-15.229479
10421	NaN	9.755820	0.116644	-0.276544	-0.006428	0.000839	-0.001367	156.679524	-88.196007	-15.307869
10422	NaN	9.756646	0.117600	-0.300884	0.000000	0.000000	0.000000	156.786308	-88.196020	-15.414027
10423	NaN	9.731130	0.165393	-0.275623	0.002864	-0.000892	0.000066	156.902197	-88.195516	-15.531821
10424	NaN	9.751561	0.151769	-0.299867	0.003136	0.001030	-0.001117	156.984729	-88.195809	-15.611919
10425	NaN	9.764437	0.169700	-0.249712	0.002190	0.002909	-0.001124	157.049986	-88.197203	-15.675285
10426	NaN	9.745657	0.185100	-0.274236	0.007374	-0.002719	0.001374	157.203302	-88.196064	-15.823772
10427	NaN	9.744011	0.182986	-0.225473	-0.005115	0.002655	0.005934	157.389395	-88.198754	-16.012614
10428	NaN	9.751585	0.150945	-0.299509	-0.013733	0.000585	0.005690	157.580229	-88.200281	-16.210737
10429	NaN	9.731164	0.164223	-0.275092	-0.017025	0.002453	0.003205	157.713696	-88.202234	-16.356010
10430	NaN	9.755853	0.115284	-0.275946	-0.019915	-0.001403	0.003091	157.871340	-88.202111	-16.524469
10431	NaN	9.708021	0.091299	-0.302992	-0.015133	-0.001308	0.003216	158.034058	-88.202069	-16.694219
10432	NaN	9.728446	0.077124	-0.327543	-0.008548	-0.005048	0.008184	158.309138	-88.201057	-16.973657
10433	NaN	9.742146	0.095142	-0.302243	-0.003223	-0.001108	0.005946	158.523346	-88.201650	-17.189524
10434	NaN	9.760920	0.079100	-0.277970	0.005367	-0.003783	0.006144	158.762997	-88.200815	-17.425539
10435	NaN	9.785731	0.152723	-0.299365	0.010393	-0.006512	0.005040	159.003824	-88.198304	-17.659899
10436	NaN	9.749952	0.145298	-0.252219	-0.000603	0.000824	0.007241	159.228314	-88.200099	-17.884167
10437	NaN	9.752431	0.147235	-0.325430	-0.007575	-0.002181	0.008238	159.486173	-88.200434	-18.146699
10438	NaN	9.766970	0.166046	-0.324516	-0.011410	-0.004157	0.008118	159.751680	-88.199666	-18.418199
10439	NaN	9.750788	0.143930	-0.277348	-0.016191	-0.004253	0.007992	160.014521	-88.198712	-18.691178
10440	NaN	9.776263	0.095296	-0.302963	-0.022432	-0.001571	0.010270	160.294242	-88.199677	-18.983219
10441	NaN	9.733458	0.036661	-0.331225	-0.019052	-0.003365	0.007923	160.545070	-88.199282	-19.243673
10442	NaN	9.757267	-0.013576	-0.308284	-0.008030	-0.005954	0.005769	160.782199	-88.196942	-19.484845
10443	NaN	9.726748	0.067617	-0.282325	-0.000201	-0.004908	0.009608	161.083014	-88.195902	-19.783683
10444	NaN	9.742099	0.087266	-0.306099	0.006040	-0.007592	0.007327	161.363375	-88.192886	-20.060042
10445	NaN	9.744924	0.172554	-0.254507	0.007014	-0.004725	0.007382	161.626966	-88.191419	-20.320790
10446	NaN	9.745740	0.172640	-0.279367	-0.004980	-0.005003	0.009482	161.921964	-88.190115	-20.618112
10447	NaN	9.765327	0.157237	-0.279738	-0.013325	-0.005150	0.008055	162.185461	-88.188519	-20.888965
10448	NaN	9.741252	0.083010	-0.283782	-0.022969	-0.005424	0.012631	162.525913	-88.187437	-21.242076
10449	NaN	9.716643	0.130680	-0.282988	-0.023368	0.000302	0.010263	162.795346	-88.189013	-21.525080
10450	NaN	9.741261	0.080784	-0.284105	-0.019645	-0.002557	0.015160	163.166207	-88.189804	-21.906709
10451	NaN	9.761649	0.065631	-0.308855	-0.011330	-0.007161	0.016535	163.590108	-88.188203	-22.337998
10452	NaN	9.771198	0.117865	-0.306894	-0.011729	-0.001433	0.014170	163.942751	-88.189289	-22.696863
10453	NaN	9.761650	0.063009	-0.309353	-0.015721	-0.000502	0.010451	164.225339	-88.190277	-22.986386
10454	NaN	9.742893	0.077536	-0.333808	-0.004244	0.000675	0.010764	164.513284	-88.191881	-23.276229
10455	NaN	9.713756	0.037282	-0.336353	-0.002871	-0.002189	0.013184	164.859345	-88.192169	-23.625335
10456	NaN	9.745481	0.038138	-0.261771	-0.003782	0.004438	0.013232	165.174244	-88.196118	-23.941880
10457	NaN	9.746303	0.037784	-0.285900	0.002884	0.000772	0.013367	165.513148	-88.198005	-24.280534
10458	NaN	9.756710	0.091114	-0.307914	-0.000952	-0.001203	0.013244	165.857465	-88.198707	-24.624889
10459	NaN	9.769674	0.107675	-0.258211	-0.004978	-0.005017	0.009474	166.148713	-88.196735	-24.919554
10460	NaN	9.736335	0.102729	-0.284313	-0.011915	-0.003276	0.010517	166.447310	-88.195797	-25.224452
10461	NaN	9.737151	0.102528	-0.308870	-0.019363	-0.000641	0.013972	166.789371	-88.196801	-25.577961
10462	NaN	9.742124	0.067075	-0.310356	-0.016535	-0.006285	0.013982	167.158572	-88.194518	-25.956147
10463	NaN	9.766647	0.017002	-0.311733	-0.017442	0.000341	0.014032	167.503915	-88.195765	-26.312147
10464	NaN	9.731694	0.009854	-0.288633	-0.011448	0.000479	0.012983	167.831230	-88.197001	-26.645508
10465	NaN	9.731692	0.008726	-0.288716	-0.005215	-0.002203	0.010702	168.132431	-88.196366	-26.951136
10466	NaN	9.761687	0.047584	-0.310942	0.000936	-0.004976	0.013247	168.491876	-88.194453	-27.309545
10467	NaN	9.742140	0.060973	-0.311128	-0.001616	0.002591	0.012058	168.802849	-88.196564	-27.621919
10468	NaN	9.760891	0.044345	-0.286562	-0.004941	-0.000277	0.009523	169.075582	-88.196761	-27.896943
10469	NaN	9.740542	0.056995	-0.262281	-0.012148	-0.000464	0.011744	169.380529	-88.197222	-28.209372
10470	NaN	9.766642	0.009229	-0.312209	-0.018060	-0.000512	0.007966	169.618766	-88.197040	-28.457403
10471	NaN	9.746289	0.022215	-0.287981	-0.013984	-0.001361	0.006856	169.843292	-88.196209	-28.690596
10472	NaN	9.746287	0.021630	-0.288104	-0.007991	-0.001221	0.005809	170.050684	-88.195350	-28.901996
10473	NaN	9.712135	0.016100	-0.289415	-0.014221	0.001458	0.008089	170.289831	-88.196149	-29.148355
10474	NaN	9.741359	0.054627	-0.286963	-0.014176	-0.003196	0.003206	170.452742	-88.193876	-29.318796
10475	NaN	9.742166	0.055205	-0.311369	-0.009873	0.002537	0.005802	170.645564	-88.195163	-29.516760
10476	NaN	9.747098	0.020523	-0.312473	-0.010849	-0.000331	0.005742	170.847013	-88.194708	-29.723852
10477	NaN	9.731675	-0.000290	-0.289431	-0.003133	-0.001035	0.001111	170.971869	-88.193443	-29.850229
10478	NaN	9.742170	0.054320	-0.311416	-0.001918	-0.000987	-0.000063	171.075858	-88.192067	-29.954692
10479	NaN	9.761709	0.039571	-0.311367	-0.000511	0.000892	0.002411	171.219934	-88.191943	-30.100655
10480	NaN	9.741368	0.053043	-0.286950	0.000704	0.000940	0.001237	171.343194	-88.191756	-30.222896
10481	NaN	9.756798	0.073313	-0.309877	-0.002666	0.002725	0.003582	171.499782	-88.192872	-30.380937
10482	NaN	9.760113	0.036972	-0.262117	-0.006932	0.001739	0.001043	171.613094	-88.193103	-30.497603
10483	NaN	9.746315	0.018308	-0.287374	-0.008110	0.006439	0.002274	171.734099	-88.196212	-30.622185
10484	NaN	9.752869	-0.013942	-0.336868	-0.006658	0.003666	-0.000134	171.821629	-88.197426	-30.712898
10485	NaN	9.737454	-0.034427	-0.313407	-0.001881	0.003760	-0.000005	171.913208	-88.198763	-30.804293
10486	NaN	9.752901	-0.013940	-0.335947	0.005791	0.007709	0.000248	172.004766	-88.202292	-30.891899
10487	NaN	9.746376	0.018239	-0.285298	0.007947	0.005876	-0.000923	172.080783	-88.204763	-30.962455
10488	NaN	9.731779	-0.000970	-0.285911	0.007088	0.007853	-0.005750	172.064526	-88.207893	-30.941450
10489	NaN	9.726870	0.033606	-0.284207	0.007480	0.002117	-0.003395	172.105953	-88.207946	-30.977871
10490	NaN	9.746416	0.019403	-0.283849	0.004192	0.003998	-0.005875	172.095513	-88.208880	-30.964346
10491	NaN	9.747240	0.020968	-0.307984	-0.001563	0.001036	-0.006064	172.083182	-88.208156	-30.956277
10492	NaN	9.759401	0.038188	-0.233463	-0.005125	0.000989	-0.007368	172.047915	-88.207265	-30.923254
10493	NaN	9.765150	0.005769	-0.258969	-0.009902	0.000894	-0.007498	172.008512	-88.206293	-30.890786
10494	NaN	9.747244	0.023197	-0.307700	-0.008687	0.000941	-0.008672	171.947789	-88.205268	-30.834336
10495	NaN	9.748064	0.025056	-0.331938	-0.006768	0.001928	-0.008609	171.883998	-88.204880	-30.774931
10496	NaN	9.746430	0.023796	-0.283033	-0.001562	0.001036	-0.006065	171.874377	-88.204116	-30.765524
10497	NaN	9.742313	0.059545	-0.305947	-0.005362	0.003807	-0.006134	171.856182	-88.204863	-30.748834
10498	NaN	9.741508	0.059036	-0.280963	-0.002979	0.008553	-0.003599	171.870945	-88.208563	-30.764636
10499	NaN	9.761886	0.046057	-0.304855	0.000165	0.000191	-0.009650	171.799400	-88.207053	-30.693823
10500	NaN	9.741519	0.060455	-0.280292	-0.003443	0.004793	-0.006071	171.778780	-88.208420	-30.674491
10501	NaN	9.756947	0.081529	-0.303052	-0.005635	0.001878	-0.004959	171.784861	-88.208249	-30.682907
10502	NaN	9.708197	0.057667	-0.305605	-0.008255	-0.000050	-0.006260	171.770735	-88.206853	-30.672830
10503	NaN	9.756939	0.082857	-0.302955	-0.010601	-0.000052	-0.008739	171.711121	-88.205257	-30.619096
10504	NaN	9.721967	0.077341	-0.279794	-0.005015	0.002721	0.001104	171.824913	-88.206037	-30.735142
10505	NaN	9.780635	0.033521	-0.279308	-0.010220	0.003611	-0.001441	171.884550	-88.207278	-30.800649
10506	NaN	9.748139	0.030907	-0.329247	-0.005908	-0.000051	-0.003783	171.916559	-88.206082	-30.835384
10507	NaN	9.741533	0.063368	-0.279155	-0.008064	0.001779	-0.002613	171.967970	-88.205937	-30.888843
10508	NaN	9.741542	0.063566	-0.278789	-0.001609	0.005685	-0.001182	172.034933	-88.208202	-30.956084
10509	NaN	9.742379	0.064583	-0.302801	-0.002156	0.001830	0.001171	172.157564	-88.208355	-31.080008
10510	NaN	9.742385	0.064421	-0.302623	-0.003371	0.001781	0.002344	172.297521	-88.208668	-31.221289
10511	NaN	9.761949	0.049773	-0.302253	-0.008302	0.004597	-0.001378	172.361309	-88.210395	-31.285102
10512	NaN	9.732769	0.010633	-0.304559	-0.004586	0.001732	0.003517	172.522217	-88.210752	-31.448041
10513	NaN	9.766923	0.015337	-0.303024	-0.006932	0.001731	0.001038	172.635082	-88.210990	-31.564730
10514	NaN	9.717356	-0.010085	-0.281149	-0.004502	0.001829	-0.001308	172.708099	-88.211029	-31.639687
10515	NaN	9.737742	-0.023663	-0.305344	-0.004073	0.000841	0.001106	172.831475	-88.210511	-31.765654
10516	NaN	9.752343	-0.004119	-0.303853	-0.002584	0.002817	-0.001243	172.904516	-88.211108	-31.839536
10517	NaN	9.737756	-0.023345	-0.304934	-0.000857	0.001976	-0.004828	172.917396	-88.210915	-31.852188
10518	NaN	9.746561	0.029784	-0.277927	-0.001833	-0.000892	-0.004890	172.932874	-88.209144	-31.868048
10519	NaN	9.749053	0.033380	-0.351008	0.000358	0.002024	-0.006001	172.925419	-88.208866	-31.860788
10520	NaN	9.766953	0.017550	-0.301950	-0.002416	0.003010	-0.010895	172.822572	-88.208887	-31.758599
10521	NaN	9.782385	0.038816	-0.324631	-0.001096	0.004793	-0.003593	172.850727	-88.210310	-31.790475
10522	NaN	9.747407	0.033583	-0.301518	0.000408	-0.002625	-0.010887	172.762571	-88.207125	-31.701366
10523	NaN	9.746574	0.033371	-0.277073	0.004193	0.004002	-0.005872	172.752650	-88.208151	-31.687664
10524	NaN	9.776584	0.074019	-0.298523	0.005134	0.002124	-0.005869	172.747526	-88.208024	-31.678919
