// Start Time: Unknown
// Update Rate: 100.0Hz
// Filter Profile: human (46.1)
// Firmware Version: 4.6.0
PacketCounter	Acc_X	Acc_Y	Acc_Z	Gyr_X	Gyr_Y	Gyr_Z	Roll	Pitch	Yaw
20101	-0.476994	9.569866	1.790170	0.000200	-0.018548	-0.011372	79.404753	2.802651	109.787076
20102	-0.560316	9.659357	1.780972	0.003078	0.030718	-0.003016	79.551883	3.262515	110.340673
20103	-0.493129	9.598047	1.874980	0.009391	-0.020396	-0.001794	79.483681	3.030276	110.057967
20104	-0.490826	9.575382	1.756960	0.003834	0.019780	-0.004319	79.486444	3.034777	110.068673
20105	-0.576378	9.622753	1.816516	0.005007	-0.003284	0.001773	79.488230	3.034039	110.066624
20106	-0.450860	9.601776	1.782380	0.003134	-0.003341	0.001355	79.489934	3.032927	110.064882
20107	-0.540704	9.607544	1.799460	-0.000805	0.010870	-0.006530	79.489708	3.037721	110.070327
20108	-0.483333	9.593662	1.793120	0.003852	-0.003974	-0.001920	79.491786	3.038388	110.067884
20109	-0.573195	9.599403	1.810299	-0.003619	0.009247	-0.004017	79.489843	3.041567	110.072674
20110	-0.466110	9.618488	1.808875	0.005832	-0.008005	-0.004259	79.492921	3.043130	110.067712
20111	-0.573919	9.599344	1.810383	-0.009956	0.009710	-0.001996	79.487195	3.045221	110.072964
20112	-0.484837	9.593392	1.794157	-0.010742	-0.003174	-0.006128	79.480911	3.048341	110.070532
20113	-0.534930	9.625243	1.838186	-0.001358	0.010560	-0.004460	79.479949	3.051997	110.075996
20114	-0.527365	9.578220	1.827855	-0.013341	-0.012971	-0.009128	79.471865	3.055781	110.067722
20115	-0.529323	9.643651	1.765226	-0.005967	0.025472	-0.001236	79.468237	3.059284	110.081909
20116	-0.558789	9.623481	1.829102	0.011888	-0.013808	-0.008175	79.474587	3.062443	110.073262
20117	-0.546880	9.553141	1.812759	-0.017049	0.021110	0.001328	79.464443	3.064283	110.085256
20118	-0.469693	9.617435	1.813542	-0.012089	-0.019445	-0.001915	79.456920	3.063323	110.074086
20119	-0.530708	9.643204	1.767248	-0.002987	0.026152	-0.004952	79.454583	3.069035	110.088244
20120	-0.525650	9.554039	1.825606	-0.005637	-0.013620	-0.000835	79.450938	3.068077	110.080473
20121	-0.502504	9.608820	1.826704	-0.016277	0.013249	-0.006252	79.440487	3.073241	110.087198
20122	-0.557000	9.598888	1.829016	-0.018893	-0.009997	-0.008837	79.429309	3.077169	110.080629
20123	-0.517585	9.679153	1.734689	-0.013474	0.011796	-0.002483	79.419908	3.080112	110.086961
20124	-0.548246	9.605092	1.810238	-0.009360	-0.000284	-0.002091	79.414523	3.081260	110.086581
20125	-0.490630	9.591035	1.805151	-0.013103	-0.000398	-0.002928	79.405623	3.083249	110.085898
20126	-0.558308	9.597816	1.834237	-0.018991	0.004461	-0.000216	79.394876	3.083842	110.088391
20127	-0.494947	9.613817	1.814013	-0.018174	-0.003335	0.000027	79.382558	3.083795	110.086473
20128	-0.493867	9.547691	1.879468	-0.023940	0.000520	-0.006298	79.368816	3.087398	110.086101
20129	-0.568595	9.644288	1.739723	-0.026802	0.006122	0.000527	79.351352	3.087355	110.089592
20130	-0.540922	9.621063	1.858207	-0.010686	-0.003108	0.001699	79.345148	3.086064	110.088025
20131	-0.515056	9.533850	1.816282	-0.025583	0.002665	-0.006369	79.329676	3.089821	110.088710
20132	-0.555665	9.572006	1.840727	-0.023099	0.006178	-0.006465	79.316637	3.094096	110.091513
20133	-0.458845	9.519020	1.814954	-0.030046	-0.017549	-0.015672	79.294659	3.101778	110.080158
20134	-0.623925	9.631626	1.862625	-0.012431	0.043412	-0.004648	79.288845	3.109003	110.104152
20135	-0.479401	9.569667	1.908855	-0.001809	-0.034126	0.003898	79.284258	3.103806	110.084865
20136	-0.538515	9.584476	1.803221	0.000867	0.032555	-0.000969	79.285789	3.107801	110.103120
20137	-0.593497	9.585992	1.863020	-0.011807	-0.017188	0.006235	79.272394	3.103748	110.093019
20138	-0.461919	9.595218	1.814572	-0.010066	0.010711	0.007059	79.266981	3.100937	110.099791
20139	-0.630693	9.613171	1.828164	-0.004029	0.001827	0.009410	79.263372	3.095458	110.100664
20140	-0.456201	9.571686	1.810054	-0.004862	-0.003827	0.009575	79.260562	3.089674	110.099492
20141	-0.575083	9.622676	1.828615	-0.007711	0.004856	0.010129	79.255063	3.084264	110.102849
20142	-0.499697	9.579937	1.849332	-0.007508	-0.006396	0.010877	79.250707	3.077460	110.100369
20143	-0.529131	9.625243	1.851005	-0.010507	0.006316	0.006365	79.242496	3.074817	110.104315
20144	-0.498169	9.579674	1.851104	-0.008600	-0.003938	0.008738	79.237598	3.069471	110.102993
20145	-0.529230	9.571416	1.862629	-0.002754	0.001514	0.004066	79.229495	3.069031	110.103243
20146	-0.523318	9.601509	1.847599	-0.012656	0.000923	0.004043	79.222360	3.066873	110.104138
20147	-0.524544	9.547762	1.858465	-0.002258	-0.001312	0.000442	79.219122	3.065074	110.106338
20148	-0.572736	9.568389	1.843454	-0.001423	0.004342	0.000278	79.218497	3.065362	110.108815
20149	-0.531087	9.583390	1.811180	-0.000014	-0.003088	0.006274	79.212271	3.063949	110.104737
20150	-0.548417	9.623443	1.843628	0.003021	0.000738	0.004113	79.214048	3.061748	110.105546
20151	-0.512010	9.608225	1.827194	-0.006118	-0.000427	0.008644	79.205280	3.059555	110.102705
20152	-0.548297	9.569839	1.854158	0.001197	0.000735	0.011526	79.206016	3.053236	110.104253
20153	-0.515577	9.578078	1.843151	-0.000507	-0.000262	0.009899	79.204083	3.050457	110.097282
20154	-0.536784	9.576791	1.832595	0.003950	-0.000779	0.007460	79.206402	3.046322	110.097425
20155	-0.539990	9.600309	1.837879	0.003009	-0.002350	0.010388	79.201760	3.044777	110.091299
20156	-0.525342	9.583747	1.810964	-0.004082	-0.001312	0.007855	79.199394	3.040461	110.091084
20157	-0.512333	9.578302	1.842888	0.000764	-0.000574	0.004555	79.193199	3.041923	110.088231
20158	-0.494007	9.603125	1.858687	0.003411	0.001993	0.003253	79.195120	3.040618	110.089331
20159	-0.555714	9.575709	1.821677	0.000988	0.001624	0.004903	79.197122	3.036420	110.091764
20160	-0.511231	9.578496	1.842188	0.004833	-0.002349	0.002975	79.199787	3.034772	110.090404
20161	-0.505426	9.608778	1.826117	0.001706	0.000997	0.001627	79.191807	3.038342	110.090206
20162	-0.527351	9.607499	1.815353	0.005835	0.002362	0.001603	79.195066	3.038023	110.091337
20163	-0.536657	9.600796	1.836315	0.002470	0.000423	0.006182	79.192003	3.036369	110.092705
20164	-0.540204	9.624285	1.841658	0.002859	0.001679	0.005322	79.193520	3.033890	110.093861
20165	-0.499650	9.585692	1.819280	0.001305	-0.003346	0.008762	79.192754	3.031771	110.083999
20166	-0.520946	9.584378	1.808897	-0.001434	0.001257	0.006553	79.191906	3.028579	110.084965
20167	-0.534132	9.601033	1.835810	0.002635	-0.000519	0.004973	79.193578	3.027052	110.081459
20168	-0.511790	9.602422	1.846084	-0.000164	0.000942	0.001208	79.193444	3.026860	110.081626
20169	-0.555708	9.599709	1.825424	-0.002587	0.000574	0.002858	79.190540	3.030416	110.070752
20170	-0.511239	9.602371	1.846501	-0.003364	-0.001938	0.004578	79.188510	3.028123	110.069511
20171	-0.528929	9.577595	1.830675	-0.000164	0.000942	0.001208	79.187067	3.027009	110.072156
20172	-0.497176	9.585743	1.819690	0.000225	0.002199	0.000348	79.187230	3.027472	110.072870
20173	-0.532956	9.601011	1.836268	-0.000225	-0.002199	-0.000348	79.174818	3.029362	110.085209
20174	-0.506853	9.578929	1.841147	-0.001645	0.002144	-0.000070	79.173674	3.030028	110.085994
20175	-0.529042	9.577604	1.830598	0.004682	0.001679	-0.002092	79.179772	3.034456	110.073445
20176	-0.519513	9.584474	1.808800	0.004129	0.001365	-0.000023	79.182041	3.035068	110.073658
20177	-0.519313	9.584564	1.808378	0.004669	-0.001407	0.004184	79.188476	3.031743	110.070040
20178	-0.510619	9.602638	1.845281	0.005058	-0.000151	0.003324	79.191364	3.030272	110.069756
20179	-0.528388	9.577936	1.829048	-0.000164	0.000942	0.001208	79.193175	3.030666	110.063636
20180	-0.505944	9.579322	1.839351	0.002083	-0.000833	0.007042	79.194466	3.027005	110.063349
20181	-0.515125	9.572612	1.860437	0.003638	0.004192	0.003601	79.187958	3.032960	110.059489
20182	-0.559172	9.569982	1.839344	0.002423	0.000368	-0.001650	79.189303	3.034416	110.058873
20183	-0.521812	9.608372	1.812331	0.003188	-0.000205	0.002905	79.197170	3.027784	110.063615
20184	-0.531141	9.601659	1.833400	0.003024	0.000737	0.004114	79.199019	3.025940	110.063903
20185	-0.518295	9.596309	1.864820	0.004281	-0.002663	0.005044	79.202734	3.021711	110.063000
20186	-0.539857	9.595040	1.854174	0.000991	0.001626	0.004903	79.203505	3.019464	110.063920
20187	-0.529782	9.601883	1.832622	0.002800	-0.001461	0.003766	79.207368	3.014650	110.067892
20188	-0.506165	9.592111	1.783960	0.003966	0.002307	0.001185	79.209886	3.014512	110.068853
20189	-0.529473	9.602031	1.831935	0.003516	-0.002090	0.000489	79.212610	3.013452	110.071057
20190	-0.551342	9.600761	1.821208	0.003414	0.001993	0.003253	79.214814	3.012104	110.072082
20191	-0.503026	9.580093	1.836130	0.002096	0.002253	0.000766	79.220873	3.015702	110.062540
20192	-0.506928	9.603563	1.841480	0.002963	-0.002404	0.002558	79.222791	3.014318	110.060901
20193	-0.514990	9.585640	1.803907	0.001544	0.001940	0.002835	79.219177	3.020395	110.053044
20194	-0.528543	9.602296	1.830812	-0.000389	-0.001256	0.000860	79.219138	3.020186	110.051765
20195	-0.524318	9.578933	1.824995	0.005223	-0.001094	0.002116	79.222214	3.023233	110.044071
20196	-0.518736	9.609170	1.808980	-0.000641	0.006855	-0.001444	79.222268	3.025246	110.047036
20197	-0.554738	9.624449	1.825564	0.000102	-0.004084	-0.002764	79.221297	3.028582	110.039211
20198	-0.537056	9.584338	1.793293	-0.005776	0.000781	-0.000048	79.218244	3.029161	110.038896
20199	-0.510746	9.627016	1.846946	-0.000451	-0.004397	-0.000695	79.225766	3.022276	110.039604
20200	-0.554835	9.624234	1.826668	-0.009906	-0.000583	-0.000024	79.220450	3.022566	110.038631
20201	-0.528586	9.601992	1.832395	-0.009038	-0.005240	0.001768	79.210429	3.032388	110.027236
20202	-0.548775	9.654080	1.812896	-0.012880	-0.001264	0.003695	79.203313	3.030685	110.026088
20203	-0.548276	9.653827	1.814394	-0.017787	-0.005139	0.005439	79.187764	3.021404	110.042999
20204	-0.517438	9.608040	1.815341	-0.018174	-0.006394	0.006299	79.177383	3.017572	110.039438
20205	-0.530305	9.624288	1.844515	-0.026757	-0.007236	0.008764	79.154395	3.009791	110.047003
20206	-0.525272	9.600489	1.841201	-0.020530	-0.003620	0.009508	79.142652	3.004381	110.045503
20207	-0.525869	9.546520	1.853401	-0.022398	-0.003673	0.009090	79.132137	3.003536	110.035998
20208	-0.548352	9.555979	1.903743	-0.018556	-0.007648	0.007160	79.121427	2.999065	110.031888
20209	-0.482944	9.560866	1.824517	-0.011617	-0.004662	0.004626	79.120031	2.994253	110.030604
20210	-0.532082	9.592561	1.869189	-0.010288	-0.001835	0.000839	79.114278	2.993921	110.029108
20211	-0.522253	9.599241	1.848553	-0.004679	-0.001676	0.002092	79.107051	3.000444	110.019388
20212	-0.518002	9.575684	1.843754	-0.012545	-0.003143	0.001280	79.099902	2.999815	110.017106
20213	-0.553416	9.590797	1.861348	-0.007487	-0.003300	0.004602	79.096583	2.994784	110.020662
20214	-0.525278	9.622233	1.856637	-0.005229	-0.001991	0.004161	79.093693	2.992609	110.019402
20215	-0.538653	9.574007	1.835695	-0.009844	-0.000528	0.007812	79.100398	2.987577	110.013449
20216	-0.543392	9.543691	1.852143	-0.005075	-0.006022	0.009225	79.097689	2.982094	110.010411
20217	-0.520583	9.544968	1.862862	-0.001490	-0.001886	0.004996	79.097913	2.978392	110.011384
20218	-0.498027	9.546304	1.873196	0.002637	-0.000525	0.004972	79.099780	2.975865	110.011017
20219	-0.523524	9.568541	1.867963	0.007857	-0.001625	0.007085	79.110248	2.976940	109.997757
20220	-0.517263	9.598927	1.851585	0.006151	-0.002618	0.005458	79.114167	2.973960	109.996153
20221	-0.507181	9.605848	1.829780	0.003188	-0.000210	0.002904	79.116078	2.975515	109.990872
20222	-0.538611	9.597813	1.840457	0.003189	-0.000210	0.002904	79.118364	2.974252	109.990319
20223	-0.524538	9.581287	1.813190	0.002412	-0.002723	0.004623	79.121897	2.968413	109.998026
20224	-0.506091	9.606045	1.829047	0.001157	0.000679	0.003695	79.123074	2.966753	109.998113
20225	-0.537338	9.597997	1.839870	0.002250	-0.001781	0.005832	79.126174	2.960746	110.000959
20226	-0.514752	9.599402	1.849821	0.006766	0.000836	0.004948	79.130604	2.958346	110.001328
20227	-0.546149	9.591416	1.860304	0.003577	0.001046	0.002044	79.134941	2.962811	109.995641
20228	-0.508263	9.629805	1.833363	0.001311	-0.003351	0.008761	79.136168	2.957869	109.993977
20229	-0.521678	9.581673	1.811975	-0.006710	-0.000784	0.002885	79.128202	2.953508	110.000440
20230	-0.506088	9.563820	1.897037	0.002477	0.000417	0.006182	79.130141	2.950368	110.000721
20231	-0.517981	9.569398	1.865119	0.000996	0.001622	0.004905	79.123264	2.944008	110.014239
20232	-0.507963	9.576261	1.843550	0.003189	-0.000210	0.002904	79.125478	2.942578	110.013949
20233	-0.533794	9.598478	1.838391	0.005448	0.001097	0.002462	79.135413	2.942643	110.012120
20234	-0.521227	9.593016	1.869912	-0.000615	-0.003454	0.000510	79.135421	2.942212	110.009701
20235	-0.511574	9.599910	1.848069	0.010515	0.004027	-0.000491	79.143974	2.942550	110.012790
20236	-0.539290	9.568538	1.852743	0.003513	-0.002094	0.000486	79.146418	2.942258	110.011151
20237	-0.507456	9.576736	1.841218	0.007707	0.002405	0.002020	79.152336	2.942578	110.012394
20238	-0.501858	9.607060	1.824878	0.004679	0.001673	-0.002093	79.155560	2.944142	110.012595
20239	-0.515543	9.623771	1.851383	0.005448	0.001098	0.002462	79.154426	2.947767	110.009737
20240	-0.537352	9.622575	1.840584	0.003190	-0.000210	0.002904	79.156716	2.946357	110.009386
20241	-0.523382	9.605994	1.813467	-0.000712	0.000629	0.003278	79.156215	2.944042	110.011428
20242	-0.532560	9.599219	1.834876	-0.000008	-0.003087	0.006275	79.156609	2.940400	110.009853
20243	-0.531917	9.599205	1.835134	-0.005325	0.002096	0.006929	79.151745	2.940013	110.009513
20244	-0.492981	9.571569	1.871765	0.002736	-0.004606	0.002206	79.153620	2.938518	110.006626
20245	-0.505155	9.577092	1.839997	-0.002193	0.001833	0.002000	79.149512	2.938812	110.009712
20246	-0.530978	9.599227	1.835290	0.001158	0.000680	0.003695	79.150608	2.937048	110.009984
20247	-0.512690	9.623967	1.851158	0.001709	0.000994	0.001627	79.149008	2.934546	110.012683
20248	-0.511332	9.612893	1.792220	0.002097	0.002250	0.000767	79.150648	2.934558	110.013591
20249	-0.508406	9.600635	1.845174	0.001159	0.000680	0.003695	79.154690	2.937502	110.007310
20250	-0.534104	9.622791	1.840401	-0.000873	0.001571	0.004487	79.154663	2.935389	110.008164
20251	-0.520115	9.606133	1.813672	-0.004679	-0.001672	0.002093	79.147323	2.934437	110.011356
20252	-0.529331	9.599321	1.835277	-0.000008	-0.003087	0.006275	79.147611	2.930806	110.009819
20253	-0.519096	9.606078	1.814252	-0.007033	0.001103	0.005302	79.141942	2.929349	110.013464
20254	-0.518636	9.605995	1.814827	-0.005001	0.000212	0.004511	79.139430	2.927070	110.013604
20255	-0.509791	9.623841	1.852614	-0.003359	-0.001934	0.004580	79.137867	2.924030	110.017960
20256	-0.491700	9.583707	1.820598	-0.009196	-0.004286	0.002977	79.132810	2.922114	110.015421
20257	-0.505104	9.600236	1.848152	-0.002192	0.001833	0.002001	79.136110	2.928784	110.003043
20258	-0.536661	9.592132	1.859373	-0.002647	-0.002563	0.001302	79.134883	2.928066	110.001180
20259	-0.509138	9.558841	1.805695	-0.004223	0.002724	0.002792	79.135135	2.927951	110.000723
20260	-0.504443	9.600090	1.849089	-0.003425	-0.005074	0.003021	79.133424	2.925993	109.997623
20261	-0.516466	9.605575	1.817665	-0.002969	-0.000678	0.003720	79.134596	2.929513	109.986859
20262	-0.543836	9.574039	1.823407	-0.005067	-0.002927	0.002953	79.132031	2.927870	109.984887
20263	-0.503273	9.599912	1.850333	-0.005616	-0.003241	0.005022	79.127629	2.925641	109.984105
20264	-0.515133	9.605366	1.819145	-0.005616	-0.003241	0.005022	79.124737	2.922796	109.982195
20265	-0.502189	9.599755	1.851444	-0.005616	-0.003241	0.005022	79.119442	2.925005	109.973390
20266	-0.514020	9.605197	1.820352	-0.007646	-0.002349	0.005814	79.115392	2.921849	109.972026
20267	-0.465506	9.584197	1.836133	-0.006319	0.000476	0.002026	79.106742	2.922856	109.974701
20268	-0.518949	9.574766	1.837414	-0.007485	-0.003291	0.004604	79.102695	2.920286	109.972693
20269	-0.478493	9.600595	1.864422	-0.004744	-0.004810	0.000534	79.098828	2.922936	109.967065
20270	-0.512932	9.604805	1.822726	-0.003739	-0.000101	-0.000835	79.096972	2.923795	109.966242
20271	-0.529417	9.633642	1.797275	-0.009509	0.000689	-0.000877	79.088243	2.927785	109.967727
20272	-0.517052	9.627910	1.829965	-0.010125	-0.002764	-0.000368	79.082614	2.928116	109.965440
20273	-0.529495	9.633193	1.799655	-0.019404	0.000123	-0.000895	79.070674	2.929781	109.968681
20274	-0.500610	9.598353	1.859124	-0.014800	-0.004435	0.001726	79.062315	2.928754	109.965687
20275	-0.528060	9.566562	1.866133	-0.020271	0.001692	0.003595	79.048638	2.928153	109.970456
20276	-0.496252	9.574283	1.856963	-0.017598	-0.002964	-0.002037	79.038670	2.929403	109.967892
20277	-0.507228	9.633079	1.817357	-0.026714	-0.001017	-0.003771	79.018777	2.935323	109.962144
20278	-0.517189	9.625777	1.841112	-0.022974	-0.000916	-0.002937	79.005735	2.937326	109.960625
20279	-0.505061	9.619632	1.875625	-0.034731	-0.001530	-0.003370	78.989847	2.941442	109.953885
20280	-0.487902	9.579029	1.846064	-0.031533	0.001350	-0.006738	78.971977	2.945842	109.953191
20281	-0.528422	9.617079	1.871632	-0.034944	-0.000629	-0.009992	78.948976	2.953510	109.954063
20282	-0.489687	9.577609	1.852944	-0.042343	0.002311	-0.010095	78.924886	2.959914	109.953541
20283	-0.532086	9.561860	1.888948	-0.034772	-0.001566	-0.011201	78.909009	2.966766	109.948467
20284	-0.563114	9.606735	1.893176	-0.030967	0.001672	-0.008802	78.891459	2.972369	109.947712
20285	-0.521425	9.610202	1.805360	-0.037244	-0.005066	-0.011113	78.869142	2.980020	109.943316
20286	-0.540566	9.529345	1.914987	-0.047560	0.010639	-0.007853	78.842339	2.986090	109.947706
20287	-0.488701	9.604072	1.855839	-0.042513	-0.010190	-0.008520	78.813462	2.992779	109.941017
20288	-0.517551	9.571846	1.864341	-0.026435	0.007398	-0.015942	78.798578	3.003055	109.942676
20289	-0.545402	9.473331	1.935419	-0.038567	0.002421	-0.009252	78.775667	3.011617	109.942425
20290	-0.529548	9.563538	1.892053	-0.030455	-0.001134	-0.012432	78.758233	3.018988	109.939649
20291	-0.503022	9.594647	1.888746	-0.008384	0.004441	-0.011272	78.750308	3.027723	109.946736
20292	-0.561074	9.477568	1.910031	-0.017458	-0.003924	-0.011083	78.740209	3.034033	109.942544
20293	-0.486259	9.487893	1.921066	-0.008319	0.007577	-0.009702	78.739250	3.042744	109.939872
20294	-0.540764	9.542822	1.970735	0.007087	0.005157	-0.010005	78.743516	3.049476	109.940882
20295	-0.540457	9.532297	1.910747	0.016639	0.007601	-0.007565	78.756190	3.056052	109.940832
20296	-0.487606	9.542084	1.908092	0.026679	0.007232	-0.008760	78.771772	3.062319	109.943136
20297	-0.600007	9.547023	1.912727	0.019761	0.004246	-0.006231	78.786742	3.072087	109.925920
20298	-0.523323	9.547288	1.861883	0.018727	0.006741	-0.000527	78.797829	3.073710	109.928803
20299	-0.594924	9.578202	1.892639	0.036070	0.007512	0.001159	78.816682	3.079619	109.922100
20300	-0.530370	9.528994	1.929956	0.039744	0.004479	0.000428	78.839729	3.080489	109.923778
20301	-0.505691	9.573796	1.868288	0.031420	0.008942	-0.003016	78.866348	3.082514	109.919612
20302	-0.528239	9.573158	1.854579	0.037122	0.005020	-0.004540	78.887947	3.086221	109.921031
20303	-0.520554	9.591597	1.888287	0.040384	0.011043	-0.006338	78.907663	3.091584	109.931792
20304	-0.547719	9.549870	1.830966	0.036494	0.011883	-0.005961	78.929070	3.096839	109.936946
20305	-0.544244	9.591721	1.870316	0.042201	0.007962	-0.007481	78.951932	3.104244	109.940025
20306	-0.557404	9.597986	1.834922	0.032672	0.015862	-0.004022	78.971267	3.108851	109.947634
20307	-0.541830	9.569625	1.857482	0.038642	0.006922	-0.009523	78.995991	3.115837	109.953616
20308	-0.519493	9.625196	1.854301	0.035340	0.021530	-0.011589	79.017001	3.125314	109.963586
20309	-0.633981	9.576596	1.867769	0.030055	0.016398	-0.008993	79.034649	3.133322	109.974438
20310	-0.507943	9.609668	1.821380	0.023825	0.009692	-0.003470	79.048744	3.136938	109.978632
20311	-0.584493	9.599376	1.808803	0.030189	0.022678	-0.005869	79.070082	3.143013	109.988430
20312	-0.541197	9.602449	1.826962	0.023769	0.006555	-0.005029	79.084063	3.147157	109.990687
20313	-0.523867	9.627509	1.841012	0.017037	0.016079	-0.004091	79.100649	3.151583	109.992677
20314	-0.578289	9.618348	1.839747	0.018230	0.009538	-0.004724	79.111597	3.155872	109.996635
20315	-0.547234	9.626767	1.827199	0.014494	0.009432	-0.005562	79.122438	3.157246	110.009592
20316	-0.560265	9.632499	1.794044	0.012915	0.014718	-0.004071	79.130520	3.161697	110.016575
20317	-0.550048	9.573521	1.834851	0.007494	0.003304	-0.004594	79.137293	3.164367	110.019891
20318	-0.544975	9.603893	1.818228	0.010658	0.013409	-0.003632	79.144059	3.168418	110.026192
20319	-0.560804	9.567028	1.854151	0.011685	0.007808	-0.003054	79.156836	3.173182	110.020082
20320	-0.565330	9.590670	1.858416	0.015814	0.009172	-0.003073	79.166469	3.176468	110.024028
20321	-0.555906	9.597803	1.835357	0.018836	0.009907	0.001044	79.188697	3.173092	110.027529
20322	-0.546370	9.604923	1.812359	0.014810	0.004460	-0.001704	79.197695	3.175064	110.028978
20323	-0.556440	9.598356	1.832302	0.013723	0.006920	-0.003842	79.211403	3.176302	110.037181
20324	-0.552683	9.575196	1.825294	0.014648	0.005403	-0.000495	79.220383	3.177675	110.039300
20325	-0.534863	9.600228	1.839803	0.016745	0.007656	0.000275	79.234310	3.176972	110.041454
20326	-0.567888	9.658221	1.786071	0.011075	0.004354	-0.002544	79.241225	3.179367	110.042775
20327	-0.557263	9.599373	1.826715	0.015450	-0.002396	-0.000262	79.254011	3.181721	110.027965
20328	-0.538013	9.613145	1.783036	0.005076	0.002935	-0.002946	79.257468	3.184198	110.028422
20329	-0.561945	9.623041	1.830778	0.005858	0.005448	-0.004665	79.262275	3.189191	110.026980
20330	-0.576253	9.574981	1.808443	0.008527	-0.002297	-0.004011	79.267544	3.191714	110.024366
20331	-0.554571	9.576462	1.818065	0.008754	-0.000098	-0.003662	79.277057	3.191897	110.022675
20332	-0.545594	9.583374	1.795864	0.008941	0.002046	-0.011145	79.282686	3.198879	110.021763
20333	-0.528754	9.608232	1.811061	0.008490	-0.002352	-0.011842	79.286711	3.204508	110.019195
20334	-0.579593	9.575397	1.805170	0.007463	0.003249	-0.012425	79.291515	3.212326	110.018849
20335	-0.546785	9.571316	1.846964	0.002001	-0.008226	-0.020771	79.295483	3.222696	110.005625
20336	-0.636467	9.565934	1.804322	0.016177	0.010381	-0.011766	79.305528	3.230889	110.009379
20337	-0.512859	9.610119	1.816968	0.034647	-0.008918	-0.025936	79.329017	3.244608	109.996605
20338	-0.672014	9.558405	1.810510	0.013161	0.009643	-0.015884	79.337313	3.255032	109.999509
20339	-0.498895	9.570390	1.781716	-0.002807	-0.026565	-0.027665	79.335611	3.267268	109.978351
20340	-0.559327	9.638699	1.665395	0.009156	0.020674	-0.033137	79.341868	3.288564	109.985661
20341	-0.690438	9.682186	1.814485	0.025723	0.012813	-0.017148	79.352295	3.301733	109.991301
20342	-0.539313	9.573763	1.847615	0.010612	-0.031143	-0.020854	79.357743	3.310633	109.970703
20343	-0.582315	9.667776	1.635257	-0.000939	0.017935	-0.025691	79.366587	3.322969	109.975864
20344	-0.690952	9.593098	1.869621	0.010628	0.013366	-0.011475	79.373610	3.331264	109.981386
20345	-0.485592	9.494225	1.903368	0.003678	-0.034139	-0.018323	79.381630	3.336360	109.958173
20346	-0.597264	9.660882	1.655364	-0.001330	0.016678	-0.024831	79.381874	3.352507	109.964157
20347	-0.672705	9.583165	1.819919	0.015092	0.012855	-0.013910	79.393805	3.360535	109.966153
20348	-0.500935	9.606865	1.849189	0.009164	-0.040308	-0.027995	79.398172	3.372440	109.939672
20349	-0.584744	9.619947	1.732596	-0.002602	0.043841	-0.028135	79.402509	3.392969	109.965337
20350	-0.669959	9.589803	1.796788	0.009989	-0.037733	-0.021884	79.407486	3.401701	109.940952
20351	-0.566835	9.621259	1.742415	-0.003561	0.015420	-0.016562	79.411946	3.411224	109.949561
20352	-0.717282	9.651630	1.823946	0.006477	-0.001454	-0.011050	79.416226	3.417661	109.946795
20353	-0.529544	9.582601	1.720050	-0.001166	-0.034939	-0.022850	79.412535	3.427520	109.916130
20354	-0.668988	9.673264	1.770367	-0.003960	0.048356	-0.004374	79.412542	3.435437	109.942185
20355	-0.596422	9.642148	1.848986	0.009934	-0.046980	-0.003054	79.422619	3.427735	109.909911
20356	-0.554879	9.592381	1.767947	-0.002287	0.022449	-0.001931	79.422759	3.431510	109.921641
20357	-0.698555	9.587934	1.786056	-0.011118	-0.017892	-0.004873	79.420811	3.433089	109.911518
20358	-0.538782	9.563426	1.795232	0.003689	-0.003024	-0.000713	79.423551	3.433498	109.908995
20359	-0.697440	9.641422	1.776349	-0.006599	0.008563	-0.000294	79.424157	3.435383	109.889865
20360	-0.559482	9.550463	1.727303	-0.014868	-0.031463	-0.005305	79.415296	3.435382	109.870810
20361	-0.616671	9.562947	1.846683	-0.014824	0.022351	-0.006934	79.414197	3.442148	109.864274
20362	-0.713700	9.723090	1.743198	-0.001440	-0.009113	0.000680	79.413860	3.441121	109.858450
20363	-0.558869	9.549216	1.840911	0.011820	-0.009643	0.002412	79.422998	3.439526	109.860842
20364	-0.623677	9.598469	1.799187	-0.007691	0.011018	-0.002433	79.419753	3.442369	109.866047
20365	-0.636056	9.603702	1.767981	-0.004308	-0.013886	0.001634	79.423117	3.438609	109.831775
20366	-0.592068	9.606545	1.789264	-0.004054	0.004852	-0.004701	79.421768	3.442064	109.833270
20367	-0.650161	9.620084	1.795946	-0.008647	-0.004008	0.000901	79.421239	3.441542	109.829791
20368	-0.572896	9.739261	1.674473	-0.010465	-0.000925	0.002036	79.416088	3.440592	109.828733
20369	-0.709008	9.818401	1.668139	-0.034199	0.009049	0.008211	79.401292	3.436350	109.831866
20370	-0.611935	9.180737	1.958218	-0.040507	-0.027717	0.012989	79.378116	3.426395	109.816855
20371	-0.498937	9.424814	2.087391	0.033529	0.008169	-0.003788	79.402341	3.428227	109.807843
20372	-0.737931	9.863159	1.672937	-0.034327	0.026535	0.002747	79.384496	3.429747	109.822367
20373	-0.583541	9.495305	1.515628	-0.011494	-0.022179	0.010080	79.380255	3.421536	109.802005
20374	-0.599902	9.619692	2.048660	0.035574	0.004247	0.009530	79.401765	3.416878	109.804677
20375	-0.620967	9.608032	1.868019	-0.043381	-0.005629	0.005310	79.377671	3.412675	109.831464
20376	-0.545674	9.425520	1.622006	0.010346	0.005004	0.000727	79.384698	3.413048	109.833646
20377	-0.648529	9.641267	1.921496	0.030661	0.003392	-0.002833	79.407066	3.413909	109.843522
20378	-0.583948	9.581867	1.791839	-0.019956	0.002817	-0.005129	79.396645	3.417338	109.843861
20379	-0.617421	9.574570	1.690872	0.019886	0.007443	-0.004655	79.412366	3.422040	109.836102
20380	-0.621053	9.662036	1.855356	0.010800	-0.000961	-0.004450	79.419463	3.424689	109.834375
20381	-0.576117	9.588851	1.769007	-0.012065	0.007393	-0.010585	79.411631	3.433182	109.844368
20382	-0.625333	9.609262	1.753845	0.008669	0.007094	-0.007174	79.417751	3.438217	109.846901
20383	-0.605523	9.621920	1.822754	-0.004104	0.001713	-0.006254	79.417520	3.441870	109.849564
20384	-0.632299	9.578865	1.770059	-0.010752	0.007136	-0.008099	79.412515	3.447424	109.852031
20385	-0.641275	9.625500	1.781850	-0.002961	0.002398	-0.002559	79.414670	3.449233	109.839172
20386	-0.603018	9.598046	1.819143	-0.010827	0.000906	-0.003380	79.409458	3.451468	109.838625
20387	-0.643090	9.571541	1.793676	-0.009736	-0.001551	-0.001241	79.406527	3.454839	109.838437
20388	-0.651562	9.618204	1.805483	-0.003518	0.002082	-0.000492	79.405572	3.455581	109.838844
20389	-0.549638	9.607327	1.820975	-0.010565	-0.007207	-0.001078	79.403056	3.458381	109.828637
20390	-0.694185	9.603834	1.727399	-0.005828	-0.002375	-0.001608	79.400634	3.459291	109.826393
20391	-0.557919	9.588936	1.785588	-0.018209	-0.006499	-0.001549	79.391529	3.460284	109.819850
20392	-0.647636	9.594045	1.803878	-0.008684	0.006306	-0.001054	79.387774	3.461795	109.822566
20393	-0.607880	9.620187	1.831102	-0.006876	-0.010230	-0.001795	79.385655	3.462538	109.833453
20394	-0.609471	9.566355	1.842229	-0.013344	0.007706	-0.005239	79.379259	3.466555	109.836517
20395	-0.556798	9.575656	1.843741	-0.027610	-0.020342	-0.018913	79.364522	3.477548	109.820285
20396	-0.749404	9.646151	1.725255	0.000573	0.027225	-0.002852	79.366790	3.482292	109.834602
20397	-0.567905	9.568449	1.866477	-0.002856	-0.028590	-0.004538	79.364703	3.480896	109.824554
20398	-0.627528	9.583108	1.761058	-0.004476	0.027367	-0.006177	79.364061	3.487519	109.838618
20399	-0.661236	9.585784	1.831253	-0.007531	-0.016828	-0.002845	79.360452	3.489098	109.823178
20400	-0.580482	9.681797	1.704577	-0.014484	0.007024	-0.008931	79.353363	3.495123	109.825469
20401	-0.682884	9.517940	1.886190	-0.008464	0.008504	-0.000701	79.347835	3.498024	109.831336
20402	-0.571556	9.633453	1.807238	-0.011215	-0.013805	-0.002129	79.341936	3.498016	109.822600
20403	-0.669337	9.620617	1.787690	-0.006325	0.013902	0.001627	79.341485	3.498483	109.837344
20404	-0.598943	9.601467	1.814061	-0.008036	-0.014006	0.000776	79.337429	3.496812	109.828811
20405	-0.620776	9.599908	1.804266	-0.005065	0.010503	0.002557	79.336160	3.497841	109.833797
20406	-0.633161	9.550264	1.895599	-0.018855	-0.013096	-0.002602	79.325916	3.498168	109.825418
20407	-0.666218	9.662459	1.722884	-0.012874	0.012150	0.003297	79.320725	3.497260	109.840375
20408	-0.625837	9.633832	1.871676	0.005792	-0.014176	0.008265	79.324643	3.491346	109.832555
20409	-0.589172	9.554078	1.806563	-0.007370	0.006046	0.001439	79.323952	3.491649	109.845538
20410	-0.677537	9.612828	1.814459	-0.013193	0.003673	-0.000170	79.317564	3.492377	109.846892
20411	-0.571401	9.578558	1.824425	-0.004343	-0.003574	-0.000331	79.318365	3.495487	109.860478
20412	-0.670856	9.576847	1.863330	-0.007683	0.011023	-0.002413	79.315385	3.498272	109.865723
20413	-0.642005	9.597397	1.799781	-0.002645	-0.002575	0.001297	79.316422	3.497679	109.868015
20414	-0.620085	9.598754	1.810631	-0.006254	0.006684	-0.002694	79.314119	3.500158	109.870787
20415	-0.616111	9.575274	1.805449	-0.003735	-0.000116	-0.000840	79.314138	3.501679	109.875436
20416	-0.634377	9.615023	1.838641	-0.008510	0.005367	-0.002256	79.310507	3.503772	109.877515
20417	-0.648129	9.566673	1.817675	-0.007808	0.001649	0.000738	79.308669	3.501731	109.881131
20418	-0.635729	9.561084	1.850186	-0.007808	0.001649	0.000738	79.305341	3.501729	109.881452
20419	-0.635722	9.560964	1.850810	-0.005551	0.002965	0.000300	79.306548	3.501741	109.897059
20420	-0.616344	9.574664	1.808605	-0.004292	-0.000435	0.001227	79.305184	3.501236	109.896266
20421	-0.625906	9.567684	1.830424	-0.005940	0.001707	0.001158	79.308409	3.503776	109.904754
20422	-0.635531	9.560739	1.852036	0.000000	0.000000	0.000000	79.308409	3.503776	109.904754
20423	-0.652065	9.589561	1.825990	-0.001817	0.003081	0.001140	79.306347	3.503560	109.905958
20424	-0.643817	9.607486	1.863407	0.001698	0.000998	0.001629	79.308485	3.502987	109.906012
20425	-0.642113	9.596504	1.804502	0.001310	-0.000261	0.002487	79.309948	3.503792	109.905799
20426	-0.647221	9.566240	1.820273	-0.003152	0.000244	0.004923	79.309302	3.501290	109.905773
20427	-0.619307	9.597969	1.815054	0.002788	-0.001463	0.003764	79.313110	3.499937	109.904640
20428	-0.613386	9.628250	1.799471	-0.004968	0.003326	0.006063	79.311544	3.497119	109.906476
20429	-0.640512	9.596523	1.804966	-0.000558	-0.000319	0.002067	79.310995	3.496549	109.905540
20430	-0.605800	9.592479	1.847362	-0.003151	0.000245	0.004923	79.310351	3.494044	109.905524
20431	-0.617755	9.597895	1.815972	-0.004849	-0.000753	0.003294	79.310787	3.493400	109.913534
20432	-0.644880	9.566165	1.821499	-0.001115	-0.000638	0.004134	79.311285	3.491247	109.912937
20433	-0.648737	9.589528	1.827348	-0.002813	-0.001635	0.002505	79.313268	3.491153	109.918060
20434	-0.626546	9.590917	1.838043	-0.002256	-0.001316	0.000438	79.313079	3.491011	109.916685
20435	-0.636049	9.583988	1.859609	-0.002593	0.000564	0.002856	79.312194	3.492813	109.913432
20436	-0.632906	9.626631	1.790916	0.000752	-0.000581	0.004553	79.313778	3.490442	109.912897
20437	-0.637745	9.596384	1.806687	-0.002449	-0.003475	0.007916	79.312640	3.486275	109.910140
20438	-0.646627	9.589518	1.828146	0.000027	0.000040	0.007829	79.313849	3.482124	109.910311
20439	-0.592237	9.599225	1.828069	-0.007662	-0.002387	0.005799	79.310841	3.482598	109.906051
20440	-0.639848	9.619739	1.813197	0.000416	0.001299	0.006972	79.312312	3.479077	109.906823
20441	-0.618614	9.567517	1.833774	-0.002981	-0.000695	0.003714	79.310972	3.477723	109.909930
20442	-0.622487	9.590867	1.839682	-0.002372	0.002763	0.003208	79.310869	3.476476	109.911132
20443	-0.630472	9.572953	1.802397	-0.000609	-0.003458	0.000506	79.309299	3.478395	109.904918
20444	-0.626207	9.614246	1.845492	0.000753	-0.000581	0.004553	79.310871	3.476042	109.904371
20445	-0.629868	9.572993	1.802396	-0.000557	-0.000319	0.002067	79.312550	3.476500	109.910138
20446	-0.633929	9.596391	1.807993	0.001867	0.000057	0.000420	79.314760	3.476545	109.909510
20447	-0.643619	9.589479	1.829414	-0.003734	-0.000114	-0.000840	79.312309	3.477783	109.911756
20448	-0.621450	9.590839	1.840179	-0.002981	-0.000695	0.003714	79.311732	3.475893	109.911060
20449	-0.611480	9.597681	1.819223	-0.004680	-0.001691	0.002085	79.307848	3.475166	109.906763
20450	-0.648480	9.559027	1.846237	-0.004512	-0.002631	0.000876	79.306300	3.474666	109.904681
20451	-0.642689	9.589246	1.830961	-0.003369	-0.001953	0.004572	79.301805	3.474528	109.899952
20452	-0.616086	9.567230	1.836121	-0.004627	0.001448	0.003646	79.300333	3.472909	109.900459
20453	-0.642004	9.589185	1.831519	0.001090	-0.002461	0.002135	79.300459	3.473067	109.904815
20454	-0.610053	9.597491	1.820705	-0.002592	0.000564	0.002856	79.300111	3.471802	109.904740
20455	-0.619541	9.590581	1.842163	-0.000168	0.000940	0.001209	79.300013	3.472365	109.906581
20456	-0.600037	9.604342	1.799738	-0.004680	-0.001691	0.002085	79.298383	3.471295	109.905156
20457	-0.637184	9.565713	1.826572	-0.001257	0.003401	-0.000925	79.299731	3.472886	109.912207
20458	-0.613929	9.620704	1.827339	-0.005769	0.000770	-0.000050	79.297553	3.473278	109.911948
20459	-0.641528	9.588952	1.832903	-0.001478	0.001202	-0.001277	79.298851	3.477520	109.910717
20460	-0.614120	9.620576	1.827947	-0.003955	-0.002312	-0.001191	79.297604	3.478237	109.908585
20461	-0.627883	9.572324	1.806635	-0.005601	-0.000169	-0.001259	79.292353	3.481243	109.900007
20462	-0.632123	9.595649	1.812556	0.000221	0.002199	0.000352	79.293650	3.481577	109.900578
20463	-0.632267	9.595614	1.812690	-0.003177	0.000206	-0.002906	79.292975	3.484715	109.903324
20464	-0.615964	9.566663	1.839113	-0.003566	-0.001053	-0.002049	79.291976	3.486057	109.901806
20465	-0.642420	9.588541	1.834742	-0.004823	0.002349	-0.002974	79.291897	3.487899	109.911053
20466	-0.646867	9.611861	1.840611	0.000557	0.000319	-0.002067	79.293315	3.489393	109.910319
20467	-0.652350	9.581548	1.856432	-0.004238	0.002706	0.002789	79.292896	3.489546	109.913636
20468	-0.628634	9.571935	1.808434	-0.002644	-0.002574	0.001295	79.292407	3.488841	109.911629
20469	-0.664239	9.586965	1.825274	-0.002980	-0.000695	0.003714	79.294219	3.489088	109.911697
20470	-0.641773	9.588355	1.835938	-0.001502	-0.001898	0.004991	79.294443	3.486380	109.910459
20471	-0.619239	9.589764	1.846517	-0.001281	0.000301	0.005343	79.294507	3.484886	109.909681
20472	-0.621382	9.602167	1.793657	-0.003537	-0.001014	0.005781	79.293600	3.481829	109.909026
20473	-0.626283	9.571873	1.809580	-0.001891	-0.003157	0.005848	79.291339	3.479113	109.911083
20474	-0.607767	9.596652	1.825885	-0.001837	-0.000018	0.007410	79.291442	3.475245	109.911170
20475	-0.638831	9.588377	1.836849	0.000365	-0.001842	0.005411	79.291648	3.475173	109.903870
20476	-0.628456	9.595327	1.815531	-0.000359	-0.001221	0.008687	79.292561	3.470467	109.903403
20477	-0.627821	9.595351	1.815625	-0.001334	-0.002837	0.003781	79.291589	3.469689	109.902653
20478	-0.636857	9.588471	1.837046	-0.000358	-0.001221	0.008687	79.292498	3.464986	109.902186
20479	-0.582307	9.598216	1.836542	0.001676	-0.002105	0.007897	79.295352	3.462495	109.903135
20480	-0.613199	9.589969	1.847468	-0.002224	-0.001277	0.008268	79.295192	3.458027	109.902588
20481	-0.634288	9.588614	1.837190	-0.000913	-0.001540	0.010754	79.294163	3.454530	109.896204
20482	-0.611181	9.590065	1.847635	0.000954	-0.001484	0.011174	79.295829	3.448411	109.895842
20483	-0.628129	9.565375	1.831476	0.000032	0.000038	0.007830	79.295740	3.445087	109.897161
20484	-0.649290	9.564007	1.821283	-0.004868	-0.003849	0.009563	79.293976	3.439623	109.895298
20485	-0.634598	9.612182	1.843201	0.002934	-0.005507	0.008822	79.295973	3.435960	109.888033
20486	-0.607465	9.590255	1.847876	-0.000744	-0.002479	0.009545	79.296617	3.430656	109.886938
20487	-0.605019	9.579357	1.789118	0.000901	-0.004622	0.009612	79.300087	3.427191	109.881243
20488	-0.627526	9.589005	1.837471	-0.000743	-0.002479	0.009545	79.300740	3.421892	109.880141
20489	-0.602925	9.579461	1.789269	-0.001687	-0.004056	0.012470	79.299457	3.416577	109.875239
20490	-0.637565	9.594666	1.805809	0.002825	-0.001429	0.011594	79.302199	3.410241	109.874944
20491	-0.619917	9.565839	1.831848	-0.001520	-0.004995	0.011260	79.303007	3.405186	109.875412
20492	-0.591521	9.597536	1.826575	0.002847	0.001671	0.005325	79.305828	3.402712	109.876195
20493	-0.612681	9.596244	1.816078	-0.001462	-0.001856	0.012823	79.307554	3.396093	109.883280
20494	-0.621222	9.589421	1.837438	0.001126	-0.002423	0.009965	79.309289	3.390571	109.882254
20495	-0.610568	9.596374	1.816104	-0.000741	-0.002477	0.009546	79.309850	3.386697	109.882632
20496	-0.609620	9.596456	1.815988	0.003383	-0.001110	0.009527	79.312920	3.381564	109.882299
20497	-0.604444	9.573211	1.809929	0.004696	-0.001374	0.012013	79.314555	3.375412	109.884335
20498	-0.607475	9.596715	1.815340	0.001128	-0.002422	0.009965	79.316284	3.369893	109.883316
20499	-0.606273	9.596801	1.815284	0.000243	-0.000860	0.014452	79.314185	3.362807	109.883546
20500	-0.604917	9.596888	1.815279	0.000185	-0.003998	0.012890	79.315328	3.355474	109.881953
20501	-0.609297	9.566684	1.831001	-0.001127	-0.003734	0.010404	79.314833	3.350421	109.879375
20502	-0.624704	9.595661	1.805017	-0.000679	0.000663	0.011108	79.315621	3.344587	109.880226
20503	-0.611187	9.590173	1.836882	-0.001457	-0.001853	0.012824	79.312090	3.339493	109.872877
20504	-0.596168	9.573699	1.810093	-0.003099	0.000292	0.012757	79.311475	3.332696	109.873690
20505	-0.604550	9.566912	1.831380	0.004147	-0.001692	0.014081	79.315039	3.326694	109.868397
20506	-0.619553	9.596031	1.804828	0.005851	-0.000699	0.015711	79.319538	3.318133	109.868961
20507	-0.605735	9.590630	1.836299	0.000249	-0.000858	0.014453	79.318803	3.312615	109.862407
20508	-0.622192	9.566048	1.820021	0.003596	-0.002009	0.016150	79.321963	3.303674	109.862271
20509	-0.584608	9.615639	1.851868	0.003719	0.004268	0.019274	79.323012	3.294856	109.861697
20510	-0.622923	9.589794	1.824983	0.003597	-0.002009	0.016150	79.326165	3.285917	109.861564
20511	-0.611514	9.596863	1.803146	0.007006	-0.000022	0.019408	79.331938	3.277213	109.856653
20512	-0.599889	9.603895	1.781548	-0.001406	-0.001806	0.020657	79.332261	3.265762	109.857107
20513	-0.589556	9.621902	1.818763	0.006231	-0.002536	0.021125	79.333306	3.255479	109.858885
20514	-0.557281	9.576592	1.817537	0.000302	-0.000811	0.022287	79.334636	3.243220	109.860075
20515	-0.591030	9.592013	1.833867	0.004982	0.000868	0.020200	79.337389	3.234514	109.855566
20516	-0.569956	9.605845	1.791039	-0.001773	0.000036	0.015246	79.337509	3.226315	109.856479
20517	-0.600063	9.597824	1.801879	0.003280	-0.000125	0.018571	79.338678	3.217410	109.860352
20518	-0.559900	9.570308	1.838073	0.003444	-0.001065	0.017362	79.341758	3.207904	109.860871
20519	-0.584326	9.592583	1.833033	0.002259	0.005478	0.017998	79.343446	3.200175	109.864691
20520	-0.573009	9.599601	1.811281	0.005931	0.002442	0.017275	79.348058	3.191093	109.867177
20521	-0.580962	9.592955	1.832156	0.003350	0.003016	0.020134	79.349258	3.181804	109.871274
20522	-0.610777	9.585035	1.842732	0.003190	0.003958	0.021344	79.352364	3.170594	109.875049
20523	-0.577049	9.593367	1.831237	0.008730	0.000972	0.021041	79.353096	3.160660	109.871280
20524	-0.555543	9.607248	1.788039	0.002185	-0.000751	0.022710	79.355466	3.148185	109.872548
20525	-0.611027	9.621516	1.793883	0.003962	0.003381	0.025901	79.358295	3.135692	109.876978
20526	-0.586231	9.623164	1.803095	0.020530	0.008858	0.033658	79.371532	3.118070	109.884823
20527	-0.505273	9.557105	1.815939	0.010064	-0.009604	0.025472	79.372487	3.104714	109.878314
20528	-0.594262	9.509708	1.842819	-0.006000	0.009996	0.022371	79.370469	3.093571	109.885610
20529	-0.491290	9.628657	1.843989	-0.011795	-0.006794	0.012097	79.361797	3.087647	109.887212
20530	-0.657888	9.636846	1.797358	0.023848	0.021053	0.019310	79.377187	3.079400	109.900426
20531	-0.497579	9.491746	1.877540	0.009177	-0.022527	0.013465	79.378811	3.072966	109.885357
20532	-0.553656	9.560889	1.762078	-0.015397	0.020018	0.010497	79.371616	3.069580	109.897043
20533	-0.611053	9.650861	1.875605	0.016152	-0.001970	0.021163	79.378769	3.060439	109.897320
20534	-0.481863	9.552710	1.844547	0.023041	-0.009360	0.012745	79.392713	3.052691	109.892668
20535	-0.657580	9.609305	1.696527	0.006099	0.019042	0.018457	79.393577	3.047542	109.902161
20536	-0.502179	9.563158	1.890566	0.012593	-0.020544	0.016729	79.401208	3.036381	109.891613
20537	-0.541737	9.603467	1.800376	-0.001751	0.020681	0.011361	79.398689	3.034539	109.903960
20538	-0.594155	9.594388	1.800632	0.006432	-0.021003	0.017540	79.402772	3.022879	109.893238
20539	-0.496756	9.552638	1.830084	0.014946	0.007613	0.007688	79.411328	3.021272	109.897050
20540	-0.628321	9.676405	1.751505	0.015239	0.009866	0.015873	79.421363	3.013804	109.903560
20541	-0.487891	9.517627	1.874305	0.022349	-0.015957	0.011700	79.431585	3.007296	109.892827
20542	-0.564274	9.639361	1.737086	-0.003994	0.012156	0.007467	79.430610	3.004805	109.899750
20543	-0.554912	9.657317	1.774304	0.007452	-0.005978	0.014231	79.435145	2.997662	109.892197
20544	-0.516959	9.576254	1.819591	0.020933	0.013153	0.018692	79.448540	2.988954	109.900866
20545	-0.555159	9.615510	1.840322	0.008940	-0.014410	0.011184	79.452819	2.983498	109.895857
20546	-0.551467	9.593420	1.722334	0.001622	0.012303	0.008725	79.455063	2.980318	109.902995
20547	-0.595211	9.667110	1.808039	0.014778	-0.004840	0.017122	79.462939	2.971794	109.905516
20548	-0.533826	9.576065	1.805342	0.008157	0.000619	0.015282	79.468616	2.963697	109.906758
20549	-0.507409	9.619856	1.746577	-0.001498	0.005351	0.009324	79.468176	2.961253	109.903442
20550	-0.562121	9.687993	1.741738	0.018063	0.001170	0.015314	79.479542	2.953200	109.904991
20551	-0.523814	9.540940	1.850714	0.002863	-0.001410	0.011605	79.478571	2.949138	109.906413
20552	-0.551198	9.575512	1.792939	-0.006572	0.002437	0.012272	79.475830	2.942937	109.908360
20553	-0.524296	9.683983	1.783042	0.007782	0.002448	0.009866	79.480138	2.940008	109.894247
20554	-0.584948	9.591377	1.808252	0.015659	0.003893	0.010687	79.490163	2.934856	109.896840
20555	-0.545502	9.563831	1.843839	0.004969	0.008066	0.016700	79.491170	2.928958	109.907332
20556	-0.512506	9.571954	1.832130	0.011908	-0.013742	0.007474	79.498510	2.923778	109.899643
20557	-0.524213	9.577664	1.799665	0.002499	0.010729	0.004234	79.498576	2.925129	109.902025
20558	-0.543897	9.630217	1.778538	0.008257	-0.000383	0.006239	79.504193	2.922047	109.901741
20559	-0.549573	9.666160	1.729946	0.013557	0.001647	0.009918	79.509184	2.919791	109.891703
20560	-0.550144	9.546917	1.802446	0.006229	0.000514	0.007028	79.513657	2.916364	109.892001
20561	-0.519652	9.631926	1.786740	-0.001649	-0.000929	0.006207	79.512920	2.914648	109.888694
20562	-0.566748	9.653086	1.771415	0.002866	-0.001406	0.011606	79.515434	2.908445	109.888389
20563	-0.541913	9.577302	1.786199	0.002015	-0.003977	0.005490	79.517463	2.906410	109.884867
20564	-0.535391	9.607549	1.770148	0.004202	0.001411	0.007817	79.520804	2.902637	109.885762
20565	-0.518504	9.578656	1.796037	0.002095	-0.000834	0.007048	79.521054	2.900889	109.884405
20566	-0.522035	9.602190	1.801256	0.005771	-0.000804	0.000052	79.525183	2.901264	109.883246
20567	-0.562257	9.576483	1.774415	0.002265	0.001301	-0.000440	79.525766	2.903988	109.871279
20568	-0.542072	9.654781	1.779806	0.007250	-0.002010	0.001333	79.530709	2.903520	109.869570
20569	-0.524418	9.614664	1.746936	-0.000157	0.000945	0.001209	79.529099	2.905454	109.859472
20570	-0.508047	9.585714	1.773003	0.002958	-0.002414	0.002561	79.531571	2.904257	109.857671
20571	-0.543775	9.601287	1.789509	-0.002801	0.001469	-0.003770	79.529497	2.908748	109.852087
20572	-0.556264	9.606793	1.757836	0.000236	0.002198	0.000348	79.530525	2.909281	109.852663
20573	-0.543933	9.601290	1.789442	0.003507	-0.002104	0.000492	79.532680	2.910695	109.844250
20574	-0.534057	9.608011	1.768042	-0.002421	-0.000356	0.001649	79.532117	2.910232	109.843527
20575	-0.533918	9.608050	1.767872	0.005852	0.002339	0.001609	79.534749	2.912153	109.827091
20576	-0.561728	9.576821	1.772759	0.003507	-0.002104	0.000492	79.537522	2.912165	109.825250
20577	-0.533603	9.608187	1.767219	0.000930	-0.001516	0.003350	79.537159	2.912924	109.823476
20578	-0.523454	9.615009	1.745326	0.010445	-0.002225	0.004243	79.543917	2.910817	109.821955
20579	-0.532787	9.608447	1.766055	0.002802	-0.001469	0.003770	79.544650	2.911158	109.808890
20580	-0.526582	9.638664	1.749998	0.003195	-0.000215	0.002910	79.547299	2.910015	109.808363
20581	-0.535927	9.632056	1.770984	0.004517	-0.000477	0.005399	79.548832	2.909756	109.799772
20582	-0.521783	9.615388	1.743739	0.002172	-0.004920	0.004283	79.550762	2.907355	109.796743
20583	-0.530876	9.608725	1.765114	-0.002197	-0.001235	0.008277	79.548060	2.905819	109.795466
20584	-0.498351	9.616631	1.754133	0.003652	-0.006127	0.005564	79.550803	2.902579	109.791892
20585	-0.535292	9.578681	1.780791	-0.002196	-0.001234	0.008277	79.548463	2.900899	109.794000
20586	-0.528781	9.608843	1.765103	0.000537	-0.002769	0.004211	79.549504	2.898777	109.792186
20587	-0.528416	9.608838	1.765241	-0.003051	-0.003807	0.002162	79.547422	2.899445	109.769295
20588	-0.518445	9.615490	1.744173	-0.002658	-0.002554	0.001301	79.546619	2.898988	109.767308
20589	-0.528111	9.608779	1.765650	0.000237	0.002198	0.000348	79.546121	2.902255	109.782791
20590	-0.531906	9.632158	1.771643	-0.008667	-0.003947	0.000902	79.541829	2.901886	109.779984
20591	-0.531680	9.632029	1.772413	-0.006950	-0.002955	0.002530	79.538894	2.901623	109.765701
20592	-0.531234	9.631924	1.773113	-0.007418	-0.000121	0.006157	79.535455	2.898691	109.765600
20593	-0.532673	9.578212	1.784098	-0.009289	-0.000167	0.005737	79.530119	2.897677	109.752705
20594	-0.526350	9.608258	1.769011	-0.004841	-0.000710	0.003299	79.528122	2.896297	109.751974
20595	-0.557994	9.666284	1.716691	0.003503	0.002047	0.011095	79.529182	2.893455	109.749197
20596	-0.520307	9.519072	1.826636	0.000364	-0.012134	0.007375	79.529858	2.888596	109.742450
20597	-0.492214	9.616168	1.758398	-0.008658	0.003286	0.005225	79.525286	2.888017	109.733203
20598	-0.565330	9.659627	1.738602	0.002793	-0.004548	0.010049	79.527582	2.882444	109.731012
20599	-0.519710	9.596218	1.822215	0.008957	-0.004102	0.009240	79.531975	2.879671	109.721126
20600	-0.578989	9.623097	1.774663	0.001872	0.004199	0.011023	79.533991	2.874466	109.723970
20601	-0.490219	9.562973	1.767522	0.004337	-0.012921	0.014844	79.537429	2.865917	109.699180
20602	-0.530946	9.614473	1.735916	0.008121	0.007788	0.011770	79.543132	2.860664	109.704123
20603	-0.577437	9.635751	1.720628	-0.007433	-0.006271	0.018719	79.538622	2.852426	109.688707
20604	-0.467318	9.588011	1.782351	0.019792	-0.008160	0.018900	79.550598	2.841503	109.685405
20605	-0.545624	9.601695	1.776886	0.004381	0.007698	0.010930	79.554076	2.837683	109.660008
20606	-0.528338	9.638650	1.739465	0.001384	-0.006347	0.022889	79.555576	2.824702	109.658143
20607	-0.500465	9.616471	1.744015	0.004460	0.007765	0.018768	79.557719	2.818046	109.640242
20608	-0.556153	9.631245	1.749510	0.007875	-0.000562	0.023985	79.563100	2.805054	109.641756
20609	-0.493610	9.604682	1.795978	0.003979	0.000295	0.024354	79.564981	2.795059	109.652690
20610	-0.519330	9.573645	1.800938	0.004374	0.001548	0.023493	79.568406	2.782571	109.655345
20611	-0.510938	9.604021	1.784505	0.009055	0.000123	0.027685	79.572924	2.770542	109.639336
20612	-0.494973	9.587430	1.757096	0.000633	0.001462	0.022654	79.574192	2.758524	109.641858
20613	-0.471154	9.588651	1.767300	0.003972	-0.003862	0.013752	79.575255	2.754159	109.620433
20614	-0.479932	9.582102	1.788362	0.002500	0.000421	0.006189	79.577477	2.751320	109.620660
20615	-0.486072	9.617718	1.741210	-0.011238	-0.000263	-0.002520	79.571285	2.755432	109.616290
20616	-0.527888	9.603251	1.773830	0.004686	0.001647	-0.002091	79.574749	2.757390	109.616353
20617	-0.509697	9.627784	1.789910	-0.006406	-0.002636	0.000462	79.570999	2.758937	109.585480
20618	-0.536401	9.585251	1.737038	-0.003658	0.003056	0.000717	79.569733	2.759461	109.586626
20619	-0.509237	9.627701	1.790485	0.001713	-0.002085	0.007911	79.571901	2.755398	109.549162
20620	-0.498828	9.634344	1.769380	-0.007017	0.001147	0.005298	79.568683	2.753141	109.549705
20621	-0.538576	9.608687	1.743271	0.000475	0.001322	0.006978	79.568289	2.754349	109.569253
20622	-0.503330	9.604236	1.785513	-0.001252	-0.002741	0.011631	79.568295	2.748132	109.568266
20623	-0.531816	9.650057	1.786738	-0.008654	0.000229	0.011508	79.563983	2.744159	109.539848
20624	-0.487455	9.587334	1.759722	-0.005302	-0.000937	0.013209	79.561724	2.737243	109.540052
20625	-0.515885	9.633166	1.760940	-0.004513	0.001568	0.011487	79.558914	2.735421	109.547887
20626	-0.510959	9.609697	1.755714	-0.003034	0.000359	0.012768	79.557984	2.728899	109.548784
20627	-0.499816	9.616366	1.734674	-0.003731	0.000999	0.016048	79.554738	2.723086	109.515981
20628	-0.531420	9.619881	1.804709	-0.003820	-0.002145	0.014491	79.553293	2.715339	109.515638
20629	-0.488206	9.634238	1.772912	-0.006541	-0.000602	0.018559	79.548466	2.709562	109.512535
20630	-0.504681	9.609772	1.757121	0.001831	0.005217	0.020075	79.550476	2.699443	109.516925
20631	-0.484430	9.634469	1.772694	0.006815	0.001894	0.021848	79.555034	2.691422	109.504875
20632	-0.519883	9.596791	1.799379	-0.006510	0.003562	0.029166	79.552263	2.676017	109.509293
20633	-0.479079	9.634654	1.773144	-0.003700	0.002089	0.032938	79.550916	2.661996	109.568537
20634	-0.543041	9.643025	1.800262	0.010594	0.003063	0.039579	79.557978	2.640682	109.573762
20635	-0.474044	9.581644	1.782206	0.005521	0.000174	0.042533	79.560452	2.620827	109.549659
20636	-0.485738	9.611008	1.755699	0.000788	0.002628	0.047392	79.561912	2.595073	109.555452
20637	-0.485017	9.634833	1.760598	0.013125	0.003484	0.045774	79.568736	2.575264	109.560666
20638	-0.479470	9.558160	1.764298	0.005639	0.003326	0.044095	79.572967	2.551453	109.566514
20639	-0.476577	9.635507	1.759208	0.003773	0.003288	0.043676	79.574425	2.529237	109.490236
20640	-0.450397	9.636827	1.768848	0.012066	0.005950	0.043636	79.582393	2.505956	109.497508
20641	-0.474516	9.606081	1.773586	0.000287	0.005415	0.043186	79.581945	2.486042	109.482003
20642	-0.438538	9.613833	1.762656	-0.000598	-0.000229	0.043353	79.582494	2.462287	109.485754
20643	-0.466288	9.606453	1.773759	-0.003343	0.008487	0.043905	79.579899	2.445334	109.507143
20644	-0.443888	9.631070	1.789760	0.002726	0.005761	0.041540	79.582479	2.423238	109.514092
20645	-0.412786	9.597482	1.735703	0.000856	0.002657	0.047406	79.582585	2.402951	109.514983
20646	-0.450219	9.583666	1.767589	0.006846	0.011183	0.044290	79.587655	2.379880	109.525283
20647	-0.443515	9.637475	1.757073	-0.001437	0.008538	0.044331	79.585783	2.359384	109.420564
20648	-0.428724	9.567183	1.740279	0.002503	0.003572	0.041198	79.588162	2.337273	109.426251
20649	-0.419917	9.608678	1.783175	-0.002213	0.009111	0.039771	79.586595	2.324297	109.446158
20650	-0.419978	9.632384	1.788461	0.007634	0.002354	0.035481	79.591854	2.305301	109.450576
20651	-0.421629	9.591355	1.744755	0.008002	0.007699	0.037388	79.596023	2.287595	109.417407
20652	-0.396595	9.592408	1.754883	-0.001982	0.003050	0.026742	79.595746	2.273599	109.421303
20653	-0.458461	9.654763	1.772077	0.001197	0.006913	0.032424	79.594756	2.263865	109.371735
20654	-0.402973	9.598372	1.722911	0.002424	0.003503	0.033360	79.597030	2.246203	109.376574
20655	-0.379147	9.610668	1.791760	0.003622	0.007251	0.030775	79.598302	2.238105	109.301379
20656	-0.432716	9.614816	1.738962	-0.001857	0.006202	0.028302	79.598154	2.223590	109.307229
20657	-0.427770	9.602685	1.792175	0.000021	0.006236	0.028724	79.598208	2.216019	109.236655
20658	-0.405349	9.615857	1.749537	-0.001993	0.007153	0.029513	79.598002	2.200937	109.243181
20659	-0.367003	9.599892	1.732656	0.010225	0.001743	0.032631	79.603747	2.195410	109.246442
20660	-0.412704	9.556162	1.780269	-0.001700	0.008323	0.020806	79.603694	2.185386	109.252743
20661	-0.401453	9.639827	1.754283	0.000740	0.001497	0.022677	79.601959	2.178020	109.058772
20662	-0.386043	9.623010	1.726861	0.009581	0.004424	0.020570	79.608275	2.167734	109.062845
20663	-0.394142	9.616633	1.747831	-0.001927	0.002033	0.017691	79.607284	2.168659	108.936353
20664	-0.392608	9.616686	1.747887	0.000630	0.001415	0.014832	79.608381	2.161318	108.938154
20665	-0.369298	9.617513	1.758444	-0.002839	-0.000547	0.011568	79.607689	2.164646	108.932949
20666	-0.386947	9.593199	1.742651	-0.001759	0.000052	0.007425	79.607359	2.161361	108.933228
20667	-0.367622	9.617448	1.759149	-0.008183	-0.002541	0.007883	79.601788	2.159702	108.785072
20668	-0.376924	9.610857	1.781040	-0.002954	-0.000630	0.003722	79.600740	2.158437	108.784581
20669	-0.366959	9.617359	1.759774	0.001057	0.004694	-0.001375	79.603168	2.178007	108.734755
20670	-0.392652	9.640038	1.755114	-0.005885	-0.002293	-0.001614	79.600386	2.179620	108.732805
20671	-0.389343	9.616419	1.750085	-0.005227	0.001153	-0.002127	79.597104	2.194682	108.573421
20672	-0.376217	9.599303	1.723773	-0.007360	-0.001076	-0.002898	79.593494	2.197173	108.572037
20673	-0.390049	9.616160	1.751349	-0.006281	-0.000477	-0.007041	79.591114	2.219448	108.508496
20674	-0.426104	9.632205	1.768534	-0.008555	-0.001757	-0.006601	79.586791	2.223998	108.506365
20675	-0.416693	9.638621	1.747661	-0.001195	-0.000681	-0.003704	79.589618	2.249791	108.551999
20676	-0.369482	9.616581	1.763492	-0.009094	-0.002057	-0.004529	79.584992	2.253200	108.549951
20677	-0.420462	9.584802	1.759126	-0.006679	-0.001725	-0.006179	79.583016	2.268058	108.498269
20678	-0.395902	9.639053	1.759788	-0.001594	-0.001929	-0.002842	79.582699	2.270556	108.496490
20679	-0.402648	9.608919	1.775985	-0.007077	-0.002974	-0.005317	79.580962	2.291367	108.458364
20680	-0.384627	9.633093	1.792590	-0.004663	-0.002642	-0.006967	79.578856	2.296157	108.455784
20681	-0.403831	9.608662	1.777109	-0.006537	-0.002674	-0.007389	79.575268	2.311010	108.278846
20682	-0.420043	9.637734	1.751746	-0.010966	-0.002089	-0.004950	79.569569	2.314743	108.276802
20683	-0.395049	9.614837	1.757480	-0.006794	-0.004870	-0.007738	79.567150	2.338042	108.204926
20684	-0.405499	9.608185	1.779307	-0.002928	-0.001660	-0.005335	79.566067	2.342080	108.203104
20685	-0.424612	9.583732	1.763954	-0.010941	-0.006183	-0.007719	79.564158	2.368760	108.312999
20686	-0.396635	9.614430	1.759351	-0.003467	-0.001961	-0.003264	79.562775	2.371655	108.311257
20687	-0.410327	9.631280	1.786811	-0.007216	-0.002025	-0.004106	79.558458	2.374073	108.214675
20688	-0.415694	9.589891	1.744494	-0.006279	-0.003543	-0.000752	79.555436	2.375386	108.212303
20689	-0.397284	9.614099	1.761012	-0.003467	-0.001961	-0.003264	79.555724	2.391175	108.227573
20690	-0.417167	9.600958	1.803892	-0.000257	-0.002197	-0.000349	79.556188	2.392432	108.226020
20691	-0.419234	9.613240	1.750937	-0.003351	-0.001883	0.004583	79.555501	2.403259	108.134063
20692	-0.403074	9.583990	1.777186	0.002413	-0.002735	0.004636	79.557506	2.401680	108.132744
20693	-0.386249	9.620638	1.739984	-0.000000	-0.003068	0.006286	79.560996	2.424421	108.026372
20694	-0.405460	9.607550	1.782737	-0.001078	-0.000602	0.004143	79.561055	2.423403	108.026248
20695	-0.385386	9.620661	1.740049	0.001078	-0.002466	0.002143	79.563743	2.433307	108.046189
20696	-0.423373	9.583312	1.766527	0.002812	-0.001486	0.003775	79.566011	2.432429	108.045542
20697	-0.398059	9.637708	1.766654	0.000680	-0.003715	0.003005	79.565866	2.439053	107.859922
20698	-0.412902	9.589915	1.745020	-0.000398	-0.001249	0.000861	79.566286	2.439858	107.859114
20699	-0.413833	9.601149	1.803641	0.002812	-0.001486	0.003775	79.569300	2.452981	107.713617
20700	-0.415787	9.613534	1.750145	0.004827	-0.002402	0.002986	79.572697	2.452501	107.712401
20701	-0.418701	9.637172	1.755157	0.007499	-0.002940	0.007971	79.584958	2.478450	107.864563
20702	-0.402283	9.608059	1.780712	0.006023	-0.001722	0.006689	79.589089	2.476028	107.864168
20703	-0.366410	9.591959	1.763877	0.001078	-0.002466	0.002144	79.592128	2.489166	107.841827
20704	-0.345125	9.592700	1.774416	-0.003188	0.002276	-0.018258	79.590971	2.501247	107.841124
20705	-0.426626	9.607181	1.770214	-0.000491	0.000712	-0.022329	79.592969	2.525783	107.834636
20706	-0.378131	9.638683	1.775643	-0.005831	-0.004347	-0.019726	79.590130	2.538032	107.830064
20707	-0.398591	9.614276	1.759749	0.003119	0.001727	-0.020276	79.592551	2.556818	107.771453
20708	-0.429497	9.660428	1.760360	-0.000204	-0.004249	-0.018462	79.592942	2.568378	107.767074
20709	-0.425001	9.624515	1.808197	-0.005597	-0.001124	-0.010319	79.590497	2.582423	107.668850
20710	-0.402602	9.614037	1.760140	0.000991	-0.006636	-0.008473	79.591558	2.588122	107.664171
20711	-0.428741	9.636701	1.755318	-0.001052	-0.001628	-0.004913	79.592042	2.604466	107.573533
20712	-0.437667	9.618899	1.718100	-0.002130	-0.002230	-0.000770	79.591464	2.606309	107.572153
20713	-0.428987	9.636688	1.755328	0.005509	-0.003047	-0.000297	79.597378	2.620878	107.593776
20714	-0.404380	9.691076	1.755460	-0.002528	-0.000411	-0.006195	79.596598	2.625998	107.592880
20715	-0.388578	9.650411	1.723869	-0.017267	0.004591	-0.015499	79.587531	2.646782	107.454819
20716	-0.359208	9.591607	1.777530	-0.009570	-0.001342	-0.026852	79.582593	2.663468	107.451271
20717	-0.363007	9.734183	1.711000	-0.017600	0.007433	-0.045319	79.573644	2.699865	107.314600
20718	-0.373970	9.769282	1.666522	-0.045723	0.014098	-0.055144	79.548263	2.734114	107.316832
20719	-0.415985	9.718271	1.751465	-0.061556	0.007172	-0.067401	79.511884	2.782184	107.104407
20720	-0.420571	9.770301	1.748293	-0.081210	0.015529	-0.078464	79.466090	2.829738	107.104969
20721	-0.426960	9.680075	1.703609	-0.119374	0.015437	-0.091430	79.397686	2.888919	107.013543
20722	-0.520544	9.726321	1.774810	-0.110650	0.004959	-0.093145	79.334638	2.943634	107.006493
20723	-0.329658	9.643519	1.826142	-0.132764	-0.034340	-0.115691	79.256782	3.008656	106.920329
20724	-0.311642	9.725237	1.824828	-0.148059	-0.001945	-0.153743	79.171721	3.096723	106.902734
20725	-0.326835	9.775450	1.830368	-0.165336	-0.012808	-0.210452	79.074708	3.214955	106.805707
20726	-0.314975	9.745225	1.771741	-0.179602	0.000730	-0.304453	78.970616	3.388023	106.772847
20727	-0.341877	9.560870	1.902458	-0.178209	0.010940	-0.423387	78.866159	3.625881	106.772387
20728	-0.519531	9.613589	1.904408	-0.142179	0.022521	-0.528901	78.782358	3.927409	106.726199
20729	-0.681328	9.901920	1.993065	-0.093937	0.025651	-0.599436	78.725327	4.266874	106.704218
20730	-0.170588	9.733560	1.844151	-0.116283	0.067139	-0.637656	78.656763	4.634406	106.670173
20731	-0.450382	9.629489	2.089104	-0.117604	0.154127	-0.686966	78.589963	5.023009	106.872745
20732	-0.420187	9.553458	1.952417	-0.104344	0.165763	-0.748510	78.531610	5.463890	106.880767
20733	-0.674278	10.092924	1.898566	-0.012346	0.236913	-0.742374	78.526995	5.889782	107.082129
20734	-1.268186	9.566774	2.388735	-0.169153	0.237570	-0.722593	78.436186	6.324295	107.133037
20735	-1.085258	9.269117	1.533561	-0.028368	0.218264	-0.725591	78.424236	6.735096	107.484101
20736	-0.996885	9.685496	1.728817	0.064936	0.151460	-0.740782	78.462115	7.169920	107.483965
20737	-1.781710	11.003964	2.544615	-0.088832	0.162993	-0.685208	78.412989	7.551145	107.757376
20738	-1.736415	9.521099	1.439461	-0.165778	0.162108	-0.625442	78.321212	7.922420	107.776093
20739	-1.515144	10.443854	1.819646	-0.138228	-0.015559	-0.582884	78.232861	8.233825	107.874940
20740	-1.330144	10.036060	1.998516	-0.273970	0.078726	-0.568608	78.073190	8.563457	107.851753
20741	-2.228212	9.298043	1.371274	-0.396784	0.071007	-0.564032	77.842503	8.885650	107.868180
20742	-2.368353	9.203293	1.213819	-0.182722	-0.108680	-0.534672	77.718491	9.173388	107.740684
20743	-1.949859	9.602866	2.002336	-0.133570	-0.201345	-0.519711	77.613632	9.439834	107.564057
20744	-1.916096	9.307869	1.887787	-0.222032	-0.148524	-0.518641	77.462229	9.713139	107.414530
20745	-2.259596	8.815470	1.154271	-0.097078	-0.216312	-0.529241	77.374724	9.982500	107.223920
20746	-2.178950	9.574980	1.729414	0.086758	-0.374310	-0.532030	77.375890	10.234594	106.943431
20747	-1.796185	9.880705	2.273965	-0.047163	-0.348785	-0.535925	77.301665	10.491147	106.676249
20748	-2.024961	9.833505	1.942556	-0.125862	-0.315764	-0.548786	77.184066	10.759372	106.425834
20749	-2.333088	9.734247	2.071688	-0.084366	-0.330169	-0.578594	77.086785	11.041241	106.162338
20750	-1.905795	9.985591	2.140636	-0.101293	-0.408601	-0.602651	76.968956	11.326674	105.850529
20751	-2.394276	9.529294	2.195144	-0.121378	-0.283125	-0.694791	76.849738	11.678567	105.596824
20752	-2.333144	9.855692	1.810593	0.024902	-0.385491	-0.761351	76.798559	12.054463	105.275215
20753	-1.988676	10.137405	2.440590	0.078016	-0.413139	-0.830094	76.770466	12.464438	104.927813
20754	-1.938803	10.143844	2.335861	-0.035552	-0.347780	-0.904199	76.680243	12.924410	104.606819
20755	-1.934067	10.138328	1.961908	0.015416	-0.364940	-0.959658	76.612632	13.412024	104.267047
20756	-1.926801	10.278760	2.271632	-0.016810	-0.398287	-1.025730	76.516413	13.932118	103.897821
20757	-2.426006	10.229410	2.331045	-0.130314	-0.315343	-1.108299	76.360356	14.507770	103.562483
20758	-2.808247	9.842965	1.930664	-0.078758	-0.354888	-1.187853	76.220935	15.122279	103.191032
20759	-2.734908	10.021980	2.020440	-0.007075	-0.419712	-1.263055	76.105438	15.768184	102.768725
20760	-2.889855	10.673401	2.249410	-0.007148	-0.435645	-1.326261	75.979065	16.446930	102.325531
20761	-2.210468	11.462769	2.397307	-0.091897	-0.512010	-1.335178	75.785272	17.117984	101.832988
20762	-3.326365	11.528672	3.696705	-0.398774	-0.296959	-1.388880	75.443198	17.848023	101.452618
20763	-4.642995	9.545231	2.953971	-0.905351	-0.096726	-1.582082	74.830789	18.710248	101.150548
20764	-5.445677	7.917997	1.394088	-0.525208	-0.057691	-1.738347	74.427474	19.663344	100.836944
20765	-5.086897	10.230620	2.431275	-0.159764	-0.352160	-1.755644	74.166055	20.578334	100.339965
20766	-4.300261	10.351078	3.484651	-0.456256	-0.088423	-1.792110	73.777229	21.552714	99.983620
20767	-5.108571	10.494313	2.460992	-0.622060	0.141427	-1.753902	73.338155	22.540996	99.760614
20768	-4.761540	9.760488	2.395192	-0.450002	0.060711	-1.723902	72.973390	23.497898	99.485437
20769	-4.330772	10.028000	2.807198	-0.601643	0.241566	-1.666487	72.562847	24.452715	99.320829
20770	-4.456997	9.790723	2.232522	-0.495464	0.372523	-1.458743	72.256690	25.315406	99.266273
20771	-4.135501	9.669281	2.502767	-0.238893	0.249170	-1.207551	72.084545	26.019543	99.182307
20772	-4.436246	9.685524	3.020018	-0.158389	0.245268	-0.952105	71.977182	26.583274	99.143269
20773	-4.464667	9.085292	2.890890	-0.074741	0.138800	-0.766529	71.904980	27.027017	99.075591
20774	-4.440535	8.753449	3.231608	-0.074313	0.038799	-0.683912	71.811003	27.407782	98.961715
20775	-4.418496	8.295997	3.186622	-0.133659	0.015915	-0.687467	71.675593	27.786079	98.832270
20776	-3.998430	8.263088	3.017547	-0.146736	-0.072337	-0.720677	71.501837	28.166239	98.639633
20777	-3.544400	8.603059	3.015631	-0.192852	-0.088424	-0.714598	71.296000	28.539295	98.436501
20778	-3.080983	8.506258	2.731199	-0.209979	-0.126399	-0.628351	71.075065	28.858185	98.225528
20779	-2.596994	8.502811	2.640167	-0.172531	-0.184510	-0.502505	70.869792	29.096413	98.003354
20780	-2.279247	8.289463	2.526058	-0.181170	-0.173178	-0.371995	70.674926	29.266445	97.815183
20781	-2.043218	8.089748	2.166696	-0.179763	-0.177797	-0.265682	70.490299	29.375674	97.645657
20782	-1.729662	8.007997	2.027660	-0.117086	-0.157665	-0.165048	70.357833	29.435960	97.511103
20783	-1.300981	8.078193	1.878767	-0.132662	-0.145704	-0.043185	70.233410	29.429553	97.409311
20784	-0.769666	8.081945	1.675528	-0.110883	-0.124315	0.107157	70.144296	29.349097	97.355792
20785	-0.284050	8.167821	1.620803	-0.055511	-0.119666	0.283363	70.107793	29.170166	97.342321
20786	0.292384	8.184740	1.479475	-0.063281	-0.078764	0.470838	70.099383	28.902578	97.398295
20787	0.641778	7.931771	1.247718	-0.048408	0.001300	0.644664	70.141184	28.550775	97.538405
20788	0.701123	7.739815	1.311178	0.010156	0.062580	0.798458	70.249247	28.133927	97.752349
20789	0.850112	7.483063	1.146969	0.069540	0.117872	0.944604	70.419191	27.640430	98.025280
20790	0.688198	7.111173	1.307190	0.149254	0.171873	1.047988	70.656818	27.108510	98.354631
20791	0.275903	7.009421	1.476867	0.254685	0.190315	1.110670	70.960333	26.535055	98.698248
20792	0.004006	7.027204	1.674700	0.353682	0.145308	1.159075	71.308087	25.934952	99.024993
20793	-0.257662	7.488290	1.942956	0.436781	0.058731	1.208739	71.678423	25.279224	99.297063
20794	-0.300798	8.300883	2.271078	0.476387	-0.012706	1.335290	72.059217	24.551268	99.551477
20795	-0.111554	8.648397	2.405514	0.472472	-0.155344	1.518047	72.409876	23.684821	99.741421
20796	-0.582103	8.460086	2.498026	0.491631	-0.257824	1.670870	72.754472	22.728531	99.899397
20797	-0.732431	8.101300	2.317521	0.516033	-0.386499	1.771248	73.084162	21.681081	99.983909
20798	-0.748598	8.131571	2.403725	0.577656	-0.520870	1.812662	73.420843	20.601910	99.997925
20799	-0.741281	8.339283	2.439129	0.609614	-0.581728	1.786297	73.757527	19.512695	99.956018
20800	-0.570506	8.937577	2.397890	0.598566	-0.623505	1.768456	74.079457	18.441468	99.889389
20801	-0.311616	9.303567	2.286657	0.566080	-0.602293	1.767176	74.383819	17.359086	99.819679
20802	0.102487	9.972670	1.937921	0.572676	-0.587620	1.828809	74.698788	16.260731	99.772010
20803	0.696820	10.176422	1.772810	0.569486	-0.525386	1.952016	75.023788	15.087237	99.763146
20804	1.141192	10.350526	1.274838	0.590345	-0.432375	2.096660	75.379928	13.863794	99.832222
20805	1.547111	10.086525	1.234113	0.625330	-0.329718	2.209685	75.767432	12.573981	99.957159
20806	1.480849	10.099172	1.151861	0.685120	-0.171250	2.287917	76.207447	11.279610	100.183827
20807	1.298927	10.295247	1.236737	0.753592	-0.057429	2.332034	76.689743	9.954988	100.457993
20808	1.240090	10.942566	1.540332	0.829379	0.045962	2.380640	77.220075	8.633359	100.795519
20809	1.293329	11.253145	1.753510	0.807835	0.142236	2.422998	77.733597	7.276780	101.167449
20810	1.282428	11.301496	1.843910	0.794442	0.248854	2.450133	78.239325	5.934583	101.601541
20811	1.182933	11.279448	2.065131	0.812708	0.298079	2.472376	78.743340	4.560685	102.040638
20812	0.976626	11.619846	2.358019	0.826699	0.341320	2.473156	79.248971	3.208226	102.503690
20813	0.650966	11.598908	2.779131	0.776306	0.366277	2.459337	79.710757	1.840669	102.954732
20814	0.102662	11.523263	3.021252	0.708564	0.353278	2.428739	80.126380	0.507168	103.397245
20815	-0.267804	11.342806	3.190471	0.659707	0.273142	2.377902	80.499394	-0.830062	103.767806
20816	-0.580838	11.453012	3.323911	0.626606	0.183586	2.326205	80.850733	-2.127105	104.087202
20817	-0.752118	11.680509	3.510166	0.578991	0.072676	2.265728	81.166484	-3.422928	104.318917
20818	-0.980738	12.005179	3.534255	0.511063	-0.010565	2.204220	81.446797	-4.671169	104.503801
20819	-0.914474	12.106764	3.389874	0.395108	-0.080630	2.139021	81.656478	-5.909540	104.626742
20820	-0.873427	12.106580	3.014611	0.320049	-0.103871	2.066794	81.827770	-7.088934	104.738148
20821	-0.928470	12.266098	2.854931	0.283825	-0.108998	2.013796	81.972621	-8.258311	104.828534
20822	-0.940423	12.155695	2.565212	0.186240	-0.089201	1.980442	82.063320	-9.388092	104.936247
20823	-0.864762	11.607475	2.200689	0.096369	-0.039779	1.928110	82.091790	-10.502378	105.057517
20824	-0.820011	10.815890	1.807253	0.035124	0.024826	1.840500	82.081493	-11.543903	105.219232
20825	-0.832380	10.169043	1.458648	0.048001	0.077261	1.720464	82.066927	-12.529676	105.393557
20826	-0.870655	9.834348	1.314011	0.123549	0.107287	1.590456	82.095376	-13.422805	105.584295
20827	-0.826621	9.962715	1.561391	0.213947	0.133260	1.466190	82.167595	-14.258548	105.772076
20828	-0.727177	10.008662	1.795126	0.180570	0.181750	1.354948	82.217204	-15.012579	105.987104
20829	-0.617516	9.856736	1.856892	0.148007	0.191927	1.261572	82.242128	-15.726404	106.193802
20830	-0.441190	9.588093	1.916868	0.122886	0.211209	1.166837	82.252744	-16.371585	106.411793
20831	-0.100336	9.461111	1.833691	0.094028	0.193928	1.073901	82.246020	-16.977327	106.606521
20832	0.133891	9.394228	1.905336	0.084604	0.180158	1.020542	82.238852	-17.541856	106.795629
20833	0.497590	9.173995	1.812396	0.009923	0.168769	0.980701	82.186772	-18.095268	106.970104
20834	0.898111	8.688324	1.561638	-0.051412	0.174248	0.933544	82.100919	-18.610587	107.150670
20835	1.192238	8.154687	1.378316	-0.100898	0.191964	0.882880	81.979688	-19.105154	107.334210
20836	1.204493	7.699478	1.109397	-0.066954	0.217655	0.828772	81.875300	-19.556910	107.535042
20837	1.096813	7.547818	1.133371	0.033971	0.206218	0.769222	81.828149	-19.984537	107.720525
20838	1.136477	7.826116	1.390147	0.089667	0.200988	0.690585	81.817666	-20.358949	107.901216
20839	0.932951	8.375463	1.771253	0.077937	0.232339	0.609100	81.792436	-20.692732	108.090250
20840	0.790352	8.395442	1.768397	-0.027794	0.265366	0.528748	81.703414	-20.969875	108.297049
20841	0.502295	8.172885	1.502740	-0.126008	0.294124	0.431555	81.551347	-21.196357	108.510027
20842	0.228882	7.537029	1.221723	-0.162687	0.315426	0.306641	81.379119	-21.342449	108.729062
20843	0.283315	7.298283	0.694250	-0.142019	0.271764	0.166023	81.230474	-21.418242	108.906049
20844	0.251942	7.413236	0.691621	-0.020380	0.264159	0.050010	81.159110	-21.422569	109.070680
20845	0.607643	7.721082	0.720104	0.089907	0.197580	-0.015435	81.166334	-21.400632	109.186168
20846	0.755848	8.375202	1.347958	0.162807	0.171104	-0.057102	81.224363	-21.352481	109.284074
20847	0.815181	8.753573	1.804602	0.118686	0.158172	-0.092479	81.259979	-21.289495	109.368852
20848	0.771562	9.005553	1.882585	0.049822	0.152402	-0.127340	81.259985	-21.203306	109.448799
20849	0.752529	9.050294	1.801591	-0.011772	0.127018	-0.155259	81.230377	-21.106492	109.509177
20850	0.786745	8.781802	1.539955	-0.070600	0.105805	-0.201363	81.174368	-20.982403	109.553699
20851	0.958499	8.424812	1.154016	-0.120216	0.076719	-0.267262	81.097977	-20.825511	109.573190
20852	1.119964	8.168612	0.799608	-0.089616	0.058533	-0.343402	81.046348	-20.625139	109.575201
20853	1.510235	7.798099	0.216612	-0.011951	-0.031528	-0.374847	81.059088	-20.416127	109.519160
20854	1.081847	8.036627	0.826810	0.097268	-0.079287	-0.402851	81.145329	-20.194319	109.432475
20855	1.166007	8.017393	0.539130	0.260755	-0.131292	-0.416697	81.335938	-19.969438	109.313648
20856	0.911260	8.586690	1.048573	0.356005	-0.220622	-0.436198	81.599130	-19.740237	109.140558
20857	0.662965	9.559356	1.447807	0.435710	-0.251402	-0.471723	81.914446	-19.492230	108.947550
20858	0.870680	9.883575	1.581318	0.304729	-0.302702	-0.492812	82.163829	-19.235804	108.723291
20859	0.974582	10.009615	1.553688	0.177202	-0.297828	-0.531475	82.339465	-18.954909	108.500907
20860	1.412981	9.671586	1.008520	0.110074	-0.321546	-0.553036	82.479659	-18.664341	108.263035
20861	1.342272	9.449496	0.754438	0.021724	-0.343083	-0.584481	82.573541	-18.354878	108.012009
20862	1.498444	8.936739	0.287441	0.059351	-0.398817	-0.598742	82.697166	-18.043124	107.726441
20863	1.590237	9.051747	0.073670	0.202503	-0.498821	-0.561278	82.919622	-17.756176	107.386989
20864	1.417730	9.374735	0.419755	0.214667	-0.554025	-0.529717	83.155055	-17.492558	107.017062
20865	1.391236	8.892592	0.280392	0.199453	-0.567142	-0.512217	83.383059	-17.234888	106.644119
20866	1.013328	8.576723	0.322159	0.238770	-0.595675	-0.526755	83.635351	-16.972754	106.252924
20867	0.841645	8.735028	0.437854	0.302467	-0.605537	-0.561898	83.925767	-16.685358	105.857750
20868	15.855545	24.259071	2.225594	3.228645	-2.230608	-0.531696	86.163489	-16.491389	104.501121
20869	11.858370	18.055528	9.033511	-5.771548	1.883178	-1.038032	82.564475	-15.790000	105.558913
20870	0.732785	-1.059367	-11.946764	-2.996306	1.999730	-1.294722	80.567228	-14.887328	106.620559
20871	-0.693306	9.073528	-1.023168	0.640028	-1.390633	-1.566206	81.175997	-14.125428	105.661146
20872	7.300450	12.105106	8.556480	-0.552964	-0.276484	-1.598725	80.932561	-13.244375	105.352779
20873	0.609358	12.326754	1.186608	-3.042063	2.150454	-1.475480	78.950262	-12.194958	106.445010
20874	0.113577	5.509104	-3.516093	-1.145896	0.217849	-1.317979	78.299851	-11.429234	106.417124
20875	2.783660	9.316363	4.443474	0.009271	-0.005067	-1.283905	78.336648	-10.706749	106.262988
20876	3.107715	8.720521	3.050208	-1.143140	1.228547	-1.318697	77.586111	-9.820201	106.801705
20877	0.157095	7.975067	0.145151	-0.490945	0.955529	-1.265475	77.243881	-8.991260	107.183286
20878	1.645270	8.626941	3.075779	0.213160	0.468592	-1.290071	77.351537	-8.210373	107.283051
20879	1.682416	8.937172	3.662045	-0.224309	0.994944	-1.375093	77.172369	-7.314018	107.669145
20880	-0.448078	8.522100	2.104448	-0.051256	0.891959	-1.345744	77.104120	-6.447761	107.997362
20881	-0.781592	9.630747	4.447472	0.417252	0.428247	-1.276786	77.336361	-5.677796	108.075575
20882	0.076659	9.579354	5.106847	0.145051	0.506952	-1.284330	77.408641	-4.895438	108.197927
20883	-0.992327	9.412514	3.805277	0.335345	0.449648	-1.365846	77.595540	-4.073172	108.280727
20884	-0.514611	11.768851	3.762030	0.588485	0.195580	-1.445824	77.937433	-3.239044	108.213844
20885	0.334294	14.461810	2.194466	0.571971	0.387929	-1.396374	78.263730	-2.407449	108.267027
20886	-0.532267	16.310640	1.604012	0.111900	0.533105	-1.078292	78.322026	-1.739697	108.440154
20887	-0.942282	12.032183	1.040299	-0.557258	0.337275	-0.746327	78.001475	-1.278231	108.542529
20888	-0.407957	9.743746	2.218770	-0.047745	0.050228	-0.545519	77.975303	-0.965716	108.504905
20889	-0.358002	10.000507	3.281322	-0.018637	0.121227	-0.449617	77.966001	-0.695584	108.520373
20890	-0.391113	9.859205	2.286000	-0.028552	0.124222	-0.352035	77.949815	-0.482658	108.547185
20891	-0.103486	9.376497	1.643022	-0.010030	0.000852	-0.313932	77.945862	-0.302868	108.511359
20892	-0.054143	9.171090	2.536826	0.213065	-0.020437	-0.311938	78.068576	-0.129655	108.462055
20893	-0.124377	9.670996	2.741557	0.139650	0.023950	-0.304495	78.150124	0.047680	108.440795
20894	-0.175412	9.855625	1.933463	0.059894	0.046362	-0.278142	78.184876	0.209930	108.433410
20895	-0.266847	9.458723	1.769497	0.073764	-0.019632	-0.250802	78.228422	0.352074	108.394276
20896	-0.154155	9.730272	2.046504	0.216128	-0.040312	-0.219155	78.352358	0.471173	108.345473
20897	-0.150529	9.719617	2.093940	0.112301	-0.014721	-0.206723	78.417892	0.589307	108.314642
20898	-0.198042	9.765145	1.803830	0.076265	-0.006074	-0.195810	78.461745	0.699364	108.288053
20899	-0.266008	9.816476	1.676003	0.068982	0.007852	-0.160890	78.502571	0.794404	108.275339
20900	-0.247408	9.729946	1.827358	0.049153	-0.040852	-0.144260	78.530608	0.871590	108.235251
20901	-0.086095	9.653314	1.911268	0.017411	-0.027689	-0.149598	78.541574	0.956295	108.203988
20902	-0.238899	9.699655	1.860712	-0.024315	0.017668	-0.156032	78.527952	1.046773	108.195450
20903	-0.380851	9.661387	1.847115	-0.027261	-0.020762	-0.145327	78.513298	1.129835	108.168530
20904	-0.308906	9.694736	1.955167	0.007177	-0.067238	-0.123982	78.516805	1.192633	108.115938
20905	-0.243169	9.613646	1.913213	-0.080590	-0.042383	-0.115674	78.471348	1.256593	108.080252
20906	-0.267164	9.384265	2.007106	-0.015120	-0.041862	-0.118760	78.462298	1.319327	108.042456
20907	-0.336501	9.745579	1.954989	0.010066	-0.047376	-0.112771	78.468626	1.381047	108.004254
20908	-0.344406	9.647874	1.840989	-0.025030	-0.045600	-0.094700	78.453838	1.429847	107.967113
20909	-0.341589	9.654339	1.820293	0.018104	-0.064757	-0.074355	78.464572	1.468019	107.923562
20910	-0.370291	9.751323	1.923647	0.008453	-0.036622	-0.054664	78.469170	1.495380	107.896058
20911	-0.373577	9.663957	1.867952	-0.009853	-0.055143	-0.039038	78.464097	1.514850	107.861972
20912	-0.323071	9.604053	1.929868	0.006139	-0.064735	-0.030132	78.467008	1.525223	107.821494
20913	-0.343564	9.667815	1.967711	0.031371	-0.046749	-0.016388	78.485737	1.532951	107.794725
20914	-0.433981	9.680679	1.870412	0.033183	-0.059218	0.001231	78.504317	1.526371	107.760940
20915	-0.317049	9.649223	1.854326	0.031850	-0.070438	0.025026	78.523103	1.508180	107.725609
20916	-0.279342	9.566780	1.895121	0.060781	-0.053376	0.030495	78.557689	1.485864	107.698437
20917	-0.338188	9.708246	1.904576	0.069639	-0.038300	0.036808	78.598651	1.464735	107.682470
20918	-0.379670	9.722245	1.825431	0.048736	-0.048056	0.053137	78.626500	1.430342	107.660825
20919	-0.299864	9.667106	1.780408	0.058404	-0.060161	0.062503	78.660821	1.392349	107.635460
20920	-0.252708	9.625250	1.864699	0.038252	-0.045859	0.066749	78.682759	1.350583	107.616551
20921	-0.240135	9.589149	1.909577	0.006293	-0.044141	0.062175	78.687470	1.314587	107.600121
20922	-0.290533	9.606108	1.913782	0.048806	-0.034882	0.062784	78.715611	1.276296	107.586918
20923	-0.178511	9.477463	1.973724	0.039799	-0.063128	0.039026	78.739240	1.251176	107.557182
20924	-0.182182	9.604827	1.868746	-0.001217	-0.031496	0.017671	78.738664	1.238627	107.540812
20925	-0.194848	9.456871	1.844938	-0.019015	-0.040093	-0.005276	78.728760	1.240937	107.519027
20926	-0.219621	9.644229	1.895084	-0.026069	-0.022374	-0.022209	78.713961	1.251818	107.503321
20927	-0.339039	9.622594	1.921075	-0.034229	-0.012686	-0.013729	78.695639	1.261910	107.495971
20928	-0.288076	9.652360	1.930520	-0.052916	-0.051773	-0.002074	78.665142	1.258165	107.466005
20929	-0.189088	9.561273	1.841143	-0.061930	-0.023059	-0.002273	78.630845	1.260646	107.454114
20930	-0.304426	9.525916	1.922350	-0.046226	-0.013314	-0.004168	78.604653	1.262398	107.445525
20931	-0.193316	9.603151	1.974820	-0.047959	-0.042723	-0.017589	78.578071	1.271221	107.420841
20932	-0.300687	9.410187	1.981056	-0.038382	-0.004852	-0.006837	78.556471	1.275431	107.416704
20933	-0.308551	9.634086	1.996515	-0.033878	-0.040140	-0.008581	78.537991	1.279442	107.394472
20934	-0.160300	9.497199	1.912539	-0.028907	-0.034202	-0.017815	78.521423	1.286473	107.372600
20935	-0.228246	9.572955	1.882534	-0.046766	-0.011186	-0.035199	78.495836	1.308691	107.363570
20936	-0.298629	9.591417	1.974509	-0.048927	-0.032755	-0.040946	78.467744	1.328861	107.339860
20937	-0.194829	9.517430	1.922492	-0.072574	-0.015060	-0.053636	78.427253	1.360957	107.326509
20938	-0.301637	9.541821	1.974060	-0.050376	0.000352	-0.054425	78.398716	1.392477	107.319814
20939	-0.315484	9.610989	1.997185	-0.047341	-0.020553	-0.047813	78.372596	1.420630	107.304004
20940	-0.269310	9.486481	2.012136	-0.035958	-0.009245	-0.038147	78.352228	1.441905	107.293778
20941	-0.310042	9.592838	1.976260	-0.015761	-0.004144	-0.037488	78.344439	1.466134	107.288344
20942	-0.303593	9.599285	1.956566	-0.017694	-0.010399	-0.033224	78.334527	1.484513	107.278035
20943	-0.307825	9.454488	2.022533	-0.009741	-0.014104	-0.036487	78.330034	1.507015	107.267116
20944	-0.298222	9.524874	2.051287	0.008831	-0.010876	-0.038682	78.335289	1.528403	107.255907
20945	-0.323342	9.591902	1.978673	0.005908	-0.023696	-0.043382	78.339570	1.553643	107.238788
20946	-0.276030	9.525877	1.867922	0.012006	-0.027405	-0.047052	78.346356	1.577821	107.217339
20947	-0.340281	9.652501	1.935672	0.025540	-0.011702	-0.044101	78.362050	1.604844	107.206870
20948	-0.318640	9.619518	1.879802	-0.005889	-0.027204	-0.045324	78.358576	1.628087	107.185743
20949	-0.268685	9.549765	1.881627	0.006552	-0.004945	-0.041676	78.363499	1.654528	107.179352
20950	-0.299078	9.515525	1.997822	0.007300	-0.018677	-0.054634	78.367671	1.683986	107.161941
20951	-0.298130	9.555475	2.042189	-0.018445	-0.006361	-0.061792	78.358161	1.721526	107.152414
20952	-0.272040	9.532670	1.854867	0.002048	-0.009009	-0.076700	78.359391	1.764487	107.137876
20953	-0.327926	9.574761	1.959479	-0.017719	-0.003528	-0.089116	78.350220	1.817656	107.126754
20954	-0.383920	9.606723	2.005709	-0.009586	-0.021569	-0.085486	78.344500	1.864094	107.104142
20955	-0.302091	9.655383	1.867145	-0.003673	0.003155	-0.077311	78.343516	1.911395	107.098121
20956	-0.439586	9.629245	1.800112	0.004691	0.008857	-0.075801	78.346556	1.955924	107.093713
20957	-0.393474	9.656331	1.917951	-0.024075	-0.018574	-0.079269	78.333450	2.001808	107.075269
20958	-0.311651	9.580071	1.964311	-0.039042	0.023128	-0.070917	78.311730	2.045254	107.079425
20959	-0.454877	9.522824	1.914762	-0.010224	0.010616	-0.068731	78.307159	2.088582	107.078559
20960	-0.313425	9.495059	2.002589	-0.026935	0.011730	-0.088916	78.292069	2.140808	107.074209
20961	-0.389513	9.502534	2.033755	-0.029669	0.037955	-0.093525	78.276818	2.201208	107.085778
20962	-0.465800	9.510132	2.063600	-0.000100	0.017680	-0.091190	78.277215	2.255403	107.084485
20963	-0.367691	9.603212	2.058164	0.013162	0.004741	-0.098013	78.285746	2.314438	107.076866
20964	-0.453382	9.631874	1.810909	-0.026799	0.030531	-0.110722	78.271047	2.381091	107.080517
20965	-0.394411	9.542117	1.898206	-0.001783	-0.000347	-0.120963	78.270757	2.452389	107.067347
20966	-0.399214	9.645122	1.993589	-0.028337	0.011554	-0.141716	78.254566	2.534222	107.056711
20967	-0.434101	9.489060	1.991213	-0.022705	0.009832	-0.158612	78.242296	2.627789	107.044813
20968	-0.389807	9.459738	2.037430	0.009019	0.003534	-0.181704	78.247045	2.731117	107.024976
20969	-0.507237	9.724781	1.940414	0.024627	0.037283	-0.193499	78.262379	2.847415	107.024401
20970	-0.685281	9.543481	1.948329	-0.020971	0.023429	-0.189757	78.250388	2.957587	107.014818
20971	-0.460168	9.420666	2.069121	0.080271	-0.044066	-0.197889	78.295175	3.066890	106.968082
20972	-0.458161	10.060061	1.787967	-0.012199	0.030913	-0.230302	78.288148	3.200690	106.958052
20973	-0.621794	9.856134	1.407762	-0.026518	0.013600	-0.253808	78.272998	3.348038	106.937182
20974	-0.593205	9.879237	1.638155	-0.005324	-0.015106	-0.285864	78.267923	3.507647	106.894756
20975	-0.383084	10.285298	1.604318	-0.012463	0.028294	-0.294420	78.260964	3.679516	106.877403
20976	-0.168081	9.644420	1.666740	-0.075430	0.095078	-0.308172	78.219365	3.864486	106.894208
20977	-0.278763	9.474237	1.963413	0.135412	0.231227	-0.360938	78.304386	4.097211	106.983132
20978	-0.937744	9.760410	2.197383	0.072112	0.323025	-0.438192	78.355847	4.381532	107.113386
20979	-0.970438	9.947086	2.065848	0.072945	0.125788	-0.507608	78.399904	4.684151	107.126456
20980	-0.276392	9.625531	2.056879	0.081412	0.110373	-0.600956	78.446410	5.035172	107.118713
20981	-0.528123	9.715799	2.248804	0.124022	0.280583	-0.729771	78.525558	5.480104	107.194066
20982	-0.876266	10.011057	2.168273	0.086731	0.308985	-0.872718	78.583184	6.006338	107.268163
20983	-0.733702	10.268532	1.940873	0.032264	0.308558	-1.002697	78.609480	6.607448	107.329124
20984	-0.865758	10.373058	1.887686	-0.027074	0.397506	-1.147485	78.605807	7.297963	107.422651
20985	-1.038730	10.747751	2.159124	-0.134048	0.401574	-1.275668	78.541062	8.062808	107.504916
20986	-1.163658	10.927790	2.237748	-0.311201	0.445700	-1.379068	78.376917	8.889093	107.597484
20987	-1.583841	11.560749	1.987175	-0.386674	0.445518	-1.467001	78.169467	9.766625	107.678347
20988	-1.990308	13.056961	2.543937	-0.452004	0.338656	-1.521782	77.912550	10.660843	107.687071
20989	-1.733437	12.131349	2.491445	-0.831800	0.282101	-1.563031	77.430492	11.572800	107.653773
20990	-1.513178	13.146284	2.425323	-0.740250	0.244111	-1.603627	76.992464	12.500790	107.584689
20991	-1.237175	12.902262	3.693344	-1.217538	0.226300	-1.672535	76.273847	13.465320	107.487234
20992	-3.112600	9.704527	1.554510	-1.495731	0.654782	-1.766666	75.446259	14.539518	107.606696
20993	-4.730275	8.170676	-0.680639	-0.866940	0.320268	-1.901117	74.923171	15.641507	107.502257
20994	-2.443733	11.989980	2.679836	0.247631	-0.372064	-1.947091	74.921727	16.664251	106.985198
20995	-1.025819	10.403248	5.432965	-0.773442	0.134687	-2.121067	74.402929	17.859076	106.727214
20996	-3.642750	8.948135	1.403660	-0.901819	0.676969	-2.263373	73.892847	19.213508	106.746474
20997	-2.964318	9.136954	1.417386	-0.005845	-0.123398	-2.306520	73.732995	20.464981	106.283007
20998	-2.005710	10.093337	4.881750	-0.059139	0.207117	-2.428088	73.592042	21.834366	105.984834
20999	-2.860459	9.068718	2.354451	-0.528663	0.530326	-2.543688	73.237957	23.319474	105.849697
21000	-3.530943	10.623532	1.300364	0.103456	0.229818	-2.559880	73.164605	24.762627	105.522874
21001	-3.397460	11.084985	4.214064	-0.221835	0.268589	-2.632878	72.898355	26.251736	105.198058
21002	-3.680741	9.784765	2.875963	-0.596166	0.543584	-2.698275	72.473880	27.821346	105.014602
21003	-4.453467	8.608989	0.992610	-0.277353	0.458850	-2.799322	72.186409	29.430110	104.744759
21004	-4.313406	8.838417	2.194028	0.110148	0.205136	-2.887196	72.018529	31.041396	104.285041
21005	-4.167747	9.959232	2.617877	0.041901	0.329834	-2.972138	71.826083	32.719565	103.873744
21006	-4.429574	9.344526	2.716212	-0.096511	0.339535	-3.033686	71.530739	34.431751	103.438802
21007	-4.506021	8.862052	2.751119	-0.148549	0.388936	-3.114589	71.191482	36.194025	102.997641
21008	-4.946352	7.865891	2.272262	-0.211540	0.428960	-3.236413	70.789070	38.028245	102.530784
21009	-5.289287	6.348209	1.505349	-0.128346	0.378232	-3.397725	70.357061	39.935948	101.959411
21010	-6.901502	7.986584	1.488834	0.002885	0.405320	-3.468220	69.963473	41.884926	101.355169
21011	-6.893598	8.653756	2.484615	0.185755	0.117351	-3.470906	69.489824	43.773518	100.500415
21012	-7.085921	5.905422	2.767611	-0.242796	0.363534	-3.600551	68.815152	45.776512	99.739429
21013	-7.519287	6.167646	0.643043	0.521093	0.292697	-3.648356	68.469958	47.784116	98.854582
21014	-9.005174	6.883567	1.993128	0.341299	0.195045	-3.657054	67.894684	49.771881	97.829214
21015	-7.272238	6.902199	1.424723	0.412972	0.195609	-3.556370	67.308543	51.698581	96.765296
21016	-7.540738	6.320161	1.310489	0.524550	0.334166	-3.385617	66.850304	53.560758	95.809966
21017	-7.618200	9.561253	1.591583	0.902349	0.139962	-2.964522	66.533194	55.152333	94.782210
21018	-5.997039	9.549190	2.685851	0.325324	0.156320	-2.419420	66.018811	56.458366	93.934389
21019	-6.384563	8.354100	2.382354	0.238729	0.534286	-1.888756	65.907602	57.569947	93.636618
21020	-7.874040	8.332215	2.439131	-0.018083	0.335804	-1.426767	65.640672	58.395261	93.333415
21021	-8.070388	7.261927	3.173953	-0.273734	0.406069	-1.185983	65.368747	59.107487	93.196042
21022	-9.417796	5.748826	2.481250	-0.879927	0.707064	-1.154401	65.016901	59.878713	93.372233
21023	-9.981768	2.900903	1.380394	-0.814406	0.676993	-1.274007	64.621289	60.701197	93.450988
21024	-9.390601	2.669295	1.337600	-0.440103	0.450543	-1.368075	64.176259	61.520482	93.230125
21025	-8.252620	2.785110	1.401618	-0.295573	0.356519	-1.362947	63.708191	62.309370	92.889007
21026	-8.763446	2.505115	1.318968	-0.086788	0.288832	-1.272990	63.314485	63.036816	92.501246
21027	-8.595436	2.752330	1.535460	0.252378	-0.026385	-1.134194	62.847102	63.607533	91.814115
21028	-8.004353	4.340587	2.524159	0.419358	-0.201798	-1.012387	62.333646	64.070067	90.973792
21029	-7.586121	4.301059	2.625714	0.130588	-0.177805	-0.914951	61.711696	64.483407	90.198157
21030	-8.353655	3.931699	2.470863	0.141453	-0.193580	-0.864391	61.084698	64.865931	89.414269
21031	-7.482057	3.965952	2.610060	0.020496	-0.342334	-0.818731	60.236481	65.176615	88.463166
21032	-6.608751	3.769962	2.510291	-0.162493	-0.218233	-0.756129	59.432578	65.489114	87.680430
21033	-6.608049	2.810793	1.858611	-0.276998	-0.155067	-0.664888	58.673750	65.767586	87.018933
21034	-6.633974	2.349132	1.750174	-0.181067	-0.166039	-0.585437	57.994248	66.003874	86.387569
21035	-6.415323	1.763020	1.582498	-0.167585	-0.126350	-0.519573	57.401531	66.214227	85.841639
21036	-6.331561	1.966939	1.515965	0.002282	-0.108630	-0.450533	56.963295	66.398146	85.361080
21037	-6.150943	2.143438	1.838200	0.057573	-0.070380	-0.367441	56.654658	66.549834	84.985904
21038	-6.557634	2.291538	1.937768	0.115559	0.002697	-0.278025	56.519375	66.684350	84.765828
21039	-6.584881	2.547113	2.287924	0.174702	-0.019122	-0.176036	56.469404	66.759982	84.599888
21040	-6.300091	3.082582	2.778496	0.096487	0.038908	-0.085036	56.503674	66.813603	84.576473
21041	-6.504486	2.809174	2.651567	-0.040504	0.121672	0.001924	56.618296	66.848395	84.723667
21042	-6.616503	2.685830	2.441403	-0.041296	0.091449	0.096317	56.766212	66.831736	84.909735
21043	-6.413863	2.842276	2.375703	-0.002009	0.053706	0.202958	56.973668	66.748219	85.133866
21044	-6.403960	3.321148	2.256188	0.055872	0.015043	0.361913	57.281737	66.579427	85.433969
21045	-6.752376	3.336999	2.365502	0.083524	-0.032285	0.543374	57.677828	66.303700	85.810858
21046	-7.308076	3.295211	2.623610	0.064063	-0.053680	0.667726	58.113675	65.963972	86.246770
21047	-7.767520	2.794621	2.627114	-0.118509	-0.063075	0.587328	58.371603	65.655252	86.600815
21048	-7.915560	2.660118	2.486614	-0.081595	-0.017452	0.462077	58.608832	65.425010	86.912243
21049	-8.029919	2.655043	2.350937	-0.166831	0.013756	0.373115	58.769556	65.242904	87.191184
21050	-8.142549	3.557212	2.465317	-0.078789	0.013857	0.355705	58.965265	65.073256	87.456046
21051	-7.613991	4.375096	2.688850	-0.068329	-0.020433	0.399393	59.156139	64.867393	87.706833
21052	-6.967851	5.126792	2.802416	-0.176055	-0.056317	0.473629	59.289443	64.618428	87.965213
21053	-6.303276	5.426869	2.648211	-0.271763	-0.097406	0.607302	59.403861	64.286446	88.261212
21054	-6.143520	5.553407	2.244525	-0.359078	-0.132123	0.787902	59.534385	63.859836	88.634552
21055	-6.128702	5.470349	1.899882	-0.332474	-0.207480	1.004944	59.722689	63.297869	89.053662
21056	-5.848426	5.474484	1.814762	-0.265908	-0.275577	1.255354	60.008773	62.597230	89.545403
21057	-5.589120	5.506293	1.772789	-0.194058	-0.297214	1.501154	60.426279	61.760290	90.138948
21058	-5.722820	5.314204	1.807485	-0.206691	-0.333203	1.735770	60.892400	60.800475	90.804911
21059	-5.604051	5.238829	2.008659	-0.145118	-0.354410	1.919908	61.425885	59.732372	91.510478
21060	-5.677213	5.078878	1.951071	-0.155032	-0.331518	2.046342	61.987055	58.610623	92.266826
21061	-5.698520	5.017128	1.869238	-0.145988	-0.339489	2.114842	62.529942	57.440517	93.000674
21062	-5.511571	5.006072	1.948552	-0.048991	-0.356218	2.165012	63.090764	56.244553	93.703488
21063	-5.636946	4.916742	1.954849	-0.055495	-0.376474	2.182251	63.595907	55.022818	94.349173
21064	-5.688678	4.994382	1.965067	0.056503	-0.422387	2.183552	64.094597	53.793855	94.921992
21065	-6.130631	5.380194	2.218479	0.121800	-0.487138	2.157322	64.542207	52.551173	95.389234
21066	-6.480051	5.528211	2.436508	0.157852	-0.564793	2.117474	64.919678	51.316607	95.753177
21067	-6.591348	5.723367	2.519678	0.213411	-0.673434	2.081498	65.226832	50.064520	95.987395
21068	-6.600631	6.019329	2.627408	0.259285	-0.780938	2.078783	65.480017	48.796086	96.124491
21069	-6.348216	6.371027	2.584992	0.349087	-0.889941	2.106126	65.716568	47.478426	96.168870
21070	-5.817286	6.987166	2.581864	0.450044	-0.998224	2.209292	65.969925	46.090089	96.162037
21071	-5.200250	7.466924	2.597467	0.543847	-1.066305	2.376203	66.272409	44.589485	96.144467
21072	-4.658295	7.776426	2.619597	0.609321	-1.084328	2.531129	66.630663	43.012512	96.156967
21073	-4.755749	8.084275	3.128598	0.555400	-1.051061	2.641611	66.985967	41.375165	96.207238
21074	-4.914173	7.820606	3.007685	0.438121	-0.987060	2.687214	67.302547	39.737421	96.307319
21075	-5.080536	7.455245	2.851140	0.393375	-0.921767	2.675382	67.607195	38.109661	96.428455
21076	-5.029763	7.288968	2.687627	0.398058	-0.857088	2.637200	67.924435	36.525878	96.574752
21077	-4.982799	6.976248	2.488276	0.367290	-0.736314	2.550905	68.244458	35.002767	96.757352
21078	-5.256518	7.139422	2.494079	0.434818	-0.663198	2.470682	68.607409	33.547306	96.958614
21079	-5.096410	7.079960	2.417234	0.536054	-0.599824	2.390305	69.025777	32.136516	97.159069
21080	-4.801957	7.553786	2.587056	0.558218	-0.537511	2.318174	69.457404	30.786053	97.372361
21081	-4.504529	7.873469	2.681263	0.612568	-0.487078	2.270639	69.917253	29.459668	97.584947
21082	-4.233733	8.343136	2.856608	0.597677	-0.458831	2.258750	70.365488	28.153837	97.803530
21083	-3.754064	8.668035	2.779172	0.616595	-0.447577	2.282507	70.817729	26.825723	98.013857
21084	-3.396995	9.004223	2.707013	0.633144	-0.392562	2.338535	71.289720	25.486086	98.260586
21085	-3.381787	9.306136	2.731126	0.642616	-0.337607	2.382530	71.771621	24.120404	98.527916
21086	-3.667108	9.578832	2.968982	0.645874	-0.298374	2.413490	72.256394	22.753046	98.815176
21087	-4.201111	9.719783	3.227812	0.623218	-0.277181	2.432484	72.720631	21.366386	99.097276
21088	-4.460934	9.742323	3.195734	0.620738	-0.284957	2.422387	73.171154	19.992290	99.364626
21089	-4.464587	9.743283	3.302281	0.590455	-0.298243	2.379622	73.587322	18.627429	99.597582
21090	-4.242547	9.603820	3.097704	0.541612	-0.292941	2.317987	73.965884	17.305995	99.817365
21091	-3.963571	9.524190	2.868968	0.518809	-0.288499	2.238733	74.319080	16.017820	100.010768
21092	-3.480255	9.554507	2.622206	0.529430	-0.259938	2.154959	74.674018	14.788915	100.203379
21093	-2.959561	9.694013	2.443721	0.564034	-0.226349	2.089235	75.043294	13.590831	100.390596
21094	-2.452616	10.118672	2.388412	0.623647	-0.201540	2.054576	75.444328	12.423738	100.582879
21095	-1.948006	10.885604	2.523078	0.687465	-0.169204	2.087276	75.879324	11.232553	100.783534
21096	-1.550589	11.677310	2.721744	0.703945	-0.108543	2.177345	76.327794	10.007283	101.026114
21097	-1.315716	12.374774	3.002860	0.637431	-0.023924	2.297206	76.740070	8.715521	101.317313
21098	-1.433203	12.557830	3.262370	0.484597	0.101377	2.410689	77.070294	7.384051	101.689667
21099	-1.762483	12.210674	3.257890	0.343569	0.236118	2.481218	77.318273	6.019125	102.133828
21100	-2.035315	11.826133	3.160789	0.260319	0.286042	2.504260	77.511915	4.655140	102.607638
21101	-2.214767	11.509906	3.237927	0.219426	0.363933	2.480277	77.671571	3.303696	103.112147
21102	-2.535626	11.683312	3.296038	0.202393	0.405266	2.415129	77.812030	2.001438	103.632578
21103	-2.646636	11.964190	3.410074	0.144604	0.426807	2.342988	77.905843	0.732739	104.148804
21104	-2.679582	11.848218	3.270507	0.007639	0.444181	2.268563	77.911748	-0.484255	104.669086
21105	-2.611618	11.653106	2.918752	-0.090501	0.421362	2.193459	77.849095	-1.669170	105.164264
21106	-2.648726	11.346366	2.587461	-0.156226	0.404809	2.104523	77.741225	-2.798043	105.645401
21107	-2.585560	11.230852	2.061049	-0.126151	0.361452	2.017831	77.641533	-3.889269	106.090769
21108	-2.549748	11.644625	2.004567	-0.047688	0.297508	1.966315	77.583110	-4.952452	106.499317
21109	-2.203017	11.790507	1.922429	-0.060259	0.297813	1.930763	77.508912	-6.000496	106.902872
21110	-1.818185	11.511621	1.693201	-0.096607	0.316932	1.892859	77.406945	-7.019084	107.317460
21111	-1.619555	11.103841	1.634432	-0.132819	0.397616	1.837655	77.270707	-7.999924	107.771610
21112	-1.537267	10.406404	1.432899	-0.192851	0.480987	1.747379	77.087737	-8.914369	108.267016
21113	-1.421149	9.796546	1.173422	-0.159888	0.552887	1.630092	76.910857	-9.755532	108.790525
21114	-1.394845	9.509649	1.123419	-0.060840	0.589604	1.505102	76.782641	-10.517788	109.323167
21115	-1.404492	9.627211	1.349904	0.014770	0.606657	1.389098	76.691586	-11.214040	109.851936
21116	-1.230745	9.476793	1.552366	0.047221	0.604263	1.295296	76.615492	-11.855621	110.369712
21117	-1.785498	9.708404	1.931461	0.197250	0.594697	1.236415	76.622693	-12.466226	110.875399
21118	-1.595518	10.051004	2.364863	0.095549	0.411455	1.150072	76.591529	-13.052039	111.266146
21119	-1.928707	10.728451	3.029814	0.248252	0.428136	1.229727	76.639764	-13.679807	111.678508
21120	-1.503827	11.043450	3.022492	0.234909	0.177755	1.356414	76.705350	-14.411960	111.964445
21121	-0.881399	11.167643	4.032268	0.415625	-0.128817	1.557572	76.910488	-15.295549	112.100784
21122	-0.937356	13.512893	4.421651	0.469934	-0.323166	1.834392	77.164699	-16.360712	112.157388
21123	1.087736	13.297006	4.767979	-0.101992	-0.648924	2.161167	77.135240	-17.647400	112.066696
21124	-0.321344	11.321752	4.956682	-0.239384	-0.450635	2.430845	76.978736	-19.061997	112.129347
21125	-1.072701	13.301189	5.193654	-0.487204	-1.110080	2.607109	76.803508	-20.657021	111.831559
21126	-0.423948	6.706805	4.181131	-1.376169	-0.910022	2.418169	76.087063	-22.125516	111.635013
21127	-1.827829	9.455691	3.920991	-0.873231	-1.342901	2.186518	75.775474	-23.522643	111.156587
21128	-0.209764	2.844644	0.860493	-1.863236	-1.453146	2.132753	74.932010	-24.914820	110.611178
21129	-1.419626	11.301708	1.927216	0.202401	-1.722350	1.746678	75.384127	-26.128939	109.839384
21130	0.485350	4.497753	1.614311	-1.602546	-2.096671	1.631257	74.931046	-27.339537	108.806310
21131	1.805751	6.181423	0.610781	-0.715489	-1.512620	1.272139	74.865587	-28.261747	108.076682
21132	-0.264815	3.235093	-0.481427	-0.923559	-1.202971	0.958167	74.621276	-28.972153	107.482775
21133	0.972462	6.077136	-1.128247	-0.012190	-1.471594	0.731777	75.012616	-29.589775	106.677538
21134	1.444981	6.999559	1.719189	0.251717	-1.287075	0.569904	75.519226	-30.092503	105.950093
21135	10.815373	12.444104	2.203652	1.131746	-2.081497	0.359581	76.820175	-30.568995	104.667630
21136	8.854388	7.932429	5.940324	-2.608265	0.900163	-0.015012	75.033171	-30.434594	105.244841
21137	4.027247	3.952322	-6.326401	-0.564382	0.809090	-0.134407	74.463175	-30.230860	105.741244
21138	4.300146	10.119811	1.397430	0.636502	-1.173456	-0.165476	75.222046	-30.314507	104.960145
21139	8.530358	8.935332	4.092383	0.109039	-0.021653	-0.214056	75.313285	-30.191401	104.911902
21140	3.390772	9.935599	2.129436	-0.914925	0.778206	-0.212868	74.558993	-29.957096	105.371842
21141	4.309049	7.875525	0.183694	0.400122	-0.156214	-0.108253	74.850864	-29.913430	105.255022
21142	5.218220	9.788271	5.263939	0.099346	-0.142845	-0.110934	74.963618	-29.872715	105.143825
21143	4.747679	8.363470	2.871762	-0.408141	0.373786	-0.172135	74.629685	-29.713869	105.353898
21144	4.226824	7.468507	1.260543	-0.125336	-0.017423	-0.182639	74.580067	-29.614967	105.309896
21145	5.184143	8.199529	2.847638	0.154327	-0.066125	-0.176330	74.707812	-29.520085	105.238874
21146	4.655086	8.054743	2.431552	-0.078568	0.157732	-0.189429	74.630664	-29.390847	105.305068
21147	4.520935	7.851453	2.143391	0.051737	-0.007505	-0.199352	74.682929	-29.274471	105.267359
21148	4.735809	7.922629	2.721812	-0.002549	-0.007324	-0.232484	74.704272	-29.146421	105.221497
21149	4.681959	7.544830	1.851254	-0.038767	0.043591	-0.243809	74.692376	-28.997815	105.208587
21150	4.567340	7.969696	2.247231	0.144292	-0.025636	-0.238616	74.803639	-28.869089	105.150371
21151	5.166574	6.424572	2.299039	-0.141624	0.054844	-0.359664	74.738709	-28.654833	105.124899
21152	4.980051	7.048258	0.903478	0.126780	0.135559	-0.461593	74.809234	-28.378548	105.130223
21153	5.102256	6.996636	1.831840	-0.007185	0.027636	-0.561070	74.845061	-28.057381	105.053637
21154	5.061855	7.448742	1.162686	0.129054	0.311503	-0.629839	74.878605	-27.661718	105.141005
21155	4.254516	7.997431	2.065273	0.130806	0.157796	-0.666005	74.962666	-27.263337	105.128958
21156	4.447118	8.388778	2.495342	0.063727	0.261451	-0.694842	74.978856	-26.839281	105.174595
21157	4.373396	7.968037	1.891536	-0.048519	0.248734	-0.735789	74.939738	-26.388816	105.207640
21158	4.342026	7.940307	1.879821	0.025909	0.252646	-0.782416	74.943956	-25.917590	105.232736
21159	4.415491	8.033377	1.799555	-0.013885	0.296059	-0.831698	74.919596	-25.407127	105.278478
21160	3.947732	8.484424	2.075190	0.013968	0.324721	-0.875217	74.905359	-24.873795	105.331857
21161	3.797009	8.928090	2.808104	-0.090618	0.249810	-0.919446	74.855823	-24.321755	105.334174
21162	4.099334	7.970527	2.376140	-0.225236	0.320761	-0.960410	74.712882	-23.741805	105.369356
21163	3.776770	7.682462	1.997287	-0.099539	0.322686	-0.997250	74.646640	-23.135811	105.400654
21164	3.642848	8.125813	2.452178	-0.011898	0.292640	-1.030459	74.638355	-22.521341	105.405574
21165	3.437109	8.259619	2.680106	-0.029532	0.310087	-1.061687	74.619885	-21.881759	105.417940
21166	3.194672	8.189676	2.579776	0.023403	0.293142	-1.088060	74.635354	-21.235384	105.413541
21167	3.248479	8.164697	2.635639	0.060730	0.262893	-1.117929	74.681861	-20.571923	105.389152
21168	3.231924	8.535960	2.609019	0.151386	0.270478	-1.141786	74.777734	-19.899260	105.364033
21169	3.539908	8.210340	2.347397	0.100440	0.261379	-1.202752	74.850423	-19.189126	105.327387
21170	3.017359	8.093980	2.189853	0.129218	0.303408	-1.284411	74.933337	-18.432581	105.301244
21171	2.973771	8.292685	2.141900	0.206090	0.268640	-1.327435	75.069366	-17.652406	105.252125
21172	2.651711	8.579021	2.566006	0.198782	0.287205	-1.368447	75.197028	-16.851602	105.207222
21173	2.521635	8.436483	2.320088	0.211683	0.298033	-1.412330	75.332492	-16.019951	105.166362
21174	2.371128	8.563981	2.293886	0.219278	0.286419	-1.456945	75.473187	-15.169994	105.112038
21175	2.343744	8.565806	2.099801	0.226627	0.312197	-1.511929	75.616452	-14.280895	105.069143
21176	2.259466	8.495056	2.002768	0.185867	0.327633	-1.573949	75.733731	-13.359896	105.025903
21177	1.924015	8.550127	1.942311	0.253846	0.372359	-1.643725	75.886719	-12.389004	105.002882
21178	1.592171	9.134289	2.709285	0.158636	0.316535	-1.719368	75.991574	-11.388539	104.937325
21179	1.990517	8.073167	1.742108	0.164837	0.423600	-1.781703	76.090072	-10.333731	104.928103
21180	1.483408	8.541919	1.837105	0.332972	0.425157	-1.829593	76.283810	-9.256805	104.913427
21181	1.034269	8.861541	2.349169	0.382446	0.442609	-1.885426	76.506057	-8.141713	104.907426
21182	0.902413	8.975665	2.363031	0.417129	0.453565	-1.947288	76.746313	-6.995332	104.901409
21183	0.012732	10.625039	2.901622	0.694675	0.530854	-2.008667	77.142172	-5.799962	104.939747
21184	-0.230889	13.259837	2.556621	0.800559	0.519735	-1.959134	77.597276	-4.638685	104.984358
21185	-0.030461	17.793930	2.905373	1.047283	0.548056	-1.648284	78.191413	-3.643527	105.095684
21186	-1.773235	16.734730	4.021823	-0.040151	0.671487	-1.125460	78.154868	-2.932677	105.339795
21187	-0.487475	9.329814	0.534415	-0.248319	0.222997	-0.781180	78.013200	-2.461846	105.374870
21188	0.210151	10.356322	1.935806	0.699053	-0.005324	-0.669896	78.417453	-2.085887	105.292743
21189	0.062615	10.567495	3.017942	0.094617	0.058363	-0.632515	78.475231	-1.717428	105.255497
21190	-0.066715	9.936990	1.749393	0.140434	0.133255	-0.549910	78.555850	-1.392599	105.266911
21191	-0.339376	9.784360	1.681318	0.118454	-0.005113	-0.495531	78.627211	-1.108151	105.210482
21192	-0.067821	9.677694	2.176267	0.209537	-0.170445	-0.452362	78.750281	-0.872286	105.063192
21193	0.043977	10.197416	2.268839	0.070995	-0.019042	-0.413590	78.793896	-0.635185	105.009014
21194	-0.388541	9.904171	1.800830	-0.082324	0.053087	-0.335195	78.747276	-0.440009	105.000783
21195	-0.287924	9.645146	1.671160	0.014002	-0.093653	-0.261984	78.757999	-0.296435	104.921566
21196	0.003744	9.488257	1.994610	0.075728	-0.118364	-0.225530	78.802247	-0.181998	104.829241
21197	0.056913	9.610924	2.132949	0.124331	-0.022769	-0.218482	78.875717	-0.054885	104.794912
21198	-0.128068	9.660011	1.879185	0.075526	-0.011615	-0.218722	78.919463	0.067698	104.763597
21199	-0.155001	9.773903	1.627962	0.105417	-0.061028	-0.208548	78.981853	0.185041	104.709050
21200	-0.080244	9.650405	1.649802	0.024580	-0.060459	-0.203115	78.996176	0.293557	104.652172
21201	-0.153497	9.559977	1.976975	0.095322	-0.027136	-0.189303	79.052691	0.403832	104.618936
21202	-0.174652	9.794996	1.846290	0.068459	-0.025786	-0.179909	79.092120	0.503149	104.584247
21203	-0.192746	9.759631	1.585045	0.018293	-0.013873	-0.163599	79.104447	0.600412	104.561375
21204	-0.234380	9.849583	1.516799	0.033941	-0.014928	-0.144086	79.124100	0.680779	104.536748
21205	-0.317409	9.940508	1.624979	-0.031044	-0.016717	-0.112513	79.108155	0.748998	104.517845
21206	-0.294220	9.615822	1.819114	-0.078614	-0.036545	-0.083349	79.063189	0.792843	104.487609
21207	-0.176395	9.412056	1.977059	-0.032234	-0.091747	-0.090821	79.045959	0.840679	104.428799
21208	-0.096845	9.657038	1.950022	0.020773	-0.034401	-0.100528	79.057878	0.894410	104.397877
21209	-0.252229	9.724177	1.721936	-0.029294	-0.001661	-0.100116	79.042975	0.957202	104.388688
21210	-0.264539	9.601631	1.605442	-0.040404	-0.052046	-0.099166	79.019615	1.008238	104.347972
21211	-0.222498	9.690676	1.873446	-0.009702	-0.069895	-0.099066	79.015225	1.062970	104.300480
21212	-0.205438	9.743726	1.876393	-0.062876	-0.034771	-0.101075	78.979095	1.116951	104.269246
21213	-0.262390	9.706064	1.609525	-0.106005	-0.044367	-0.106195	78.919676	1.178384	104.235241
21214	-0.283305	9.677738	1.715476	-0.087549	-0.061920	-0.102894	78.869022	1.230341	104.188446
21215	-0.241880	9.576784	1.932568	-0.106135	-0.067027	-0.110471	78.809165	1.291574	104.141115
21216	-0.220287	9.581628	1.929950	-0.105127	-0.032509	-0.111009	78.748705	1.351283	104.109846
21217	-0.245082	9.431220	1.916998	-0.130001	-0.022463	-0.125413	78.675594	1.425738	104.085727
21218	-0.237450	9.452818	1.941696	-0.069949	-0.039669	-0.145312	78.635009	1.503848	104.046440
21219	-0.287913	9.447169	2.041309	-0.056292	-0.025550	-0.155157	78.603884	1.594554	104.017074
21220	-0.281306	9.644088	1.980405	-0.039064	-0.025677	-0.173004	78.581007	1.689765	103.982425
21221	-0.346409	9.684973	1.708397	-0.091014	-0.013773	-0.176681	78.529969	1.793801	103.957095
21222	-0.475336	9.592750	1.808057	-0.075963	-0.013878	-0.163879	78.486075	1.885191	103.929976
21223	-0.419777	9.669154	2.031500	-0.073061	-0.054825	-0.155902	78.444534	1.972802	103.883814
21224	-0.380464	9.685170	1.904246	-0.129794	-0.030360	-0.156393	78.369416	2.058050	103.848142
21225	-0.448966	9.728743	1.717526	-0.089658	0.002165	-0.131942	78.319469	2.138671	103.836558
21226	-0.529467	9.615873	1.911349	-0.121831	-0.009832	-0.104217	78.249479	2.196965	103.818303
21227	-0.383213	9.466435	2.069489	-0.075398	-0.044231	-0.106088	78.206777	2.257624	103.783551
21228	-0.395469	9.618746	2.071653	-0.077505	0.020664	-0.102516	78.162834	2.318515	103.782514
21229	-0.510803	9.456496	1.958226	-0.069121	0.009936	-0.102527	78.124880	2.383436	103.778459
21230	-0.450717	9.544050	2.045890	-0.022418	-0.027538	-0.098198	78.111380	2.436224	103.750814
21231	-0.446425	9.580700	2.011739	-0.038513	-0.002627	-0.098641	78.090648	2.497443	103.740105
21232	-0.486197	9.538692	1.962283	-0.026478	0.006265	-0.095073	78.075619	2.552467	103.731769
21233	-0.532525	9.576539	1.989593	-0.006163	0.000043	-0.084424	78.073524	2.605983	103.724194
21234	-0.511405	9.563103	2.051602	-0.005924	0.000936	-0.075365	78.070229	2.649331	103.715195
21235	-0.448621	9.586020	2.004261	0.003021	-0.001960	-0.083007	78.073319	2.701782	103.706642
21236	-0.485539	9.598432	1.943053	-0.008320	0.014306	-0.083821	78.068947	2.751460	103.704148
21237	-0.537855	9.552138	1.992815	0.011257	0.003798	-0.081725	78.076889	2.803823	103.698953
21238	-0.507480	9.600079	2.023213	-0.003233	0.000766	-0.088218	78.075029	2.854368	103.688345
21239	-0.559259	9.618586	1.931982	-0.017055	0.017575	-0.086080	78.067084	2.910762	103.690342
21240	-0.584034	9.505302	2.053005	-0.000783	0.002959	-0.079666	78.066724	2.956776	103.681974
21241	-0.534411	9.675391	2.023129	-0.009667	-0.028826	-0.092733	78.061603	3.011371	103.657113
21242	-0.487588	9.584860	1.825452	-0.041342	0.001997	-0.108484	78.037780	3.073428	103.644771
21243	-0.567973	9.548490	2.008902	-0.016587	0.004137	-0.114653	78.029488	3.144161	103.635754
21244	-0.555491	9.504111	2.087493	-0.022341	-0.010147	-0.132310	78.015986	3.218127	103.613730
21245	-0.550963	9.571499	2.037021	-0.016676	0.002812	-0.142643	78.007357	3.304337	103.600579
21246	-0.606435	9.610339	1.872094	-0.014498	0.009454	-0.149020	77.998812	3.390000	103.587541
21247	-0.657553	9.602743	1.967632	-0.028523	0.024037	-0.147222	77.984019	3.481257	103.585708
21248	-0.692655	9.609900	2.018885	0.002769	-0.018536	-0.163370	77.984254	3.571624	103.555213
21249	-0.575098	9.605715	2.015483	-0.039626	-0.034678	-0.181483	77.960731	3.675042	103.516273
21250	-0.550507	9.390782	2.071563	-0.025752	0.001379	-0.209012	77.944884	3.793354	103.491437
21251	-0.565199	9.375807	2.124267	0.020868	-0.003544	-0.240003	77.956523	3.933199	103.462878
21252	-0.629879	9.564692	2.061782	0.041770	0.048379	-0.273821	77.980551	4.093453	103.456713
21253	-0.449126	9.531871	1.931594	0.067476	0.048478	-0.293509	78.020363	4.269429	103.451059
21254	-0.531517	9.390939	1.936637	0.131300	0.177945	-0.352075	78.100523	4.488922	103.508692
21255	-1.125622	9.767253	2.063127	0.141679	0.194327	-0.388848	78.188499	4.735425	103.574198
21256	-0.850738	9.594983	1.945289	0.116224	-0.003061	-0.445717	78.250995	4.986112	103.519602
21257	-0.531012	9.566896	1.811090	0.187025	0.102631	-0.502262	78.359781	5.285425	103.520972
21258	-0.876259	9.713870	1.895787	0.234482	0.192934	-0.546662	78.498949	5.615499	103.566111
21259	-0.923924	9.869155	1.873850	0.247073	0.136963	-0.595095	78.643142	5.970741	103.577599
21260	-0.879752	9.975940	1.816905	0.226268	0.174988	-0.641331	78.776109	6.351774	103.603598
21261	-1.049225	9.946213	1.719180	0.219894	0.202866	-0.694229	78.908034	6.769915	103.642968
21262	-1.117248	10.024580	1.781029	0.224684	0.208158	-0.768485	79.041274	7.225973	103.675547
21263	-1.214470	10.045187	1.844489	0.181778	0.266843	-0.839496	79.154866	7.732535	103.737268
21264	-1.419421	10.108434	1.945146	0.139801	0.232304	-0.905272	79.240144	8.268046	103.770606
21265	-1.242810	10.140403	1.830209	0.053310	0.246501	-0.983583	79.277425	8.853307	103.806753
21266	-1.427137	10.352148	1.986483	-0.031210	0.324207	-1.046726	79.271438	9.478208	103.878052
21267	-1.759227	10.526643	2.231078	-0.199044	0.326591	-1.107092	79.170295	10.141455	103.946195
21268	-1.657507	10.420740	2.007228	-0.360489	0.321197	-1.174475	78.974030	10.838145	103.999705
21269	-1.674235	10.442585	1.684871	-0.323509	0.409642	-1.273308	78.808063	11.604255	104.093128
21270	-1.943535	10.909641	1.886802	-0.355060	0.423443	-1.401852	78.622254	12.440486	104.175161
21271	-2.211654	11.630304	1.843252	-0.317497	0.422498	-1.490456	78.457384	13.330378	104.246370
21272	-2.452397	12.517012	2.321138	-0.477971	0.265444	-1.545221	78.176494	14.229261	104.214593
21273	-2.873085	12.902939	2.735114	-0.557966	0.235751	-1.616620	77.842544	15.168031	104.154076
21274	-1.960325	11.735261	2.619585	-0.973737	0.069255	-1.693630	77.237226	16.125189	103.976338
21275	-2.599401	10.817521	1.426990	-0.923368	0.374012	-1.830353	76.701328	17.199537	103.949068
21276	-5.171405	11.072410	1.495259	-0.632949	0.377224	-1.939473	76.323330	18.331606	103.897031
21277	-2.665741	11.012625	2.292336	-0.472032	-0.285899	-2.053261	75.903454	19.438843	103.432394
21278	-2.136673	11.047527	3.084531	-0.564045	0.302955	-2.227784	75.526969	20.719700	103.275570
21279	-3.380125	10.082660	2.476588	-0.588410	0.247799	-2.353534	75.111163	22.064136	103.057581
21280	-2.155136	10.820663	2.646259	-0.287206	0.097363	-2.479927	74.814854	23.451916	102.715628
21281	-2.588003	9.715672	3.426364	-0.447035	0.459069	-2.666418	74.492190	24.998331	102.551677
21282	-3.354102	9.519080	2.235267	-0.287016	0.460070	-2.801959	74.241543	26.616441	102.352462
21283	-3.423623	11.897197	2.240753	0.100784	0.354812	-2.910259	74.166229	28.279295	102.062362
21284	-2.853173	11.371061	3.301942	-0.372873	0.413553	-3.052004	73.810776	30.026546	101.770193
21285	-4.315888	11.246491	2.850603	-0.308579	0.742377	-3.175246	73.573303	31.894216	101.650957
21286	-4.511336	9.888235	1.835587	-0.405149	0.537768	-3.282055	73.184682	33.785315	101.361458
21287	-4.207943	10.101395	2.156019	-0.076595	0.567037	-3.385067	72.965453	35.736977	101.052658
21288	-4.341102	9.554353	2.680404	-0.173181	0.561100	-3.506050	72.652316	37.752124	100.694250
21289	-4.172070	8.983353	1.787250	-0.184157	0.614321	-3.605466	72.317524	39.828926	100.326973
21290	-6.189571	8.387260	1.961563	-0.044992	0.700707	-3.629976	72.072094	41.932941	99.990588
21291	-6.211002	10.104246	1.873291	0.261880	0.290485	-3.342285	71.818710	43.805624	99.396202
21292	-3.267921	13.224962	2.865894	0.792723	-0.416922	-2.469102	71.615177	45.075027	98.456062
21293	-3.097162	15.605873	5.238712	0.329878	-0.458172	-1.423449	71.288864	45.763744	97.730574
21294	-4.401141	12.021731	4.385711	-0.424306	-0.362971	-0.905548	70.667245	46.187499	97.203412
21295	-7.689615	9.175463	3.931051	-0.686437	-0.425706	-0.848509	69.860823	46.559287	96.629715
21296	-8.233172	7.056003	3.505541	-0.823736	-0.597680	-1.031306	68.825952	46.992400	95.856483
21297	-8.012640	6.918513	2.568484	-0.913457	-0.656738	-1.174933	67.654841	47.474374	94.971039
21298	-6.681900	6.531961	1.560010	-0.731616	-0.736910	-1.170858	66.520923	47.928903	94.004016
21299	-5.569210	6.892529	1.763924	-0.532007	-0.735840	-1.031764	65.518898	48.293926	93.064201
21300	-5.133982	6.829233	1.677465	-0.476290	-0.561588	-0.845607	64.686311	48.598878	92.315567
21301	-4.981091	6.403647	1.531199	-0.454584	-0.399967	-0.670753	64.001461	48.841870	91.747208
21302	-4.814098	6.089648	1.590854	-0.419265	-0.195612	-0.516146	63.495252	49.058441	91.393786
21303	-4.940754	5.950897	1.688078	-0.438799	0.073785	-0.385610	63.173486	49.270237	91.296882
21304	-5.130245	5.400515	1.497201	-0.498144	0.320082	-0.276104	62.994867	49.495215	91.436861
21305	-5.586250	5.049728	1.515305	-0.440820	0.530988	-0.182508	63.005837	49.721616	91.778835
21306	-5.870697	4.550103	1.558619	-0.395607	0.642963	-0.119024	63.131328	49.950165	92.238944
21307	-6.324218	4.340239	1.855973	-0.323770	0.764045	-0.088335	63.386373	50.187498	92.809506
21308	-6.748988	4.067813	1.938820	-0.254331	0.778425	-0.073510	63.698695	50.424812	93.404077
21309	-7.192633	3.943184	2.277813	-0.191655	0.723799	-0.080716	64.016908	50.644470	93.954781
21310	-7.324832	4.227381	2.422670	-0.105051	0.629100	-0.108393	64.320287	50.858324	94.423566
21311	-7.470536	4.966941	3.014634	-0.074088	0.471859	-0.106654	64.546363	51.025896	94.765918
21312	-7.347096	5.415355	3.445671	-0.165222	0.337072	-0.075904	64.644267	51.148932	95.012717
21313	-7.166844	5.228913	3.350660	-0.350575	0.191221	-0.038754	64.554858	51.211768	95.152406
21314	-7.073734	4.926524	2.960083	-0.448693	0.030334	0.000842	64.317112	51.219723	95.176527
21315	-6.614002	4.649113	2.405308	-0.469865	-0.108912	0.028469	63.987050	51.173592	95.095122
21316	-6.190718	4.930965	2.164150	-0.367272	-0.251758	0.096043	63.645759	51.061438	94.926334
21317	-5.548620	5.145533	1.971905	-0.215312	-0.366601	0.220298	63.360237	50.850530	94.714217
21318	-5.105078	5.816907	2.026044	-0.109935	-0.482461	0.417283	63.126847	50.513458	94.493273
21319	-4.717399	5.978564	2.346626	-0.062525	-0.534127	0.629062	62.959634	50.048951	94.318951
21320	-4.336469	6.076080	2.266298	-0.177870	-0.539128	0.812810	62.783341	49.494479	94.220837
21321	-4.014003	5.463523	2.111782	-0.213603	-0.537823	1.006182	62.650163	48.835798	94.202773
21322	-3.323135	4.967877	1.441175	-0.110642	-0.554242	1.174603	62.617246	48.092987	94.242784
21323	-2.973436	5.461006	1.785874	0.002014	-0.494641	1.288111	62.714507	47.301721	94.368686
21324	-2.929243	5.332794	1.751433	0.096258	-0.421685	1.446890	62.944029	46.454704	94.606854
21325	-3.291165	6.011651	2.033059	0.157250	-0.407293	1.631963	63.256898	45.509182	94.912325
21326	-3.491552	6.360766	2.298578	0.154827	-0.373465	1.786266	63.611697	44.498921	95.287847
21327	-3.247852	6.603102	2.201800	0.185629	-0.385849	1.941496	64.000414	43.396514	95.690152
21328	-3.139587	6.669045	2.541994	0.114599	-0.422466	2.120049	64.354041	42.198509	96.113206
21329	-2.768531	6.096939	2.200502	0.099141	-0.426270	2.258786	64.708870	40.917741	96.557689
21330	-3.083194	5.524248	2.235621	0.065524	-0.462570	2.297444	65.016678	39.614323	96.975004
21331	-3.815343	5.028971	2.040347	0.119833	-0.484153	2.243401	65.318338	38.323521	97.340640
21332	-3.859400	5.408444	1.966432	0.298759	-0.700327	2.186442	65.609261	37.018119	97.535715
21333	-2.977839	6.815101	2.544809	0.450241	-0.888182	2.211945	65.908659	35.645785	97.600789
21334	-1.835895	7.988424	2.797982	0.392219	-0.971670	2.334682	66.157556	34.198142	97.642093
21335	-1.679964	8.253443	2.745205	0.311040	-0.873770	2.505910	66.414357	32.673784	97.779601
21336	-1.933756	7.223722	2.047069	0.196085	-0.816908	2.610808	66.630448	31.116108	97.974950
21337	-2.466576	6.064347	1.818836	0.251445	-0.800466	2.602915	66.872327	29.555627	98.163249
21338	-2.712632	5.952494	1.688457	0.473993	-0.833653	2.534811	67.213619	28.032853	98.306884
21339	-2.563361	6.468879	2.183623	0.671928	-0.877339	2.456514	67.637870	26.530964	98.387071
21340	-2.415872	7.694456	2.736823	0.712361	-0.931246	2.429280	68.060969	25.041480	98.420211
21341	-1.958249	8.453349	3.265993	0.646032	-0.975027	2.461921	68.432918	23.514836	98.418969
21342	-1.833487	8.396951	3.152059	0.637808	-0.957362	2.531794	68.806128	21.964926	98.437719
21343	-1.712436	8.516698	2.856585	0.603031	-1.019787	2.565892	69.144701	20.373111	98.412739
21344	-1.440513	8.450849	2.982069	0.674540	-1.038789	2.606473	69.520845	18.766596	98.380310
21345	-1.318034	8.762390	2.884028	0.607398	-0.979801	2.604603	69.866110	17.161921	98.365410
21346	-1.056582	8.714921	2.612957	0.690073	-0.908371	2.592119	70.266807	15.589125	98.382411
21347	-0.560845	8.823953	2.435587	0.670837	-0.792220	2.585349	70.669068	14.030717	98.446203
21348	-0.157284	8.728958	2.017257	0.668657	-0.562749	2.561292	71.094076	12.539383	98.626266
21349	-0.293100	8.437032	1.808972	0.745372	-0.378141	2.531362	71.575341	11.084982	98.884646
21350	-1.054021	8.542102	2.092160	0.901274	-0.234599	2.486619	72.150001	9.690041	99.204924
21351	-1.581570	9.531105	2.741364	1.091041	-0.279807	2.469820	72.818333	8.281204	99.475200
21352	-1.173971	10.880791	3.797828	1.139007	-0.367942	2.486278	73.499392	6.857540	99.687257
21353	-0.722585	11.478443	4.135090	0.933699	-0.294663	2.544305	74.060658	5.399623	99.927685
21354	-0.709617	11.213033	3.591607	0.830351	-0.268392	2.612749	74.557794	3.917673	100.184620
21355	-0.608672	11.061982	3.520242	0.843591	-0.306260	2.669246	75.053728	2.384767	100.410395
21356	-0.417072	11.179239	3.391045	0.843836	-0.302110	2.713889	75.544090	0.837651	100.636949
21357	-0.208359	11.022045	3.303143	0.821710	-0.306369	2.735092	76.014855	-0.735425	100.845773
21358	-0.081734	11.033589	3.307423	0.811629	-0.299488	2.739541	76.474935	-2.299998	101.051684
21359	-0.028157	11.120914	3.313814	0.770234	-0.274340	2.726800	76.904809	-3.867241	101.252852
21360	0.064408	11.433173	3.186371	0.763493	-0.263031	2.710221	77.326633	-5.413738	101.452151
21361	0.343183	11.854229	3.201368	0.732725	-0.261229	2.702066	77.725690	-6.968038	101.635854
21362	0.304255	12.146558	3.249639	0.676815	-0.195247	2.685881	78.085135	-8.495364	101.850161
21363	0.197581	12.402035	3.125984	0.640756	-0.203124	2.681992	78.419450	-10.033437	102.046313
21364	0.203177	12.426415	3.115424	0.631817	-0.179206	2.660597	78.743735	-11.547152	102.250376
21365	0.016090	12.200578	3.118122	0.554567	-0.124913	2.604145	79.013756	-13.034210	102.468011
21366	-0.164992	11.864791	3.114241	0.539458	-0.092738	2.522233	79.269647	-14.462632	102.693845
21367	-0.269759	11.823028	3.260767	0.523057	-0.086188	2.418350	79.513153	-15.841950	102.903245
21368	-0.319648	11.940098	3.490105	0.473021	-0.081988	2.313938	79.727787	-17.153662	103.103459
21369	-0.387250	11.747768	3.460073	0.394916	-0.089035	2.198902	79.898534	-18.409907	103.280650
21370	-0.397439	11.697896	3.330351	0.375703	-0.090509	2.068777	80.061072	-19.585329	103.444038
21371	-0.270548	11.955388	3.386098	0.318429	-0.078372	1.939663	80.189808	-20.693888	103.596383
21372	0.047575	11.955631	3.074261	0.174806	-0.016678	1.826278	80.225277	-21.725809	103.776447
21373	0.352073	11.328249	2.389288	0.048913	0.051649	1.725999	80.172777	-22.699953	103.986799
21374	0.400582	10.707130	1.735037	0.015314	0.119620	1.632556	80.084844	-23.608909	104.233892
21375	0.538329	10.050241	1.176177	0.057347	0.183472	1.556342	80.003137	-24.472530	104.513587
21376	0.652778	10.168518	1.027428	0.257592	0.198303	1.498722	80.030542	-25.297708	104.800274
21377	0.851364	10.643965	1.799475	0.371607	0.230187	1.476375	80.111486	-26.110576	105.104276
21378	0.867824	10.346374	2.297596	0.271422	0.317986	1.449303	80.107170	-26.896503	105.463447
21379	0.599054	9.707633	2.669152	0.258026	0.358077	1.358861	80.082894	-27.629430	105.839843
21380	0.519525	9.552322	2.952692	0.249544	0.345232	1.235502	80.058472	-28.291785	106.197841
21381	0.551047	9.321829	3.108614	0.071708	0.339926	1.107558	79.936201	-28.883048	106.540578
21382	0.673138	9.279750	2.747196	0.010578	0.293023	1.000831	79.794647	-29.417171	106.844551
21383	1.780684	9.727510	2.011151	0.032933	0.254564	0.989009	79.675556	-29.947856	107.125135
21384	1.190324	9.703986	2.221362	0.065984	0.384185	1.093717	79.522091	-30.523655	107.505868
21385	-0.053216	9.296841	4.098571	0.477935	0.046640	1.251806	79.704603	-31.222419	107.686619
21386	-0.671554	8.762997	5.605584	0.076909	-0.218967	0.987461	79.763418	-31.800671	107.659268
21387	3.971354	16.280017	2.719499	0.434834	-0.674692	1.200896	80.178308	-32.542397	107.351052
21388	0.359524	5.690528	3.163156	-1.921180	0.985009	1.182964	78.640248	-33.104095	108.158593
21389	-2.702879	8.081646	-0.414806	0.575350	-0.239374	1.091750	78.980535	-33.740152	108.143063
21390	1.991622	11.890520	3.375238	-0.352527	-1.130613	0.981872	79.137508	-34.414635	107.503249
