// General information: 
//  MT Manager version: 2022.2.0 
//  XDA version: 2022.2.0 build 7381 rev 124627 built on 2023-07-19
// Device information: 
//  DeviceId: 00B4BB52
//  ProductCode: MTW2-3A7G6
//  Firmware Version: 4.6.0
//  Hardware Version: 2.0.0
// Device settings: 
//  Filter Profile: human(46.1)
//  Option Flags: Orientation Smoother Disabled, Position/Velocity Smoother Disabled, Continuous Zero Rotation Update Disabled, AHS Disabled, ICC Disabled
// Coordinate system: ENU
PacketCounter	Acc_X	Acc_Y	Acc_Z	Gyr_X	Gyr_Y	Gyr_Z	Roll	Pitch	Yaw
55472	9.458769	2.183853	0.546287	-0.007378	0.035323	-0.002772	75.949299	-76.736461	-121.805438
55473	9.471044	2.188665	0.569699	-0.003928	0.024552	-0.000798	75.891117	-76.732162	-121.742834
55474	9.459402	2.159898	0.556811	-0.007139	0.029740	0.004172	75.816443	-76.729966	-121.665167
55475	9.479396	2.181530	0.542245	-0.009492	0.023580	0.006963	75.752795	-76.730081	-121.600223
55476	9.501352	2.155167	0.537069	-0.009876	0.021150	0.007972	75.694579	-76.731162	-121.540776
55477	9.512931	2.182888	0.555015	-0.010489	0.023665	0.008714	75.629098	-76.732205	-121.474535
55478	9.492056	2.183510	0.569868	-0.007899	0.024238	0.012867	75.561704	-76.735530	-121.404734
55479	9.500689	2.176078	0.539392	-0.012669	0.020992	0.008523	75.501349	-76.736814	-121.345043
55480	9.501758	2.150999	0.546513	-0.006493	0.022055	0.015081	75.438429	-76.741648	-121.279288
55481	9.501933	2.149606	0.548957	-0.011896	0.025216	0.013189	75.365672	-76.744879	-121.206403
55482	9.523000	2.146817	0.539470	-0.011927	0.029759	0.008238	75.285655	-76.744764	-121.126245
55483	9.489531	2.143294	0.534440	-0.010143	0.030654	0.002776	75.207525	-76.741387	-121.046808
55484	9.459910	2.150814	0.582732	-0.013725	0.029521	0.007043	75.127743	-76.740612	-120.968336
55485	9.480905	2.148351	0.573247	-0.013499	0.024576	0.007307	75.059192	-76.740591	-120.900715
55486	9.493355	2.152176	0.596222	-0.017264	0.020602	0.007880	74.997898	-76.741533	-120.842831
55487	9.480093	2.170629	0.572935	-0.014247	0.015818	0.007600	74.949294	-76.742942	-120.796145
55488	9.523084	2.142397	0.555316	-0.016088	0.023365	0.009834	74.880948	-76.744553	-120.730325
55489	9.467870	2.163904	0.557371	-0.017112	0.027344	0.013303	74.799987	-76.747365	-120.652082
55490	9.489826	2.137288	0.552929	-0.015527	0.029296	0.005867	74.720523	-76.745801	-120.574423
55491	9.502239	2.140987	0.576644	-0.015146	0.031084	0.011543	74.633008	-76.747022	-120.488291
55492	9.488123	2.183123	0.549683	-0.017529	0.029466	0.009368	74.549722	-76.747338	-120.408129
55493	9.502317	2.138896	0.583083	-0.014153	0.031011	0.009809	74.464053	-76.747554	-120.323309
55494	9.468894	2.135185	0.578154	-0.017941	0.031586	0.005429	74.378197	-76.745313	-120.240482
55495	9.472543	2.145523	0.634575	-0.015512	0.025419	0.004168	74.308567	-76.743226	-120.172938
55496	9.468821	2.133925	0.583969	-0.015724	0.025825	0.008869	74.235147	-76.743757	-120.102107
55497	9.468803	2.133298	0.586544	-0.015489	0.021528	0.002450	74.175802	-76.741293	-120.045116
55498	9.480312	2.161105	0.604446	-0.014682	0.017302	0.010349	74.121979	-76.743935	-119.993604
55499	9.535708	2.137392	0.607244	-0.018265	0.016821	0.007939	74.068406	-76.745209	-119.944178
55500	9.513901	2.161858	0.617214	-0.019938	0.027217	0.013893	73.985943	-76.748157	-119.866237
55501	9.488478	2.175200	0.574418	-0.017764	0.029899	0.014111	73.897893	-76.750726	-119.781096
55502	9.501812	2.154388	0.602934	-0.016564	0.028764	0.014345	73.813394	-76.753652	-119.699076
55503	9.468560	2.150120	0.597536	-0.019331	0.024711	0.013158	73.737151	-76.756471	-119.626990
55504	9.481944	2.129066	0.625619	-0.019349	0.024059	0.019835	73.658205	-76.763105	-119.552338
55505	9.503138	2.125988	0.615967	-0.020294	0.021558	0.006508	73.593271	-76.762735	-119.492439
55506	9.460970	2.128871	0.642995	-0.017903	0.023836	0.002028	73.527941	-76.759613	-119.430737
55507	9.535620	2.151454	0.624963	-0.023538	0.026764	0.011515	73.445542	-76.761112	-119.354805
55508	9.511794	2.117632	0.591965	-0.020571	0.034981	0.003081	73.351979	-76.756699	-119.265697
55509	9.502049	2.147340	0.623971	-0.022395	0.038647	0.003616	73.248072	-76.751850	-119.166994
55510	9.460605	2.126253	0.656877	-0.021354	0.030113	0.005076	73.164156	-76.749276	-119.088122
55511	9.501840	2.146283	0.630752	-0.017328	0.025234	0.003033	73.094901	-76.746271	-119.022034
55512	9.469196	2.119039	0.630264	-0.023767	0.032404	0.004635	73.004576	-76.742985	-118.938196
55513	9.472576	2.129280	0.686655	-0.015511	0.021578	0.002512	72.945298	-76.740266	-118.881287
55514	9.492775	2.151097	0.672015	-0.018696	0.018983	0.004040	72.889527	-76.738901	-118.830191
55515	9.532241	2.112582	0.601731	-0.023157	0.029894	0.003894	72.805608	-76.735505	-118.752465
55516	9.531215	2.136381	0.600828	-0.020801	0.040643	-0.003766	72.704047	-76.726138	-118.655505
55517	9.451475	2.106358	0.716737	-0.021785	0.041394	-0.008683	72.603521	-76.713839	-118.559903
55518	9.488236	2.140749	0.633688	-0.020776	0.036754	-0.005492	72.512548	-76.704111	-118.473655
55519	9.500932	2.121685	0.663046	-0.021985	0.037902	-0.005709	72.418128	-76.693967	-118.384436
55520	9.479439	2.123853	0.679019	-0.014572	0.034556	-0.007307	72.337403	-76.683595	-118.305022
55521	9.427911	2.134158	0.739085	-0.009880	0.023248	-0.011867	72.288484	-76.672587	-118.255428
55522	9.490163	2.153741	0.699855	-0.013833	0.011195	-0.003457	72.259314	-76.668332	-118.228613
55523	9.478609	2.125633	0.685006	-0.012592	0.006151	-0.004979	72.243223	-76.664056	-118.214351
55524	9.519051	2.170624	0.652345	-0.008825	0.010130	-0.005509	72.220887	-76.658852	-118.191689
55525	9.498603	2.148549	0.670542	-0.010881	0.014191	-0.000270	72.183831	-76.655734	-118.154872
55526	9.498545	2.148312	0.672122	-0.008315	0.014743	0.003898	72.144297	-76.654845	-118.114074
55527	9.486309	2.143396	0.653296	-0.011347	0.019554	0.004214	72.091351	-76.653216	-118.061200
55528	9.498476	2.147489	0.675721	-0.006102	0.013522	0.002380	72.057035	-76.651701	-118.024464
55529	9.478105	2.124954	0.694038	-0.011892	0.014275	0.001480	72.017960	-76.649497	-117.986167
55530	9.465850	2.120184	0.675090	-0.010728	0.017034	0.003456	71.972092	-76.647965	-117.940611
55531	9.486858	2.118574	0.664607	-0.011236	0.012426	-0.005951	71.943221	-76.642029	-117.912413
55532	9.456576	2.126813	0.710849	-0.010031	0.011283	-0.005726	71.917934	-76.636497	-117.887210
55533	9.476732	2.149532	0.695063	-0.011388	0.005015	-0.004752	71.905106	-76.632527	-117.875592
55534	9.506693	2.142031	0.651138	-0.010847	0.010297	-0.002010	71.878818	-76.629172	-117.849956
55535	9.496024	2.196008	0.675965	-0.009100	0.014435	0.000955	71.841464	-76.626626	-117.811780
55536	9.484631	2.167153	0.661729	-0.009375	0.018731	0.007411	71.789714	-76.626899	-117.758884
55537	9.476565	2.148220	0.701367	-0.009651	0.023027	0.013868	71.722651	-76.629823	-117.690496
55538	9.477548	2.122757	0.708222	-0.013225	0.017984	0.016363	71.663558	-76.635084	-117.632551
55539	9.476911	2.145444	0.705188	-0.009529	0.011322	0.008609	71.627288	-76.637230	-117.595743
55540	9.464924	2.139816	0.685637	-0.011745	0.007969	0.015047	71.592846	-76.643562	-117.562510
55541	9.499315	2.117093	0.699868	-0.013339	0.006671	0.015804	71.559515	-76.650450	-117.530968
55542	9.476929	2.164834	0.703577	-0.013576	0.007064	0.020510	71.521864	-76.659926	-117.495506
55543	9.499279	2.137091	0.697058	-0.013384	0.006000	0.022480	71.484845	-76.670555	-117.460202
55544	9.499729	2.134743	0.698122	-0.016225	0.009752	0.024775	71.436160	-76.681805	-117.414662
55545	9.500944	2.108323	0.704212	-0.015256	0.013579	0.024792	71.378756	-76.692291	-117.359516
55546	9.467242	2.127347	0.692406	-0.014399	0.010665	0.019322	71.333183	-76.700416	-117.315721
55547	9.492678	2.110167	0.739854	-0.016617	0.011894	0.020850	71.281783	-76.709050	-117.267550
55548	9.468722	2.099271	0.699716	-0.013005	0.008456	0.021519	71.240148	-76.718718	-117.227375
55549	9.481243	2.101775	0.721218	-0.009737	0.003247	0.016489	71.215859	-76.726565	-117.203013
55550	9.471846	2.130153	0.749711	-0.010711	-0.000576	0.016476	71.200217	-76.735181	-117.188038
55551	9.490903	2.092648	0.688555	-0.007833	-0.008232	0.012421	71.206581	-76.742939	-117.194048
55552	9.502620	2.119847	0.704141	-0.009229	-0.006017	0.010232	71.209095	-76.749185	-117.197328
55553	9.481702	2.120583	0.715893	-0.009421	-0.004950	0.008264	71.210254	-76.754082	-117.198926
55554	9.491620	2.089681	0.687689	-0.007864	0.000252	0.009271	71.199893	-76.758656	-117.188020
55555	9.482767	2.095190	0.720338	-0.008753	-0.006799	0.000818	71.211538	-76.759855	-117.199998
55556	9.453442	2.078766	0.769417	-0.008170	-0.005421	0.001810	71.219978	-76.761409	-117.208317
55557	9.470703	2.090719	0.698507	-0.008868	-0.013538	-0.004674	71.251404	-76.760869	-117.240683
55558	9.515441	2.122157	0.722308	-0.009682	-0.009945	-0.005870	71.275399	-76.759058	-117.265889
55559	9.449476	2.093394	0.708683	-0.008440	-0.014994	-0.007411	71.312556	-76.757293	-117.303892
55560	9.482040	2.120639	0.711236	-0.011011	-0.020113	-0.006667	71.359858	-76.756954	-117.353889
55561	9.481373	2.144802	0.705052	-0.011678	-0.018264	0.000782	71.396324	-76.760223	-117.393087
55562	9.515560	2.123502	0.716769	-0.012455	-0.018572	-0.002175	71.435747	-76.761999	-117.435866
55563	9.513093	2.089502	0.666382	-0.008836	-0.017433	-0.006427	71.477535	-76.761188	-117.478858
55564	9.512346	2.113740	0.660959	-0.012952	-0.004731	-0.000823	71.483701	-76.761159	-117.487612
55565	9.504115	2.095912	0.698448	-0.010574	0.001456	-0.003535	71.478633	-76.758478	-117.483492
55566	9.504014	2.096270	0.698757	-0.012947	-0.000150	-0.005736	71.477947	-76.754972	-117.485624
55567	9.503876	2.096782	0.699089	-0.015940	0.000769	-0.007165	71.474200	-76.750444	-117.486019
55568	9.470334	2.094914	0.690895	-0.009521	0.002059	-0.011956	71.475257	-76.743155	-117.487604
55569	9.503418	2.098556	0.699990	-0.014539	0.003136	-0.009888	71.468960	-76.736717	-117.484555
55570	9.523504	2.121951	0.684129	-0.014535	0.007720	-0.014797	71.456343	-76.726839	-117.474822
55571	9.468662	2.122171	0.688867	-0.016363	0.011393	-0.014242	71.433379	-76.716530	-117.455722
55572	9.523494	2.100588	0.691356	-0.015352	0.011316	-0.015987	71.412932	-76.705367	-117.438730
55573	9.488987	2.123193	0.679831	-0.016597	0.016366	-0.014439	71.378631	-76.694038	-117.408117
55574	9.479607	2.130362	0.714601	-0.016016	0.017745	-0.013444	71.341191	-76.683048	-117.373873
55575	9.491370	2.135931	0.737086	-0.014772	0.012699	-0.014988	71.316874	-76.672085	-117.352442
55576	9.478809	2.132783	0.717964	-0.015203	0.014155	-0.012246	71.287293	-76.662406	-117.325815
55577	9.478459	2.133832	0.719460	-0.016177	0.010333	-0.012262	71.265544	-76.653353	-117.307848
55578	9.478119	2.134991	0.720509	-0.012129	0.005438	-0.014346	71.259311	-76.644128	-117.303531
55579	9.457394	2.113867	0.738070	-0.017344	0.007584	-0.014242	71.244751	-76.634505	-117.293639
55580	9.456237	2.139263	0.734220	-0.014460	-0.000062	-0.018310	71.252865	-76.624150	-117.305270
55581	9.477014	2.139295	0.722270	-0.015432	-0.003884	-0.018328	71.268728	-76.614422	-117.325523
55582	9.477489	2.116873	0.726386	-0.010995	-0.010921	-0.016484	71.302130	-76.607045	-117.361065
55583	9.485440	2.136292	0.688249	-0.010220	-0.010616	-0.013526	71.332558	-76.601154	-117.393222
55584	9.497341	2.142089	0.708034	-0.009361	-0.013516	-0.019002	71.374593	-76.592895	-117.437094
55585	9.485705	2.115346	0.690824	-0.008003	-0.011836	-0.015052	71.410173	-76.586389	-117.473244
55586	9.466677	2.152654	0.750739	-0.010333	-0.017335	-0.019016	71.460320	-76.578804	-117.525757
55587	9.475413	2.148236	0.716717	-0.012401	-0.013286	-0.013753	71.495611	-76.573255	-117.564203
55588	9.476053	2.125493	0.719917	-0.008156	-0.019248	-0.013876	71.547351	-76.568763	-117.617000
55589	9.475897	2.126749	0.718266	-0.008157	-0.019246	-0.013873	71.598664	-76.564213	-117.669420
55590	9.434307	2.107118	0.745118	-0.007921	-0.024213	-0.013672	71.661587	-76.560722	-117.733737
55591	9.404126	2.115853	0.787508	0.003135	-0.031013	-0.014660	71.746674	-76.557832	-117.814231
55592	9.379722	2.108807	0.741914	-0.003425	-0.058132	-0.019471	71.893743	-76.557192	-117.962089
55593	9.402570	2.166868	0.768567	0.005957	-0.063022	-0.011264	72.050845	-76.561742	-118.114964
55594	9.454818	2.135312	0.708763	0.010547	-0.085611	-0.016450	72.266376	-76.567375	-118.325496
55595	9.454278	2.160685	0.695710	0.010541	-0.090176	-0.011512	72.488664	-76.576248	-118.542681
55596	9.517066	2.181260	0.645801	0.009936	-0.091524	-0.012462	72.715088	-76.584670	-118.764066
55597	9.592016	2.206152	0.616968	0.010618	-0.078830	-0.010872	72.911464	-76.591588	-118.954552
55598	9.526446	2.177322	0.597439	0.009496	-0.067070	-0.003833	73.075809	-76.600320	-119.112646
55599	9.517067	2.207620	0.619841	0.009990	-0.053322	-0.004233	73.208850	-76.606387	-119.238384
55600	9.539249	2.182400	0.607488	0.002292	-0.041117	-0.001032	73.307629	-76.612185	-119.333322
55601	9.497347	2.185583	0.628201	0.003261	-0.037298	-0.001023	73.397835	-76.617276	-119.418985
55602	9.476480	2.187241	0.637193	0.005205	-0.029665	-0.001014	73.472014	-76.621153	-119.486795
55603	9.486252	2.157635	0.605496	0.003671	-0.038735	-0.003744	73.567751	-76.624925	-119.577900
55604	9.498791	2.162185	0.622314	0.002867	-0.039727	-0.000022	73.663238	-76.630920	-119.669164
55605	9.507722	2.156313	0.585689	0.005044	-0.037053	0.000200	73.753325	-76.636521	-119.753649
55606	9.477295	2.187790	0.623032	0.001807	-0.031179	-0.001426	73.829559	-76.640326	-119.825534
55607	9.519493	2.184927	0.595683	-0.000223	-0.026449	-0.002839	73.894203	-76.642514	-119.886967
55608	9.499492	2.162542	0.610263	-0.000665	-0.021118	0.001643	73.943593	-76.646373	-119.933226
55609	9.495024	2.176192	0.550168	0.001543	-0.022332	0.000111	73.997778	-76.649506	-119.982867
55610	9.499691	2.162720	0.606522	-0.003308	-0.013181	-0.005668	74.032207	-76.648039	-120.014898
55611	9.521601	2.137580	0.597698	0.003057	-0.008683	-0.002080	74.057052	-76.647801	-120.033493
55612	9.499669	2.163327	0.604694	-0.002745	-0.007925	-0.002939	74.077852	-76.647044	-120.051045
55613	9.485442	2.207257	0.574381	0.001645	-0.006471	-0.004262	74.098193	-76.645253	-120.065842
55614	9.499607	2.163959	0.603409	-0.002155	-0.006553	-0.001958	74.115479	-76.644788	-120.079388
55615	9.490949	2.170076	0.635815	-0.005159	-0.005639	-0.003370	74.129396	-76.643357	-120.091589
55616	9.487210	2.159967	0.581705	-0.000744	-0.008765	0.000225	74.151109	-76.644439	-120.109183
55617	9.488147	2.135963	0.585876	-0.007394	-0.000540	-0.000088	74.149741	-76.644017	-120.106990
55618	9.532134	2.191040	0.605644	-0.004980	-0.002824	0.000343	74.155219	-76.644243	-120.110152
55619	9.507375	2.182249	0.564578	-0.008010	0.001974	0.000678	74.147157	-76.643849	-120.101443
55620	9.499673	2.163955	0.602384	-0.009012	0.002047	0.002429	74.137634	-76.644464	-120.091620
55621	9.507442	2.181695	0.565599	-0.010245	0.007074	0.003961	74.114287	-76.645080	-120.068517
55622	9.478693	2.164860	0.616281	-0.009449	0.008071	0.000245	74.091953	-76.643541	-120.045879
55623	9.478668	2.164703	0.617229	-0.013840	0.006619	0.001570	74.069185	-76.642907	-120.025488
55624	9.488217	2.134682	0.589406	-0.006805	0.000833	0.000894	74.064723	-76.642850	-120.019672
55625	9.478687	2.164329	0.618248	-0.011427	0.004334	0.002001	74.048354	-76.642811	-120.004437
55626	9.512069	2.167055	0.627148	-0.009423	0.004189	-0.001500	74.036285	-76.640925	-119.992006
55627	9.478602	2.164292	0.619671	-0.011247	0.007846	-0.000948	74.013835	-76.638705	-119.970415
55628	9.528349	2.179311	0.558561	-0.011043	0.006776	0.001019	73.993257	-76.637786	-119.949765
55629	9.474801	2.153844	0.568278	-0.010685	0.013101	0.001785	73.957140	-76.636236	-119.913795
55630	9.499485	2.162398	0.610870	-0.010273	0.011660	-0.000947	73.926874	-76.633456	-119.883390
55631	9.478371	2.163934	0.624443	-0.009067	0.010517	-0.000732	73.899373	-76.630922	-119.855322
55632	9.486989	2.157899	0.592882	-0.011690	0.013176	0.003539	73.861794	-76.630376	-119.818300
55633	9.488776	2.109535	0.603531	-0.010716	0.016989	0.003541	73.815517	-76.629152	-119.771904
55634	9.499312	2.161491	0.616751	-0.009481	0.011962	0.002005	73.783034	-76.627925	-119.738825
55635	9.479120	2.138826	0.635054	-0.010304	0.015548	0.000810	73.742183	-76.625416	-119.697763
55636	9.477243	2.186726	0.627534	-0.009069	0.010521	-0.000727	73.715123	-76.622929	-119.670126
55637	9.491323	2.143042	0.658255	-0.010662	0.009224	0.000042	73.689237	-76.621004	-119.644656
55638	9.486742	2.156684	0.601199	-0.010844	0.005710	0.002989	73.669783	-76.621304	-119.625765
55639	9.499131	2.160597	0.622647	-0.010255	0.007081	0.003973	73.646426	-76.621882	-119.602656
55640	9.507818	2.154562	0.590548	-0.008837	0.005567	-0.000512	73.630846	-76.620273	-119.586450
55641	9.464824	2.181386	0.611576	-0.009870	0.009524	0.002993	73.602730	-76.619913	-119.558222
55642	9.520156	2.158345	0.613202	-0.009871	0.009524	0.002994	73.574950	-76.619593	-119.530506
55643	9.466627	2.132682	0.622799	-0.009282	0.010895	0.003979	73.543335	-76.619546	-119.498334
55644	9.490435	2.164868	0.660749	-0.009872	0.009526	0.002996	73.515640	-76.619222	-119.470328
55645	9.486780	2.154554	0.608199	-0.008249	0.006940	0.000474	73.496149	-76.617887	-119.450011
55646	9.500002	2.134631	0.634191	-0.008665	0.008382	0.003210	73.471575	-76.617875	-119.424864
55647	9.498198	2.182474	0.626135	-0.010635	0.005346	-0.001706	73.455899	-76.615598	-119.409872
55648	9.507788	2.152480	0.598562	-0.009670	0.008454	0.004963	73.429501	-76.616520	-119.382866
55649	9.474433	2.149336	0.591024	-0.008636	0.004498	0.001455	73.414760	-76.616116	-119.367659
55650	9.499055	2.157778	0.633481	-0.008716	0.016858	0.000063	73.372873	-76.612972	-119.324279
55651	9.519161	2.180027	0.618511	-0.009519	0.015857	0.003780	73.329832	-76.611974	-119.280501
55652	9.486622	2.152845	0.616650	-0.007571	0.023485	0.003795	73.270729	-76.609783	-119.219012
55653	9.486565	2.152404	0.619064	-0.010374	0.023334	0.004351	73.209591	-76.607844	-119.157135
55654	9.456699	2.159285	0.666541	-0.011552	0.020596	0.002383	73.155924	-76.605326	-119.103382
55655	9.477694	2.157458	0.656318	-0.004540	0.018683	0.003454	73.109499	-76.603641	-119.053192
55656	9.457432	2.134786	0.674642	-0.006893	0.013205	-0.000489	73.077568	-76.600764	-119.018964
55657	9.447723	2.164372	0.704695	-0.007932	0.017163	0.003024	73.033027	-76.599081	-118.972706
55658	9.477518	2.156802	0.660985	-0.007078	0.009687	0.002453	73.006994	-76.598355	-118.944678
55659	9.465172	2.152511	0.641022	-0.006007	0.001844	-0.002820	73.002903	-76.596027	-118.938869
55660	9.497605	2.179418	0.645485	-0.006040	0.005730	-0.001059	72.988992	-76.594066	-118.923013
55661	9.489688	2.161100	0.683426	-0.004043	0.004880	0.002103	72.975591	-76.593925	-118.906476
55662	9.519546	2.153588	0.638863	-0.006845	0.004727	0.002656	72.960968	-76.594154	-118.890057
55663	9.498496	2.154743	0.651930	-0.005284	0.009912	0.003653	72.934197	-76.594015	-118.860507
55664	9.486200	2.150164	0.632302	-0.010470	0.008167	0.002022	72.910011	-76.593332	-118.836626
55665	9.465038	2.151710	0.645675	-0.008271	0.011545	-0.004418	72.883491	-76.588491	-118.809093
55666	9.465752	2.127991	0.651486	-0.007097	0.014285	-0.002443	72.850439	-76.584317	-118.773727
55667	9.455912	2.158133	0.681271	-0.007852	0.010105	-0.007154	72.829441	-76.578216	-118.751623
55668	9.455696	2.158837	0.682042	-0.008792	0.002405	-0.008929	72.827225	-76.572502	-118.749341
55669	9.488878	2.162337	0.690713	-0.007970	-0.001187	-0.007743	72.832487	-76.567987	-118.754304
55670	9.466783	2.188406	0.698602	-0.008978	-0.001116	-0.005991	72.836125	-76.564473	-118.758209
55671	9.464057	2.154957	0.649221	-0.004731	-0.007071	-0.006135	72.855581	-76.561833	-118.775857
55672	9.506118	2.152532	0.624346	-0.009951	-0.004930	-0.006003	72.867405	-76.558973	-118.788808
55673	9.463886	2.155853	0.648735	-0.008190	-0.000821	-0.003041	72.868366	-76.556971	-118.789478
55674	9.476135	2.160287	0.669385	-0.008576	-0.003267	-0.002066	72.874410	-76.555978	-118.795532
55675	9.471691	2.174626	0.611199	-0.005354	-0.004554	-0.005357	72.887176	-76.553336	-118.806669
55676	9.476027	2.160897	0.668945	-0.008576	-0.003266	-0.002065	72.893242	-76.552344	-118.812640
55677	9.494442	2.125667	0.607433	-0.010372	-0.003489	-0.003262	72.899212	-76.550670	-118.819747
55678	9.484702	2.155672	0.636002	-0.011196	0.000104	-0.004446	72.897736	-76.547816	-118.819551
55679	9.474943	2.185689	0.664781	-0.013999	-0.000048	-0.003891	72.894194	-76.545217	-118.819012
55680	9.475758	2.161953	0.669341	-0.011582	-0.002341	-0.003471	72.897338	-76.543257	-118.823891
55681	9.454643	2.163607	0.681532	-0.008577	-0.003265	-0.002063	72.902976	-76.542201	-118.829598
55682	9.509156	2.164669	0.677538	-0.012991	-0.005431	0.005916	72.905834	-76.545944	-118.834888
55683	9.483772	2.179937	0.631340	-0.007133	-0.009372	-0.001657	72.925994	-76.546139	-118.854676
55684	9.475948	2.161522	0.668051	-0.009768	-0.006717	0.002624	72.935941	-76.548272	-118.865387
55685	9.496207	2.183798	0.651214	-0.007201	-0.001603	0.001874	72.935794	-76.549092	-118.864335
55686	9.476100	2.160943	0.667755	-0.010390	-0.004201	0.003403	72.939089	-76.551237	-118.868568
55687	9.498159	2.135056	0.659838	-0.011012	-0.001685	0.004182	72.935324	-76.553336	-118.866041
55688	9.476304	2.160004	0.667911	-0.011633	0.000831	0.004961	72.925255	-76.555496	-118.857415
55689	9.497463	2.158161	0.655661	-0.008176	-0.005416	0.001862	72.933294	-76.556951	-118.865354
55690	9.463215	2.179326	0.643008	-0.009436	0.004216	-0.001476	72.921274	-76.555011	-118.853298
55691	9.497498	2.157844	0.656194	-0.010425	-0.000316	0.005171	72.914008	-76.557421	-118.846826
55692	9.465112	2.130572	0.652345	-0.012222	-0.000536	0.003976	72.907411	-76.559259	-118.842083
55693	9.476606	2.158457	0.668615	-0.012778	-0.005787	0.001222	72.914113	-76.560427	-118.851359
55694	9.485419	2.152640	0.635576	-0.009000	-0.001821	0.000681	72.914706	-76.560710	-118.851920
55695	9.476642	2.158351	0.668447	-0.010378	-0.003479	-0.003254	72.920647	-76.559038	-118.858999
55696	9.496855	2.180756	0.651956	-0.011635	0.000832	0.004966	72.910588	-76.561194	-118.850215
55697	9.484585	2.176389	0.631373	-0.005777	-0.003106	-0.002614	72.917862	-76.559810	-118.855954
55698	9.486407	2.128116	0.640100	-0.011434	-0.000246	0.006928	72.908972	-76.563233	-118.848473
55699	9.497967	2.155628	0.656684	-0.009839	0.001053	0.006164	72.898196	-76.565956	-118.838047
55700	9.488406	2.184801	0.685607	-0.009034	0.002063	0.002451	72.888544	-76.566550	-118.828385
55701	9.485816	2.150539	0.636764	-0.008244	0.002352	0.005400	72.876237	-76.568634	-118.815445
55702	9.485016	2.174036	0.633003	-0.009067	0.005946	0.004221	72.856341	-76.569529	-118.795512
55703	9.488648	2.183281	0.687094	-0.005238	0.001424	0.006804	72.846882	-76.572537	-118.783731
55704	9.465906	2.126239	0.654950	-0.010075	0.006016	0.005975	72.825122	-76.574380	-118.761931
55705	9.486246	2.148099	0.638600	-0.006600	-0.004835	0.007760	72.828550	-76.578969	-118.764202
55706	9.486420	2.147247	0.638875	-0.005892	0.007823	0.009356	72.802650	-76.582347	-118.735570
55707	9.486533	2.146582	0.639428	-0.006029	0.001137	0.003857	72.795469	-76.583788	-118.726596
55708	9.498105	2.174057	0.656107	-0.008464	0.002712	0.010105	72.779242	-76.588434	-118.709522
55709	9.478132	2.150382	0.673003	-0.007054	0.000485	0.012273	72.766970	-76.594590	-118.695919
55710	9.477519	2.173273	0.668757	-0.008231	-0.002248	0.010297	72.762117	-76.600178	-118.690357
55711	9.445237	2.145514	0.664725	-0.006047	0.000417	0.010521	72.751810	-76.605387	-118.678181
55712	9.499953	2.145598	0.660804	-0.008419	-0.005772	0.013230	72.752779	-76.613172	-118.678988
55713	9.478328	2.169925	0.668166	-0.007380	-0.009723	0.009707	72.765598	-76.619657	-118.691371
55714	9.446086	2.142207	0.663328	-0.010186	-0.009871	0.010266	72.777108	-76.626527	-118.704109
55715	9.467449	2.139740	0.650099	-0.007150	-0.014683	0.009899	72.801370	-76.633957	-118.728117
55716	9.500280	2.165428	0.653151	-0.008978	-0.011017	0.010476	72.816091	-76.641148	-118.743556
55717	9.468058	2.137622	0.648195	-0.007181	-0.010799	0.011673	72.830162	-76.648888	-118.757106
55718	9.455232	2.156296	0.622237	-0.007571	-0.013243	0.012646	72.849347	-76.657641	-118.776125
55719	9.468794	2.135037	0.645958	-0.007760	-0.016766	0.015582	72.874123	-76.668526	-118.801017
55720	9.501725	2.160428	0.648671	-0.008752	-0.015973	0.010673	72.900437	-76.676661	-118.827941
55721	9.481897	2.136655	0.663620	-0.006526	-0.021793	0.014021	72.938743	-76.687532	-118.866007
55722	9.448940	2.132711	0.653196	-0.007708	-0.024523	0.012048	72.984525	-76.697828	-118.912455
55723	9.511632	2.151224	0.610115	-0.006930	-0.019631	0.010104	73.020487	-76.706178	-118.948349
55724	9.504920	2.107743	0.650234	-0.006568	-0.013305	0.010903	73.041785	-76.713971	-118.969184
55725	9.483351	2.132246	0.656982	-0.007751	-0.016035	0.008929	73.069835	-76.721068	-118.997428
55726	9.471245	2.127365	0.635243	-0.005373	-0.009851	0.006214	73.087196	-76.725695	-119.013235
55727	9.504879	2.129167	0.642867	-0.006796	-0.008344	0.010716	73.096698	-76.732487	-119.021860
55728	9.496411	2.134085	0.674880	-0.004342	-0.013800	0.002688	73.126373	-76.735848	-119.049634
55729	9.525527	2.150320	0.624467	-0.006205	-0.006978	0.011706	73.132362	-76.742954	-119.054301
55730	9.492418	2.146491	0.615818	-0.004632	-0.001804	0.012709	73.126955	-76.749792	-119.045869
55731	9.484790	2.127123	0.652816	-0.000996	-0.004530	0.006656	73.133800	-76.753722	-119.048348
55732	9.484985	2.126353	0.652480	-0.001411	-0.003094	0.009401	73.135525	-76.758978	-119.045628
55733	9.486008	2.101522	0.656388	-0.002595	-0.005824	0.007426	73.143929	-76.763545	-119.050651
55734	9.515099	2.117674	0.606497	-0.006017	-0.003453	0.008773	73.144234	-76.768534	-119.049553
55735	9.514475	2.140939	0.601904	-0.000997	-0.004529	0.006657	73.151084	-76.772465	-119.052038
55736	9.506766	2.121881	0.639038	-0.002428	0.001578	0.006261	73.143551	-76.775191	-119.040276
55737	9.527954	2.119576	0.627157	-0.006265	0.005385	0.010354	73.121627	-76.779501	-119.016304
55738	9.485234	2.145591	0.648442	-0.001492	0.013146	0.009819	73.085008	-76.782292	-118.974674
55739	9.465965	2.098090	0.670080	-0.004443	0.001722	0.009777	73.073059	-76.786891	-118.959877
55740	9.506686	2.141954	0.637156	-0.000053	0.002438	0.015116	73.058478	-76.794349	-118.939876
55741	9.507055	2.140289	0.637238	-0.001254	-0.001011	0.019812	73.047571	-76.804903	-118.924273
55742	9.507571	2.138068	0.637000	0.001143	-0.004030	0.026898	73.040418	-76.819891	-118.910914
55743	9.466158	2.138343	0.661022	0.002747	-0.007335	0.031033	73.038553	-76.837651	-118.902244
55744	9.506728	2.074826	0.590828	-0.001666	-0.004167	0.027469	73.029604	-76.852974	-118.888914
55745	9.468835	2.085429	0.669051	-0.002269	0.003667	0.016678	73.009288	-76.861025	-118.864250
55746	9.489339	2.106694	0.652938	-0.000652	0.005678	0.009233	72.990876	-76.864718	-118.840510
55747	9.488714	2.129942	0.649123	-0.006443	0.002593	0.006625	72.977873	-76.867438	-118.825813
55748	9.468586	2.106715	0.666012	-0.003438	0.001657	0.008025	72.968204	-76.871156	-118.812540
55749	9.497714	2.122779	0.616360	-0.003613	-0.005744	0.009191	72.974554	-76.876680	-118.816050
55750	9.477689	2.099339	0.632362	-0.004008	-0.008186	0.010166	72.986130	-76.883207	-118.824938
55751	9.511367	2.100922	0.639819	-0.002189	-0.011852	0.009588	73.007390	-76.889972	-118.842919
55752	9.489921	2.125285	0.646743	-0.004007	-0.012782	0.015072	73.026261	-76.899946	-118.859345
55753	9.470018	2.101465	0.662233	-0.001399	-0.011564	0.012544	73.045214	-76.908280	-118.874491
55754	9.457972	2.096381	0.639951	-0.005751	-0.024633	0.008562	73.095747	-76.916665	-118.924529
55755	9.525107	2.100600	0.654756	-0.008381	-0.017372	0.007963	73.127752	-76.923450	-118.957181
55756	9.512987	2.095727	0.632742	-0.006187	-0.014716	0.008183	73.155003	-76.929977	-118.983562
55757	9.479804	2.092570	0.623029	-0.006368	-0.017516	0.004446	73.191079	-76.934849	-119.019208
55758	9.492385	2.096223	0.642280	-0.010580	-0.015426	0.002846	73.221291	-76.938532	-119.051353
55759	9.480126	2.091917	0.620323	-0.008368	-0.016649	0.001291	73.256463	-76.941521	-119.087247
55760	9.484045	2.101577	0.672129	-0.005529	-0.024266	-0.002820	73.314584	-76.943580	-119.145063
55761	9.459434	2.093150	0.628829	-0.010976	-0.022459	0.008736	73.356785	-76.951596	-119.189704
55762	9.417650	2.095848	0.651341	-0.009331	-0.028205	-0.002258	73.421770	-76.954565	-119.256486
55763	9.452038	2.074368	0.660711	-0.009697	-0.042992	0.000089	73.519593	-76.961154	-119.357468
55764	9.513804	2.117847	0.610959	-0.011885	-0.049515	-0.001886	73.633503	-76.967729	-119.476112
55765	9.521854	2.136328	0.569551	-0.009706	-0.042980	0.000107	73.731486	-76.974242	-119.577258
55766	9.502632	2.089653	0.586798	-0.010929	-0.037948	0.001682	73.816170	-76.980828	-119.665347
55767	9.514612	2.117444	0.599666	-0.011328	-0.040383	0.002668	73.905469	-76.988266	-119.758529
55768	9.452729	2.097667	0.637765	-0.022364	-0.037413	0.002023	73.982278	-76.994886	-119.845180
55769	9.461466	2.092147	0.600973	-0.016116	-0.051263	-0.005205	74.100355	-76.999635	-119.970707
55770	9.523781	2.111949	0.555352	-0.019747	-0.043931	-0.004033	74.198463	-77.003873	-120.077871
55771	9.461765	2.093050	0.593069	-0.018546	-0.044353	-0.010500	74.302345	-77.004524	-120.190256
55772	9.474416	2.097622	0.609400	-0.019336	-0.053815	-0.003614	74.424205	-77.010441	-120.321392
55773	9.483797	2.068616	0.575897	-0.022751	-0.054580	-0.010686	74.550354	-77.012452	-120.459098
55774	9.537464	2.094720	0.562831	-0.020965	-0.049766	-0.014399	74.668808	-77.011665	-120.587861
55775	9.565186	2.136945	0.505202	-0.012174	-0.035300	-0.011810	74.755586	-77.010020	-120.678943
55776	9.536641	2.120590	0.552331	-0.014796	-0.024907	-0.003962	74.811206	-77.011178	-120.739447
55777	9.494809	2.123999	0.575269	-0.012196	-0.023688	-0.006505	74.866672	-77.010682	-120.798406
55778	9.528385	2.126531	0.581632	-0.013799	-0.017965	0.004489	74.900695	-77.015459	-120.836446
55779	9.502663	2.142233	0.534550	-0.013792	-0.025698	0.000962	74.955269	-77.019373	-120.895428
55780	9.486983	2.128555	0.602963	-0.014392	-0.020047	0.010192	74.990350	-77.027581	-120.934754
55781	9.483958	2.093769	0.551701	-0.017788	-0.026134	0.014710	75.034935	-77.039150	-120.985831
55782	9.476111	2.097639	0.582395	-0.013970	-0.030658	0.017282	75.091446	-77.052847	-121.046612
55783	9.464087	2.091893	0.559131	-0.014370	-0.033090	0.018272	75.152675	-77.067389	-121.112751
55784	9.518262	2.115165	0.547522	-0.018384	-0.035937	0.016899	75.219847	-77.081595	-121.187179
55785	9.527148	2.107844	0.511465	-0.014172	-0.034158	0.020253	75.282806	-77.097356	-121.254970
55786	9.549365	2.080422	0.500629	-0.018200	-0.024683	0.017493	75.322802	-77.110243	-121.301357
55787	9.547550	2.150551	0.486963	-0.018403	-0.008144	0.022590	75.319043	-77.123505	-121.303186
55788	9.527953	2.125722	0.503406	-0.019006	-0.005635	0.023378	75.308686	-77.136876	-121.298577
55789	9.550101	2.097937	0.495035	-0.017007	-0.001912	0.021611	75.291200	-77.148689	-121.285505
55790	9.500493	2.104225	0.553703	-0.021224	0.004050	0.021803	75.257054	-77.159815	-121.257776
55791	9.509879	2.072923	0.525540	-0.025254	0.001934	0.013744	75.230458	-77.166706	-121.240207
55792	9.481644	2.054811	0.575900	-0.023667	0.000086	0.004509	75.215505	-77.168806	-121.233787
55793	9.561507	2.015704	0.477140	-0.032333	0.006823	-0.013977	75.190747	-77.159622	-121.222265
55794	9.551975	2.046972	0.508315	-0.033570	0.025627	-0.027147	75.128500	-77.140442	-121.173043
55795	9.542093	2.079389	0.540775	-0.031393	0.033605	-0.038534	75.055344	-77.113708	-121.111321
55796	9.548507	2.102096	0.507969	-0.034440	0.043762	-0.049715	74.963898	-77.079299	-121.032171
55797	9.568066	2.105433	0.500971	-0.039894	0.055495	-0.054593	74.844306	-77.040370	-120.927784
55798	9.554746	2.082790	0.491626	-0.038950	0.076248	-0.060815	74.680726	-76.994863	-120.777401
55799	9.534567	2.147679	0.558446	-0.048455	0.089766	-0.071937	74.487542	-76.941006	-120.602472
55800	9.542574	2.100761	0.543372	-0.049708	0.094829	-0.070285	74.282465	-76.887182	-120.415753
55801	9.528658	2.080089	0.538015	-0.054451	0.116863	-0.088587	74.036298	-76.819618	-120.189862
55802	9.528347	2.145880	0.596091	-0.055332	0.121288	-0.096307	73.787266	-76.746934	-119.961557
55803	9.525565	2.154629	0.608854	-0.056400	0.121433	-0.094426	73.538259	-76.674980	-119.733763
55804	9.542865	2.186136	0.605474	-0.055685	0.126408	-0.096237	73.282320	-76.601037	-119.498451
55805	9.465464	2.170673	0.639172	-0.059570	0.126413	-0.093772	73.024802	-76.528152	-119.263636
55806	9.473188	2.230919	0.665086	-0.056825	0.125870	-0.087575	72.768725	-76.458571	-119.028556
55807	9.492435	2.213395	0.669662	-0.054636	0.120096	-0.084172	72.526656	-76.391536	-118.806589
55808	9.479461	2.168523	0.669586	-0.056335	0.121959	-0.074858	72.275428	-76.329100	-118.575880
55809	9.446150	2.205443	0.723808	-0.051812	0.126248	-0.072347	72.017187	-76.266982	-118.335482
55810	9.421667	2.236741	0.744804	-0.048609	0.119615	-0.064087	71.772017	-76.210357	-118.106651
55811	9.433648	2.197616	0.785726	-0.047675	0.118046	-0.052475	71.523896	-76.160031	-117.874118
55812	9.356148	2.201377	0.812340	-0.044232	0.091247	-0.046644	71.334280	-76.117617	-117.699948
55813	9.447057	2.219788	0.735539	-0.044095	0.074216	-0.040552	71.178273	-76.081452	-117.560108
55814	9.393361	2.254314	0.796662	-0.037867	0.071235	-0.035827	71.029902	-76.048382	-117.424355
55815	9.457581	2.205766	0.775122	-0.040993	0.060107	-0.031275	70.900832	-76.019708	-117.310402
55816	9.454441	2.256295	0.774113	-0.038476	0.064452	-0.025310	70.760071	-75.993446	-117.182954
55817	9.434270	2.211178	0.800748	-0.035845	0.061054	-0.022973	70.626583	-75.968952	-117.061380
55818	9.442419	2.208075	0.773836	-0.028908	0.051670	-0.020898	70.516465	-75.947360	-116.959863
55819	9.464727	2.241373	0.817589	-0.030056	0.059475	-0.015494	70.384772	-75.927082	-116.836697
55820	9.440747	2.211002	0.785794	-0.026169	0.055719	-0.019610	70.267211	-75.905301	-116.725811
55821	9.430741	2.217483	0.824523	-0.027776	0.054423	-0.018842	70.150964	-75.884071	-116.617201
55822	9.409686	2.196298	0.845368	-0.026305	0.037790	-0.025924	70.077282	-75.862293	-116.551538
55823	9.480514	2.215064	0.776417	-0.019792	0.035290	-0.032547	70.017695	-75.837349	-116.496624
55824	9.469278	2.246859	0.809578	-0.025709	0.039975	-0.031521	69.944442	-75.812082	-116.431124
55825	9.425733	2.252025	0.837582	-0.014505	0.033961	-0.039339	69.896412	-75.783715	-116.384992
55826	9.383340	2.233075	0.868109	-0.020317	0.014076	-0.031325	69.881456	-75.763636	-116.376433
55827	9.475608	2.251222	0.784859	-0.016650	0.010610	-0.030768	69.875249	-75.744474	-116.374709
55828	9.465598	2.258773	0.819390	-0.015127	0.015796	-0.029683	69.858423	-75.724931	-116.361052
55829	9.529475	2.235001	0.788847	-0.014006	0.012702	-0.039869	69.856393	-75.700461	-116.362077
55830	9.548434	2.262375	0.775360	-0.007778	0.031212	-0.050598	69.827569	-75.666610	-116.331581
55831	9.512591	2.288629	0.766377	-0.009537	0.043169	-0.057591	69.777865	-75.626584	-116.280752
55832	9.437945	2.301309	0.840076	-0.016566	0.051771	-0.052977	69.703151	-75.587374	-116.208256
55833	9.375940	2.236764	0.891901	-0.012465	0.035590	-0.055955	69.666926	-75.549709	-116.173060
55834	9.416997	2.239857	0.871032	-0.017136	0.023089	-0.050754	69.650484	-75.517391	-116.161073
55835	9.442821	2.311161	0.816809	-0.013751	0.013288	-0.051095	69.656356	-75.486775	-116.170109
55836	9.442684	2.291787	0.822249	-0.014986	0.014453	-0.051264	69.659518	-75.455898	-116.176968
55837	9.462610	2.295702	0.812344	-0.014916	0.021920	-0.052274	69.647732	-75.422928	-116.168453
55838	9.482445	2.299835	0.803006	-0.019389	0.025156	-0.055735	69.629706	-75.387517	-116.156119
55839	9.439564	2.282529	0.834080	-0.021212	0.036298	-0.056095	69.587799	-75.349624	-116.120199
55840	9.415494	2.312612	0.845969	-0.013125	0.034327	-0.056827	69.555554	-75.311783	-116.089664
55841	9.436395	2.292852	0.841590	-0.020665	0.037682	-0.055049	69.510709	-75.274162	-116.050370
55842	9.445396	2.326283	0.862503	-0.015277	0.032521	-0.063648	69.486476	-75.233017	-116.029335
55843	9.433010	2.304091	0.848817	-0.017540	0.033729	-0.062063	69.457163	-75.192415	-116.004238
55844	9.431214	2.310189	0.852191	-0.016200	0.029565	-0.070281	69.443699	-75.148310	-115.994805
55845	9.514415	2.314187	0.807812	-0.010185	0.033242	-0.078870	69.432557	-75.098787	-115.984139
55846	9.599531	2.328646	0.818405	-0.003207	0.054651	-0.106288	69.403450	-75.030298	-115.950756
55847	9.488807	2.310233	0.833636	0.004203	0.068282	-0.118483	69.360553	-74.952460	-115.898672
55848	9.503639	2.206756	0.880097	0.013110	0.075612	-0.153857	69.335463	-74.854242	-115.859683
55849	9.397533	2.349796	0.948619	0.034877	0.085201	-0.168619	69.315035	-74.746092	-115.812624
55850	9.576013	2.146261	0.894578	0.034541	0.073045	-0.204963	69.345621	-74.620976	-115.818712
55851	9.514463	2.278462	0.995784	0.067994	0.076351	-0.236633	69.411404	-74.478150	-115.841353
55852	9.625302	2.133048	0.969435	0.107620	0.090728	-0.282338	69.504476	-74.307969	-115.868791
55853	9.497813	2.325245	0.953224	0.132498	0.080531	-0.323138	69.658161	-74.117839	-115.944410
55854	9.668055	2.375485	0.827619	0.141002	0.096735	-0.365290	69.812881	-73.901863	-116.016577
55855	9.717591	2.700878	0.882922	0.077685	0.058501	-0.442157	70.050273	-73.651888	-116.212247
55856	9.683693	2.362544	0.812492	0.199850	0.191797	-0.529629	70.167061	-73.328726	-116.209488
55857	10.447385	2.468024	1.182418	0.040219	0.148617	-0.591510	70.306335	-72.980473	-116.325702
55858	9.845240	2.755855	1.043965	0.180092	0.215135	-0.692769	70.467350	-72.564790	-116.381314
55859	9.860266	2.576330	0.870675	0.121177	0.216509	-0.756879	70.625555	-72.114064	-116.469230
55860	9.827083	2.926812	1.030640	0.128139	0.222487	-0.813592	70.804506	-71.631544	-116.574972
55861	10.093139	2.847716	1.070268	0.131802	0.183877	-0.852678	71.060869	-71.134879	-116.760523
55862	9.722999	2.933003	1.012619	0.122998	0.182937	-0.900663	71.327899	-70.612183	-116.963002
55863	10.027579	2.977283	1.652405	0.102079	0.169862	-0.940871	71.610441	-70.069625	-117.195611
55864	9.930330	2.671143	0.985811	0.227443	0.224801	-0.992936	71.895282	-69.488623	-117.354909
55865	9.602624	3.731409	0.847757	0.172550	0.127961	-1.064154	72.306481	-68.885396	-117.683692
55866	10.248942	3.299005	0.733462	0.131297	0.166449	-1.138005	72.652995	-68.234525	-117.969937
55867	9.540398	3.478730	1.011133	0.135305	0.205434	-1.209256	72.960830	-67.537361	-118.213131
55868	9.552428	3.363607	1.202918	0.113436	0.196282	-1.260474	73.271768	-66.813282	-118.474483
55869	9.175738	3.534897	1.280998	0.145112	0.187004	-1.300974	73.609735	-66.067786	-118.747015
55870	9.061121	3.596917	1.312449	0.132822	0.144638	-1.338207	73.986587	-65.308059	-119.071525
55871	8.923375	3.763171	1.375936	0.154793	0.120039	-1.362601	74.391694	-64.537684	-119.415340
55872	8.968751	3.989298	1.385202	0.151229	0.096553	-1.387186	74.807305	-63.756428	-119.775312
55873	9.134218	3.986470	1.352648	0.148235	0.103115	-1.402564	75.196419	-62.964456	-120.110012
55874	9.243541	4.216659	1.499651	0.166565	0.143552	-1.415018	75.536592	-62.158944	-120.380121
55875	9.489925	3.987283	1.713618	0.156163	0.221567	-1.404088	75.771627	-61.347655	-120.539674
55876	8.513371	4.350342	1.389463	0.256027	0.284675	-1.406492	75.990983	-60.526088	-120.617083
55877	7.706551	4.417709	1.129456	0.248967	0.213340	-1.414252	76.268719	-59.709677	-120.767108
55878	7.909268	4.797542	1.115310	0.234225	0.140085	-1.412467	76.594981	-58.903894	-120.984639
55879	7.810027	5.126033	0.931326	0.280958	0.038983	-1.414695	77.025990	-58.109196	-121.295440
55880	8.293783	5.084089	1.103484	0.167330	-0.120880	-1.424281	77.517172	-57.328200	-121.757090
55881	8.560256	5.138620	1.053771	0.254660	-0.026189	-1.432063	77.956943	-56.529188	-122.101782
55882	8.233032	5.275906	0.941925	0.202592	-0.048156	-1.452583	78.371332	-55.720035	-122.455046
55883	8.314713	5.529384	0.978374	0.190382	-0.038925	-1.474474	78.757740	-54.896019	-122.786241
55884	8.196044	5.315950	0.866481	0.184500	0.006418	-1.501310	79.093699	-54.050920	-123.062988
55885	7.772388	5.659774	1.155310	0.182919	0.000405	-1.513053	79.421415	-53.198769	-123.333622
55886	8.037604	5.566279	1.182399	0.173730	-0.006537	-1.518657	79.736891	-52.343463	-123.598518
55887	8.015800	5.662436	1.273372	0.201858	0.037054	-1.519397	80.024949	-51.482349	-123.811194
55888	7.656421	5.887769	1.209720	0.226631	0.053793	-1.527402	80.306148	-50.614617	-123.999360
55889	7.367679	5.954615	1.070066	0.232730	0.032769	-1.525166	80.595145	-49.749390	-124.195490
55890	7.662601	6.066831	1.116149	0.233547	0.030258	-1.530036	80.877275	-48.881207	-124.384466
55891	7.600759	6.066754	1.233655	0.262581	0.052142	-1.539642	81.153867	-48.004858	-124.546348
55892	7.540753	6.307532	1.378272	0.295162	0.077521	-1.531978	81.424481	-47.130337	-124.677077
55893	7.326407	6.431509	1.431427	0.312116	0.113799	-1.500091	81.673001	-46.270250	-124.765955
55894	6.965782	6.371674	1.080234	0.353959	0.134882	-1.469473	81.924865	-45.425746	-124.827363
55895	6.808386	6.717524	1.107858	0.350754	0.134239	-1.444373	82.168316	-44.595159	-124.880354
55896	6.696805	6.755232	1.015998	0.356492	0.153646	-1.409426	82.397362	-43.782976	-124.908753
55897	6.802188	6.846779	1.028887	0.363782	0.196499	-1.395278	82.603095	-42.975350	-124.897535
55898	6.750550	7.142346	0.954732	0.402844	0.225259	-1.365396	82.811740	-42.182857	-124.857392
55899	6.684977	7.204783	0.862608	0.383488	0.211739	-1.345155	83.013073	-41.402732	-124.822289
55900	6.654554	7.238969	0.803731	0.389776	0.211056	-1.340740	83.216337	-40.625472	-124.784110
55901	6.738740	7.231147	0.738116	0.403248	0.256904	-1.346181	83.403974	-39.841950	-124.709159
55902	6.592727	7.474749	0.798479	0.396459	0.300858	-1.347422	83.566578	-39.055261	-124.599706
55903	6.493273	7.578643	0.809855	0.374960	0.301476	-1.372939	83.718076	-38.254018	-124.490293
55904	6.915470	7.507926	0.769246	0.365364	0.352223	-1.415494	83.844157	-37.425823	-124.346432
55905	6.539323	7.743193	0.576181	0.361633	0.399545	-1.458949	83.951139	-36.569995	-124.171583
55906	6.404024	8.253407	0.446463	0.355092	0.361334	-1.510937	84.074586	-35.687356	-124.027415
55907	6.296090	8.205479	0.205397	0.299000	0.276916	-1.568343	84.203616	-34.776948	-123.945443
55908	6.261137	8.279835	0.165594	0.253434	0.203239	-1.642287	84.338301	-33.829013	-123.917880
55909	6.258926	8.590432	0.236714	0.234970	0.173098	-1.711122	84.475279	-32.843309	-123.913049
55910	6.454759	8.506380	0.233221	0.140078	0.138857	-1.790576	84.571887	-31.814443	-123.934219
55911	6.678247	8.502134	0.307741	0.121178	0.200374	-1.882461	84.637956	-30.729554	-123.918104
55912	6.145572	8.547822	0.183855	0.074777	0.195666	-1.992021	84.682227	-29.582733	-123.910912
55913	5.781063	8.572674	0.101245	0.060991	0.145000	-2.132901	84.738262	-28.357916	-123.944120
55914	6.462274	8.800627	0.464472	-0.035154	0.013995	-2.263547	84.780784	-27.065720	-124.067990
55915	7.627891	8.465170	0.823502	-0.047218	0.134351	-2.401183	84.782331	-25.688346	-124.121104
55916	7.637150	8.787913	1.029007	-0.025724	0.329249	-2.532193	84.746466	-24.226447	-124.059046
55917	6.630647	8.916546	0.738730	0.007933	0.426373	-2.634099	84.710226	-22.700857	-123.944059
55918	5.435127	8.923150	0.674458	0.002190	0.330092	-2.740518	84.698764	-21.120090	-123.896427
55919	5.046040	8.806363	0.599576	-0.000313	0.166640	-2.860355	84.723971	-19.479103	-123.955175
55920	5.350855	8.890318	0.761156	0.002712	0.054563	-2.969259	84.772336	-17.782360	-124.085825
55921	5.770430	8.731166	0.810349	-0.036357	0.028739	-3.070303	84.799843	-16.028688	-124.234835
55922	5.680830	8.707007	0.661334	0.008590	0.095358	-3.176119	84.839328	-14.211721	-124.347868
55923	5.026914	8.795060	0.468768	-0.019606	0.099652	-3.273270	84.859196	-12.338425	-124.461517
55924	3.921865	8.570753	0.070518	-0.057610	0.029466	-3.376861	84.862605	-10.410298	-124.620357
55925	2.980787	8.567550	-0.286732	-0.110047	-0.122337	-3.518138	84.845936	-8.408663	-124.873465
55926	1.991801	8.633193	-0.635102	-0.191525	-0.331147	-3.629809	84.790041	-6.355026	-125.252625
55927	0.969205	8.639748	-0.831478	-0.295803	-0.541794	-3.682527	84.672279	-4.282202	-125.756748
55928	0.008190	8.399249	-0.800864	-0.422954	-0.721991	-3.682583	84.469813	-2.221292	-126.368374
55929	2.267818	7.492217	1.263290	-0.797387	-1.260433	-3.276866	84.038821	-0.425179	-127.274202
55930	7.874663	10.057036	-0.822823	-1.152209	-1.701375	-1.993256	83.382167	0.602757	-128.367475
55931	10.228850	9.121435	1.008181	-1.528040	-2.211772	-0.672860	82.495322	0.829904	-129.671719
55932	10.862017	6.018987	1.338383	-1.646434	-2.144995	0.667945	81.546002	0.279571	-130.835002
55933	10.463950	5.284725	1.514512	-1.501372	-1.693306	1.975331	80.695575	-0.988052	-131.618001
55934	9.918830	6.282135	1.429494	-1.326470	-1.161956	3.123728	79.952760	-2.865259	-131.973009
55935	9.133781	6.654018	1.376267	-1.086923	-0.733544	4.009048	79.334892	-5.200020	-131.972667
55936	8.165403	7.015319	1.392694	-0.778801	-0.374385	4.649752	78.860259	-7.857902	-131.676966
55937	7.487468	7.497861	1.459739	-0.498434	-0.071415	5.027625	78.493661	-10.690111	-131.143739
55938	6.538189	8.725841	1.477840	-0.267789	0.269158	5.168827	78.184228	-13.560871	-130.376576
55939	5.169086	9.381916	1.544068	-0.160895	0.575340	5.060110	77.850013	-16.328151	-129.419033
55940	3.641938	9.329808	1.525538	-0.082394	0.783158	4.649299	77.488554	-18.836407	-128.362009
55941	2.499710	8.890124	1.383368	-0.008737	0.883278	4.064165	77.123916	-20.996537	-127.291821
55942	1.752793	8.313972	1.266044	0.094212	0.912140	3.479711	76.797034	-22.822604	-126.257707
55943	1.390852	7.893449	1.265239	0.211411	0.824004	2.978661	76.550237	-24.374090	-125.326215
55944	1.712380	7.672504	1.246042	0.328992	0.635277	2.587295	76.416109	-25.731947	-124.552539
55945	2.284986	7.585611	1.320191	0.398302	0.394167	2.299022	76.386831	-26.958751	-123.961065
55946	2.933470	7.725762	1.459993	0.398491	0.121559	2.122609	76.435532	-28.126031	-123.561860
55947	3.922487	7.914066	1.689443	0.315377	-0.137361	2.035113	76.513358	-29.277711	-123.337238
55948	4.862338	7.833782	1.945697	0.183212	-0.347475	2.043618	76.577719	-30.464308	-123.245730
55949	5.852720	7.535300	2.057443	0.026258	-0.506792	2.137260	76.596292	-31.722403	-123.242876
55950	6.763624	6.950540	2.094039	-0.103956	-0.574035	2.281327	76.551742	-33.071681	-123.261672
55951	6.983132	6.419947	2.056594	-0.178643	-0.579692	2.423491	76.453070	-34.498987	-123.259308
55952	6.733776	5.982592	2.055270	-0.229285	-0.571661	2.530229	76.309956	-35.986661	-123.230461
55953	6.493888	5.600406	2.034470	-0.241717	-0.592722	2.582982	76.159186	-37.504476	-123.201596
55954	6.362244	5.349214	1.966450	-0.217425	-0.620306	2.570578	76.031995	-39.021216	-123.189515
55955	6.331719	5.085927	1.963117	-0.185067	-0.637378	2.530463	75.932873	-40.515917	-123.192512
55956	6.570805	5.104632	1.479082	-0.113983	-0.632089	2.489847	75.875250	-41.989453	-123.196833
55957	6.478529	4.716164	2.213446	-0.113214	-0.675142	2.439309	75.845724	-43.438797	-123.241558
55958	6.869681	4.948004	1.970823	-0.028093	-0.681871	2.420050	75.872806	-44.880577	-123.296632
55959	7.169275	4.721595	1.841628	0.003281	-0.686347	2.407738	75.925097	-46.313919	-123.360185
55960	7.396229	4.656171	1.744637	0.049673	-0.678706	2.399243	76.004801	-47.743673	-123.423679
55961	7.389686	4.971055	1.822588	0.106466	-0.669178	2.380432	76.119066	-49.159329	-123.488158
55962	7.589620	5.131690	1.726910	0.119560	-0.701831	2.392350	76.266782	-50.588275	-123.585526
55963	7.875374	5.184411	1.635251	0.116243	-0.730126	2.412733	76.437669	-52.029921	-123.712709
55964	8.159952	5.165141	1.535667	0.123666	-0.727669	2.446017	76.616267	-53.491863	-123.842075
55965	8.387053	5.192148	1.464466	0.131949	-0.719006	2.475857	76.799509	-54.966722	-123.968560
55966	8.519157	5.284161	1.297724	0.118058	-0.706655	2.512903	76.970115	-56.462768	-124.087440
55967	8.569573	5.243124	1.212371	0.131700	-0.690554	2.540886	77.141667	-57.969810	-124.195774
55968	8.639380	5.118095	1.063599	0.146647	-0.674765	2.548982	77.318623	-59.481563	-124.298967
55969	8.767453	5.024577	0.989314	0.172669	-0.648905	2.540570	77.500748	-60.982837	-124.389029
55970	8.743732	5.354559	1.111831	0.203651	-0.626584	2.511275	77.698342	-62.467192	-124.475526
55971	8.725528	5.971193	1.244137	0.183504	-0.652075	2.469794	77.938666	-63.928854	-124.621359
55972	8.786333	6.210813	1.291711	0.120808	-0.700716	2.437879	78.231708	-65.380404	-124.863770
55973	9.031490	6.228684	1.282376	0.063121	-0.741952	2.405858	78.585675	-66.815777	-125.205881
55974	9.283644	6.164639	1.261414	0.017474	-0.752447	2.364637	78.984026	-68.230496	-125.620988
55975	9.405474	6.111946	1.165639	0.003707	-0.737699	2.321173	79.419740	-69.615699	-126.080270
55976	9.373080	6.176547	1.160588	-0.003320	-0.733361	2.268594	79.924259	-70.971624	-126.613109
55977	9.495857	6.231933	1.072004	-0.002266	-0.749615	2.234389	80.546515	-72.305788	-127.264796
55978	9.918252	6.186269	1.084943	0.012245	-0.753261	2.215671	81.293417	-73.629255	-128.033579
55979	10.280011	6.354485	1.174028	0.036211	-0.718838	2.233902	82.108350	-74.954923	-128.853322
55980	10.529706	6.477907	1.290374	0.045200	-0.666259	2.270985	82.953584	-76.296376	-129.694130
55981	10.402680	6.562684	1.344730	0.055785	-0.614581	2.309172	83.841188	-77.650870	-130.567174
55982	10.205688	6.695445	1.363860	0.059301	-0.591435	2.328680	84.874937	-79.013550	-131.583056
55983	9.988226	6.669392	1.405076	0.059567	-0.595988	2.339237	86.208654	-80.376128	-132.898770
55984	9.891068	6.647032	1.402046	0.051091	-0.594315	2.338531	87.967276	-81.733135	-134.644398
55985	9.811867	6.672282	1.327675	0.048013	-0.583332	2.304304	90.351369	-83.058222	-137.016678
55986	9.705158	6.645422	1.315839	0.046680	-0.544073	2.254589	93.604137	-84.340254	-140.257214
55987	9.454184	6.580788	1.207975	0.040176	-0.479936	2.172929	98.158300	-85.551352	-144.800750
55988	9.178362	6.650490	1.176433	0.041985	-0.408460	2.073471	105.077504	-86.671069	-151.706561
55989	8.932880	6.578852	1.079210	0.040154	-0.372146	1.980322	117.424801	-87.657104	-164.040385
55990	9.016716	6.829145	0.998203	0.044007	-0.354719	1.896390	142.278011	-88.378970	171.122594
55991	8.856624	6.917458	1.018152	0.030332	-0.405766	1.844087	-177.545359	-88.484709	130.954519
55992	8.664521	6.988568	1.125124	0.000425	-0.477165	1.801664	-148.434826	-87.903159	101.835658
55993	8.533643	6.912614	1.250882	-0.034745	-0.501228	1.749315	-134.651527	-87.049584	88.024567
55994	8.291192	6.816282	1.341846	-0.081161	-0.446783	1.638084	-127.517547	-86.172503	80.836708
55995	8.007848	6.635152	1.373795	-0.110111	-0.318855	1.462036	-123.033256	-85.383200	76.282089
55996	7.818111	6.888176	1.286206	-0.134591	-0.147217	1.241816	-119.649843	-84.731769	72.813706
55997	7.441032	7.245834	0.954336	-0.168758	0.013749	1.012865	-116.822095	-84.224673	69.880692
55998	6.845162	7.471460	0.575328	-0.230128	0.100853	0.809308	-114.523682	-83.832338	67.442220
55999	6.242615	7.787247	0.299372	-0.310498	0.108020	0.614172	-112.899314	-83.535561	65.633984
56000	5.615183	8.243183	0.112250	-0.419815	0.017694	0.455661	-112.180948	-83.299221	64.673794
56001	19.956261	-3.578261	2.829603	-1.942697	-1.746865	-0.954780	-123.017711	-83.321015	74.468809
56002	7.749302	-1.372737	-3.634211	0.935169	2.467274	-1.273907	-113.983586	-84.641795	65.929251
56003	9.778168	-13.109197	-2.964307	-2.095085	0.301699	-1.291573	-117.035198	-85.384782	67.792464
56004	14.962439	-5.807675	-3.970335	0.756736	1.569411	-1.159280	-108.685292	-86.349268	59.860901
56005	9.298140	1.507426	-0.194143	-0.427016	1.022471	-1.000880	-101.698960	-87.058065	52.623099
56006	9.664897	2.049829	1.146410	0.069754	0.719573	-0.873517	-94.362480	-87.612915	45.323830
56007	13.199326	-1.169769	-2.545616	-0.380327	0.436394	-0.948891	-88.083769	-88.162917	38.827879
56008	12.968790	-0.624246	-1.845326	-0.089417	1.272712	-0.929899	-58.776410	-88.476066	9.462346
56009	10.117959	-0.449398	-1.325131	-0.009761	1.517982	-0.854726	-26.100436	-88.150996	-23.227499
56010	6.405901	-2.472867	-0.479548	0.192379	1.159504	-0.924544	-6.851632	-87.656697	-42.373429
56011	9.976478	0.359106	0.640011	0.512108	0.828772	-0.994303	6.177924	-87.181361	-55.117274
56012	10.406952	1.209689	2.015712	0.366841	0.939563	-0.940306	14.339603	-86.553375	-63.075454
56013	9.154352	1.035086	2.777049	0.213966	0.749743	-0.887546	19.980823	-85.991306	-68.600682
56014	9.379960	1.218540	2.734063	0.062036	0.503237	-0.870402	24.766999	-85.533527	-73.359214
56015	9.152782	0.621947	1.902499	-0.020979	0.273168	-0.862804	29.298541	-85.168236	-77.912717
56016	10.142099	1.112079	1.277488	-0.035279	0.088492	-0.804578	33.501310	-84.883581	-82.146556
56017	10.199646	0.819780	0.653397	-0.065780	0.073866	-0.735593	36.942909	-84.604935	-85.635491
56018	10.127619	0.769162	0.587176	0.000725	0.022994	-0.680076	40.017462	-84.351058	-88.718860
56019	10.494433	1.207994	0.809589	0.029081	0.009097	-0.611933	42.608453	-84.114797	-91.301246
56020	10.356615	1.198597	0.947952	0.006089	-0.004745	-0.543131	44.776364	-83.900756	-93.472458
56021	10.238009	1.182615	0.874652	-0.010630	-0.015028	-0.485267	46.616241	-83.706981	-95.324237
56022	10.327329	1.202664	0.702663	-0.029681	-0.019839	-0.434043	48.181714	-83.530601	-96.911475
56023	10.196243	0.939509	0.477635	-0.028942	0.023185	-0.398393	49.386411	-83.349373	-98.135767
56024	9.980488	0.872077	0.443636	-0.005139	0.068087	-0.379464	50.318672	-83.157033	-99.072382
56025	10.104145	1.162756	0.647786	0.022607	0.071668	-0.347049	51.106026	-82.976386	-99.847449
56026	10.056759	1.292505	0.847592	0.014462	0.077997	-0.301721	51.701572	-82.812415	-100.434138
56027	9.842213	1.182763	1.015929	0.001433	0.061190	-0.266000	52.223300	-82.670047	-100.954211
56028	9.653213	1.201011	1.045934	-0.018965	0.014917	-0.242097	52.813381	-82.553785	-101.555068
56029	9.498893	1.056731	0.974271	-0.037058	-0.023048	-0.239500	53.498116	-82.451171	-102.262078
56030	9.393210	0.921975	0.784893	-0.034608	-0.051534	-0.257476	54.310604	-82.348370	-103.096648
56031	9.395787	0.894881	0.751273	-0.026174	-0.063335	-0.285631	55.212631	-82.234940	-104.016985
56032	9.354060	0.895344	0.685414	-0.019271	-0.059128	-0.317386	56.152455	-82.102867	-104.971678
56033	9.196718	0.810652	0.637376	-0.016994	-0.053534	-0.367270	57.151501	-81.943263	-105.985264
56034	9.076101	0.777206	0.594246	-0.008621	-0.035001	-0.429984	58.186016	-81.744860	-107.030212
56035	8.958454	0.811218	0.689457	-0.004330	-0.022955	-0.500920	59.272370	-81.505712	-108.125723
56036	8.917967	0.811974	0.684387	-0.006288	-0.008521	-0.578366	60.394672	-81.220730	-109.259408
56037	8.847010	0.893099	0.664907	-0.001821	0.003392	-0.662762	61.553890	-80.887102	-110.428888
56038	8.894825	0.952809	0.661739	0.001163	0.014574	-0.746707	62.731474	-80.504041	-111.616352
56039	8.901023	1.073229	0.679864	0.007510	0.031211	-0.832260	63.894421	-80.069336	-112.786764
56040	9.120368	1.300560	0.762123	0.004146	0.056901	-0.920616	65.002258	-79.578512	-113.904734
56041	11.599740	2.615586	1.709991	-0.109157	0.080701	-0.924949	65.886313	-79.076682	-114.862894
56042	12.980656	3.127070	0.594369	-0.438877	0.050358	-0.689328	66.317184	-78.703037	-115.553091
56043	11.243595	2.347160	-0.386552	-0.354969	0.226455	-0.403274	65.990172	-78.438685	-115.421857
56044	10.204621	2.172459	0.276021	-0.286811	0.277507	-0.320088	65.491351	-78.205287	-115.075111
56045	9.969813	2.262559	1.037240	-0.137245	0.380061	-0.270692	64.786668	-77.972436	-114.430178
56046	9.050255	2.124428	1.555024	-0.204711	0.179638	-0.232830	64.504663	-77.806923	-114.256512
56047	9.864600	2.339678	1.217865	-0.143347	0.033644	-0.189571	64.559173	-77.699990	-114.391217
56048	9.573105	2.255946	0.973784	-0.153610	0.005553	-0.103507	64.577065	-77.644151	-114.494415
56049	9.629172	1.859069	0.807001	-0.108313	-0.026023	-0.083228	64.671230	-77.606874	-114.649233
56050	9.412222	2.029599	1.058792	-0.078183	-0.019545	-0.066619	64.749106	-77.576226	-114.769631
56051	9.503195	1.903487	0.929637	-0.077637	-0.061547	-0.056860	64.913939	-77.561158	-114.978850
56052	9.469794	1.882271	0.917687	-0.063665	-0.070713	-0.046053	65.096930	-77.553437	-115.198388
56053	9.535722	1.936654	0.925899	-0.047168	-0.073670	-0.037766	65.286277	-77.550932	-115.414846
56054	9.565765	1.936534	0.873900	-0.042969	-0.080796	-0.031720	65.489083	-77.552766	-115.642540
56055	9.595174	1.984461	0.818360	-0.034030	-0.067731	-0.021925	65.654876	-77.556807	-115.827166
56056	9.542159	1.888418	0.823882	-0.034003	-0.055280	-0.022589	65.792823	-77.557109	-115.983175
56057	9.481653	1.944690	0.906960	-0.035073	-0.051435	-0.018753	65.916168	-77.558794	-116.124943
56058	9.457606	1.918208	0.862056	-0.050338	-0.064269	-0.017551	66.060818	-77.563672	-116.297397
56059	9.479585	1.870576	0.847926	-0.059532	-0.072290	-0.027157	66.228653	-77.565630	-116.499071
56060	9.470867	1.875250	0.875525	-0.062985	-0.072584	-0.034140	66.403322	-77.563506	-116.709685
56061	9.480762	1.802819	0.841274	-0.068763	-0.084059	-0.038683	66.605865	-77.561823	-116.952318
56062	9.469580	1.954496	0.857901	-0.057827	-0.072654	-0.043138	66.792711	-77.554677	-117.172382
56063	9.407152	1.910968	0.891420	-0.075617	-0.103042	-0.045306	67.043172	-77.553391	-117.468116
56064	9.511109	1.985355	0.815348	-0.073625	-0.119239	-0.050151	67.339102	-77.552479	-117.809165
56065	9.726891	1.929984	0.597766	-0.068909	-0.102833	-0.048343	67.595778	-77.548928	-118.107331
56066	9.452574	1.949531	0.894423	-0.056138	-0.064838	-0.037777	67.758754	-77.542113	-118.301971
56067	9.494519	1.951869	0.863001	-0.074562	-0.100268	-0.042904	68.000367	-77.540434	-118.588039
56068	9.570487	1.946548	0.696734	-0.070220	-0.092868	-0.050903	68.234978	-77.532300	-118.864314
56069	9.574064	1.954640	0.744361	-0.062173	-0.073964	-0.050724	68.427441	-77.520406	-119.092790
56070	9.572582	2.007640	0.736024	-0.063811	-0.059024	-0.048596	68.581303	-77.505995	-119.282624
56071	9.518533	1.962531	0.739507	-0.060689	-0.046658	-0.054727	68.711817	-77.485996	-119.446803
56072	9.480478	1.947227	0.817371	-0.067913	-0.044373	-0.055236	68.833428	-77.464806	-119.606035
56073	9.549460	2.022056	0.738166	-0.068593	-0.058022	-0.055521	68.986505	-77.446563	-119.797992
56074	9.548764	2.026559	0.734823	-0.065294	-0.040364	-0.049113	69.093423	-77.427665	-119.940658
56075	9.527718	2.006612	0.746308	-0.065116	-0.041528	-0.047174	69.200391	-77.410354	-120.083358
56076	9.556433	2.008243	0.697866	-0.060806	-0.036290	-0.041910	69.292872	-77.394376	-120.208615
56077	9.569055	1.988767	0.717902	-0.049701	-0.035788	-0.035255	69.383538	-77.382190	-120.325577
56078	9.559542	2.018276	0.747955	-0.041847	-0.023277	-0.041018	69.454424	-77.363987	-120.417586
56079	9.558212	2.046424	0.745447	-0.054216	-0.018777	-0.045698	69.510705	-77.342717	-120.501975
56080	9.516265	2.026235	0.771111	-0.049499	-0.023468	-0.040634	69.576859	-77.324712	-120.593641
56081	9.565324	2.051276	0.709591	-0.043541	-0.026691	-0.026871	69.641009	-77.315093	-120.679838
56082	9.586516	2.028728	0.697475	-0.027849	-0.008718	-0.020476	69.666221	-77.304939	-120.716831
56083	9.515027	2.033218	0.768009	-0.026420	-0.017540	-0.029124	69.720144	-77.292261	-120.782496
56084	9.502090	2.033782	0.745929	-0.029110	-0.019894	-0.019849	69.770582	-77.284647	-120.846092
56085	9.472652	2.037354	0.790058	-0.029752	-0.033552	-0.020187	69.852717	-77.279912	-120.942639
56086	9.523287	2.012686	0.730021	-0.036161	-0.038727	-0.021735	69.945492	-77.274951	-121.053783
56087	9.501535	2.039143	0.738317	-0.033488	-0.037453	-0.024343	70.038245	-77.268676	-121.163415
56088	9.490083	1.990809	0.717309	-0.039688	-0.040059	-0.022002	70.132236	-77.263751	-121.277882
56089	9.544235	1.994428	0.709580	-0.041577	-0.046540	-0.033692	70.249836	-77.254117	-121.417745
56090	9.520905	2.070553	0.715043	-0.034968	-0.033923	-0.032896	70.340962	-77.242039	-121.526511
56091	9.592024	2.047059	0.642972	-0.046526	-0.025580	-0.032617	70.404489	-77.228854	-121.613852
56092	9.516214	2.048546	0.659500	-0.047131	-0.006960	-0.030334	70.421974	-77.212930	-121.654263
56093	9.508131	2.028212	0.694737	-0.052295	-0.005818	-0.027824	70.430907	-77.198521	-121.689019
56094	9.548648	2.054622	0.668816	-0.048785	-0.000705	-0.025529	70.428431	-77.183988	-121.709936
56095	9.518984	2.058388	0.716141	-0.042594	0.005677	-0.025863	70.413932	-77.168432	-121.714965
56096	9.498264	2.036369	0.731116	-0.044264	-0.003096	-0.029028	70.422628	-77.152469	-121.744686
56097	9.510320	2.040333	0.752563	-0.037869	-0.001666	-0.029461	70.431212	-77.136379	-121.770615
56098	9.497825	2.017040	0.733736	-0.037463	0.000815	-0.030313	70.435545	-77.118971	-121.791867
56099	9.505395	2.018518	0.700767	-0.036663	-0.005482	-0.037996	70.460876	-77.099002	-121.834272
56100	9.549279	2.073558	0.727561	-0.026131	-0.001426	-0.037117	70.482549	-77.078346	-121.866656
56101	9.511402	2.047926	0.667082	-0.034394	0.004581	-0.033766	70.481799	-77.058730	-121.880973
56102	9.521745	2.101066	0.686813	-0.029233	0.010963	-0.032276	70.468472	-77.038316	-121.879273
56103	9.534399	2.080939	0.710974	-0.029445	0.019670	-0.030170	70.432201	-77.017750	-121.854231
56104	9.445818	2.080142	0.709841	-0.029429	0.022294	-0.021544	70.383432	-77.000950	-121.816272
56105	9.513047	2.060583	0.729917	-0.030872	0.016071	-0.020845	70.347177	-76.986101	-121.792083
56106	9.499933	2.060750	0.710947	-0.025074	0.011346	-0.017685	70.323414	-76.973484	-121.777224
56107	9.462078	2.064895	0.792077	-0.028377	0.008795	-0.016084	70.301685	-76.962603	-121.766474
56108	9.490898	2.064700	0.747137	-0.021954	0.005341	-0.011902	70.288929	-76.954262	-121.761077
56109	9.469733	2.065645	0.760471	-0.018850	0.000468	-0.012748	70.289290	-76.946788	-121.767399
56110	9.503042	2.068068	0.768626	-0.015724	-0.009292	-0.008971	70.311699	-76.942854	-121.794437
56111	9.460382	2.092881	0.791937	-0.011162	-0.012822	-0.005881	70.341642	-76.941648	-121.826604
56112	9.489550	2.092129	0.744195	-0.013628	-0.026548	-0.007356	70.404028	-76.941897	-121.893448
56113	9.530544	2.117176	0.715606	-0.008873	-0.022648	-0.005012	70.457427	-76.943032	-121.948348
56114	9.497974	2.091320	0.706956	-0.017958	-0.017863	0.002057	70.489356	-76.946674	-121.986473
56115	9.455536	2.115517	0.729236	-0.011556	-0.027672	-0.004377	70.552431	-76.949093	-122.052882
56116	9.420076	2.069207	0.808712	-0.022893	-0.034069	0.005103	70.616881	-76.957448	-122.127290
56117	9.356416	2.116488	0.840655	-0.034004	-0.057786	0.015122	70.721578	-76.976081	-122.249618
56118	9.389750	2.015651	0.793105	-0.042648	-0.087632	0.023290	70.885649	-77.004301	-122.437879
56119	9.482467	2.012392	0.700694	-0.044755	-0.102581	0.019026	71.087228	-77.033257	-122.665927
56120	9.503506	2.035103	0.678042	-0.030130	-0.098490	0.012600	71.294277	-77.057399	-122.890889
56121	9.537885	2.035496	0.677627	-0.030396	-0.092373	0.006131	71.491960	-77.077123	-123.106453
56122	9.554667	2.032351	0.603108	-0.023812	-0.074890	0.002290	71.656211	-77.091050	-123.283759
56123	9.554170	2.056879	0.596490	-0.023462	-0.050277	-0.008474	71.770301	-77.094991	-123.409466
56124	9.547005	2.034505	0.627739	-0.018497	-0.030352	-0.009556	71.841455	-77.094345	-123.488128
56125	9.503777	2.083673	0.649184	-0.012259	-0.016516	-0.005958	71.879835	-77.093561	-123.529578
56126	9.477370	2.012306	0.697578	-0.009586	-0.015234	-0.008596	71.919411	-77.090720	-123.570607
56127	9.506019	2.012425	0.649695	-0.006140	-0.020214	-0.018926	71.980100	-77.083514	-123.631348
56128	9.525497	2.039574	0.634614	-0.004811	-0.006817	-0.037505	72.024639	-77.063416	-123.674666
56129	9.517454	2.020657	0.668841	0.001507	-0.003093	-0.051227	72.073699	-77.035557	-123.718988
56130	9.572207	2.072411	0.574403	-0.012209	0.011248	-0.058428	72.086976	-77.000858	-123.734584
56131	9.562652	2.080034	0.610440	0.004001	0.038736	-0.075650	72.057205	-76.952304	-123.696540
56132	9.532823	2.064231	0.661746	-0.009728	0.040729	-0.082169	72.020791	-76.899462	-123.659668
56133	9.537881	2.095456	0.631921	-0.013957	0.055386	-0.088686	71.952359	-76.840842	-123.592474
56134	9.494865	2.079309	0.664854	-0.009922	0.071558	-0.094593	71.854508	-76.775729	-123.492597
56135	9.495112	2.139718	0.723885	-0.016597	0.067635	-0.097912	71.764689	-76.709849	-123.404949
56136	9.502543	2.099248	0.699163	-0.007561	0.066674	-0.102939	71.687595	-76.641004	-123.324957
56137	9.449089	2.134076	0.763252	-0.006977	0.060515	-0.105825	71.627177	-76.572051	-123.261817
56138	9.510909	2.096490	0.732696	-0.008255	0.050548	-0.111775	71.594385	-76.501281	-123.227742
56139	9.523287	2.130083	0.669574	-0.005959	0.051711	-0.131359	71.574670	-76.420022	-123.205830
56140	9.605392	2.096419	0.627187	-0.003439	0.076400	-0.154978	71.519745	-76.321077	-123.146117
56141	9.530380	2.112820	0.707320	0.001011	0.102355	-0.188725	71.435145	-76.199425	-123.053279
56142	9.576251	2.207249	0.709501	0.008981	0.107572	-0.207604	71.359821	-76.066177	-122.965164
56143	9.581335	2.178476	0.689174	0.009929	0.126182	-0.230283	71.262290	-75.917531	-122.853625
56144	9.557265	2.227758	0.766780	0.024542	0.126848	-0.243022	71.183790	-75.761455	-122.752926
56145	9.555116	2.323349	0.742312	0.027204	0.143276	-0.246683	71.076043	-75.600666	-122.620474
56146	9.364056	2.488860	0.881838	0.042497	0.134260	-0.237973	70.992850	-75.445867	-122.504160
56147	9.271905	2.259280	0.877085	0.013018	0.077522	-0.205863	70.988573	-75.319383	-122.486862
56148	9.414128	2.335252	0.847962	0.040689	0.071389	-0.210377	71.016658	-75.191238	-122.486544
56149	9.459148	2.355801	0.794525	0.049938	0.057050	-0.208038	71.076670	-75.067390	-122.513856
56150	9.376922	2.327271	0.904551	0.067796	0.044313	-0.214372	71.176818	-74.942099	-122.572062
56151	9.368350	2.396397	0.903814	0.070588	0.024734	-0.208924	71.312135	-74.823699	-122.665154
56152	9.300047	2.482844	0.848934	0.078190	-0.005810	-0.204401	71.508307	-74.712905	-122.816774
56153	9.565966	2.537668	0.683804	0.070248	0.007661	-0.189449	71.660484	-74.608041	-122.927650
56154	9.574613	2.431267	0.602897	0.045265	0.038766	-0.205093	71.746292	-74.488648	-122.984498
56155	10.078574	2.268001	0.495071	0.036943	0.074238	-0.291873	71.812190	-74.316015	-123.025745
56156	9.306216	2.698245	0.829837	0.117618	0.160786	-0.354209	71.797027	-74.093619	-122.934671
56157	9.468057	2.327629	0.809233	0.065003	0.128441	-0.354783	71.814058	-73.877042	-122.908438
56158	9.333375	2.531346	0.959739	0.091432	0.121646	-0.376344	71.872631	-73.649602	-122.909585
56159	9.365539	2.518531	0.891667	0.101352	0.110249	-0.388111	71.963355	-73.418122	-122.938419
56160	9.492688	2.567430	0.846023	0.115949	0.105425	-0.419522	72.088401	-73.170023	-122.994306
56161	9.441077	2.706073	0.893269	0.120905	0.110080	-0.443844	72.218744	-72.908144	-123.052923
56162	9.503100	2.756361	0.884501	0.126331	0.111103	-0.453389	72.353436	-72.640506	-123.112837
56163	9.647358	2.743824	0.864698	0.125387	0.116773	-0.487071	72.492722	-72.353781	-123.178309
56164	9.750867	2.931975	0.902054	0.119421	0.150939	-0.526448	72.589082	-72.039294	-123.202312
56165	9.681345	2.912591	1.011009	0.095939	0.188994	-0.575061	72.631750	-71.692029	-123.184104
56166	9.530178	2.923970	0.937908	0.116576	0.195624	-0.605108	72.690674	-71.326882	-123.170446
56167	9.527938	3.010554	0.938416	0.100918	0.170755	-0.643553	72.797816	-70.945254	-123.217279
56168	9.407285	3.016505	1.013482	0.115677	0.136163	-0.693926	72.988602	-70.541519	-123.343778
56169	9.812350	3.067859	1.318755	0.105743	0.055612	-0.726826	73.304485	-70.133258	-123.609570
56170	9.504396	2.916164	1.174910	0.157143	0.059982	-0.768379	73.650050	-69.700642	-123.876230
56171	9.522005	3.117304	1.073935	0.132621	-0.007570	-0.831038	74.093246	-69.243977	-124.262993
56172	9.433207	3.239295	1.067818	0.182653	-0.005960	-0.876223	74.563012	-68.760780	-124.648637
56173	9.598718	3.285216	1.044594	0.160235	-0.031526	-0.929903	75.056523	-68.250885	-125.074984
56174	9.441502	3.407786	1.071618	0.198659	-0.024787	-0.986339	75.561919	-67.707115	-125.491898
56175	9.416410	3.504048	1.028403	0.190359	-0.044565	-1.028487	76.080720	-67.141607	-125.930209
56176	9.491557	3.570115	0.906499	0.204047	-0.035786	-1.088405	76.591884	-66.539800	-126.353505
56177	9.385518	3.696173	0.984282	0.207684	-0.038819	-1.156642	77.105323	-65.899116	-126.779071
56178	9.399344	3.693989	0.937626	0.215192	-0.034688	-1.213863	77.609634	-65.224181	-127.192016
56179	9.326991	3.954114	0.881139	0.227141	-0.018915	-1.281702	78.094958	-64.508140	-127.578808
56180	9.466649	4.024264	0.836312	0.217192	-0.006971	-1.348051	78.553245	-63.751936	-127.944206
56181	9.502969	4.162708	0.890123	0.220374	0.024249	-1.418649	78.971330	-62.951597	-128.265101
56182	9.398767	4.304183	0.764811	0.208378	0.046313	-1.491486	79.353174	-62.106714	-128.555201
56183	9.421355	4.526974	0.749967	0.192026	0.064735	-1.567097	79.701609	-61.216671	-128.820381
56184	9.393818	4.546236	0.817430	0.173769	0.098752	-1.640490	80.001079	-60.280937	-129.043701
56185	9.126973	4.704858	0.945239	0.173676	0.114745	-1.722384	80.283045	-59.297031	-129.249036
56186	9.153976	4.704504	1.248906	0.184392	0.114708	-1.798167	80.568250	-58.269679	-129.453072
56187	8.975800	4.910071	1.170049	0.260688	0.131929	-1.866221	80.876156	-57.201855	-129.634637
56188	8.704060	5.722656	1.134688	0.256150	0.041381	-1.919284	81.250727	-56.111399	-129.901288
56189	8.703588	5.636956	0.803190	0.251604	-0.170532	-1.949142	81.779941	-55.020908	-130.362053
56190	11.134054	5.598318	1.341684	0.185356	-0.107749	-1.925915	82.191157	-53.936387	-130.730608
56191	8.619039	5.609487	0.991745	0.313805	-0.005348	-2.016044	82.584641	-52.791530	-130.990649
56192	8.497160	6.082695	0.721741	0.256817	-0.126442	-2.066253	83.019675	-51.625712	-131.348585
56193	8.863155	6.019115	0.667117	0.231866	-0.173788	-2.120794	83.455559	-50.430440	-131.731901
56194	8.839051	6.285055	0.757370	0.253283	-0.190385	-2.174478	83.895560	-49.203858	-132.111286
56195	8.581032	6.533948	0.581728	0.258348	-0.273635	-2.234732	84.372649	-47.945865	-132.543440
56196	9.065551	6.861177	0.769455	0.235555	-0.339734	-2.260190	84.853584	-46.674632	-133.007274
56197	8.533495	6.591781	0.550562	0.284147	-0.321482	-2.282512	85.326770	-45.387114	-133.431542
56198	7.492641	7.309934	0.284384	0.272870	-0.465110	-2.325935	85.852048	-44.078744	-133.948588
56199	6.905822	7.320140	-0.299489	0.218618	-0.676922	-2.348907	86.433369	-42.761767	-134.604766
56200	7.001856	7.517471	-0.475359	0.112890	-0.926025	-2.351380	87.050253	-41.446717	-135.420783
56201	6.476174	7.457730	-0.643509	0.055923	-1.116184	-2.375437	87.691498	-40.116169	-136.345727
56202	5.416015	8.078273	-1.102625	-0.008966	-1.349642	-2.416529	88.365657	-38.758885	-137.406986
56203	4.707653	9.305404	-1.226963	-0.147290	-1.660976	-2.457164	89.055523	-37.372505	-138.654519
56204	2.796518	11.239437	-2.163176	-0.087764	-1.785993	-2.604001	89.781958	-35.890734	-139.947475
56205	-0.146307	12.898333	-1.746273	-0.195049	-2.106823	-3.088317	90.516797	-34.117793	-141.414380
56206	3.522014	16.204852	-1.038491	0.015123	-2.177866	-3.434731	91.323832	-32.129371	-142.865429
56207	7.135461	14.912940	-0.694322	-0.255457	-1.959685	-3.008845	91.834283	-30.374876	-144.121650
56208	8.010867	14.081181	0.367399	0.009519	-1.515479	-2.334262	92.311814	-29.006073	-145.063897
56209	9.234936	13.601620	0.634296	0.102638	-1.047193	-1.531224	92.680546	-28.103263	-145.701784
56210	9.086735	13.833715	1.181264	0.228344	-0.421169	-0.766529	92.932308	-27.652045	-145.949170
56211	8.023982	14.351330	1.258165	0.334517	0.170222	-0.220738	93.074133	-27.530689	-145.830762
56212	6.950966	15.031555	1.203755	0.312351	0.624046	0.054091	93.072335	-27.580140	-145.428904
56213	5.852417	15.331504	1.050077	0.238899	1.030132	0.013584	92.905815	-27.618524	-144.763223
56214	4.474226	15.266293	0.735111	0.116994	1.360952	-0.297537	92.566788	-27.484707	-143.874459
56215	2.895980	14.893340	0.340881	-0.028193	1.547748	-0.804270	92.088711	-27.060103	-142.855493
56216	1.481032	14.234528	-0.210123	-0.164081	1.536212	-1.435873	91.544345	-26.264684	-141.840784
56217	0.467023	13.599464	-0.722075	-0.264857	1.296265	-2.070382	91.027301	-25.095190	-140.986352
56218	0.286413	13.063838	-1.040838	-0.347102	0.812075	-2.597136	90.612761	-23.612557	-140.451211
56219	0.951967	12.558107	-1.154771	-0.403475	0.213473	-2.951035	90.329022	-21.922595	-140.302516
56220	2.323706	12.042452	-1.032607	-0.439748	-0.344017	-3.121236	90.154646	-20.131744	-140.504514
56221	3.816169	11.624417	-0.812538	-0.476234	-0.766008	-3.116332	90.038577	-18.345258	-140.965193
56222	5.157831	11.288327	-0.444802	-0.505215	-1.025473	-2.978573	89.939188	-16.636978	-141.580501
56223	6.389477	10.823524	-0.056711	-0.526770	-1.113968	-2.760429	89.824205	-15.056457	-142.246400
56224	7.247753	10.519877	0.288507	-0.524474	-1.024991	-2.498441	89.680284	-13.625868	-142.857900
56225	7.606215	10.070389	0.673229	-0.518589	-0.796331	-2.221109	89.495311	-12.356354	-143.334592
56226	7.537870	9.664327	0.948886	-0.476428	-0.476957	-1.971780	89.286744	-11.228265	-143.624997
56227	7.244065	9.160692	1.210018	-0.431993	-0.138657	-1.772897	89.061866	-10.213493	-143.719820
56228	6.813602	8.813225	1.173113	-0.365852	0.228705	-1.635719	88.837519	-9.273103	-143.603337
56229	6.133109	8.490382	1.123212	-0.309309	0.574880	-1.552027	88.617097	-8.376524	-143.289168
56230	5.212918	8.227402	0.899131	-0.254019	0.821118	-1.516667	88.413918	-7.495023	-142.836093
56231	4.316456	8.057186	0.704484	-0.190856	0.955877	-1.519584	88.244872	-6.608521	-142.309149
56232	3.570851	8.005559	0.582356	-0.138350	0.970811	-1.536037	88.113401	-5.710830	-141.777172
56233	3.179731	8.103876	0.486609	-0.087798	0.920968	-1.550562	88.022238	-4.804886	-141.276748
56234	2.921722	8.045355	0.488153	-0.059419	0.837006	-1.550697	87.958879	-3.899929	-140.826429
56235	2.784966	7.854142	0.522796	-0.044616	0.750100	-1.545286	87.914294	-2.999394	-140.427191
56236	2.704889	7.662954	0.576285	-0.035995	0.680491	-1.534997	87.882542	-2.106152	-140.068573
56237	2.878156	7.688275	0.642714	-0.040552	0.622986	-1.509228	87.854836	-1.228502	-139.742999
56238	3.454065	7.867183	0.767677	-0.068280	0.612551	-1.441294	87.816006	-0.390160	-139.422576
56239	4.181714	7.811930	0.943452	-0.104364	0.692680	-1.311527	87.761167	0.376296	-139.054094
56240	4.535781	7.474402	0.962386	-0.155145	0.848372	-1.137019	87.682766	1.046185	-138.593418
56241	4.534820	7.213189	0.894328	-0.165018	1.045325	-0.938101	87.606592	1.608093	-138.016034
56242	4.155045	7.059947	0.787685	-0.189573	1.223438	-0.726020	87.524530	2.052771	-137.332203
56243	3.651493	6.671251	0.558409	-0.204353	1.355984	-0.534079	87.442086	2.392855	-136.567995
56244	3.388167	6.590577	0.529826	-0.208290	1.420877	-0.356878	87.362722	2.633034	-135.762444
56245	3.344326	6.475960	0.437216	-0.220937	1.460437	-0.136565	87.280303	2.750556	-134.928428
56246	3.261383	6.378253	0.267476	-0.233217	1.490595	0.138419	87.192193	2.711287	-134.069822
56247	3.155662	6.338216	0.137043	-0.248595	1.466288	0.463898	87.093498	2.487955	-133.215720
56248	3.129507	6.492385	0.024557	-0.289965	1.370388	0.855502	86.963939	2.037673	-132.404828
56249	2.923239	6.250395	-0.099459	-0.348840	1.240165	1.268040	86.791252	1.351176	-131.654528
56250	2.628793	6.281076	-0.068686	-0.411088	1.109907	1.659158	86.571026	0.437265	-130.963826
56251	2.398190	6.224877	-0.071564	-0.504695	0.944128	1.993759	86.285611	-0.668896	-130.351882
56252	2.318088	6.002746	0.068176	-0.610718	0.763798	2.259562	85.928271	-1.932687	-129.826514
56253	2.553477	5.545169	0.061516	-0.724575	0.633006	2.463150	85.496658	-3.312626	-129.357964
56254	2.641290	5.105949	0.110951	-0.803855	0.598770	2.587608	85.007701	-4.763729	-128.891471
56255	2.800384	4.678189	0.040736	-0.868039	0.613308	2.671850	84.467939	-6.255615	-128.398003
56256	3.122998	4.204842	-0.055472	-0.926549	0.595823	2.795014	83.879427	-7.816253	-127.891267
56257	3.324842	3.625735	-0.194786	-0.974396	0.520659	2.999944	83.251529	-9.490524	-127.395702
56258	3.360846	2.951208	-0.247157	-1.030094	0.393586	3.248803	82.582378	-11.312246	-126.934054
56259	3.527958	2.341004	-0.293871	-1.039973	0.288238	3.442283	81.897693	-13.243835	-126.493181
56260	3.739726	1.708290	-0.458054	-0.981317	0.283393	3.519994	81.223825	-15.217469	-126.021341
56261	3.706421	1.193210	-0.669081	-0.850749	0.340920	3.513343	80.592660	-17.173964	-125.488388
56262	3.879188	0.702604	-0.958318	-0.686587	0.355073	3.513019	80.026590	-19.126529	-124.919989
56263	3.932243	0.628854	-1.108732	-0.494953	0.318623	3.583191	79.548468	-21.114298	-124.340107
56264	3.998176	0.754392	-1.122038	-0.374511	0.125748	3.736005	79.147973	-23.207628	-123.835580
56265	4.334026	1.211784	-1.003230	-0.283107	-0.097540	3.890950	78.822737	-25.406213	-123.427493
56266	4.585747	1.739854	-0.737954	-0.251870	-0.252605	3.979062	78.529760	-27.673287	-123.084849
56267	4.711894	2.494343	-0.383852	-0.284322	-0.361288	3.990374	78.229566	-29.954052	-122.789716
56268	4.961621	3.229316	-0.004846	-0.402348	-0.457458	3.976199	77.873166	-32.240577	-122.537400
56269	5.377512	3.803385	0.291479	-0.579644	-0.541443	3.973519	77.424218	-34.530498	-122.316109
56270	5.743143	3.929162	0.498849	-0.800952	-0.631418	3.982872	76.857694	-36.839396	-122.124040
56271	6.369248	3.866714	0.590554	-0.987001	-0.716031	4.023559	76.188352	-39.176431	-121.947459
56272	7.047050	3.740758	0.751706	-1.143050	-0.801972	4.109430	75.424972	-41.575514	-121.773256
56273	7.396922	3.726530	0.791030	-1.227983	-0.835298	4.185470	74.578932	-44.015321	-121.556412
56274	7.257608	3.592468	0.736296	-1.271483	-0.830503	4.209168	73.649693	-46.469100	-121.267623
56275	7.116430	3.729724	0.684610	-1.230150	-0.854353	4.166924	72.704570	-48.895595	-120.936094
56276	7.312076	4.071621	0.615235	-1.172108	-0.928087	4.088218	71.787708	-51.292673	-120.610687
56277	7.752210	4.385750	0.667443	-1.047123	-1.007184	3.982163	70.954727	-53.638589	-120.310694
56278	8.312687	4.911118	0.832310	-0.892704	-1.099666	3.885459	70.240376	-55.951870	-120.057050
56279	8.745721	5.289297	1.000916	-0.716709	-1.146502	3.785228	69.637425	-58.213879	-119.822116
56280	9.049415	5.956861	1.161816	-0.513974	-1.146929	3.652101	69.141014	-60.408000	-119.582130
56281	9.044591	6.856441	1.373326	-0.312032	-1.118068	3.440929	68.763302	-62.477520	-119.350009
56282	9.251228	7.334704	1.459395	-0.087827	-1.076481	3.197065	68.530436	-64.412271	-119.140861
56283	9.668783	7.798651	1.562068	0.118961	-0.995543	2.967084	68.398672	-66.202463	-118.915333
56284	10.132007	8.199849	1.674679	0.338070	-0.914261	2.778478	68.359696	-67.879336	-118.657626
56285	10.646061	8.842729	1.992565	0.481287	-0.893830	2.673421	68.412692	-69.491503	-118.413143
56286	11.089034	10.190950	2.469844	0.558389	-0.872904	2.624124	68.492008	-71.077223	-118.152566
56287	11.147076	11.810731	3.026976	0.462531	-0.881302	2.547457	68.563304	-72.619814	-117.943444
56288	11.420158	12.412818	3.392311	0.262716	-0.816818	2.375312	68.507034	-74.060672	-117.722632
56289	11.515606	12.026230	3.358612	0.092203	-0.663973	2.163131	68.182524	-75.352442	-117.326277
56290	10.894056	11.309673	2.964321	-0.037880	-0.478918	1.952090	67.493322	-76.494123	-116.633177
56291	9.958761	10.426844	2.404853	-0.116700	-0.387798	1.730265	66.641741	-77.493191	-115.822698
56292	9.094642	9.943471	2.159229	-0.155727	-0.390682	1.505370	65.888545	-78.374494	-115.138755
56293	9.156078	9.440458	2.072528	-0.215563	-0.443752	1.278569	65.412014	-79.146161	-114.773740
56294	9.586311	8.933098	2.091423	-0.251195	-0.436644	1.065116	65.118526	-79.806116	-114.616588
56295	9.784832	8.130222	1.849494	-0.245706	-0.359333	0.895450	64.803497	-80.357516	-114.434619
56296	9.761472	7.343132	1.523484	-0.183477	-0.299448	0.752734	64.522714	-80.821185	-114.251492
56297	9.365674	6.841474	1.337221	-0.065248	-0.276291	0.622571	64.416841	-81.210707	-114.177089
56298	9.026780	6.557504	1.238324	0.032646	-0.271684	0.488314	64.570445	-81.530258	-114.308422
56299	8.736684	6.151614	1.304831	0.109897	-0.243760	0.337657	64.931739	-81.764234	-114.604892
56300	8.438439	5.606368	1.260382	0.159319	-0.218756	0.211999	65.465245	-81.926681	-115.046483
56301	8.066243	4.975248	1.176081	0.212350	-0.178107	0.110875	66.061785	-82.025935	-115.520998
56302	7.463433	4.189487	1.040731	0.253041	-0.135106	0.033978	66.662988	-82.074080	-115.976469
56303	6.783921	3.408189	0.842425	0.303163	-0.091542	-0.028901	67.229622	-82.078832	-116.368140
56304	6.062082	2.602698	0.590383	0.367421	-0.068173	-0.075349	67.822114	-82.052912	-116.748608
56305	5.498909	1.863332	0.357171	0.443088	-0.054257	-0.115807	68.457949	-82.002371	-117.129249
56306	11.660070	2.694032	3.313022	0.582717	-0.328829	-0.307139	70.480919	-81.902566	-118.829929
56307	28.762121	3.017332	-0.541242	-1.175184	1.521291	-2.027216	67.259082	-80.504070	-116.246266
56308	20.111691	7.584329	5.815639	2.362774	0.621099	-2.065671	69.224441	-79.271865	-116.862150
56309	9.223654	5.898769	4.382043	-0.863002	1.486292	0.021883	64.632103	-78.948918	-112.684131
56310	5.964008	2.622510	5.316376	0.095868	-0.058839	-0.196466	65.090773	-78.859794	-113.090276
56311	7.001620	-0.026125	0.661480	-0.346537	-0.918730	-0.359857	67.765293	-78.880770	-116.013298
56312	12.517036	2.353262	-1.048053	0.017282	-0.434942	-0.416437	69.391893	-78.748040	-117.656061
56313	11.173988	2.062355	-0.702632	-0.157445	0.014383	-0.261318	69.526615	-78.604426	-117.880356
56314	9.619682	2.050608	0.580738	-0.037330	0.183878	-0.209080	69.230629	-78.453643	-117.594894
56315	9.281606	1.943630	1.146531	-0.033837	0.107682	-0.165890	69.096293	-78.342344	-117.472440
56316	8.999791	2.027056	1.395493	-0.115432	-0.042522	-0.170550	69.311093	-78.258062	-117.754066
56317	9.508774	1.818906	0.734567	-0.151661	-0.154355	-0.210660	69.824741	-78.175314	-118.362426
56318	10.149467	2.217695	0.249935	-0.115513	-0.110970	-0.149646	70.186048	-78.114882	-118.793967
56319	9.762502	2.076745	0.517048	-0.066501	-0.017831	-0.091902	70.279270	-78.068278	-118.923067
56320	9.513511	2.073506	0.722346	-0.065332	-0.020321	-0.061048	70.352637	-78.037664	-119.031043
56321	9.487859	2.036740	0.824566	-0.058952	-0.045181	-0.033861	70.465909	-78.027562	-119.176246
56322	9.586355	1.879785	0.660991	-0.051104	-0.071422	-0.011366	70.632123	-78.033432	-119.370810
56323	9.641481	1.845716	0.511908	-0.034490	-0.050214	-0.022018	70.761420	-78.030537	-119.518066
56324	9.665862	1.876155	0.549622	-0.029802	-0.005763	-0.032527	70.791211	-78.012419	-119.560702
56325	9.580417	1.955274	0.595145	-0.024656	0.022800	-0.036480	70.752733	-77.987882	-119.530693
56326	9.499839	1.965596	0.701992	-0.030043	0.020358	-0.031236	70.714846	-77.965535	-119.504278
56327	9.540796	1.991006	0.676905	-0.036136	0.004226	-0.026240	70.708018	-77.950045	-119.513352
56328	9.581971	2.015512	0.651442	-0.041726	0.009533	-0.012283	70.674176	-77.939986	-119.497916
56329	9.465742	1.920245	0.702237	-0.046122	0.006044	-0.002173	70.635707	-77.937164	-119.480486
56330	9.428145	1.901487	0.784068	-0.038011	-0.008631	-0.002594	70.641382	-77.935787	-119.503281
56331	9.490953	1.923094	0.743399	-0.030247	-0.032754	0.011196	70.698328	-77.947551	-119.574117
56332	9.508376	1.916805	0.673187	-0.027104	-0.051210	0.013149	70.804240	-77.962720	-119.693017
56333	9.580749	1.862770	0.602061	-0.023081	-0.041572	0.001193	70.896823	-77.970681	-119.796087
56334	9.447157	1.845114	0.709146	-0.025678	-0.036978	-0.007593	70.985995	-77.971876	-119.897030
56335	9.393830	1.772687	0.714699	-0.032597	-0.063587	-0.018146	71.146192	-77.973368	-120.074804
56336	9.583764	1.967464	0.636369	-0.015436	-0.049676	-0.025046	71.288642	-77.967342	-120.224226
56337	9.520347	2.019566	0.665256	-0.014179	-0.062659	-0.006881	71.447360	-77.974585	-120.389699
56338	9.521784	1.946556	0.664760	-0.013055	-0.069666	0.004649	71.616873	-77.988149	-120.565389
56339	9.451367	1.950238	0.729085	-0.018299	-0.080848	0.007909	71.807834	-78.006501	-120.766223
56340	9.361440	1.881204	0.809335	-0.015552	-0.119052	0.011547	72.097933	-78.032315	-121.066627
56341	9.362775	1.880387	0.795683	-0.022449	-0.180208	0.002654	72.548869	-78.064638	-121.535588
56342	9.554257	1.964972	0.569068	-0.021296	-0.202400	0.001722	73.062978	-78.098257	-122.068241
56343	9.564589	1.888966	0.522692	-0.009564	-0.188109	0.008796	73.542333	-78.133587	-122.558583
56344	9.598587	1.937721	0.509950	-0.002917	-0.171653	0.011584	73.984540	-78.165863	-123.006878
56345	9.550121	1.940293	0.552736	-0.008939	-0.170513	0.011244	74.421421	-78.198207	-123.453342
56346	9.617196	1.882141	0.414712	-0.005568	-0.155588	0.008895	74.826193	-78.225171	-123.864849
56347	9.588292	1.957327	0.441841	-0.007444	-0.134571	0.009003	75.174235	-78.249669	-124.219604
56348	9.594744	1.912099	0.487375	-0.001214	-0.123404	0.003906	75.502437	-78.268154	-124.550289
56349	9.507045	1.934850	0.470999	-0.013887	-0.130075	-0.001847	75.844731	-78.285140	-124.902892
56350	9.657632	1.934538	0.423139	-0.015636	-0.117800	-0.003756	76.156701	-78.297809	-125.225402
56351	9.598720	1.906259	0.366117	-0.031468	-0.097420	-0.009612	76.407842	-78.305274	-125.495175
56352	9.591006	1.910194	0.392167	-0.031877	-0.072030	-0.025768	76.602414	-78.298987	-125.707289
56353	9.574312	1.990448	0.447924	-0.038247	-0.068626	-0.030037	76.785278	-78.290873	-125.911306
56354	9.616168	1.942832	0.419474	-0.030428	-0.070590	-0.021757	76.973852	-78.286356	-126.116459
56355	9.540362	1.993330	0.428533	-0.036502	-0.065610	-0.015461	77.140164	-78.285732	-126.302558
56356	9.616003	1.946052	0.408177	-0.040002	-0.062151	-0.020467	77.299509	-78.280617	-126.483467
56357	9.630987	1.943236	0.336565	-0.036286	-0.044739	-0.019141	77.411788	-78.275122	-126.614261
56358	9.533909	1.903281	0.456268	-0.027959	-0.034710	-0.021343	77.504363	-78.265952	-126.719937
56359	9.602521	1.926192	0.379214	-0.038733	-0.031743	-0.035510	77.589673	-78.249604	-126.824629
56360	9.572969	1.980759	0.420945	-0.025915	-0.012748	-0.030654	77.629493	-78.232472	-126.875235
56361	9.545554	1.913234	0.472005	-0.025712	-0.013911	-0.028722	77.669961	-78.217699	-126.926512
56362	9.534257	1.884611	0.364427	-0.015600	-0.014177	-0.047110	77.728842	-78.191514	-126.990561
56363	9.603753	2.040809	0.422675	-0.013136	-0.005156	-0.036362	77.757225	-78.171382	-127.022137
56364	9.556879	2.016417	0.395611	-0.005725	-0.014383	-0.022469	77.807671	-78.159002	-127.071796
56365	9.598186	1.992959	0.370157	-0.007894	-0.009406	-0.018777	77.840066	-78.149223	-127.104406
56366	9.577288	1.994931	0.382915	-0.008138	-0.000590	-0.012064	77.846218	-78.140994	-127.110222
56367	9.536735	1.948532	0.412474	-0.011284	-0.003235	-0.015169	77.858073	-78.132488	-127.123830
56368	9.576291	2.021821	0.381215	-0.011654	-0.001929	-0.012321	77.865914	-78.124277	-127.133431
56369	9.542881	1.997207	0.375429	-0.010594	-0.002987	-0.007468	77.873066	-78.120055	-127.141830
56370	9.551225	1.946866	0.345516	-0.017066	0.004290	-0.005035	77.857091	-78.115175	-127.130261
56371	9.575886	2.023452	0.382745	-0.012786	0.014419	0.000100	77.812335	-78.113091	-127.086899
56372	9.561738	1.978853	0.455113	-0.012515	0.017004	0.003957	77.760034	-78.111703	-127.035541
56373	9.544926	1.875886	0.389344	-0.024047	0.022590	-0.004491	77.689795	-78.106036	-126.972730
56374	9.466273	1.955579	0.493577	-0.021003	0.027310	-0.014757	77.616204	-78.092891	-126.904582
56375	9.473411	1.955007	0.461727	-0.028994	-0.000205	-0.021205	77.613501	-78.080648	-126.913685
56376	9.547034	2.005482	0.440072	-0.025284	-0.004826	-0.014267	77.622484	-78.071717	-126.932436
56377	9.541314	2.002765	0.385516	-0.023495	-0.013285	-0.010358	77.651246	-78.067148	-126.970478
56378	9.578968	2.081210	0.442135	-0.019529	0.001895	-0.000431	77.637677	-78.065135	-126.962808
56379	9.554887	1.979921	0.407907	-0.027744	-0.005424	0.010410	77.631120	-78.071224	-126.967241
56380	9.582750	2.000675	0.360409	-0.024889	0.011862	0.008806	77.582704	-78.073151	-126.927094
56381	9.587976	2.027455	0.414940	-0.022056	0.019559	0.016704	77.509492	-78.079676	-126.860070
56382	9.548463	1.953403	0.448191	-0.020999	0.018495	0.021557	77.438178	-78.087890	-126.794244
56383	9.555897	1.973508	0.415254	-0.015191	0.022370	0.022002	77.358134	-78.096991	-126.716222
56384	9.528081	1.973719	0.464178	-0.013554	0.018831	0.025926	77.287381	-78.107571	-126.646614
56385	9.515998	1.944953	0.446636	-0.012635	0.005465	0.031645	77.247655	-78.124159	-126.608303
56386	9.549372	1.991804	0.451320	-0.009034	-0.001874	0.029946	77.231872	-78.139587	-126.592228
56387	9.529490	1.988623	0.464751	-0.016652	0.004525	0.045713	77.183640	-78.164146	-126.547584
56388	9.518547	1.909944	0.449317	-0.015394	-0.004301	0.037143	77.166171	-78.183898	-126.533511
56389	9.531926	1.932272	0.467800	-0.012812	-0.011617	0.037284	77.168171	-78.205796	-126.537943
56390	9.533088	1.904526	0.468086	-0.008845	-0.020261	0.032730	77.199831	-78.225115	-126.570228
56391	9.582136	1.922932	0.405167	-0.003071	-0.015352	0.026479	77.224107	-78.241449	-126.591712
56392	9.602577	1.968391	0.387349	0.002078	-0.017561	0.030664	77.256213	-78.259271	-126.618057
56393	9.562050	1.966230	0.412189	-0.000029	-0.008828	0.036323	77.258810	-78.280278	-126.615617
56394	9.529811	1.913338	0.407020	0.001148	-0.008982	0.029709	77.267979	-78.296481	-126.619078
56395	9.592248	1.908896	0.367317	-0.001433	-0.001658	0.029578	77.254531	-78.312813	-126.601075
56396	9.564643	1.908677	0.414315	0.003028	0.008325	0.029963	77.217831	-78.326973	-126.556596
56397	9.572301	1.928356	0.380133	0.008232	0.015699	0.024637	77.165859	-78.338335	-126.493604
56398	9.572353	1.950386	0.380115	0.008093	0.020627	0.024664	77.101837	-78.347954	-126.418267
56399	9.467697	1.956212	0.534515	0.007384	0.009769	0.033172	77.059908	-78.364817	-126.366030
56400	9.484470	1.875834	0.471996	-0.001553	-0.010187	0.032410	77.068899	-78.382694	-126.370887
56401	9.518408	1.898610	0.476261	0.003724	-0.023931	0.021198	77.123807	-78.397185	-126.419657
56402	9.526446	1.894684	0.439930	0.003583	-0.031436	0.017312	77.203091	-78.409334	-126.493270
56403	9.547181	1.916918	0.422151	0.001074	-0.032787	0.015214	77.284608	-78.421575	-126.570747
56404	9.608826	1.962186	0.376833	0.004292	-0.026398	0.020280	77.349038	-78.434714	-126.628777
56405	9.506979	1.914229	0.443137	0.004635	-0.020058	0.026100	77.391439	-78.451413	-126.664239
56406	9.492623	1.915930	0.507522	-0.000599	-0.039844	0.027543	77.485777	-78.470263	-126.755648
56407	9.578177	1.856643	0.366242	-0.003702	-0.051144	0.022480	77.611292	-78.488755	-126.880804
56408	9.632094	1.928027	0.352156	-0.003540	-0.025386	0.018802	77.670044	-78.500880	-126.937607
56409	9.571032	1.903815	0.391360	-0.003558	-0.011925	0.015997	77.692077	-78.510890	-126.957067
56410	9.550578	1.926835	0.402065	-0.005879	-0.006803	0.024497	77.695043	-78.523926	-126.958308
56411	9.510160	1.901629	0.428891	-0.007325	-0.016860	0.018591	77.727041	-78.535989	-126.990136
56412	9.449218	1.877028	0.467736	-0.012868	-0.031575	0.024852	77.794311	-78.552233	-127.061075
56413	9.540101	1.821511	0.381448	-0.014767	-0.044071	0.019871	77.896826	-78.568280	-127.169196
56414	9.568739	1.793148	0.332966	-0.018179	-0.031038	0.005312	77.971531	-78.573473	-127.250821
56415	9.568299	1.841611	0.328110	-0.013975	-0.010202	-0.001012	77.993235	-78.573725	-127.276029
56416	9.580738	1.892655	0.345426	-0.021112	0.002677	-0.017754	77.986453	-78.561969	-127.276231
56417	9.539228	1.895568	0.372858	-0.031492	0.011004	-0.019382	77.950218	-78.549396	-127.252567
56418	9.537390	1.878745	0.463605	-0.024604	0.006148	-0.022765	77.934862	-78.534420	-127.246062
56419	9.538676	1.875016	0.376580	-0.030033	-0.000030	-0.019326	77.929991	-78.523197	-127.253546
56420	9.523160	1.905268	0.443012	-0.029592	0.002419	-0.020236	77.920591	-78.510089	-127.256035
56421	9.420567	1.861244	0.511586	-0.027874	-0.018458	-0.020229	77.968237	-78.500565	-127.315850
56422	9.482013	1.861529	0.469395	-0.032796	-0.051943	-0.025535	78.109627	-78.490942	-127.474097
56423	9.618997	1.929325	0.314238	-0.028428	-0.050508	-0.022334	78.246130	-78.483951	-127.624920
56424	9.510077	1.814757	0.417844	-0.032595	-0.034848	-0.031141	78.343308	-78.469059	-127.737940
56425	9.613721	1.810535	0.262079	-0.038606	-0.022090	-0.054462	78.413507	-78.440653	-127.827060
56426	9.678308	1.940139	0.269925	-0.043037	0.021661	-0.070775	78.371555	-78.396977	-127.804190
56427	9.509943	2.028522	0.461847	-0.039267	0.028390	-0.053208	78.302442	-78.363440	-127.751493
56428	9.601182	1.950668	0.295191	-0.041194	0.018737	-0.044753	78.255383	-78.334693	-127.722323
56429	9.536618	1.985553	0.424151	-0.037242	0.030127	-0.036735	78.174000	-78.310170	-127.655901
56430	9.426802	1.919889	0.530359	-0.034503	0.004438	-0.033845	78.163718	-78.289209	-127.660367
56431	9.468941	1.916863	0.416107	-0.041098	-0.021620	-0.036368	78.220099	-78.270953	-127.736889
56432	9.501655	1.945552	0.420324	-0.039177	-0.030197	-0.037243	78.302327	-78.252123	-127.838580
56433	9.501900	1.900289	0.420489	-0.043739	-0.043887	-0.039533	78.418496	-78.234620	-127.977726
56434	9.631841	1.900243	0.304614	-0.043435	-0.039295	-0.053802	78.531159	-78.207462	-128.113014
56435	9.520011	1.957437	0.399512	-0.037454	-0.015563	-0.045565	78.577249	-78.183254	-128.176913
56436	9.581638	1.912162	0.361892	-0.037602	-0.018221	-0.054181	78.636063	-78.153443	-128.253796
56437	9.594768	1.938538	0.292879	-0.034422	-0.001171	-0.065296	78.655493	-78.116507	-128.288692
56438	9.557218	1.997565	0.371587	-0.036876	0.006049	-0.070146	78.658010	-78.074988	-128.307635
56439	9.542504	2.003198	0.352408	-0.038471	0.005785	-0.080724	78.664573	-78.028600	-128.331761
56440	9.583438	1.937409	0.331908	-0.034748	0.015581	-0.088006	78.652437	-77.975975	-128.334483
56441	9.559916	1.995203	0.345241	-0.043205	0.028699	-0.097922	78.605020	-77.917340	-128.306196
56442	9.599932	1.955856	0.326177	-0.048160	0.047979	-0.112304	78.513741	-77.847397	-128.235831
56443	9.527189	2.017991	0.402307	-0.045618	0.050363	-0.121569	78.422262	-77.772990	-128.163864
56444	9.532511	2.003629	0.376055	-0.041731	0.059031	-0.126858	78.315814	-77.693561	-128.074165
56445	9.488689	1.948114	0.500219	-0.040389	0.050252	-0.140092	78.239529	-77.608725	-128.014642
56446	9.527130	2.005783	0.388982	-0.039015	0.050053	-0.156064	78.175214	-77.513923	-127.966437
56447	9.583307	2.093483	0.351746	-0.040294	0.059894	-0.158744	78.086417	-77.417460	-127.893998
56448	9.670218	2.083218	0.275255	-0.041401	0.095383	-0.174375	77.919453	-77.306968	-127.741956
56449	9.669166	2.176714	0.337443	-0.041711	0.131000	-0.187010	77.672787	-77.185973	-127.508425
56450	9.593012	2.095943	0.375924	-0.047262	0.155475	-0.196236	77.374260	-77.055544	-127.224719
56451	9.563255	2.168375	0.491482	-0.039294	0.184062	-0.210128	77.023617	-76.914366	-126.882804
56452	9.645785	2.111639	0.374225	-0.059852	0.185954	-0.217667	76.669806	-76.767275	-126.549405
56453	10.253560	1.881545	0.175408	-0.060493	0.213489	-0.296197	76.302049	-76.573260	-126.201945
56454	10.090718	2.149642	0.053815	0.025072	0.379390	-0.449823	75.704330	-76.269231	-125.566980
56455	9.804278	2.177171	0.436719	0.001741	0.412273	-0.505496	75.078565	-75.928949	-124.916158
56456	9.606655	1.903064	0.959726	0.115705	0.421093	-0.583531	74.576568	-75.541766	-124.324477
56457	9.015838	2.373706	0.672722	0.104268	0.294240	-0.590708	74.363349	-75.170084	-124.037182
56458	10.473342	1.512177	0.301007	0.104731	0.276495	-0.826954	74.335074	-74.669770	-123.940419
56459	9.057627	3.015925	1.272206	0.169244	0.268494	-0.801995	74.347629	-74.185343	-123.847596
56460	10.190700	1.900634	0.564060	0.209284	0.261264	-0.926162	74.465733	-73.632685	-123.840353
56461	10.574290	2.727032	1.006227	0.176561	0.274325	-1.009670	74.578864	-73.032773	-123.847624
56462	10.979162	2.793184	1.102513	0.187069	0.424228	-1.125939	74.489956	-72.344972	-123.636837
56463	10.138107	2.862193	0.873867	0.204597	0.410102	-1.219540	74.488107	-71.608390	-123.506359
56464	10.570355	3.043972	0.799245	0.147533	0.290664	-1.281479	74.678242	-70.855118	-123.612452
56465	10.142688	3.141049	1.327211	0.191507	0.264042	-1.368308	74.957747	-70.058433	-123.787296
56466	10.294155	2.694337	0.931158	0.183092	0.157421	-1.474256	75.413327	-69.217617	-124.155844
56467	9.591627	3.306166	1.227194	0.246959	0.151615	-1.548386	75.906796	-68.336147	-124.528043
56468	9.636241	3.276879	1.208458	0.219029	0.066103	-1.592010	76.481200	-67.440233	-125.007029
56469	9.707864	3.314741	1.244712	0.258907	0.047165	-1.652257	77.080105	-66.512041	-125.491134
56470	9.208683	3.571166	1.090808	0.291273	-0.014396	-1.711537	77.749440	-65.555755	-126.035363
56471	9.458136	3.781059	1.039679	0.256689	-0.072738	-1.774756	78.438585	-64.568960	-126.627627
56472	9.350509	3.980830	0.868185	0.285258	-0.054343	-1.837502	79.090085	-63.541447	-127.164686
56473	9.354812	4.297337	0.748596	0.243254	-0.036992	-1.902927	79.668218	-62.473350	-127.651444
56474	9.601440	4.525549	0.975443	0.229004	0.022566	-1.974612	80.150794	-61.356333	-128.043900
56475	10.892681	4.831607	1.495138	0.189940	0.137481	-2.028906	80.473979	-60.196812	-128.283771
56476	10.031748	5.485968	0.912549	0.310025	0.016337	-2.024795	80.958907	-59.049583	-128.634057
56477	9.168879	4.515384	0.513166	0.141515	-0.203928	-2.114213	81.532143	-57.869762	-129.205613
56478	9.302668	5.198830	0.988399	0.250590	-0.126005	-2.161199	82.065485	-56.653735	-129.662913
56479	8.432934	5.386551	0.548024	0.234987	-0.232524	-2.204950	82.649322	-55.418988	-130.198443
56480	9.360909	5.640352	0.538780	0.184915	-0.302040	-2.214279	83.223848	-54.180552	-130.765626
56481	8.877254	5.761233	0.507733	0.229792	-0.267899	-2.236492	83.762462	-52.924460	-131.265277
56482	7.761906	6.140026	0.112973	0.213677	-0.376313	-2.282614	84.341539	-51.645439	-131.836066
56483	7.393352	6.614740	-0.166275	0.161656	-0.569840	-2.313921	84.991732	-50.355428	-132.547031
56484	7.605727	6.976593	-0.102699	0.089777	-0.717489	-2.306074	85.657847	-49.071458	-133.346040
56485	6.408910	9.855764	-0.154163	0.235162	-0.731940	-2.426735	86.376452	-47.713225	-134.120154
56486	5.025519	11.705592	0.201847	-0.031428	-0.968103	-2.770918	87.052786	-46.159220	-135.063329
56487	4.861366	12.211533	0.231410	0.022219	-0.938435	-3.055423	87.693456	-44.434777	-135.939655
56488	3.899433	12.534985	-0.227719	-0.062144	-1.003817	-3.269204	88.270644	-42.581728	-136.822032
56489	2.256579	14.080658	-0.264051	0.013436	-1.102860	-3.609331	88.888047	-40.529746	-137.733462
56490	2.017899	15.036038	-0.451274	-0.035788	-1.373126	-3.999942	89.543925	-38.246817	-138.790814
56491	5.509184	15.521104	-0.271528	-0.189580	-1.563793	-3.982017	90.122539	-35.967603	-139.921413
56492	7.574849	14.004644	-0.009775	-0.177358	-1.483640	-3.586054	90.610271	-33.904750	-140.941187
56493	9.108977	13.505421	0.432528	-0.176726	-1.260623	-2.987637	90.967920	-32.182939	-141.773519
56494	9.708920	13.372561	0.965269	-0.130364	-0.843661	-2.341146	91.178675	-30.829924	-142.309793
56495	9.073755	13.651332	1.380133	-0.131559	-0.380256	-1.805892	91.222432	-29.790690	-142.535934
56496	7.746472	14.655836	1.666148	-0.189960	0.000449	-1.498466	91.108056	-28.929646	-142.514422
56497	6.695140	15.713626	1.652569	-0.305136	0.256980	-1.447661	90.850042	-28.102636	-142.329713
56498	5.646491	16.317255	1.427105	-0.516201	0.399232	-1.602673	90.433329	-27.184209	-142.058636
56499	4.614454	16.065707	1.217429	-0.748475	0.405408	-1.914250	89.890957	-26.087875	-141.794292
56500	4.276727	15.182896	0.823108	-0.960516	0.317180	-2.288591	89.262934	-24.772201	-141.602488
56501	4.469314	14.281851	0.455817	-1.123035	0.189998	-2.638495	88.588179	-23.258456	-141.513379
56502	4.992483	13.247707	0.124429	-1.225949	0.030960	-2.886243	87.903460	-21.601641	-141.547681
56503	5.668560	12.274971	-0.094694	-1.268537	-0.112391	-2.994628	87.233198	-19.889881	-141.693357
56504	6.353927	11.333304	-0.198314	-1.255626	-0.219131	-2.985979	86.593060	-18.184955	-141.922222
56505	6.809188	10.555035	-0.078637	-1.187497	-0.269733	-2.874714	85.998873	-16.551023	-142.194356
56506	7.330741	9.694738	0.036481	-1.078726	-0.247885	-2.710243	85.457901	-15.010044	-142.460591
56507	7.640603	9.115720	0.233221	-0.946958	-0.116172	-2.512919	84.967604	-13.580540	-142.652118
56508	7.542670	8.584497	0.430063	-0.787357	0.078818	-2.309461	84.538425	-12.256251	-142.729068
56509	7.364277	8.319309	0.558115	-0.637234	0.292630	-2.110393	84.168256	-11.036154	-142.679284
56510	7.121978	8.139958	0.652644	-0.490520	0.518807	-1.934224	83.858534	-9.901098	-142.495188
56511	6.724432	8.035801	0.652915	-0.360519	0.720029	-1.767410	83.607368	-8.849150	-142.190709
56512	6.272019	7.772750	0.624987	-0.257483	0.868909	-1.612325	83.407160	-7.873723	-141.795374
56513	6.182059	7.506000	0.601937	-0.159098	0.997007	-1.450310	83.259496	-6.981735	-141.319598
56514	6.067532	7.325014	0.619666	-0.078908	1.123890	-1.274512	83.155225	-6.179767	-140.761971
56515	5.934170	7.175679	0.592480	-0.016993	1.227078	-1.083867	83.086734	-5.478691	-140.134230
56516	5.898199	7.195017	0.571135	0.016779	1.327424	-0.854400	83.037939	-4.900766	-139.434631
56517	6.039324	7.058201	0.694941	0.022682	1.447225	-0.603356	82.991948	-4.456465	-138.650140
56518	6.128456	6.925473	0.773788	0.019125	1.589028	-0.345323	82.941559	-4.149114	-137.767437
56519	6.166026	6.860588	0.716551	0.017765	1.742325	-0.061881	82.886502	-3.990455	-136.777786
56520	5.875979	6.631493	0.462650	0.002457	1.844846	0.285216	82.817817	-4.022211	-135.705204
56521	4.954300	6.249364	0.133847	0.000133	1.817821	0.693217	82.744167	-4.285046	-134.618286
56522	3.960547	5.572147	-0.244835	-0.036954	1.593456	1.115006	82.649325	-4.804352	-133.627583
56523	3.480203	5.083120	-0.469154	-0.053389	1.225681	1.540189	82.549982	-5.588696	-132.813293
56524	3.235819	4.786009	-0.411214	-0.115457	0.700831	1.985164	82.429932	-6.665925	-132.262602
56525	4.275211	4.457812	-0.064262	-0.230434	0.182064	2.431753	82.265522	-8.032587	-131.970420
56526	6.016968	4.100133	0.445951	-0.345540	-0.039505	2.835410	82.041348	-9.647434	-131.767883
56527	7.228895	3.777298	0.988883	-0.469936	0.039397	3.205631	81.724423	-11.462199	-131.480481
56528	7.634117	3.383297	1.210926	-0.579342	0.381140	3.500297	81.284155	-13.416512	-130.955145
56529	6.795234	3.283815	1.049783	-0.641436	0.828844	3.657531	80.716546	-15.411715	-130.131538
56530	4.970007	2.988059	0.601579	-0.678416	1.201824	3.619538	80.030764	-17.344991	-129.061695
56531	2.687414	2.567982	-0.007320	-0.670601	1.345198	3.459620	79.283785	-19.156313	-127.887734
56532	1.049949	1.901083	-0.741283	-0.641155	1.175946	3.249104	78.549545	-20.857723	-126.802362
56533	0.680223	1.514794	-0.974267	-0.595032	0.722847	3.132392	77.906265	-22.529840	-125.971056
56534	2.031214	1.145534	-0.900057	-0.577402	0.167911	3.189999	77.369440	-24.298601	-125.441323
56535	4.075554	0.802990	-0.516498	-0.533573	-0.127253	3.314561	76.902536	-26.165867	-125.051584
56536	5.383788	0.577753	-0.337914	-0.407354	-0.087684	3.391449	76.469105	-28.072613	-124.602803
56537	5.133156	0.567141	-0.390506	-0.234278	0.106852	3.395360	76.050158	-29.947391	-124.005510
56538	4.315941	1.046080	-0.450671	-0.091231	0.134081	3.387673	75.673779	-31.815564	-123.365279
56539	4.144833	1.508308	-0.514277	-0.028255	-0.015855	3.425900	75.351634	-33.717902	-122.790813
56540	4.655806	1.885239	-0.301344	-0.029445	-0.256145	3.519334	75.080477	-35.710068	-122.336390
56541	5.572361	2.303624	0.057343	-0.083971	-0.458812	3.671263	74.818338	-37.809220	-121.970471
56542	5.914360	2.930735	0.441098	-0.174214	-0.506011	3.767961	74.486881	-39.973200	-121.594373
56543	5.568545	3.643741	0.703889	-0.314997	-0.491808	3.759845	74.038029	-42.122667	-121.178188
56544	5.456557	4.091287	0.849949	-0.495495	-0.525252	3.686736	73.474292	-44.240445	-120.762767
56545	6.178511	4.034394	0.898475	-0.681636	-0.621705	3.661889	72.817676	-46.351247	-120.381509
56546	7.055851	3.728842	0.930005	-0.822251	-0.681345	3.689890	72.060688	-48.490332	-119.987304
56547	7.585541	3.416699	0.773975	-0.874839	-0.670053	3.735313	71.199443	-50.641959	-119.507931
56548	7.468293	3.404546	0.651954	-0.868620	-0.690346	3.767694	70.275299	-52.816199	-118.959205
56549	7.331972	3.538591	0.640995	-0.823953	-0.772824	3.756234	69.358654	-54.988486	-118.403005
56550	7.426327	3.756077	0.776859	-0.762657	-0.864072	3.668188	68.487606	-57.133652	-117.874554
56551	7.742576	4.258580	1.043670	-0.695191	-0.927799	3.546715	67.665036	-59.216769	-117.369482
56552	8.605222	4.880151	1.455780	-0.668147	-1.013898	3.426949	66.895325	-61.258311	-116.918752
56553	9.309732	5.670482	1.804462	-0.660290	-1.017464	3.324544	66.092625	-63.237037	-116.433670
56554	9.588857	5.903990	1.875371	-0.626894	-0.957616	3.164133	65.223990	-65.120868	-115.862818
56555	9.633211	5.760429	1.623978	-0.516318	-0.875124	2.957583	64.328451	-66.866986	-115.200949
56556	9.935881	5.339154	1.329581	-0.318332	-0.853395	2.809982	63.491527	-68.533678	-114.488693
56557	10.127406	5.284013	1.162232	-0.048481	-0.845029	2.727867	62.737647	-70.146075	-113.707420
56558	10.169479	6.062425	1.339231	0.192593	-0.886646	2.640954	62.125132	-71.728035	-112.937834
56559	10.620871	6.745327	1.814516	0.343035	-0.958498	2.561381	61.668092	-73.280681	-112.247354
56560	11.030606	7.300339	2.457170	0.422264	-0.943108	2.490337	61.182919	-74.797306	-111.486304
56561	10.929727	8.171256	2.895877	0.434151	-0.847294	2.405180	60.474578	-76.236637	-110.492699
56562	10.616418	8.986733	3.177640	0.400542	-0.735713	2.235192	59.519700	-77.560985	-109.271923
56563	10.150079	9.488619	3.168309	0.309293	-0.634062	2.022017	58.331626	-78.740213	-107.871870
56564	9.667372	9.768060	3.225169	0.226272	-0.546447	1.772274	56.990525	-79.769224	-106.370089
56565	9.605151	9.268709	2.878530	0.160943	-0.451685	1.524516	55.520084	-80.638705	-104.779283
56566	9.255862	8.938478	2.686150	0.144601	-0.364063	1.293394	53.974594	-81.366826	-103.125799
56567	9.358343	8.450193	2.342409	0.154774	-0.298815	1.084681	52.459736	-81.966436	-101.500119
56568	9.196756	7.824974	1.970343	0.248615	-0.201690	0.900619	50.925892	-82.444618	-99.803262
56569	8.973047	7.350210	1.705261	0.343851	-0.187604	0.764446	49.594097	-82.849427	-98.256745
56570	8.607005	7.053854	1.482284	0.442971	-0.166647	0.619411	48.538852	-83.180960	-96.932903
56571	8.128639	6.971522	1.484788	0.517994	-0.134668	0.455917	47.842688	-83.426350	-95.928094
56572	7.788361	6.890045	1.455908	0.532349	-0.137780	0.293912	47.669133	-83.604288	-95.441368
56573	7.542046	6.459063	1.314651	0.515319	-0.115339	0.120467	47.988351	-83.699042	-95.460445
56574	7.086924	5.929626	1.072276	0.505944	-0.073086	-0.058973	48.772066	-83.701193	-95.952132
56575	6.546767	5.343151	0.827228	0.503248	-0.054172	-0.242795	50.086653	-83.614956	-96.979664
56576	5.643041	5.256616	0.728047	0.484994	-0.102207	-0.444020	52.185187	-83.452678	-98.806761
56577	4.949835	5.376793	0.661482	0.391294	-0.227415	-0.688216	55.302926	-83.210979	-101.714960
56578	4.790110	5.275679	0.563398	0.276974	-0.355154	-0.963050	59.313597	-82.854838	-105.590276
56579	35.788254	2.427432	7.487961	-1.039972	-1.517647	-2.269292	68.926545	-82.060806	-115.882444
56580	-3.509957	-6.486281	-0.767056	2.426367	2.819837	-1.820566	63.447720	-80.449416	-108.928096
56581	25.676684	9.599777	4.564497	-0.070489	0.040152	-1.777391	65.763537	-79.518797	-111.315596
56582	11.462265	8.864333	6.049661	0.247729	0.440620	-0.648190	65.505213	-79.074471	-110.902933
56583	9.416520	2.479413	1.901707	-0.411924	-0.511499	-0.195089	66.894372	-79.089906	-112.552967
56584	9.745296	1.504114	-0.789003	-0.317860	-0.694348	-0.080166	68.727810	-79.195201	-114.599976
56585	11.981566	0.960369	-2.206800	0.129166	-0.129173	-0.046160	69.214509	-79.196548	-115.015022
56586	10.407008	1.850780	-0.107250	0.052321	0.335122	-0.000965	68.316200	-79.124236	-114.064552
56587	8.955563	1.914883	1.421587	0.092507	0.391019	-0.027582	67.326417	-79.024485	-112.997422
56588	8.861423	1.770699	1.653853	0.017767	0.162122	-0.031093	66.937777	-78.969717	-112.585797
56589	8.908229	1.812054	1.344761	-0.049404	-0.032583	-0.044849	67.050182	-78.952810	-112.724064
56590	9.463761	1.606666	0.614633	-0.064154	-0.097231	-0.077015	67.368981	-78.931399	-113.081027
56591	9.950506	1.673995	0.320266	-0.028657	-0.033865	-0.076360	67.530796	-78.897890	-113.257553
56592	9.974847	1.966181	0.475246	-0.001995	0.039111	-0.034963	67.468640	-78.868529	-113.190050
56593	9.751341	2.002579	0.775708	0.004572	0.060422	0.006722	67.302558	-78.858227	-113.013013
56594	9.577159	1.861291	0.838926	-0.004244	0.039925	0.044434	67.148398	-78.870560	-112.853043
56595	9.485250	1.729952	0.794292	-0.006332	0.004099	0.051749	67.076237	-78.896413	-112.778102
56596	9.528874	1.561554	0.645372	-0.005249	0.011865	0.034446	67.007544	-78.909645	-112.705838
56597	9.517909	1.630003	0.618916	0.001952	0.040713	0.012156	66.886433	-78.906368	-112.576184
56598	9.521539	1.683865	0.672269	-0.005542	0.052240	-0.001262	66.750011	-78.891658	-112.435069
56599	9.545688	1.712890	0.717340	-0.012748	0.061511	-0.010769	66.591660	-78.871481	-112.276035
56600	9.526878	1.721736	0.789690	-0.013348	0.062189	-0.020531	66.447472	-78.844244	-112.131542
56601	9.492799	1.722713	0.786590	-0.025604	0.056021	-0.014220	66.301585	-78.823357	-111.992693
56602	9.512883	1.698518	0.782978	-0.031480	0.055231	-0.025583	66.172618	-78.794945	-111.874281
56603	9.618646	1.741709	0.723217	-0.022440	0.050078	-0.032317	66.066537	-78.765837	-111.774142
56604	9.559201	1.667118	0.686103	-0.028432	0.073612	-0.033753	65.901809	-78.728771	-111.617461
56605	9.501195	1.759473	0.829985	-0.027538	0.070828	-0.039465	65.748261	-78.690957	-111.471871
56606	9.465945	1.714374	0.833054	-0.048962	0.063368	-0.051739	65.621682	-78.646768	-111.366051
56607	9.412488	1.701923	0.898948	-0.058766	0.051055	-0.066573	65.535348	-78.599375	-111.307229
56608	9.534396	1.901494	0.898721	-0.070617	0.023994	-0.053665	65.501651	-78.563474	-111.308792
56609	9.614439	1.796948	0.809474	-0.072475	0.000557	-0.047325	65.515553	-78.538097	-111.360241
56610	9.577289	1.770154	0.750047	-0.070545	0.003413	-0.042177	65.521284	-78.513068	-111.401996
56611	9.387890	1.767919	0.915592	-0.071472	-0.001496	-0.040372	65.532653	-78.491800	-111.450282
56612	9.398865	1.724954	0.940916	-0.098640	-0.047800	-0.051840	65.664276	-78.473842	-111.636953
56613	9.492863	1.744307	0.853584	-0.097000	-0.071684	-0.055761	65.857900	-78.461005	-111.886183
56614	9.441364	1.803394	0.899899	-0.091151	-0.086305	-0.052285	66.091865	-78.451556	-112.172955
56615	9.462180	1.757545	0.884782	-0.100107	-0.118984	-0.052659	66.400703	-78.450841	-112.541610
56616	9.519924	1.747046	0.730462	-0.098965	-0.123963	-0.054396	66.728658	-78.448271	-112.928898
56617	9.428945	1.741372	0.857861	-0.100854	-0.135521	-0.061386	67.089102	-78.445819	-113.350671
56618	9.526291	1.816514	0.811347	-0.120621	-0.163977	-0.073423	67.528193	-78.441038	-113.864075
56619	9.616454	1.785041	0.664533	-0.112427	-0.157580	-0.077060	67.955237	-78.433834	-114.360609
56620	9.644217	1.897716	0.739138	-0.107982	-0.144648	-0.072347	68.349160	-78.423997	-114.820550
56621	9.619459	1.874941	0.687887	-0.112554	-0.136403	-0.056115	68.698419	-78.422161	-115.237783
56622	9.496191	1.842459	0.808533	-0.095918	-0.141532	-0.043639	69.061331	-78.425854	-115.659027
56623	9.417420	1.769526	0.763610	-0.095099	-0.171313	-0.043740	69.499871	-78.436620	-116.157171
56624	9.586397	1.837656	0.643840	-0.086233	-0.177987	-0.061054	69.981590	-78.436917	-116.694011
56625	9.670573	1.838343	0.579633	-0.075387	-0.163714	-0.056704	70.424742	-78.437610	-117.185324
56626	9.649355	1.917370	0.572274	-0.074387	-0.138652	-0.055205	70.803796	-78.431958	-117.610453
56627	9.607159	1.875384	0.589918	-0.070730	-0.126930	-0.046873	71.143044	-78.429781	-117.992995
56628	9.594538	1.901693	0.556572	-0.064351	-0.114030	-0.041188	71.449421	-78.426204	-118.338082
56629	9.661386	1.930426	0.562261	-0.044927	-0.097824	-0.023638	71.705420	-78.430578	-118.620560
56630	9.628102	1.931065	0.545581	-0.031449	-0.088199	-0.010627	71.935288	-78.438392	-118.868305
56631	9.628557	1.882838	0.542229	-0.026952	-0.080219	-0.001405	72.136004	-78.451319	-119.083829
56632	9.595368	1.906568	0.524668	-0.020949	-0.076498	-0.005586	72.337070	-78.459484	-119.296020
56633	9.587433	1.860901	0.555576	-0.020729	-0.070021	0.000306	72.513420	-78.471288	-119.483021
56634	9.600338	1.886789	0.568199	-0.012504	-0.064718	0.003078	72.681110	-78.481910	-119.656196
56635	9.571621	1.841529	0.612516	-0.017191	-0.061038	0.004620	72.832458	-78.494333	-119.815598
56636	9.517640	1.841382	0.610922	-0.013774	-0.067291	0.001052	73.008635	-78.504091	-119.998167
56637	9.568111	1.836823	0.546023	-0.017886	-0.072761	-0.008986	73.202978	-78.510812	-120.201839
56638	9.601724	1.862933	0.545964	-0.016734	-0.064229	-0.013606	73.381544	-78.511796	-120.388572
56639	9.568308	1.863265	0.531939	-0.022492	-0.064303	-0.012185	73.553264	-78.515125	-120.571847
56640	9.659999	1.906174	0.439079	-0.020634	-0.046877	-0.011866	73.681339	-78.514060	-120.709339
56641	9.580950	1.915401	0.539903	-0.016703	-0.040239	-0.003740	73.784669	-78.518002	-120.819441
56642	9.589482	1.864176	0.507129	-0.012581	-0.037594	-0.002374	73.884816	-78.520582	-120.923724
56643	9.568661	1.913511	0.512693	-0.007390	-0.028368	0.007802	73.952412	-78.528923	-120.991914
56644	9.548317	1.864874	0.526351	-0.004470	-0.038037	0.011858	74.047507	-78.539359	-121.086296
56645	9.598463	1.907604	0.460341	-0.002323	-0.030535	0.012110	74.120798	-78.550375	-121.157331
56646	9.548990	1.910922	0.516491	-0.002059	-0.024091	0.017963	74.174915	-78.561952	-121.208488
56647	9.591324	1.858408	0.493278	-0.006102	-0.019130	0.020527	74.208702	-78.575802	-121.241421
56648	9.558244	1.831351	0.486748	-0.009830	0.006745	0.019400	74.173255	-78.583357	-121.205743
56649	9.558503	1.805771	0.489667	-0.013242	0.007334	0.005607	74.142271	-78.584847	-121.176771
56650	9.524913	1.780725	0.485486	-0.020694	0.026396	-0.008424	74.068555	-78.573990	-121.108402
56651	9.516306	1.760975	0.524034	-0.030796	0.028887	-0.032435	73.998505	-78.551116	-121.049831
56652	9.577791	1.834535	0.484218	-0.030494	0.046988	-0.044785	73.892087	-78.516957	-120.953812
56653	9.522855	1.899241	0.631695	-0.036435	0.048074	-0.045283	73.777690	-78.483912	-120.853269
56654	9.517451	1.874240	0.584096	-0.035629	0.034707	-0.039515	73.698415	-78.454561	-120.787934
56655	9.570871	1.901851	0.581173	-0.026333	0.026421	-0.035844	73.641563	-78.430136	-120.740199
56656	9.486830	1.859886	0.637862	-0.034176	0.009110	-0.029946	73.624760	-78.410159	-120.737773
56657	9.523491	1.856963	0.559175	-0.026694	-0.004911	-0.044793	73.658878	-78.385866	-120.783108
56658	9.464672	1.843715	0.652187	-0.025762	-0.027044	-0.041046	73.752059	-78.365605	-120.888050
56659	9.488600	1.864228	0.547084	-0.026546	-0.043508	-0.049907	73.892738	-78.344631	-121.042107
56660	9.533928	1.895920	0.570259	-0.023722	-0.047240	-0.052549	74.048863	-78.321142	-121.210147
56661	9.458401	1.829146	0.588214	-0.028055	-0.068820	-0.063668	74.265293	-78.296360	-121.442468
56662	9.553148	1.906691	0.546137	-0.024250	-0.076367	-0.070078	74.510025	-78.267454	-121.701345
56663	9.530989	1.962626	0.547970	-0.029254	-0.080090	-0.067607	74.756514	-78.241816	-121.965115
56664	9.509565	1.945208	0.554783	-0.029684	-0.096023	-0.063869	75.043452	-78.218814	-122.270339
56665	9.587939	1.895245	0.444955	-0.031984	-0.097535	-0.070729	75.334552	-78.193483	-122.581326
56666	9.557913	1.929305	0.480954	-0.027807	-0.087287	-0.065423	75.598074	-78.167758	-122.861586
56667	9.536808	1.887514	0.489999	-0.032709	-0.082449	-0.065742	75.842975	-78.142475	-123.125853
56668	9.548861	1.871962	0.505642	-0.025073	-0.075438	-0.084173	76.086684	-78.104195	-123.384328
56669	9.555255	1.902134	0.463224	-0.034440	-0.083413	-0.093569	76.348489	-78.063090	-123.666953
56670	9.643185	2.027131	0.362767	-0.025405	-0.060689	-0.088758	76.552774	-78.019843	-123.885406
56671	9.670018	2.056175	0.311101	-0.025005	-0.021883	-0.075965	76.644368	-77.979991	-123.988579
56672	9.487381	2.024075	0.483482	-0.035118	-0.009202	-0.058488	76.687592	-77.946654	-124.048101
56673	9.619968	1.950413	0.378278	-0.028405	-0.012875	-0.063683	76.745199	-77.912421	-124.118537
56674	9.539781	2.011591	0.479660	-0.021759	-0.005067	-0.058277	76.784600	-77.878648	-124.166336
56675	9.559493	2.016041	0.466603	-0.032070	-0.011288	-0.050533	76.827366	-77.851520	-124.223756
56676	9.623835	2.012454	0.340694	-0.025165	0.004927	-0.052706	76.835141	-77.819544	-124.241211
56677	9.544558	2.023679	0.448314	-0.027826	0.028531	-0.046993	76.775135	-77.789183	-124.191013
56678	9.502406	2.004791	0.478943	-0.028264	0.026085	-0.046073	76.722815	-77.758144	-124.148797
56679	9.477134	2.039869	0.580073	-0.028546	0.012881	-0.033760	76.695024	-77.737206	-124.131976
56680	9.480921	1.963625	0.499272	-0.038705	0.003741	-0.039426	76.690217	-77.712815	-124.144500
56681	9.471618	1.994255	0.531323	-0.039484	-0.012624	-0.048210	76.730180	-77.687179	-124.203435
56682	9.520172	1.995535	0.472124	-0.039048	-0.005357	-0.053824	76.756848	-77.655963	-124.248384
56683	9.568043	2.021937	0.411409	-0.040336	-0.006888	-0.062513	76.789855	-77.621584	-124.300712
56684	9.579578	2.029493	0.433353	-0.041631	0.015374	-0.061435	76.766641	-77.583413	-124.296116
56685	9.563796	2.106319	0.410603	-0.035127	0.036694	-0.058780	76.690001	-77.545391	-124.233120
56686	9.547053	2.091440	0.484273	-0.044695	0.047833	-0.048911	76.576218	-77.509908	-124.137560
56687	9.521399	2.043575	0.451646	-0.043907	0.044196	-0.047899	76.470128	-77.476899	-124.049536
56688	9.532970	2.049845	0.477336	-0.034069	0.043228	-0.049954	76.375705	-77.441387	-123.967545
56689	9.482107	2.057352	0.541084	-0.040882	0.039354	-0.048608	76.284845	-77.408574	-123.893325
56690	9.501703	2.061393	0.532732	-0.035564	0.037050	-0.049136	76.205354	-77.374313	-123.827492
56691	9.458837	2.066892	0.561862	-0.037919	0.023208	-0.055182	76.161027	-77.340010	-123.799202
56692	9.449534	2.074041	0.597567	-0.036146	0.007192	-0.055210	76.159297	-77.306448	-123.813397
56693	9.487241	2.001666	0.523629	-0.043643	-0.009277	-0.060750	76.195368	-77.273494	-123.870880
56694	9.538962	2.057757	0.515615	-0.039178	-0.005803	-0.075560	76.235868	-77.230390	-123.930161
56695	9.566193	2.062824	0.470340	-0.035894	0.010172	-0.084580	76.242482	-77.181511	-123.952902
56696	9.599754	2.115853	0.390040	-0.039431	0.031907	-0.101658	76.205944	-77.118751	-123.933339
56697	9.540285	2.105881	0.488601	0.001917	0.051849	-0.103768	76.144575	-77.053496	-123.864118
56698	9.525886	2.089556	0.474676	-0.042152	0.047885	-0.104395	76.070340	-76.987021	-123.807457
56699	9.513701	2.150194	0.510895	-0.028411	0.063176	-0.107766	75.968289	-76.917932	-123.714275
56700	9.516867	2.230978	0.479691	-0.034183	0.074345	-0.100383	75.834736	-76.849960	-123.591985
56701	9.500424	2.170867	0.559715	-0.041399	0.079286	-0.092257	75.680013	-76.787118	-123.452299
56702	9.497148	2.203594	0.566713	-0.036084	0.084560	-0.088824	75.517020	-76.723962	-123.300816
56703	9.441245	2.185625	0.581536	-0.042071	0.080770	-0.084545	75.356536	-76.665006	-123.155534
56704	9.542961	2.101492	0.619955	-0.042065	0.057147	-0.089618	75.257261	-76.605222	-123.072989
56705	9.604437	2.178105	0.496095	-0.024298	0.066047	-0.110717	75.159499	-76.533788	-122.981648
56706	9.573128	2.167211	0.551176	-0.034348	0.075154	-0.133053	75.051528	-76.447253	-122.885560
56707	9.578270	2.279855	0.574142	-0.015404	0.090465	-0.150051	74.929412	-76.350348	-122.763855
56708	9.587741	2.170654	0.557199	-0.025101	0.078975	-0.151854	74.832330	-76.252765	-122.673444
56709	9.492856	2.254661	0.557061	-0.009269	0.094343	-0.163353	74.716409	-76.147816	-122.554394
56710	9.488418	2.178833	0.660076	-0.006083	0.090614	-0.175275	74.621428	-76.035466	-122.454837
56711	9.476559	2.265211	0.609025	0.001314	0.077180	-0.185146	74.566045	-75.921002	-122.391820
56712	9.506346	2.261052	0.626357	0.006703	0.079825	-0.194825	74.516508	-75.799465	-122.331472
56713	9.503671	2.231633	0.637246	0.020222	0.088985	-0.208367	74.462225	-75.670344	-122.258344
56714	9.440223	2.322289	0.643713	0.026835	0.074403	-0.214485	74.449420	-75.538784	-122.223940
56715	9.497974	2.252679	0.706990	0.058404	0.084433	-0.229238	74.440816	-75.398828	-122.175315
56716	9.477776	2.389196	0.596740	0.059492	0.080798	-0.237381	74.447417	-75.253662	-122.141585
56717	9.454126	2.416256	0.668814	0.031062	0.054459	-0.255071	74.501347	-75.104049	-122.173787
56718	9.347844	2.486182	0.699519	0.079187	0.086619	-0.272404	74.527284	-74.938674	-122.148342
56719	9.473615	2.273877	0.679637	0.031507	0.039581	-0.276215	74.622090	-74.779635	-122.222674
56720	9.532188	2.451776	0.656395	0.067133	0.047392	-0.310911	74.740369	-74.598954	-122.300091
56721	9.553500	2.482475	0.614401	0.079908	0.069054	-0.346128	74.838149	-74.396760	-122.348857
56722	9.512738	2.489263	0.612599	0.064898	0.075876	-0.359695	74.920856	-74.184788	-122.390799
56723	9.425373	2.596905	0.684000	0.078961	0.093096	-0.375082	74.983238	-73.962960	-122.403421
56724	9.460771	2.586544	0.670142	0.075228	0.104366	-0.389271	75.029783	-73.730388	-122.401643
56725	9.266303	2.691063	0.804162	0.078270	0.098826	-0.387440	75.085443	-73.500867	-122.407700
56726	9.358165	2.660898	0.787105	0.071557	0.067777	-0.378782	75.190885	-73.279490	-122.469573
56727	9.541515	2.753557	0.644533	0.077713	0.077270	-0.388382	75.283611	-73.052590	-122.514703
56728	9.612788	2.754805	0.693160	0.071547	0.099463	-0.423590	75.349105	-72.801736	-122.534943
56729	9.535540	2.874220	0.841492	0.067141	0.118397	-0.429085	75.378668	-72.546289	-122.520374
