// General information: 
//  MT Manager version: 2022.2.0 
//  XDA version: 2022.2.0 build 7381 rev 124627 built on 2023-07-19
// Device information: 
//  DeviceId: 00B4BAF3
//  ProductCode: MTW2-3A7G6
//  Firmware Version: 4.6.0
//  Hardware Version: 2.0.0
// Device settings: 
//  Filter Profile: human(46.1)
//  Option Flags: Orientation Smoother Disabled, Position/Velocity Smoother Disabled, Continuous Zero Rotation Update Disabled, AHS Disabled, ICC Disabled
// Coordinate system: ENU
PacketCounter	Acc_X	Acc_Y	Acc_Z	Gyr_X	Gyr_Y	Gyr_Z	Roll	Pitch	Yaw
21572	9.048713	1.931159	-2.480959	-0.183070	0.024337	0.090822	129.598115	-69.614467	-120.998817
21573	9.077806	1.856889	-2.507513	-0.167285	0.015628	0.109340	129.596991	-69.667443	-121.098960
21574	9.102750	1.867447	-2.523061	-0.144357	0.009091	0.130183	129.638699	-69.726670	-121.230543
21575	9.141244	1.946332	-2.552189	-0.121029	0.005779	0.152845	129.719917	-69.795190	-121.390081
21576	9.048528	1.920967	-2.488578	-0.102218	0.005648	0.178517	129.839519	-69.874308	-121.578807
21577	9.049157	1.902271	-2.463279	-0.083267	-0.015511	0.206261	130.023849	-69.958232	-121.824897
21578	8.988134	1.836188	-2.428694	-0.065511	-0.013628	0.217442	130.230114	-70.046889	-122.083264
21579	8.960748	1.762649	-2.392060	-0.052299	-0.034492	0.235021	130.488539	-70.135704	-122.388975
21580	8.976061	1.665952	-2.479109	-0.027137	-0.034970	0.243458	130.774009	-70.226930	-122.707871
21581	8.925237	1.599074	-2.370683	0.000266	-0.024542	0.241429	131.062619	-70.321245	-123.013260
21582	8.857686	1.612531	-2.302036	0.019478	-0.029775	0.242664	131.373361	-70.412979	-123.330259
21583	8.846849	1.584062	-2.358003	0.045279	-0.039050	0.237801	131.707253	-70.499116	-123.655943
21584	8.846817	1.558367	-2.337875	0.072549	-0.026909	0.231025	132.038200	-70.585757	-123.961779
21585	8.795968	1.555900	-2.296073	0.091803	-0.039584	0.220616	132.386396	-70.663124	-124.273989
21586	8.813117	1.578912	-2.367559	0.120976	-0.040736	0.202032	132.735117	-70.730942	-124.568968
21587	8.797014	1.457902	-2.390146	0.164154	-0.040868	0.184660	133.091142	-70.791459	-124.845264
21588	8.808253	1.581215	-2.202790	0.265908	-0.074123	0.163925	133.524157	-70.828991	-125.141367
21589	9.079682	1.954300	-2.203222	0.281250	-0.131998	0.134799	134.002535	-70.831415	-125.476017
21590	9.455434	2.350396	-2.341924	0.288075	-0.110471	0.067345	134.382102	-70.813246	-125.702063
21591	9.598551	3.316754	-2.184411	0.272652	-0.056421	0.012524	134.625403	-70.794639	-125.793056
21592	9.383438	3.375420	-2.242036	0.238826	-0.098665	-0.024298	134.855880	-70.743226	-125.891160
21593	9.523425	3.290164	-2.252637	0.219762	-0.098182	0.012587	135.116417	-70.707454	-126.032607
21594	9.415083	2.912430	-2.275958	0.124819	-0.070047	0.092955	135.383305	-70.714697	-126.238528
21595	9.451870	2.869120	-2.361139	0.056551	-0.109670	0.117929	135.685487	-70.716043	-126.523208
21596	9.313763	2.790092	-2.346377	0.023158	-0.088620	0.135496	135.965657	-70.731955	-126.804890
21597	9.182151	2.594941	-2.269302	-0.003438	-0.094938	0.131561	136.233145	-70.743857	-127.089213
21598	9.041896	2.375317	-2.371495	-0.004991	-0.144406	0.117989	136.540110	-70.728797	-127.416343
21599	9.021813	2.263909	-2.399203	0.016484	-0.141013	0.116489	136.852888	-70.714579	-127.736592
21600	8.935360	2.193676	-2.379475	0.080599	-0.122656	0.104397	137.167373	-70.702150	-128.019788
21601	8.867879	2.160883	-2.278271	0.128989	-0.107999	0.103734	137.491809	-70.695714	-128.284133
21602	8.841876	2.541681	-2.271099	0.172079	-0.105831	0.095686	137.828966	-70.685989	-128.535845
21603	8.728345	2.448239	-2.182629	0.144957	-0.105199	0.114483	138.172094	-70.683836	-128.810336
21604	8.870578	2.502454	-2.248825	0.155508	-0.156354	0.114564	138.577002	-70.658620	-129.143938
21605	9.182534	2.109717	-2.301926	0.179281	-0.145439	0.138951	139.012473	-70.647090	-129.495528
21606	9.489536	1.899690	-2.009156	0.181048	-0.070670	0.159635	139.395064	-70.674317	-129.789991
21607	9.480357	2.096346	-1.750025	0.190795	-0.080200	0.151833	139.784114	-70.694428	-130.085332
21608	9.492110	2.385167	-1.950915	0.156957	-0.124105	0.160482	140.211746	-70.697161	-130.442081
21609	9.561756	2.041079	-2.168642	0.166660	-0.149603	0.152054	140.660396	-70.685267	-130.815234
21610	9.507919	1.991469	-2.268591	0.167118	-0.139761	0.149164	141.095431	-70.675138	-131.173693
21611	9.350819	1.788775	-2.395136	0.182580	-0.165538	0.150679	141.566587	-70.653709	-131.561094
21612	9.335434	1.885487	-2.601410	0.182535	-0.179498	0.140471	142.038059	-70.620694	-131.948906
21613	9.352208	1.913582	-2.737831	0.159190	-0.170334	0.139226	142.483632	-70.591002	-132.323522
21614	9.309881	1.897321	-2.685759	0.115113	-0.160809	0.136761	142.890558	-70.563234	-132.683998
21615	9.287617	1.868707	-2.706151	0.091470	-0.167796	0.139782	143.293203	-70.533094	-133.054360
21616	9.253607	1.802465	-2.681252	0.079574	-0.153601	0.136308	143.670029	-70.506831	-133.404634
21617	9.165992	1.843665	-2.551689	0.073313	-0.158401	0.130928	144.039504	-70.476405	-133.750964
21618	9.154240	1.879815	-2.515031	0.066387	-0.171229	0.122057	144.404596	-70.435667	-134.096942
21619	9.123330	1.844865	-2.438167	0.073020	-0.172546	0.123908	144.775385	-70.394827	-134.445007
21620	9.134167	1.725752	-2.489289	0.109340	-0.180838	0.114437	145.160867	-70.345571	-134.786689
21621	9.090351	1.687118	-2.513702	0.140306	-0.181034	0.101724	145.545408	-70.291960	-135.108622
21622	9.065138	1.744770	-2.479325	0.167872	-0.187196	0.094950	145.940623	-70.231860	-135.425246
21623	9.099802	1.788590	-2.615030	0.180546	-0.204320	0.098122	146.359994	-70.164523	-135.759934
21624	9.118417	1.764603	-2.758998	0.187300	-0.205502	0.096718	146.780087	-70.094691	-136.091439
21625	9.182641	1.880528	-2.814088	0.183814	-0.204977	0.099617	147.198757	-70.025852	-136.423678
21626	9.151152	1.906168	-2.810346	0.161707	-0.204762	0.095254	147.596456	-69.954305	-136.747248
21627	9.256174	1.818512	-2.879841	0.147005	-0.215434	0.100478	147.998788	-69.879066	-137.084852
21628	9.285372	1.677239	-2.762181	0.121329	-0.203707	0.102717	148.377270	-69.808766	-137.412897
21629	9.322947	1.510515	-2.571139	0.095392	-0.201425	0.099941	148.732788	-69.738689	-137.732433
21630	9.298489	1.426697	-2.524838	0.109259	-0.203441	0.086116	149.077352	-69.662199	-138.031991
21631	9.158469	1.135023	-2.624997	0.151736	-0.216332	0.068410	149.430308	-69.574221	-138.314668
21632	9.208132	1.022776	-2.847624	0.190469	-0.227073	0.048958	149.785398	-69.474011	-138.576137
21633	9.219808	1.118406	-3.106544	0.231081	-0.210216	0.025527	150.116943	-69.375589	-138.787714
21634	9.079634	1.452850	-3.012919	0.233889	-0.178899	0.012070	150.406432	-69.287825	-138.952811
21635	8.854937	1.675874	-2.809219	0.243873	-0.189981	-0.002253	150.689097	-69.190908	-139.104512
21636	8.843340	1.865169	-2.818621	0.221099	-0.212631	0.013675	150.994174	-69.086129	-139.294343
21637	8.849387	2.039002	-2.927525	0.214140	-0.211620	0.022846	151.304093	-68.984733	-139.493687
21638	8.887512	2.118377	-3.091020	0.214707	-0.232424	0.038102	151.646545	-68.875932	-139.727761
21639	9.042189	2.154247	-3.325215	0.220442	-0.204285	0.057820	151.995466	-68.786864	-139.965351
21640	9.052426	2.206300	-3.318522	0.210319	-0.182295	0.083240	152.354288	-68.714517	-140.219969
21641	9.116027	2.153061	-3.560256	0.179657	-0.216699	0.105275	152.745263	-68.630569	-140.528065
21642	9.090040	2.100997	-3.780647	0.151886	-0.186656	0.117682	153.114016	-68.563768	-140.829576
21643	9.013360	2.176964	-3.552968	0.117033	-0.164842	0.126601	153.458115	-68.510395	-141.126155
21644	9.002964	2.091763	-3.255346	0.037758	-0.166701	0.148206	153.784667	-68.460284	-141.452824
21645	9.063037	1.851937	-3.035824	-0.023149	-0.188695	0.166767	154.112835	-68.403470	-141.818871
21646	9.114482	1.273616	-3.104331	-0.005185	-0.213875	0.169769	154.469109	-68.332968	-142.204247
21647	9.118168	0.866133	-3.166594	0.060098	-0.190794	0.152645	154.823872	-68.269973	-142.547914
21648	9.160898	0.822981	-3.232990	0.131230	-0.177148	0.130654	155.180577	-68.207315	-142.849942
21649	9.177243	1.020572	-3.336599	0.181748	-0.151759	0.106801	155.518259	-68.152151	-143.100389
21650	9.134445	1.407426	-3.334364	0.177414	-0.128875	0.089660	155.816326	-68.103721	-143.310952
21651	9.138380	1.486130	-3.442915	0.132713	-0.150530	0.088340	156.098521	-68.043910	-143.532039
21652	9.155102	1.406505	-3.656764	0.108442	-0.160342	0.090824	156.374226	-67.978471	-143.761277
21653	9.071794	1.294063	-3.751460	0.092327	-0.147207	0.084393	156.623606	-67.918721	-143.972114
21654	9.028519	1.264415	-3.913623	0.093612	-0.134098	0.078267	156.857225	-67.863504	-144.165292
21655	8.961680	1.217050	-3.928031	0.093728	-0.099179	0.072498	157.063389	-67.825760	-144.328737
21656	8.887790	1.277146	-3.887019	0.105621	-0.078446	0.065084	157.254766	-67.796467	-144.468972
21657	8.983783	1.297767	-3.965256	0.110582	-0.067648	0.066882	157.445237	-67.773721	-144.605084
21658	9.123157	1.620869	-3.834264	0.074046	-0.031587	0.062177	157.588924	-67.768268	-144.713386
21659	9.118067	1.602542	-3.544670	0.023404	-0.020078	0.071134	157.709226	-67.771369	-144.827661
21660	9.165902	1.508794	-3.476330	-0.025166	-0.039549	0.076491	157.818792	-67.764621	-144.960513
21661	9.218500	1.364915	-3.507511	-0.047903	-0.031455	0.077880	157.912988	-67.762973	-145.090734
21662	9.202028	1.097477	-3.543681	-0.057184	-0.025918	0.069931	157.988430	-67.761888	-145.206543
21663	9.154276	0.982092	-3.574761	-0.047866	-0.024852	0.060582	158.056699	-67.759905	-145.308724
21664	9.093609	0.887280	-3.555674	-0.038744	-0.004653	0.037327	158.089184	-67.763053	-145.366711
21665	9.162366	1.008543	-3.500463	-0.054771	0.008649	0.024693	158.089378	-67.771162	-145.399594
21666	9.106237	1.198833	-3.394620	-0.078486	0.015114	0.014999	158.059735	-67.780040	-145.415059
21667	9.114756	1.232268	-3.342708	-0.091460	-0.000790	0.003483	158.016301	-67.778602	-145.423506
21668	9.125966	1.075460	-3.445706	-0.094042	-0.003113	0.006555	157.976314	-67.775993	-145.437425
21669	9.127346	1.019154	-3.324350	-0.095728	0.015588	-0.004200	157.911850	-67.781609	-145.425786
21670	9.115178	1.043063	-3.296957	-0.087503	0.014771	-0.012011	157.842051	-67.784497	-145.403456
21671	9.077055	1.168414	-3.363315	-0.074522	0.020053	-0.024375	157.761157	-67.788113	-145.360933
21672	9.020377	1.226953	-3.408525	-0.066151	0.013055	-0.037037	157.671991	-67.784631	-145.304468
21673	9.077856	1.243163	-3.576088	-0.066574	0.014460	-0.033864	157.586325	-67.783169	-145.251863
21674	9.061474	1.321544	-3.496725	-0.067160	0.035120	-0.047690	157.470966	-67.788966	-145.167730
21675	9.040175	1.387888	-3.122894	-0.115837	0.045795	-0.048217	157.321577	-67.800835	-145.076782
21676	9.135434	1.220647	-2.978622	-0.147713	0.005706	-0.051146	157.171455	-67.790168	-145.004957
21677	9.170860	0.893340	-3.213198	-0.148636	-0.019542	-0.064380	157.017979	-67.763781	-144.929885
21678	9.142782	0.531215	-3.452934	-0.110662	-0.018269	-0.089079	156.853664	-67.731814	-144.819764
21679	9.165499	0.089330	-3.795765	-0.030936	-0.044172	-0.091605	156.746848	-67.686180	-144.722170
21680	9.212733	-0.057262	-4.150593	0.058595	-0.076773	-0.098897	156.699928	-67.621044	-144.634050
21681	9.188670	0.267703	-4.603197	0.111424	0.000777	-0.169102	156.551978	-67.581327	-144.403588
21682	9.175728	0.838015	-4.595345	0.146164	0.127167	-0.237018	156.267152	-67.591422	-144.003805
21683	8.978220	1.322154	-4.345616	0.141129	0.146841	-0.258958	155.940827	-67.606544	-143.561932
21684	9.047482	2.166559	-4.074205	0.077217	0.154592	-0.255199	155.576978	-67.624958	-143.119495
21685	8.973407	2.673980	-3.794841	-0.026086	0.171474	-0.225016	155.182241	-67.658852	-142.707380
21686	9.031725	3.007427	-3.542021	-0.160116	0.149374	-0.180378	154.778319	-67.690397	-142.368809
21687	9.139041	2.829689	-3.286444	-0.289898	0.106167	-0.137834	154.379267	-67.709712	-142.115632
21688	9.123599	2.803280	-2.976246	-0.424407	0.102751	-0.097927	153.954311	-67.735968	-141.918090
21689	8.930817	2.843600	-2.788414	-0.492965	0.062449	-0.072070	153.547282	-67.748079	-141.782153
21690	8.941081	2.327907	-2.804034	-0.554752	-0.003388	-0.031125	153.196794	-67.736086	-141.745796
21691	9.064484	2.261648	-3.038903	-0.522505	-0.001212	-0.013320	152.886096	-67.730304	-141.732289
21692	8.741433	2.335587	-2.979814	-0.506720	0.059635	0.007618	152.571237	-67.760425	-141.704694
21693	8.710022	2.503190	-3.002436	-0.488478	0.021557	0.019087	152.305604	-67.774742	-141.718851
21694	8.803577	2.669465	-3.169801	-0.477249	0.008361	0.032824	152.071717	-67.785517	-141.760489
21695	8.749535	2.240976	-3.072358	-0.503133	0.037024	0.048804	151.823936	-67.815690	-141.803038
21696	8.952973	1.775112	-3.074475	-0.469479	-0.008361	0.031616	151.603991	-67.817830	-141.854914
21697	9.178535	1.188461	-3.168080	-0.454839	-0.001441	0.003469	151.353117	-67.816364	-141.864253
21698	9.445319	0.987471	-3.103349	-0.364408	0.019151	-0.034577	151.093194	-67.814231	-141.807942
21699	9.509253	0.830235	-2.966499	-0.288800	0.038279	-0.093564	150.791309	-67.805709	-141.659418
21700	9.441910	1.081647	-2.814390	-0.252296	0.042749	-0.138433	150.452445	-67.785943	-141.448455
21701	9.338572	1.192228	-2.900246	-0.194362	0.021346	-0.179194	150.112827	-67.744063	-141.200636
21702	9.270834	1.454508	-2.820988	-0.146552	0.045308	-0.198869	149.760864	-67.707267	-140.909939
21703	9.083976	1.595019	-2.832405	-0.059264	0.031851	-0.230396	149.431822	-67.654636	-140.589717
21704	8.959218	1.702146	-2.995333	-0.005306	0.022655	-0.248403	149.120053	-67.590914	-140.254755
21705	8.822804	1.914054	-3.123338	-0.001318	0.014369	-0.250396	148.816176	-67.522476	-139.925553
21706	8.659123	1.862917	-3.085591	-0.088066	0.000658	-0.249057	148.475858	-67.446399	-139.610683
21707	8.520031	2.232887	-3.024486	-0.186531	-0.049965	-0.246887	148.120833	-67.346191	-139.340648
21708	8.309330	2.857129	-3.281980	-0.274576	-0.131726	-0.292348	147.725017	-67.191154	-139.080972
21709	8.054736	3.960190	-3.529575	-0.397047	-0.147799	-0.354548	147.204647	-67.008992	-138.761827
21710	7.921867	4.462829	-3.570086	-0.525624	-0.242741	-0.351682	146.690056	-66.780416	-138.528687
21711	7.936321	4.208820	-3.777585	-0.632926	-0.317079	-0.301154	146.231314	-66.532092	-138.422897
21712	8.055465	3.676470	-3.800472	-0.722365	-0.254090	-0.227164	145.761346	-66.336536	-138.360609
21713	7.933672	3.258471	-3.292073	-0.738883	-0.171330	-0.178178	145.277446	-66.196209	-138.293410
21714	7.890886	3.183829	-2.880167	-0.682637	-0.184727	-0.114548	144.906225	-66.069801	-138.314069
21715	8.128711	2.624241	-3.015819	-0.582881	-0.201951	-0.022688	144.702675	-65.966124	-138.455800
21716	8.469014	1.935863	-3.105714	-0.432295	-0.152041	0.053779	144.628771	-65.910837	-138.645014
21717	8.744154	1.305857	-2.989808	-0.264168	-0.045745	0.106957	144.627530	-65.923312	-138.808440
21718	9.103574	0.862613	-2.666429	-0.108329	-0.020842	0.151694	144.744442	-65.961767	-139.003340
21719	9.598819	0.840683	-2.615102	0.026992	0.011696	0.164618	144.928806	-66.019972	-139.187189
21720	10.164655	0.960856	-2.460808	0.163560	0.064849	0.144175	145.131656	-66.095714	-139.305495
21721	10.373054	1.074737	-2.430383	0.314133	0.114530	0.059912	145.295267	-66.167657	-139.286501
21722	9.992793	1.246919	-2.371191	0.523117	0.130456	-0.047981	145.452116	-66.211482	-139.129231
21723	9.647935	1.873882	-2.617095	0.541789	0.072888	-0.057186	145.652159	-66.225916	-139.007496
21724	9.587018	2.102513	-2.906054	0.411705	0.041152	-0.038071	145.821599	-66.231051	-138.933783
21725	9.210205	2.568545	-3.014501	0.279348	0.066430	-0.022526	145.913370	-66.253865	-138.858067
21726	8.989394	2.679297	-3.002326	0.136253	-0.004978	0.028918	146.030884	-66.258696	-138.900059
21727	9.090909	2.577044	-3.091375	-0.083584	-0.018328	0.045839	146.050310	-66.263203	-138.972513
21728	8.864781	2.565182	-2.798226	-0.221701	-0.036177	0.039122	145.996487	-66.256462	-139.051379
21729	8.764504	1.458310	-2.868658	-0.311072	-0.111545	0.034228	145.940793	-66.213023	-139.184211
21730	8.916782	1.309164	-3.118087	-0.290884	-0.090130	-0.002048	145.842151	-66.167532	-139.257457
21731	8.660003	0.772974	-2.937995	-0.250367	-0.068249	-0.028097	145.722785	-66.124723	-139.282701
21732	8.667529	1.005178	-3.008213	-0.172639	-0.129720	-0.051551	145.667905	-66.044611	-139.329767
21733	8.572347	1.214091	-3.358639	-0.080084	-0.155634	-0.065500	145.669907	-65.948425	-139.381043
21734	8.585350	1.591298	-3.585109	-0.024730	-0.192499	-0.059035	145.736738	-65.836179	-139.468677
21735	8.686668	2.144421	-3.809935	-0.031110	-0.207858	-0.070064	145.798638	-65.713752	-139.554912
21736	8.688486	2.434722	-3.705945	-0.073996	-0.187034	-0.069514	145.821041	-65.600656	-139.624926
21737	8.781103	2.400741	-3.578558	-0.102285	-0.174748	-0.107571	145.778667	-65.481802	-139.641556
21738	8.778467	2.230662	-3.348133	-0.131551	-0.151046	-0.112770	145.697545	-65.371830	-139.634125
21739	8.858903	1.555045	-3.299439	-0.132132	-0.137860	-0.119755	145.600111	-65.266496	-139.609009
21740	8.995676	1.349403	-3.023224	-0.099321	-0.080911	-0.130323	145.471123	-65.183955	-139.528509
21741	8.936745	1.052821	-2.808517	-0.010367	-0.066777	-0.154432	145.359419	-65.100858	-139.410709
21742	9.052884	0.993008	-2.953043	0.106895	-0.087314	-0.196903	145.286900	-64.993471	-139.262058
21743	9.062044	1.269331	-3.042500	0.186407	-0.071683	-0.251630	145.195161	-64.876211	-139.041593
21744	8.956167	1.738729	-2.952798	0.207857	-0.087122	-0.295841	145.083679	-64.736313	-138.785663
21745	8.886904	2.245693	-2.909948	0.174988	-0.093495	-0.319585	144.936664	-64.586148	-138.510756
21746	8.636784	2.265099	-3.167645	0.179398	-0.114748	-0.297450	144.830787	-64.432286	-138.278470
21747	8.761387	2.276430	-3.306262	0.290683	-0.039341	-0.294493	144.741638	-64.315316	-137.993574
21748	8.318757	2.489816	-2.904997	0.421872	0.073594	-0.261285	144.683371	-64.261211	-137.659507
21749	7.745508	3.113577	-2.885636	0.513332	0.036403	-0.160642	144.801313	-64.223862	-137.462603
21750	7.478880	3.847963	-3.654231	0.589947	0.017613	-0.084512	145.049658	-64.202248	-137.361896
21751	7.173539	4.127099	-4.272785	0.698562	0.039023	-0.091691	145.338694	-64.189315	-137.237134
21752	7.113622	4.438878	-4.625691	0.697811	-0.010424	-0.097452	145.654750	-64.150701	-137.142955
21753	7.680794	4.272021	-4.657010	0.548046	-0.057841	-0.010109	146.001508	-64.118600	-137.178182
21754	8.529605	3.926916	-4.362837	0.419893	-0.030809	0.098634	146.363400	-64.133305	-137.311887
21755	9.276740	4.105184	-3.825697	0.290817	-0.009091	0.162399	146.700319	-64.178740	-137.499989
21756	9.752839	4.120618	-3.246329	0.113999	0.017424	0.222879	146.979852	-64.254847	-137.736768
21757	9.677424	3.661674	-2.854312	0.062371	-0.007853	0.246397	147.270867	-64.326123	-138.019060
21758	9.577452	2.788790	-2.851906	0.040429	-0.025943	0.277003	147.593579	-64.396914	-138.350202
21759	9.407659	2.592679	-2.946259	0.123475	-0.025535	0.266512	147.954423	-64.464393	-138.670821
21760	9.047616	2.587908	-2.993264	0.132663	-0.030107	0.283767	148.343199	-64.533405	-139.016228
21761	8.963448	2.751368	-3.151107	0.150438	-0.067893	0.284841	148.768449	-64.583783	-139.390749
21762	8.928935	2.317310	-3.473849	0.180542	-0.067789	0.302481	149.231148	-64.637595	-139.787296
21763	9.010487	2.093758	-3.700567	0.244332	-0.035876	0.301341	149.711051	-64.706002	-140.162433
21764	8.883762	2.051022	-3.903481	0.312562	-0.013117	0.285295	150.202077	-64.779153	-140.506232
21765	8.721426	2.426121	-4.137881	0.334385	-0.005922	0.271214	150.688282	-64.851232	-140.830862
21766	8.669784	2.832798	-4.004032	0.255092	0.003155	0.291595	151.148124	-64.931814	-141.176167
21767	8.718054	2.948585	-3.800797	0.118851	-0.026954	0.319300	151.579435	-65.004265	-141.576114
21768	8.902757	2.587209	-3.741520	-0.002675	-0.063889	0.351591	152.000295	-65.065008	-142.040927
21769	8.935919	1.829275	-3.840380	-0.044891	-0.094262	0.365577	152.431229	-65.113154	-142.543536
21770	9.034198	1.242908	-4.047746	-0.029760	-0.074798	0.348931	152.843754	-65.164736	-143.015874
21771	8.976804	1.158549	-3.884398	0.021203	-0.019127	0.319990	153.223751	-65.236378	-143.420173
21772	8.949763	1.490707	-3.655617	0.052018	-0.004111	0.288996	153.581150	-65.306144	-143.779731
21773	8.994199	1.495031	-3.728554	0.073722	-0.013452	0.280601	153.948351	-65.368563	-144.136362
21774	8.849981	1.529367	-3.820016	0.112094	0.014026	0.262968	154.304852	-65.439265	-144.456694
21775	8.905871	1.693240	-3.705735	0.105404	0.015112	0.267628	154.663844	-65.511379	-144.783938
21776	8.917349	1.710254	-3.825137	0.087450	0.005553	0.263805	155.015519	-65.576226	-145.114123
21777	8.920434	1.437234	-3.650231	0.076155	0.040766	0.257357	155.336220	-65.657561	-145.417350
21778	8.909876	1.188214	-3.495558	0.046993	0.037161	0.264856	155.653069	-65.737570	-145.734355
21779	8.975571	0.880364	-3.715838	0.051510	0.009531	0.238192	155.957631	-65.796709	-146.034991
21780	8.938662	0.940049	-3.927104	0.110557	0.043577	0.190916	156.224903	-65.861546	-146.257410
21781	8.849837	1.015983	-3.718059	0.117205	0.060087	0.180547	156.476504	-65.932799	-146.458444
21782	8.851477	1.196892	-3.746696	0.103389	0.041276	0.163757	156.711353	-65.989443	-146.649628
21783	8.889861	1.318482	-3.805994	0.099034	0.051916	0.146747	156.919061	-66.048103	-146.813800
21784	8.835964	1.353343	-3.797730	0.107385	0.056546	0.127977	157.107833	-66.104224	-146.951902
21785	8.875433	1.282901	-3.897014	0.127279	0.059307	0.113945	157.290571	-66.159051	-147.070914
21786	8.948824	1.199359	-3.947937	0.150350	0.073676	0.106737	157.471436	-66.219191	-147.173345
21787	8.941589	1.199506	-3.867906	0.164556	0.085861	0.094627	157.640509	-66.283547	-147.253965
21788	8.928633	1.112289	-3.793666	0.155543	0.095655	0.105959	157.813933	-66.354920	-147.344918
21789	9.199169	1.057153	-3.495679	0.180403	0.139327	0.087223	157.958104	-66.445867	-147.388342
21790	9.058699	1.127694	-3.084457	0.169750	0.180357	0.055436	158.037623	-66.551217	-147.367895
21791	9.094039	0.758472	-2.927214	0.184962	0.123498	0.036024	158.130475	-66.622761	-147.352478
21792	9.147760	0.231803	-3.150982	0.206522	0.090097	0.025477	158.239324	-66.673748	-147.341055
21793	9.107769	0.019554	-3.377440	0.245430	0.088350	-0.037496	158.293832	-66.711044	-147.246142
21794	9.095943	0.105945	-3.583458	0.269034	0.095951	-0.078202	158.307490	-66.743192	-147.092113
21795	8.984682	0.413530	-3.702082	0.268470	0.111258	-0.117333	158.264808	-66.775799	-146.877050
21796	8.987541	0.820156	-3.866220	0.216815	0.074120	-0.126934	158.198458	-66.785903	-146.668579
21797	8.991764	1.371351	-4.024399	0.148479	0.087784	-0.136727	158.074217	-66.801672	-146.439593
21798	8.858308	1.803933	-3.920510	0.043925	0.094308	-0.126522	157.898811	-66.822236	-146.220297
21799	8.821376	2.071594	-3.849872	-0.063761	0.064837	-0.104726	157.703677	-66.832212	-146.046532
21800	8.877255	1.886113	-3.779980	-0.149682	0.059825	-0.072588	157.501145	-66.845704	-145.918428
21801	8.957925	1.654116	-3.638582	-0.189482	0.065973	-0.053919	157.295841	-66.866965	-145.811999
21802	8.960008	1.457434	-3.445667	-0.204697	0.087069	-0.050370	157.074618	-66.899415	-145.697887
21803	8.956007	1.374556	-3.343746	-0.210021	0.070992	-0.036763	156.875492	-66.926853	-145.611017
21804	9.020657	1.292564	-3.536420	-0.191274	0.060543	-0.046404	156.680128	-66.945913	-145.516697
21805	8.929975	1.226119	-3.607238	-0.158637	0.080856	-0.059602	156.476321	-66.973104	-145.392772
21806	8.970491	1.314527	-3.567896	-0.129373	0.084532	-0.074936	156.267673	-66.997942	-145.245520
21807	8.954254	1.464165	-3.671365	-0.119040	0.087485	-0.079473	156.057676	-67.023652	-145.090263
21808	8.948176	1.577663	-3.555851	-0.126766	0.104523	-0.083797	155.827763	-67.056447	-144.918353
21809	8.896317	1.587933	-3.569903	-0.141122	0.098949	-0.081098	155.595832	-67.087277	-144.753086
21810	8.930291	1.448024	-3.545740	-0.158283	0.086341	-0.080290	155.361345	-67.110884	-144.595889
21811	8.990889	1.412247	-3.562736	-0.168067	0.093173	-0.080268	155.117308	-67.138370	-144.434301
21812	9.060113	1.408268	-3.551881	-0.166061	0.103268	-0.081507	154.866274	-67.169951	-144.264048
21813	9.063040	1.561669	-3.504377	-0.151673	0.109128	-0.090583	154.608662	-67.202629	-144.077607
21814	9.032060	1.583597	-3.491838	-0.137334	0.114748	-0.093320	154.351626	-67.236639	-143.883074
21815	8.951701	1.831011	-3.461252	-0.132625	0.120968	-0.097796	154.087752	-67.272970	-143.678100
21816	8.895502	2.034217	-3.408674	-0.126774	0.122453	-0.094505	153.829313	-67.309961	-143.475590
21817	8.910454	2.167578	-3.384827	-0.136381	0.116224	-0.083921	153.581748	-67.346655	-143.290749
21818	9.043535	2.203805	-3.415564	-0.144336	0.114932	-0.066774	153.350514	-67.386216	-143.128726
21819	9.153873	2.218218	-3.350055	-0.172281	0.111166	-0.047024	153.129453	-67.429247	-142.995002
21820	9.099029	2.069436	-3.203887	-0.210752	0.117532	-0.036652	152.894188	-67.477472	-142.869919
21821	9.143300	1.818695	-3.188192	-0.231403	0.094051	-0.028724	152.671169	-67.516160	-142.770851
21822	9.244669	1.583856	-3.294693	-0.223615	0.083960	-0.038558	152.446261	-67.546430	-142.665023
21823	9.230609	1.454573	-3.443121	-0.184780	0.122202	-0.050199	152.204334	-67.593388	-142.516656
21824	9.164479	1.399654	-3.486546	-0.146932	0.130340	-0.067905	151.956052	-67.638926	-142.338096
21825	9.146116	1.036231	-3.584856	-0.136921	0.120310	-0.099859	151.680237	-67.670991	-142.123517
21826	9.241765	0.921801	-3.408882	-0.157853	0.162743	-0.114440	151.345244	-67.719453	-141.858100
21827	9.154575	0.865582	-3.158349	-0.177031	0.141177	-0.174816	150.938957	-67.740305	-141.527443
21828	9.105040	1.343174	-2.778622	-0.251255	0.131033	-0.198335	150.467490	-67.747975	-141.172482
21829	9.133985	1.647028	-2.438867	-0.346095	0.086132	-0.214819	149.953168	-67.728053	-140.829758
21830	9.274270	1.833494	-2.232894	-0.419013	0.024805	-0.225304	149.428385	-67.673002	-140.520948
21831	9.323782	1.866144	-2.197436	-0.449540	-0.007486	-0.228342	148.907930	-67.600728	-140.235453
21832	9.333278	1.803627	-2.325358	-0.404453	-0.037413	-0.230385	148.434794	-67.511637	-139.973177
21833	9.232372	1.800209	-2.576883	-0.273745	-0.052906	-0.250936	148.026694	-67.408693	-139.699934
21834	9.043026	2.029225	-2.828531	-0.133723	-0.036570	-0.250152	147.690446	-67.312574	-139.417534
21835	8.838913	2.505642	-3.074488	-0.038316	-0.050264	-0.225535	147.449847	-67.217531	-139.179273
21836	8.657543	3.008783	-3.465736	-0.009473	-0.070550	-0.198773	147.273040	-67.119955	-138.992231
21837	8.561436	3.343594	-3.703686	-0.002991	-0.057396	-0.173942	147.120069	-67.036867	-138.826840
21838	8.371444	3.408916	-3.656261	-0.058626	-0.041474	-0.125488	146.979391	-66.975716	-138.709413
21839	8.438776	3.348491	-3.640418	-0.141517	-0.076101	-0.058633	146.892658	-66.919339	-138.702151
21840	8.494848	3.225051	-3.680181	-0.243920	-0.061181	0.015346	146.819746	-66.892697	-138.773722
21841	8.624446	3.098521	-3.566856	-0.304244	-0.040610	0.067117	146.755228	-66.892735	-138.892018
21842	8.676281	3.092358	-3.437635	-0.346513	-0.051037	0.087199	146.696830	-66.893602	-139.043285
21843	8.529432	3.389202	-3.491916	-0.402564	-0.056882	0.097476	146.621990	-66.895474	-139.211637
21844	8.518745	3.431008	-3.578771	-0.431461	-0.108158	0.072046	146.540072	-66.864393	-139.390266
21845	8.649111	3.249336	-3.673633	-0.481439	-0.141163	0.040632	146.418363	-66.808177	-139.556914
21846	8.661590	2.869742	-3.682914	-0.477609	-0.164619	-0.015492	146.253940	-66.722669	-139.674684
21847	8.656136	2.730632	-3.584373	-0.486835	-0.145309	-0.052977	146.028461	-66.634939	-139.731919
21848	8.649491	2.660510	-3.352924	-0.475745	-0.174578	-0.085557	145.796231	-66.522553	-139.774795
21849	8.741539	2.662776	-3.358791	-0.424406	-0.192419	-0.133485	145.555079	-66.386680	-139.776027
21850	8.775664	2.637459	-3.224175	-0.323252	-0.164828	-0.206323	145.274865	-66.239768	-139.671183
21851	8.778650	2.800033	-3.082695	-0.248592	-0.144359	-0.283791	144.941957	-66.077213	-139.461989
21852	8.799186	2.823093	-3.064846	-0.239381	-0.132644	-0.332236	144.558925	-65.903245	-139.191719
21853	8.852229	2.756050	-3.061608	-0.252246	-0.097077	-0.361754	144.115777	-65.735523	-138.863453
21854	8.723419	2.718870	-2.901759	-0.226782	-0.026871	-0.364552	143.637483	-65.597934	-138.480026
21855	8.528276	2.495120	-2.648232	-0.130988	0.033682	-0.327481	143.209920	-65.499951	-138.091887
21856	8.548042	2.095863	-2.495972	0.016005	0.124391	-0.274675	142.854167	-65.460261	-137.689683
21857	8.544537	1.690944	-2.139541	0.176007	0.220361	-0.180858	142.610810	-65.496355	-137.310477
21858	8.694131	1.338094	-1.890257	0.369392	0.249056	-0.095270	142.541317	-65.574531	-137.000499
21859	8.965763	0.822672	-2.010586	0.508016	0.270582	0.013370	142.642037	-65.700754	-136.790655
21860	9.405451	0.079767	-2.305811	0.661426	0.304664	0.088097	142.880252	-65.868286	-136.635215
21861	9.671061	-0.130527	-2.648490	0.786027	0.323672	0.105800	143.193518	-66.051416	-136.484163
21862	9.514030	0.804567	-3.086449	0.844540	0.331628	0.048079	143.475673	-66.218278	-136.262469
21863	9.252324	1.734056	-3.376480	0.746962	0.212796	-0.022603	143.719877	-66.307284	-136.060700
21864	9.315866	1.842684	-3.823796	0.641077	0.088253	-0.121952	143.895428	-66.304818	-135.850187
21865	9.180376	1.763097	-3.763932	0.463357	0.116798	-0.139620	143.928284	-66.310330	-135.595104
21866	9.082098	1.796494	-3.364743	0.303017	0.100305	-0.122495	143.900234	-66.313419	-135.373782
21867	9.128504	2.129289	-3.118469	0.121694	0.091341	-0.073457	143.826665	-66.329421	-135.216239
21868	8.949172	2.573893	-2.838802	-0.035017	0.071533	-0.038552	143.715442	-66.347415	-135.115611
21869	8.855116	2.824975	-2.680065	-0.205371	0.003100	-0.010308	143.589105	-66.343912	-135.105079
21870	8.809142	2.597285	-2.708361	-0.344441	-0.077473	0.006902	143.463998	-66.308563	-135.182860
21871	8.858233	2.325343	-2.794238	-0.388155	-0.127272	0.000392	143.345484	-66.248726	-135.295289
21872	8.850477	2.131735	-2.850746	-0.353845	-0.133517	-0.011824	143.238975	-66.181349	-135.399348
21873	8.930663	1.938211	-2.906583	-0.288060	-0.113203	-0.013106	143.152756	-66.123511	-135.484496
21874	8.792838	2.071006	-2.969776	-0.200869	-0.077137	-0.031659	143.069591	-66.075281	-135.518312
21875	8.663122	2.611415	-2.921572	-0.131691	-0.065852	-0.049285	142.998965	-66.026766	-135.522546
21876	8.561211	3.119221	-2.926130	-0.104388	-0.068511	-0.074157	142.920882	-65.967850	-135.501440
21877	8.531590	3.372397	-3.090588	-0.114726	-0.080526	-0.085016	142.835006	-65.900268	-135.478358
21878	8.501604	3.441420	-3.208384	-0.117465	-0.071907	-0.082933	142.743625	-65.836736	-135.450869
21879	8.381505	3.025230	-3.302145	-0.088896	-0.041931	-0.065389	142.663119	-65.793497	-135.417472
21880	8.518804	2.650811	-3.307606	-0.035702	0.011023	-0.038877	142.599548	-65.783018	-135.369093
21881	8.633855	2.318829	-3.130982	0.052679	0.062750	0.000000	142.585493	-65.810128	-135.319628
21882	8.822342	2.557117	-3.086745	0.143200	0.056191	0.034698	142.663983	-65.845802	-135.314623
21883	8.763447	2.116494	-3.100194	0.203636	0.123675	0.091251	142.782071	-65.932396	-135.315210
21884	8.820767	2.178345	-2.981346	0.335260	0.164748	0.130660	142.985098	-66.050855	-135.326078
21885	8.852160	2.179428	-2.820919	0.415219	0.200077	0.185258	143.263801	-66.204791	-135.369727
21886	8.885525	2.183274	-2.709472	0.446681	0.177629	0.211711	143.608289	-66.356794	-135.465355
21887	8.965568	2.059424	-2.789298	0.499984	0.145406	0.246322	144.047568	-66.505880	-135.631106
21888	9.481634	1.913007	-2.984611	0.570493	0.075289	0.255252	144.595243	-66.624191	-135.870665
21889	9.477482	2.153486	-3.222972	0.604154	0.118383	0.240743	145.116903	-66.757581	-136.060797
21890	8.927559	3.280376	-3.255391	0.598984	0.131306	0.093700	145.467867	-66.847940	-136.068154
21891	8.555625	4.181288	-3.250843	0.555774	0.050394	0.017232	145.771482	-66.875837	-136.051087
21892	9.034550	4.088372	-3.163062	0.386738	-0.064952	0.093207	146.150167	-66.872818	-136.220817
21893	9.174256	2.813358	-3.326969	0.256630	0.019588	0.212239	146.524051	-66.947981	-136.466546
21894	8.891628	2.593971	-2.988690	0.252109	0.135961	0.255452	146.860735	-67.091364	-136.674258
21895	8.665884	2.802971	-2.773667	0.137250	0.072807	0.294843	147.225914	-67.216652	-136.984343
21896	8.817420	2.249103	-3.140015	0.038723	-0.057517	0.346287	147.693995	-67.293479	-137.466743
21897	8.976256	1.107727	-3.368710	0.013020	-0.025680	0.356147	148.138175	-67.387757	-137.939167
21898	8.975827	0.271435	-3.152262	0.036132	0.025732	0.355745	148.562635	-67.505123	-138.375269
21899	8.835997	-0.467584	-3.075544	0.205404	0.033852	0.315483	149.034336	-67.613719	-138.757399
21900	9.038170	0.020593	-2.867777	0.454090	0.029966	0.191432	149.507010	-67.682362	-138.986073
21901	8.894617	0.530300	-2.775128	0.539364	0.030657	0.154147	149.984714	-67.740428	-139.167392
21902	9.207402	0.994915	-2.919239	0.597090	0.014796	0.131127	150.480507	-67.782902	-139.332338
21903	9.177703	1.396073	-2.644763	0.554974	0.077200	0.090012	150.859781	-67.845136	-139.397527
21904	9.268846	1.520321	-2.733464	0.549642	-0.012590	0.067628	151.270994	-67.855364	-139.500402
21905	9.444641	1.448222	-3.080767	0.601703	0.012356	0.051953	151.675842	-67.874219	-139.564269
21906	9.336158	1.667455	-2.855052	0.579485	0.087920	0.016078	151.973638	-67.920750	-139.526242
21907	9.099564	1.869554	-2.661491	0.532608	0.039276	0.030679	152.295254	-67.947281	-139.542982
21908	9.258997	1.727651	-2.987806	0.489989	-0.035075	0.043570	152.657848	-67.938756	-139.630209
21909	9.099699	1.442353	-3.286193	0.441417	-0.031409	0.038770	152.983760	-67.931314	-139.707975
21910	8.997681	1.422778	-3.470955	0.382164	-0.038480	0.014575	153.249895	-67.913171	-139.757790
21911	9.117883	1.226755	-3.603243	0.352085	-0.043824	0.008751	153.494330	-67.891378	-139.802865
21912	9.067572	1.212591	-3.734906	0.357221	-0.021536	-0.006944	153.707908	-67.876292	-139.811390
21913	9.096072	1.334673	-3.685893	0.330489	0.007568	-0.032943	153.854883	-67.870232	-139.764596
21914	9.061796	1.420440	-3.615005	0.279355	0.008819	-0.034340	153.970174	-67.863847	-139.715180
21915	9.098630	1.611412	-3.392261	0.245998	0.004078	-0.043223	154.057890	-67.853469	-139.656652
21916	9.097914	1.550427	-3.275274	0.229393	-0.010219	-0.040594	154.148338	-67.835768	-139.611312
21917	9.085013	1.711745	-3.375793	0.228985	-0.024590	-0.050256	154.234967	-67.808916	-139.562121
21918	9.025479	1.988800	-3.428686	0.219513	-0.019369	-0.048954	154.314727	-67.784464	-139.511336
21919	8.982626	2.133934	-3.311408	0.193827	-0.002947	-0.035297	154.386873	-67.772541	-139.468253
21920	8.916028	2.034489	-3.099843	0.135993	-0.019601	-0.004881	154.474552	-67.758921	-139.477709
21921	9.023114	1.810535	-3.078788	0.121605	-0.047561	0.004318	154.582170	-67.733724	-139.517678
21922	8.963246	1.855141	-3.111644	0.127274	-0.045916	0.013944	154.704265	-67.711085	-139.569727
21923	8.814381	1.726401	-3.248070	0.116149	-0.068171	0.016893	154.836514	-67.678215	-139.639729
21924	8.821247	1.810178	-3.427169	0.111731	-0.091668	0.020000	154.983974	-67.633214	-139.728856
21925	8.800202	1.704143	-3.560440	0.104055	-0.087506	0.026156	155.131631	-67.592396	-139.823064
21926	8.785553	1.862021	-3.666878	0.084585	-0.080407	0.024137	155.261312	-67.554078	-139.909836
21927	8.755523	1.898021	-3.627051	0.057546	-0.075441	0.034699	155.385305	-67.521398	-140.007327
21928	8.786132	1.885167	-3.609240	0.008389	-0.087913	0.052859	155.511104	-67.485861	-140.137194
21929	8.855773	1.809957	-3.589951	-0.023208	-0.084211	0.072891	155.641206	-67.457468	-140.291445
21930	8.815704	1.811609	-3.450941	-0.040095	-0.069981	0.078874	155.761046	-67.437210	-140.444992
21931	8.701691	1.795425	-3.338723	-0.060314	-0.088448	0.084898	155.886716	-67.409150	-140.617531
21932	8.710300	1.681040	-3.345827	-0.082791	-0.099592	0.100377	156.025123	-67.378157	-140.817749
21933	8.803602	1.705505	-3.325766	-0.082636	-0.105887	0.103526	156.170280	-67.344962	-141.025345
21934	8.872437	1.540525	-3.381851	-0.075533	-0.114950	0.117892	156.342323	-67.309551	-141.257605
21935	8.946319	1.550544	-3.412583	-0.059468	-0.104046	0.110166	156.506977	-67.278386	-141.472053
21936	8.953264	1.465187	-3.103045	-0.064044	-0.087893	0.110052	156.659938	-67.254905	-141.676591
21937	9.008151	1.176703	-3.088288	-0.070631	-0.132573	0.122594	156.848131	-67.211062	-141.923601
21938	8.966917	1.143705	-3.196774	-0.060050	-0.096280	0.108455	157.004877	-67.182329	-142.129866
21939	8.805422	1.526133	-2.959600	-0.049353	-0.066309	0.100681	157.141443	-67.168048	-142.307731
21940	8.848376	1.688045	-3.111069	-0.077191	-0.131203	0.108095	157.305452	-67.120373	-142.532615
21941	9.140706	1.600311	-3.727728	-0.092583	-0.173599	0.133102	157.512772	-67.056079	-142.814311
21942	9.205254	1.775410	-4.030031	-0.116425	-0.145427	0.142301	157.702494	-67.007749	-143.091724
21943	9.124389	2.034031	-3.914402	-0.124250	-0.082600	0.126510	157.834879	-66.989585	-143.311911
21944	8.837514	2.111009	-3.630204	-0.157394	-0.077586	0.132411	157.953151	-66.974595	-143.537300
21945	8.796648	2.022909	-3.490503	-0.202555	-0.115565	0.155359	158.092704	-66.944698	-143.814114
21946	8.717980	1.713045	-3.380932	-0.251937	-0.115053	0.168920	158.220472	-66.917162	-144.108788
21947	8.749238	1.352939	-3.124986	-0.268310	-0.119725	0.190705	158.367483	-66.892020	-144.434799
21948	8.884121	0.971401	-3.164740	-0.242713	-0.155443	0.193662	158.550152	-66.847554	-144.783561
21949	9.093317	0.667714	-3.547179	-0.179901	-0.147670	0.186352	158.754526	-66.805809	-145.117053
21950	9.127101	0.657568	-3.925636	-0.084617	-0.148357	0.166642	158.988596	-66.758565	-145.423407
21951	9.107047	0.923676	-4.124983	-0.034492	-0.110664	0.137467	159.195895	-66.725632	-145.669574
21952	9.039496	1.412941	-4.118733	-0.034758	-0.050250	0.104983	159.333895	-66.717622	-145.840387
21953	8.974309	1.840520	-3.768711	-0.091407	-0.051410	0.110771	159.446895	-66.710560	-146.019425
21954	9.033308	1.588237	-3.829102	-0.151579	-0.104164	0.123731	159.566134	-66.677091	-146.242724
21955	9.099351	1.367147	-3.792038	-0.179484	-0.076970	0.128554	159.662187	-66.659559	-146.458337
21956	9.069229	1.252202	-3.482338	-0.193348	-0.066396	0.123785	159.739501	-66.646097	-146.662109
21957	9.198824	0.869967	-3.426868	-0.176805	-0.104637	0.124805	159.844612	-66.612682	-146.885975
21958	9.300557	0.587958	-3.467442	-0.143607	-0.068444	0.097192	159.917744	-66.592623	-147.054214
21959	9.258823	0.498958	-3.304775	-0.083072	-0.051814	0.069494	159.983266	-66.576551	-147.176466
21960	9.107320	0.675178	-3.645425	-0.005905	-0.055829	0.030508	160.046370	-66.550070	-147.247833
21961	8.998188	1.069513	-3.877779	0.053287	0.001559	-0.001164	160.078063	-66.548867	-147.248052
21962	8.876979	1.479766	-3.961520	0.051611	-0.009908	-0.002969	160.111765	-66.540555	-147.251456
21963	8.890140	1.670091	-4.396121	0.014419	-0.024727	0.007552	160.143814	-66.526872	-147.276332
21964	8.890194	1.866256	-4.388628	-0.044064	0.022682	0.019050	160.135401	-66.540408	-147.293586
21965	8.868592	1.840229	-3.995819	-0.106530	0.013698	0.034222	160.114021	-66.552585	-147.335764
21966	8.904078	1.565268	-3.588231	-0.174430	-0.004734	0.055456	160.088466	-66.558454	-147.415745
21967	8.899260	1.205790	-3.062918	-0.212990	-0.002511	0.064627	160.051142	-66.567839	-147.507035
21968	8.993870	0.626739	-2.696134	-0.216892	-0.041450	0.065304	160.030064	-66.555895	-147.618409
21969	9.168231	0.233381	-2.987036	-0.165438	-0.092134	0.045602	160.036668	-66.513354	-147.727901
21970	9.257828	0.002578	-3.541963	-0.056945	-0.059110	-0.006521	160.025924	-66.477853	-147.750666
21971	9.185249	0.340612	-3.773850	0.051968	-0.003973	-0.053385	159.994883	-66.463449	-147.683246
21972	9.034724	0.717569	-3.976948	0.098445	0.012300	-0.089000	159.939157	-66.450209	-147.559836
21973	8.977750	1.179499	-4.224943	0.085881	0.012517	-0.106480	159.854823	-66.434173	-147.413029
21974	8.989301	1.565080	-4.354126	0.046172	0.019445	-0.111376	159.738583	-66.420202	-147.256243
21975	8.888400	1.795384	-4.293400	0.000651	0.041964	-0.106499	159.592274	-66.419718	-147.095063
21976	8.783652	2.068689	-3.935116	-0.071732	0.052394	-0.094195	159.414655	-66.426556	-146.945010
21977	8.740174	2.038834	-3.564183	-0.146407	0.041198	-0.061874	159.239170	-66.434275	-146.843955
21978	8.876767	1.754536	-3.401002	-0.237189	-0.004497	-0.024203	159.079104	-66.424555	-146.816490
21979	9.033362	1.364437	-3.760146	-0.244468	-0.036859	-0.007731	158.950375	-66.401400	-146.827773
21980	9.064634	1.235921	-4.009556	-0.218658	0.014545	-0.017357	158.800445	-66.403217	-146.799776
21981	8.952291	1.491880	-4.016198	-0.203836	0.036010	-0.021466	158.643807	-66.416125	-146.755192
21982	8.947449	1.623395	-4.223735	-0.214343	0.022146	-0.022001	158.486986	-66.420964	-146.716983
21983	8.957199	1.873493	-4.349356	-0.255208	0.050601	-0.018519	158.297254	-66.442140	-146.668411
21984	8.872884	2.023064	-4.135046	-0.321442	0.067429	-0.012512	158.068386	-66.472984	-146.618559
21985	8.883095	2.057832	-3.925769	-0.376386	0.047015	0.017688	157.854689	-66.499856	-146.619599
21986	8.940258	1.872928	-3.853985	-0.394415	0.037210	0.024853	157.644038	-66.522629	-146.635218
21987	8.976769	1.473304	-3.725807	-0.381684	0.048417	0.028358	157.439132	-66.552558	-146.649165
21988	9.144866	1.221075	-3.440566	-0.335290	0.064158	0.024634	157.248032	-66.589576	-146.649165
21989	9.168905	0.949848	-2.912577	-0.318753	0.097783	0.005443	157.025371	-66.640508	-146.604471
21990	9.257256	0.611255	-2.881254	-0.237733	0.068635	-0.027801	156.823174	-66.668109	-146.531503
21991	9.181073	0.342143	-3.143157	-0.114881	0.066799	-0.067104	156.644118	-66.686230	-146.407094
21992	9.080816	0.441717	-3.226972	-0.023610	0.094724	-0.111944	156.447551	-66.708164	-146.206701
21993	8.941436	0.795279	-3.215925	0.021626	0.081173	-0.140245	156.249477	-66.716724	-145.976434
21994	8.860242	1.110955	-3.356084	0.024859	0.069799	-0.150183	156.047015	-66.716187	-145.739419
21995	8.797157	1.427554	-3.349993	-0.007129	0.059925	-0.159091	155.821008	-66.708586	-145.496659
21996	8.810750	1.567311	-3.383564	-0.046695	0.036400	-0.156037	155.588935	-66.688502	-145.272010
21997	8.848568	1.665609	-3.420650	-0.039870	0.046156	-0.155554	155.356525	-66.673796	-145.042651
21998	8.832218	1.897340	-3.397205	-0.005298	0.058920	-0.159192	155.132513	-66.663959	-144.800899
21999	8.806810	2.092367	-3.351762	0.019132	0.073171	-0.150279	154.925532	-66.663853	-144.562399
22000	8.719145	2.252038	-3.359033	0.063358	0.078436	-0.136604	154.757185	-66.668966	-144.338425
22001	8.661073	2.314752	-3.399322	0.099520	0.078171	-0.118541	154.631377	-66.678661	-144.138209
22002	8.679551	2.252602	-3.498749	0.143763	0.076557	-0.089279	154.566762	-66.694058	-143.977060
22003	8.789695	2.262693	-3.491875	0.146316	0.100259	-0.069337	154.513802	-66.727066	-143.827047
22004	8.748088	2.372013	-3.380354	0.123618	0.094613	-0.044686	154.480460	-66.762687	-143.712569
22005	8.829692	2.475903	-3.365107	0.058847	0.080280	-0.014845	154.453914	-66.798731	-143.645939
22006	8.861390	2.235431	-3.353213	-0.004811	0.068075	0.008760	154.426366	-66.833802	-143.617874
22007	8.872392	1.982653	-3.341865	-0.044313	0.072575	0.019196	154.385933	-66.874247	-143.600489
22008	8.857384	1.625899	-3.290391	-0.061491	0.059565	0.027850	154.353769	-66.909640	-143.602729
22009	8.940647	1.307898	-3.357457	-0.046830	0.052654	0.024728	154.330017	-66.941160	-143.605061
22010	8.934679	1.132144	-3.366187	-0.028813	0.062790	0.014399	154.298290	-66.974878	-143.587429
22011	8.957281	1.142644	-3.334471	-0.005348	0.065111	-0.000849	154.259894	-67.006479	-143.548011
22012	8.950206	1.249802	-3.295944	0.018303	0.061211	-0.017902	154.216634	-67.031330	-143.488537
22013	8.981531	1.440823	-3.299138	0.027647	0.062563	-0.027155	154.166447	-67.055043	-143.415783
22014	8.987483	1.674025	-3.299669	0.034014	0.062974	-0.033340	154.112108	-67.076903	-143.334525
22015	8.952868	1.744180	-3.363852	0.028627	0.053339	-0.027488	154.067302	-67.095733	-143.267026
22016	9.030927	1.765833	-3.404653	0.030874	0.061528	-0.017632	154.030953	-67.120738	-143.207275
22017	9.025373	1.810827	-3.273473	0.019921	0.066183	-0.011390	153.992950	-67.150187	-143.152602
22018	8.960904	1.829730	-3.292803	-0.004818	0.057354	-0.001214	153.958491	-67.177140	-143.117115
22019	8.946180	1.763346	-3.293394	-0.016605	0.054036	-0.000041	153.920472	-67.203165	-143.085159
22020	8.964943	1.688687	-3.293807	-0.015157	0.054380	0.001588	153.885141	-67.229276	-143.055165
22021	8.941802	1.588829	-3.297815	-0.012699	0.045562	0.001327	153.855975	-67.251272	-143.030399
22022	9.007440	1.630617	-3.337223	-0.007614	0.050193	0.000034	153.825452	-67.274825	-143.000941
22023	8.927320	1.662662	-3.258944	-0.004195	0.049728	-0.004655	153.791188	-67.297442	-142.965375
22024	8.930154	1.667135	-3.303456	-0.008053	0.040688	-0.003498	153.761706	-67.315202	-142.937328
22025	9.024399	1.611505	-3.325943	-0.006512	0.041285	-0.008194	153.726757	-67.332568	-142.902469
22026	8.969797	1.604368	-3.275368	-0.005428	0.043226	-0.009684	153.689528	-67.350050	-142.864405
22027	9.000788	1.653284	-3.291550	-0.002969	0.034408	-0.009939	153.658551	-67.363426	-142.831658
22028	8.980950	1.641826	-3.289814	0.003227	0.041044	-0.014294	153.621834	-67.378598	-142.788784
22029	8.936637	1.674063	-3.309751	0.002552	0.037634	-0.012851	153.588375	-67.392874	-142.749929
22030	8.969605	1.662933	-3.257464	0.001491	0.035757	-0.012949	153.555461	-67.405656	-142.712261
22031	8.965900	1.574327	-3.237341	0.004167	0.031693	-0.011438	153.528228	-67.417228	-142.679156
22032	9.056233	1.575004	-3.280694	0.017862	0.034019	-0.014155	153.504205	-67.428796	-142.640965
22033	8.985106	1.644560	-3.249589	0.017107	0.048061	-0.013679	153.471481	-67.448179	-142.593890
22034	8.927325	1.695363	-3.244242	0.009451	0.030103	-0.014529	153.444512	-67.457630	-142.557735
22035	8.917002	1.720988	-3.289235	-0.000535	0.025525	-0.008627	153.421734	-67.466741	-142.532383
22036	8.918512	1.723577	-3.311346	-0.000177	0.023929	-0.005503	153.404166	-67.475332	-142.512383
22037	8.965447	1.838812	-3.323116	-0.003793	0.019702	-0.004169	153.388592	-67.482595	-142.496856
22038	8.969739	1.782897	-3.301034	-0.007662	0.021572	0.002130	153.377603	-67.491935	-142.488623
22039	8.981552	1.758067	-3.251436	-0.011506	0.023505	0.006846	153.368835	-67.503967	-142.485254
22040	8.960650	1.743411	-3.226712	-0.021003	0.017646	0.007955	153.359827	-67.512791	-142.487438
22041	8.953946	1.711776	-3.252275	-0.019825	0.013110	0.010998	153.357859	-67.520565	-142.496593
22042	8.984326	1.615295	-3.257517	-0.012090	0.013617	0.012822	153.362484	-67.528576	-142.508005
22043	8.947713	1.535301	-3.263671	-0.011387	0.017091	0.009793	153.361392	-67.538080	-142.512875
22044	8.976648	1.578845	-3.232878	-0.006920	0.018442	0.006798	153.358526	-67.547014	-142.512974
22045	9.007317	1.626383	-3.250621	0.004926	0.021896	0.002505	153.354769	-67.557109	-142.504844
22046	9.010937	1.711609	-3.217380	0.009098	0.018302	0.002498	153.355834	-67.564866	-142.499267
22047	8.993278	1.704438	-3.290694	0.005070	0.015545	0.003868	153.357792	-67.572061	-142.497234
22048	9.015586	1.718545	-3.311908	0.011036	0.017367	-0.000651	153.356638	-67.578531	-142.488056
22049	8.981805	1.724265	-3.286794	0.020211	0.018216	0.002817	153.364298	-67.586820	-142.482808
22050	8.987671	1.670877	-3.314358	0.026646	0.012027	0.004372	153.381651	-67.591846	-142.483975
22051	8.960201	1.705735	-3.238191	0.010712	0.012360	0.003917	153.388881	-67.597416	-142.484151
22052	9.008592	1.679681	-3.286622	0.012564	0.011235	0.005517	153.400087	-67.602330	-142.487395
22053	9.011652	1.620662	-3.241452	0.007064	0.008072	0.006830	153.411518	-67.606450	-142.494377
22054	9.001153	1.644754	-3.288215	0.003771	0.008853	0.003590	153.416776	-67.609648	-142.496639
22055	8.952712	1.667673	-3.213756	0.001480	0.011385	0.003610	153.418945	-67.614640	-142.497063
22056	8.945658	1.635567	-3.240606	0.006146	-0.000155	0.008103	153.436788	-67.614378	-142.511462
22057	8.981071	1.630413	-3.288728	0.002853	0.000626	0.004862	153.447995	-67.614177	-142.520811
22058	9.018207	1.565430	-3.267910	0.003942	0.002566	0.003376	153.457000	-67.614098	-142.527018
22059	9.047371	1.610988	-3.263189	0.009643	-0.000496	0.000267	153.467080	-67.612145	-142.530940
22060	9.019204	1.566857	-3.292200	0.012939	0.005387	-0.005774	153.468100	-67.611170	-142.522936
22061	9.026694	1.598370	-3.264464	0.019499	0.010427	-0.006993	153.468012	-67.612959	-142.509750
22062	9.001168	1.496369	-3.248782	0.020550	0.001326	-0.010447	153.470101	-67.608706	-142.498187
22063	9.018540	1.565507	-3.266953	0.024055	0.011962	-0.014736	153.462046	-67.609303	-142.473558
22064	8.996965	1.631570	-3.139753	0.017228	0.002043	-0.012106	153.459725	-67.604991	-142.459283
22065	8.988651	1.662303	-3.260543	0.026193	-0.001860	-0.010390	153.466892	-67.599619	-142.449791
22066	8.943268	1.693680	-3.284463	0.026785	0.008023	-0.016381	153.461024	-67.597279	-142.425755
22067	9.005611	1.731674	-3.279681	0.020427	-0.009901	-0.007662	153.473270	-67.588481	-142.425332
22068	9.012432	1.683274	-3.357548	0.015050	-0.001837	-0.009134	153.475814	-67.582943	-142.417667
22069	8.977013	1.688053	-3.309628	0.016347	0.004858	-0.008871	153.475057	-67.581400	-142.405710
22070	8.984844	1.578081	-3.293707	0.019312	-0.005246	-0.013881	153.476262	-67.572899	-142.393954
22071	9.018043	1.570311	-3.293733	0.021400	-0.001551	-0.012111	153.478357	-67.567240	-142.381948
22072	9.015137	1.565277	-3.221034	0.017285	0.002163	-0.015279	153.472080	-67.562180	-142.363352
22073	8.976838	1.772438	-3.231753	0.037714	-0.007734	-0.022942	153.473925	-67.550581	-142.340959
22074	8.934559	1.684501	-3.118795	0.006436	-0.010515	-0.011261	153.474282	-67.540050	-142.336265
22075	9.034393	1.723987	-3.236269	0.020459	-0.020818	-0.012782	153.486936	-67.524346	-142.336267
22076	8.957620	1.705488	-3.217695	0.026367	-0.008139	-0.010607	153.498051	-67.515200	-142.330858
22077	8.965057	1.658566	-3.320725	0.040391	-0.018441	-0.012130	153.521434	-67.500882	-142.330117
22078	8.968128	1.745625	-3.315821	0.052560	-0.005653	-0.008194	153.549002	-67.493630	-142.326270
22079	8.949683	1.817881	-3.287975	0.052971	-0.007122	-0.008234	153.577411	-67.486110	-142.323163
22080	8.996346	1.789626	-3.314520	0.041539	-0.012042	-0.003964	153.607812	-67.476658	-142.329218
22081	9.012265	1.711501	-3.296934	0.048859	-0.010054	-0.002110	153.643209	-67.469189	-142.336243
22082	8.987536	1.609894	-3.306592	0.045358	-0.003057	-0.003575	153.670743	-67.464447	-142.336827
22083	8.965646	1.594308	-3.284989	0.062461	-0.001260	-0.009384	153.699524	-67.459643	-142.328246
22084	8.969158	1.536864	-3.265527	0.077598	0.001423	-0.010468	153.734249	-67.455454	-142.316616
22085	8.970875	1.538561	-3.315122	0.091909	0.007047	-0.011490	153.772219	-67.454390	-142.299711
22086	8.935427	1.604180	-3.386007	0.107954	0.006962	-0.017403	153.812364	-67.451299	-142.275116
22087	8.998839	1.641398	-3.406484	0.113361	0.009962	-0.014009	153.857736	-67.451107	-142.252920
22088	9.038175	1.721630	-3.448393	0.121280	0.032865	-0.016311	153.891111	-67.461630	-142.212729
22089	9.039057	1.799906	-3.344126	0.122660	0.033117	-0.011531	153.930803	-67.473982	-142.178606
22090	8.992907	1.824509	-3.318411	0.108428	0.038652	-0.011790	153.958900	-67.488640	-142.140681
22091	8.938609	1.815734	-3.295256	0.104495	0.029458	-0.005825	153.997468	-67.500552	-142.116613
22092	8.934176	1.640366	-3.354931	0.093889	0.021614	-0.001586	154.040258	-67.509015	-142.103612
22093	8.972190	1.573238	-3.332460	0.095558	0.026795	0.000169	154.082789	-67.521067	-142.089394
22094	8.923263	1.654943	-3.352385	0.098373	0.034005	-0.002753	154.119212	-67.535632	-142.066726
22095	8.954112	1.699474	-3.371720	0.092617	0.025978	0.000042	154.160410	-67.547237	-142.052916
22096	9.005794	1.613263	-3.374008	0.076012	0.022881	0.001081	154.195550	-67.557033	-142.042725
22097	9.009217	1.697004	-3.343257	0.061046	0.024920	0.005466	154.226094	-67.569444	-142.036927
22098	9.000077	1.658508	-3.295574	0.039653	0.022107	0.004801	154.245533	-67.579771	-142.032289
22099	9.038736	1.594137	-3.297228	0.032317	0.002472	0.010470	154.279435	-67.581841	-142.047939
22100	9.006338	1.602092	-3.322725	0.028033	0.001424	0.003982	154.303675	-67.581289	-142.055697
22101	8.991097	1.535386	-3.352044	0.016662	-0.003377	0.005139	154.325453	-67.579011	-142.067957
22102	9.000972	1.509349	-3.280046	0.013955	0.000620	0.005158	154.343580	-67.578333	-142.077827
22103	9.042596	1.533865	-3.277391	0.014198	-0.005577	0.001848	154.361143	-67.574096	-142.086988
22104	9.065281	1.548765	-3.324947	0.009197	0.000949	0.001862	154.372217	-67.572769	-142.092179
22105	8.973687	1.607768	-3.350002	0.008321	-0.007220	0.001647	154.387156	-67.567639	-142.102208
22106	8.981803	1.640784	-3.348006	0.002021	0.003624	0.004897	154.396310	-67.568445	-142.109769
22107	8.960953	1.709861	-3.246534	-0.003243	0.005286	0.006376	154.403037	-67.570937	-142.118013
22108	8.966501	1.656433	-3.274036	-0.007995	-0.011964	0.009015	154.420952	-67.564706	-142.141261
22109	8.933797	1.665296	-3.299946	0.010341	-0.003597	0.006544	154.440980	-67.562652	-142.155559
22110	8.920148	1.683591	-3.275475	0.022920	-0.003252	0.006897	154.468726	-67.560395	-142.170282
22111	8.946369	1.641715	-3.302356	0.031652	-0.011942	0.008521	154.508399	-67.554504	-142.192582
22112	8.996896	1.556571	-3.306668	0.037590	-0.010211	0.005550	154.547000	-67.548308	-142.209955
22113	9.013063	1.478147	-3.287124	0.045169	-0.003340	0.005910	154.585996	-67.546215	-142.223173
22114	9.044479	1.465506	-3.238962	0.044825	-0.012800	-0.000657	154.622482	-67.537144	-142.233774
22115	9.026143	1.455511	-3.315071	0.056903	-0.004566	-0.004907	154.655391	-67.531757	-142.233097
22116	8.977758	1.480619	-3.267881	0.051469	-0.007633	-0.006711	154.685010	-67.523874	-142.232149
22117	9.014454	1.476753	-3.366481	0.041101	-0.021657	-0.005713	154.717960	-67.509443	-142.241343
22118	9.036486	1.491267	-3.415826	0.046064	-0.010659	-0.010102	154.742008	-67.499163	-142.237715
22119	8.983456	1.571609	-3.365762	0.040299	-0.001108	-0.013224	154.752973	-67.493533	-142.223517
22120	8.992119	1.606346	-3.389103	0.030166	-0.010314	-0.012105	154.765194	-67.482943	-142.216947
22121	9.016183	1.563547	-3.367008	0.020315	-0.003593	-0.010639	154.769375	-67.476655	-142.207806
22122	8.960621	1.557978	-3.345603	0.017317	-0.004499	-0.007566	154.776480	-67.470188	-142.203667
22123	8.948471	1.580461	-3.370158	0.018262	-0.007271	-0.013942	154.777551	-67.461201	-142.192587
22124	9.022300	1.596750	-3.343010	0.030427	-0.005452	-0.013587	154.785211	-67.452771	-142.180916
22125	9.005530	1.673500	-3.364968	0.028162	-0.002883	-0.015180	154.787840	-67.445738	-142.165169
22126	9.028791	1.629605	-3.318188	0.023665	-0.004240	-0.010569	154.794683	-67.438673	-142.156807
22127	8.969579	1.679863	-3.318269	0.020221	0.002818	-0.015273	154.789263	-67.434588	-142.137458
22128	8.974859	1.627057	-3.345819	0.024432	-0.007259	-0.007441	154.802223	-67.426722	-142.135244
22129	8.989954	1.610081	-3.420454	0.013353	-0.007161	-0.009313	154.806181	-67.418896	-142.130080
22130	8.984004	1.663744	-3.394273	0.014498	-0.005159	-0.014000	154.804041	-67.410518	-142.117675
22131	8.965585	1.594849	-3.350380	0.004481	-0.009712	-0.006423	154.807978	-67.402081	-142.118100
22132	8.977886	1.574450	-3.351905	0.004481	-0.009712	-0.006423	154.812210	-67.393192	-142.118813
22133	8.975710	1.572447	-3.303915	0.001772	-0.005716	-0.006413	154.812295	-67.386835	-142.116843
22134	8.963509	1.594929	-3.328517	0.003396	-0.011633	-0.004904	154.818918	-67.377319	-142.120819
22135	8.924803	1.657685	-3.327994	0.005692	-0.014159	-0.004896	154.828064	-67.366948	-142.126147
22136	8.980362	1.664767	-3.376053	0.008343	-0.018235	-0.001739	154.845300	-67.354779	-142.138552
22137	8.967882	1.686875	-3.401511	0.013921	-0.014957	-0.007875	154.855930	-67.343263	-142.140370
22138	8.966491	1.685485	-3.378541	0.008071	-0.012066	0.003134	154.875443	-67.335478	-142.155413
22139	8.961808	1.595891	-3.359976	0.014417	-0.011807	0.000128	154.894427	-67.327537	-142.165951
22140	8.946273	1.529573	-3.389251	0.023102	-0.002966	-0.002648	154.910056	-67.323064	-142.167452
22141	8.954208	1.562538	-3.387905	0.023102	-0.002966	-0.002649	154.925380	-67.319045	-142.168804
22142	8.959468	1.591911	-3.313499	0.017198	-0.004654	-0.001246	154.940341	-67.314037	-142.173249
22143	8.982677	1.607857	-3.386076	0.012150	-0.009241	-0.001463	154.954522	-67.307045	-142.180116
22144	8.969684	1.628296	-3.386371	0.001982	-0.007463	0.004661	154.969716	-67.302010	-142.194264
22145	8.967686	1.625658	-3.338380	-0.008271	-0.010309	0.002762	154.978050	-67.295478	-142.207394
22146	8.961959	1.595848	-3.414150	-0.007187	-0.008388	0.001241	154.984272	-67.289132	-142.217512
22147	8.911122	1.535856	-3.395118	-0.005718	-0.007976	0.001286	154.990885	-67.283456	-142.227248
22148	8.938795	1.580857	-3.368327	-0.005561	-0.014304	0.002750	155.003321	-67.274402	-142.243094
22149	8.970750	1.631851	-3.463594	-0.005975	-0.012835	0.002769	155.014391	-67.266555	-142.257782
22150	8.928901	1.689318	-3.364920	-0.004491	-0.001354	0.004619	155.022261	-67.264677	-142.268013
22151	8.924964	1.744306	-3.387444	-0.006786	-0.016422	0.012191	155.046608	-67.257240	-142.297631
22152	8.977292	1.662600	-3.439768	-0.012047	-0.014759	0.013679	155.069091	-67.250584	-142.328404
22153	8.936819	1.577060	-3.348126	-0.008037	-0.000985	0.015639	155.088049	-67.252000	-142.353125
22154	8.924992	1.597983	-3.372335	-0.003648	-0.010819	0.013964	155.113413	-67.247452	-142.381804
22155	8.985507	1.549371	-3.422537	-0.001381	-0.013385	0.015553	155.143226	-67.242378	-142.413984
22156	8.949262	1.552583	-3.351162	-0.001123	-0.008526	0.014071	155.168832	-67.239037	-142.441359
22157	9.004422	1.557011	-3.374153	-0.001151	-0.008566	0.015655	155.196102	-67.236488	-142.470695
22158	8.937329	1.572001	-3.376351	0.013650	-0.004295	0.009760	155.222392	-67.234303	-142.489633
22159	8.965424	1.615650	-3.349295	0.007746	-0.005979	0.011167	155.247713	-67.232011	-142.511322
22160	8.970747	1.561065	-3.377186	0.003410	-0.013659	0.017249	155.282759	-67.226741	-142.546120
22161	8.936248	1.566583	-3.354561	0.003312	-0.007252	0.012618	155.308073	-67.224128	-142.570586
22162	8.948891	1.544520	-3.355875	0.014090	-0.005727	0.008154	155.333419	-67.220799	-142.588228
22163	8.987693	1.481712	-3.383051	0.014161	-0.012172	0.014368	155.369882	-67.216022	-142.617919
22164	9.027177	1.563210	-3.452141	0.021149	-0.008571	0.011437	155.404943	-67.211987	-142.641712
22165	9.025514	1.559228	-3.404085	0.018731	0.000324	0.008383	155.429479	-67.212277	-142.655600
22166	8.975973	1.582265	-3.307263	0.014117	-0.005688	0.006568	155.452825	-67.208576	-142.671058
22167	8.967614	1.547554	-3.310317	0.019500	-0.013723	0.008124	155.485443	-67.201483	-142.693273
22168	8.928928	1.525714	-3.411946	0.026928	-0.011554	0.003587	155.515729	-67.194009	-142.708298
22169	8.970381	1.549341	-3.410657	0.046002	-0.006256	0.005727	155.556341	-67.190232	-142.722715
22170	8.980013	1.583231	-3.458885	0.042032	-0.008919	0.003994	155.594271	-67.184221	-142.736646
22171	8.947104	1.591146	-3.485205	0.022342	-0.006496	0.003574	155.618720	-67.179808	-142.748324
22172	8.940789	1.642155	-3.434887	0.011179	-0.006505	0.006481	155.640681	-67.175640	-142.764109
22173	8.941348	1.642406	-3.460375	-0.003417	-0.017010	0.010694	155.665125	-67.167394	-142.791576
22174	8.950054	1.532833	-3.466431	-0.009525	-0.012437	0.013808	155.687615	-67.161853	-142.820808
22175	8.939789	1.578314	-3.293859	-0.009413	-0.001254	0.010852	155.699934	-67.161874	-142.839044
22176	8.940453	1.578395	-3.319153	-0.000821	-0.021160	0.017013	155.736245	-67.152525	-142.877864
22177	8.987964	1.550152	-3.369251	0.016769	-0.009763	0.009714	155.766924	-67.147833	-142.899806
22178	8.967795	1.537214	-3.395913	0.029661	-0.004491	0.005357	155.796910	-67.144438	-142.912811
22179	8.966338	1.594278	-3.492399	0.038750	-0.014721	0.010128	155.843436	-67.137242	-142.938285
22180	8.982608	1.659365	-3.489901	0.022087	-0.000326	0.008427	155.870557	-67.136737	-142.952892
22181	8.930334	1.595690	-3.421749	0.008109	-0.007510	0.014311	155.900672	-67.134269	-142.979530
22182	8.987835	1.603108	-3.518167	-0.000323	-0.011475	0.015629	155.930061	-67.129611	-143.010535
22183	8.950494	1.522072	-3.523896	-0.001582	-0.007102	0.017266	155.958016	-67.128034	-143.040911
22184	8.954972	1.466610	-3.526651	0.000281	-0.001653	0.007900	155.972715	-67.126700	-143.055598
22185	8.955123	1.465856	-3.526581	0.001988	0.003575	0.008036	155.985397	-67.128550	-143.067167
22186	9.007275	1.465966	-3.451396	0.001724	-0.001280	0.009524	156.002732	-67.127787	-143.083816
22187	8.995514	1.487416	-3.475226	-0.014178	-0.000927	0.007583	156.008104	-67.127156	-143.097341
22188	8.970369	1.529141	-3.473746	-0.023168	0.002907	0.007448	156.006286	-67.128100	-143.108684
22189	8.966069	1.583717	-3.470947	-0.023381	-0.001875	0.005768	156.004607	-67.126560	-143.120430
22190	8.957051	1.549351	-3.448276	-0.021501	-0.002936	0.005790	156.004914	-67.124060	-143.133041
22191	8.970549	1.529892	-3.472951	-0.024201	0.001065	0.005804	156.001256	-67.124067	-143.143171
22192	8.941444	1.566051	-3.349399	-0.024664	0.002460	0.008988	156.000737	-67.125137	-143.156853
22193	8.944689	1.570871	-3.446688	-0.020655	-0.005838	0.004166	156.000861	-67.121142	-143.168775
22194	8.969888	1.529304	-3.447969	-0.016681	-0.003179	0.005893	156.004188	-67.118539	-143.181668
22195	8.953397	1.462150	-3.451848	-0.007068	-0.003704	0.007689	156.015247	-67.116490	-143.197154
22196	8.976644	1.559873	-3.397305	-0.000222	0.006213	0.003285	156.019584	-67.118195	-143.200908
22197	8.965000	1.581577	-3.420744	-0.000488	0.001356	0.004769	156.028017	-67.118107	-143.209395
22198	8.991060	1.540742	-3.446422	-0.009547	-0.005915	0.004419	156.035106	-67.113726	-143.221934
22199	8.958277	1.550229	-3.471667	-0.010751	-0.001467	0.002893	156.036920	-67.111718	-143.229534
22200	8.929051	1.504209	-3.475092	-0.010607	-0.007794	0.004357	156.044355	-67.106338	-143.243109
22201	8.964074	1.498210	-3.523369	-0.004871	0.000168	0.003060	156.048796	-67.105222	-143.249931
22202	8.950818	1.517856	-3.497988	-0.011356	0.006254	0.004615	156.048380	-67.107257	-143.255451
22203	8.963728	1.497173	-3.497783	-0.011688	0.007839	-0.000116	156.040774	-67.109426	-143.253559
22204	8.958920	1.550920	-3.469698	-0.016652	0.014411	-0.001686	156.025013	-67.114266	-143.245715
22205	8.999453	1.574289	-3.417100	-0.019500	0.007190	0.002858	156.016978	-67.116771	-143.248044
22206	8.960403	1.553243	-3.491818	-0.022823	0.007881	0.001209	156.004869	-67.118865	-143.248002
22207	8.983547	1.508633	-3.418796	-0.023207	0.009390	-0.000355	155.989517	-67.121780	-143.244823
22208	8.943705	1.486650	-3.469057	-0.024294	0.007473	0.001164	155.976734	-67.123650	-143.244964
22209	8.964988	1.499934	-3.466391	-0.018557	0.015435	-0.000125	155.960999	-67.129781	-143.238470
22210	8.946833	1.573554	-3.412840	-0.027377	0.012984	-0.000384	155.941474	-67.134174	-143.233211
22211	8.985819	1.513086	-3.437916	-0.026387	0.003755	-0.000550	155.927174	-67.134092	-143.233159
22212	8.997892	1.491833	-3.413110	-0.017711	0.012535	-0.001749	155.911736	-67.137930	-143.226326
22213	8.964819	1.500872	-3.412353	-0.016651	0.014413	-0.001686	155.895703	-67.143162	-143.218393
22214	8.948236	1.577054	-3.407544	-0.013605	0.015391	-0.007932	155.873352	-67.147044	-143.201505
22215	8.918668	1.530878	-3.385000	-0.014691	0.013472	-0.006414	155.853046	-67.150667	-143.187629
22216	8.927260	1.565461	-3.381573	-0.013195	0.013921	-0.007954	155.831709	-67.153770	-143.171587
22217	8.948377	1.579037	-3.379110	-0.011198	0.006490	-0.004891	155.819199	-67.154094	-143.163951
22218	8.983629	1.574197	-3.426497	-0.010324	0.003631	-0.008099	155.805056	-67.151782	-143.153931
22219	8.949403	1.581991	-3.402185	-0.000910	0.009351	-0.004581	155.797218	-67.153664	-143.144887
22220	8.930508	1.572268	-3.451347	0.003089	0.012047	-0.004428	155.790621	-67.156612	-143.134717
22221	8.959988	1.618690	-3.446821	-0.000671	0.014170	-0.004476	155.780374	-67.161041	-143.123010
22222	8.926850	1.627428	-3.446376	-0.006167	0.011024	-0.003091	155.770697	-67.163767	-143.115253
22223	8.926307	1.626597	-3.421015	-0.010221	0.008246	-0.000079	155.763726	-67.166127	-143.113004
22224	8.965275	1.565619	-3.446607	-0.011930	0.003018	-0.000231	155.758766	-67.165343	-143.113948
22225	8.957139	1.532591	-3.448191	-0.016367	0.001751	0.001218	155.753491	-67.164612	-143.117332
22226	8.975660	1.541763	-3.372996	-0.012129	0.009266	0.001480	155.747048	-67.167494	-143.116791
22227	8.963386	1.562964	-3.371226	-0.018856	0.010530	0.002925	155.737570	-67.171753	-143.117225
22228	8.977980	1.545112	-3.419745	-0.024154	0.001136	0.002594	155.730165	-67.170650	-143.123115
22229	8.978172	1.545527	-3.419052	-0.022501	0.006281	0.005913	155.724680	-67.173403	-143.130248
22230	8.977651	1.544521	-3.393675	-0.016976	0.009469	0.002949	155.717165	-67.176737	-143.131556
22231	8.953524	1.587988	-3.415764	-0.019067	0.005753	0.001231	155.708128	-67.178098	-143.132546
22232	8.967288	1.568721	-3.439954	-0.014714	0.006896	0.004534	155.705317	-67.180462	-143.137551
22233	8.944916	1.554002	-3.391831	-0.011196	0.006495	-0.004895	155.692744	-67.180770	-143.129882
22234	8.972131	1.515326	-3.441123	-0.008369	0.007144	0.001529	155.689699	-67.182555	-143.130688
22235	8.924550	1.542227	-3.391544	-0.003197	0.011887	-0.004578	155.679104	-67.185755	-143.120241
22236	8.945676	1.555317	-3.389222	-0.001967	0.007477	-0.004642	155.671880	-67.186257	-143.112534
22237	8.967605	1.569593	-3.411494	0.007291	0.008501	-0.005971	155.667443	-67.187347	-143.102106
22238	8.947011	1.557174	-3.412116	0.009381	0.012216	-0.004253	155.664541	-67.190416	-143.092036
22239	8.943760	1.612742	-3.433020	0.009086	0.007314	-0.001197	155.667748	-67.192022	-143.088909
22240	8.990216	1.583574	-3.432120	0.006031	0.012869	-0.004325	155.662470	-67.195414	-143.078343
22241	8.976144	1.602198	-3.381700	0.001651	0.011684	-0.006047	155.652928	-67.198155	-143.066007
22242	8.936350	1.579939	-3.432671	-0.009668	0.000445	0.001348	155.652674	-67.196400	-143.070650
22243	8.976128	1.520304	-3.482986	-0.004495	0.005188	-0.004758	155.644880	-67.196057	-143.064109
22244	8.981936	1.550314	-3.406978	-0.000287	0.012662	-0.002905	155.637854	-67.199675	-143.055576
22245	8.970446	1.572768	-3.429857	-0.004553	0.005104	-0.001592	155.633989	-67.200030	-143.053284
22246	8.949767	1.560667	-3.430580	-0.011634	0.007921	-0.003298	155.622638	-67.201080	-143.047111
22247	8.974428	1.518251	-3.406562	-0.012074	0.009348	-0.001694	155.611931	-67.203623	-143.042047
22248	8.954553	1.507691	-3.431791	-0.016930	-0.001474	-0.003638	155.602411	-67.199689	-143.041151
22249	8.975504	1.520994	-3.429809	-0.018011	0.007628	0.001285	155.592991	-67.202042	-143.041248
22250	9.002883	1.565392	-3.376854	-0.019133	0.001185	-0.008394	155.574812	-67.198369	-143.032328
22251	9.016297	1.547143	-3.401630	-0.021310	-0.002658	-0.005365	155.561038	-67.193773	-143.029665
22252	9.003563	1.569332	-3.400575	-0.019955	0.004126	-0.008352	155.540790	-67.191642	-143.019012
22253	8.990054	1.590280	-3.374781	-0.018896	0.006005	-0.008283	155.519880	-67.190884	-143.007264
22254	8.971876	1.583067	-3.448696	-0.019133	0.001186	-0.008397	155.501712	-67.187206	-142.998356
22255	8.951929	1.573031	-3.473923	-0.009668	0.006990	-0.008022	155.485896	-67.187013	-142.986323
22256	8.938531	1.593796	-3.447902	-0.012312	0.011077	-0.011170	155.462613	-67.187830	-142.967625
22257	8.917806	1.582476	-3.448436	-0.020013	0.004038	-0.005189	155.446036	-67.186755	-142.961052
22258	8.928668	1.560318	-3.399748	-0.025833	0.002488	-0.008548	155.423118	-67.183716	-142.951156
22259	8.916041	1.582492	-3.398356	-0.023422	0.004601	-0.002097	155.408094	-67.183684	-142.948609
22260	8.958676	1.610121	-3.419204	-0.026598	-0.001037	-0.002309	155.394467	-67.180294	-142.949267
22261	8.947753	1.573735	-3.347813	-0.022953	0.003220	-0.005287	155.376518	-67.178777	-142.943231
22262	8.938676	1.539988	-3.325098	-0.014783	0.002328	-0.005093	155.364311	-67.176475	-142.938085
22263	8.966785	1.503188	-3.399068	0.001441	0.006921	-0.007729	155.355226	-67.176307	-142.926612
22264	8.969665	1.590217	-3.369096	0.015578	0.007801	-0.012091	155.348649	-67.175182	-142.908701
22265	8.966999	1.647874	-3.414608	0.017899	0.005316	-0.013672	155.342601	-67.172733	-142.889893
22266	8.950685	1.581377	-3.418680	0.011080	0.006439	-0.007487	155.339920	-67.171999	-142.879005
22267	8.946191	1.636269	-3.415508	0.004204	0.003009	-0.010917	155.330726	-67.169012	-142.865417
22268	8.941557	1.547875	-3.396018	-0.000264	0.001691	-0.007895	155.323740	-67.165706	-142.856909
22269	8.963304	1.562564	-3.418590	0.000382	0.005040	-0.007802	155.315078	-67.164508	-142.846132
22270	8.941531	1.549345	-3.395416	-0.000234	0.001735	-0.009479	155.306129	-67.160846	-142.835476
22271	8.975917	1.543340	-3.418727	0.003792	0.004479	-0.010896	155.295899	-67.158614	-142.820882
22272	8.937988	1.606678	-3.415953	0.006140	0.013058	-0.010639	155.282735	-67.160566	-142.801689
22273	8.945396	1.639474	-3.388635	0.006289	0.006725	-0.009193	155.274739	-67.159900	-142.787888
22274	8.960034	1.621917	-3.437476	0.004378	0.007740	-0.007636	155.267300	-67.159802	-142.776004
22275	8.926647	1.630787	-3.437606	0.001057	0.008433	-0.009295	155.255203	-67.160023	-142.761388
22276	8.951258	1.588436	-3.413905	-0.004910	0.006659	-0.004738	155.246639	-67.160055	-142.754057
22277	8.908750	1.562471	-3.392007	-0.005524	0.003354	-0.006414	155.237287	-67.158312	-142.746389
22278	8.964017	1.569056	-3.413744	-0.006581	0.001474	-0.006485	155.228563	-67.155227	-142.739923
22279	8.977590	1.550252	-3.438607	-0.003261	0.000781	-0.004826	155.223911	-67.152514	-142.735774
22280	9.010196	1.541443	-3.413093	-0.002938	0.005733	-0.009462	155.211173	-67.150928	-142.722689
22281	8.997656	1.563175	-3.411580	0.007638	0.013515	-0.012174	155.196394	-67.153065	-142.700692
22282	8.971600	1.604269	-3.384755	0.010576	0.014337	-0.012077	155.183263	-67.155323	-142.678777
22283	8.956368	1.683022	-3.429003	0.002587	0.008933	-0.012414	155.167982	-67.155017	-142.659401
22284	8.952987	1.596037	-3.433269	0.005464	0.009667	-0.009149	155.158200	-67.155548	-142.644298
22285	8.975964	1.612003	-3.479479	0.007164	0.014897	-0.008986	155.146422	-67.159179	-142.626099
22286	8.959837	1.628009	-3.380185	0.001257	0.013208	-0.007599	155.134114	-67.161922	-142.610871
22287	8.953939	1.597764	-3.429981	0.003108	0.012106	-0.005988	155.125150	-67.164828	-142.598381
22288	8.975102	1.610992	-3.427305	-0.000625	0.014267	-0.007627	155.111116	-67.168112	-142.582451
22289	8.960718	1.630048	-3.376867	-0.005200	0.008302	-0.011057	155.093338	-67.167782	-142.565150
22290	8.953714	1.598955	-3.402535	-0.010113	0.008405	-0.006432	155.078698	-67.168305	-142.554461
22291	8.970325	1.523276	-3.380735	-0.001268	0.010917	-0.007720	155.065806	-67.170161	-142.540388
22292	8.968662	1.521500	-3.330923	0.002850	0.013797	-0.013886	155.046296	-67.171682	-142.516357
22293	8.958053	1.545961	-3.378027	0.011816	0.009934	-0.012140	155.036040	-67.171925	-142.496540
22294	8.967248	1.581518	-3.399479	0.014785	0.010801	-0.013626	155.025409	-67.171949	-142.474723
22295	8.987231	1.593634	-3.372857	0.014816	0.010845	-0.015211	155.012512	-67.171958	-142.450713
22296	8.963813	1.639024	-3.419462	0.015966	0.012858	-0.019893	154.993642	-67.171528	-142.419224
22297	8.952165	1.662115	-3.442413	0.021105	0.011024	-0.015035	154.984519	-67.171651	-142.395167
22298	8.951347	1.661328	-3.417386	0.013253	0.010302	-0.010510	154.977139	-67.172163	-142.377830
22299	8.951470	1.662066	-3.416706	0.007441	0.008741	-0.013878	154.962888	-67.171357	-142.356465
22300	8.949648	1.660120	-3.367289	0.002462	0.008756	-0.006086	154.955673	-67.172137	-142.346015
22301	8.962510	1.639996	-3.367281	-0.005903	0.004856	-0.007989	154.943205	-67.170732	-142.334804
22302	8.948463	1.576454	-3.419710	-0.003412	0.007107	-0.006285	154.933329	-67.170606	-142.325119
22303	8.960351	1.555039	-3.395336	0.001472	0.006962	-0.009324	154.922240	-67.169977	-142.310919
22304	8.967565	1.587823	-3.368119	0.006900	0.010037	-0.007520	154.915059	-67.171071	-142.297747
22305	8.981463	1.568911	-3.392422	0.012230	0.008467	-0.012165	154.905819	-67.170559	-142.279253
22306	8.968838	1.590270	-3.391190	0.007314	0.008568	-0.007542	154.899696	-67.170883	-142.266972
22307	8.955287	1.610343	-3.365406	0.009518	0.012462	-0.012155	154.886612	-67.172427	-142.245777
22308	8.990945	1.605632	-3.412525	0.008207	0.005717	-0.010751	154.878692	-67.170490	-142.230991
22309	8.978251	1.627264	-3.411334	0.004059	0.009341	-0.012376	154.863998	-67.170385	-142.211809
22310	8.975335	1.624203	-3.337635	0.003387	0.005947	-0.010882	154.853026	-67.168534	-142.196707
22311	8.978318	1.629151	-3.410256	-0.002486	0.004295	-0.011082	154.839073	-67.166095	-142.182043
22312	8.964491	1.649783	-3.384882	-0.006892	0.003056	-0.011233	154.823458	-67.162656	-142.168292
22313	8.944620	1.639526	-3.410464	-0.020269	-0.000879	-0.003762	154.811290	-67.159312	-142.166579
22314	8.958256	1.621112	-3.435292	-0.013501	-0.002077	-0.006771	154.800359	-67.154297	-142.162021
22315	8.951343	1.673884	-3.383631	-0.017268	0.000034	-0.006832	154.785633	-67.150685	-142.155793
22316	8.951283	1.675032	-3.383223	-0.022568	0.001644	-0.003774	154.771045	-67.148331	-142.152902
22317	8.951186	1.676023	-3.382990	-0.023909	-0.005145	-0.000788	154.762983	-67.143495	-142.157876
22318	8.977664	1.636625	-3.408399	-0.025602	0.000686	0.000878	154.752933	-67.141780	-142.161797
22319	8.968626	1.602643	-3.385923	-0.015417	-0.001063	-0.005219	154.741946	-67.137988	-142.158491
22320	8.956771	1.625582	-3.409454	-0.008107	0.000959	-0.003381	154.736528	-67.135374	-142.156562
22321	8.947786	1.591391	-3.386953	-0.010374	0.003528	-0.004975	154.726045	-67.134012	-142.150556
22322	8.931190	1.668402	-3.407625	-0.011779	-0.003352	0.001178	154.726626	-67.130279	-142.157420
22323	8.943847	1.648163	-3.408329	-0.018003	-0.003448	-0.002174	154.719302	-67.125984	-142.159522
22324	8.935694	1.615294	-3.410648	-0.020621	-0.005877	0.002456	154.717850	-67.121256	-142.169678
22325	8.949477	1.596365	-3.435409	-0.017207	0.004634	0.001203	154.710351	-67.121972	-142.171125
22326	8.942791	1.648273	-3.383411	-0.018548	-0.002158	0.004184	154.710050	-67.119594	-142.181242
22327	8.970349	1.609946	-3.433192	-0.019281	0.000915	-0.000527	154.701417	-67.117949	-142.182637
22328	8.934921	1.615726	-3.384846	-0.015771	0.005002	0.002838	154.696901	-67.118951	-142.186452
22329	8.968603	1.607971	-3.383456	-0.017462	-0.000231	0.002670	154.693937	-67.117505	-142.193012
22330	8.970717	1.611133	-3.431673	-0.014270	0.005461	0.001305	154.688132	-67.118369	-142.194495
22331	8.969889	1.610296	-3.406610	-0.017142	0.004726	-0.001968	154.676735	-67.118360	-142.191776
22332	8.990841	1.623684	-3.404247	-0.016122	0.006562	-0.000310	154.667248	-67.119399	-142.190414
22333	8.957499	1.632317	-3.404320	-0.019091	0.005690	0.001171	154.658097	-67.120683	-142.191747
22334	8.970482	1.612157	-3.404167	-0.016089	0.006608	-0.001895	154.646655	-67.121358	-142.188243
22335	8.957990	1.633645	-3.402392	-0.011429	0.012714	-0.003206	154.632441	-67.125180	-142.178975
22336	8.958169	1.634345	-3.401585	-0.015897	0.000320	-0.002038	154.624593	-67.122563	-142.179252
22337	8.965287	1.667331	-3.374159	-0.018738	0.010694	-0.005051	154.605099	-67.124887	-142.168833
22338	8.912173	1.664949	-3.400061	-0.020145	0.003807	0.001092	154.596629	-67.124844	-142.171076
22339	8.929837	1.590437	-3.403233	-0.019314	0.000869	0.001046	154.590017	-67.123589	-142.175198
22340	8.950781	1.603720	-3.400912	-0.012100	0.009317	-0.001717	154.579498	-67.125707	-142.170215
22341	8.983698	1.594690	-3.374436	-0.004087	0.014782	-0.002941	154.568505	-67.130673	-142.160122
22342	8.970219	1.614579	-3.348272	-0.003828	0.008587	-0.006254	154.557583	-67.131296	-142.149557
22343	8.993281	1.630972	-3.394305	-0.005041	0.013040	-0.007771	154.541218	-67.134168	-142.134174
22344	8.970761	1.616042	-3.346115	-0.002809	0.010422	-0.004594	154.531841	-67.136148	-142.124653
22345	8.951215	1.605549	-3.371176	-0.002260	0.009142	-0.010955	154.515363	-67.136189	-142.106970
22346	8.972097	1.619283	-3.368767	-0.003346	0.007213	-0.009447	154.501601	-67.135310	-142.093024
22347	8.964325	1.586571	-3.370165	0.001247	0.013226	-0.007582	154.488951	-67.138288	-142.077293
22348	8.954788	1.612594	-3.441658	-0.004365	0.005377	-0.011108	154.473643	-67.136047	-142.062303
22349	8.973545	1.623564	-3.390645	-0.008166	0.007440	-0.009585	154.456491	-67.135551	-142.047777
22350	8.973677	1.624696	-3.389754	-0.004144	0.010197	-0.010987	154.438637	-67.135829	-142.029886
22351	8.956237	1.700855	-3.384976	-0.006062	0.011205	-0.009434	154.420639	-67.137310	-142.013113
22352	8.947365	1.666883	-3.362136	-0.002930	0.005744	-0.009471	154.407950	-67.135657	-142.000073
22353	8.925629	1.653811	-3.338704	-0.012987	0.007666	-0.009725	154.387719	-67.135229	-141.985119
22354	8.961297	1.649766	-3.385863	-0.003599	0.002346	-0.007985	154.378467	-67.132186	-141.976225
22355	8.920837	1.626551	-3.413081	0.001474	0.006987	-0.009310	154.367430	-67.131526	-141.962561
22356	8.919953	1.625801	-3.387976	0.005046	0.011167	-0.009104	154.356580	-67.132761	-141.946556
22357	8.961620	1.651919	-3.383958	0.006295	0.006761	-0.009172	154.348645	-67.131973	-141.932619
22358	8.995331	1.644613	-3.382267	0.008050	0.012090	-0.012167	154.335220	-67.132923	-141.911953
22359	8.982681	1.666311	-3.380683	0.010002	0.011131	-0.015305	154.319330	-67.132886	-141.887374
22360	8.942350	1.642979	-3.407675	0.007729	0.007129	-0.007534	154.314313	-67.132421	-141.876033
22361	8.940327	1.640932	-3.358341	0.002663	0.009058	-0.015576	154.295030	-67.131267	-141.852723
22362	8.963214	1.657483	-3.404869	0.010064	0.004654	-0.009110	154.290883	-67.129132	-141.840873
22363	8.971260	1.691687	-3.401867	0.006164	0.013144	-0.012201	154.275476	-67.130909	-141.819350
22364	8.935803	1.697657	-3.353098	0.003194	0.012267	-0.010725	154.260926	-67.132299	-141.800483
22365	8.948750	1.677632	-3.353091	0.002274	0.004002	-0.007773	154.254000	-67.130472	-141.790910
22366	8.942994	1.647607	-3.403750	-0.001113	0.004593	-0.006274	154.246958	-67.129007	-141.782868
22367	8.929170	1.667435	-3.378282	0.003290	0.005838	-0.006112	154.241571	-67.128500	-141.773738
22368	8.983602	1.672486	-3.375183	0.012514	0.006861	-0.005809	154.241568	-67.128320	-141.764862
22369	8.952337	1.683771	-3.424209	0.006546	0.011629	-0.010640	154.229035	-67.129681	-141.746084
22370	8.970145	1.692616	-3.348561	0.009342	0.012272	-0.004192	154.225995	-67.132695	-141.735885
22371	8.971452	1.694339	-3.372140	0.001406	0.006891	-0.006146	154.218862	-67.132754	-141.726573
22372	8.964815	1.662720	-3.398094	-0.000932	0.009365	-0.004572	154.211186	-67.134173	-141.717731
22373	8.941081	1.646092	-3.325875	-0.002400	0.008950	-0.004627	154.202500	-67.135620	-141.708317
22374	8.964095	1.662205	-3.372347	-0.003700	0.002199	-0.003236	154.199108	-67.133675	-141.705845
22375	8.949478	1.596956	-3.400954	-0.001600	0.005967	-0.003085	154.194554	-67.133992	-141.700808
22376	8.957439	1.630974	-3.398200	-0.002162	0.002708	-0.006352	154.187932	-67.131532	-141.693875
22377	8.952570	1.685777	-3.394722	-0.003485	0.007019	-0.003118	154.181668	-67.132389	-141.688241
22378	8.974536	1.700332	-3.416828	0.000285	0.004914	-0.003051	154.179182	-67.131890	-141.684274
22379	8.918256	1.693121	-3.370066	-0.004668	0.011518	-0.006224	154.165674	-67.134270	-141.671224
22380	8.952116	1.685634	-3.368055	0.000500	0.009734	-0.002933	154.160600	-67.136286	-141.664317
22381	8.943375	1.650760	-3.345383	0.004653	0.006114	-0.001302	154.161703	-67.137128	-141.661710
22382	8.970333	1.610648	-3.370614	0.009509	0.005939	-0.002744	154.164268	-67.137234	-141.657491
22383	8.991323	1.623476	-3.368216	0.018253	0.014909	-0.008617	154.158979	-67.140786	-141.639458
22384	8.976694	1.641136	-3.317869	0.027369	0.015795	-0.003554	154.164947	-67.145772	-141.627827
22385	9.014015	1.637053	-3.388878	0.028944	0.016350	-0.008257	154.165427	-67.150131	-141.609079
22386	8.962313	1.634885	-3.439351	0.036807	0.017100	-0.012761	154.164757	-67.153492	-141.584377
22387	8.894591	1.648988	-3.415889	0.031602	0.023380	-0.004846	154.166730	-67.162350	-141.565871
22388	8.904079	1.683410	-3.436871	0.017895	0.009904	-0.002399	154.172169	-67.164586	-141.559557
22389	8.970435	1.665979	-3.409626	0.003434	0.010564	-0.002833	154.168114	-67.167318	-141.551807
22390	9.022924	1.668250	-3.356930	-0.001591	0.017073	-0.002845	154.157586	-67.173140	-141.540283
22391	9.017181	1.576327	-3.287695	0.017763	0.016284	-0.005435	154.155073	-67.178181	-141.525471
22392	9.039566	1.590316	-3.308978	0.039502	0.024176	-0.010933	154.153952	-67.185644	-141.498609
22393	8.978653	1.636508	-3.258635	0.063545	0.029548	-0.016419	154.156351	-67.194761	-141.460310
22394	8.948608	1.562543	-3.385191	0.060213	0.023672	-0.008719	154.170094	-67.202519	-141.436705
22395	8.957089	1.595226	-3.381674	0.065923	0.027116	-0.019586	154.171451	-67.209611	-141.396044
22396	8.891651	1.611861	-3.407053	0.061865	0.024311	-0.016604	154.176069	-67.215733	-141.361517
22397	8.942569	1.671751	-3.424812	0.050433	0.019380	-0.012307	154.182036	-67.220654	-141.335507
22398	8.905881	1.675481	-3.352045	0.033913	0.016305	-0.014481	154.177993	-67.223178	-141.308957
22399	8.939645	1.667737	-3.350314	0.022271	0.006553	-0.010281	154.177933	-67.221996	-141.294058
22400	8.999062	1.618302	-3.349989	0.031874	0.006078	-0.008402	154.186266	-67.220762	-141.282198
22401	8.965589	1.626048	-3.350939	0.030692	0.010566	-0.011527	154.187055	-67.221352	-141.263140
22402	8.965771	1.625928	-3.350511	0.041418	0.012061	-0.012750	154.191960	-67.222121	-141.241631
22403	8.947963	1.700626	-3.347158	0.049629	0.011254	-0.014098	154.200016	-67.222432	-141.218775
22404	8.915608	1.709349	-3.372770	0.050887	0.006851	-0.014147	154.211725	-67.220167	-141.198761
22405	8.964825	1.768033	-3.367571	0.045952	0.006944	-0.009540	154.225930	-67.219384	-141.184764
22406	8.937513	1.722167	-3.396027	0.037913	0.001421	-0.006722	154.242546	-67.216170	-141.178136
22407	8.965981	1.767988	-3.392656	0.029282	0.003696	-0.005365	154.254227	-67.214724	-141.171408
22408	8.973848	1.656474	-3.349148	0.015965	-0.000185	-0.001091	154.266136	-67.212084	-141.173313
22409	8.993013	1.582282	-3.376660	0.017470	0.000273	-0.002624	154.276407	-67.209543	-141.172257
22410	8.938909	1.576799	-3.379286	0.032631	0.014174	-0.005075	154.284470	-67.213324	-141.159633
22411	8.950947	1.698802	-3.396371	0.032631	0.014174	-0.005077	154.292115	-67.217376	-141.146716
22412	8.938382	1.718825	-3.395432	0.027526	0.009489	-0.002145	154.303625	-67.219467	-141.141003
22413	8.964454	1.676707	-3.395857	0.020154	0.007360	-0.000827	154.313437	-67.221007	-141.137491
22414	8.954554	1.640108	-3.348780	0.018228	0.008371	0.000717	154.323802	-67.223233	-141.136315
22415	8.962614	1.528288	-3.304714	0.024688	0.002248	0.002401	154.343212	-67.222992	-141.141216
22416	8.994733	1.577431	-3.374348	0.032636	0.003062	-0.005276	154.357598	-67.220990	-141.135448
22417	9.002624	1.610349	-3.372374	0.034310	0.008302	-0.005136	154.369705	-67.222005	-141.126379
22418	9.036373	1.601887	-3.370979	0.033302	0.006454	-0.006788	154.380609	-67.221381	-141.116420
22419	9.044240	1.635058	-3.368965	0.031874	0.006073	-0.008429	154.388566	-67.220397	-141.103850
22420	8.983482	1.597642	-3.397908	0.024444	0.010383	-0.013355	154.383997	-67.220177	-141.082615
22421	8.968259	1.616393	-3.348465	0.023779	0.006992	-0.011845	154.382549	-67.218832	-141.065094
22422	8.969487	1.617906	-3.372571	0.025323	0.007485	-0.014966	154.378215	-67.216715	-141.043566
22423	8.970656	1.619538	-3.396781	0.016866	0.003432	-0.012121	154.374574	-67.213451	-141.027828
22424	8.939497	1.630148	-3.446466	0.019623	0.010595	-0.013509	154.366936	-67.213301	-141.006259
22425	8.934667	1.770656	-3.390598	0.014344	0.012237	-0.012061	154.356746	-67.214606	-140.985095
22426	8.876613	1.821588	-3.414845	-0.011282	0.006328	-0.001842	154.348265	-67.215141	-140.981817
22427	8.932221	1.828269	-3.435694	-0.023797	-0.000524	0.004008	154.343445	-67.213832	-140.990156
22428	8.977545	1.943721	-3.451747	-0.035539	0.007236	0.003761	154.327418	-67.216227	-140.993768
22429	8.943353	1.892398	-3.332287	-0.056307	0.001150	0.012533	154.313492	-67.217889	-141.012396
22430	8.963964	1.820434	-3.382971	-0.070075	-0.012411	0.018221	154.307066	-67.213732	-141.047884
22431	8.957242	1.703559	-3.461789	-0.080271	-0.004154	0.014852	154.285371	-67.213248	-141.073241
22432	8.938128	1.634203	-3.391977	-0.088350	-0.009714	0.019254	154.268147	-67.210748	-141.108374
22433	8.936652	1.548820	-3.420345	-0.087930	-0.011181	0.019229	154.251653	-67.207719	-141.143974
22434	8.918381	1.539730	-3.470121	-0.095556	-0.007060	0.022224	154.232372	-67.207336	-141.181356
22435	8.921469	1.569574	-3.369724	-0.091117	-0.005765	0.020789	154.212749	-67.207509	-141.215678
22436	8.942191	1.583502	-3.367449	-0.087593	-0.012726	0.022345	154.201537	-67.204242	-141.256866
22437	8.961680	1.595872	-3.341024	-0.077705	-0.008293	0.021151	154.191482	-67.203228	-141.293526
22438	8.968325	1.628908	-3.314010	-0.071302	-0.007963	0.016592	154.179714	-67.200989	-141.323985
22439	8.939694	1.583257	-3.317897	-0.062920	-0.015101	0.016711	154.176680	-67.195366	-141.359111
22440	9.009170	1.570598	-3.364177	-0.048381	-0.004555	0.014218	154.173100	-67.194294	-141.384208
22441	9.027682	1.580827	-3.313183	-0.033042	0.003011	0.013282	154.172365	-67.197138	-141.402992
22442	9.034065	1.672987	-3.380983	-0.030547	-0.010396	0.005141	154.171337	-67.190788	-141.419773
22443	9.020684	1.609295	-3.434163	-0.031971	0.000341	0.003733	154.161061	-67.189908	-141.427989
22444	8.928191	1.607578	-3.340152	-0.033227	0.004746	0.003785	154.147843	-67.191029	-141.433212
22445	8.894533	1.616360	-3.341128	-0.040818	-0.013312	0.004735	154.141829	-67.183318	-141.451007
22446	8.869284	1.575006	-3.418539	-0.040684	-0.008582	0.008015	154.137436	-67.178626	-141.470440
22447	8.861749	1.627196	-3.366955	-0.032183	-0.004478	0.003617	154.129776	-67.175196	-141.481110
22448	8.908445	1.683955	-3.312750	-0.037240	-0.015644	0.012729	154.137316	-67.168042	-141.511351
22449	8.972248	1.640484	-3.410660	-0.029538	-0.008557	0.006785	154.137423	-67.163326	-141.529251
22450	9.008857	1.660477	-3.309990	-0.014865	-0.004395	0.007355	154.144514	-67.160627	-141.545096
22451	9.056287	1.633181	-3.334326	-0.009306	-0.012231	0.002596	154.153278	-67.152985	-141.559980
22452	9.075102	1.559578	-3.362888	0.007162	-0.002693	-0.001416	154.161238	-67.148972	-141.563073
22453	9.035292	1.620481	-3.336792	0.010044	0.004614	-0.007508	154.158752	-67.147451	-141.553129
22454	8.927853	1.612631	-3.366799	0.004593	0.001481	-0.007755	154.155009	-67.144007	-141.545120
22455	8.873441	1.608204	-3.369805	0.002419	-0.002380	-0.004738	154.155708	-67.139629	-141.544191
22456	8.896370	1.624053	-3.417008	-0.000630	-0.003352	-0.000096	154.161205	-67.135605	-141.549459
22457	8.886792	1.649213	-3.489980	0.005560	-0.007836	-0.004759	154.166862	-67.128386	-141.551639
22458	8.965575	1.756094	-3.504952	0.008592	-0.002323	0.000226	154.177423	-67.124973	-141.556668
22459	9.691229	1.860355	-3.711186	0.099058	-0.035984	0.100817	154.382273	-67.129480	-141.717121
22460	8.631610	1.579758	-3.145239	0.119128	-0.016313	0.043134	154.516907	-67.129428	-141.788073
22461	8.708835	2.666654	-3.494272	-0.051662	0.069294	0.007769	154.459854	-67.165157	-141.757535
22462	9.203462	1.317219	-2.909762	-0.013332	-0.067184	0.069542	154.580862	-67.145269	-141.896042
22463	8.761234	1.000410	-3.588229	0.042500	0.003460	0.029997	154.643637	-67.152423	-141.937318
22464	8.764109	2.227918	-3.369875	-0.024951	0.037300	0.003178	154.615454	-67.170232	-141.921160
22465	8.955594	1.192099	-3.198062	-0.028143	-0.023181	0.043031	154.669483	-67.166770	-141.996647
22466	8.852963	1.451783	-3.556297	0.035691	0.002003	0.007533	154.701979	-67.167371	-142.008628
22467	8.939485	2.130090	-3.390356	-0.036549	0.014588	0.021360	154.702521	-67.178139	-142.031256
22468	8.992723	1.675361	-3.437455	-0.047359	-0.015665	0.031461	154.727167	-67.175440	-142.086346
22469	8.960661	1.683499	-3.462755	-0.041657	0.003389	0.032057	154.744469	-67.182983	-142.129989
22470	8.972308	1.743664	-3.360340	-0.057456	-0.013783	0.032750	154.763835	-67.181560	-142.185624
22471	8.995333	1.529341	-3.444931	-0.051707	-0.001205	0.039558	154.787209	-67.188577	-142.242750
22472	8.982152	1.343837	-3.309364	-0.025416	-0.007579	0.018046	154.803222	-67.186766	-142.274831
22473	8.995949	1.755994	-3.407541	-0.012645	-0.018043	0.008699	154.820839	-67.177531	-142.301588
22474	8.887385	1.289697	-3.514230	-0.002453	0.004891	0.033349	154.861641	-67.185905	-142.346289
22475	9.028840	1.422427	-3.445387	0.018103	0.106868	0.128341	154.972456	-67.270516	-142.454849
22476	9.023140	1.465163	-3.365713	0.086757	-0.008767	-0.006880	155.022633	-67.262009	-142.454269
22477	8.873733	2.088775	-3.385384	-0.034605	0.020142	0.012008	155.009652	-67.273305	-142.460505
22478	9.003302	1.306291	-3.350154	-0.002361	-0.001477	0.036370	155.058187	-67.279043	-142.513503
22479	9.080657	1.178365	-3.352140	0.021657	0.038894	0.022196	155.079277	-67.302547	-142.521819
22480	8.934118	2.235975	-3.468253	0.026600	-0.012565	-0.026368	155.072949	-67.287361	-142.497350
22481	8.863679	1.158961	-3.363529	-0.027111	0.000904	0.045126	155.116469	-67.296672	-142.560646
22482	9.156515	2.053028	-3.443975	0.010001	-0.008509	0.009655	155.143014	-67.292283	-142.582121
22483	8.872078	1.483050	-3.447158	-0.016780	-0.101463	-0.071008	155.107291	-67.220391	-142.553230
22484	8.958812	1.768456	-3.477060	-0.109655	0.037298	0.075001	155.119850	-67.255569	-142.633895
22485	9.074363	1.379091	-3.396605	0.022723	-0.052791	-0.048050	155.107349	-67.214503	-142.605608
22486	8.863613	1.393841	-3.382087	-0.047660	0.034786	0.043660	155.118030	-67.240819	-142.645718
22487	9.065236	1.547367	-3.485001	0.028075	-0.025143	-0.012354	155.136903	-67.222712	-142.647829
22488	8.808546	1.530439	-3.375869	-0.002838	0.032458	0.002238	155.123326	-67.237832	-142.633779
22489	8.881777	1.600808	-3.389689	-0.005651	0.030400	0.057605	155.177729	-67.265421	-142.694940
22490	8.906867	1.528632	-3.512245	0.030106	0.036327	0.028775	155.213776	-67.288938	-142.714231
22491	8.867416	1.810227	-3.371104	-0.004110	0.054978	0.042340	155.236167	-67.325649	-142.740285
22492	8.989306	1.645908	-3.295569	0.006178	0.069526	0.087399	155.312704	-67.380483	-142.818293
22493	8.970263	1.515015	-3.493966	0.054842	0.072208	0.079558	155.405865	-67.435021	-142.884265
22494	8.969750	1.416325	-3.467493	0.034481	0.108946	0.097094	155.489001	-67.512617	-142.951792
22495	8.978157	1.636404	-3.444615	0.067632	0.116918	0.082520	155.568403	-67.591129	-142.995353
22496	8.982262	1.422880	-3.323277	0.055506	0.141810	0.095267	155.643394	-67.685368	-143.040968
22497	9.009760	1.427302	-3.335522	0.085056	0.107880	0.063875	155.715104	-67.754676	-143.064753
22498	9.049154	1.698710	-3.359827	0.052805	0.072386	0.044548	155.764537	-67.800670	-143.084385
22499	9.093032	1.719834	-3.352306	0.018213	0.023760	0.015389	155.784602	-67.814617	-143.093896
22500	9.065701	1.757496	-3.301868	-0.004772	-0.001567	0.012473	155.802685	-67.814422	-143.115293
22501	9.020375	1.476113	-3.466963	-0.014180	-0.002706	0.018447	155.823390	-67.815257	-143.145614
22502	9.023814	1.503029	-3.365893	-0.014945	0.028793	0.017455	155.824566	-67.832096	-143.155046
22503	8.956314	1.458884	-3.272747	-0.008711	0.000388	0.018704	155.846996	-67.834588	-143.183653
22504	8.994396	1.453247	-3.343703	-0.008127	0.010115	0.015749	155.860662	-67.841261	-143.202353
22505	8.976804	1.467546	-3.244852	-0.000731	0.012187	0.014475	155.875440	-67.848945	-143.218085
22506	9.001045	1.481496	-3.290712	0.002007	0.008222	0.012912	155.892377	-67.853960	-143.234045
22507	9.036354	1.472912	-3.313009	0.016460	0.007454	0.013425	155.918419	-67.858891	-143.250846
22508	9.032740	1.525626	-3.309353	0.021505	0.018441	0.009072	155.935737	-67.868350	-143.255157
22509	9.044598	1.501765	-3.284181	0.020396	0.016521	0.010577	155.955133	-67.877353	-143.262335
22510	9.034111	1.522588	-3.307008	0.014968	0.013473	0.008733	155.971140	-67.884132	-143.269272
22511	9.006912	1.476514	-3.334565	0.019286	0.014601	0.012082	155.992978	-67.892503	-143.280074
22512	8.977121	1.486256	-3.383227	0.015152	0.024670	0.005785	155.998879	-67.904454	-143.275988
22513	8.950186	1.582603	-3.402207	0.014356	0.021193	0.010440	156.012011	-67.915889	-143.280444
22514	8.942541	1.547825	-3.403272	0.000079	0.009253	0.014437	156.029298	-67.921785	-143.297967
22515	8.955722	1.525733	-3.402493	-0.015687	0.014355	0.017117	156.037766	-67.931181	-143.315878
22516	8.986937	1.513577	-3.350980	-0.014467	0.009940	0.017077	156.049754	-67.938048	-143.336675
22517	9.020897	1.445569	-3.277751	-0.008742	0.017849	0.017441	156.060673	-67.949346	-143.352971
22518	9.110687	1.236203	-3.205455	-0.003109	0.086283	0.082314	156.119883	-68.011343	-143.417678
22519	9.163245	1.549650	-3.329107	0.084519	-0.009415	-0.030255	156.138082	-67.997290	-143.384116
22520	8.936491	1.355858	-3.327616	-0.003465	0.049249	0.026128	156.145662	-68.026839	-143.393349
22521	9.178197	1.584051	-3.395411	0.037161	0.026069	0.000305	156.155982	-68.038464	-143.380544
22522	8.920650	1.284948	-3.302420	0.025091	0.035422	0.000015	156.153952	-68.054718	-143.361772
22523	9.002013	1.504872	-3.430182	0.002540	0.024335	0.006874	156.153959	-68.066958	-143.359271
22524	8.909278	1.503874	-3.335453	0.004760	0.034589	-0.000777	156.139697	-68.082590	-143.339875
22525	8.923428	1.509723	-3.209697	-0.016067	0.011280	0.007506	156.137376	-68.088123	-143.346249
22526	9.028718	1.488000	-3.276508	-0.020884	0.011541	0.007325	156.132239	-68.093555	-143.352526
22527	9.027871	1.486523	-3.250395	-0.006689	0.023384	0.006503	156.127003	-68.105205	-143.350051
22528	9.041241	1.464830	-3.248659	0.009183	0.022962	0.008692	156.134289	-68.116938	-143.351151
22529	9.103596	1.415879	-3.294425	0.029357	0.025475	0.001598	156.142104	-68.128548	-143.340494
22530	9.060254	1.445481	-3.317745	0.032805	0.035923	0.001916	156.146599	-68.145503	-143.324003
22531	8.971214	1.504585	-3.341917	0.027582	0.037657	0.001740	156.146541	-68.163527	-143.305909
22532	8.942635	1.541718	-3.265798	0.010344	0.024925	0.005593	156.149315	-68.175571	-143.301431
22533	9.027258	1.506755	-3.334393	-0.015717	0.003356	0.013697	156.159921	-68.178386	-143.321549
22534	8.976387	1.362750	-3.392942	-0.015614	0.020885	0.009255	156.154956	-68.189161	-143.324756
22535	8.918754	1.381716	-3.197593	-0.011101	0.022179	0.006287	156.147628	-68.200128	-143.322790
22536	9.029907	1.448711	-3.284190	-0.007051	-0.009990	0.007465	156.163103	-68.194309	-143.342727
22537	9.055627	1.464741	-3.355046	-0.009277	0.010040	0.004562	156.161602	-68.198510	-143.345848
22538	9.048385	1.457957	-3.231819	-0.001872	0.023126	0.006669	156.159828	-68.209861	-143.344011
22539	9.108900	1.408192	-3.253769	0.000050	0.004652	0.006419	156.169207	-68.211666	-143.353064
22540	9.128215	1.391839	-3.350237	0.012783	0.022505	0.000903	156.168631	-68.221358	-143.343476
22541	9.037873	1.477454	-3.226647	0.021511	0.037676	-0.004821	156.156435	-68.237873	-143.316107
22542	8.989547	1.504134	-3.177424	-0.004462	0.009778	0.004743	156.158388	-68.241783	-143.319882
22543	9.006025	1.401779	-3.303290	-0.010645	0.009721	0.001327	156.152021	-68.245070	-143.318596
22544	8.968194	1.406774	-3.230889	-0.011404	0.012708	-0.000236	156.141757	-68.249362	-143.313498
22545	8.987287	1.391300	-3.327808	-0.007757	-0.000543	-0.000321	156.140889	-68.246884	-143.316313
22546	9.060201	1.463664	-3.343146	0.001783	0.011683	-0.006060	156.131125	-68.249289	-143.303620
22547	9.051755	1.514472	-3.266201	0.007462	0.019547	-0.004111	156.122294	-68.256464	-143.288556
22548	9.077948	1.530879	-3.335851	0.005025	0.010934	-0.002775	156.119131	-68.259237	-143.280971
22549	9.103040	1.572815	-3.256855	0.006801	0.027228	-0.000838	156.109733	-68.271192	-143.265688
22550	9.026934	1.554983	-3.236431	-0.000152	0.017322	0.003461	156.108075	-68.278757	-143.262916
22551	9.003835	1.455833	-3.266367	-0.008217	0.011916	0.004624	156.106140	-68.283953	-143.264884
22552	8.943326	1.419787	-3.295238	-0.006131	0.022044	0.001715	156.096003	-68.293586	-143.256673
22553	8.946541	1.506272	-3.264613	-0.006543	0.006069	0.003006	156.096309	-68.295343	-143.260028
22554	9.029303	1.470602	-3.309508	-0.014767	0.000537	0.008910	156.103232	-68.295382	-143.275504
22555	9.039680	1.504998	-3.330756	-0.008269	0.011874	0.006204	156.103410	-68.300925	-143.279872
22556	9.066285	1.547819	-3.276404	-0.005787	0.014111	0.007928	156.106273	-68.307845	-143.285441
22557	9.051656	1.481820	-3.304044	-0.015121	0.013081	0.010695	156.107727	-68.315055	-143.295336
22558	9.076705	1.523310	-3.225075	-0.014407	0.016471	0.009199	156.105952	-68.323507	-143.301229
22559	9.035468	1.498081	-3.227749	-0.028516	0.009329	0.014828	156.107380	-68.329707	-143.319326
22560	9.011503	1.455886	-3.304103	-0.036582	0.003926	0.015982	156.109174	-68.333160	-143.342730
22561	9.017101	1.486463	-3.251893	-0.036677	0.010262	0.014504	156.104918	-68.339775	-143.359749
22562	9.006711	1.508490	-3.274860	-0.034357	0.001340	0.017606	156.111650	-68.342251	-143.387093
22563	9.010436	1.510653	-3.322603	-0.039024	0.006340	0.020668	156.116495	-68.348245	-143.415431
22564	9.003734	1.561723	-3.269830	-0.037296	0.011563	0.020833	156.119845	-68.356823	-143.440945
22565	8.990260	1.580552	-3.243796	-0.040657	0.005807	0.025334	156.130269	-68.363607	-143.476210
22566	8.994782	1.524989	-3.245636	-0.039607	0.001257	0.030041	156.150508	-68.368915	-143.521316
22567	9.027046	1.513622	-3.218661	-0.038890	0.004649	0.028548	156.166880	-68.375833	-143.561947
22568	8.998123	1.466323	-3.222560	-0.037438	-0.001377	0.033241	156.194166	-68.380489	-143.613292
22569	9.066912	1.448810	-3.243006	-0.034998	-0.003786	0.028544	156.217722	-68.382964	-143.659167
22570	9.048069	1.436286	-3.268936	-0.032655	0.004736	0.030388	156.240439	-68.390151	-143.702648
22571	9.024296	1.419228	-3.221876	-0.024811	-0.001073	0.032185	156.273072	-68.394892	-143.752202
22572	9.029668	1.421360	-3.294694	-0.008676	-0.001307	0.026525	156.307966	-68.398001	-143.793999
22573	9.040902	1.396767	-3.270334	0.001189	0.009351	0.023982	156.338651	-68.406293	-143.825333
22574	9.035929	1.447544	-3.242561	0.004323	0.003904	0.022423	156.372561	-68.411178	-143.858059
22575	9.045250	1.395255	-3.318026	0.006918	0.006223	0.020994	156.404432	-68.417122	-143.887059
22576	9.055832	1.511326	-3.260732	0.002259	0.011226	0.024061	156.435125	-68.426214	-143.917594
22577	9.044623	1.472726	-3.213746	-0.003441	0.007972	0.030088	156.472119	-68.435160	-143.958660
22578	9.046431	1.529122	-3.283206	0.002558	0.005069	0.019203	156.500134	-68.439894	-143.986129
22579	9.038431	1.493536	-3.285128	-0.001970	0.008372	0.030156	156.537907	-68.449035	-144.026991
22580	9.053114	1.471364	-3.309227	-0.000658	0.004043	0.026960	156.575032	-68.454985	-144.066232
22581	8.987089	1.486402	-3.312084	0.001752	0.012607	0.027228	156.608646	-68.465678	-144.100474
22582	9.008899	1.496272	-3.308762	-0.003064	0.012886	0.027028	156.639441	-68.476277	-144.134387
22583	9.053446	1.519994	-3.327356	-0.011679	0.015271	0.028290	156.665306	-68.488578	-144.168356
22584	9.042410	1.481534	-3.279608	-0.020057	0.016046	0.034277	156.694291	-68.502472	-144.210783
22585	9.073545	1.467400	-3.226991	-0.021042	0.025242	0.035994	156.719412	-68.521755	-144.249760
22586	9.085428	1.442214	-3.200743	-0.022496	0.018460	0.038961	156.751984	-68.537964	-144.297533
22587	9.069017	1.430178	-3.249428	-0.024657	0.021103	0.035752	156.777194	-68.555001	-144.338833
22588	9.051182	1.359718	-3.227802	-0.027327	0.025129	0.035713	156.798923	-68.573973	-144.377919
22589	9.033062	1.346440	-3.252090	-0.023517	0.016635	0.037288	156.829533	-68.588990	-144.424307
22590	9.035879	1.345524	-3.274350	-0.021546	0.022037	0.031150	156.850323	-68.605292	-144.458819
22591	9.050941	1.407024	-3.218438	-0.031278	0.016130	0.036933	156.876406	-68.619948	-144.505113
22592	9.069505	1.330745	-3.244355	-0.039770	0.012234	0.038062	156.901779	-68.632628	-144.555752
22593	9.060018	1.293801	-3.220775	-0.042891	0.017690	0.039614	156.924024	-68.648693	-144.605033
22594	9.068006	1.323630	-3.191872	-0.043001	0.013015	0.034762	156.942740	-68.661030	-144.650503
22595	9.084583	1.303731	-3.239314	-0.035806	0.010267	0.031855	156.962928	-68.671433	-144.693237
22596	9.057331	1.341494	-3.188298	-0.042774	0.013210	0.028441	156.973191	-68.682445	-144.729486
22597	9.056281	1.338867	-3.162464	-0.047474	0.007209	0.028103	156.983439	-68.690387	-144.768687
22598	9.051503	1.307468	-3.212816	-0.041072	0.001018	0.028251	157.001460	-68.694921	-144.812212
22599	9.062395	1.283665	-3.188275	-0.033538	0.003135	0.023883	157.016362	-68.699766	-144.847854
22600	9.097804	1.275179	-3.210129	-0.028213	0.001465	0.020919	157.031597	-68.702888	-144.880479
22601	9.089539	1.298209	-3.257478	-0.011615	0.010712	0.018695	157.047722	-68.710565	-144.903935
22602	9.072499	1.313711	-3.183190	-0.008668	0.006929	0.010836	157.057391	-68.714311	-144.918565
22603	9.062405	1.335642	-3.206291	-0.007195	0.007322	0.010910	157.067473	-68.718459	-144.932818
22604	9.052272	1.357698	-3.229473	-0.011160	0.004717	0.009094	157.074629	-68.720647	-144.946283
22605	9.050763	1.355659	-3.204655	-0.009292	0.003635	0.009153	157.083251	-68.722457	-144.960258
22606	9.054527	1.358273	-3.252818	-0.012237	0.002849	0.009004	157.090742	-68.723638	-144.974744
22607	9.063493	1.333619	-3.204059	-0.004077	0.008258	0.006325	157.095877	-68.727256	-144.981769
22608	9.051541	1.354492	-3.202951	-0.006117	0.004622	0.002990	157.097711	-68.728030	-144.986422
22609	9.053464	1.355754	-3.226947	-0.002098	0.000882	0.006251	157.108108	-68.727739	-144.997878
22610	9.044740	1.322100	-3.229542	-0.003910	0.002014	0.004613	157.114901	-68.727498	-145.006494
22611	9.079865	1.314429	-3.251874	-0.000057	-0.000050	0.001578	157.120668	-68.725673	-145.011726
22612	9.100931	1.326512	-3.249573	-0.001473	-0.000393	-0.000075	157.123877	-68.723116	-145.014998
22613	9.074526	1.309857	-3.178998	-0.001416	-0.000343	-0.001653	157.124659	-68.720417	-145.015712
22614	9.097316	1.323785	-3.201016	-0.004361	-0.001128	-0.001802	157.124290	-68.717088	-145.016922
22615	9.111300	1.304494	-3.225672	-0.003680	0.002215	-0.001698	157.122255	-68.715731	-145.016003
22616	9.043021	1.321298	-3.204782	0.003857	0.004330	-0.006057	157.117710	-68.714335	-145.007677
22617	9.046542	1.324864	-3.253265	0.002098	-0.000881	-0.006251	157.114594	-68.710330	-145.002044
22618	9.039597	1.376720	-3.201244	0.017400	0.008118	-0.013273	157.105871	-68.709325	-144.980905
22619	9.059232	1.502659	-3.265160	0.012409	0.001869	-0.005727	157.107804	-68.706888	-144.974352
22620	9.038215	1.490682	-3.267285	0.009748	0.005902	-0.005759	157.106143	-68.706388	-144.965498
22621	9.041767	1.436373	-3.270017	0.012240	0.008113	-0.004017	157.106715	-68.707624	-144.957584
22622	9.038435	1.433308	-3.220780	0.013375	0.010031	-0.005506	157.105112	-68.709360	-144.946562
22623	9.026271	1.396945	-3.174301	0.010710	0.007670	-0.002514	157.107091	-68.710697	-144.941110
22624	9.087751	1.348578	-3.221494	0.011444	0.004671	-0.000965	157.113597	-68.710615	-144.939979
22625	9.079081	1.315052	-3.223904	0.021927	0.007572	-0.005175	157.118454	-68.711308	-144.930717
22626	9.079438	1.372464	-3.268819	0.018305	0.009835	-0.008454	157.115793	-68.712284	-144.915528
22627	9.057055	1.416175	-3.291496	0.018811	0.013031	-0.003618	157.117854	-68.716203	-144.905170
22628	9.062895	1.503752	-3.284463	0.011393	0.017406	-0.005442	157.110978	-68.721847	-144.889709
22629	9.007193	1.498982	-3.263230	0.003455	0.010375	0.001958	157.113308	-68.725605	-144.889095
22630	8.996895	1.463970	-3.240877	-0.003571	0.006884	0.003148	157.115520	-68.727608	-144.892587
22631	9.032054	1.398941	-3.217145	-0.005043	0.006490	0.003072	157.116707	-68.729559	-144.895960
22632	9.046090	1.321589	-3.195988	0.002374	0.002115	0.004897	157.127428	-68.729434	-144.904928
22633	9.079482	1.312082	-3.193989	0.002770	0.000639	0.004884	157.138898	-68.728701	-144.914547
22634	9.067439	1.332663	-3.193272	0.015012	0.008752	0.000866	157.147597	-68.731182	-144.913575
22635	9.115155	1.303081	-3.215337	0.026222	0.013227	0.006212	157.167118	-68.737391	-144.917412
22636	9.091091	1.344105	-3.213931	0.032459	0.008702	0.000073	157.184770	-68.739669	-144.915320
22637	9.047607	1.374673	-3.239592	0.039655	0.005947	-0.002823	157.203889	-68.740026	-144.910452
22638	9.067356	1.441602	-3.258173	0.039089	0.013668	-0.001110	157.220903	-68.744666	-144.903600
22639	9.039682	1.479732	-3.208198	0.031607	0.011606	0.001670	157.238287	-68.749009	-144.901837
22640	9.032993	1.446622	-3.234874	0.031601	0.005217	0.004702	157.263729	-68.750472	-144.908631
22641	9.033018	1.387933	-3.189165	0.023387	0.006153	0.005929	157.285290	-68.752874	-144.916392
22642	9.070306	1.380303	-3.235450	0.022359	0.008915	0.012262	157.313617	-68.757962	-144.931963
22643	9.049467	1.308902	-3.191645	0.033123	0.010240	0.011194	157.345608	-68.763684	-144.944929
22644	9.067681	1.289952	-3.264304	0.048027	0.014313	0.007203	157.378715	-68.770505	-144.949849
22645	9.078716	1.264934	-3.239494	0.060886	0.019328	0.007879	157.416980	-68.780299	-144.952474
22646	9.093678	1.383441	-3.230493	0.059987	0.017598	0.003056	157.449452	-68.787943	-144.949362
22647	9.092313	1.379839	-3.205799	0.056015	0.008604	0.004284	157.486127	-68.791271	-144.953268
22648	9.096006	1.323087	-3.208740	0.048808	0.004984	0.010213	157.529109	-68.793808	-144.968299
22649	9.083724	1.284937	-3.162859	0.036750	0.003403	0.006472	157.560670	-68.794861	-144.978582
22650	9.089026	1.230266	-3.190354	0.033578	-0.002158	0.004645	157.591356	-68.792393	-144.989786
22651	9.082106	1.196932	-3.217486	0.036533	0.005011	0.001742	157.615441	-68.793265	-144.992189
22652	9.055957	1.236616	-3.192820	0.035911	0.001711	0.000073	157.639040	-68.791845	-144.994356
22653	9.106989	1.209706	-3.264211	0.039214	0.002758	-0.009250	157.650927	-68.789128	-144.981998
22654	9.087800	1.282464	-3.212446	0.038552	0.012176	-0.015446	157.648972	-68.789872	-144.955130
22655	9.047798	1.400368	-3.208960	0.031911	0.000835	-0.011197	157.655112	-68.785713	-144.941097
22656	9.075759	1.360859	-3.258435	0.020070	-0.002355	-0.010204	157.657885	-68.779900	-144.930659
22657	9.084348	1.394484	-3.256501	0.012647	-0.004366	-0.008992	157.658909	-68.773464	-144.922974
22658	9.029779	1.391742	-3.261276	0.002899	-0.003863	-0.006260	157.658075	-68.767711	-144.919221
22659	9.034823	1.338985	-3.288651	0.001307	-0.004341	-0.003176	157.660533	-68.762554	-144.920050
22660	9.022433	1.360540	-3.288719	-0.000838	-0.001700	-0.006392	157.656167	-68.757918	-144.914805
22661	9.006384	1.379635	-3.240025	0.000635	-0.001306	-0.006319	157.652242	-68.753684	-144.909223
22662	9.084958	1.341084	-3.236534	0.006697	-0.005983	-0.007706	157.652806	-68.746493	-144.904635
22663	9.074418	1.364184	-3.260779	0.004043	0.004428	-0.010816	157.641506	-68.744315	-144.889029
22664	9.079582	1.395420	-3.209384	0.000799	0.003429	-0.003070	157.639738	-68.743120	-144.885563
22665	9.070595	1.362434	-3.212195	-0.001524	-0.011423	-0.003422	157.644197	-68.734153	-144.890277
22666	9.077459	1.311014	-3.263977	0.000179	0.000127	-0.004735	157.641657	-68.730846	-144.886365
22667	9.044085	1.320460	-3.266074	0.000635	-0.001306	-0.006320	157.637753	-68.726602	-144.880724
22668	9.028220	1.396536	-3.263541	0.001824	-0.005731	-0.006340	157.637254	-68.719841	-144.877991
22669	9.019407	1.420686	-3.312460	-0.004641	-0.005960	-0.001889	157.638948	-68.714105	-144.881690
22670	9.068226	1.477438	-3.281690	-0.006054	-0.006312	-0.003540	157.638068	-68.707647	-144.883392
22671	9.031118	1.484087	-3.235393	-0.010426	-0.002844	0.002648	157.640870	-68.704542	-144.891797
22672	9.032643	1.428407	-3.213937	-0.011562	-0.004756	0.004147	157.646411	-68.700583	-144.903778
22673	9.064032	1.417985	-3.187847	-0.007204	-0.003616	0.005943	157.655953	-68.697788	-144.917476
22674	9.046189	1.351043	-3.193554	-0.004033	-0.015416	0.005886	157.674113	-68.688557	-144.938371
22675	9.063568	1.333389	-3.267859	-0.008285	-0.011864	0.008918	157.691650	-68.682031	-144.961258
22676	9.040773	1.376276	-3.292426	-0.000639	-0.005075	0.009375	157.710706	-68.679036	-144.981030
22677	9.036968	1.372918	-3.244547	-0.001940	-0.011721	0.007622	157.730035	-68.672299	-145.001971
22678	9.047703	1.463911	-3.313009	-0.003980	-0.004388	0.009237	157.746593	-68.669633	-145.021118
22679	9.031637	1.424818	-3.218353	-0.017404	-0.001680	0.010265	157.755042	-68.668792	-145.039923
22680	9.064884	1.415350	-3.216660	-0.025968	-0.011983	0.016032	157.772438	-68.663568	-145.073494
22681	9.059503	1.383754	-3.268680	-0.022071	-0.015793	0.022464	157.802588	-68.657876	-145.118457
22682	9.043518	1.317352	-3.298757	-0.014582	-0.007359	0.016618	157.824715	-68.655222	-145.150106
22683	9.043403	1.316352	-3.299472	-0.019346	-0.013401	0.017880	157.848844	-68.649793	-145.186913
22684	9.030700	1.279537	-3.254320	-0.022233	-0.014144	0.016156	157.869688	-68.643429	-145.221894
22685	9.093570	1.315341	-3.248766	-0.025802	-0.018229	0.014343	157.887950	-68.634664	-145.256381
22686	9.070301	1.301408	-3.227992	-0.022798	-0.017400	0.012908	157.905819	-68.625863	-145.288519
22687	9.073189	1.246603	-3.232179	-0.017473	-0.019084	0.009950	157.923325	-68.615695	-145.317115
22688	9.085176	1.282238	-3.279741	-0.008519	-0.016640	0.007228	157.941214	-68.606068	-145.340492
22689	9.062157	1.325397	-3.304818	0.001850	-0.013848	0.006155	157.961739	-68.597859	-145.360443
22690	9.023509	1.386958	-3.280612	-0.007548	-0.008477	0.007419	157.975935	-68.592602	-145.379257
22691	9.024681	1.330854	-3.260227	-0.012544	-0.019292	0.007001	157.992315	-68.581671	-145.403545
22692	9.022641	1.386423	-3.283223	-0.012938	-0.017817	0.007010	158.007953	-68.571362	-145.427229
22693	9.043204	1.398311	-3.282516	-0.015547	-0.020121	0.008433	158.024968	-68.560297	-145.454117
22694	9.037185	1.367337	-3.335680	-0.011821	-0.028670	0.011600	158.053330	-68.545197	-145.490788
22695	9.039815	1.312429	-3.340509	-0.009598	-0.018507	0.007142	158.071053	-68.534700	-145.514721
22696	9.083360	1.337650	-3.361574	-0.007151	-0.009953	0.007407	158.086180	-68.528644	-145.534301
22697	9.035928	1.365911	-3.339667	-0.011741	-0.011263	0.011925	158.105179	-68.523010	-145.560907
22698	9.023508	1.386683	-3.340147	-0.016385	-0.010830	0.006988	158.114905	-68.516394	-145.580369
22699	9.030234	1.361063	-3.268203	-0.012473	-0.008268	0.010368	158.129758	-68.512017	-145.603045
22700	9.019326	1.325812	-3.247367	-0.012032	-0.016082	0.011819	158.151329	-68.503635	-145.632559
22701	9.022491	1.327962	-3.297151	-0.014293	-0.013523	0.011769	158.169836	-68.496754	-145.660230
22702	9.043402	1.339347	-3.295729	-0.008109	-0.007138	0.012159	158.189246	-68.493194	-145.685007
22703	9.008222	1.346061	-3.274154	-0.004722	-0.014169	0.013752	158.216236	-68.486383	-145.715912
22704	9.079784	1.330973	-3.344317	-0.006354	-0.008312	0.015373	158.241603	-68.482874	-145.746014
22705	9.053395	1.313445	-3.274307	-0.003014	-0.009005	0.015504	158.269158	-68.479178	-145.776582
22706	9.044348	1.278872	-3.277677	0.001857	-0.009262	0.014129	158.298041	-68.474889	-145.805408
22707	9.062192	1.343979	-3.273260	0.008493	-0.004309	0.012930	158.326146	-68.473125	-145.829301
22708	9.063922	1.343915	-3.298173	0.016759	-0.005215	0.010107	158.355951	-68.470130	-145.849940
22709	9.043048	1.387586	-3.346789	0.019762	-0.004388	0.008671	158.384793	-68.467427	-145.867813
22710	9.023687	1.375358	-3.373887	0.020787	-0.002566	0.010330	158.415778	-68.465882	-145.887241
22711	9.008470	1.449153	-3.371117	0.010879	-0.002183	0.017813	158.450686	-68.466269	-145.917108
22712	9.001402	1.415502	-3.398264	0.004647	-0.002226	0.015964	158.479846	-68.466082	-145.944516
22713	9.013472	1.335454	-3.352941	-0.005597	-0.000320	0.021881	158.509813	-68.468292	-145.979127
22714	9.033111	1.344387	-3.326456	-0.003675	-0.001361	0.020363	158.539693	-68.469479	-146.012434
22715	9.046953	1.265536	-3.305282	0.007778	0.003282	0.019362	158.572026	-68.473073	-146.041436
22716	9.035258	1.284516	-3.304614	0.006825	0.006100	0.024114	158.609054	-68.479010	-146.075958
22717	9.042979	1.314135	-3.277418	0.013729	0.004886	0.018066	158.642212	-68.483173	-146.102133
22718	9.090362	1.283258	-3.300166	0.012070	-0.000233	0.014738	158.672933	-68.483761	-146.126642
22719	9.081464	1.248312	-3.303027	0.006903	-0.004788	0.016011	158.704539	-68.482322	-146.155368
22720	9.063635	1.180202	-3.308100	0.012032	0.006105	0.013273	158.729912	-68.485979	-146.174153
22721	9.083356	1.189443	-3.281220	0.018544	0.006364	0.007236	158.750428	-68.488664	-146.183784
22722	9.059437	1.230573	-3.280227	0.018544	0.006364	0.007235	158.771228	-68.491201	-146.193642
22723	9.073415	1.209772	-3.304841	0.009906	-0.002179	0.003547	158.786289	-68.488567	-146.202815
22724	9.051016	1.252942	-3.328538	0.001996	0.003600	0.004892	158.795888	-68.489140	-146.210825
22725	9.061478	1.230051	-3.304406	-0.003060	-0.000866	0.003013	158.802108	-68.487088	-146.218396
22726	9.086092	1.244789	-3.350833	-0.004814	0.000308	-0.000201	158.802633	-68.484846	-146.220845
22727	9.084403	1.243524	-3.326354	-0.003788	0.002130	0.001456	158.804753	-68.484070	-146.224419
22728	9.082768	1.242415	-3.301664	-0.005876	0.004824	-0.003325	158.798063	-68.483594	-146.219769
22729	9.037544	1.273247	-3.302721	0.003472	0.005772	-0.006065	158.792258	-68.483207	-146.210396
22730	9.069579	1.320191	-3.321847	0.009367	0.007330	-0.005783	158.789654	-68.483559	-146.200750
22731	9.045492	1.362792	-3.320797	0.002277	0.003819	-0.002993	158.788368	-68.482763	-146.196952
22732	9.005057	1.340162	-3.349228	0.004086	0.002688	-0.001355	158.791178	-68.481554	-146.196378
22733	9.001963	1.394678	-3.346408	-0.001026	-0.001822	-0.001658	158.792785	-68.478024	-146.197796
22734	9.030608	1.242085	-3.328318	-0.011327	0.000051	0.005833	158.797886	-68.476896	-146.209177
22735	9.081982	1.299504	-3.321150	-0.010411	0.003568	-0.000384	158.792988	-68.476502	-146.209310
22736	9.048355	1.252096	-3.276955	-0.009066	-0.000729	-0.005145	158.784925	-68.472682	-146.205148
22737	9.084574	1.189102	-3.277971	-0.003917	-0.002557	-0.003377	158.782881	-68.468407	-146.204430
22738	9.062135	1.233199	-3.301428	0.004497	0.007595	-0.004407	158.779217	-68.469186	-146.196643
22739	9.069531	1.265440	-3.274132	0.002390	0.003907	-0.006146	158.773669	-68.467779	-146.188153
22740	9.031222	1.301714	-3.372608	0.005394	0.004730	-0.007581	158.767728	-68.466369	-146.177366
22741	9.036871	1.332702	-3.320942	-0.000317	0.007902	-0.004610	158.760621	-68.467423	-146.169000
22742	9.047828	1.367839	-3.341995	-0.006604	0.007819	-0.004884	158.749832	-68.468222	-146.160391
22743	9.046253	1.367051	-3.316971	-0.009273	0.005476	-0.001882	158.742550	-68.468541	-146.157303
22744	9.025300	1.355563	-3.318476	-0.009608	0.006996	-0.003449	158.732414	-68.469197	-146.151247
22745	9.028563	1.301653	-3.320675	-0.007407	0.004389	-0.001821	158.726856	-68.468943	-146.148833
22746	9.004479	1.344413	-3.319491	-0.009330	0.005431	-0.000305	158.721958	-68.469417	-146.148236
22747	9.039182	1.279758	-3.295715	-0.006680	0.001393	-0.000265	158.720513	-68.467876	-146.149692
22748	9.042780	1.282781	-3.343998	-0.008938	0.003955	-0.000316	158.716603	-68.467560	-146.149915
22749	9.042917	1.283213	-3.343463	-0.010747	0.005086	-0.001954	158.708561	-68.467650	-146.146874
22750	9.039510	1.281064	-3.294309	-0.010298	0.003655	-0.003541	158.699666	-68.466501	-146.142577
22751	9.074648	1.274041	-3.316060	-0.011417	0.008127	-0.005087	158.685405	-68.467562	-146.133274
22752	9.055478	1.264008	-3.341829	-0.007799	0.005866	-0.001811	158.679117	-68.467954	-146.130239
22753	9.063036	1.296482	-3.313864	0.000449	0.017674	-0.009132	158.661128	-68.473267	-146.109622
22754	9.049536	1.317128	-3.287835	0.003157	0.013681	-0.010669	158.644998	-68.475981	-146.089261
22755	9.020124	1.329575	-3.337352	0.008583	0.010289	-0.005753	158.640189	-68.478052	-146.077829
22756	9.053708	1.320879	-3.334340	0.008659	0.016717	-0.010372	158.625998	-68.482445	-146.056163
22757	9.028104	1.362456	-3.308009	0.008602	0.016673	-0.008796	158.613637	-68.487278	-146.036492
22758	9.033342	1.309883	-3.334122	0.010565	0.009293	-0.008846	158.606528	-68.488027	-146.021266
22759	9.012500	1.298116	-3.335507	0.011137	0.012546	-0.005600	158.602157	-68.491324	-146.008667
22760	9.009244	1.295623	-3.285932	0.005243	0.010985	-0.005889	158.595099	-68.493592	-145.996774
22761	9.014398	1.243063	-3.312312	0.001666	0.006906	-0.007703	158.585401	-68.493440	-145.984244
22762	9.059950	1.213382	-3.309972	-0.005130	0.008208	-0.004818	158.575322	-68.494450	-145.975492
22763	9.070470	1.191661	-3.285179	-0.009435	0.007125	-0.008190	158.558531	-68.494317	-145.962283
22764	9.055354	1.268362	-3.281105	-0.004211	0.011728	-0.011035	158.538690	-68.495900	-145.942472
22765	9.085683	1.314846	-3.275145	-0.006077	0.012813	-0.011099	158.516855	-68.498174	-145.921603
22766	9.021253	1.335584	-3.302156	-0.002737	0.012119	-0.010964	158.497740	-68.499975	-145.901666
22767	9.053360	1.383444	-3.320522	0.000327	0.012989	-0.013973	158.475580	-68.501738	-145.876557
22768	9.040892	1.348429	-3.273789	-0.000101	0.001699	-0.007877	158.467710	-68.498630	-145.867083
22769	9.035489	1.318934	-3.324721	-0.000261	0.003353	-0.014177	158.450125	-68.495218	-145.847415
22770	9.014520	1.308033	-3.326160	0.001347	0.014812	-0.012314	158.430082	-68.498161	-145.823965
22771	9.035809	1.320999	-3.323032	0.011468	0.006437	-0.012016	158.420483	-68.496838	-145.805589
22772	9.049908	1.302001	-3.346964	0.002469	0.010340	-0.010767	158.405564	-68.497721	-145.786955
22773	9.067605	1.312197	-3.295129	0.000543	0.011380	-0.009253	158.390774	-68.499601	-145.769607
22774	9.058883	1.279883	-3.296734	-0.001951	0.009166	-0.010986	158.373651	-68.499808	-145.751327
22775	9.051912	1.248965	-3.322846	0.003256	0.007389	-0.010786	158.360502	-68.499228	-145.733996
22776	9.059194	1.281604	-3.295211	0.005356	0.011079	-0.009044	158.349166	-68.500861	-145.717435
22777	9.071950	1.318629	-3.340345	0.004178	0.010909	-0.017005	158.326221	-68.500858	-145.689214
22778	9.067090	1.373076	-3.312035	-0.003410	0.015156	-0.014107	158.300821	-68.503585	-145.662935
22779	9.030364	1.380836	-3.264292	-0.006252	0.008078	-0.014364	158.277009	-68.502610	-145.640051
22780	9.034078	1.385100	-3.312113	-0.010731	0.006858	-0.013008	158.253364	-68.501146	-145.620169
22781	9.034206	1.386621	-3.311129	-0.010441	0.011677	-0.012907	158.227189	-68.502400	-145.597490
22782	9.034000	1.330871	-3.264301	-0.009711	0.008681	-0.011348	158.205388	-68.502253	-145.578962
22783	9.037840	1.335048	-3.311876	-0.013447	0.010848	-0.011478	158.179899	-68.503352	-145.558802
22784	9.034738	1.390815	-3.307916	-0.010166	0.010112	-0.009762	158.159205	-68.504299	-145.541742
22785	9.015341	1.324258	-3.287633	-0.010441	0.011678	-0.012909	158.132966	-68.505528	-145.518842
22786	9.050689	1.317828	-3.308790	-0.005807	0.011244	-0.007963	158.116581	-68.507456	-145.503730
22787	9.049522	1.374779	-3.328919	-0.006812	0.015806	-0.012669	158.090502	-68.510923	-145.478743
22788	9.027025	1.362505	-3.305256	-0.007722	0.018667	-0.009495	158.066907	-68.516463	-145.457064
22789	9.018488	1.330442	-3.306459	-0.016117	0.008496	-0.008487	158.045147	-68.516932	-145.442517
22790	9.048664	1.377140	-3.300339	-0.012824	0.014146	-0.009813	158.020647	-68.519996	-145.423006
22791	9.010109	1.383167	-3.228140	-0.012093	0.011150	-0.008254	158.000056	-68.521927	-145.407322
22792	9.071651	1.335854	-3.274419	-0.013458	0.004463	-0.008442	157.982319	-68.520136	-145.395470
22793	9.051326	1.381926	-3.321046	-0.009091	0.022958	-0.004733	157.961778	-68.529093	-145.378045
22794	9.023620	1.422236	-3.270271	-0.003878	0.010210	-0.009476	157.944989	-68.530129	-145.361314
22795	9.015187	1.306520	-3.350128	-0.015951	0.013223	-0.005233	157.925051	-68.533821	-145.348872
22796	9.063481	1.559960	-3.305563	-0.006433	0.018925	-0.004686	157.908485	-68.540512	-145.333953
22797	8.971467	1.308561	-3.203554	-0.030873	0.002769	0.001783	157.895226	-68.540163	-145.337953
22798	9.063082	1.222925	-3.323611	-0.027532	0.002079	0.001924	157.884728	-68.539335	-145.342545
22799	9.092902	1.211851	-3.271817	0.003043	0.019995	-0.010547	157.864734	-68.545479	-145.318469
22800	9.061788	1.306321	-3.218142	0.010456	0.015619	-0.008705	157.854208	-68.549543	-145.299645
22801	9.025779	1.427556	-3.261985	0.012556	0.008335	-0.011909	157.844303	-68.549173	-145.280272
22802	9.061230	1.420483	-3.283209	0.002116	0.016465	-0.004335	157.834429	-68.554628	-145.267283
22803	9.052771	1.387785	-3.284581	-0.007339	0.010808	-0.006465	157.819057	-68.556740	-145.254177
22804	9.037274	1.323347	-3.313167	-0.007066	0.009240	-0.003319	157.809264	-68.558579	-145.246928
22805	9.049778	1.302840	-3.312440	-0.004394	0.011595	-0.006313	157.795383	-68.561152	-145.233826
22806	9.044825	1.356410	-3.284010	-0.001906	0.013810	-0.004573	157.784328	-68.565143	-145.222045
22807	9.041354	1.354122	-3.234241	-0.007401	0.010762	-0.004889	157.771060	-68.567582	-145.211441
22808	9.066549	1.369921	-3.279206	-0.013006	0.014008	-0.005091	157.752827	-68.571563	-145.198781
22809	9.047746	1.360030	-3.304622	-0.008873	0.010369	-0.004966	157.738888	-68.573795	-145.188668
22810	9.065244	1.369949	-3.252611	-0.011942	0.009488	-0.001965	157.727981	-68.576056	-145.183225
