// General information: 
//  MT Manager version: 2022.2.0 
//  XDA version: 2022.2.0 build 7381 rev 124627 built on 2023-07-19
// Device information: 
//  DeviceId: 00B4BA83
//  ProductCode: MTW2-3A7G6
//  Firmware Version: 4.6.0
//  Hardware Version: 2.0.0
// Device settings: 
//  Filter Profile: human(46.1)
//  Option Flags: Orientation Smoother Disabled, Position/Velocity Smoother Disabled, Continuous Zero Rotation Update Disabled, AHS Disabled, ICC Disabled
// Coordinate system: ENU
PacketCounter	Acc_X	Acc_Y	Acc_Z	Gyr_X	Gyr_Y	Gyr_Z	Roll	Pitch	Yaw
04506	6.956925	1.308692	6.697596	-0.003341	0.010849	0.001052	10.604641	-45.591096	144.707390
04507	6.904308	1.200979	6.702451	-0.004150	0.004625	-0.004686	10.603281	-45.591506	144.709418
04508	7.017478	1.284400	6.826859	-0.003673	0.004396	-0.018184	10.610028	-45.590615	144.700492
04509	7.054488	1.361658	6.703212	-0.009336	0.002037	-0.009923	10.609128	-45.591902	144.697836
04510	6.946148	1.337199	6.717982	-0.001255	0.000566	-0.006237	10.610805	-45.594428	144.697947
04511	7.012309	1.326871	6.702917	-0.000334	0.007285	-0.003092	10.610492	-45.593534	144.701541
04512	7.027560	1.308321	6.706196	-0.010201	0.002434	-0.006293	10.606874	-45.595001	144.701889
04513	6.980577	1.277312	6.760314	-0.007471	0.013270	-0.006755	10.604118	-45.590323	144.703315
04514	6.971350	1.237004	6.752683	-0.000103	0.008277	-0.008279	10.606798	-45.588290	144.702945
04515	6.966283	1.241605	6.807205	-0.003721	0.000043	-0.001064	10.604142	-45.591618	144.707250
04516	6.991174	1.214279	6.701874	-0.007001	0.004275	-0.009379	10.603934	-45.591724	144.705391
04517	7.018727	1.300284	6.686718	-0.002412	0.003838	-0.011945	10.607880	-45.591787	144.701462
04518	7.031051	1.318314	6.730886	-0.003207	0.009141	-0.004662	10.606610	-45.589649	144.704134
04519	6.980447	1.242652	6.722232	0.000419	0.006397	-0.004127	10.607414	-45.589150	144.706754
04520	6.971620	1.202324	6.714204	-0.006999	0.004276	-0.009380	10.607207	-45.589255	144.704895
04521	7.025627	1.255519	6.759124	-0.003184	0.006937	-0.007785	10.608124	-45.587974	144.704735
04522	6.998296	1.270035	6.789064	-0.004645	0.004308	-0.011958	10.610744	-45.587789	144.700806
04523	7.002832	1.265796	6.735051	-0.006686	-0.000806	-0.003166	10.607739	-45.591410	144.703164
04524	6.989853	1.248099	6.691517	-0.007843	0.002467	-0.008873	10.606952	-45.592586	144.701441
04525	7.019756	1.279271	6.725190	-0.002974	0.010139	-0.009847	10.608725	-45.589340	144.700079
04526	6.992163	1.293570	6.755431	-0.005442	0.009611	-0.004674	10.606131	-45.586936	144.702811
04527	6.965678	1.239813	6.758019	-0.001909	0.004164	-0.004670	10.606190	-45.587625	144.704647
04528	6.970075	1.235633	6.704161	-0.006994	0.004281	-0.009379	10.605985	-45.587727	144.702790
04529	7.017710	1.280035	6.727180	-0.004758	0.003815	-0.009364	10.607269	-45.588080	144.700763
04530	6.968285	1.304219	6.732400	-0.003064	0.007440	-0.010376	10.609548	-45.586297	144.698579
04531	7.003126	1.330996	6.711693	-0.005084	0.000117	-0.004709	10.608288	-45.589197	144.699881
04532	7.007373	1.308068	6.747153	-0.002662	0.005056	-0.003633	10.607179	-45.589469	144.702765
04533	6.976403	1.277356	6.714512	-0.004570	0.009222	-0.008302	10.607275	-45.586906	144.702469
04534	6.982226	1.286421	6.736917	-0.004027	0.005131	-0.007277	10.607470	-45.586751	144.702431
04535	6.988238	1.295346	6.759151	-0.007109	0.003786	-0.006786	10.605906	-45.587409	144.702457
04536	6.987913	1.295272	6.759501	-0.004261	0.004134	-0.002091	10.603093	-45.588362	144.706443
04537	6.968369	1.268945	6.694281	-0.004754	0.003819	-0.009364	10.604362	-45.588699	144.704464
04538	6.986983	1.295519	6.760415	-0.009040	0.010158	-0.008331	10.601750	-45.585602	144.704335
04539	7.003959	1.308899	6.750535	-0.004025	0.005134	-0.007276	10.602086	-45.585490	144.704078
04540	6.975678	1.223513	6.766326	-0.002542	0.005558	-0.006225	10.602482	-45.585205	144.704951
04541	6.986402	1.228331	6.734404	-0.003906	0.005635	-0.009868	10.604295	-45.584457	144.702899
04542	7.000592	1.278159	6.765201	-0.002423	0.006059	-0.008817	10.606194	-45.583617	144.701762
04543	6.987463	1.260802	6.721804	-0.005716	0.001509	-0.006266	10.605300	-45.585595	144.701976
04544	7.004699	1.274110	6.711678	-0.005531	0.006915	-0.005203	10.603249	-45.584654	144.703876
04545	6.986654	1.260988	6.722610	-0.004750	0.003824	-0.009363	10.604477	-45.585028	144.701849
04546	7.010173	1.283386	6.734396	-0.006139	0.006104	-0.009883	10.604855	-45.584051	144.699861
04547	6.952459	1.266583	6.731114	-0.006377	0.005103	-0.004698	10.602346	-45.584161	144.701847
04548	6.996608	1.265959	6.691479	-0.004113	0.002435	-0.007807	10.603087	-45.585468	144.700977
04549	6.991515	1.270536	6.745908	-0.004113	0.002435	-0.007807	10.603870	-45.586780	144.700075
04550	7.002382	1.275272	6.713874	-0.005502	0.004716	-0.008326	10.603868	-45.586748	144.699131
04551	7.019563	1.288859	6.703763	-0.003266	0.004250	-0.008311	10.605235	-45.586989	144.698085
04552	6.990476	1.271268	6.746847	-0.005713	0.001512	-0.006266	10.604273	-45.588978	144.698315
04553	7.007688	1.284761	6.736720	-0.003175	0.006954	-0.007778	10.605099	-45.587697	144.698230
04554	6.983147	1.263017	6.725872	-0.000213	0.007801	-0.005675	10.606272	-45.586207	144.699883
04555	6.977812	1.267667	6.780515	-0.004746	0.003829	-0.009362	10.607372	-45.586581	144.697980
04556	7.006294	1.285781	6.737975	-0.004110	0.002438	-0.007807	10.608114	-45.587887	144.697110
04557	6.990271	1.304578	6.735390	-0.003264	0.004253	-0.008310	10.609578	-45.588110	144.696006
04558	7.016746	1.290849	6.706329	-0.004774	0.006031	-0.006237	10.608651	-45.587557	144.696940
04559	6.989391	1.304809	6.736258	-0.007854	0.004683	-0.005749	10.605816	-45.587894	144.697915
04560	6.978841	1.232486	6.741481	-0.004018	0.005143	-0.007273	10.606013	-45.587732	144.697881
04561	6.995924	1.246084	6.731480	-0.003172	0.006959	-0.007777	10.606955	-45.586504	144.697555
04562	6.979788	1.264798	6.729024	-0.004863	0.003329	-0.006770	10.606574	-45.587417	144.697654
04563	6.987658	1.305564	6.737910	-0.005497	0.004722	-0.008325	10.606441	-45.587424	144.696768
04564	6.996580	1.278508	6.719306	-0.005497	0.004722	-0.008325	10.606441	-45.587388	144.695825
04565	6.996149	1.278735	6.719712	-0.004016	0.005146	-0.007273	10.606794	-45.587211	144.695693
04566	7.011471	1.260469	6.722936	-0.003382	0.003754	-0.005718	10.606611	-45.587996	144.696702
04567	6.984225	1.274553	6.752698	-0.006341	0.002908	-0.007822	10.606169	-45.588990	144.695883
04568	6.993201	1.247496	6.734048	-0.001056	0.005993	-0.005168	10.606762	-45.588572	144.697672
04569	7.034413	1.283166	6.735272	-0.006430	0.000205	-0.008355	10.606736	-45.591091	144.696007
04570	6.976903	1.266548	6.731685	-0.001659	0.005187	-0.009848	10.609761	-45.590633	144.693908
04571	6.994107	1.280072	6.721583	-0.007217	0.003293	-0.004193	10.606485	-45.591809	144.696233
04572	6.969807	1.257910	6.710562	-0.004770	0.006037	-0.006235	10.605558	-45.591254	144.697169
04573	6.999539	1.289046	6.744369	-0.003169	0.006965	-0.007775	10.606407	-45.590007	144.696972
04574	7.008410	1.262078	6.725826	-0.004014	0.005150	-0.007272	10.606606	-45.589842	144.696941
04575	7.001644	1.253516	6.704353	-0.005492	0.004727	-0.008324	10.606807	-45.589757	144.695932
04576	6.985565	1.272016	6.701860	-0.004258	0.004140	-0.002089	10.603995	-45.590708	144.699920
04577	7.007241	1.262535	6.726958	-0.004613	0.004346	-0.011951	10.606607	-45.590555	144.695921
04578	7.014957	1.303460	6.735958	-0.003290	0.006462	-0.005182	10.605878	-45.589871	144.697769
04579	6.973006	1.268173	6.735417	-0.004012	0.005152	-0.007271	10.606056	-45.589692	144.697814
04580	6.981929	1.241117	6.716851	-0.003289	0.006463	-0.005182	10.605327	-45.589008	144.699662
04581	6.995942	1.290622	6.747798	-0.004768	0.006040	-0.006235	10.604412	-45.588449	144.700616
04582	6.989184	1.282062	6.726322	-0.004733	0.003843	-0.009360	10.605539	-45.588800	144.698707
04583	6.982462	1.273652	6.704783	-0.000298	0.005111	-0.006202	10.607360	-45.588787	144.699411
04584	6.982093	1.274076	6.705086	-0.005454	0.002534	-0.011449	10.609416	-45.589655	144.695624
04585	6.994291	1.291781	6.749288	-0.007758	0.007395	-0.005214	10.606238	-45.588483	144.697325
04586	6.998276	1.268869	6.784956	-0.001775	0.004690	-0.007254	10.607759	-45.588578	144.697239
04587	7.002871	1.265004	6.731044	-0.002620	0.002873	-0.006752	10.608716	-45.589789	144.697201
04588	6.986846	1.283675	6.728443	-0.004854	0.003339	-0.006769	10.608339	-45.590697	144.697302
04589	7.026027	1.287597	6.743174	-0.004642	0.006551	-0.008824	10.609010	-45.589617	144.696078
04590	6.985875	1.284279	6.729336	-0.002407	0.006086	-0.008808	10.610912	-45.588763	144.694951
04591	7.018697	1.279546	6.722210	-0.004008	0.005157	-0.007270	10.611170	-45.588600	144.694870
04592	7.000642	1.266294	6.733120	-0.005522	0.006932	-0.005197	10.609120	-45.587650	144.696777
04593	6.984484	1.284809	6.730679	-0.004853	0.003341	-0.006768	10.608869	-45.588533	144.696832
04594	6.999943	1.266416	6.733823	-0.004977	0.002833	-0.004178	10.606986	-45.589999	144.698941
04595	6.999609	1.266502	6.734154	-0.005484	0.004737	-0.008322	10.606932	-45.589948	144.698103
04596	6.992877	1.257950	6.712668	-0.004007	0.005159	-0.007269	10.607132	-45.589777	144.698075
04597	6.998737	1.266967	6.734973	-0.004006	0.005160	-0.007269	10.607401	-45.589621	144.697973
04598	6.982525	1.285597	6.732561	-0.003286	0.006469	-0.005180	10.606671	-45.588933	144.699824
04599	7.001054	1.231201	6.694873	-0.006453	0.002412	-0.005231	10.604650	-45.590529	144.700981
04600	7.014971	1.280846	6.725851	-0.002190	0.009306	-0.010861	10.607510	-45.587645	144.698687
04601	6.969897	1.281553	6.766164	-0.007929	0.001990	-0.006284	10.605379	-45.589361	144.698865
04602	6.980873	1.286281	6.734143	-0.004724	0.003853	-0.009358	10.606510	-45.589706	144.696959
04603	7.004388	1.308770	6.745920	-0.001138	0.003302	-0.005698	10.607792	-45.590792	144.697699
04604	7.013377	1.281752	6.727341	-0.006151	0.008332	-0.006749	10.606123	-45.588890	144.698567
04605	6.995334	1.268466	6.738226	-0.004848	0.003345	-0.006768	10.605934	-45.589750	144.698613
04606	6.961644	1.273699	6.746119	-0.004003	0.005164	-0.007268	10.606135	-45.589577	144.698587
04607	6.983190	1.264152	6.771366	-0.005518	0.006937	-0.005195	10.604146	-45.588629	144.700449
04608	6.978277	1.287443	6.736611	-0.002487	0.003392	-0.009341	10.606598	-45.589236	144.698487
04609	7.011217	1.282602	6.729430	-0.006363	0.005119	-0.004695	10.604084	-45.589312	144.700551
04610	6.977508	1.287751	6.737349	-0.004720	0.003857	-0.009358	10.605216	-45.589655	144.698646
04611	6.994673	1.301513	6.727293	-0.001768	0.004702	-0.007251	10.606807	-45.589737	144.698536
04612	7.010046	1.283293	6.730518	-0.005604	0.004234	-0.005731	10.605308	-45.590251	144.699606
04613	7.007846	1.251596	6.744166	-0.004001	0.005167	-0.007267	10.605567	-45.590070	144.699559
04614	7.002935	1.274896	6.709417	-0.004001	0.005167	-0.007267	10.605769	-45.589896	144.699534
04615	7.018235	1.256652	6.712730	-0.004759	0.006054	-0.006231	10.604896	-45.589345	144.700418
04616	6.995857	1.266420	6.688302	-0.002738	0.002373	-0.004160	10.604336	-45.591072	144.702472
04617	6.990536	1.270768	6.742770	-0.004717	0.003861	-0.009357	10.605541	-45.591426	144.700491
04618	7.001404	1.275626	6.710876	-0.006233	0.005633	-0.007284	10.604423	-45.590988	144.700522
04619	6.989676	1.271205	6.743578	-0.003241	0.004284	-0.008303	10.605928	-45.591180	144.699428
04620	7.005083	1.253054	6.746765	-0.003368	0.003772	-0.005713	10.605749	-45.591955	144.700443
04621	7.006511	1.285156	6.733842	-0.003240	0.004284	-0.008303	10.607085	-45.592163	144.699480
04622	6.998050	1.244858	6.725555	-0.003998	0.005171	-0.007266	10.607288	-45.591986	144.699456
04623	6.981817	1.263451	6.723138	-0.004757	0.006057	-0.006230	10.606445	-45.591397	144.700399
04624	6.987623	1.272366	6.745487	-0.006948	0.004329	-0.009374	10.606259	-45.591472	144.698552
04625	7.004801	1.285982	6.735464	-0.001892	0.004195	-0.004659	10.606362	-45.592115	144.700430
04626	6.971064	1.291114	6.743373	-0.006231	0.005637	-0.007283	10.605245	-45.591674	144.700463
04627	7.013455	1.259131	6.717259	-0.002522	0.005594	-0.006212	10.605813	-45.591386	144.701169
04628	6.997216	1.277721	6.714845	-0.006230	0.005637	-0.007283	10.604697	-45.590945	144.701202
04629	6.961654	1.251025	6.736030	-0.003996	0.005174	-0.007266	10.604953	-45.590773	144.701136
04630	6.985106	1.273458	6.747888	-0.005556	0.002047	-0.008857	10.605514	-45.592188	144.699361
04631	7.000612	1.255233	6.751000	-0.006314	0.002933	-0.007821	10.604961	-45.593234	144.698518
04632	6.968665	1.292251	6.745634	-0.001047	0.006018	-0.005157	10.605550	-45.592803	144.700319
04633	7.011035	1.260402	6.719546	-0.006099	0.006154	-0.009872	10.605974	-45.591778	144.698386
04634	6.978913	1.297517	6.714340	-0.003150	0.006997	-0.007763	10.606751	-45.590521	144.698237
04635	6.970432	1.257261	6.706081	-0.003235	0.004292	-0.008301	10.608098	-45.590803	144.697084
04636	7.006329	1.297232	6.761798	-0.004838	0.003356	-0.006766	10.607727	-45.591702	144.697189
04637	6.999679	1.288531	6.740300	-0.006986	0.006526	-0.006246	10.605584	-45.590906	144.698032
04638	6.991232	1.248093	6.732043	-0.003234	0.004293	-0.008301	10.606914	-45.591115	144.697043
04639	6.975097	1.266734	6.729493	-0.006311	0.002936	-0.007820	10.606449	-45.592116	144.696215
04640	6.998487	1.289145	6.741420	-0.001045	0.006021	-0.005155	10.607038	-45.591684	144.698018
04641	6.991789	1.280580	6.719951	-0.006225	0.005643	-0.007282	10.606023	-45.591239	144.697980
04642	7.000900	1.253739	6.701309	-0.004576	0.004390	-0.011944	10.608668	-45.591009	144.694074
04643	6.997116	1.289870	6.742704	-0.004881	0.005549	-0.003638	10.606307	-45.590984	144.697025
04644	6.979123	1.276420	6.753516	-0.006224	0.005645	-0.007282	10.605192	-45.590539	144.697060
04645	6.999549	1.254083	6.702656	-0.004751	0.006066	-0.006227	10.604359	-45.589956	144.697970
04646	6.978175	1.276696	6.754443	-0.003990	0.005182	-0.007263	10.604563	-45.589773	144.697949
04647	6.989045	1.281814	6.722570	-0.001626	0.005235	-0.009834	10.607724	-45.589276	144.695796
04648	6.994799	1.290730	6.744943	-0.008586	0.005593	-0.004711	10.603783	-45.589131	144.697892
04649	6.970540	1.268554	6.733870	-0.003146	0.007005	-0.007760	10.604571	-45.587865	144.697768
04650	7.005152	1.295822	6.713620	-0.004702	0.003879	-0.009354	10.605710	-45.588197	144.695869
04651	6.981055	1.273848	6.702343	-0.004832	0.003362	-0.006766	10.605459	-45.589071	144.695930
04652	6.986926	1.282683	6.724607	-0.005592	0.004247	-0.005729	10.603963	-45.589577	144.697004
04653	7.008520	1.273103	6.749822	-0.006221	0.005649	-0.007281	10.602914	-45.589179	144.696887
04654	6.986147	1.282909	6.725373	-0.005544	0.002059	-0.008857	10.603481	-45.590588	144.695114
04655	6.963782	1.292800	6.700897	-0.002515	0.005607	-0.006207	10.603968	-45.590256	144.695992
04656	6.994921	1.256383	6.707055	-0.003856	0.005704	-0.009850	10.605681	-45.589507	144.693969
04657	6.984851	1.283675	6.726572	-0.006351	0.005133	-0.004692	10.603089	-45.589640	144.695967
04658	7.000191	1.265386	6.729908	-0.006087	0.006169	-0.009869	10.603483	-45.588627	144.693999
04659	6.993621	1.256836	6.708326	-0.002729	0.002384	-0.004158	10.602972	-45.590366	144.695991
04660	6.999448	1.265617	6.730636	-0.006979	0.006536	-0.006243	10.600732	-45.589529	144.696996
04661	6.992843	1.256933	6.709119	-0.004829	0.003366	-0.006765	10.600443	-45.590442	144.697003
04662	6.998599	1.265902	6.731466	-0.004614	0.006592	-0.008813	10.601029	-45.589302	144.695948
04663	6.980564	1.252684	6.742252	-0.003985	0.005190	-0.007261	10.601246	-45.589108	144.695961
04664	6.975609	1.275925	6.707616	-0.005506	0.006958	-0.005188	10.599197	-45.588145	144.697878
04665	7.014772	1.279980	6.722456	-0.003306	0.001601	-0.008838	10.601070	-45.589863	144.695977
04666	6.996890	1.266729	6.733087	-0.006216	0.005655	-0.007279	10.599957	-45.589412	144.696015
04667	6.980601	1.285178	6.730696	-0.007687	0.005235	-0.008335	10.598649	-45.589077	144.695191
04668	6.995998	1.267022	6.733959	-0.003222	0.004309	-0.008297	10.599981	-45.589278	144.694207
04669	6.995579	1.267323	6.734337	-0.003983	0.005193	-0.007260	10.600265	-45.589074	144.694172
04670	6.979340	1.285979	6.731850	-0.004692	0.003890	-0.009352	10.601407	-45.589400	144.692276
04671	6.994870	1.267735	6.734996	-0.007901	0.002010	-0.006287	10.599234	-45.591135	144.692440
04672	6.978697	1.286199	6.732475	-0.001040	0.006035	-0.005149	10.599821	-45.590696	144.694249
04673	7.005462	1.272922	6.703465	-0.004691	0.003891	-0.009352	10.600956	-45.591034	144.692353
04674	6.976143	1.254851	6.746424	-0.006214	0.005658	-0.007278	10.599844	-45.590582	144.692393
04675	6.999294	1.277245	6.758607	-0.003899	0.007903	-0.006718	10.599574	-45.588899	144.693227
04676	7.010159	1.282298	6.726825	-0.004690	0.003893	-0.009352	10.600716	-45.589222	144.691332
04677	6.960609	1.305746	6.731723	-0.004823	0.003373	-0.006764	10.600525	-45.590143	144.691219
04678	6.985750	1.260475	6.715839	-0.005450	0.004777	-0.008315	10.600541	-45.590078	144.690292
04679	7.001108	1.242465	6.719134	-0.000905	0.006559	-0.007735	10.602717	-45.589071	144.690042
04680	6.997081	1.278427	6.760675	-0.005637	0.006442	-0.002598	10.599161	-45.588671	144.693966
04681	6.986146	1.292847	6.703939	-0.003433	0.001087	-0.006250	10.599584	-45.590906	144.694117
04682	6.984018	1.261208	6.717504	-0.004525	0.009311	-0.008268	10.599616	-45.588292	144.693910
04683	7.013321	1.292418	6.751629	-0.003351	0.003794	-0.005708	10.599620	-45.589080	144.694724
04684	6.989297	1.270260	6.740303	-0.005583	0.004258	-0.005727	10.598128	-45.589580	144.695801
04685	7.006423	1.283921	6.730407	-0.003978	0.005200	-0.007258	10.598520	-45.589357	144.695703
04686	6.966525	1.280208	6.716236	-0.004820	0.003376	-0.006764	10.598156	-45.590244	144.695813
04687	6.994381	1.279510	6.763263	-0.005528	0.002074	-0.008856	10.598967	-45.591694	144.693717
04688	6.999252	1.275857	6.709391	-0.001038	0.006041	-0.005146	10.599554	-45.591251	144.695530
04689	6.998826	1.276172	6.709775	-0.004684	0.003900	-0.009351	10.600833	-45.591542	144.693596
04690	6.986983	1.271672	6.742436	-0.006072	0.006188	-0.009864	10.601231	-45.590518	144.691634
04691	6.996204	1.244860	6.723797	-0.003976	0.005203	-0.007258	10.601437	-45.590354	144.691577
04692	6.976273	1.299274	6.762467	-0.004602	0.006609	-0.008808	10.602025	-45.589205	144.690528
04693	6.974160	1.267624	6.776016	-0.003349	0.003798	-0.005707	10.601906	-45.589990	144.691471
04694	6.986826	1.304536	6.731007	-0.003975	0.005204	-0.007257	10.602113	-45.589795	144.691459
04695	6.994491	1.245701	6.725422	-0.007049	0.003842	-0.006783	10.600461	-45.590428	144.691595
04696	6.984338	1.272981	6.744930	-0.003838	0.005729	-0.009844	10.602177	-45.589665	144.689580
04697	7.017224	1.268451	6.737980	-0.006205	0.005668	-0.007276	10.601167	-45.589203	144.689558
04698	6.978935	1.296404	6.710759	-0.006342	0.005144	-0.004690	10.598549	-45.589313	144.691603
04699	7.004939	1.263769	6.771111	-0.005305	0.005312	-0.010900	10.613994	-45.584606	144.719847
04700	6.999984	1.287189	6.736480	-0.006204	0.005670	-0.007276	10.612893	-45.584145	144.719902
04701	6.977538	1.296970	6.712102	-0.003972	0.005208	-0.007256	10.613241	-45.583909	144.719857
04702	6.975538	1.265319	6.725537	-0.005520	0.002081	-0.008856	10.613827	-45.585303	144.718101
04703	6.998802	1.287781	6.737595	-0.004735	0.006090	-0.006219	10.612935	-45.584724	144.719132
04704	6.982466	1.306291	6.735189	-0.003972	0.005209	-0.007256	10.613151	-45.584525	144.719134
04705	6.997906	1.288274	6.738431	-0.001740	0.004747	-0.007236	10.614816	-45.584593	144.718768
04706	7.007186	1.261562	6.719751	-0.006065	0.006198	-0.009862	10.615224	-45.583562	144.716822
04707	6.979452	1.275205	6.749565	-0.004108	0.004685	-0.004669	10.614064	-45.583963	144.718555
04708	6.995060	1.257004	6.752672	-0.003424	0.001095	-0.006249	10.614459	-45.586187	144.718746
04709	6.978831	1.275587	6.750135	-0.004596	0.006619	-0.008805	10.615176	-45.585054	144.717517
04710	7.017019	1.267250	6.689013	-0.003970	0.005212	-0.007255	10.615393	-45.584853	144.717520
04711	7.022725	1.276101	6.711379	-0.005575	0.004267	-0.005726	10.613991	-45.585362	144.718548
04712	6.982876	1.272393	6.697119	-0.002442	0.003450	-0.009328	10.616465	-45.585934	144.716617
04713	6.994828	1.290168	6.741264	-0.003422	0.001097	-0.006249	10.616881	-45.588156	144.716653
04714	6.992849	1.258509	6.754682	-0.006061	0.006203	-0.009861	10.617291	-45.587122	144.714709
04715	6.997623	1.254803	6.701020	-0.005496	0.006976	-0.005181	10.615330	-45.586150	144.716662
04716	6.993438	1.290677	6.742608	-0.002501	0.005633	-0.006198	10.615735	-45.585824	144.717580
04717	6.975483	1.277330	6.753265	-0.005435	0.004796	-0.008311	10.615910	-45.585798	144.716280
04718	7.008505	1.272780	6.746233	-0.004809	0.003388	-0.006762	10.615559	-45.586677	144.716404
04719	6.986261	1.282416	6.721669	-0.007882	0.002023	-0.006290	10.613332	-45.588369	144.716868
04720	6.968408	1.268925	6.732245	-0.001033	0.006054	-0.005140	10.613925	-45.587917	144.718700
04721	7.001297	1.264487	6.725337	-0.006058	0.006207	-0.009860	10.614456	-45.586869	144.716546
04722	6.984930	1.283137	6.722914	-0.001735	0.004755	-0.007233	10.615990	-45.586927	144.716498
04723	6.995938	1.288314	6.691075	-0.006899	0.004380	-0.009368	10.615852	-45.587031	144.714799
04724	6.984095	1.283629	6.723689	-0.005432	0.004800	-0.008310	10.615882	-45.586952	144.713890
04725	6.999529	1.265484	6.726990	-0.004729	0.006099	-0.006217	10.615085	-45.586358	144.714769
04726	6.999105	1.265556	6.727418	-0.005571	0.004272	-0.005725	10.613606	-45.586848	144.715861
04727	6.982799	1.283911	6.724980	-0.007661	0.005263	-0.008331	10.612512	-45.586515	144.714684
04728	7.004305	1.274486	6.750272	-0.001032	0.006057	-0.005138	10.613105	-45.586062	144.716518
04729	6.997851	1.265977	6.728643	-0.007738	0.002555	-0.008876	10.612441	-45.587224	144.714748
04730	6.997549	1.266346	6.728888	-0.000204	0.002999	-0.009306	10.616233	-45.588053	144.712768
04731	7.003216	1.275426	6.751225	-0.004728	0.006102	-0.006216	10.615393	-45.587448	144.713717
04732	7.002755	1.275592	6.751671	-0.005429	0.004803	-0.008310	10.615424	-45.587366	144.712810
04733	7.007660	1.271968	6.697923	-0.004727	0.006103	-0.006215	10.614677	-45.586774	144.713589
04734	6.956265	1.263156	6.715987	-0.004727	0.006103	-0.006215	10.613767	-45.586181	144.714563
04735	7.001414	1.275981	6.752988	-0.007735	0.002558	-0.008876	10.613083	-45.587353	144.712937
04736	6.979018	1.285651	6.728572	-0.002560	0.007821	-0.003063	10.611417	-45.586126	144.716707
04737	6.982315	1.250168	6.687910	-0.001731	0.004763	-0.007231	10.613124	-45.586151	144.716597
04738	6.984188	1.294929	6.751375	-0.004661	0.003926	-0.009346	10.614286	-45.586454	144.714724
04739	6.976110	1.254523	6.742851	-0.006191	0.005687	-0.007272	10.613331	-45.585989	144.714853
04740	6.993196	1.268438	6.733017	-0.002430	0.003466	-0.009325	10.615808	-45.586554	144.712927
04741	6.988359	1.292076	6.698267	-0.004660	0.003928	-0.009346	10.617125	-45.586888	144.710998
04742	6.986363	1.260445	6.711701	-0.003960	0.005227	-0.007251	10.617344	-45.586680	144.711006
04743	7.009418	1.283134	6.723937	-0.000888	0.006595	-0.007721	10.619446	-45.585638	144.711056
04744	6.991478	1.269743	6.734555	-0.007031	0.003859	-0.006781	10.617783	-45.586249	144.711236
04745	6.991228	1.269847	6.734795	-0.003411	0.001107	-0.006249	10.618315	-45.588434	144.711390
04746	6.990853	1.269897	6.735176	-0.004790	0.008285	-0.003083	10.615333	-45.586944	144.715214
04747	6.985851	1.293351	6.700636	-0.003050	0.004882	-0.010872	10.618274	-45.586520	144.712255
04748	7.013401	1.292853	6.747886	-0.003958	0.005229	-0.007251	10.618494	-45.586310	144.712264
04749	7.005385	1.252365	6.739331	-0.005564	0.004279	-0.005723	10.617108	-45.586798	144.713231
04750	6.983093	1.262032	6.714805	-0.006263	0.002982	-0.007818	10.616576	-45.587793	144.712445
04751	7.006293	1.284445	6.726943	-0.005564	0.004280	-0.005723	10.615119	-45.588285	144.713646
04752	6.988234	1.271119	6.737662	-0.002131	0.009425	-0.010815	10.617982	-45.585337	144.711420
04753	7.005182	1.285148	6.727966	-0.004797	0.003401	-0.006760	10.617740	-45.586227	144.711500
04754	6.987280	1.271644	6.738552	-0.003258	0.006529	-0.005155	10.617016	-45.585507	144.713391
04755	6.970890	1.290089	6.736144	-0.006883	0.004397	-0.009366	10.617053	-45.585487	144.711583
04756	6.986470	1.272054	6.739315	-0.002566	0.002941	-0.006738	10.618022	-45.586620	144.711658
04757	6.999045	1.309193	6.694506	-0.005344	0.007525	-0.007760	10.617579	-45.585097	144.711179
04758	6.997029	1.277428	6.707990	-0.004796	0.003403	-0.006760	10.617234	-45.585967	144.711307
04759	6.979807	1.276326	6.794668	-0.004795	0.003403	-0.006760	10.617048	-45.586822	144.711355
04760	6.978847	1.264115	6.718826	-0.003954	0.005235	-0.007249	10.617268	-45.586610	144.711366
04761	7.001846	1.286750	6.731131	-0.003113	0.007066	-0.007738	10.618030	-45.585363	144.711409
04762	6.989917	1.282040	6.763742	-0.001867	0.004240	-0.004643	10.618055	-45.585985	144.713366
04763	6.994989	1.278525	6.709909	-0.006880	0.004400	-0.009365	10.618101	-45.586029	144.711371
04764	6.993037	1.246867	6.723306	-0.003186	0.004358	-0.008285	10.619451	-45.586201	144.710415
04765	6.966769	1.292456	6.739952	-0.003186	0.004358	-0.008285	10.621042	-45.586370	144.709194
04766	6.999774	1.288160	6.733017	-0.003952	0.005237	-0.007248	10.621263	-45.586156	144.709206
04767	6.975785	1.266163	6.721620	-0.000881	0.006608	-0.007716	10.623529	-45.585128	144.708767
04768	6.981334	1.275113	6.744058	-0.004096	0.004702	-0.004664	10.622240	-45.585488	144.710777
04769	6.986428	1.271370	6.690267	-0.009251	0.004328	-0.006803	10.619298	-45.585809	144.711249
04770	6.991955	1.280391	6.712715	0.001494	0.006685	-0.010277	10.624224	-45.584459	144.709042
04771	6.979958	1.275695	6.745372	-0.007092	0.006042	-0.003649	10.620621	-45.584203	144.711906
04772	7.012910	1.271071	6.738572	-0.003254	0.006536	-0.005152	10.619897	-45.583479	144.713800
04773	6.990485	1.280842	6.714159	-0.003950	0.005240	-0.007248	10.620269	-45.583275	144.713605
04774	6.978627	1.276024	6.746686	-0.006253	0.002991	-0.007818	10.619742	-45.584266	144.712820
04775	6.995766	1.290040	6.736821	0.000510	0.004320	-0.007203	10.622718	-45.584574	144.712688
04776	6.995365	1.290405	6.737167	-0.006873	0.004407	-0.009365	10.622572	-45.584604	144.710871
04777	7.004752	1.263701	6.718560	-0.004497	0.009367	-0.008246	10.622734	-45.581951	144.710564
04778	6.994260	1.290850	6.738229	-0.004789	0.003410	-0.006759	10.622392	-45.582818	144.710693
04779	6.986346	1.250357	6.729611	-0.004715	0.006121	-0.006210	10.621613	-45.582199	144.711575
04780	6.975953	1.277592	6.749155	-0.002412	0.003488	-0.009320	10.624096	-45.582751	144.709656
04781	7.003007	1.264720	6.720188	-0.003947	0.005244	-0.007247	10.624477	-45.582548	144.709531
04782	6.997115	1.268576	6.774735	-0.004787	0.003412	-0.006759	10.624135	-45.583414	144.709661
04783	7.002350	1.265106	6.720799	-0.006943	0.001700	-0.009913	10.624700	-45.584882	144.706924
04784	6.991859	1.292453	6.740414	-0.002119	0.009449	-0.010806	10.627562	-45.581920	144.704709
04785	7.007264	1.274612	6.743775	-0.001863	0.004247	-0.004640	10.627780	-45.582513	144.706567
04786	6.967434	1.270622	6.729435	-0.006175	0.005706	-0.007269	10.626689	-45.582033	144.706633
04787	7.006455	1.274880	6.744564	-0.004786	0.003413	-0.006759	10.626341	-45.582932	144.706806
04788	6.990169	1.293275	6.742009	-0.004785	0.003414	-0.006758	10.626000	-45.583797	144.706936
04789	6.999699	1.266535	6.723292	-0.003872	0.007958	-0.006697	10.625667	-45.582098	144.707880
04790	6.999231	1.266715	6.723745	-0.004785	0.003415	-0.006758	10.625326	-45.582962	144.708011
04791	7.004761	1.275618	6.746184	-0.004565	0.006665	-0.008792	10.626058	-45.581774	144.706892
04792	6.998455	1.267034	6.724492	-0.005772	0.001042	-0.003688	10.623643	-45.584298	144.709135
04793	6.982230	1.285379	6.721878	-0.004636	0.003955	-0.009341	10.624900	-45.584592	144.707299
04794	6.997725	1.267477	6.725168	-0.003103	0.007084	-0.007732	10.625687	-45.583287	144.707200
04795	6.997258	1.267656	6.725621	-0.005551	0.004294	-0.005721	10.624361	-45.583789	144.708206
04796	7.002814	1.276461	6.748046	-0.003943	0.005251	-0.007245	10.624585	-45.583568	144.708222
04797	6.992007	1.291276	6.691362	-0.004782	0.003417	-0.006758	10.624290	-45.584423	144.708419
04798	6.996101	1.268172	6.726727	-0.005402	0.004835	-0.008304	10.624331	-45.584324	144.707520
04799	7.013033	1.282269	6.717094	-0.002953	0.007627	-0.010314	10.626652	-45.582407	144.705549
04800	6.967519	1.282096	6.757008	-0.003941	0.005253	-0.007244	10.626876	-45.582184	144.705566
04801	6.972752	1.278564	6.703151	-0.007850	0.002044	-0.006294	10.624730	-45.583940	144.705662
04802	6.994387	1.269128	6.728329	-0.004632	0.003960	-0.009340	10.625902	-45.584224	144.703797
04803	7.015918	1.259699	6.753613	-0.004858	0.005590	-0.003624	10.623488	-45.584194	144.706854
04804	6.983580	1.296281	6.748256	-0.001091	0.003377	-0.005675	10.624645	-45.585193	144.707850
04805	6.985772	1.229072	6.720394	-0.004560	0.006673	-0.008790	10.625256	-45.584030	144.706873
04806	6.982641	1.296869	6.749115	-0.003939	0.005255	-0.007244	10.625480	-45.583807	144.706890
04807	6.992251	1.270207	6.730345	-0.005399	0.004839	-0.008303	10.625606	-45.583763	144.705735
04808	6.997702	1.279220	6.752825	-0.000870	0.006631	-0.007707	10.627706	-45.582715	144.705588
04809	6.997224	1.279411	6.753284	-0.006316	0.005174	-0.004684	10.625224	-45.582807	144.707583
04810	7.018354	1.257628	6.702425	-0.003248	0.006550	-0.005147	10.624500	-45.582076	144.709483
04811	6.956940	1.275558	6.739351	-0.002399	0.003505	-0.009317	10.627137	-45.582614	144.707414
04812	6.995908	1.280050	6.754526	-0.004707	0.006134	-0.006206	10.626231	-45.582005	144.708399
04813	6.983593	1.262978	6.710865	-0.001708	0.004799	-0.007220	10.627927	-45.582065	144.708131
04814	6.989058	1.272051	6.733313	-0.003787	0.005801	-0.009825	10.629664	-45.581261	144.706154
04815	6.966688	1.282078	6.708783	-0.000938	0.003924	-0.008256	10.632367	-45.581726	144.705120
04816	6.988127	1.272872	6.734124	-0.005325	0.007555	-0.007752	10.631842	-45.580154	144.705075
04817	6.981663	1.264349	6.712616	-0.006164	0.005720	-0.007266	10.630799	-45.579673	144.705154
04818	7.004647	1.286891	6.724955	-0.004775	0.003425	-0.006757	10.630462	-45.580531	144.705286
04819	6.980830	1.264701	6.713416	-0.004554	0.006680	-0.008788	10.631064	-45.579381	144.704281
04820	6.986267	1.273697	6.735898	-0.003165	0.004386	-0.008279	10.632421	-45.579537	144.703334
04821	6.985901	1.273967	6.736226	-0.003316	0.003842	-0.005697	10.632336	-45.580319	144.704222
04822	6.991149	1.270611	6.682401	-0.005393	0.004846	-0.008302	10.632380	-45.580214	144.703326
04823	7.007067	1.264796	6.761844	-0.004773	0.003427	-0.006757	10.631994	-45.581084	144.703537
04824	6.996294	1.279677	6.705174	-0.001017	0.006096	-0.005121	10.632582	-45.580612	144.705389
04825	6.972734	1.269863	6.769848	-0.004470	0.004516	-0.011921	10.635352	-45.580304	144.701477
04826	6.983846	1.275436	6.738079	-0.001705	0.004805	-0.007218	10.636891	-45.580337	144.701448
04827	7.016992	1.271170	6.731160	-0.006382	0.002467	-0.005235	10.634844	-45.581957	144.702587
04828	7.000635	1.289463	6.728639	-0.003933	0.005265	-0.007241	10.635070	-45.581728	144.702608
04829	6.981356	1.243915	6.752021	-0.003314	0.003845	-0.005696	10.635019	-45.582511	144.703444
04830	7.015875	1.271680	6.732228	-0.003932	0.005266	-0.007241	10.635246	-45.582282	144.703465
04831	6.999488	1.290152	6.729700	-0.002543	0.002970	-0.006733	10.636440	-45.583354	144.703471
04832	6.999135	1.290400	6.730020	-0.006847	0.004434	-0.009362	10.636304	-45.583369	144.701660
04833	6.981301	1.276812	6.740455	-0.001855	0.004262	-0.004635	10.636356	-45.583994	144.703633
04834	6.980853	1.277053	6.740873	-0.006007	0.006272	-0.009846	10.636782	-45.582923	144.701710
04835	7.007973	1.264158	6.712051	-0.004083	0.004722	-0.004659	10.635467	-45.583256	144.703778
04836	6.979985	1.277352	6.741716	-0.005388	0.004852	-0.008301	10.635513	-45.583148	144.702883
04837	7.013005	1.273104	6.734948	-0.006158	0.005728	-0.007264	10.634529	-45.582633	144.702921
04838	6.995224	1.259389	6.745346	-0.005608	0.001595	-0.006272	10.633634	-45.584573	144.703167
04839	7.002140	1.300234	6.754847	-0.001633	0.007523	-0.006663	10.634686	-45.583129	144.703939
04840	6.982548	1.242596	6.702075	-0.003929	0.005270	-0.007240	10.634913	-45.582898	144.703962
04841	6.995350	1.292079	6.733632	-0.004768	0.003433	-0.006756	10.634682	-45.583759	144.703992
04842	6.989185	1.283487	6.711856	-0.004921	0.002886	-0.004174	10.632836	-45.585194	144.706121
04843	6.971318	1.269747	6.722341	-0.006774	0.007152	-0.008808	10.632150	-45.583765	144.705121
04844	6.988275	1.283800	6.712744	-0.004613	0.003982	-0.009337	10.633330	-45.584038	144.703262
04845	6.992260	1.260794	6.748156	-0.003088	0.007111	-0.007723	10.634176	-45.582703	144.703186
04846	7.009163	1.274837	6.738619	-0.003242	0.006563	-0.005142	10.633451	-45.581965	144.705092
04847	6.970713	1.302688	6.711337	-0.004698	0.006148	-0.006203	10.632610	-45.581336	144.706086
04848	7.014061	1.283792	6.761635	-0.003926	0.005274	-0.007239	10.632838	-45.581102	144.706109
04849	7.007679	1.275435	6.740049	-0.003087	0.007113	-0.007722	10.633686	-45.579795	144.705947
04850	6.973710	1.280141	6.747678	-0.004610	0.003985	-0.009337	10.634866	-45.580066	144.704088
04851	7.005421	1.243965	6.753747	-0.005536	0.004311	-0.005719	10.633507	-45.580549	144.705046
04852	6.988987	1.262352	6.751254	-0.001697	0.004817	-0.007214	10.635046	-45.580575	144.705021
04853	6.972532	1.280907	6.748749	-0.003153	0.004402	-0.008275	10.636478	-45.580699	144.704072
04854	6.993899	1.259628	6.697775	-0.003153	0.004402	-0.008275	10.637838	-45.580846	144.703131
04855	7.005250	1.277186	6.742242	-0.003307	0.003854	-0.005694	10.637738	-45.581589	144.704134
04856	6.993196	1.259991	6.698440	-0.006990	0.003897	-0.006780	10.636094	-45.582179	144.704319
04857	6.982540	1.286975	6.718101	-0.003085	0.007117	-0.007721	10.636878	-45.580893	144.704191
04858	6.982078	1.287241	6.718530	-0.001851	0.004270	-0.004632	10.636905	-45.581500	144.706160
04859	6.997664	1.269481	6.721796	-0.003612	0.006378	-0.012400	10.640230	-45.580112	144.702116
04860	6.997235	1.269932	6.722157	-0.003989	0.002566	-0.007792	10.641032	-45.581345	144.701285
04861	6.980820	1.288360	6.719623	-0.003922	0.005279	-0.007238	10.641369	-45.581121	144.701202
04862	7.002363	1.279092	6.744879	-0.003988	0.002567	-0.007792	10.642171	-45.582353	144.700372
04863	6.962793	1.274953	6.730187	-0.005599	0.001601	-0.006273	10.641272	-45.584308	144.700635
04864	6.979875	1.289035	6.720475	-0.003766	0.005831	-0.009818	10.643013	-45.583488	144.698668
04865	7.007187	1.288464	6.767871	-0.001850	0.004272	-0.004632	10.643133	-45.584110	144.700552
04866	7.000897	1.280067	6.746216	-0.005992	0.006290	-0.009843	10.643564	-45.583028	144.698634
04867	6.977125	1.257851	6.734635	-0.003921	0.005282	-0.007237	10.643823	-45.582795	144.698657
04868	7.011567	1.285841	6.714968	-0.003148	0.004409	-0.008274	10.645184	-45.582939	144.697718
04869	6.977716	1.290405	6.722454	-0.006213	0.003028	-0.007816	10.644755	-45.583908	144.696879
04870	6.977339	1.290589	6.722809	-0.003920	0.005283	-0.007237	10.644984	-45.583669	144.696906
04871	6.992959	1.272674	6.726087	-0.003919	0.005284	-0.007236	10.645240	-45.583426	144.696945
04872	6.996965	1.249569	6.761473	-0.001010	0.006115	-0.005113	10.645826	-45.582944	144.698806
04873	6.975914	1.291382	6.724136	-0.005989	0.006294	-0.009842	10.646337	-45.581887	144.696778
04874	7.007574	1.255411	6.730292	-0.001691	0.004827	-0.007211	10.647877	-45.581908	144.696757
04875	7.008484	1.287662	6.717837	-0.006145	0.005743	-0.007261	10.646898	-45.581433	144.696695
04876	6.990686	1.273981	6.728202	-0.005437	0.002157	-0.008853	10.647525	-45.582783	144.694949
04877	7.007761	1.288087	6.718510	-0.003918	0.005287	-0.007236	10.647845	-45.582538	144.694914
04878	6.984009	1.265871	6.706912	-0.004533	0.006713	-0.008779	10.648455	-45.581331	144.693916
04879	6.977704	1.269561	6.761566	-0.002463	0.005703	-0.006174	10.648829	-45.581012	144.694846
04880	6.977262	1.269788	6.761979	-0.006824	0.004458	-0.009360	10.648703	-45.581014	144.693040
04881	7.021976	1.271011	6.723109	-0.004597	0.004001	-0.009334	10.649903	-45.581283	144.691168
04882	6.988021	1.275532	6.730676	-0.003236	0.006577	-0.005136	10.649177	-45.580539	144.693081
04883	6.970176	1.261821	6.741085	-0.003300	0.003863	-0.005692	10.649007	-45.581284	144.694141
04884	6.998869	1.281034	6.699336	-0.005527	0.004321	-0.005717	10.647546	-45.581748	144.695244
04885	6.998494	1.281221	6.699692	-0.004595	0.004003	-0.009334	10.648783	-45.582016	144.693345
04886	6.969058	1.262457	6.742122	-0.003141	0.004418	-0.008271	10.650146	-45.582155	144.692408
04887	6.986082	1.276455	6.732514	-0.007753	0.004780	-0.005743	10.647427	-45.582326	144.693591
04888	6.979854	1.268132	6.710808	0.000698	0.004931	-0.009763	10.651791	-45.582019	144.691532
04889	6.990987	1.285797	6.755396	-0.006141	0.005749	-0.007260	10.650761	-45.581534	144.691540
04890	7.012468	1.264507	6.704490	-0.004593	0.004005	-0.009333	10.651947	-45.581793	144.689687
04891	6.978592	1.268790	6.711996	-0.006458	0.004641	-0.002101	10.647803	-45.582446	144.693851
04892	6.984030	1.277297	6.734483	-0.004072	0.004739	-0.004654	10.646519	-45.582788	144.695873
04893	6.983594	1.277381	6.734919	-0.004687	0.006166	-0.006197	10.645757	-45.582179	144.696718
04894	7.016686	1.273195	6.728217	-0.006977	0.003910	-0.006779	10.644120	-45.582762	144.696905
04895	6.972473	1.304306	6.754969	-0.005364	0.004880	-0.008296	10.644304	-45.582644	144.695889
04896	6.992646	1.251029	6.716908	-0.003912	0.005295	-0.007233	10.644534	-45.582399	144.695920
04897	6.987740	1.286599	6.758603	-0.004749	0.003454	-0.006753	10.644396	-45.583239	144.695898
04898	6.997604	1.260091	6.739784	-0.003073	0.007139	-0.007713	10.645183	-45.581906	144.695822
04899	6.975222	1.269960	6.715278	-0.001684	0.004839	-0.007207	10.599440	-45.590978	144.743766
04900	6.980571	1.278896	6.737764	-0.003910	0.005297	-0.007233	10.599643	-45.590737	144.743823
04901	7.007927	1.266246	6.708909	-0.004748	0.003455	-0.006753	10.599309	-45.591599	144.744096
04902	7.013300	1.275002	6.731405	-0.004684	0.006170	-0.006196	10.598378	-45.590976	144.745120
04903	6.979285	1.279343	6.739012	-0.004684	0.006170	-0.006196	10.597552	-45.590354	144.745992
04904	6.983409	1.256022	6.774280	-0.005584	0.001613	-0.006273	10.596640	-45.592289	144.746268
04905	6.994666	1.261506	6.742568	-0.003071	0.007142	-0.007712	10.597498	-45.590945	144.746135
04906	7.011501	1.275746	6.733138	-0.003071	0.007143	-0.007712	10.598259	-45.589614	144.746085
04907	6.987788	1.253436	6.721513	-0.006134	0.005757	-0.007259	10.597238	-45.589129	144.746179
04908	6.988700	1.285578	6.709074	-0.006197	0.003043	-0.007816	10.596708	-45.590096	144.745429
04909	6.976654	1.280404	6.741534	-0.004682	0.006173	-0.006195	10.595917	-45.589449	144.746289
04910	7.004008	1.267722	6.712721	-0.004744	0.003459	-0.006753	10.595564	-45.590294	144.746456
04911	6.986214	1.254005	6.723044	-0.003907	0.005302	-0.007232	10.595963	-45.590037	144.746264
04912	6.992822	1.294893	6.732752	-0.003906	0.005303	-0.007232	10.596166	-45.589793	144.746324
04913	6.980869	1.277985	6.688929	-0.001680	0.004846	-0.007205	10.597754	-45.589804	144.746248
04914	6.996366	1.272126	6.768505	-0.005971	0.006319	-0.009837	10.598163	-45.588713	144.744364
04915	6.973932	1.281922	6.744062	-0.004519	0.006734	-0.008773	10.598827	-45.587471	144.743314
04916	7.001170	1.269349	6.715373	-0.003230	0.006590	-0.005131	10.598073	-45.586723	144.745258
04917	6.983284	1.255616	6.725787	-0.003905	0.005305	-0.007231	10.598333	-45.586498	144.745287
04918	6.984136	1.287872	6.713386	-0.006806	0.004477	-0.009358	10.598186	-45.586495	144.743511
04919	7.009998	1.255028	6.773751	-0.006905	0.006634	-0.006221	10.595981	-45.585608	144.744586
04920	6.971654	1.282868	6.746237	-0.003865	0.000436	-0.010926	10.598855	-45.587715	144.740940
04921	6.999183	1.270439	6.717238	-0.001840	0.004291	-0.004625	10.598916	-45.588290	144.742957
04922	6.998770	1.270587	6.717641	-0.006129	0.005764	-0.007257	10.597811	-45.587784	144.743065
04923	6.970424	1.283512	6.747385	-0.003841	0.008023	-0.006672	10.597436	-45.586064	144.744039
04924	6.997740	1.270933	6.718649	-0.003289	0.003878	-0.005688	10.597259	-45.586785	144.745125
04925	7.003116	1.279800	6.741090	-0.004577	0.004024	-0.009330	10.598391	-45.587065	144.743413
04926	6.979534	1.257484	6.729329	-0.004678	0.006180	-0.006193	10.597462	-45.586436	144.744440
04927	6.996394	1.271664	6.719912	-0.001615	0.007568	-0.006644	10.598464	-45.584982	144.745229
04928	6.990191	1.263240	6.698251	-0.006964	0.003922	-0.006779	10.596804	-45.585564	144.745444
04929	7.001202	1.280595	6.742927	-0.005963	0.006328	-0.009835	10.597271	-45.584466	144.743587
04930	6.995118	1.272241	6.721130	-0.003349	0.001165	-0.006247	10.597674	-45.586656	144.743816
04931	6.994792	1.272407	6.721438	-0.004676	0.006182	-0.006193	10.596856	-45.586020	144.744786
04932	6.982622	1.267175	6.753979	-0.004676	0.006182	-0.006192	10.595926	-45.585390	144.745814
04933	6.993833	1.272695	6.722382	-0.005349	0.004899	-0.008293	10.596058	-45.585232	144.744904
04934	6.999120	1.281516	6.744913	-0.005349	0.004900	-0.008293	10.596089	-45.585104	144.744049
04935	6.998725	1.281628	6.745301	-0.006961	0.003925	-0.006779	10.594565	-45.585693	144.744149
04936	6.959049	1.277307	6.730646	-0.001000	0.006141	-0.005101	10.595119	-45.585201	144.746049
04937	6.997920	1.282217	6.746025	-0.003018	0.002291	-0.011402	10.598575	-45.586217	144.742273
04938	6.991778	1.274059	6.724261	-0.005959	0.006334	-0.009833	10.598987	-45.585118	144.740394
04939	7.013239	1.264695	6.749636	-0.004899	0.002907	-0.004173	10.597058	-45.586539	144.742679
04940	6.991059	1.274337	6.724956	-0.004570	0.004033	-0.009329	10.598224	-45.586789	144.740859
04941	6.996349	1.283227	6.747462	-0.003897	0.005316	-0.007228	10.598538	-45.586532	144.740862
04942	6.990196	1.274863	6.725753	-0.005346	0.004904	-0.008292	10.598570	-45.586401	144.740008
04943	7.007145	1.288834	6.716303	-0.007064	0.006080	-0.003641	10.594789	-45.586103	144.743187
04944	6.989298	1.274873	6.726684	-0.003896	0.005318	-0.007227	10.594994	-45.585851	144.743252
04945	6.977223	1.269690	6.759085	-0.004732	0.003472	-0.006751	10.594740	-45.586700	144.743363
04946	6.966570	1.284896	6.702499	-0.002894	0.007729	-0.010281	10.597016	-45.584768	144.741333
04947	7.021558	1.271605	6.720818	-0.005568	0.001627	-0.006274	10.596138	-45.586685	144.741634
04948	6.964628	1.253336	6.715905	-0.004566	0.004037	-0.009328	10.597305	-45.586932	144.739816
04949	6.992993	1.284794	6.750642	-0.003895	0.005320	-0.007227	10.597600	-45.586700	144.739785
04950	7.002986	1.258308	6.731825	-0.004672	0.006190	-0.006190	10.596671	-45.586066	144.740816
04951	6.986358	1.276552	6.729419	-0.005342	0.004908	-0.008291	10.596824	-45.585924	144.739895
04952	7.003350	1.290895	6.719865	-0.002339	0.003583	-0.009300	10.599299	-45.586430	144.738031
04953	6.985625	1.276987	6.730098	-0.009346	0.003823	-0.004229	10.594888	-45.587339	144.740215
04954	6.996964	1.282175	6.698482	-0.006284	0.005214	-0.004677	10.592270	-45.587414	144.742317
04955	6.973169	1.271478	6.762931	-0.006011	0.003628	-0.010392	10.593391	-45.587753	144.739500
04956	6.978749	1.268518	6.709176	-0.004670	0.006193	-0.006189	10.592462	-45.587117	144.740532
04957	7.001390	1.291174	6.721853	-0.005506	0.004346	-0.005713	10.590967	-45.587556	144.741752
04958	6.994084	1.250661	6.712861	-0.003892	0.005325	-0.007225	10.591173	-45.587300	144.741820
04959	7.005038	1.267966	6.757534	-0.005505	0.004347	-0.005713	10.589763	-45.587755	144.742895
04960	6.994450	1.283097	6.700931	-0.003725	0.005892	-0.009802	10.591485	-45.586908	144.740974
04961	6.998496	1.259909	6.736194	-0.004727	0.003479	-0.006750	10.591250	-45.587743	144.741047
04962	7.016653	1.306202	6.713981	-0.005949	0.006349	-0.009830	10.591664	-45.586636	144.739173
04963	6.981360	1.278393	6.734255	-0.004668	0.006196	-0.006188	10.590821	-45.585953	144.740190
04964	6.998283	1.292559	6.724821	-0.006784	0.004503	-0.009354	10.590683	-45.585936	144.738421
04965	6.996643	1.260711	6.737968	-0.003890	0.005328	-0.007224	10.591000	-45.585630	144.738469
04966	6.997401	1.293013	6.725652	-0.005336	0.004916	-0.008289	10.591034	-45.585492	144.737619
04967	6.996972	1.293319	6.726040	-0.001664	0.004874	-0.007196	10.592594	-45.585500	144.737607
04968	6.995352	1.261543	6.739153	-0.006782	0.004505	-0.009354	10.592456	-45.585482	144.735839
04969	6.990519	1.284970	6.704673	-0.009341	0.003826	-0.004229	10.588029	-45.586353	144.738102
04970	6.989125	1.252742	6.717636	-0.003503	0.000611	-0.003670	10.586920	-45.589126	144.740322
04971	7.017491	1.284091	6.752372	-0.003052	0.007179	-0.007698	10.587738	-45.587800	144.740191
04972	6.989535	1.285238	6.705647	-0.004723	0.003483	-0.006749	10.587391	-45.588631	144.740365
04973	6.993616	1.261936	6.740880	-0.003887	0.005332	-0.007223	10.587730	-45.588367	144.740296
04974	6.998863	1.270646	6.763427	-0.005501	0.004352	-0.005712	10.586249	-45.588818	144.741436
04975	6.988391	1.285582	6.706774	-0.008393	0.003528	-0.007842	10.584487	-45.589566	144.740644
04976	6.992449	1.262213	6.742039	-0.000995	0.006158	-0.005093	10.585038	-45.589065	144.742553
04977	7.026752	1.290614	6.722718	-0.001662	0.004878	-0.007194	10.586571	-45.589083	144.742576
04978	6.986030	1.254136	6.720594	-0.007781	0.002092	-0.006303	10.584365	-45.590745	144.742900
04979	7.003116	1.268375	6.710997	-0.002328	0.003599	-0.009296	10.586885	-45.591231	144.741030
04980	6.986516	1.286789	6.708496	-0.003886	0.005335	-0.007222	10.587092	-45.590969	144.741101
04981	6.986042	1.286970	6.708954	-0.004664	0.006203	-0.006186	10.586186	-45.590347	144.742131
04982	6.973887	1.281563	6.741392	-0.006945	0.003943	-0.006777	10.584534	-45.590917	144.742352
04983	7.001489	1.269062	6.712565	-0.006165	0.003076	-0.007813	10.584150	-45.591862	144.741483
04984	6.973127	1.281934	6.742107	-0.000825	0.006731	-0.007667	10.586216	-45.590768	144.741407
04985	6.983371	1.255577	6.723088	-0.003500	0.000613	-0.003670	10.585254	-45.593477	144.743576
04986	6.989856	1.296382	6.732845	-0.005939	0.006363	-0.009826	10.585672	-45.592363	144.741707
04987	7.005599	1.278502	6.736146	-0.005498	0.004356	-0.005711	10.584280	-45.592821	144.742796
04988	7.000693	1.302108	6.701730	-0.003218	0.006618	-0.005119	10.583523	-45.592058	144.744753
04989	6.987358	1.264612	6.746866	-0.006942	0.003945	-0.006777	10.581962	-45.592606	144.744921
04990	7.009962	1.287340	6.759570	-0.005327	0.004928	-0.008287	10.581999	-45.592462	144.744074
04991	6.982072	1.288311	6.712828	-0.006276	0.005225	-0.004674	10.579497	-45.592521	144.746096
04992	7.014104	1.252445	6.718896	-0.002323	0.003607	-0.009294	10.581976	-45.593015	144.744240
04993	6.981309	1.288929	6.713504	-0.004547	0.004063	-0.009323	10.583169	-45.593231	144.742497
04994	6.986480	1.297734	6.736089	-0.003217	0.006620	-0.005118	10.582411	-45.592467	144.744456
04995	6.996668	1.271269	6.717173	-0.007605	0.002669	-0.008879	10.581760	-45.593544	144.742773
04996	6.990235	1.274458	6.771627	-0.004716	0.003493	-0.006747	10.581416	-45.594370	144.742950
04997	7.012263	1.253518	6.720617	-0.006160	0.003081	-0.007813	10.581029	-45.595283	144.742146
04998	6.962001	1.275676	6.725200	-0.003825	0.008061	-0.006656	10.580652	-45.593546	144.743084
04999	7.000642	1.280427	6.740932	-0.006104	0.005800	-0.007249	10.579627	-45.593012	144.743192
05000	6.994692	1.271951	6.719101	-0.005549	0.001644	-0.006274	10.578732	-45.594929	144.743472
05001	6.982680	1.266789	6.751299	-0.000096	0.003157	-0.009264	10.582585	-45.595694	144.741490
05002	6.994097	1.272482	6.719620	-0.006445	0.004655	-0.002098	10.578452	-45.596355	144.745584
05003	7.005419	1.278076	6.688062	-0.003708	0.005919	-0.009794	10.580248	-45.595509	144.743600
05004	6.998793	1.281440	6.742660	-0.005322	0.004935	-0.008285	10.580287	-45.595361	144.742756
05005	6.987144	1.264553	6.698735	-0.005322	0.004936	-0.008285	10.580410	-45.595226	144.741835
05006	6.997908	1.281893	6.743492	-0.003878	0.005347	-0.007219	10.580619	-45.594958	144.741911
05007	6.980095	1.268055	6.753734	-0.003877	0.005348	-0.007219	10.580887	-45.594707	144.741916
05008	6.991582	1.273621	6.722021	-0.008605	0.000250	-0.005832	10.578136	-45.597456	144.742342
05009	7.002960	1.279112	6.690439	-0.004603	0.008933	-0.005616	10.576642	-45.595324	144.744291
05010	6.980035	1.300356	6.742262	-0.004539	0.004072	-0.009321	10.577818	-45.595553	144.742483
05011	7.007676	1.288120	6.713445	-0.006154	0.003088	-0.007812	10.577454	-45.596491	144.741626
05012	6.989916	1.274157	6.723651	-0.004657	0.006217	-0.006181	10.576526	-45.595843	144.742669
05013	7.011283	1.264950	6.749104	-0.001652	0.004896	-0.007188	10.578186	-45.595791	144.742645
05014	6.989109	1.274748	6.724378	-0.003929	0.002634	-0.007783	10.578981	-45.596992	144.741859
05015	6.988817	1.274954	6.724643	-0.006152	0.003089	-0.007812	10.578566	-45.597926	144.741053
05016	6.988388	1.275260	6.725031	-0.000817	0.006749	-0.007659	10.580631	-45.596822	144.740985
05017	7.009761	1.266141	6.750461	-0.001824	0.004323	-0.004613	10.580772	-45.597423	144.742848
05018	6.970262	1.261655	6.735542	-0.007594	0.002679	-0.008879	10.580093	-45.598483	144.741187
05019	7.009109	1.266365	6.751096	-0.005489	0.004367	-0.005709	10.578739	-45.598935	144.742202
05020	6.986854	1.275899	6.726503	-0.004655	0.006220	-0.006180	10.577811	-45.598285	144.743245
05021	7.020039	1.272138	6.719953	-0.004708	0.003502	-0.006746	10.577565	-45.599125	144.743311
05022	6.986123	1.276190	6.727208	-0.004708	0.003503	-0.006746	10.577224	-45.599946	144.743491
05023	6.973896	1.270868	6.759607	-0.003039	0.007208	-0.007688	10.578072	-45.598588	144.743392
05024	7.002647	1.290720	6.718191	-0.008425	0.000830	-0.008408	10.576844	-45.600739	144.741832
05025	6.983872	1.244557	6.740950	-0.006095	0.005811	-0.007246	10.575785	-45.600199	144.741954
05026	7.007441	1.299566	6.741125	-0.001649	0.004902	-0.007186	10.577299	-45.600185	144.741989
05027	6.972995	1.260031	6.684731	-0.006929	0.003959	-0.006775	10.575740	-45.600747	144.742150
05028	6.984762	1.309393	6.716915	-0.003037	0.007210	-0.007686	10.576499	-45.599381	144.742130
05029	6.999407	1.259563	6.732877	-0.005313	0.004948	-0.008282	10.576630	-45.599263	144.741153
05030	6.988339	1.286282	6.752574	-0.004705	0.003506	-0.006745	10.576290	-45.600082	144.741333
05031	6.994307	1.283429	6.698659	-0.006980	0.001243	-0.007341	10.575350	-45.602111	144.740591
05032	6.998465	1.259995	6.733775	-0.003870	0.005360	-0.007215	10.575560	-45.601836	144.740672
05033	6.981786	1.278281	6.731312	-0.004530	0.004085	-0.009319	10.576792	-45.602086	144.738784
05034	7.003083	1.269018	6.756850	-0.007481	0.008123	-0.007745	10.574940	-45.600200	144.738854
05035	6.998060	1.292742	6.722581	-0.003869	0.005361	-0.007215	10.575214	-45.599917	144.738910
05036	6.980306	1.278748	6.732758	-0.005485	0.004373	-0.005708	10.573738	-45.600356	144.740056
05037	6.990686	1.252395	6.713724	-0.002480	0.003054	-0.006715	10.574716	-45.601461	144.740157
05038	6.963341	1.297171	6.730555	-0.003869	0.005363	-0.007214	10.574926	-45.601185	144.740239
05039	6.995458	1.261338	6.736648	-0.005484	0.004374	-0.005707	10.573548	-45.601639	144.741283
05040	6.989631	1.252855	6.714737	-0.005536	0.001656	-0.006274	10.572660	-45.603549	144.741565
05041	6.990364	1.285302	6.702415	-0.001470	0.005488	-0.009758	10.575736	-45.602927	144.739617
05042	6.994394	1.262176	6.737596	-0.004526	0.004090	-0.009318	10.576916	-45.603147	144.737814
05043	6.993985	1.262313	6.737995	-0.004825	0.005650	-0.003603	10.574555	-45.603088	144.740779
05044	6.988026	1.253932	6.716206	-0.003085	0.004501	-0.008251	10.575902	-45.603189	144.739897
05045	7.005000	1.268340	6.706771	-0.004700	0.003512	-0.006744	10.575558	-45.604020	144.740077
05046	7.015604	1.285580	6.751622	-0.003815	0.008085	-0.006646	10.575180	-45.602271	144.741026
05047	6.992295	1.262978	6.739624	-0.006316	0.002523	-0.005238	10.573285	-45.603765	144.742236
05048	6.992977	1.295292	6.727377	-0.003690	0.005947	-0.009786	10.575014	-45.602890	144.740334
05049	6.991456	1.263557	6.740386	-0.004523	0.004093	-0.009317	10.576277	-45.603103	144.738482
05050	6.986588	1.287505	6.705928	-0.004522	0.004094	-0.009317	10.577458	-45.603320	144.736680
05051	6.974432	1.281978	6.738228	-0.004218	0.004207	-0.002066	10.574635	-45.604205	144.740815
05052	6.996671	1.261124	6.687248	-0.004698	0.003514	-0.006744	10.574297	-45.605020	144.740998
05053	7.007325	1.278299	6.732043	-0.006087	0.005824	-0.007243	10.573249	-45.604485	144.741091
05054	6.973286	1.282403	6.739333	-0.002298	0.003642	-0.009286	10.575735	-45.604961	144.739246
05055	6.989246	1.264589	6.742484	-0.007096	0.003388	-0.004201	10.572676	-45.606103	144.741404
05056	7.000732	1.270387	6.710839	-0.002298	0.003643	-0.009286	10.575162	-45.606578	144.739559
05057	6.977780	1.291651	6.762460	-0.004520	0.004098	-0.009316	10.576434	-45.606791	144.737691
05058	6.989266	1.297451	6.730817	-0.004873	0.002935	-0.004170	10.574577	-45.608202	144.739858
05059	6.982278	1.256861	6.721634	-0.006691	0.007272	-0.008778	10.573921	-45.606661	144.738977
05060	7.004598	1.279756	6.734604	-0.003862	0.005373	-0.007211	10.574131	-45.606380	144.739063
05061	6.993352	1.306406	6.754421	-0.006084	0.005827	-0.007242	10.573158	-45.605803	144.739171
05062	6.963562	1.243174	6.732723	-0.006134	0.003109	-0.007810	10.572655	-45.606734	144.738434
05063	7.008810	1.288868	6.758048	-0.000806	0.006776	-0.007648	10.574825	-45.605615	144.738295
05064	7.002808	1.280691	6.736287	-0.006738	0.004556	-0.009346	10.574704	-45.605570	144.736539
05065	6.997043	1.272287	6.714326	-0.003483	0.000627	-0.003671	10.573741	-45.608313	144.738685
05066	6.985967	1.298818	6.733977	-0.006083	0.005829	-0.007241	10.572647	-45.607771	144.738815
05067	6.973358	1.249961	6.702669	-0.002849	0.007815	-0.010251	10.574967	-45.605795	144.736802
05068	7.011925	1.255103	6.718501	-0.002422	0.005786	-0.006143	10.575344	-45.605393	144.737810
05069	6.984440	1.299723	6.735387	-0.006131	0.003112	-0.007810	10.574868	-45.606343	144.737030
05070	6.994858	1.273447	6.716382	-0.003859	0.005377	-0.007210	10.575079	-45.606059	144.737118
05071	6.999952	1.282086	6.738990	-0.006914	0.003976	-0.006773	10.573539	-45.606602	144.737291
05072	6.999533	1.282235	6.739396	-0.000983	0.006197	-0.005074	10.574082	-45.606081	144.739221
05073	6.993605	1.273799	6.717620	-0.009135	0.004430	-0.006804	10.571176	-45.606383	144.739455
05074	6.998568	1.282281	6.740390	-0.004593	0.008962	-0.005603	10.569658	-45.604249	144.741375
05075	6.992601	1.273954	6.718636	-0.003906	0.002661	-0.007779	10.570565	-45.605444	144.740496
05076	6.980410	1.268516	6.750895	-0.005295	0.004971	-0.008277	10.570611	-45.605276	144.739663
05077	6.975553	1.292340	6.716478	-0.004690	0.003524	-0.006742	10.570387	-45.606035	144.739864
05078	6.979661	1.268964	6.751584	-0.003073	0.004519	-0.008246	10.571737	-45.606125	144.738988
05079	6.979191	1.269133	6.752039	-0.006862	0.006698	-0.006203	10.569625	-45.605211	144.739970
05080	7.007948	1.289152	6.710787	-0.005342	0.002254	-0.008847	10.570264	-45.606514	144.738271
05081	7.012048	1.265690	6.745917	-0.006077	0.005836	-0.007240	10.569284	-45.605991	144.738270
05082	6.977963	1.269664	6.753208	-0.001634	0.004930	-0.007177	10.570799	-45.605963	144.738316
05083	7.006722	1.289792	6.711944	-0.005472	0.004389	-0.005705	10.569452	-45.606388	144.739381
05084	6.988995	1.275718	6.722052	-0.003855	0.005384	-0.007208	10.569664	-45.606100	144.739471
05085	7.016899	1.307191	6.757116	-0.005340	0.002256	-0.008847	10.570320	-45.607370	144.737846
05086	6.999123	1.249785	6.703325	-0.003855	0.005385	-0.007208	10.570532	-45.607082	144.737937
05087	6.987829	1.276456	6.723124	-0.005291	0.004977	-0.008276	10.570786	-45.606939	144.736863
05088	6.987382	1.276689	6.723544	-0.003854	0.005386	-0.007208	10.570998	-45.606650	144.736954
05089	6.969681	1.262668	6.733609	-0.004686	0.003529	-0.006741	10.570698	-45.607446	144.737156
05090	6.986706	1.276950	6.724197	-0.004866	0.002943	-0.004169	10.568844	-45.608853	144.739325
05091	6.968990	1.262852	6.734289	-0.005894	0.006428	-0.009810	10.569340	-45.607741	144.737349
05092	7.013948	1.265080	6.696027	-0.004638	0.006250	-0.006170	10.568414	-45.607075	144.738405
05093	6.985304	1.277451	6.725559	-0.005289	0.004980	-0.008275	10.568602	-45.606853	144.737559
05094	7.007625	1.300412	6.738516	-0.003852	0.005389	-0.007207	10.568814	-45.606563	144.737650
05095	6.984452	1.277811	6.726376	-0.006905	0.003985	-0.006772	10.567243	-45.607134	144.737788
05096	6.978592	1.269442	6.704543	-0.003851	0.005390	-0.007206	10.567456	-45.606843	144.737880
05097	7.022634	1.283011	6.742633	-0.005891	0.006432	-0.009809	10.567924	-45.605710	144.735982
05098	6.988515	1.287016	6.749912	-0.004501	0.004121	-0.009312	10.569112	-45.605913	144.734188
05099	6.982696	1.278784	6.728013	-0.003247	0.003942	-0.005672	10.569040	-45.606583	144.735253
05100	6.982300	1.278995	6.728384	-0.003850	0.005392	-0.007206	10.569253	-45.606292	144.735345
05101	7.003716	1.269832	6.753790	-0.003897	0.002672	-0.007777	10.570142	-45.607468	144.734513
05102	7.010731	1.299516	6.687455	-0.003850	0.005393	-0.007206	10.570355	-45.607176	144.734606
05103	6.985654	1.256050	6.764166	-0.004681	0.003535	-0.006740	10.569980	-45.608001	144.734818
05104	6.998098	1.294388	6.720051	-0.002096	0.004260	-0.011851	10.573991	-45.607858	144.731001
05105	6.979584	1.248310	6.742442	-0.006345	-0.000182	-0.005810	10.572786	-45.610834	144.731227
05106	6.997559	1.294784	6.720537	-0.003199	0.006664	-0.005099	10.572023	-45.610047	144.733208
05107	6.991643	1.286477	6.698764	-0.005284	0.004987	-0.008274	10.572104	-45.609876	144.732363
05108	6.995683	1.263025	6.733930	-0.005283	0.004987	-0.008274	10.572154	-45.609700	144.731535
05109	6.984323	1.289657	6.753746	-0.003848	0.005396	-0.007205	10.572510	-45.609364	144.731599
05110	6.995798	1.295626	6.722207	-0.004679	0.003537	-0.006740	10.572179	-45.610166	144.731788
05111	6.972757	1.273014	6.709934	-0.007549	0.002722	-0.008878	10.571591	-45.611221	144.730049
05112	6.983204	1.290261	6.754786	-0.003664	0.005988	-0.009775	10.573324	-45.610324	144.728163
05113	6.977340	1.281849	6.732984	-0.006434	0.004669	-0.002094	10.569254	-45.610994	144.732190
05114	6.982434	1.290267	6.755582	-0.004678	0.003539	-0.006739	10.568923	-45.611796	144.732380
05115	6.993015	1.264204	6.736479	-0.002274	0.003677	-0.009278	10.571542	-45.612256	144.730433
05116	6.988101	1.288198	6.702128	-0.004632	0.006260	-0.006167	10.570616	-45.611585	144.731493
05117	7.009474	1.278908	6.727608	-0.006111	0.003132	-0.007808	10.570190	-45.612509	144.730702
05118	7.009156	1.279055	6.727911	-0.004677	0.003540	-0.006739	10.569860	-45.613309	144.730892
05119	6.975143	1.282935	6.735054	-0.004493	0.004132	-0.009310	10.571066	-45.613548	144.729019
05120	6.985645	1.256873	6.716047	-0.000977	0.006217	-0.005064	10.571604	-45.613017	144.730959
05121	7.007915	1.279949	6.729034	-0.004492	0.004133	-0.009310	10.572958	-45.613213	144.729028
05122	6.985662	1.289684	6.704385	-0.005881	0.006447	-0.009806	10.573390	-45.612054	144.727186
05123	6.989622	1.266184	6.739628	-0.006064	0.005855	-0.007235	10.572343	-45.611484	144.727336
05124	7.006508	1.280593	6.730377	-0.004675	0.003543	-0.006739	10.572013	-45.612283	144.727527
05125	6.988841	1.266488	6.740381	-0.006711	0.004589	-0.009341	10.571903	-45.612200	144.725840
05126	7.005726	1.280901	6.731132	-0.004028	0.004811	-0.004632	10.570595	-45.612506	144.727917
05127	6.983447	1.290677	6.706501	-0.000607	0.007406	-0.010204	10.574250	-45.610755	144.725868
05128	6.987570	1.267229	6.741560	-0.008556	0.000276	-0.005844	10.571532	-45.613488	144.726288
05129	6.999211	1.273134	6.709906	-0.004489	0.004138	-0.009309	10.572790	-45.613643	144.724535
05130	6.987798	1.299720	6.729734	-0.006062	0.005859	-0.007234	10.571701	-45.613086	144.724675
05131	7.002800	1.249804	6.745498	-0.006708	0.004592	-0.009341	10.571620	-45.613016	144.722933
05132	7.003269	1.282209	6.733439	-0.003841	0.005407	-0.007201	10.571834	-45.612716	144.723031
05133	6.968243	1.253856	6.753135	-0.003841	0.005408	-0.007201	10.572175	-45.612386	144.723088
05134	6.996899	1.274272	6.712102	-0.003010	0.007269	-0.007664	10.572932	-45.610989	144.723093
05135	6.985442	1.300892	6.731953	-0.001806	0.004362	-0.004598	10.572980	-45.611542	144.725119
05136	6.973355	1.251988	6.700293	-0.003840	0.005409	-0.007201	10.573195	-45.611241	144.725219
05137	6.995732	1.274972	6.713185	-0.006147	0.000420	-0.008382	10.573399	-45.613596	144.723611
05138	6.983512	1.269294	6.745375	-0.003195	0.006676	-0.005094	10.572635	-45.612803	144.725598
05139	6.994975	1.275439	6.713885	-0.003697	0.003284	-0.010345	10.575041	-45.613346	144.722839
05140	6.966354	1.287790	6.743219	-0.004670	0.003549	-0.006738	10.574713	-45.614142	144.723031
05141	6.994306	1.275924	6.714490	-0.003237	0.003956	-0.005668	10.574634	-45.614839	144.724038
05142	6.993952	1.276029	6.714838	-0.005457	0.004409	-0.005700	10.573165	-45.615259	144.725195
05143	6.998970	1.284751	6.737424	-0.003695	0.003286	-0.010344	10.575537	-45.615809	144.722459
05144	6.982131	1.302857	6.735007	-0.005414	0.007131	-0.005126	10.573470	-45.614756	144.724488
05145	6.992759	1.276477	6.715996	-0.007719	0.002141	-0.006308	10.571450	-45.616404	144.724656
05146	6.997822	1.285078	6.738554	-0.004482	0.004147	-0.009307	10.572644	-45.616593	144.722870
05147	6.997430	1.285279	6.738922	-0.004024	0.004818	-0.004630	10.571346	-45.616909	144.724932
05148	6.991639	1.276965	6.717069	-0.003837	0.005414	-0.007199	10.571561	-45.616606	144.725033
05149	6.979342	1.271305	6.749311	-0.004667	0.003552	-0.006737	10.571238	-45.617432	144.725176
05150	6.985491	1.268905	6.695542	-0.003836	0.005415	-0.007199	10.571452	-45.617128	144.725278
05151	6.995834	1.286031	6.740436	-0.004667	0.003553	-0.006737	10.571292	-45.617881	144.725411
05152	6.990078	1.277771	6.718540	-0.003836	0.005416	-0.007199	10.571506	-45.617576	144.725513
05153	7.006086	1.260109	6.721747	-0.004666	0.003554	-0.006737	10.571318	-45.618380	144.725566
05154	6.994724	1.286590	6.741481	-0.004666	0.003554	-0.006737	10.570991	-45.619173	144.725760
05155	7.010696	1.269026	6.744708	-0.003648	0.006015	-0.009768	10.572783	-45.618236	144.723904
05156	6.971259	1.264450	6.729559	-0.003877	0.002697	-0.007774	10.573597	-45.619403	144.723134
05157	7.000040	1.284795	6.688486	-0.006843	0.006729	-0.006194	10.571505	-45.618435	144.724190
05158	6.970345	1.264611	6.730476	-0.006054	0.005871	-0.007231	10.570419	-45.617871	144.724334
05159	6.981088	1.238432	6.711342	-0.006136	0.000429	-0.008383	10.570553	-45.620226	144.722790
05160	7.020626	1.275680	6.714764	-0.002549	0.007949	-0.002982	10.568805	-45.618938	144.726668
05161	6.990871	1.255611	6.756783	-0.005865	0.006471	-0.009800	10.569251	-45.617822	144.724725
05162	6.990378	1.255952	6.757230	-0.001613	0.004969	-0.007164	10.570767	-45.617773	144.724788
05163	6.985499	1.279898	6.722896	-0.006882	0.004010	-0.006770	10.569228	-45.618301	144.724969
05164	7.001592	1.262193	6.726037	-0.003873	0.002700	-0.007773	10.570043	-45.619466	144.724201
05165	6.973786	1.306504	6.742942	-0.005451	0.004417	-0.005699	10.568647	-45.619880	144.725316
05166	7.001758	1.294575	6.714294	-0.006881	0.004011	-0.006769	10.567021	-45.620412	144.725553
05167	6.995147	1.254071	6.704853	-0.000971	0.006236	-0.005055	10.567684	-45.619855	144.727431
05168	7.006255	1.303327	6.737387	-0.006880	0.004012	-0.006769	10.566058	-45.620387	144.727668
05169	6.965884	1.266186	6.734797	-0.007439	0.008192	-0.007724	10.564127	-45.618522	144.727746
05170	6.999042	1.262893	6.728559	-0.004471	0.004161	-0.009304	10.565325	-45.618703	144.725964
05171	6.975582	1.283496	6.780272	-0.006049	0.005877	-0.007230	10.564318	-45.618120	144.726084
05172	6.980888	1.248989	6.738977	-0.003040	0.004568	-0.008233	10.565675	-45.618185	144.725226
05173	7.009694	1.269473	6.697914	-0.005449	0.004420	-0.005698	10.564342	-45.618560	144.726358
05174	6.980903	1.281472	6.727369	-0.004619	0.006284	-0.006158	10.563417	-45.617876	144.727428
05175	6.980590	1.281607	6.727668	-0.007558	0.000029	-0.009454	10.563395	-45.620369	144.724903
05176	7.013840	1.278446	6.721326	0.000690	0.009968	-0.005974	10.565008	-45.617629	144.726675
05177	6.962453	1.267861	6.738029	-0.006128	0.000436	-0.008383	10.565306	-45.619995	144.724939
05178	7.013087	1.278905	6.722025	-0.006047	0.005880	-0.007229	10.564222	-45.619426	144.725087
05179	6.990037	1.256261	6.709770	-0.003828	0.005429	-0.007195	10.564582	-45.619108	144.725083
05180	7.000151	1.273436	6.754822	-0.002998	0.007294	-0.007655	10.565338	-45.617698	144.725100
05181	6.994399	1.265302	6.732933	-0.003867	0.002708	-0.007772	10.566305	-45.618917	144.724082
05182	6.988717	1.257124	6.710983	-0.003827	0.005431	-0.007195	10.566521	-45.618605	144.724189
05183	7.005627	1.271602	6.701764	-0.006276	0.002558	-0.005238	10.564599	-45.620108	144.725394
05184	6.987988	1.257411	6.711688	-0.003636	0.006034	-0.009762	10.566337	-45.619187	144.723524
05185	6.976480	1.284104	6.731454	-0.003075	0.001853	-0.008809	10.568339	-45.620722	144.721768
05186	7.009815	1.281138	6.725011	-0.004274	0.004772	-0.011870	10.571061	-45.620289	144.718011
05187	6.975688	1.284885	6.732126	-0.002588	0.005236	-0.003555	10.570112	-45.620454	144.720877
05188	6.992563	1.299317	6.722955	-0.006873	0.004019	-0.006769	10.568489	-45.620981	144.721115
05189	6.991365	1.267292	6.735709	-0.003035	0.004577	-0.008231	10.569999	-45.621052	144.720106
05190	7.020126	1.287961	6.694716	-0.002396	0.005840	-0.006122	10.570374	-45.620622	144.721138
05191	6.973231	1.253533	6.746057	-0.003034	0.004578	-0.008231	10.571612	-45.620661	144.720464
05192	6.995344	1.276674	6.759189	-0.003824	0.005435	-0.007193	10.571828	-45.620347	144.720573
05193	6.973129	1.286229	6.734521	-0.006043	0.005886	-0.007228	10.570843	-45.619773	144.720648
05194	6.989130	1.268633	6.737776	-0.004461	0.004174	-0.009302	10.572044	-45.619947	144.718869
05195	7.006009	1.283299	6.728565	-0.003225	0.003976	-0.005663	10.571981	-45.620613	144.719916
05196	6.983137	1.260630	6.716132	-0.004652	0.003571	-0.006734	10.571659	-45.621397	144.720114
05197	7.010579	1.292094	6.751537	-0.005251	0.005032	-0.008264	10.571824	-45.621217	144.719171
05198	6.999551	1.275464	6.707377	-0.003823	0.005438	-0.007193	10.572041	-45.620901	144.719281
05199	7.004424	1.284269	6.730029	-0.002241	0.003726	-0.009267	10.574611	-45.621352	144.717370
05200	6.986721	1.270105	6.739997	-0.005404	0.007151	-0.005118	10.572543	-45.620289	144.719408
05201	6.981842	1.293855	6.705738	-0.007698	0.002157	-0.006310	10.570396	-45.621939	144.719688
05202	6.986066	1.270324	6.740634	-0.002876	0.002466	-0.011375	10.573882	-45.622857	144.715982
05203	7.002968	1.285056	6.731394	-0.005441	0.004430	-0.005696	10.572602	-45.623256	144.717005
05204	6.997312	1.276670	6.709483	-0.004014	0.004835	-0.004624	10.571296	-45.623550	144.719093
05205	7.002219	1.285132	6.732160	-0.006868	0.004025	-0.006768	10.569734	-45.624105	144.719226
05206	6.980075	1.294639	6.707426	-0.003820	0.005441	-0.007191	10.569951	-45.623787	144.719338
05207	6.996172	1.276856	6.710636	-0.008487	0.003015	-0.005273	10.566797	-45.625052	144.720471
05208	6.989106	1.279550	6.765095	0.000810	0.005147	-0.009689	10.571136	-45.624638	144.718527
05209	6.995348	1.277463	6.711380	-0.003377	0.006097	-0.002515	10.568940	-45.624470	144.722367
05210	6.978382	1.295386	6.709043	-0.005844	0.006500	-0.009793	10.569381	-45.623282	144.720542
05211	6.982364	1.271849	6.744182	-0.003819	0.005444	-0.007191	10.569652	-45.622946	144.720656
05212	7.015677	1.268681	6.737867	-0.004647	0.003577	-0.006733	10.569332	-45.623726	144.720857
05213	6.977151	1.296014	6.710202	-0.004647	0.003577	-0.006733	10.569149	-45.624438	144.721091
05214	6.981229	1.272344	6.745263	-0.004610	0.006301	-0.006153	10.568223	-45.623745	144.722167
05215	6.992798	1.278485	6.713843	-0.006073	0.003173	-0.007805	10.567799	-45.624630	144.721432
05216	6.992362	1.278794	6.714237	-0.000771	0.006863	-0.007613	10.569853	-45.623467	144.721417
05217	6.997295	1.287468	6.736832	-0.003450	0.000653	-0.003674	10.568824	-45.626160	144.723730
05218	7.013353	1.270046	6.740029	-0.002600	0.008530	-0.012781	10.572626	-45.623515	144.719805
05219	6.991174	1.279887	6.715266	-0.003256	0.001261	-0.006240	10.573116	-45.625662	144.720003
05220	6.973563	1.265720	6.725116	-0.002988	0.007315	-0.007647	10.573871	-45.624240	144.720030
05221	7.006736	1.262590	6.718963	-0.006034	0.005899	-0.007225	10.572910	-45.623624	144.720164
05222	6.977777	1.274463	6.748434	-0.004608	0.006304	-0.006152	10.571985	-45.622929	144.721241
05223	6.999730	1.297618	6.761726	-0.002195	0.006462	-0.008684	10.573964	-45.621841	144.720325
05224	6.983638	1.272606	6.695126	-0.008323	0.000904	-0.008420	10.572797	-45.623950	144.718765
05225	7.010346	1.271771	6.742831	-0.001792	0.004391	-0.004588	10.572835	-45.624528	144.720723
05226	7.005349	1.295713	6.708684	-0.007422	0.008220	-0.007716	10.570992	-45.622590	144.720829
05227	6.998070	1.298287	6.763316	-0.004447	0.004192	-0.009299	10.572273	-45.622700	144.719119
05228	6.991568	1.257910	6.753825	-0.003778	0.008175	-0.006608	10.571885	-45.620903	144.720111
05229	6.998538	1.288079	6.687866	-0.001596	0.005002	-0.007153	10.573551	-45.620830	144.720073
05230	7.007872	1.272871	6.745194	-0.006859	0.004034	-0.006768	10.571934	-45.621349	144.720314
05231	6.985781	1.282502	6.720378	-0.000803	0.004148	-0.008190	10.574690	-45.621658	144.719343
05232	6.984623	1.250643	6.733073	-0.003813	0.005453	-0.007188	10.574908	-45.621334	144.719459
05233	7.007326	1.305956	6.734037	-0.003180	0.006713	-0.005078	10.574292	-45.620480	144.721422
05234	7.000928	1.265472	6.724472	-0.001790	0.004394	-0.004587	10.574285	-45.621026	144.723474
05235	6.984124	1.283480	6.721913	-0.005272	0.002326	-0.008842	10.575098	-45.622333	144.721571
05236	7.017473	1.280439	6.715601	-0.002387	0.005859	-0.006115	10.575472	-45.621893	144.722611
05237	6.988516	1.292402	6.744994	-0.005236	0.005051	-0.008261	10.575646	-45.621665	144.721749
05238	6.999323	1.266380	6.725972	-0.006029	0.005906	-0.007223	10.574566	-45.621082	144.721904
05239	6.998871	1.266384	6.726442	-0.006225	0.005296	-0.004657	10.572080	-45.621143	144.723871
05240	6.981980	1.284357	6.723972	-0.002224	0.003748	-0.009262	10.574586	-45.621561	144.722061
05241	6.998094	1.267012	6.727132	-0.004441	0.004199	-0.009297	10.575801	-45.621713	144.720316
05242	6.986324	1.293510	6.747052	-0.005830	0.006519	-0.009789	10.576246	-45.620515	144.718498
05243	6.997249	1.267590	6.727902	-0.003248	0.001269	-0.006240	10.576746	-45.622662	144.718680
05244	6.980434	1.285588	6.725343	-0.003809	0.005459	-0.007187	10.576965	-45.622335	144.718798
05245	6.974074	1.245240	6.715729	-0.003016	0.004605	-0.008224	10.578323	-45.622424	144.717876
05246	6.996806	1.300743	6.716622	-0.004439	0.004202	-0.009297	10.579531	-45.622583	144.716105
05247	6.961917	1.272003	6.735989	-0.004602	0.006314	-0.006149	10.578583	-45.621828	144.717349
05248	7.000496	1.277231	6.752026	-0.005464	0.001720	-0.006276	10.577732	-45.623702	144.717638
05249	7.007009	1.275125	6.698181	-0.004438	0.004203	-0.009297	10.578935	-45.623905	144.715794
05250	6.989350	1.260859	6.708069	-0.006025	0.005911	-0.007222	10.577856	-45.623319	144.715951
05251	6.977673	1.287043	6.727929	-0.006256	0.002575	-0.005239	10.575911	-45.624819	144.717177
05252	6.993858	1.269444	6.731078	-0.003013	0.004609	-0.008223	10.577273	-45.624861	144.716333
05253	6.998623	1.278145	6.753795	-0.005230	0.005059	-0.008259	10.577337	-45.624653	144.715531
05254	6.992976	1.269979	6.731894	-0.003807	0.005463	-0.007185	10.577556	-45.624323	144.715650
05255	6.992618	1.270224	6.732219	-0.006686	0.001932	-0.009914	10.578186	-45.625689	144.712965
05256	6.992179	1.270439	6.732634	-0.005196	0.007785	-0.007676	10.577642	-45.624000	144.713038
05257	7.008946	1.285264	6.723579	-0.000199	0.002695	-0.006658	10.580009	-45.625285	144.713097
05258	6.986170	1.262635	6.711046	-0.006023	0.005915	-0.007221	10.578931	-45.624698	144.713256
05259	6.951965	1.266048	6.718120	-0.003805	0.005466	-0.007185	10.579226	-45.624390	144.713269
05260	7.007617	1.285890	6.724845	-0.006022	0.005916	-0.007221	10.578148	-45.623802	144.713427
05261	6.973474	1.289255	6.731857	-0.004632	0.003596	-0.006730	10.577897	-45.624594	144.713539
05262	6.989678	1.271656	6.735001	-0.006054	0.003192	-0.007804	10.577428	-45.625478	144.712819
05263	6.984090	1.263390	6.713068	-0.004598	0.006321	-0.006147	10.576608	-45.624754	144.713864
05264	7.011265	1.294889	6.748655	-0.005259	0.002340	-0.008841	10.577284	-45.626009	144.712181
05265	6.983262	1.263902	6.713833	-0.000132	0.008147	-0.005491	10.578372	-45.624329	144.714097
05266	6.987978	1.272542	6.736598	-0.007475	0.002791	-0.008877	10.577751	-45.625327	144.712451
05267	6.982425	1.264331	6.714623	-0.003803	0.005470	-0.007184	10.578006	-45.624999	144.712543
05268	6.987100	1.273065	6.737409	-0.003603	0.006086	-0.009748	10.579750	-45.624049	144.710692
05269	6.981442	1.265005	6.715518	-0.005224	0.005067	-0.008257	10.579750	-45.623845	144.709937
05270	6.980990	1.265241	6.715943	-0.003802	0.005471	-0.007183	10.579970	-45.623512	144.710060
05271	7.003037	1.288310	6.729151	-0.006877	0.001324	-0.007350	10.579090	-45.625523	144.709263
05272	6.968962	1.291683	6.736063	-0.000958	0.006279	-0.005035	10.579616	-45.624961	144.711236
05273	6.985018	1.274364	6.739322	-0.004228	0.004833	-0.011858	10.582369	-45.624469	144.707552
05274	6.980203	1.298379	6.705015	-0.007872	0.001561	-0.003748	10.578700	-45.626699	144.709853
05275	6.979194	1.266209	6.717628	-0.002179	0.006493	-0.008673	10.580608	-45.625594	144.709020
05276	7.022834	1.280164	6.756080	-0.003832	0.002749	-0.007766	10.581439	-45.626731	144.708263
05277	6.967086	1.292917	6.737767	-0.004627	0.003602	-0.006729	10.581286	-45.627484	144.708359
05278	6.983264	1.275443	6.740936	-0.004426	0.004219	-0.009293	10.582498	-45.627633	144.706593
05279	7.016625	1.272442	6.734710	-0.006843	0.004052	-0.006766	10.580971	-45.628116	144.706833
05280	6.977322	1.267368	6.719354	-0.003799	0.005476	-0.007182	10.581191	-45.627779	144.706957
05281	6.994036	1.282330	6.710353	-0.001382	0.005645	-0.009709	10.584330	-45.627043	144.705075
05282	7.032512	1.287914	6.726477	-0.004625	0.003604	-0.006729	10.584017	-45.627809	144.705283
05283	7.009850	1.265132	6.713859	-0.006046	0.003201	-0.007803	10.583623	-45.628695	144.704498
05284	7.014608	1.273710	6.736571	-0.003798	0.005478	-0.007181	10.583843	-45.628358	144.704623
05285	7.009093	1.265595	6.714562	-0.003829	0.002753	-0.007766	10.584756	-45.629477	144.703841
05286	6.980035	1.277377	6.743913	-0.005188	0.007800	-0.007671	10.584212	-45.627780	144.703921
05287	7.013275	1.274242	6.737858	-0.009057	0.004503	-0.006802	10.581400	-45.628074	144.704034
05288	7.017987	1.282679	6.760638	-0.003797	0.005480	-0.007181	10.581620	-45.627736	144.704160
05289	6.995897	1.292218	6.735825	-0.004623	0.003607	-0.006728	10.581507	-45.628411	144.704385
05290	6.973075	1.269620	6.723336	-0.002768	0.007974	-0.010196	10.583785	-45.626350	144.702457
05291	7.006387	1.266781	6.717163	-0.004028	0.002136	-0.005202	10.583168	-45.628066	144.703700
05292	6.994605	1.292967	6.737023	-0.006012	0.005930	-0.007217	10.582092	-45.627469	144.703864
05293	6.993532	1.260915	6.749686	-0.004420	0.004228	-0.009292	10.583330	-45.627587	144.702152
05294	7.010331	1.275676	6.740650	-0.005418	0.004460	-0.005691	10.581874	-45.627979	144.703324
05295	6.976112	1.279071	6.747651	-0.000753	0.006908	-0.007594	10.584050	-45.626783	144.703244
05296	7.004279	1.267807	6.719167	-0.006837	0.004058	-0.006765	10.582443	-45.627289	144.703490
05297	7.004647	1.300184	6.707174	-0.006070	0.000482	-0.008388	10.582558	-45.629594	144.702042
05298	7.008823	1.276438	6.742074	-0.003171	0.006738	-0.005068	10.581785	-45.628769	144.704059
05299	6.974564	1.279918	6.749090	-0.002795	0.005255	-0.010780	10.565786	-45.587263	144.757451
05300	7.002724	1.268826	6.720595	-0.003794	0.005485	-0.007179	10.565996	-45.586897	144.757606
05301	6.980562	1.278330	6.695864	-0.006009	0.005934	-0.007216	10.565033	-45.586252	144.757617
05302	6.989705	1.262964	6.753266	-0.003793	0.005486	-0.007179	10.565243	-45.585885	144.757771
05303	7.001958	1.301843	6.709660	-0.000780	0.004187	-0.008178	10.567980	-45.586155	144.756561
05304	7.005440	1.245786	6.756876	-0.008428	0.005762	-0.004691	10.564074	-45.585895	144.758759
05305	7.001121	1.301801	6.710542	-0.009050	0.004510	-0.006802	10.561255	-45.586182	144.758667
05306	6.983060	1.254969	6.732429	-0.003228	0.001290	-0.006238	10.561699	-45.588278	144.758948
05307	7.017077	1.284330	6.713984	-0.003170	0.006741	-0.005066	10.561046	-45.587384	144.760582
05308	7.004556	1.278194	6.746174	-0.005414	0.004465	-0.005690	10.559581	-45.587750	144.761782
05309	7.016215	1.284562	6.714841	-0.003791	0.005490	-0.007178	10.559925	-45.587355	144.761863
05310	6.964838	1.273376	6.731159	-0.002994	0.004640	-0.008215	10.561280	-45.587357	144.761057
05311	6.986118	1.264261	6.756734	-0.003995	0.004868	-0.004615	10.560081	-45.587606	144.763324
05312	6.998461	1.302942	6.713094	-0.005237	0.002363	-0.008839	10.560753	-45.588824	144.761674
05313	6.997406	1.270807	6.725759	-0.007396	0.008263	-0.007704	10.558933	-45.586829	144.761736
05314	6.984782	1.264785	6.758017	-0.001574	0.005044	-0.007139	10.560439	-45.586716	144.761856
05315	6.996491	1.271292	6.726618	-0.006033	0.003215	-0.007802	10.560059	-45.587591	144.760893
05316	6.996081	1.271422	6.727020	-0.004586	0.006343	-0.006140	10.559126	-45.586851	144.762013
05317	6.979053	1.289185	6.724625	-0.005412	0.004468	-0.005689	10.557697	-45.587226	144.763215
05318	7.011823	1.253945	6.730701	-0.005206	0.005092	-0.008252	10.557757	-45.586969	144.762447
05319	6.982690	1.265616	6.760023	-0.003788	0.005494	-0.007177	10.558034	-45.586606	144.762596
05320	7.011583	1.286736	6.719261	-0.005234	0.002367	-0.008839	10.558708	-45.587822	144.760947
05321	7.011120	1.286891	6.719715	-0.007393	0.008268	-0.007702	10.556916	-45.585854	144.761291
05322	6.960347	1.307768	6.723805	-0.003222	0.001296	-0.006238	10.557362	-45.587946	144.761574
05323	7.010394	1.287258	6.720402	-0.003787	0.005496	-0.007176	10.557568	-45.587576	144.761336
05324	6.975622	1.258322	6.739509	-0.004406	0.004245	-0.009288	10.558773	-45.587687	144.759607
05325	6.980834	1.299273	6.750081	-0.003786	0.005497	-0.007176	10.558990	-45.587367	144.759613
05326	7.020615	1.262143	6.702054	-0.002988	0.004648	-0.008213	10.560346	-45.587364	144.758810
05327	6.986980	1.297795	6.696774	-0.005203	0.005097	-0.008251	10.560306	-45.587095	144.758082
05328	6.991082	1.273970	6.731733	-0.006826	0.004070	-0.006764	10.558692	-45.587570	144.758359
05329	6.990612	1.274367	6.732147	-0.001158	0.006303	-0.012261	10.563389	-45.586241	144.754354
05330	6.990157	1.274836	6.732530	-0.004610	0.003623	-0.006726	10.563070	-45.586972	144.754594
05331	6.989814	1.275016	6.732852	-0.001776	0.004426	-0.004575	10.563047	-45.587499	144.756199
05332	7.006509	1.289906	6.723945	-0.004376	0.006976	-0.008700	10.563638	-45.586134	144.755354
05333	6.972347	1.293133	6.730820	-0.005434	0.001747	-0.006276	10.562841	-45.587983	144.755942
05334	7.000795	1.281868	6.702190	-0.004609	0.003624	-0.006725	10.562523	-45.588713	144.756182
05335	6.983216	1.267372	6.711939	-0.004582	0.006351	-0.006137	10.561817	-45.587989	144.757226
05336	7.004535	1.258154	6.737500	-0.005433	0.001748	-0.006276	10.560969	-45.589823	144.757546
05337	6.970366	1.261381	6.744374	-0.002958	0.007380	-0.007623	10.561863	-45.588333	144.757403
05338	6.992080	1.284713	6.757868	-0.004401	0.004253	-0.009287	10.563069	-45.588439	144.755676
05339	7.003812	1.291275	6.726491	-0.003191	0.004027	-0.005649	10.562895	-45.589036	144.756990
05340	6.981141	1.268530	6.713880	-0.004374	0.006980	-0.008698	10.563486	-45.587668	144.756147
05341	6.969050	1.294815	6.733910	-0.003782	0.005505	-0.007174	10.563806	-45.587337	144.756224
05342	7.006900	1.268145	6.762360	-0.004399	0.004255	-0.009287	10.565013	-45.587443	144.754497
05343	6.996979	1.284018	6.705762	-0.004606	0.003628	-0.006725	10.564731	-45.588188	144.754761
05344	6.996584	1.284223	6.706136	-0.003781	0.005506	-0.007173	10.564943	-45.587812	144.754923
05345	6.984036	1.278214	6.738240	-0.004398	0.004257	-0.009286	10.566238	-45.587939	144.753381
05346	6.978534	1.270116	6.716289	-0.003164	0.006757	-0.005060	10.565454	-45.587080	144.755432
05347	7.011824	1.267315	6.710275	-0.003780	0.005507	-0.007173	10.565717	-45.586667	144.755606
05348	6.982648	1.278953	6.739538	-0.004396	0.004258	-0.009286	10.566925	-45.586771	144.753881
05349	6.982236	1.279082	6.739941	-0.006203	0.005327	-0.004650	10.564454	-45.586776	144.755769
05350	6.998386	1.261606	6.743242	-0.003571	0.006138	-0.009734	10.566190	-45.585775	144.753965
05351	6.998421	1.294242	6.731530	-0.006610	0.004708	-0.009325	10.566117	-45.585620	144.752368
05352	6.992973	1.286275	6.709507	0.000651	0.004615	-0.007094	10.568918	-45.585753	144.752460
05353	6.992127	1.254216	6.721954	-0.004812	0.003002	-0.004163	10.567124	-45.587127	144.754441
05354	6.992271	1.286564	6.710183	-0.005993	0.005958	-0.007211	10.566041	-45.586491	144.754641
05355	6.974601	1.272175	6.719984	-0.002154	0.006542	-0.008657	10.567999	-45.585341	144.753622
05356	7.017922	1.286235	6.758751	-0.003778	0.005512	-0.007172	10.568212	-45.584961	144.753786
05357	6.973714	1.272803	6.720785	-0.002387	0.003186	-0.006685	10.569153	-45.586022	144.753909
05358	6.978440	1.281437	6.743423	-0.003802	0.002785	-0.007761	10.569983	-45.587116	144.753190
05359	7.006821	1.270423	6.714913	-0.000947	0.006314	-0.005019	10.570461	-45.586497	144.755325
05360	6.994228	1.264331	6.747044	-0.006606	0.004712	-0.009324	10.570376	-45.586341	144.753637
05361	7.006468	1.303194	6.703576	-0.001771	0.004436	-0.004571	10.570353	-45.586854	144.755575
05362	6.971752	1.273984	6.722597	-0.005991	0.005961	-0.007211	10.569271	-45.586217	144.755776
05363	6.988426	1.288830	6.713753	-0.005190	0.005114	-0.008248	10.569352	-45.585954	144.754951
05364	6.992472	1.265095	6.748721	-0.002361	0.005916	-0.006094	10.569713	-45.585459	144.756043
05365	7.021290	1.286380	6.708164	-0.005189	0.005115	-0.008247	10.569830	-45.585190	144.755101
05366	6.986548	1.257244	6.727188	-0.003775	0.005516	-0.007171	10.570043	-45.584808	144.755267
05367	6.991672	1.298164	6.737785	-0.003798	0.002789	-0.007761	10.570926	-45.585921	144.754458
05368	7.008002	1.280908	6.740886	-0.005002	0.003021	-0.011398	10.573133	-45.586500	144.750847
05369	6.980997	1.282202	6.693556	-0.001770	0.004438	-0.004570	10.573238	-45.587006	144.752945
05370	6.951780	1.293617	6.722817	-0.005988	0.005964	-0.007210	10.572157	-45.586367	144.753147
05371	7.001841	1.273245	6.719571	-0.005211	0.002390	-0.008837	10.572934	-45.587551	144.751216
05372	6.984819	1.291127	6.717065	-0.003773	0.005519	-0.007170	10.573147	-45.587167	144.751383
05373	7.017695	1.256182	6.723140	-0.004386	0.004272	-0.009284	10.574478	-45.587280	144.749409
05374	6.971810	1.285346	6.749535	-0.005186	0.005119	-0.008246	10.574543	-45.587008	144.748650
05375	7.021827	1.265107	6.746325	-0.002972	0.004673	-0.008207	10.575962	-45.587023	144.747933
05376	6.977615	1.251676	6.708366	-0.003772	0.005521	-0.007169	10.576175	-45.586638	144.748101
05377	6.987193	1.268536	6.753541	-0.004596	0.003640	-0.006723	10.576003	-45.587362	144.748314
05378	6.998917	1.275067	6.722272	-0.003159	0.006769	-0.005055	10.575218	-45.586496	144.750371
05379	6.998542	1.275335	6.722611	-0.004406	0.001547	-0.009874	10.577095	-45.588086	144.747689
05380	7.003199	1.284046	6.745279	-0.002970	0.004675	-0.008206	10.578454	-45.588068	144.746896
05381	7.019895	1.299061	6.736398	-0.005184	0.005122	-0.008246	10.578588	-45.587757	144.746095
05382	6.997393	1.276216	6.723640	-0.004594	0.003642	-0.006723	10.578275	-45.588477	144.746340
05383	6.997106	1.276271	6.723927	-0.006219	0.002608	-0.005240	10.576238	-45.590011	144.747514
05384	6.996716	1.276466	6.724296	-0.003558	0.006159	-0.009728	10.577977	-45.588998	144.745718
05385	6.991170	1.268308	6.702455	-0.004761	0.008464	-0.002980	10.574904	-45.587421	144.749795
05386	6.983981	1.302810	6.744862	-0.002778	0.002586	-0.011356	10.578409	-45.588249	144.746152
05387	7.012521	1.291890	6.716272	-0.004805	0.003009	-0.004163	10.576615	-45.589617	144.748272
05388	6.978367	1.294871	6.723047	-0.005182	0.005126	-0.008245	10.576682	-45.589342	144.747515
05389	6.999617	1.285780	6.748666	-0.004592	0.003645	-0.006722	10.576377	-45.590104	144.747796
05390	6.972639	1.287002	6.701342	-0.004379	0.004281	-0.009282	10.577590	-45.590196	144.746077
05391	7.010899	1.292802	6.717791	-0.001533	0.007809	-0.006535	10.578483	-45.588629	144.746975
05392	6.993420	1.278170	6.727401	-0.008452	0.000329	-0.005872	10.575826	-45.591305	144.747407
05393	6.993168	1.278268	6.727644	-0.004378	0.004282	-0.009281	10.577114	-45.591433	144.745486
05394	7.004869	1.284934	6.696410	-0.003157	0.006775	-0.005052	10.576327	-45.590564	144.747546
05395	6.958333	1.281532	6.735054	-0.006570	0.007458	-0.008729	10.575568	-45.588959	144.746784
05396	7.008326	1.261175	6.731973	-0.005392	0.004494	-0.005685	10.574109	-45.589309	144.747993
05397	6.969653	1.288152	6.704227	-0.004590	0.003648	-0.006722	10.573808	-45.590088	144.748063
05398	7.012551	1.269856	6.755075	-0.002964	0.004685	-0.008203	10.575168	-45.590065	144.747273
05399	6.995467	1.287655	6.752610	-0.005391	0.004495	-0.005685	10.573799	-45.590495	144.748263
05400	7.006771	1.261909	6.733455	-0.000943	0.006331	-0.005011	10.574306	-45.589881	144.750290
05401	7.006241	1.262201	6.733951	-0.005765	0.006616	-0.009766	10.574686	-45.588618	144.748774
05402	6.989065	1.280117	6.731555	-0.004374	0.004287	-0.009281	10.575900	-45.588706	144.747058
05403	6.995905	1.278439	6.677847	-0.005390	0.004496	-0.005684	10.574550	-45.589049	144.748275
05404	6.992769	1.256423	6.766835	-0.003764	0.005534	-0.007166	10.574764	-45.588658	144.748448
05405	7.021599	1.277865	6.726370	-0.003764	0.005534	-0.007166	10.574930	-45.588289	144.748674
05406	6.987325	1.280947	6.733204	-0.003764	0.005535	-0.007165	10.575144	-45.587897	144.748847
05407	7.003599	1.263502	6.736454	-0.005389	0.004497	-0.005684	10.573618	-45.588258	144.750221
05408	6.986566	1.281259	6.733932	-0.002373	0.003206	-0.006680	10.574600	-45.589228	144.750435
05409	6.986262	1.281473	6.734206	-0.007408	0.002854	-0.008877	10.574059	-45.590181	144.748855
05410	6.997696	1.255744	6.714940	-0.001764	0.004452	-0.004565	10.574040	-45.590672	144.750958
05411	6.985519	1.281857	6.734904	-0.003763	0.005537	-0.007165	10.574391	-45.590319	144.750899
05412	6.980191	1.273755	6.712856	-0.004585	0.003654	-0.006721	10.574080	-45.591033	144.751147
05413	6.996561	1.256336	6.716011	-0.004585	0.003654	-0.006721	10.573782	-45.591761	144.751449
05414	7.006024	1.273141	6.761227	-0.005172	0.005139	-0.008242	10.573851	-45.591479	144.750696
05415	6.984013	1.282692	6.736307	-0.000960	0.003608	-0.005602	10.575040	-45.592393	144.751823
05416	6.995818	1.289203	6.705045	-0.008403	0.005791	-0.004687	10.571143	-45.592117	144.754030
05417	6.983163	1.282890	6.737151	-0.004153	0.004935	-0.011838	10.573891	-45.591617	144.750254
05418	7.016703	1.280357	6.731004	-0.006228	-0.000112	-0.005834	10.572533	-45.594545	144.750651
05419	6.999269	1.265735	6.740535	-0.004348	0.007025	-0.008685	10.573170	-45.593155	144.749884
05420	7.020769	1.289094	6.754234	-0.003760	0.005541	-0.007163	10.573384	-45.592759	144.750060
05421	6.976722	1.275492	6.716132	-0.004582	0.003657	-0.006720	10.573114	-45.593427	144.750477
05422	6.981238	1.283996	6.738935	-0.003760	0.005542	-0.007163	10.573328	-45.593031	144.750653
05423	7.014503	1.281435	6.733091	-0.003740	0.008271	-0.006569	10.573178	-45.591121	144.751562
05424	6.992472	1.290829	6.708222	-0.008223	0.000976	-0.008434	10.572055	-45.593163	144.750029
05425	7.013885	1.281786	6.733668	-0.002974	0.001970	-0.008794	10.573974	-45.594640	144.748488
05426	6.958153	1.294122	6.715014	-0.004581	0.003659	-0.006720	10.573665	-45.595351	144.748738
05427	7.013169	1.282228	6.734329	-0.003153	0.006787	-0.005047	10.572957	-45.594467	144.750733
05428	6.995573	1.267633	6.744014	-0.003758	0.005545	-0.007162	10.573172	-45.594069	144.750910
05429	6.978440	1.285327	6.741578	-0.006793	0.004106	-0.006761	10.571527	-45.594539	144.751228
05430	6.989905	1.259568	6.722334	-0.003170	0.004060	-0.005641	10.571363	-45.595138	144.752406
05431	6.989926	1.292032	6.710643	-0.005383	0.004505	-0.005682	10.569994	-45.595503	144.753529
05432	6.994024	1.268110	6.745530	-0.003757	0.005547	-0.007162	10.570208	-45.595105	144.753707
05433	6.989069	1.292476	6.711451	-0.004362	0.004304	-0.009277	10.571490	-45.595157	144.752114
05434	7.005436	1.275159	6.714617	-0.007396	0.002865	-0.008876	10.570893	-45.596088	144.750509
05435	6.993211	1.301202	6.734584	-0.002347	0.005947	-0.006083	10.571381	-45.595558	144.751582
05436	6.992402	1.269145	6.747018	-0.005769	0.003908	-0.010355	10.572455	-45.595746	144.748943
05437	7.009135	1.284198	6.738153	-0.004578	0.003664	-0.006719	10.572273	-45.596495	144.749056
05438	6.991639	1.269597	6.747723	-0.003756	0.005550	-0.007161	10.572487	-45.596095	144.749235
05439	7.003516	1.276279	6.716407	-0.005399	0.001779	-0.006277	10.571715	-45.597985	144.749458
05440	6.990892	1.269888	6.748442	-0.005146	0.007881	-0.007644	10.571160	-45.596221	144.749599
05441	7.007506	1.284874	6.739719	-0.004576	0.003665	-0.006719	10.570912	-45.596941	144.749725
05442	6.968344	1.279553	6.724053	-0.005749	0.006641	-0.009759	10.571362	-45.595653	144.747976
05443	6.984555	1.262286	6.727383	-0.002346	0.005950	-0.006081	10.571823	-45.595171	144.748948
05444	7.001183	1.277350	6.718635	-0.005162	0.005154	-0.008239	10.571894	-45.594881	144.748201
05445	7.005660	1.285840	6.741453	-0.003167	0.004065	-0.005640	10.571761	-45.595509	144.749169
05446	6.983295	1.262942	6.728568	-0.005161	0.005155	-0.008239	10.571832	-45.595217	144.748421
05447	7.004733	1.286327	6.742323	-0.002931	0.007440	-0.007601	10.572436	-45.593756	144.748602
05448	7.016154	1.260825	6.723127	-0.002362	0.003223	-0.006677	10.573420	-45.594717	144.748821
05449	6.993842	1.238052	6.710166	-0.004355	0.004313	-0.009276	10.574955	-45.594769	144.746871
05450	7.003515	1.287337	6.743395	-0.004355	0.004314	-0.009275	10.576175	-45.594843	144.745162
05451	6.997943	1.246939	6.733297	-0.005981	0.003271	-0.007797	10.575768	-45.595699	144.744246
05452	6.997908	1.279575	6.721623	-0.001539	0.005111	-0.007117	10.577274	-45.595550	144.744395
05453	6.997458	1.279897	6.722030	-0.003751	0.005557	-0.007159	10.577519	-45.595147	144.744667
05454	6.984745	1.273528	6.754119	-0.004556	0.006400	-0.006122	10.576585	-45.594378	144.745811
05455	6.984380	1.273775	6.754450	-0.005776	0.001189	-0.010950	10.578350	-45.596016	144.742348
05456	7.008145	1.254854	6.703533	-0.000936	0.006354	-0.005000	10.578851	-45.595390	144.744388
05457	6.990865	1.272678	6.701189	-0.005743	0.006650	-0.009758	10.579324	-45.594104	144.742680
05458	7.011926	1.263645	6.727007	-0.003148	0.006800	-0.005042	10.578534	-45.593223	144.744753
05459	6.994738	1.281336	6.724586	-0.003164	0.004070	-0.005639	10.578568	-45.593818	144.745750
05460	6.999255	1.289775	6.747352	-0.005977	0.003275	-0.007797	10.578120	-45.594632	144.745075
05461	6.972068	1.258502	6.712010	-0.005961	0.006005	-0.007200	10.577130	-45.593986	144.745234
05462	6.993626	1.281881	6.725639	-0.002959	0.001988	-0.008792	10.579121	-45.595421	144.743565
05463	6.988374	1.274055	6.703525	-0.000715	0.007004	-0.007556	10.581128	-45.594199	144.743718
05464	7.014342	1.273347	6.751719	-0.003969	0.004914	-0.004601	10.579816	-45.594426	144.745862
05465	7.004697	1.289313	6.695080	-0.003178	0.001342	-0.006235	10.580256	-45.596537	144.746136
05466	6.987205	1.274595	6.704640	-0.007351	0.008339	-0.007682	10.578410	-45.594511	144.746315
05467	6.996386	1.291242	6.750046	-0.004568	0.003675	-0.006717	10.578269	-45.595209	144.746471
05468	6.986231	1.274874	6.705602	-0.005138	0.007896	-0.007640	10.577714	-45.593438	144.746618
05469	6.995448	1.291645	6.750941	-0.005168	0.002436	-0.008834	10.578459	-45.594614	144.745104
05470	6.990220	1.283570	6.728856	-0.004553	0.006407	-0.006120	10.577526	-45.593841	144.746251
05471	6.994475	1.292004	6.751881	-0.003731	0.008295	-0.006559	10.577213	-45.591961	144.747263
05472	6.988968	1.251382	6.741789	-0.008420	0.000345	-0.005881	10.574577	-45.594627	144.747691
05473	6.993765	1.292097	6.752598	-0.005736	0.006660	-0.009755	10.575116	-45.593372	144.745811
05474	6.983620	1.275890	6.708128	-0.004345	0.004327	-0.009273	10.576339	-45.593438	144.744107
05475	7.004735	1.267053	6.733854	-0.002118	0.006614	-0.008632	10.578252	-45.592300	144.743328
05476	6.982405	1.244220	6.720928	-0.005971	0.003282	-0.007796	10.577806	-45.593110	144.742654
05477	6.987115	1.284989	6.731810	-0.005956	0.006013	-0.007199	10.576851	-45.592431	144.742878
05478	7.003475	1.267613	6.735059	-0.004565	0.003680	-0.006717	10.576547	-45.593131	144.743134
05479	6.991144	1.293642	6.755016	-0.004343	0.004330	-0.009272	10.577792	-45.593244	144.741452
05480	7.002956	1.300558	6.723821	-0.003744	0.005570	-0.007155	10.578008	-45.592833	144.741639
05481	6.968381	1.271103	6.742479	-0.004342	0.004331	-0.009272	10.579370	-45.592919	144.739800
05482	6.985089	1.286222	6.733677	-0.007374	0.002887	-0.008876	10.578783	-45.593838	144.738198
05483	6.984478	1.253989	6.745956	-0.003158	0.004079	-0.005636	10.578706	-45.594450	144.739283
05484	7.001226	1.269108	6.737115	-0.003756	0.002841	-0.007753	10.579552	-45.595513	144.738578
05485	6.979021	1.246126	6.724089	-0.005370	0.004524	-0.005679	10.578205	-45.595876	144.739692
05486	7.000743	1.301809	6.725883	-0.002337	0.005969	-0.006074	10.578562	-45.595354	144.740809
05487	6.971025	1.280485	6.766966	-0.007371	0.002890	-0.008876	10.577951	-45.596293	144.739264
05488	6.999603	1.269775	6.738676	-0.005133	0.007907	-0.007636	10.577396	-45.594515	144.739415
05489	7.011477	1.276599	6.707457	-0.005979	0.000557	-0.008395	10.577713	-45.596790	144.737841
05490	6.998882	1.270125	6.739359	-0.003144	0.006812	-0.005037	10.576920	-45.595902	144.739920
05491	7.010700	1.277078	6.708177	-0.003531	0.003496	-0.010308	10.579366	-45.596317	144.737266
05492	6.976432	1.280040	6.714814	-0.003741	0.005575	-0.007154	10.579582	-45.595903	144.737455
05493	6.997576	1.271115	6.740529	-0.002933	0.004735	-0.008190	10.581086	-45.595857	144.736622
05494	6.992607	1.295555	6.706503	-0.005144	0.005180	-0.008234	10.581161	-45.595552	144.735882
05495	6.996655	1.271592	6.741394	-0.004547	0.006418	-0.006116	10.580297	-45.594794	144.737023
05496	6.974713	1.280927	6.716431	-0.005379	0.001797	-0.006277	10.579476	-45.596601	144.737349
05497	6.995994	1.271908	6.742021	-0.004335	0.004340	-0.009270	10.580833	-45.596679	144.735532
05498	6.995445	1.272126	6.742550	-0.004534	0.009150	-0.005516	10.579269	-45.594425	144.737576
05499	6.995007	1.272195	6.742991	-0.006782	0.001401	-0.007358	10.559449	-45.583548	144.772827
05500	6.972849	1.249178	6.729923	-0.005142	0.005183	-0.008233	10.559514	-45.583234	144.772106
05501	7.006477	1.279179	6.712189	-0.004546	0.006420	-0.006115	10.558616	-45.582475	144.773046
05502	7.027572	1.270132	6.737980	-0.003738	0.005580	-0.007152	10.558821	-45.582050	144.773254
05503	7.005553	1.279437	6.713104	-0.007576	0.004974	-0.005721	10.556155	-45.582131	144.774538
05504	6.997847	1.313496	6.755670	-0.000931	0.006374	-0.004991	10.556641	-45.581487	144.776605
05505	6.987720	1.264863	6.722947	-0.003165	0.001356	-0.006234	10.557238	-45.583543	144.776869
05506	7.004438	1.279946	6.714170	-0.005948	0.006026	-0.007195	10.556154	-45.582863	144.777110
05507	6.991918	1.305844	6.734276	-0.003736	0.005583	-0.007152	10.556456	-45.582485	144.777251
05508	6.986506	1.265407	6.724105	-0.004556	0.003692	-0.006714	10.556144	-45.583170	144.777528
05509	6.969361	1.283044	6.721579	-0.004555	0.003692	-0.006714	10.555894	-45.583875	144.777665
05510	7.007610	1.289008	6.738157	-0.002927	0.004744	-0.008188	10.557248	-45.583813	144.776914
05511	6.985278	1.266203	6.725232	-0.001513	0.007872	-0.006507	10.558214	-45.582173	144.777701
05512	7.006694	1.289570	6.739002	-0.008179	0.001010	-0.008439	10.557104	-45.584188	144.776187
05513	6.984549	1.266470	6.725939	-0.005946	0.006029	-0.007194	10.556214	-45.583492	144.776271
05514	7.001172	1.281779	6.717226	0.000093	0.003463	-0.009181	10.560007	-45.584048	144.774529
05515	6.988498	1.275362	6.749138	-0.006171	0.005374	-0.004640	10.557556	-45.584023	144.776555
05516	6.988075	1.275504	6.749550	-0.002925	0.004747	-0.008187	10.558911	-45.583960	144.775805
05517	6.982947	1.267525	6.727402	-0.005955	0.003299	-0.007795	10.558648	-45.584780	144.774905
05518	6.999597	1.282660	6.718699	-0.003733	0.005588	-0.007150	10.558853	-45.584352	144.775116
05519	6.998925	1.250578	6.731025	-0.001522	0.005145	-0.007106	10.560419	-45.584177	144.775254
05520	6.998744	1.283190	6.719486	-0.006763	0.004140	-0.006758	10.558818	-45.584606	144.775564
05521	6.964446	1.285767	6.726152	-0.005943	0.006033	-0.007194	10.557914	-45.583926	144.775683
05522	6.997777	1.283452	6.720444	-0.005717	0.006690	-0.009748	10.558359	-45.582604	144.773969
05523	6.975576	1.260404	6.707430	-0.004778	0.003041	-0.004159	10.556562	-45.583951	144.776110
05524	6.996720	1.251331	6.733177	-0.002912	0.007483	-0.007585	10.557286	-45.582410	144.776255
05525	7.001144	1.292253	6.744254	-0.005133	0.005195	-0.008230	10.557472	-45.582107	144.775429
05526	7.008035	1.258574	6.702551	-0.003731	0.005592	-0.007149	10.557678	-45.581677	144.775642
05527	6.983128	1.277893	6.754216	-0.002102	0.006646	-0.008622	10.559696	-45.580509	144.774851
05528	6.995089	1.284790	6.722986	-0.005596	0.001149	-0.003724	10.557341	-45.582941	144.777154
05529	6.994726	1.284899	6.723343	-0.002911	0.007486	-0.007584	10.558094	-45.581452	144.777322
05530	6.967890	1.253645	6.687731	-0.006187	-0.000085	-0.005842	10.556750	-45.584357	144.777735
05531	7.015672	1.276123	6.749240	-0.002693	0.005413	-0.010739	10.559777	-45.583649	144.774890
05532	6.959776	1.288294	6.730502	-0.004321	0.004360	-0.009267	10.560995	-45.583690	144.773213
05533	6.993214	1.286102	6.724685	-0.005130	0.005199	-0.008229	10.561251	-45.583395	144.772324
05534	6.980429	1.279530	6.756696	-0.005939	0.006039	-0.007192	10.560169	-45.582709	144.772569
05535	6.975249	1.271531	6.734629	-0.004320	0.004362	-0.009266	10.561505	-45.582756	144.770726
05536	6.987158	1.278480	6.703461	-0.003956	0.004937	-0.004594	10.560184	-45.582963	144.772896
05537	6.991473	1.286688	6.726383	-0.006166	0.005381	-0.004638	10.557692	-45.582956	144.775069
05538	6.991069	1.286803	6.726782	-0.007120	0.003573	-0.011429	10.558634	-45.583214	144.771534
05539	6.995418	1.295277	6.749614	-0.003146	0.004100	-0.005631	10.558464	-45.583835	144.772705
05540	7.002431	1.261598	6.707838	-0.005128	0.005203	-0.008229	10.558533	-45.583510	144.771990
05541	6.972875	1.272479	6.736908	-0.004546	0.003705	-0.006712	10.558290	-45.584219	144.772120
05542	6.989464	1.287527	6.728310	-0.006747	0.006881	-0.006154	10.556058	-45.583167	144.773326
05543	6.984336	1.279440	6.706218	-0.003735	0.002868	-0.007749	10.557206	-45.584205	144.772395
05544	6.983957	1.279710	6.706561	-0.003726	0.005600	-0.007146	10.557412	-45.583770	144.772610
05545	6.988143	1.288202	6.729553	-0.005707	0.006705	-0.009744	10.558095	-45.582412	144.770589
05546	6.987674	1.288451	6.729993	-0.001744	0.004497	-0.004548	10.558062	-45.582871	144.772730
05547	6.982607	1.280343	6.707846	-0.006754	0.004151	-0.006757	10.556497	-45.583308	144.773151
05548	7.020839	1.286209	6.724510	-0.004543	0.003708	-0.006712	10.556188	-45.583985	144.773432
05549	6.998713	1.263210	6.711413	-0.003725	0.005603	-0.007146	10.556371	-45.583573	144.773680
05550	6.986087	1.289105	6.731515	-0.003724	0.005603	-0.007146	10.556578	-45.583137	144.773897
05551	7.002638	1.271894	6.734636	-0.005950	0.000582	-0.008397	10.556828	-45.585409	144.772380
05552	6.985427	1.289412	6.732141	-0.005345	0.007280	-0.005071	10.554734	-45.584246	144.774518
05553	6.985062	1.322108	6.720767	-0.004083	0.005034	-0.011817	10.557589	-45.583667	144.770891
05554	7.006006	1.280927	6.758364	-0.004312	0.004373	-0.009264	10.558809	-45.583701	144.769218
05555	6.979298	1.282165	6.710941	-0.004534	0.006443	-0.006108	10.558005	-45.582897	144.770457
05556	6.983563	1.290519	6.733862	-0.004541	0.003711	-0.006711	10.557697	-45.583572	144.770740
05557	6.982994	1.258226	6.746129	-0.005932	0.006050	-0.007190	10.556845	-45.582850	144.770882
05558	6.994888	1.265092	6.715046	-0.005351	0.004550	-0.005674	10.555387	-45.583162	144.772125
05559	6.999376	1.305810	6.726043	-0.007338	0.002923	-0.008875	10.554871	-45.584102	144.770431
05560	6.977085	1.250245	6.724846	-0.002546	0.008072	-0.002905	10.553052	-45.582720	144.774431
05561	6.993568	1.265547	6.716335	-0.004078	0.005041	-0.011816	10.555875	-45.582105	144.770820
05562	6.976241	1.283194	6.713922	-0.006161	0.005388	-0.004637	10.553267	-45.582053	144.773024
05563	6.997412	1.274021	6.739664	-0.004539	0.003714	-0.006711	10.553080	-45.582741	144.773091
05564	7.009348	1.281039	6.708524	-0.003720	0.005610	-0.007143	10.553287	-45.582300	144.773311
05565	6.996497	1.274349	6.740552	-0.005343	0.007285	-0.005069	10.551252	-45.581163	144.775474
05566	7.013085	1.289512	6.731963	-0.003726	0.002878	-0.007748	10.552096	-45.582199	144.774798
05567	6.990949	1.266611	6.718860	-0.001503	0.007902	-0.006493	10.552972	-45.580587	144.775837
05568	6.990636	1.266839	6.719142	-0.006760	-0.001307	-0.007965	10.552651	-45.583957	144.774358
05569	7.007340	1.282082	6.710423	-0.002901	0.007509	-0.007575	10.553415	-45.582413	144.774696
05570	6.977646	1.292915	6.739534	-0.004537	0.003717	-0.006710	10.553109	-45.583085	144.774980
05571	6.989461	1.267514	6.720238	-0.003719	0.005614	-0.007143	10.553351	-45.582658	144.775211
05572	6.993615	1.276060	6.743218	-0.003487	0.006279	-0.009695	10.555087	-45.581573	144.773477
05573	6.983855	1.259964	6.698581	-0.004536	0.003718	-0.006710	10.554911	-45.582247	144.773696
05574	6.992770	1.276569	6.743998	-0.003718	0.005615	-0.007142	10.555119	-45.581805	144.773918
05575	6.987630	1.268547	6.721947	-0.005927	0.006058	-0.007188	10.554139	-45.581135	144.774020
05576	6.991933	1.276835	6.744815	-0.005352	0.001823	-0.006278	10.553320	-45.582919	144.774368
05577	6.969872	1.253807	6.731658	-0.002899	0.007513	-0.007574	10.554162	-45.581416	144.774483
05578	6.974171	1.294688	6.742790	-0.004534	0.003720	-0.006710	10.553857	-45.582086	144.774768
05579	6.998324	1.276242	6.692007	-0.003484	0.006284	-0.009693	10.555739	-45.581038	144.772805
05580	6.990109	1.277938	6.746497	-0.003716	0.005618	-0.007141	10.555947	-45.580594	144.773027
05581	6.989660	1.278250	6.746903	-0.002904	0.004782	-0.008178	10.557403	-45.580494	144.772245
05582	6.984574	1.270359	6.724779	-0.005112	0.005225	-0.008224	10.557476	-45.580158	144.771537
05583	6.993419	1.286816	6.770272	-0.006157	0.005394	-0.004636	10.555085	-45.580091	144.773554
05584	6.988330	1.278701	6.748195	-0.003715	0.005620	-0.007141	10.555293	-45.579645	144.773776
05585	7.000293	1.285989	6.717027	-0.002674	0.002718	-0.011335	10.558884	-45.580437	144.770009
05586	6.982867	1.271315	6.726372	-0.003130	0.006851	-0.005021	10.558076	-45.579521	144.772123
05587	6.986912	1.247250	6.761190	-0.005111	0.005227	-0.008224	10.558251	-45.579209	144.771353
05588	6.982077	1.304139	6.715405	-0.004531	0.003724	-0.006709	10.557947	-45.579877	144.771638
05589	7.015478	1.269574	6.721476	-0.003713	0.005622	-0.007140	10.558232	-45.579435	144.771916
05590	6.981109	1.272152	6.728038	-0.003713	0.005623	-0.007140	10.558441	-45.578988	144.772139
05591	6.980753	1.304907	6.716632	-0.002900	0.004787	-0.008177	10.559980	-45.578953	144.771152
05592	6.992635	1.279534	6.697324	-0.006739	0.004168	-0.006755	10.558390	-45.579367	144.771468
05593	6.962868	1.257803	6.738158	-0.001503	0.005182	-0.007094	10.560088	-45.579201	144.771561
05594	6.979526	1.273030	6.729514	-0.007555	0.002270	-0.006324	10.557986	-45.580728	144.771938
05595	7.000745	1.296480	6.743460	-0.002082	0.006687	-0.008607	10.559922	-45.579502	144.771233
05596	7.008075	1.295544	6.689806	-0.005111	0.002498	-0.008829	10.560635	-45.580638	144.769629
05597	6.999871	1.264653	6.755968	-0.005107	0.005232	-0.008223	10.560801	-45.580339	144.768834
05598	6.977923	1.273978	6.730997	-0.005341	0.004563	-0.005672	10.559346	-45.580643	144.770081
05599	6.972929	1.265830	6.708850	-0.005341	0.004564	-0.005671	10.557962	-45.580960	144.771298
05600	6.981719	1.282357	6.754341	-0.000919	0.006414	-0.004972	10.558441	-45.580296	144.773385
05601	6.989076	1.248873	6.712416	-0.003135	0.001388	-0.006232	10.558900	-45.582319	144.773802
05602	6.959562	1.292091	6.729508	-0.004292	0.004399	-0.009259	10.560126	-45.582339	144.772137
05603	6.988367	1.249533	6.713031	-0.002897	0.004793	-0.008176	10.561664	-45.582316	144.771025
05604	7.009537	1.273172	6.726991	-0.002896	0.004794	-0.008175	10.563025	-45.582228	144.770291
05605	6.992103	1.258405	6.736344	-0.003709	0.005629	-0.007138	10.563401	-45.581774	144.770445
05606	6.987095	1.282924	6.702455	-0.003709	0.005630	-0.007138	10.563610	-45.581323	144.770671
05607	6.974281	1.276172	6.734355	-0.003944	0.004959	-0.004588	10.562479	-45.581597	144.772555
05608	7.007676	1.274014	6.728771	-0.005100	0.007972	-0.007615	10.561913	-45.579778	144.772750
05609	6.985489	1.250992	6.715755	-0.005681	0.006744	-0.009735	10.562496	-45.578419	144.770981
05610	6.989629	1.259402	6.738725	-0.004524	0.003732	-0.006708	10.562194	-45.579082	144.771269
05611	7.006237	1.274755	6.730128	-0.004288	0.004404	-0.009258	10.563515	-45.579156	144.769448
05612	6.971973	1.277347	6.736522	-0.003710	0.002898	-0.007745	10.564365	-45.580180	144.768776
05613	6.984053	1.284484	6.705326	-0.005918	0.003340	-0.007792	10.564036	-45.580972	144.768050
05614	6.988175	1.260339	6.740057	-0.004521	0.006468	-0.006100	10.563094	-45.580159	144.769238
05615	7.004655	1.275542	6.731626	-0.007309	0.005683	-0.008268	10.562104	-45.579596	144.768443
05616	6.999757	1.299927	6.697660	-0.002550	0.002621	-0.004110	10.561559	-45.581158	144.770654
05617	7.003893	1.275851	6.732360	-0.005678	0.006749	-0.009734	10.562168	-45.579814	144.768856
05618	6.981878	1.285362	6.707422	-0.004286	0.004409	-0.009257	10.563396	-45.579829	144.767193
05619	7.003014	1.276453	6.733161	-0.003128	0.004129	-0.005623	10.563310	-45.580385	144.768398
05620	7.002582	1.276606	6.733581	-0.004520	0.006471	-0.006099	10.562368	-45.579570	144.769587
05621	6.985151	1.294142	6.731209	-0.003705	0.005637	-0.007136	10.562631	-45.579149	144.769792
05622	7.001625	1.277033	6.734495	-0.005098	0.005245	-0.008220	10.562707	-45.578802	144.769089
05623	6.979601	1.286559	6.709562	-0.002073	0.006705	-0.008602	10.564654	-45.577616	144.768262
05624	6.996161	1.269483	6.712757	-0.005336	0.001837	-0.006278	10.563844	-45.579392	144.768611
05625	7.004938	1.285930	6.758212	-0.003125	0.006866	-0.005015	10.563193	-45.578479	144.770681
05626	6.982920	1.262671	6.745066	-0.006149	0.005407	-0.004633	10.560589	-45.578417	144.772890
05627	6.982550	1.295330	6.733679	-0.003467	0.003579	-0.010293	10.563134	-45.578807	144.770095
05628	7.020590	1.269169	6.762292	-0.005096	0.005248	-0.008220	10.563211	-45.578458	144.769394
05629	6.977125	1.255194	6.723660	-0.005333	0.004574	-0.005670	10.561899	-45.578747	144.770636
05630	7.010687	1.285477	6.706231	-0.005333	0.004574	-0.005670	10.560447	-45.579045	144.771885
05631	6.980973	1.263325	6.746958	-0.006964	0.003507	-0.004204	10.557447	-45.580118	144.774071
05632	7.005394	1.244824	6.696182	-0.003702	0.005642	-0.007135	10.557657	-45.579661	144.774302
05633	6.997119	1.278791	6.738843	-0.004279	0.004417	-0.009256	10.559034	-45.579657	144.772603
05634	7.030529	1.276931	6.733255	-0.002885	0.007545	-0.007562	10.559755	-45.578084	144.772776
05635	6.962188	1.281538	6.745839	-0.003939	0.004968	-0.004585	10.558551	-45.578302	144.774839
05636	6.995728	1.279370	6.740177	-0.006724	0.004184	-0.006754	10.556967	-45.578706	144.775158
05637	6.990758	1.271346	6.718032	-0.003700	0.005645	-0.007134	10.557388	-45.578261	144.775176
05638	6.994924	1.279776	6.740934	-0.003700	0.002910	-0.007743	10.558241	-45.579279	144.774508
05639	7.006871	1.287004	6.709926	-0.003699	0.008381	-0.006524	10.557876	-45.577365	144.775627
05640	6.976927	1.265115	6.750807	-0.003699	0.005646	-0.007134	10.558087	-45.576906	144.775860
05641	6.989082	1.304689	6.707874	-0.006146	-0.000059	-0.005851	10.556804	-45.579793	144.776328
05642	6.988834	1.272397	6.719833	-0.004276	0.004422	-0.009255	10.558035	-45.579801	144.774669
05643	6.988377	1.272629	6.720266	-0.005907	0.006089	-0.007181	10.557074	-45.579068	144.774940
05644	7.004854	1.255481	6.723586	-0.003698	0.005648	-0.007133	10.557285	-45.578607	144.775173
05645	6.992025	1.281167	6.743678	-0.004514	0.003746	-0.006706	10.557148	-45.579268	144.775417
05646	6.987157	1.273170	6.721432	-0.005905	0.003355	-0.007790	10.556718	-45.580030	144.774777
05647	6.986750	1.273288	6.721832	-0.007297	0.005699	-0.008265	10.555423	-45.579437	144.774289
05648	7.003359	1.256067	6.725034	-0.002545	0.002629	-0.004109	10.554879	-45.580995	144.776503
05649	7.002946	1.288750	6.713687	-0.005665	0.006770	-0.009729	10.555466	-45.579648	144.774720
05650	6.973057	1.266695	6.754508	-0.006144	0.005414	-0.004631	10.552863	-45.579582	144.776932
05651	7.014483	1.263598	6.694856	-0.002065	0.003986	-0.009206	10.555578	-45.579834	144.775133
05652	7.001677	1.289401	6.714885	-0.004512	0.003749	-0.006705	10.555280	-45.580488	144.775426
05653	6.988841	1.282597	6.746706	-0.003696	0.005653	-0.007132	10.555676	-45.580035	144.775513
05654	7.000820	1.257385	6.727431	-0.003696	0.005653	-0.007132	10.555887	-45.579572	144.775748
05655	6.983454	1.274889	6.724953	-0.007293	0.002967	-0.008875	10.555358	-45.580471	144.774135
05656	7.000026	1.257784	6.728183	-0.000913	0.006437	-0.004961	10.555831	-45.579794	144.776234
05657	6.982645	1.275304	6.725715	-0.007292	0.002968	-0.008875	10.555426	-45.580682	144.774513
05658	7.016224	1.305787	6.708293	-0.004510	0.003752	-0.006705	10.555129	-45.581335	144.774806
05659	6.986466	1.283937	6.748910	-0.000671	0.004382	-0.008119	10.557966	-45.581507	144.773922
05660	6.993933	1.283144	6.695322	-0.004511	0.006488	-0.006094	10.557024	-45.580683	144.775117
05661	7.002516	1.267201	6.752616	-0.002877	0.004824	-0.008168	10.558432	-45.580596	144.774382
05662	6.997544	1.291916	6.718709	-0.002877	0.004825	-0.008167	10.559796	-45.580491	144.773659
05663	6.984719	1.285154	6.750487	-0.004508	0.003753	-0.006704	10.559670	-45.581142	144.773846
05664	6.992218	1.284111	6.696927	-0.008108	0.006539	-0.007227	10.557313	-45.580170	144.774137
05665	6.991742	1.251663	6.709164	-0.005900	0.006099	-0.007179	10.556292	-45.579464	144.774422
05666	7.000246	1.268046	6.754810	-0.005900	0.006100	-0.007178	10.555219	-45.578745	144.774686
05667	6.995224	1.260039	6.732753	-0.001728	0.007274	-0.003922	10.554680	-45.577696	144.777729
05668	6.999223	1.268372	6.755809	-0.005082	0.005269	-0.008215	10.554761	-45.577336	144.777034
05669	6.994277	1.292926	6.721916	-0.003116	0.004147	-0.005619	10.554748	-45.577887	144.778128
05670	6.989444	1.252578	6.711387	-0.004264	0.004438	-0.009252	10.555982	-45.577886	144.776474
05671	6.980935	1.286484	6.754147	-0.004266	0.007174	-0.008640	10.556762	-45.576428	144.775549
05672	7.026790	1.291717	6.717234	-0.003691	0.005662	-0.007129	10.556974	-45.575961	144.775787
05673	6.975637	1.278753	6.732328	-0.006135	-0.000051	-0.005853	10.555729	-45.578872	144.776138
05674	7.009249	1.276800	6.726648	-0.005655	0.006785	-0.009725	10.556187	-45.577499	144.774455
05675	6.996285	1.269852	6.758574	-0.004749	0.005813	-0.003544	10.553826	-45.577355	144.777449
05676	6.995940	1.270026	6.758899	-0.002870	0.002096	-0.008777	10.555837	-45.578723	144.775826
05677	6.986669	1.286429	6.702272	-0.007526	0.002295	-0.006327	10.553918	-45.580248	144.776074
05678	7.003310	1.269243	6.705477	-0.002300	0.006056	-0.006042	10.554260	-45.579673	144.777245
05679	6.990399	1.262262	6.737347	-0.006138	0.005423	-0.004630	10.551695	-45.579616	144.779458
05680	6.994390	1.270568	6.760400	-0.003446	0.006349	-0.009675	10.553437	-45.578495	144.777749
05681	7.006448	1.278076	6.729323	-0.002868	0.002099	-0.008777	10.555447	-45.579880	144.776159
05682	6.967774	1.272224	6.712950	-0.004746	0.003078	-0.004156	10.553622	-45.581180	144.778403
05683	7.001333	1.270419	6.707319	-0.002627	0.005519	-0.010712	10.556616	-45.580415	144.775696
05684	6.975825	1.289094	6.758927	-0.004506	0.006498	-0.006091	10.555675	-45.579585	144.776895
05685	6.987888	1.263934	6.739638	-0.002870	0.004837	-0.008164	10.557110	-45.579467	144.776172
05686	7.004423	1.279346	6.731190	-0.006708	0.004203	-0.006752	10.555532	-45.579861	144.776495
05687	7.016567	1.254142	6.711835	-0.002869	0.004838	-0.008164	10.556865	-45.579798	144.775800
05688	6.969761	1.281838	6.737825	-0.005315	0.001858	-0.006279	10.556064	-45.581563	144.776152
05689	7.003381	1.280015	6.732147	-0.001480	0.005230	-0.007078	10.557678	-45.581360	144.776265
05690	7.032481	1.269874	6.703983	-0.009157	0.003960	-0.004254	10.553288	-45.582153	144.778562
05691	6.973073	1.290302	6.761536	-0.002054	0.006746	-0.008587	10.555230	-45.580917	144.777803
05692	6.997640	1.272328	6.710810	-0.003111	0.004156	-0.005616	10.555066	-45.581457	144.779033
05693	6.980299	1.257322	6.720012	-0.003685	0.005672	-0.007126	10.555411	-45.581017	144.779144
05694	6.996714	1.305187	6.699949	-0.005317	0.004596	-0.005666	10.553963	-45.581303	144.780400
05695	7.000852	1.281020	6.734585	-0.002866	0.004842	-0.008163	10.555423	-45.581242	144.779527
05696	6.995999	1.273100	6.712374	-0.006705	0.004207	-0.006752	10.553847	-45.581633	144.779851
05697	7.021582	1.272145	6.760747	-0.007274	0.002986	-0.008875	10.553278	-45.582482	144.778390
05698	6.961372	1.275381	6.718990	-0.001722	0.004548	-0.004529	10.553242	-45.582914	144.780553
05699	6.999403	1.281573	6.735987	-0.006704	0.004208	-0.006751	10.576363	-45.585018	144.756647
05700	6.977516	1.290850	6.710951	-0.005071	0.005285	-0.008212	10.576461	-45.584650	144.755944
05701	6.998608	1.281963	6.736738	-0.003679	0.002939	-0.007739	10.577535	-45.585679	144.755040
05702	6.985832	1.275133	6.768385	-0.003678	0.002939	-0.007739	10.578412	-45.586683	144.754365
05703	6.981018	1.267038	6.746171	-0.009728	0.005480	-0.005764	10.574415	-45.586504	144.755574
05704	6.993002	1.274262	6.715275	-0.003438	0.006364	-0.009671	10.576172	-45.585375	144.753859
05705	6.997027	1.282825	6.738217	-0.000083	0.002891	-0.006602	10.578656	-45.586522	144.754005
05706	6.992198	1.274994	6.715974	-0.005888	0.006118	-0.007174	10.577600	-45.585795	144.754262
05707	6.991777	1.275131	6.716386	-0.004495	0.003771	-0.006701	10.577402	-45.586411	144.754658
05708	7.000218	1.291495	6.761997	-0.004501	0.006509	-0.006087	10.576475	-45.585577	144.755849
05709	6.978261	1.300819	6.737023	-0.005068	0.005289	-0.008211	10.576669	-45.585197	144.755191
05710	6.994842	1.283877	6.740284	-0.001475	0.005240	-0.007074	10.578179	-45.584974	144.755397
05711	6.994462	1.284140	6.740628	-0.007268	0.002993	-0.008874	10.577642	-45.585845	144.753840
05712	6.994027	1.284428	6.741024	-0.003435	0.006369	-0.009670	10.579399	-45.584713	144.752126
05713	6.989074	1.276596	6.718921	-0.005886	0.006121	-0.007173	10.578418	-45.584009	144.752268
05714	7.010021	1.267576	6.744886	-0.003113	0.006901	-0.005000	10.577619	-45.583069	144.754393
05715	6.992446	1.285109	6.742536	-0.004820	0.005981	-0.010756	10.579391	-45.582064	144.751621
05716	7.004432	1.292604	6.711617	-0.003679	0.005683	-0.007123	10.579618	-45.581587	144.751854
05717	6.974535	1.270362	6.752250	-0.005885	0.006123	-0.007173	10.578650	-45.580883	144.752025
05718	7.020588	1.275740	6.715325	-0.003672	0.002947	-0.007738	10.579528	-45.581882	144.751353
05719	6.986313	1.277950	6.721535	-0.004492	0.003776	-0.006701	10.579387	-45.582551	144.751463
05720	7.007326	1.269116	6.747397	-0.003431	0.006374	-0.009668	10.581145	-45.581417	144.749751
05721	6.963962	1.287700	6.696888	-0.004491	0.003777	-0.006700	10.581049	-45.582087	144.749874
05722	6.997762	1.253289	6.702892	-0.004738	0.003088	-0.004155	10.579242	-45.583383	144.752105
05723	6.984699	1.278766	6.723056	-0.005636	0.006816	-0.009718	10.579895	-45.582004	144.750295
05724	6.984187	1.279113	6.723523	-0.001471	0.005247	-0.007072	10.581405	-45.581777	144.750504
05725	7.026495	1.293674	6.763239	-0.003677	0.005687	-0.007122	10.581740	-45.581320	144.750640
05726	6.983261	1.279677	6.724377	-0.005062	0.005298	-0.008209	10.581840	-45.580945	144.749941
05727	6.987239	1.287911	6.747397	-0.005309	0.004608	-0.005663	10.580465	-45.581227	144.751200
05728	6.978149	1.272001	6.702429	-0.003414	0.000904	-0.010898	10.583527	-45.583044	144.747677
05729	6.982235	1.280319	6.725320	-0.006129	0.005437	-0.004626	10.580969	-45.582987	144.749863
05730	6.981758	1.280344	6.725810	-0.003110	0.006907	-0.004997	10.580168	-45.582044	144.751991
05731	7.002759	1.271523	6.751684	-0.003420	0.003644	-0.010282	10.582633	-45.582401	144.749336
05732	6.985272	1.289121	6.749202	-0.003675	0.005690	-0.007121	10.582861	-45.581919	144.749572
05733	6.997535	1.264007	6.729829	-0.004488	0.003782	-0.006700	10.582603	-45.582589	144.749794
05734	6.963165	1.266152	6.736110	-0.003674	0.005691	-0.007121	10.582831	-45.582107	144.750030
05735	7.030642	1.262597	6.724725	-0.002854	0.004863	-0.008157	10.584345	-45.581996	144.749222
05736	7.008574	1.304564	6.688065	-0.003674	0.005692	-0.007120	10.584573	-45.581513	144.749458
05737	7.012886	1.247831	6.734271	-0.004486	0.003783	-0.006700	10.584373	-45.582172	144.749672
05738	6.978318	1.282430	6.728983	-0.003109	0.006910	-0.004996	10.583573	-45.581227	144.751802
05739	6.978014	1.250161	6.741028	-0.004237	0.004476	-0.009244	10.584976	-45.581215	144.750056
05740	6.998755	1.273833	6.755399	-0.003681	0.008432	-0.006504	10.584551	-45.579254	144.751200
05741	7.010779	1.281231	6.724521	-0.004485	0.003785	-0.006699	10.584441	-45.579892	144.751396
05742	6.993571	1.266151	6.733546	-0.005048	0.002568	-0.008824	10.585196	-45.580989	144.749792
05743	6.971740	1.275552	6.708422	-0.002288	0.006085	-0.006032	10.585704	-45.580401	144.750889
05744	6.996949	1.307177	6.745334	-0.006690	0.004225	-0.006750	10.584149	-45.580784	144.751202
05745	6.988114	1.258606	6.711954	-0.003091	0.001437	-0.006228	10.584716	-45.582817	144.751461
05746	7.009037	1.282168	6.726158	-0.005877	0.006136	-0.007170	10.583663	-45.582079	144.751724
05747	6.982862	1.250900	6.690187	-0.004243	0.007219	-0.008627	10.584295	-45.580621	144.750868
05748	6.995232	1.307972	6.746961	-0.002287	0.006087	-0.006031	10.584650	-45.580031	144.752040
05749	6.969320	1.244224	6.722492	-0.003670	0.005698	-0.007119	10.584893	-45.579588	144.752184
05750	7.002696	1.275062	6.705414	-0.004482	0.003788	-0.006699	10.584620	-45.580223	144.752474
05751	7.011147	1.259030	6.762658	-0.000652	0.007171	-0.007487	10.586707	-45.578863	144.752648
05752	6.984683	1.292845	6.703418	-0.006687	0.004228	-0.006750	10.585153	-45.579244	144.752962
05753	7.022932	1.266642	6.732017	-0.003088	0.001440	-0.006228	10.585633	-45.581261	144.753352
05754	6.992934	1.276873	6.760851	-0.005624	0.006834	-0.009714	10.586112	-45.579862	144.751674
05755	6.966658	1.278083	6.713217	-0.005303	0.004617	-0.005662	10.584616	-45.580175	144.752940
05756	6.987735	1.269063	6.739054	-0.004481	0.003790	-0.006698	10.584343	-45.580808	144.753229
05757	6.999864	1.276518	6.708094	-0.003668	0.005702	-0.007118	10.584690	-45.580336	144.753374
05758	6.991246	1.277494	6.762480	-0.005302	0.004619	-0.005662	10.583262	-45.580612	144.754623
05759	6.998984	1.276980	6.708924	-0.001212	0.005960	-0.009610	10.586464	-45.579705	144.752859
05760	6.985928	1.269987	6.740753	-0.010844	0.005804	-0.009397	10.583880	-45.578920	144.751281
05761	6.985532	1.270178	6.741127	-0.000069	0.002915	-0.006595	10.586236	-45.580086	144.751421
05762	7.002022	1.285793	6.732770	-0.005872	0.006143	-0.007169	10.585184	-45.579344	144.751686
05763	6.980323	1.262543	6.719318	-0.006432	0.004928	-0.009293	10.585298	-45.579088	144.749907
05764	6.984178	1.270787	6.742416	-0.004488	0.006533	-0.006080	10.584371	-45.578242	144.751107
05765	7.000696	1.286228	6.734065	-0.005290	0.001882	-0.006279	10.583606	-45.580037	144.751381
05766	6.983474	1.271055	6.743094	-0.003666	0.005707	-0.007116	10.583835	-45.579547	144.751622
05767	6.995701	1.278555	6.712047	-0.004467	0.001056	-0.007316	10.584271	-45.581660	144.751003
05768	7.016813	1.269670	6.737824	-0.003665	0.005708	-0.007116	10.584500	-45.581170	144.751245
05769	6.960956	1.280936	6.718586	-0.004225	0.004493	-0.009241	10.585902	-45.581145	144.749515
05770	6.998987	1.254963	6.747392	-0.005618	0.006845	-0.009711	10.586382	-45.579741	144.747840
05771	6.998281	1.287659	6.736301	-0.006681	0.004235	-0.006749	10.584958	-45.580158	144.747974
05772	7.010639	1.262543	6.716941	-0.003664	0.005710	-0.007115	10.585187	-45.579666	144.748217
05773	6.976230	1.264520	6.723196	-0.005298	0.004624	-0.005660	10.583907	-45.579938	144.749410
05774	6.996975	1.288022	6.737589	-0.004486	0.006537	-0.006078	10.582980	-45.579089	144.750612
05775	6.987826	1.272005	6.692829	-0.005868	0.006150	-0.007167	10.582086	-45.578338	144.750833
