// General information: 
//  MT Manager version: 2022.2.0 
//  XDA version: 2022.2.0 build 7381 rev 124627 built on 2023-07-19
// Device information: 
//  DeviceId: 00B4BB52
//  ProductCode: MTW2-3A7G6
//  Firmware Version: 4.6.0
//  Hardware Version: 2.0.0
// Device settings: 
//  Filter Profile: human(46.1)
//  Option Flags: Orientation Smoother Disabled, Position/Velocity Smoother Disabled, Continuous Zero Rotation Update Disabled, AHS Disabled, ICC Disabled
// Coordinate system: ENU
PacketCounter	Acc_X	Acc_Y	Acc_Z	Gyr_X	Gyr_Y	Gyr_Z	Roll	Pitch	Yaw
07197	9.671508	-0.409514	1.241479	-0.003521	-0.005560	-0.019224	-18.753477	-82.210603	-40.018095
07198	9.695340	-0.409134	1.215807	-0.008428	-0.005990	-0.013390	-18.703786	-82.215774	-40.068926
07199	9.706723	-0.425762	1.203280	-0.004810	0.001618	-0.012708	-18.643868	-82.216662	-40.127336
07200	9.712105	-0.441706	1.232998	-0.009248	0.002075	-0.010863	-18.593847	-82.216982	-40.178226
07201	9.706696	-0.424126	1.204077	-0.003204	0.011814	-0.002555	-18.559732	-82.210466	-40.209664
07202	9.641448	-0.421097	1.238558	-0.008283	0.011005	-0.009268	-18.503692	-82.205636	-40.265663
07203	9.694066	-0.439616	1.219242	-0.006912	0.016222	-0.007178	-18.447646	-82.197556	-40.321382
07204	9.652448	-0.437766	1.229116	-0.006922	0.016859	-0.003663	-18.405614	-82.188516	-40.363990
07205	9.676395	-0.420255	1.276606	-0.005135	0.017724	-0.004593	-18.357036	-82.179140	-40.411146
07206	9.669818	-0.437489	1.248913	-0.010745	0.011425	-0.002837	-18.327732	-82.172897	-40.442861
07207	9.669656	-0.437286	1.250242	-0.006921	0.016857	-0.003661	-18.285182	-82.163817	-40.484967
07208	9.651785	-0.436658	1.234706	-0.012521	0.009921	-0.005420	-18.248791	-82.158853	-40.523971
07209	9.637136	-0.521560	1.249712	-0.007754	0.017130	-0.014219	-18.164839	-82.151504	-40.608353
07210	9.739044	-0.280917	1.289893	-0.004891	0.013633	-0.016641	-18.075126	-82.146504	-40.697195
07211	9.644422	-0.467883	1.280207	-0.023567	-0.002944	0.007116	-18.110571	-82.146269	-40.670198
07212	9.674084	-0.470078	1.213807	0.003470	0.014385	-0.002278	-18.071890	-82.138297	-40.703142
07213	9.694151	-0.382995	1.301611	-0.017879	0.007319	-0.002629	-18.052407	-82.134205	-40.728304
07214	9.705029	-0.419186	1.219151	-0.003479	0.009382	0.003445	-18.046762	-82.127941	-40.730957
07215	9.627674	-0.415640	1.336902	-0.010153	0.006806	0.003175	-18.046415	-82.123096	-40.732332
07216	9.703786	-0.454623	1.220745	-0.015303	0.002032	0.004452	-18.060792	-82.120653	-40.721534
07217	9.657241	-0.418345	1.271217	-0.003621	0.016157	0.000481	-18.034119	-82.111193	-40.745708
07218	9.651016	-0.418254	1.314281	-0.009060	0.009591	0.011261	-18.062104	-82.103427	-40.717483
07219	9.667203	-0.472146	1.261251	-0.014383	0.005084	0.003505	-18.067675	-82.099462	-40.715330
07220	9.668157	-0.438118	1.261488	-0.004804	0.010039	0.003904	-18.063576	-82.092751	-40.718064
07221	9.626914	-0.419019	1.341317	-0.007302	0.003946	0.004266	-18.069527	-82.089271	-40.711432
07222	9.645349	-0.403588	1.286707	-0.010261	-0.003673	0.005101	-18.090929	-82.089821	-40.690828
07223	9.655649	-0.456636	1.274349	-0.008081	-0.005884	0.008176	-18.125234	-82.090997	-40.656021
07224	9.627714	-0.404913	1.268849	-0.005637	-0.005030	0.008777	-18.160010	-82.091622	-40.619387
07225	9.638422	-0.440006	1.326745	-0.005999	-0.019208	0.009660	-18.216137	-82.099779	-40.561343
07226	9.633348	-0.423922	1.295233	-0.010886	-0.020917	0.008461	-18.273442	-82.109102	-40.504603
07227	9.679990	-0.461436	1.243333	-0.007367	-0.024425	0.007565	-18.329160	-82.120457	-40.447768
07228	9.639917	-0.426036	1.248743	-0.008671	-0.025034	0.000993	-18.361447	-82.133351	-40.415045
07229	9.704254	-0.463014	1.213852	-0.007892	-0.015202	-0.002916	-18.364393	-82.141575	-40.411787
07230	9.705501	-0.428051	1.212292	-0.006906	-0.007543	-0.008338	-18.336010	-82.146638	-40.438245
07231	9.680793	-0.460877	1.237275	-0.005535	-0.002329	-0.006241	-18.307639	-82.148459	-40.465238
07232	9.670595	-0.407685	1.249169	-0.003016	0.002498	-0.013634	-18.243054	-82.149008	-40.526475
07233	9.675496	-0.441900	1.208213	-0.009197	0.007956	-0.008305	-18.195257	-82.145595	-40.575197
07234	9.658157	-0.422789	1.262765	-0.008384	0.000529	-0.007328	-18.161183	-82.146075	-40.608316
07235	9.687202	-0.440448	1.267410	-0.001722	0.003739	-0.003546	-18.133384	-82.144100	-40.632525
07236	9.700671	-0.389254	1.254208	-0.009588	-0.004325	0.003122	-18.147670	-82.145359	-40.618286
07237	9.670576	-0.406121	1.249824	-0.006027	-0.001957	0.004777	-18.162550	-82.145000	-40.601902
07238	9.688294	-0.407308	1.266382	-0.007166	-0.002204	0.010751	-18.202782	-82.143734	-40.562252
07239	9.658179	-0.425094	1.261820	-0.009016	-0.007680	0.016157	-18.271692	-82.144446	-40.493057
07240	9.670598	-0.410138	1.248341	-0.000161	-0.007318	0.019498	-18.349070	-82.144378	-40.410945
07241	9.674845	-0.463374	1.277635	-0.007427	-0.005273	0.013227	-18.402385	-82.144287	-40.356572
07242	9.677015	-0.396293	1.276301	-0.002164	-0.005383	0.025459	-18.501619	-82.142053	-40.252856
07243	9.669478	-0.450496	1.246925	-0.007042	-0.007723	0.020748	-18.587532	-82.141900	-40.165354
07244	9.675450	-0.453220	1.204383	-0.002811	-0.006004	0.020417	-18.668305	-82.140891	-40.080039
07245	9.675871	-0.437234	1.274871	-0.003017	-0.003832	0.021932	-18.751356	-82.138375	-39.993097
07246	9.634431	-0.437990	1.282432	-0.002209	-0.011262	0.022908	-18.848453	-82.139718	-39.892060
07247	9.675960	-0.441780	1.272626	-0.003188	-0.019559	0.024816	-18.964054	-82.145151	-39.772360
07248	9.699742	-0.445333	1.246037	-0.000890	-0.011294	0.025970	-19.072341	-82.145880	-39.659100
07249	9.682053	-0.447791	1.227853	-0.004528	-0.017641	0.032313	-19.215755	-82.148798	-39.512099
07250	9.693354	-0.468666	1.214072	-0.002681	-0.011535	0.030423	-19.343062	-82.148747	-39.381309
07251	9.645946	-0.469696	1.263288	0.000878	-0.008544	0.035596	-19.483781	-82.146030	-39.233902
07252	9.658346	-0.456580	1.249482	-0.003617	-0.013334	0.038410	-19.645384	-82.145331	-39.067972
07253	9.695031	-0.426563	1.281355	-0.002488	-0.012456	0.035952	-19.794751	-82.144547	-38.913781
07254	9.634063	-0.480706	1.201087	-0.004273	-0.013325	0.036888	-19.950965	-82.144023	-38.754421
07255	9.676049	-0.467498	1.262726	-0.000630	-0.006982	0.030545	-20.070322	-82.141245	-38.629450
07256	9.710884	-0.489383	1.224587	-0.006384	-0.006493	0.029339	-20.188179	-82.138431	-38.509120
07257	9.627943	-0.489197	1.240864	-0.003675	-0.001947	0.030980	-20.303550	-82.132790	-38.389932
07258	9.645585	-0.492611	1.257308	-0.003473	-0.004121	0.029466	-20.416669	-82.128613	-38.272585
07259	9.645486	-0.495380	1.256977	-0.009423	-0.002085	0.026257	-20.516900	-82.123929	-38.172002
07260	9.621755	-0.496703	1.281605	-0.007698	-0.007093	0.022767	-20.610567	-82.122635	-38.077438
07261	9.638892	-0.517383	1.226243	-0.010671	-0.015340	0.020087	-20.706835	-82.126259	-37.981578
07262	9.680399	-0.520930	1.216354	-0.008220	-0.015122	0.017165	-20.790995	-82.130364	-37.896429
07263	9.669295	-0.504480	1.227521	-0.009005	-0.008941	0.009151	-20.834657	-82.132752	-37.852713
07264	9.669348	-0.505537	1.226669	-0.011652	-0.007616	0.010072	-20.882127	-82.134258	-37.807312
07265	9.699631	-0.490134	1.229980	-0.006288	-0.005649	0.003750	-20.898476	-82.135979	-37.789597
07266	9.647058	-0.471376	1.250335	-0.007813	-0.002189	0.009247	-20.932669	-82.134748	-37.754085
07267	9.693062	-0.509044	1.200064	-0.012044	-0.004526	0.006065	-20.959633	-82.135391	-37.728983
07268	9.677287	-0.456890	1.253789	-0.004437	0.001712	0.008896	-20.984624	-82.132138	-37.700814
07269	9.699596	-0.493753	1.228804	-0.016283	-0.004986	0.013446	-21.043260	-82.131508	-37.646191
07270	9.712016	-0.478592	1.215945	-0.006424	0.003642	0.014870	-21.089626	-82.125984	-37.599994
07271	9.664592	-0.477884	1.266565	-0.012840	0.004784	0.015657	-21.140184	-82.119662	-37.551533
07272	9.657864	-0.496712	1.237846	-0.010390	0.005004	0.012732	-21.178515	-82.113847	-37.514176
07273	9.688034	-0.482254	1.241812	-0.009872	-0.004883	0.019703	-21.257300	-82.111836	-37.435501
07274	9.668857	-0.518342	1.225194	-0.011785	0.001668	0.021197	-21.333773	-82.106026	-37.360866
07275	9.676680	-0.468780	1.254080	-0.009802	0.000984	0.022268	-21.413415	-82.100320	-37.281283
07276	9.662727	-0.522567	1.266911	-0.011001	-0.004525	0.029215	-21.529508	-82.096103	-37.165171
07277	9.676517	-0.474417	1.253220	-0.011930	-0.007582	0.030163	-21.653428	-82.093255	-37.042116
07278	9.644849	-0.528083	1.248524	-0.010215	-0.011967	0.030190	-21.783681	-82.092715	-36.913313
07279	9.644821	-0.531197	1.247420	-0.010410	-0.009799	0.031711	-21.915916	-82.090639	-36.780981
07280	9.675082	-0.518500	1.250159	-0.012932	-0.015270	0.035599	-22.073593	-82.090612	-36.624423
07281	9.657320	-0.521442	1.231901	-0.009821	-0.015073	0.034206	-22.223125	-82.090701	-36.474287
07282	9.711218	-0.509936	1.209564	-0.013048	-0.008480	0.032644	-22.358977	-82.087605	-36.340018
07283	9.679418	-0.563761	1.205013	-0.011260	-0.007619	0.031711	-22.488021	-82.084192	-36.211398
07284	9.663810	-0.514095	1.258325	-0.011452	-0.005452	0.033234	-22.620222	-82.079283	-36.077849
07285	9.631116	-0.585654	1.182963	-0.011453	-0.006074	0.029712	-22.739079	-82.075416	-35.959623
07286	9.663636	-0.520017	1.257229	-0.008733	-0.002775	0.024307	-22.831578	-82.071002	-35.866635
07287	9.655412	-0.574089	1.227794	-0.015888	-0.007467	0.021003	-22.921999	-82.069755	-35.779683
07288	9.680457	-0.542828	1.201821	-0.013360	-0.001998	0.017118	-22.988169	-82.066493	-35.716148
07289	9.656762	-0.543611	1.226683	-0.010054	-0.002734	0.021249	-23.068478	-82.062663	-35.636031
07290	9.656680	-0.545455	1.226512	-0.011766	0.000415	0.014179	-23.118777	-82.058770	-35.587717
07291	9.674380	-0.547888	1.243042	-0.014485	-0.002888	0.019588	-23.195466	-82.055371	-35.513817
07292	9.663233	-0.531913	1.255346	-0.008654	0.001229	0.016307	-23.250430	-82.050552	-35.458419
07293	9.674204	-0.551522	1.242800	-0.013359	-0.002002	0.017123	-23.315617	-82.047223	-35.395479
07294	9.697727	-0.554488	1.217602	-0.011955	0.002581	0.015705	-23.367955	-82.041817	-35.343404
07295	9.697596	-0.556201	1.217862	-0.010825	0.004083	0.016764	-23.420314	-82.035352	-35.291950
07296	9.686413	-0.540110	1.230596	-0.007523	0.002728	0.017369	-23.476002	-82.029475	-35.234995
07297	9.644871	-0.540151	1.239337	-0.010821	0.004697	0.020292	-23.540416	-82.021867	-35.171364
07298	9.655744	-0.560102	1.227274	-0.010821	0.004696	0.020294	-23.605446	-82.014267	-35.107176
07299	9.644559	-0.544246	1.239974	-0.013080	0.001689	0.018177	-23.667931	-82.008704	-35.046798
07300	9.655479	-0.564156	1.227503	-0.010905	-0.000556	0.021250	-23.744855	-82.003618	-34.970612
07301	9.642796	-0.582914	1.239954	-0.014485	-0.002897	0.019597	-23.820811	-82.000110	-34.897442
07302	9.655338	-0.568218	1.226741	-0.011656	-0.006396	0.017147	-23.892712	-81.999012	-34.826302
07303	9.709292	-0.555204	1.205087	-0.011380	-0.003314	0.014671	-23.949129	-81.996843	-34.771065
07304	9.667838	-0.554637	1.213390	-0.012616	0.001987	0.010656	-23.983423	-81.992844	-34.740791
07305	9.649316	-0.571966	1.268044	-0.010634	0.001295	0.011724	-24.020743	-81.988937	-34.704407
07306	9.655074	-0.573877	1.226185	-0.011761	0.000405	0.014193	-24.070229	-81.984939	-34.655050
07307	9.631385	-0.573822	1.251356	-0.012619	0.001374	0.007129	-24.091420	-81.982059	-34.636103
07308	9.654966	-0.575754	1.226156	-0.013093	-0.000766	0.004074	-24.105897	-81.981031	-34.623905
07309	9.654965	-0.576303	1.225903	-0.012243	-0.002960	0.004081	-24.122741	-81.981129	-34.609129
07310	9.643984	-0.558788	1.237973	-0.010928	-0.004236	0.000089	-24.127100	-81.982849	-34.606498
07311	9.655065	-0.576675	1.224940	-0.012721	-0.005710	-0.002502	-24.124351	-81.985927	-34.611785
07312	9.655145	-0.576659	1.224316	-0.012059	-0.005738	-0.000970	-24.127717	-81.988678	-34.610383
07313	9.624838	-0.592465	1.219766	-0.010463	-0.003319	-0.003910	-24.114458	-81.990835	-34.624978
07314	9.666292	-0.593832	1.211087	-0.012172	-0.000153	-0.010980	-24.071410	-81.993010	-34.668756
07315	9.649540	-0.574334	1.265262	-0.008219	-0.002757	-0.015903	-24.011278	-81.997669	-34.729387
07316	9.662279	-0.556510	1.252021	-0.015841	-0.007744	-0.011683	-23.980429	-82.003970	-34.764928
07317	9.655694	-0.572558	1.221910	-0.013864	-0.009046	-0.014144	-23.940370	-82.011501	-34.808552
07318	9.638113	-0.570529	1.204216	-0.013206	-0.009684	-0.016140	-23.894154	-82.019845	-34.856719
07319	9.668696	-0.552925	1.207321	-0.009635	-0.008565	-0.021541	-23.823027	-82.028827	-34.929265
07320	9.632761	-0.566611	1.244030	-0.014146	-0.013355	-0.018722	-23.773730	-82.039679	-34.982824
07321	9.648329	-0.617116	1.188675	-0.015589	-0.007715	-0.031788	-23.665802	-82.050552	-35.095970
07322	9.656918	-0.562298	1.216996	-0.003160	-0.006909	-0.037398	-23.528929	-82.062278	-35.230871
07323	9.647719	-0.506652	1.228384	-0.013225	-0.012745	-0.033768	-23.419740	-82.076179	-35.343916
07324	9.700522	-0.523364	1.205629	-0.016027	-0.021926	-0.030937	-23.338413	-82.094265	-35.428398
07325	9.665317	-0.519268	1.170251	-0.012638	-0.017419	-0.027757	-23.258550	-82.109217	-35.511487
07326	9.658371	-0.550601	1.210794	-0.015863	-0.011428	-0.032824	-23.152203	-82.122165	-35.622767
07327	9.628370	-0.563085	1.205724	-0.010047	-0.008519	-0.043157	-22.996967	-82.135838	-35.780442
07328	9.606613	-0.523087	1.229954	-0.015340	-0.007706	-0.051863	-22.810254	-82.150977	-35.974207
07329	9.660894	-0.503250	1.207827	-0.008074	-0.011047	-0.052661	-22.620241	-82.167954	-36.165836
07330	9.655560	-0.498485	1.248077	-0.016873	-0.021596	-0.041496	-22.495328	-82.188011	-36.297064
07331	9.703148	-0.496900	1.195653	-0.019704	-0.018112	-0.039031	-22.374399	-82.205622	-36.425671
07332	9.606918	-0.541060	1.223659	-0.018580	-0.017222	-0.041493	-22.242124	-82.223281	-36.564656
07333	9.675308	-0.608528	1.146565	-0.019188	-0.014393	-0.058057	-22.039719	-82.242936	-36.775184
07334	9.607829	-0.530559	1.221102	-0.006628	-0.003663	-0.069081	-21.769910	-82.259150	-37.045720
07335	9.626149	-0.524108	1.236923	-0.025548	-0.012311	-0.082831	-21.468339	-82.282666	-37.359982
07336	9.675122	-0.483161	1.185579	-0.010350	-0.002900	-0.094779	-21.095416	-82.303420	-37.736265
07337	9.719237	-0.424005	1.247463	-0.020384	-0.008793	-0.091128	-20.748746	-82.326235	-38.093016
07338	9.718758	-0.433424	1.175400	-0.025255	-0.008063	-0.078204	-20.454247	-82.345814	-38.399389
07339	9.713403	-0.426024	1.216828	-0.017852	0.000345	-0.073844	-20.158189	-82.359767	-38.703578
07340	9.657820	-0.486529	1.167016	-0.023797	0.003595	-0.069966	-19.875973	-82.371030	-38.996697
07341	9.688324	-0.463189	1.171375	-0.024863	0.005486	-0.082509	-19.539534	-82.383461	-39.345664
07342	9.683976	-0.420631	1.214203	-0.017216	0.016375	-0.084129	-19.176501	-82.390059	-39.718044
07343	9.683057	-0.447409	1.215402	-0.025914	0.009804	-0.080955	-18.839019	-82.399294	-40.068654
07344	9.702186	-0.405866	1.233008	-0.017917	0.011727	-0.081165	-18.493363	-82.407275	-40.422850
07345	9.683468	-0.432409	1.217549	-0.023869	0.014962	-0.077286	-18.161206	-82.412492	-40.766894
07346	9.672594	-0.390394	1.160174	-0.024776	0.011881	-0.076336	-17.837632	-82.418985	-41.102637
07347	9.713931	-0.401755	1.223784	-0.020136	0.009889	-0.076201	-17.513421	-82.426266	-41.436499
07348	9.642592	-0.409912	1.229281	-0.019883	0.013575	-0.075130	-17.189000	-82.431131	-41.771434
07349	9.678593	-0.386732	1.192610	-0.017687	0.011340	-0.072070	-16.877503	-82.436430	-42.091044
07350	9.696524	-0.380633	1.210461	-0.018557	0.014127	-0.068542	-16.577994	-82.439427	-42.398674
07351	9.713726	-0.392015	1.157359	-0.018103	0.016265	-0.065483	-16.287335	-82.440510	-42.697500
07352	9.696594	-0.367936	1.213825	-0.016696	0.025490	-0.071315	-15.961439	-82.437266	-43.032411
07353	9.708779	-0.344575	1.203521	-0.005443	0.022109	-0.062979	-15.667144	-82.434312	-43.327590
07354	9.685880	-0.303779	1.231299	-0.006295	0.030764	-0.056870	-15.389614	-82.425480	-43.605391
07355	9.697149	-0.316303	1.220971	-0.008387	0.016903	-0.048105	-15.165403	-82.422794	-43.831579
07356	9.673492	-0.311686	1.247458	-0.006900	0.010681	-0.038625	-14.987489	-82.422066	-44.010044
07357	9.697115	-0.308855	1.223146	-0.014682	0.007768	-0.032904	-14.840468	-82.422007	-44.162002
07358	9.719944	-0.340986	1.198854	-0.001834	0.012099	-0.028425	-14.700887	-82.418888	-44.298483
07359	9.691174	-0.303365	1.267162	-0.001843	0.012714	-0.024910	-14.574524	-82.414833	-44.422181
07360	9.655528	-0.300358	1.234772	-0.008957	0.009168	-0.021183	-14.472196	-82.412207	-44.525985
07361	9.702467	-0.316942	1.256634	-0.007406	0.012835	-0.017076	-14.381745	-82.406906	-44.616671
07362	9.677520	-0.366371	1.211590	-0.016033	0.010251	-0.021893	-14.279736	-82.403741	-44.724270
07363	9.677411	-0.364116	1.213137	0.005290	0.022124	-0.026040	-14.135188	-82.394496	-44.862197
07364	9.644795	-0.223100	1.324081	-0.004494	0.014002	-0.023968	-14.014272	-82.389471	-44.981657
07365	9.665762	-0.342309	1.228485	-0.015616	0.007144	-0.017919	-13.931480	-82.387356	-45.069367
07366	9.666436	-0.306390	1.229272	0.001414	0.008001	-0.012850	-13.859796	-82.384088	-45.136050
07367	9.672667	-0.288296	1.259418	-0.007454	0.008812	-0.009122	-13.807322	-82.379812	-45.188454
07368	9.677768	-0.322142	1.218218	-0.007247	0.007262	-0.007136	-13.765361	-82.376162	-45.230530
07369	9.671876	-0.321615	1.260269	0.002218	-0.003443	-0.003981	-13.741276	-82.377997	-45.248701
07370	9.671902	-0.321562	1.260084	-0.011962	-0.000048	0.001613	-13.745866	-82.377222	-45.245828
07371	9.683360	-0.339348	1.247536	-0.003326	0.001924	0.002922	-13.748203	-82.375130	-45.240548
07372	9.696235	-0.288262	1.235094	-0.001585	-0.001821	0.006427	-13.768495	-82.374676	-45.217531
07373	9.671859	-0.323152	1.260008	-0.007347	-0.000769	0.008758	-13.800123	-82.373285	-45.185023
07374	9.684018	-0.307125	1.247431	-0.004253	0.000088	0.010873	-13.838727	-82.371170	-45.144339
07375	9.641844	-0.341868	1.255668	-0.005361	-0.001431	0.009814	-13.874253	-82.369997	-45.106750
07376	9.660300	-0.308955	1.272472	-0.006250	0.001364	0.013330	-13.922988	-82.366834	-45.055260
07377	9.660289	-0.310400	1.272198	-0.003414	-0.006727	0.015305	-13.985612	-82.367839	-44.989203
07378	9.701047	-0.347471	1.262829	-0.005437	-0.010700	0.018685	-14.067989	-82.370599	-44.904846
07379	9.684041	-0.314677	1.245371	-0.000793	-0.006178	0.024909	-14.168422	-82.369930	-44.799130
07380	9.671847	-0.334143	1.257231	-0.006994	-0.007275	0.024194	-14.270948	-82.369973	-44.694805
07381	9.671091	-0.370830	1.256549	-0.008064	-0.004159	0.018700	-14.347656	-82.369017	-44.617229
07382	9.671821	-0.338231	1.256333	0.000574	-0.002195	0.020009	-14.423613	-82.366815	-44.535729
07383	9.636729	-0.322237	1.293615	-0.007640	-0.007876	0.019162	-14.505915	-82.367826	-44.452262
07384	9.672165	-0.324809	1.183727	-0.009664	-0.011849	0.022544	-14.608475	-82.370577	-44.349428
07385	9.671912	-0.344486	1.253931	-0.000779	-0.006802	0.021402	-14.695017	-82.370632	-44.257718
07386	9.683309	-0.364176	1.240913	-0.010272	-0.000720	0.022691	-14.786268	-82.367142	-44.167656
07387	9.689099	-0.366276	1.198950	0.001030	-0.000668	0.019550	-14.857352	-82.364035	-44.090496
07388	9.641731	-0.367111	1.249394	-0.005799	0.003507	0.016389	-14.915336	-82.359107	-44.030823
07389	9.688096	-0.403600	1.199549	-0.007270	0.009118	0.003407	-14.913696	-82.352945	-44.031835
07390	9.630612	-0.333977	1.334400	0.004207	0.002368	0.003174	-14.912391	-82.350583	-44.026754
07391	9.653743	-0.351617	1.238089	-0.017041	-0.000220	-0.001551	-14.906166	-82.350323	-44.038041
07392	9.695185	-0.352544	1.229542	-0.001111	-0.001517	-0.001060	-14.895068	-82.350748	-44.045598
07393	9.642351	-0.334047	1.250549	-0.005749	0.000444	-0.001179	-14.883179	-82.350065	-44.056072
07394	9.688834	-0.369353	1.200147	-0.012156	0.000905	-0.003880	-14.864058	-82.349561	-44.077787
07395	9.683772	-0.334646	1.242251	-0.000206	0.001552	-0.001986	-14.844458	-82.348382	-44.092837
07396	9.653750	-0.350840	1.238257	-0.010582	0.003343	-0.006797	-14.809803	-82.346957	-44.128852
07397	9.648182	-0.332773	1.209281	-0.009255	0.002695	-0.007265	-14.772397	-82.345914	-44.167100
07398	9.677351	-0.349944	1.213860	-0.006777	0.008203	-0.011108	-14.712447	-82.342413	-44.226617
07399	9.647775	-0.348588	1.281571	-0.001480	0.006226	-0.009466	-14.657744	-82.339724	-44.277824
07400	9.671450	-0.348083	1.256503	-0.012370	-0.004020	-0.011972	-14.610682	-82.343110	-44.327294
07401	9.683727	-0.330067	1.243828	-0.002169	0.000993	-0.010067	-14.559528	-82.343398	-44.375317
07402	9.689343	-0.346738	1.272846	-0.003978	-0.005145	-0.008216	-14.524367	-82.346857	-44.409363
07403	9.665281	-0.362577	1.226453	-0.010818	-0.000359	-0.007860	-14.488695	-82.347569	-44.446763
07404	9.653869	-0.344544	1.239095	-0.003959	0.000717	-0.005622	-14.457908	-82.347400	-44.474911
07405	9.671682	-0.344541	1.255691	-0.013048	-0.002782	-0.006466	-14.431840	-82.349252	-44.503912
07406	9.707599	-0.327538	1.217715	-0.006642	-0.003240	-0.003766	-14.414700	-82.351019	-44.520794
07407	9.672555	-0.309416	1.255263	-0.005532	-0.001723	-0.002706	-14.398720	-82.351745	-44.535271
07408	9.684784	-0.292195	1.242671	-0.010170	0.000233	-0.002823	-14.383619	-82.351442	-44.551528
07409	9.696217	-0.310095	1.229931	-0.005358	-0.001443	0.009820	-14.418999	-82.350227	-44.514082
07410	9.683980	-0.328101	1.242372	-0.006890	0.000755	0.008304	-14.447453	-82.348049	-44.485126
07411	9.641729	-0.362642	1.250713	-0.008217	0.001402	0.008772	-14.477089	-82.345400	-44.455130
07412	9.671678	-0.347173	1.254994	-0.003589	0.000054	0.012403	-14.521386	-82.343022	-44.408002
07413	9.689412	-0.348761	1.271768	-0.008217	0.001401	0.008773	-14.550979	-82.340368	-44.378048
07414	9.647484	-0.365660	1.208802	-0.005141	-0.003608	0.008292	-14.582911	-82.340599	-44.344113
07415	9.660205	-0.332454	1.267258	-0.004020	-0.002701	0.005838	-14.602380	-82.340640	-44.321948
07416	9.665306	-0.367768	1.224715	-0.009151	-0.006920	0.010617	-14.649958	-82.342371	-44.275662
07417	9.671682	-0.351488	1.253766	-0.004432	0.000405	0.001869	-14.649955	-82.341263	-44.273381
07418	9.660279	-0.334498	1.266160	-0.004925	-0.005772	0.006763	-14.677784	-82.342902	-44.245855
07419	9.677598	-0.352528	1.211139	-0.006457	-0.003572	0.005248	-14.697162	-82.343506	-44.225191
07420	9.672562	-0.318809	1.252854	-0.001377	-0.003386	0.008415	-14.727171	-82.343581	-44.192280
07421	9.695402	-0.354762	1.227187	-0.005150	-0.003000	0.011808	-14.772223	-82.342909	-44.144956
07422	9.653964	-0.355015	1.235395	-0.004698	-0.001466	0.011346	-14.813956	-82.341483	-44.099555
07423	9.696182	-0.322890	1.226910	-0.002517	-0.003077	0.017899	-14.882644	-82.339948	-44.026859
07424	9.660310	-0.341133	1.264146	-0.002960	-0.005221	0.014847	-14.942465	-82.340091	-43.964957
07425	9.689526	-0.360748	1.267550	-0.004533	-0.007664	0.017764	-15.016778	-82.341092	-43.887751
07426	9.660368	-0.344793	1.262710	-0.004336	-0.008611	0.023265	-15.115753	-82.341831	-43.787564
07427	9.654009	-0.363708	1.232514	-0.005191	-0.007646	0.016243	-15.184208	-82.343020	-43.716650
07428	9.701027	-0.383750	1.252439	-0.003198	-0.008922	0.013782	-15.243565	-82.345312	-43.653325
07429	9.696379	-0.333100	1.222620	-0.005849	-0.007628	0.014722	-15.306172	-82.346700	-43.588692
07430	9.654128	-0.368083	1.230275	-0.004942	-0.004558	0.013798	-15.361826	-82.346564	-43.530990
07431	9.671937	-0.369849	1.246496	-0.004934	-0.005166	0.010283	-15.402900	-82.347250	-43.487555
07432	9.642787	-0.352949	1.241960	-0.004275	-0.005187	0.011806	-15.450942	-82.347760	-43.436857
07433	9.695608	-0.372563	1.220266	-0.008697	-0.005387	0.010163	-15.493946	-82.348578	-43.393649
07434	9.683354	-0.390588	1.232497	-0.006883	0.000753	0.008314	-15.522264	-82.346332	-43.363707
07435	9.660604	-0.356549	1.257630	-0.009356	-0.005367	0.008641	-15.559369	-82.347365	-43.326833
07436	9.683370	-0.392506	1.231761	-0.008243	-0.003853	0.009702	-15.599652	-82.347449	-43.287016
07437	9.660640	-0.358656	1.256752	-0.007584	-0.003874	0.011225	-15.644654	-82.347252	-43.241149
07438	9.660664	-0.359847	1.256229	-0.010476	-0.006277	0.011097	-15.694610	-82.348445	-43.191769
07439	9.695673	-0.378827	1.217821	-0.008902	-0.003833	0.008180	-15.727824	-82.348689	-43.158558
07440	9.696317	-0.363075	1.288602	-0.006712	-0.006059	0.011218	-15.775820	-82.349729	-43.110721
07441	9.684366	-0.363386	1.229480	-0.007577	-0.004481	0.007710	-15.807108	-82.350398	-43.078688
07442	9.648792	-0.363075	1.195620	-0.007576	-0.004482	0.007711	-15.839298	-82.351106	-43.045921
07443	9.689936	-0.382689	1.257940	-0.009318	-0.000116	0.007728	-15.866576	-82.349362	-43.018941
07444	9.665668	-0.399773	1.211756	-0.008653	-0.000743	0.005734	-15.886950	-82.348313	-43.001439
07445	9.666563	-0.365723	1.211935	-0.008192	0.000188	0.001756	-15.888716	-82.347335	-42.999549
07446	9.673001	-0.349206	1.241307	-0.005549	-0.000503	0.004331	-15.901198	-82.346374	-42.986341
07447	9.689910	-0.384723	1.257525	-0.011539	-0.003749	0.002090	-15.910851	-82.347513	-42.978427
07448	9.654314	-0.384065	1.223920	-0.006214	0.000123	0.006325	-15.931119	-82.345895	-42.956240
07449	9.672093	-0.385165	1.240633	-0.009517	0.000835	0.002228	-15.934815	-82.344486	-42.953168
07450	9.684345	-0.368399	1.228153	-0.006867	-0.000460	0.001286	-15.935472	-82.343979	-42.952421
07451	9.673011	-0.351252	1.240655	-0.007116	-0.003553	0.003732	-15.949095	-82.344751	-42.937946
07452	9.672104	-0.386391	1.240161	-0.007992	-0.000767	0.007259	-15.975468	-82.343479	-42.911655
07453	9.649402	-0.352180	1.265448	-0.005343	-0.002062	0.006317	-15.996915	-82.343020	-42.888260
07454	9.654310	-0.387344	1.222914	-0.009355	-0.005374	0.008645	-16.034756	-82.344050	-42.850975
07455	9.672117	-0.388891	1.239280	-0.007332	-0.000790	0.008783	-16.065943	-82.342497	-42.818903
07456	9.649409	-0.354756	1.264680	-0.006213	0.000121	0.006327	-16.086386	-82.340879	-42.796291
07457	9.683404	-0.407831	1.226506	-0.008197	0.000790	0.005276	-16.101824	-82.339009	-42.780608
07458	9.642889	-0.372757	1.235364	-0.007077	0.001701	0.002820	-16.106440	-82.337075	-42.773787
07459	9.636133	-0.407871	1.277008	-0.005548	-0.000505	0.004333	-16.118022	-82.336068	-42.760464
07460	9.655125	-0.356463	1.222947	-0.006412	0.001076	0.000825	-16.114757	-82.334787	-42.763879
07461	9.672924	-0.357318	1.239603	-0.008646	-0.001348	0.002220	-16.120466	-82.334580	-42.758272
07462	9.690747	-0.358213	1.256061	-0.009760	-0.002861	0.001159	-16.124946	-82.335410	-42.754692
07463	9.684293	-0.375318	1.226466	-0.008191	0.000187	0.001759	-16.126695	-82.334431	-42.752819
07464	9.672012	-0.392827	1.238858	-0.008651	-0.000747	0.005739	-16.146859	-82.333368	-42.734656
07465	9.696564	-0.359227	1.213719	-0.007776	-0.003532	0.002210	-16.154613	-82.334364	-42.726483
07466	9.660667	-0.376394	1.251349	-0.005968	0.003813	0.007401	-16.174559	-82.330522	-42.707104
07467	9.684213	-0.377495	1.226428	-0.007741	0.002324	0.004817	-16.186001	-82.327879	-42.695191
07468	9.659622	-0.412201	1.251468	-0.009520	0.001435	0.005750	-16.204114	-82.325617	-42.675816
07469	9.672805	-0.361326	1.239370	-0.006212	0.000117	0.006329	-16.223455	-82.323946	-42.655048
07470	9.690578	-0.362681	1.256082	-0.007536	0.000764	0.006801	-16.245696	-82.321888	-42.631459
07471	9.659520	-0.414411	1.251521	-0.009315	-0.000125	0.007735	-16.272819	-82.320121	-42.604633
07472	9.678529	-0.363022	1.197566	-0.005292	0.001989	-0.001629	-16.257556	-82.318727	-42.618667
07473	9.653915	-0.397397	1.222807	-0.007496	0.006018	0.005892	-16.268798	-82.313877	-42.606812
07474	9.660354	-0.380932	1.252391	-0.006656	-0.002619	-0.000246	-16.265608	-82.314803	-42.609085
07475	9.671710	-0.398449	1.239416	-0.009964	-0.001301	-0.000824	-16.259590	-82.315057	-42.616075
07476	9.630336	-0.397483	1.247595	-0.010874	-0.004374	0.000097	-16.262499	-82.316899	-42.613901
07477	9.660472	-0.381013	1.251456	-0.006651	-0.003219	-0.003765	-16.244869	-82.318679	-42.630691
07478	9.678322	-0.381480	1.267842	-0.007316	-0.002596	-0.001769	-16.236067	-82.319841	-42.639957
07479	9.689707	-0.398765	1.254708	-0.012852	-0.004303	-0.004471	-16.220384	-82.322330	-42.658368
07480	9.666398	-0.380153	1.208802	-0.009259	0.003330	-0.003727	-16.197680	-82.320545	-42.682043
07481	9.667070	-0.363376	1.280196	-0.005536	-0.001707	-0.002702	-16.181937	-82.321321	-42.696286
07482	9.689767	-0.398005	1.254489	-0.011942	-0.001231	-0.005391	-16.159291	-82.322308	-42.721034
07483	9.672948	-0.362263	1.237980	-0.004412	-0.001392	-0.008676	-16.118129	-82.323860	-42.760275
07484	9.660764	-0.378802	1.249872	-0.014874	-0.008890	-0.004612	-16.109227	-82.328931	-42.772111
07485	9.665739	-0.412579	1.206887	-0.011522	-0.005550	-0.008460	-16.077875	-82.332734	-42.805563
07486	9.673224	-0.360579	1.236308	-0.002428	-0.002062	-0.007626	-16.041781	-82.334535	-42.837653
07487	9.684603	-0.377249	1.223421	-0.013466	0.000375	-0.010416	-15.996526	-82.335378	-42.886257
07488	9.672375	-0.393623	1.235769	-0.008839	-0.000990	-0.006795	-15.966027	-82.336444	-42.916941
07489	9.679805	-0.341952	1.265440	-0.005536	-0.001709	-0.002701	-15.950238	-82.337213	-42.931228
07490	9.690269	-0.393547	1.252017	-0.011731	-0.003394	-0.006923	-15.923609	-82.339615	-42.961619
07491	9.643372	-0.374576	1.231041	-0.003346	-0.003940	0.000331	-15.921583	-82.341135	-42.960754
07492	9.662204	-0.340834	1.247283	-0.008715	-0.012466	0.000519	-15.934239	-82.347365	-42.948284
07493	9.696352	-0.393432	1.207741	-0.010703	-0.011200	0.002989	-15.955844	-82.352466	-42.927829
07494	9.690882	-0.376051	1.177852	-0.000702	-0.004635	0.002902	-15.964589	-82.354007	-42.914897
07495	9.673811	-0.359341	1.232074	-0.008891	-0.004455	0.004669	-15.984158	-82.355127	-42.895449
07496	9.696506	-0.394572	1.206135	-0.002232	-0.002428	0.001394	-15.984821	-82.355683	-42.892046
07497	9.662522	-0.342544	1.244347	-0.000458	-0.000940	0.003978	-15.992596	-82.354976	-42.879623
07498	9.667369	-0.377176	1.201951	-0.007983	-0.001382	0.003749	-16.005399	-82.354601	-42.865021
07499	9.684223	-0.412859	1.218330	-0.001538	0.003401	0.005529	-16.015039	-82.351257	-42.851340
07500	9.668946	-0.327337	1.273876	-0.002901	-0.001210	0.006908	-16.037483	-82.350277	-42.826625
07501	9.685109	-0.379716	1.218645	-0.010425	-0.001652	0.006680	-16.062868	-82.349532	-42.802195
07502	9.679330	-0.380824	1.260324	-0.004679	-0.002102	0.007843	-16.091220	-82.348893	-42.771812
07503	9.650216	-0.363539	1.255997	-0.006702	-0.006688	0.007700	-16.124608	-82.350755	-42.737156
07504	9.672922	-0.399115	1.229706	-0.011784	-0.006859	0.004541	-16.149015	-82.353254	-42.712999
07505	9.672961	-0.399715	1.229211	-0.004014	-0.002724	0.005847	-16.168586	-82.353226	-42.690729
07506	9.680432	-0.348988	1.258705	-0.003805	-0.004882	0.004310	-16.185320	-82.354676	-42.670853
07507	9.673975	-0.366381	1.228702	-0.010009	-0.005373	0.007127	-16.216736	-82.355898	-42.640098
07508	9.696634	-0.402214	1.202575	-0.006250	-0.004558	0.010760	-16.260856	-82.356129	-42.595068
07509	9.680510	-0.351667	1.257363	-0.005341	-0.001484	0.009841	-16.296078	-82.354771	-42.557774
07510	9.686252	-0.352424	1.215309	-0.004681	-0.001510	0.011364	-16.338209	-82.353228	-42.511639
07511	9.673950	-0.370632	1.227627	-0.004226	0.000027	0.010904	-16.375299	-82.350860	-42.471815
07512	9.638070	-0.388571	1.265087	-0.004475	-0.003073	0.013346	-16.427015	-82.349834	-42.419427
07513	9.661675	-0.390326	1.239236	-0.010716	-0.009416	0.013550	-16.490026	-82.352217	-42.357202
07514	9.662718	-0.357424	1.238629	-0.000342	-0.011241	0.018328	-16.569839	-82.354852	-42.274044
07515	9.686330	-0.359661	1.212566	-0.008487	-0.005801	0.019197	-16.650336	-82.354303	-42.192888
07516	9.660798	-0.430127	1.236261	-0.008940	-0.007933	0.016138	-16.722217	-82.355461	-42.119021
07517	9.656299	-0.379520	1.206627	-0.008526	-0.011655	0.016583	-16.799272	-82.358527	-42.041361
07518	9.673200	-0.416232	1.221824	-0.017122	-0.008937	0.010873	-16.855271	-82.361073	-41.989658
07519	9.667693	-0.399415	1.192123	-0.002029	-0.003400	0.006897	-16.878859	-82.361204	-41.962189
07520	9.680805	-0.366851	1.250735	-0.008232	-0.003890	0.009719	-16.919057	-82.361176	-41.919494
07521	9.680001	-0.384196	1.178922	-0.012654	-0.004081	0.008085	-16.954437	-82.361478	-41.886269
07522	9.662014	-0.402448	1.232704	-0.004924	-0.005803	0.006770	-16.983283	-82.362988	-41.855931
07523	9.668593	-0.386526	1.261781	-0.008437	-0.002326	0.007738	-17.012644	-82.362381	-41.826341
07524	9.674344	-0.386943	1.219460	-0.014431	-0.005565	0.005502	-17.041223	-82.363962	-41.801449
07525	9.645326	-0.369435	1.214757	-0.008067	-0.011900	0.005564	-17.073501	-82.368961	-41.768702
07526	9.692405	-0.389133	1.233875	-0.012079	-0.015221	0.007895	-17.122702	-82.375422	-41.721409
07527	9.674733	-0.389342	1.215608	-0.016296	-0.016977	0.008246	-17.177195	-82.382741	-41.671008
07528	9.662619	-0.407054	1.226427	-0.007200	-0.014677	0.002027	-17.199043	-82.389890	-41.647528
07529	9.686322	-0.407725	1.199812	-0.011828	-0.012711	0.001936	-17.219852	-82.395936	-41.628530
07530	9.687454	-0.373585	1.199298	-0.008684	-0.006615	0.003142	-17.237019	-82.398483	-41.611465
07531	9.709995	-0.408919	1.173185	-0.009300	-0.000736	0.004239	-17.250626	-82.397584	-41.598270
07532	9.680757	-0.409521	1.240203	-0.007316	-0.001411	0.005285	-17.269080	-82.396916	-41.578982
07533	9.662907	-0.409254	1.223422	-0.009962	-0.000708	0.002718	-17.276788	-82.396260	-41.572120
07534	9.692008	-0.427785	1.227079	-0.004878	-0.001138	0.002350	-17.281531	-82.395944	-41.564834
07535	9.657216	-0.410297	1.265111	-0.011946	-0.000034	0.001673	-17.285234	-82.395096	-41.563160
07536	9.675186	-0.392778	1.210883	-0.006613	0.002052	-0.004657	-17.258186	-82.394224	-41.589913
07537	9.693011	-0.393162	1.227821	-0.003718	0.004454	-0.004530	-17.226053	-82.391974	-41.619637
07538	9.668555	-0.408670	1.181950	-0.016120	0.002291	-0.005919	-17.198901	-82.391178	-41.653071
07539	9.674083	-0.425888	1.211460	-0.002353	0.008480	-0.009428	-17.140861	-82.387547	-41.708145
07540	9.651519	-0.390226	1.237845	-0.007025	0.005185	-0.008619	-17.093862	-82.385616	-41.756303
07541	9.644933	-0.405978	1.208649	-0.009920	0.002193	-0.012266	-17.036511	-82.385893	-41.815055
07542	9.676107	-0.354292	1.213426	-0.003762	-0.001397	-0.007151	-17.001880	-82.387309	-41.848826
07543	9.681702	-0.371525	1.242386	-0.008391	0.000568	-0.007241	-16.966275	-82.387624	-41.884755
07544	9.686426	-0.405005	1.199888	-0.011285	-0.001835	-0.007368	-16.935766	-82.389318	-41.918167
07545	9.662880	-0.404137	1.225340	-0.005248	0.006665	-0.006031	-16.895714	-82.386084	-41.956766
07546	9.663874	-0.368932	1.226170	-0.009713	0.000624	-0.010284	-16.849293	-82.386909	-42.005123
07547	9.674112	-0.419996	1.213283	-0.006983	0.010444	-0.009513	-16.791322	-82.382171	-42.062803
07548	9.681617	-0.367996	1.244099	-0.005247	0.006076	-0.009551	-16.738439	-82.379869	-42.113292
07549	9.705125	-0.367615	1.219386	-0.011448	0.005579	-0.006725	-16.700563	-82.377328	-42.153280
07550	9.645836	-0.365245	1.211967	-0.004793	0.008202	-0.006487	-16.657766	-82.373353	-42.195428
07551	9.680428	-0.400720	1.245629	-0.005661	0.010385	-0.006468	-16.611811	-82.368123	-42.240223
07552	9.656959	-0.381231	1.200794	-0.009874	0.007449	-0.013160	-16.545384	-82.365639	-42.306887
07553	9.662482	-0.398081	1.230448	-0.001485	0.006296	-0.009440	-16.489946	-82.363128	-42.358837
07554	9.652169	-0.345167	1.244217	-0.008592	0.001543	-0.012740	-16.431728	-82.363800	-42.418711
07555	9.669057	-0.379300	1.260416	-0.011030	0.000676	-0.013326	-16.372643	-82.364992	-42.479858
07556	9.639000	-0.394403	1.256171	-0.004169	0.001148	-0.014629	-16.304274	-82.366162	-42.545010
07557	9.664561	-0.324545	1.231839	-0.011732	-0.003969	-0.010431	-16.262998	-82.369427	-42.588593
07558	9.674968	-0.375747	1.218015	-0.011734	-0.003382	-0.006910	-16.236139	-82.371837	-42.618437
07559	9.675022	-0.375248	1.217737	-0.006858	-0.001649	-0.005737	-16.208529	-82.373069	-42.645415
07560	9.692877	-0.375623	1.234350	-0.014133	0.001599	-0.004870	-16.185576	-82.372416	-42.671020
07561	9.675036	-0.374490	1.217862	-0.008595	0.002716	-0.005696	-16.153923	-82.371235	-42.703081
07562	9.681590	-0.357616	1.247331	-0.004007	-0.003917	-0.001193	-16.146802	-82.373024	-42.709029
07563	9.680650	-0.391920	1.246705	-0.013679	0.003136	-0.005326	-16.119086	-82.371550	-42.740057
07564	9.675067	-0.373887	1.217800	-0.007521	-0.000447	-0.000217	-16.113938	-82.371277	-42.745366
07565	9.658224	-0.338532	1.201429	-0.007105	-0.004756	-0.003301	-16.100151	-82.373824	-42.758540
07566	9.639367	-0.390652	1.254519	-0.009998	-0.006575	0.000090	-16.105090	-82.376878	-42.756423
07567	9.680874	-0.391725	1.245030	-0.012681	-0.011136	-0.001581	-16.109146	-82.382664	-42.754819
07568	9.705500	-0.357416	1.219427	-0.009335	-0.007191	-0.001908	-16.105860	-82.386365	-42.758770
07569	9.675494	-0.373689	1.214458	-0.008881	-0.005652	-0.002365	-16.097986	-82.389257	-42.767006
07570	9.693423	-0.374277	1.230468	-0.006235	-0.006939	-0.003321	-16.087029	-82.393054	-42.775701
07571	9.686909	-0.390640	1.200749	-0.006821	0.004198	-0.003106	-16.063204	-82.390639	-42.798838
07572	9.675588	-0.373106	1.213894	-0.007728	0.001119	-0.002193	-16.048041	-82.389812	-42.814728
07573	9.699947	-0.357354	1.260261	-0.005292	0.002573	0.001914	-16.045971	-82.387496	-42.815033
07574	9.669812	-0.374008	1.256201	-0.006614	0.003216	0.002392	-16.046510	-82.384785	-42.814002
07575	9.676420	-0.339161	1.215258	-0.006821	0.004784	0.000415	-16.036528	-82.381489	-42.823174
07576	9.675414	-0.373761	1.215077	-0.005499	0.004141	-0.000064	-16.025164	-82.378655	-42.834444
07577	9.669674	-0.374461	1.257125	-0.006860	-0.000478	0.001306	-16.025105	-82.378115	-42.833628
07578	9.698944	-0.374319	1.189914	-0.006860	-0.000478	0.001306	-16.026099	-82.377624	-42.832573
07579	9.669653	-0.374955	1.257143	-0.010375	0.002990	0.002286	-16.027984	-82.375019	-42.831826
07580	9.651791	-0.374436	1.240599	-0.003100	-0.000254	0.001414	-16.026936	-82.374390	-42.828304
07581	9.669638	-0.375544	1.257084	-0.014173	-0.002496	0.003069	-16.040704	-82.374682	-42.817764
07582	9.675367	-0.375363	1.214960	-0.008636	-0.001375	0.002242	-16.047226	-82.374525	-42.811440
07583	9.669672	-0.376225	1.256614	-0.009751	-0.002886	0.001177	-16.051140	-82.375331	-42.808285
07584	9.668881	-0.392297	1.184824	-0.011072	-0.002827	-0.001864	-16.044022	-82.376629	-42.816732
07585	9.681998	-0.359141	1.243722	0.000869	-0.002182	-0.000023	-16.036082	-82.377238	-42.819398
07586	9.681100	-0.393620	1.242673	-0.016401	-0.006103	-0.002579	-16.033329	-82.380463	-42.828587
07587	9.686851	-0.392977	1.200461	-0.005744	0.000447	-0.001148	-16.021434	-82.379802	-42.839065
07588	9.694358	-0.341953	1.230569	-0.007974	-0.001990	0.000243	-16.020191	-82.380304	-42.839950
07589	9.675573	-0.376005	1.213113	-0.013058	-0.000989	0.004137	-16.035940	-82.379597	-42.826767
07590	9.682103	-0.360062	1.242637	-0.002439	0.000299	0.006456	-16.054483	-82.377860	-42.803381
07591	9.699911	-0.361638	1.259314	-0.006861	0.000687	0.008350	-16.082020	-82.375562	-42.774723
07592	9.664184	-0.361153	1.226045	-0.008639	0.000372	0.012807	-16.130246	-82.372777	-42.725140
07593	9.669723	-0.380236	1.255019	-0.006861	0.000686	0.008351	-16.157744	-82.370473	-42.696520
07594	9.664109	-0.363399	1.225970	-0.011530	-0.002036	0.012678	-16.209861	-82.369022	-42.645295
07595	9.681942	-0.365449	1.242320	-0.009545	-0.003292	0.010198	-16.251201	-82.368606	-42.604262
07596	9.651842	-0.382807	1.237640	-0.006446	-0.003037	0.008784	-16.285480	-82.368316	-42.568346
07597	9.651856	-0.383652	1.237276	-0.009545	-0.003874	0.006678	-16.313062	-82.368780	-42.541192
07598	9.681010	-0.402485	1.240527	-0.008883	-0.004487	0.004677	-16.333497	-82.369938	-42.521460
07599	9.676423	-0.350358	1.212047	-0.006404	0.001061	0.000854	-16.329451	-82.368624	-42.524402
07600	9.657453	-0.402961	1.265659	-0.005082	0.001000	0.003896	-16.338081	-82.366898	-42.514099
07601	9.675381	-0.385626	1.211630	-0.009710	0.002958	0.003815	-16.345792	-82.364063	-42.507089
07602	9.670629	-0.352000	1.254371	-0.003305	0.001316	-0.000561	-16.334611	-82.362877	-42.515744
07603	9.664054	-0.368716	1.224819	-0.007520	0.000133	0.003311	-16.342394	-82.361678	-42.507396
07604	9.680907	-0.404422	1.240704	-0.008635	-0.001377	0.002245	-16.349140	-82.361526	-42.499713
07605	9.687579	-0.369709	1.199492	-0.007727	0.002284	0.004857	-16.360786	-82.358894	-42.487586
07606	9.669560	-0.388089	1.253867	-0.007727	0.002284	0.004857	-16.373136	-82.356301	-42.474940
07607	9.693062	-0.388855	1.228790	-0.011486	0.002059	0.004752	-16.386760	-82.353809	-42.462991
07608	9.657331	-0.387595	1.195757	0.000909	0.003660	0.002612	-16.383149	-82.350818	-42.460177
07609	9.675135	-0.388724	1.212601	-0.009503	0.000805	0.002271	-16.386981	-82.349416	-42.456961
07610	9.657261	-0.388416	1.196053	-0.010825	0.002027	0.006273	-16.407090	-82.346733	-42.436830
07611	9.680610	-0.407880	1.241891	-0.003512	0.004047	0.004508	-16.412731	-82.343187	-42.428326
07612	9.681539	-0.373961	1.242920	-0.010370	0.003567	0.005819	-16.429182	-82.339740	-42.413012
07613	9.710599	-0.392820	1.246818	-0.005743	0.001608	0.005899	-16.444700	-82.337308	-42.395831
07614	9.651318	-0.391752	1.238932	-0.005744	0.002187	0.009422	-16.474905	-82.334034	-42.363678
07615	9.692644	-0.393658	1.230551	-0.008387	0.002893	0.006860	-16.494282	-82.330739	-42.344132
07616	9.662449	-0.410595	1.226593	-0.004379	0.006229	0.004535	-16.498714	-82.326034	-42.336746
07617	9.669927	-0.360139	1.257469	-0.002396	0.005554	0.005576	-16.506181	-82.321484	-42.325753
07618	9.651011	-0.394313	1.240506	-0.009709	0.002956	0.003818	-16.514685	-82.318693	-42.317372
07619	9.674485	-0.394916	1.215785	-0.005906	0.008442	0.003041	-16.510339	-82.312970	-42.320328
07620	9.692242	-0.396106	1.232929	-0.009047	0.002345	0.001817	-16.510987	-82.310838	-42.319856
07621	9.679896	-0.413524	1.245582	-0.005699	0.006292	0.001494	-16.502831	-82.306548	-42.326538
07622	9.680852	-0.378988	1.246749	-0.005492	0.003563	-0.003576	-16.478020	-82.304621	-42.350464
07623	9.650693	-0.395074	1.242737	-0.008136	0.004847	-0.002615	-16.456317	-82.301791	-42.372225
07624	9.698603	-0.379144	1.264232	-0.001937	0.004781	-0.008968	-16.406097	-82.300065	-42.419710
07625	9.661939	-0.411055	1.230444	-0.009704	0.000643	-0.010273	-16.359219	-82.300780	-42.467782
07626	9.650667	-0.393029	1.243583	-0.001071	0.003177	-0.005471	-16.324487	-82.299356	-42.499410
07627	9.698594	-0.376895	1.264971	-0.004374	0.003915	-0.009554	-16.273593	-82.298146	-42.548453
07628	9.692019	-0.392652	1.235785	-0.007680	0.005808	-0.006590	-16.235176	-82.295453	-42.587791
07629	9.680675	-0.374933	1.249342	-0.003922	0.006610	-0.002961	-16.207681	-82.291697	-42.612962
07630	9.691909	-0.391964	1.236867	-0.007474	0.004235	-0.004615	-16.179003	-82.289547	-42.641686
07631	9.662758	-0.373167	1.233662	-0.005240	0.006096	-0.009526	-16.126240	-82.287115	-42.693117
07632	9.669268	-0.356098	1.263674	-0.006607	0.002053	-0.004642	-16.099728	-82.286173	-42.718555
07633	9.650461	-0.389384	1.246332	-0.009499	-0.000355	-0.004775	-16.076309	-82.286531	-42.742836
07634	9.662784	-0.371856	1.233855	-0.005327	-0.003852	-0.004243	-16.057679	-82.288776	-42.759219
07635	9.680641	-0.372102	1.250454	-0.006810	0.003047	-0.010138	-16.006924	-82.288106	-42.809531
07636	9.651541	-0.353237	1.246821	-0.006854	-0.001638	-0.005736	-15.980454	-82.289360	-42.836566
07637	9.709812	-0.389263	1.254043	-0.008838	-0.000388	-0.003254	-15.962871	-82.289490	-42.854575
07638	9.669385	-0.353489	1.263513	-0.007475	0.004233	-0.004613	-15.934333	-82.287328	-42.882173
07639	9.697491	-0.406017	1.266770	-0.007931	0.003269	-0.000637	-15.922634	-82.285029	-42.893721
07640	9.657032	-0.370565	1.276373	-0.007931	0.003269	-0.000637	-15.911633	-82.282769	-42.904866
07641	9.650464	-0.386882	1.247083	-0.008796	0.004874	-0.004131	-15.884381	-82.280134	-42.932609
07642	9.669216	-0.352833	1.264988	-0.007679	0.005805	-0.006586	-15.846143	-82.277405	-42.971240
07643	9.662695	-0.368822	1.235461	-0.008629	-0.002539	-0.004802	-15.824648	-82.278956	-42.993078
07644	9.691848	-0.386534	1.239051	-0.005944	0.001442	-0.006642	-15.790346	-82.278640	-43.026506
07645	9.651445	-0.350467	1.248344	-0.007512	-0.001607	-0.007257	-15.757144	-82.280057	-43.059513
07646	9.680615	-0.368190	1.251810	-0.009951	-0.001899	-0.004321	-15.738431	-82.281220	-43.079346
07647	9.669329	-0.350723	1.264708	-0.005741	0.000445	-0.001145	-15.726714	-82.280553	-43.089646
07648	9.680636	-0.367807	1.251762	-0.009043	0.001182	-0.005226	-15.700172	-82.280151	-43.116988
07649	9.650569	-0.383962	1.247178	-0.009086	-0.003505	-0.000827	-15.696188	-82.281612	-43.121419
07650	9.680712	-0.367397	1.251292	-0.009288	-0.002508	-0.006322	-15.669580	-82.283416	-43.148589
07651	9.680787	-0.366988	1.250835	-0.008214	-0.006262	-0.004378	-15.653774	-82.286948	-43.164446
07652	9.657327	-0.366637	1.275275	-0.009123	-0.009344	-0.003473	-15.646353	-82.292078	-43.171750
07653	9.692322	-0.383918	1.236157	-0.011107	-0.008097	-0.000989	-15.648094	-82.296097	-43.171572
07654	9.675526	-0.348447	1.219740	-0.007969	-0.002573	-0.003279	-15.633139	-82.297462	-43.187146
07655	9.681105	-0.366405	1.248544	-0.009045	0.001756	-0.001700	-15.619544	-82.296155	-43.201252
07656	9.711194	-0.350223	1.252952	-0.012392	-0.001620	0.002141	-15.628000	-82.296154	-43.194558
07657	9.686833	-0.365982	1.206638	-0.005949	0.002592	0.000407	-15.620275	-82.294060	-43.200950
07658	9.674538	-0.383438	1.219033	-0.007065	0.001658	0.002862	-15.624893	-82.292141	-43.194925
07659	9.681007	-0.367190	1.249068	-0.007023	0.006347	-0.001535	-15.605595	-82.288274	-43.213616
07660	9.657384	-0.367173	1.274688	-0.009707	0.002363	0.000303	-15.600798	-82.286370	-43.219142
07661	9.674376	-0.383649	1.220247	-0.006569	0.007888	-0.001986	-15.577680	-82.281722	-43.241427
07662	9.657254	-0.366929	1.275741	-0.009456	0.004904	-0.005644	-15.545365	-82.279322	-43.272991
07663	9.673325	-0.417294	1.220472	-0.007017	0.005198	-0.008579	-15.498758	-82.277165	-43.319238
07664	9.675943	-0.332144	1.294203	-0.003262	0.006001	-0.004952	-15.464604	-82.274046	-43.350829
07665	9.662881	-0.364455	1.235304	-0.017632	0.004476	-0.007373	-15.429855	-82.272096	-43.391248
07666	9.661923	-0.398428	1.234718	-0.005943	0.001443	-0.006637	-15.395672	-82.271752	-43.424086
07667	9.659034	-0.295362	1.278968	-0.010403	-0.003444	-0.003867	-15.379942	-82.273639	-43.441131
07668	9.704363	-0.364379	1.226395	-0.013295	-0.005282	-0.000480	-15.382381	-82.276062	-43.443251
07669	9.651696	-0.346469	1.247521	-0.007104	-0.003609	0.003734	-15.395901	-82.276884	-43.428871
07670	9.669573	-0.347900	1.263622	-0.015528	-0.007153	0.004428	-15.421734	-82.279597	-43.406852
07671	9.680000	-0.400106	1.249151	-0.006442	-0.004216	0.001732	-15.427409	-82.281058	-43.400006
07672	9.668725	-0.382957	1.261859	-0.008630	-0.001969	-0.001277	-15.420357	-82.281782	-43.406539
07673	9.663164	-0.364854	1.232970	-0.008384	0.001720	-0.000176	-15.412699	-82.280256	-43.414271
07674	9.650947	-0.381750	1.244925	-0.006433	-0.005933	-0.008836	-15.377909	-82.284312	-43.449320
07675	9.657545	-0.364601	1.274206	-0.006848	-0.002211	-0.009255	-15.336753	-82.286334	-43.489968
07676	9.692478	-0.381035	1.235827	-0.009698	0.000641	-0.010260	-15.290708	-82.286974	-43.535215
07677	9.652059	-0.344529	1.245250	-0.004615	-0.000339	-0.014162	-15.226121	-82.288692	-43.598216
07678	9.692567	-0.378631	1.235868	-0.005484	0.001841	-0.014129	-15.160524	-82.289232	-43.663456
07679	9.693498	-0.342878	1.237071	-0.005240	0.005529	-0.013028	-15.094414	-82.287515	-43.728356
07680	9.645598	-0.357182	1.216263	0.000916	0.001367	-0.011468	-15.036733	-82.287910	-43.781528
07681	9.693498	-0.340682	1.237678	-0.006356	0.004591	-0.010574	-14.982354	-82.286330	-43.835235
07682	9.711268	-0.340655	1.255015	-0.005659	0.009822	-0.009923	-14.925297	-82.281794	-43.891787
07683	9.657580	-0.356307	1.276281	-0.005942	0.001441	-0.006633	-14.890266	-82.281364	-43.925730
07684	9.664084	-0.339221	1.306080	-0.005939	0.000869	-0.010155	-14.842365	-82.281813	-43.973978
07685	9.687698	-0.338376	1.280799	-0.008167	-0.001578	-0.008771	-14.803136	-82.283362	-44.013445
07686	9.664340	-0.318692	1.235097	-0.005525	-0.002281	-0.006214	-14.774457	-82.284973	-44.039590
07687	9.700043	-0.320123	1.268084	-0.008417	-0.004123	-0.002828	-14.762394	-82.287060	-44.051786
07688	9.693593	-0.336780	1.237998	-0.007105	-0.003046	0.007255	-14.790423	-82.287117	-44.024589
07689	9.670034	-0.337639	1.262875	-0.005123	-0.003717	0.008292	-14.821524	-82.287351	-43.991323
07690	9.669139	-0.372683	1.261763	-0.006856	-0.000500	0.001313	-14.822148	-82.286863	-43.988945
07691	9.651346	-0.372379	1.244672	-0.002724	-0.008110	0.009746	-14.862587	-82.289314	-43.944867
07692	9.670151	-0.339663	1.261437	-0.009123	-0.007640	0.007087	-14.896062	-82.291932	-43.913158
07693	9.675808	-0.358596	1.289525	-0.001608	-0.007173	0.007293	-14.924857	-82.294219	-43.880187
07694	9.693869	-0.341241	1.234613	-0.011351	-0.010087	0.008472	-14.967844	-82.297978	-43.838815
07695	9.656437	-0.409212	1.198762	-0.003137	-0.004961	0.005807	-14.989054	-82.299255	-43.814382
07696	9.664682	-0.343359	1.300566	-0.004663	-0.003318	0.000798	-14.989702	-82.300412	-43.811555
07697	9.663952	-0.359157	1.228455	-0.007347	-0.006736	0.006155	-15.016712	-82.302618	-43.783704
07698	9.670515	-0.343332	1.257649	-0.007761	-0.003584	0.002216	-15.025206	-82.303712	-43.774381
07699	9.669628	-0.378127	1.256387	-0.004003	-0.003352	0.002318	-15.030882	-82.304614	-43.766125
07700	9.682815	-0.326765	1.244846	-0.005988	-0.002110	0.004805	-15.047251	-82.304504	-43.746549
07701	9.670605	-0.344678	1.256589	-0.008669	-0.006100	0.006640	-15.076331	-82.306283	-43.717373
07702	9.681968	-0.362802	1.242891	-0.007349	-0.006168	0.009679	-15.117852	-82.307681	-43.675940
07703	9.712054	-0.347564	1.247013	-0.011731	-0.000533	0.010715	-15.159228	-82.305766	-43.636128
07704	9.664116	-0.364370	1.225631	-0.005577	-0.004126	0.015791	-15.222729	-82.305116	-43.571770
07705	9.651882	-0.383354	1.237158	-0.012016	-0.008349	0.017525	-15.300823	-82.306483	-43.495071
07706	9.687714	-0.367787	1.198993	-0.008465	-0.006541	0.015658	-15.368053	-82.307164	-43.427776
07707	9.695078	-0.337779	1.299898	-0.006445	-0.001948	0.015828	-15.428832	-82.305229	-43.365328
07708	9.694223	-0.354920	1.227958	-0.013092	-0.004025	0.019116	-15.509663	-82.303961	-43.286410
07709	9.651850	-0.390565	1.235157	-0.005370	-0.005141	0.021288	-15.595697	-82.302926	-43.197856
07710	9.693217	-0.393584	1.226056	-0.007352	-0.004469	0.020254	-15.678684	-82.301706	-43.114959
07711	9.681917	-0.378295	1.238661	-0.006690	-0.005073	0.018251	-15.752958	-82.301071	-43.039035
07712	9.640528	-0.379395	1.246656	-0.003841	-0.007362	0.022776	-15.847409	-82.301018	-42.941939
07713	9.658381	-0.382558	1.262548	-0.008259	-0.007557	0.021157	-15.937297	-82.301265	-42.851166
07714	9.670668	-0.367452	1.249631	-0.008258	-0.007558	0.021159	-16.027979	-82.301536	-42.759779
07715	9.694219	-0.369415	1.223706	-0.005367	-0.005715	0.017770	-16.100259	-82.301269	-42.685102
07716	9.651817	-0.404519	1.230916	-0.008216	-0.003425	0.013246	-16.153967	-82.300496	-42.632097
07717	9.664065	-0.388349	1.218645	-0.005077	0.001541	0.007436	-16.175442	-82.297868	-42.608519
07718	9.681861	-0.390188	1.235405	-0.004416	0.001504	0.008956	-16.203438	-82.295057	-42.576881
07719	9.676238	-0.372775	1.206826	-0.004622	0.003084	0.006986	-16.220967	-82.291649	-42.557022
07720	9.687301	-0.410047	1.264624	-0.006398	0.002179	0.007922	-16.244926	-82.288623	-42.531625
07721	9.663834	-0.391492	1.219473	-0.007264	0.003795	0.004432	-16.252720	-82.285231	-42.523116
07722	9.658066	-0.393020	1.261746	-0.004828	0.004662	0.005017	-16.261179	-82.281307	-42.513527
07723	9.681554	-0.393601	1.236725	-0.008174	0.000710	0.005332	-16.276783	-82.279468	-42.497663
07724	9.669240	-0.411311	1.248925	-0.005738	0.001012	0.002392	-16.279640	-82.277981	-42.493507
07725	9.670279	-0.377083	1.249771	-0.009745	-0.002904	0.001186	-16.283603	-82.278795	-42.490300
07726	9.693817	-0.377411	1.224452	-0.008380	0.002289	0.003363	-16.290395	-82.276451	-42.483184
07727	9.657965	-0.394990	1.261905	-0.006854	-0.000494	0.001322	-16.290394	-82.275917	-42.482304
07728	9.681485	-0.395500	1.236658	-0.008834	0.001310	0.007339	-16.314570	-82.273466	-42.458020
07729	9.682471	-0.361672	1.237854	-0.007263	0.003794	0.004434	-16.322328	-82.270074	-42.449548
07730	9.670149	-0.379417	1.250076	-0.007969	-0.001436	0.003777	-16.334808	-82.269705	-42.436729
07731	9.682417	-0.362624	1.237999	-0.005943	0.003155	0.003949	-16.340590	-82.266742	-42.429487
07732	9.657798	-0.397623	1.262351	-0.009289	-0.000798	0.004263	-16.355034	-82.265943	-42.415858
07733	9.657815	-0.398081	1.262077	-0.005783	-0.004256	0.003255	-16.366711	-82.267165	-42.402574
07734	9.681409	-0.398499	1.236293	-0.009995	-0.006028	0.003605	-16.385347	-82.269352	-42.385884
07735	9.640069	-0.397739	1.244484	-0.002892	-0.002410	-0.000135	-16.379450	-82.270107	-42.388664
07736	9.664543	-0.382800	1.290545	-0.010860	-0.003847	0.003643	-16.396104	-82.271089	-42.373612
07737	9.669219	-0.416670	1.247307	-0.005327	-0.002714	0.002806	-16.403879	-82.271536	-42.364003
07738	9.682609	-0.365165	1.235748	-0.007559	-0.005724	0.000665	-16.408612	-82.274022	-42.360011
07739	9.687281	-0.398722	1.192584	-0.010816	0.000858	-0.000743	-16.400895	-82.273079	-42.369209
07740	9.670356	-0.382576	1.247504	-0.002892	-0.002410	-0.000135	-16.395962	-82.273881	-42.371630
07741	9.670353	-0.382733	1.247477	-0.009039	0.002325	0.001848	-16.395978	-82.271713	-42.371997
07742	9.688192	-0.383954	1.264107	-0.004212	-0.001772	0.000351	-16.393061	-82.272088	-42.372864
07743	9.670368	-0.383027	1.247273	-0.007969	-0.002000	0.000253	-16.391160	-82.272555	-42.374548
07744	9.688241	-0.384116	1.263677	-0.008630	-0.001962	-0.001267	-16.383970	-82.273283	-42.380695
07745	9.640298	-0.399520	1.242139	-0.006237	-0.005802	0.003704	-16.399589	-82.275282	-42.363696
07746	9.681754	-0.400884	1.232814	-0.006033	-0.007946	0.002147	-16.412135	-82.278753	-42.349261
07747	9.681812	-0.401212	1.232257	-0.009084	-0.002945	0.002709	-16.421957	-82.279341	-42.339758
07748	9.670640	-0.384353	1.244752	-0.010245	-0.009718	0.002498	-16.440643	-82.283733	-42.321921
07749	9.670733	-0.384654	1.243942	-0.005578	-0.006403	0.001698	-16.448505	-82.286385	-42.312369
07750	9.640686	-0.401146	1.238602	-0.008925	-0.010357	0.002012	-16.464923	-82.291197	-42.295183
07751	9.676524	-0.403567	1.270728	-0.009380	-0.011901	0.002461	-16.484686	-82.296746	-42.275820
07752	9.671097	-0.385696	1.240786	-0.012475	-0.012169	0.003885	-16.513070	-82.302249	-42.249042
07753	9.676796	-0.404345	1.268406	-0.005829	-0.010091	0.000590	-16.521065	-82.307105	-42.239502
07754	9.701501	-0.370101	1.243086	-0.014456	-0.011494	0.002855	-16.545869	-82.312407	-42.219200
07755	9.700544	-0.405067	1.241083	-0.006691	-0.007350	0.004156	-16.565588	-82.315175	-42.198328
07756	9.683830	-0.369976	1.224694	-0.011564	-0.009084	0.002990	-16.586118	-82.319122	-42.179628
07757	9.659323	-0.405174	1.248207	-0.011308	-0.004838	0.007627	-16.619600	-82.319941	-42.147539
07758	9.666063	-0.370356	1.206879	-0.008213	-0.004570	0.006203	-16.645916	-82.320882	-42.121049
07759	9.670618	-0.423879	1.233958	-0.007349	-0.006752	0.006163	-16.673520	-82.322988	-42.092602
07760	9.690679	-0.356482	1.252086	-0.008217	-0.005130	0.002676	-16.686357	-82.324821	-42.079116
07761	9.671806	-0.390545	1.233717	-0.010898	-0.008566	0.008038	-16.725873	-82.327610	-42.040702
07762	9.695402	-0.391402	1.207391	-0.006732	-0.012064	0.008541	-16.770155	-82.332269	-41.996382
07763	9.702144	-0.376105	1.236245	-0.012424	-0.006345	0.006559	-16.801856	-82.334078	-41.966736
07764	9.677645	-0.392015	1.189321	-0.008870	-0.003974	0.008213	-16.836049	-82.334346	-41.933105
07765	9.689916	-0.395033	1.247366	-0.008212	-0.004572	0.006205	-16.861728	-82.335237	-41.907101
07766	9.702240	-0.378481	1.234765	-0.011969	-0.004801	0.006112	-16.890256	-82.336309	-41.880215
07767	9.677725	-0.394153	1.187963	-0.008419	-0.002989	0.004238	-16.906089	-82.336656	-41.864264
07768	9.677686	-0.414517	1.258290	-0.008409	-0.001874	0.011293	-16.950159	-82.335259	-41.819886
07769	9.659846	-0.414292	1.241143	-0.007146	-0.008898	0.004606	-16.974107	-82.338781	-41.795012
07770	9.672202	-0.397564	1.228357	-0.008874	-0.004534	0.004687	-16.994762	-82.339938	-41.774207
07771	9.672262	-0.398144	1.227704	-0.008465	-0.008261	0.005095	-17.020701	-82.343026	-41.748087
07772	9.672332	-0.398678	1.226976	-0.009991	-0.006038	0.003617	-17.039343	-82.345175	-41.731872
07773	9.677976	-0.417366	1.255119	-0.010861	-0.004412	0.000131	-17.041639	-82.346987	-41.730993
07774	9.672434	-0.399128	1.226024	-0.004667	-0.003318	0.000805	-17.042851	-82.348138	-41.726621
07775	9.648979	-0.399413	1.251032	-0.011062	-0.002271	0.001692	-17.048951	-82.348514	-41.722020
07776	9.672482	-0.399500	1.225525	-0.006193	-0.001095	-0.000673	-17.042071	-82.348691	-41.726132
07777	9.702680	-0.383272	1.229820	-0.013049	-0.002149	-0.002865	-17.030574	-82.349765	-41.740434
07778	9.660256	-0.416952	1.237058	-0.008873	-0.004537	0.004689	-17.051396	-82.350926	-41.718779
07779	9.702767	-0.383906	1.228934	-0.012635	-0.005321	0.001070	-17.059681	-82.353077	-41.712882
07780	9.683837	-0.417626	1.210703	-0.009535	-0.004496	0.003170	-17.074297	-82.354454	-41.700106
07781	9.673798	-0.366252	1.224555	-0.008878	-0.005093	0.001162	-17.080527	-82.356465	-41.694111
07782	9.672767	-0.401170	1.222724	-0.012220	-0.008495	0.005005	-17.109518	-82.359735	-41.666749
07783	9.690730	-0.402937	1.238480	-0.009783	-0.007629	0.005586	-17.137536	-82.362388	-41.639294
07784	9.685203	-0.385151	1.209063	-0.011764	-0.006950	0.004558	-17.162269	-82.364875	-41.616638
07785	9.690851	-0.404352	1.237072	-0.003583	-0.005981	0.009786	-17.201840	-82.365910	-41.573943
07786	9.672966	-0.404156	1.220167	-0.009273	-0.000258	0.007814	-17.230363	-82.364189	-41.546539
07787	9.643882	-0.386754	1.216661	-0.007747	-0.002482	0.009291	-17.265866	-82.363388	-41.510355
07788	9.672943	-0.406011	1.219730	-0.008409	-0.002441	0.007772	-17.296172	-82.362856	-41.480146
07789	9.689694	-0.422805	1.164349	-0.010391	-0.001762	0.006744	-17.321872	-82.362090	-41.455381
07790	9.679657	-0.391337	1.249102	-0.002886	-0.001858	0.003396	-17.330708	-82.361991	-41.444551
07791	9.655054	-0.406848	1.202491	-0.014147	-0.001990	0.006655	-17.358482	-82.361362	-41.419864
07792	9.672938	-0.408554	1.218920	-0.002430	-0.000313	0.002948	-17.362990	-82.360489	-41.411510
07793	9.672965	-0.408841	1.218617	-0.012635	-0.005321	0.001074	-17.371387	-82.362635	-41.405499
07794	9.660716	-0.426416	1.230222	-0.007760	-0.003590	0.002235	-17.380346	-82.363677	-41.396534
07795	9.703239	-0.393261	1.222231	-0.006442	-0.004228	0.001744	-17.386539	-82.365111	-41.389168
07796	9.696547	-0.409563	1.192077	-0.007304	-0.002045	0.001788	-17.391251	-82.365379	-41.384106
07797	9.685378	-0.392774	1.205205	-0.006841	0.000052	0.004869	-17.404952	-82.363937	-41.369396
07798	9.673050	-0.410578	1.217351	-0.002630	0.001826	0.004511	-17.413230	-82.361628	-41.356617
07799	9.656266	-0.395153	1.272680	-0.007704	0.002235	0.004913	-17.424801	-82.358984	-41.344555
07800	9.661815	-0.394594	1.230757	-0.004652	-0.002216	0.007864	-17.453409	-82.358315	-41.314437
07801	9.661832	-0.395410	1.230356	-0.009983	-0.005493	0.007151	-17.485289	-82.359508	-41.283200
07802	9.696483	-0.413347	1.191291	-0.005108	-0.003763	0.008311	-17.517817	-82.359603	-41.246548
07803	9.690917	-0.415577	1.232831	-0.005763	-0.003169	0.010322	-17.557215	-82.358975	-41.205287
07804	9.660754	-0.432587	1.227768	-0.004046	-0.008086	0.006705	-17.588060	-82.361693	-41.173124
07805	9.696554	-0.415818	1.189850	-0.005978	-0.002131	0.004827	-17.603871	-82.361444	-41.155785
07806	9.673100	-0.416560	1.214922	-0.003333	-0.002855	0.007373	-17.630482	-82.361196	-41.126025
07807	9.661942	-0.400075	1.227983	-0.008614	-0.000857	0.005811	-17.650155	-82.360079	-41.106314
07808	9.673075	-0.417951	1.214646	-0.006177	0.000008	0.006391	-17.670448	-82.358428	-41.084447
07809	9.649609	-0.418826	1.239775	-0.005107	-0.003765	0.008313	-17.702051	-82.358460	-41.050671
07810	9.649628	-0.419678	1.239343	-0.007545	-0.004630	0.007733	-17.734729	-82.359112	-41.015200
07811	9.668718	-0.387202	1.256588	-0.009983	-0.005495	0.007154	-17.766669	-82.360285	-40.983902
07812	9.673173	-0.421240	1.212728	-0.009577	-0.009224	0.007556	-17.805802	-82.363464	-40.945072
07813	9.691128	-0.423240	1.228555	-0.006226	-0.005268	0.007242	-17.835683	-82.364494	-40.913681
07814	9.685575	-0.405680	1.199328	-0.011093	-0.006448	0.009613	-17.880345	-82.365789	-40.869362
07815	9.684434	-0.441155	1.197506	-0.005563	-0.005313	0.008761	-17.916105	-82.366570	-40.831656
07816	9.649893	-0.424895	1.235490	-0.005365	-0.007453	0.007198	-17.949169	-82.368838	-40.795383
07817	9.662284	-0.408628	1.222467	-0.010480	-0.011770	0.011983	-18.009408	-82.372561	-40.735822
07818	9.696932	-0.426963	1.182802	-0.009567	-0.008678	0.011089	-18.062315	-82.374793	-40.682695
07819	9.673546	-0.428355	1.207241	-0.006921	-0.009406	0.013635	-18.124190	-82.376918	-40.619427
07820	9.661276	-0.446984	1.218467	-0.008446	-0.007178	0.012162	-18.179069	-82.378133	-40.564056
07821	9.669300	-0.397854	1.248765	-0.010220	-0.008087	0.013103	-18.238963	-82.379619	-40.504693
07822	9.697116	-0.432195	1.179389	-0.008249	-0.009318	0.010599	-18.290068	-82.382256	-40.453746
07823	9.673738	-0.433225	1.203962	-0.008663	-0.006135	0.006667	-18.320318	-82.383826	-40.423393
07824	9.675065	-0.419212	1.275119	-0.001816	-0.005639	0.005319	-18.341312	-82.385406	-40.398409
07825	9.668341	-0.435707	1.244504	-0.009588	-0.009775	0.004032	-18.366309	-82.389427	-40.373890
07826	9.691890	-0.436081	1.218011	-0.016902	-0.012366	0.002298	-18.392566	-82.395202	-40.351880
07827	9.685190	-0.452468	1.187128	-0.005375	-0.008004	0.003670	-18.411331	-82.398323	-40.331214
07828	9.692089	-0.436681	1.216208	-0.009350	-0.007184	-0.001911	-18.409391	-82.402046	-40.334707
07829	9.693400	-0.402183	1.216680	-0.011123	-0.008094	-0.000970	-18.412682	-82.406055	-40.332976
07830	9.697757	-0.435307	1.172958	-0.007315	-0.002591	-0.001733	-18.403865	-82.407245	-40.340995
07831	9.687997	-0.403416	1.257874	-0.004420	-0.000180	-0.001602	-18.389993	-82.407066	-40.352703
07832	9.667546	-0.451089	1.168394	-0.011682	0.002506	-0.004182	-18.366798	-82.405926	-40.378430
07833	9.686620	-0.417669	1.186708	-0.004107	0.008782	-0.001330	-18.341739	-82.400822	-40.401244
07834	9.681056	-0.418647	1.229242	-0.005043	0.004597	-0.007498	-18.298589	-82.399144	-40.442988
07835	9.649495	-0.448707	1.153404	-0.013871	0.004781	-0.007172	-18.260764	-82.397264	-40.484324
07836	9.664271	-0.381710	1.214950	0.001607	0.007234	-0.007282	-18.211296	-82.394105	-40.529736
07837	9.649549	-0.467057	1.224847	-0.018105	0.001914	-0.013871	-18.152470	-82.394973	-40.594708
07838	9.690900	-0.466535	1.216556	-0.002141	0.010104	-0.022333	-18.039993	-82.392920	-40.703544
07839	9.676622	-0.379781	1.275192	-0.003707	0.007600	-0.019427	-17.942713	-82.391645	-40.798990
07840	9.651981	-0.392598	1.228886	-0.013767	-0.004823	-0.022013	-17.857601	-82.397615	-40.886132
07841	9.674350	-0.425125	1.201929	-0.004670	-0.000772	-0.017688	-17.778925	-82.400564	-40.963363
07842	9.674434	-0.423431	1.201854	-0.016143	0.000131	-0.019903	-17.697231	-82.403428	-41.050239
07843	9.662205	-0.439065	1.213971	-0.008830	0.002727	-0.018168	-17.614301	-82.404521	-41.134167
07844	9.663458	-0.402816	1.215093	-0.011782	-0.005509	-0.020986	-17.533006	-82.410629	-41.216304
07845	9.709407	-0.455266	1.233119	-0.019024	-0.001742	-0.016501	-17.468420	-82.413846	-41.287616
07846	9.687078	-0.399557	1.189205	-0.007304	0.000497	-0.016695	-17.394092	-82.415898	-41.361812
07847	9.692784	-0.416716	1.217673	-0.014604	-0.001559	-0.014898	-17.333219	-82.418718	-41.426822
07848	9.674927	-0.414001	1.201170	-0.010812	0.003405	-0.019186	-17.247178	-82.419590	-41.514883
07849	9.681736	-0.396593	1.231201	-0.005975	0.000406	-0.013658	-17.183878	-82.421103	-41.577354
07850	9.717513	-0.377802	1.193591	-0.011758	-0.004425	-0.013922	-17.129681	-82.425335	-41.634377
07851	9.681872	-0.394445	1.230824	-0.007937	0.002174	-0.007621	-17.090061	-82.424847	-41.674092
07852	9.662858	-0.426903	1.213107	-0.007947	0.001629	-0.011150	-17.037444	-82.425286	-41.727883
07853	9.681909	-0.392420	1.231182	-0.009484	0.003311	-0.016147	-16.962154	-82.425592	-41.804477
07854	9.704253	-0.425108	1.204863	-0.005939	0.005137	-0.018025	-16.875322	-82.425229	-41.890594
07855	9.669675	-0.406645	1.243968	-0.005729	0.003544	-0.016062	-16.797935	-82.425366	-41.967133
07856	9.705378	-0.387759	1.206909	-0.013228	0.003619	-0.012699	-16.739668	-82.424944	-42.027686
07857	9.704315	-0.421093	1.205769	-0.003537	0.001272	-0.013077	-16.676157	-82.425812	-42.088958
07858	9.664058	-0.384500	1.216257	-0.010338	0.006034	-0.012565	-16.613666	-82.424015	-42.154773
07859	9.693143	-0.401562	1.219907	-0.007046	0.004176	-0.015565	-16.538320	-82.423677	-42.230014
07860	9.676295	-0.364441	1.205215	-0.004156	0.006593	-0.015431	-16.459551	-82.422009	-42.308551
07861	9.694203	-0.364482	1.222145	-0.013017	0.002021	-0.010735	-16.410228	-82.422048	-42.360992
07862	9.705368	-0.380782	1.209210	-0.007894	0.007445	-0.008456	-16.361630	-82.418776	-42.408880
07863	9.695150	-0.328594	1.224804	0.002512	0.010880	-0.004627	-16.317952	-82.412948	-42.446650
07864	9.662768	-0.413464	1.218468	-0.013613	0.008973	-0.002505	-16.295469	-82.407868	-42.472437
07865	9.669251	-0.377178	1.178902	0.000530	0.011557	-0.005648	-16.248006	-82.401825	-42.515171
07866	9.659098	-0.345184	1.265233	-0.002107	0.012823	-0.004658	-16.205616	-82.394968	-42.555402
07867	9.681383	-0.379230	1.239417	-0.010103	0.006069	-0.000017	-16.194138	-82.391039	-42.567980
07868	9.686849	-0.377765	1.198156	-0.000823	0.007457	-0.000786	-16.173262	-82.386505	-42.585907
07869	9.670013	-0.362222	1.254074	-0.001932	0.006498	0.001669	-16.163559	-82.382069	-42.591972
07870	9.663241	-0.378436	1.224614	-0.005931	0.003121	0.003989	-16.170535	-82.379166	-42.582883
07871	9.668852	-0.397323	1.253349	-0.002637	0.001266	0.000989	-16.164681	-82.377718	-42.585472
07872	9.669886	-0.363377	1.254718	-0.007285	-0.000980	0.008849	-16.197250	-82.376295	-42.550767
07873	9.674346	-0.396955	1.211557	-0.008575	0.003843	0.001450	-16.193614	-82.373355	-42.554550
07874	9.704424	-0.381378	1.216576	-0.006126	0.005799	0.009087	-16.218340	-82.368164	-42.525551
07875	9.693126	-0.365208	1.230444	-0.004807	0.005166	0.008593	-16.240271	-82.363353	-42.501361
07876	9.657226	-0.363923	1.197813	-0.007891	0.005427	0.013555	-16.284746	-82.357644	-42.455825
07877	9.691831	-0.402001	1.230142	-0.005671	0.007346	0.008645	-16.304699	-82.351622	-42.434130
07878	9.639176	-0.384878	1.252786	-0.010996	0.004059	0.007930	-16.329450	-82.347564	-42.410849
07879	9.673754	-0.402514	1.214448	-0.011658	0.004104	0.006413	-16.347530	-82.343682	-42.394504
07880	9.639009	-0.386092	1.253697	-0.002138	0.008090	-0.000288	-16.328823	-82.338732	-42.410482
07881	9.698214	-0.388404	1.261811	-0.014353	-0.000991	0.001178	-16.333141	-82.338495	-42.409581
07882	9.667985	-0.384668	1.186839	-0.011009	0.002973	0.000872	-16.330269	-82.336168	-42.413740
07883	9.686986	-0.371741	1.275298	-0.001773	-0.000915	0.000938	-16.326307	-82.335928	-42.413921
07884	9.692571	-0.370466	1.233238	-0.016125	-0.001907	0.002116	-16.337179	-82.336081	-42.407106
07885	9.655699	-0.402840	1.198660	-0.003293	0.001852	0.003002	-16.339207	-82.333987	-42.402122
07886	9.669086	-0.371593	1.258474	-0.009728	-0.002395	0.004741	-16.357740	-82.333978	-42.387560
07887	9.673607	-0.405282	1.214700	-0.011747	-0.006453	0.008081	-16.395316	-82.335628	-42.351594
07888	9.674736	-0.371707	1.215468	-0.007993	-0.006217	0.008166	-16.431491	-82.337172	-42.314111
07889	9.662509	-0.389812	1.226820	-0.011299	-0.005446	0.004110	-16.451404	-82.338908	-42.295709
07890	9.680445	-0.391875	1.242806	-0.008648	-0.005631	0.010179	-16.495611	-82.339803	-42.249892
07891	9.691641	-0.410006	1.228998	-0.007739	-0.002536	0.009295	-16.531154	-82.339093	-42.213661
07892	9.692744	-0.376408	1.230079	-0.009519	-0.003991	0.006703	-16.559652	-82.339643	-42.185284
07893	9.662564	-0.393412	1.225244	-0.004849	-0.000119	0.009432	-16.591153	-82.337578	-42.151460
07894	9.669263	-0.378481	1.255053	-0.004648	-0.002254	0.007862	-16.619518	-82.336981	-42.121555
07895	9.673696	-0.412425	1.211580	-0.013011	-0.000006	0.011279	-16.663061	-82.334545	-42.080299
07896	9.697094	-0.413054	1.186405	-0.002829	0.003938	0.006093	-16.675629	-82.330838	-42.064772
07897	9.650132	-0.414488	1.237162	-0.005303	-0.001669	0.009875	-16.711022	-82.329541	-42.027283
07898	9.692528	-0.381851	1.230105	-0.002574	0.007620	0.007222	-16.723466	-82.323618	-42.014637
07899	9.649947	-0.416171	1.238034	-0.004801	0.005156	0.008602	-16.744990	-82.318782	-41.990853
07900	9.667775	-0.417951	1.254945	-0.005934	0.002578	0.000466	-16.738095	-82.316752	-41.995118
07901	9.667749	-0.417863	1.255172	-0.007922	0.002720	-0.004086	-16.712770	-82.315346	-42.020410
07902	9.631946	-0.414800	1.222350	-0.003721	0.003965	-0.007975	-16.668530	-82.313937	-42.062141
07903	9.675541	-0.346320	1.216555	-0.004216	-0.002322	-0.003172	-16.650954	-82.315145	-42.077472
07904	9.696804	-0.414425	1.188297	-0.014326	0.002672	-0.010238	-16.605224	-82.314809	-42.128974
07905	9.692334	-0.380710	1.231986	0.007539	0.004674	-0.007724	-16.553907	-82.312917	-42.171555
07906	9.692307	-0.380173	1.232363	-0.018727	0.003558	-0.004778	-16.531908	-82.311203	-42.198233
07907	9.685511	-0.395803	1.203140	-0.004523	0.012499	-0.001688	-16.502663	-82.304022	-42.225516
07908	9.676410	-0.330140	1.290988	-0.004971	0.011488	0.002285	-16.491954	-82.296793	-42.235616
07909	9.679653	-0.397863	1.247071	-0.013388	0.007918	0.003000	-16.492401	-82.291366	-42.238063
07910	9.644918	-0.381670	1.286202	-0.005721	0.001518	0.005956	-16.508880	-82.289014	-42.220125
07911	9.656113	-0.399646	1.272438	-0.015295	-0.008293	0.009954	-16.558128	-82.291357	-42.174428
07912	9.643907	-0.418182	1.283354	-0.007381	-0.011550	0.010509	-16.609896	-82.295435	-42.121830
07913	9.692085	-0.384152	1.232877	-0.012706	-0.014836	0.009792	-16.665019	-82.301385	-42.068709
07914	9.686644	-0.366694	1.202748	-0.007220	-0.018426	0.013297	-16.736462	-82.308765	-41.994071
07915	9.691250	-0.421304	1.228263	-0.011125	-0.011252	0.013960	-16.803411	-82.312044	-41.928104
07916	9.696866	-0.421125	1.185437	-0.007779	-0.007288	0.013657	-16.863031	-82.313226	-41.867365
07917	9.656708	-0.407224	1.265508	-0.004440	-0.003859	0.009822	-16.900300	-82.313122	-41.827483
07918	9.656708	-0.408099	1.265222	-0.006628	-0.001581	0.006843	-16.924678	-82.312305	-41.801677
07919	9.644414	-0.426074	1.276934	-0.006636	-0.002117	0.003312	-16.934611	-82.312328	-41.790648
07920	9.662289	-0.407353	1.222852	-0.009735	-0.002936	0.001216	-16.939549	-82.313188	-41.786754
07921	9.692483	-0.391442	1.227439	-0.005933	0.002578	0.000471	-16.931739	-82.311112	-41.793222
07922	9.651136	-0.390409	1.236197	-0.007970	-0.002555	-0.003254	-16.916919	-82.312504	-41.808325
07923	9.698113	-0.409880	1.255778	-0.008377	0.001175	-0.003639	-16.895559	-82.311881	-41.829879
07924	9.681337	-0.373723	1.240973	-0.008129	0.004321	-0.006038	-16.861043	-82.309966	-41.864470
07925	9.662271	-0.406466	1.223291	-0.007466	0.004272	-0.004521	-16.831786	-82.307789	-41.893467
07926	9.704722	-0.372814	1.216362	-0.007913	0.003257	-0.000548	-16.821035	-82.305545	-41.906546
07927	9.696784	-0.423106	1.185401	-0.007201	0.008487	0.000144	-16.805419	-82.300281	-41.921625
07928	9.657649	-0.373681	1.268199	-0.003042	0.004993	0.000610	-16.794387	-82.296897	-41.929207
07929	9.662028	-0.406646	1.225147	-0.011003	0.002972	0.000887	-16.790740	-82.294534	-41.934407
07930	9.674285	-0.389328	1.213538	-0.009893	0.003938	-0.001568	-16.776316	-82.292092	-41.951168
07931	9.674254	-0.389357	1.213776	-0.008368	0.001708	-0.000107	-16.768683	-82.290586	-41.958866
07932	9.679816	-0.408109	1.242485	-0.006140	0.004174	-0.001485	-16.751856	-82.287991	-41.976002
07933	9.668605	-0.391110	1.256247	-0.007250	0.003207	0.000970	-16.746126	-82.285484	-41.981134
07934	9.679723	-0.408295	1.243144	-0.005477	0.004124	0.000032	-16.735422	-82.282673	-41.991950
07935	9.668521	-0.391322	1.256831	-0.008368	0.001707	-0.000107	-16.727809	-82.281167	-41.999629
07936	9.674077	-0.389760	1.215052	-0.006388	0.001026	0.000913	-16.724851	-82.279906	-42.003011
07937	9.675194	-0.375887	1.287126	-0.003497	0.003443	0.001052	-16.717033	-82.277256	-42.008080
07938	9.667291	-0.426143	1.255913	-0.009892	0.003937	-0.001566	-16.702656	-82.274814	-42.023787
07939	9.656109	-0.409064	1.269472	-0.002435	-0.000868	-0.000580	-16.692871	-82.274798	-42.030227
07940	9.650506	-0.390195	1.241170	-0.006802	0.004223	-0.003001	-16.670641	-82.272434	-42.052594
07941	9.691841	-0.391000	1.232639	-0.007712	0.001124	-0.002121	-16.655234	-82.271577	-42.067759
07942	9.662794	-0.372428	1.229494	-0.007513	-0.001007	-0.003696	-16.636974	-82.272200	-42.085276
07943	9.679592	-0.408052	1.244245	-0.009741	-0.003474	-0.002318	-16.627492	-82.273899	-42.095635
07944	9.668421	-0.390526	1.257846	-0.008540	0.007518	-0.009948	-16.573985	-82.270858	-42.147530
07945	9.691840	-0.389449	1.233142	-0.007671	0.005870	-0.006474	-16.535256	-82.268102	-42.186208
07946	9.668361	-0.389263	1.258698	-0.010816	-0.000228	-0.007749	-16.501203	-82.268939	-42.222299
07947	9.662780	-0.370202	1.230270	-0.007050	0.001073	-0.000603	-16.491646	-82.267858	-42.231178
07948	9.715301	-0.388157	1.208183	-0.014762	0.002195	-0.002723	-16.477387	-82.266545	-42.249986
07949	9.680607	-0.371430	1.247341	-0.003249	0.006589	-0.001341	-16.456080	-82.262552	-42.268526
07950	9.680575	-0.371374	1.247599	-0.011919	-0.000665	-0.001762	-16.447541	-82.262657	-42.279461
07951	9.679460	-0.405976	1.245949	-0.008160	0.000104	0.001851	-16.449718	-82.261709	-42.277140
07952	9.673877	-0.407872	1.287750	-0.006187	-0.001107	-0.000661	-16.442918	-82.261878	-42.283766
07953	9.679452	-0.406241	1.245926	-0.011002	0.002964	0.000892	-16.439431	-82.259514	-42.288804
07954	9.674955	-0.373632	1.289577	-0.003297	0.001311	-0.000521	-16.428531	-82.258331	-42.295774
07955	9.690585	-0.423654	1.232691	-0.006836	0.000004	0.004885	-16.442333	-82.256946	-42.280955
07956	9.662626	-0.371290	1.231156	-0.007498	0.000053	0.003369	-16.450987	-82.255820	-42.271040
07957	9.661498	-0.406078	1.229505	-0.006843	-0.000527	0.001354	-16.451150	-82.255300	-42.269990
07958	9.655903	-0.407946	1.271401	-0.003297	0.001311	-0.000520	-16.440277	-82.254114	-42.278182
07959	9.679381	-0.407466	1.246077	-0.006849	-0.001058	-0.002178	-16.426807	-82.254458	-42.290894
07960	9.691697	-0.389840	1.234140	-0.005076	-0.000139	-0.003115	-16.408408	-82.254497	-42.307152
07961	9.668251	-0.389905	1.259349	-0.006856	-0.001588	-0.005710	-16.381295	-82.255702	-42.333636
07962	9.668276	-0.389517	1.259271	-0.007056	0.000541	-0.004133	-16.358904	-82.255521	-42.355853
07963	9.679504	-0.406167	1.245549	-0.006448	-0.005318	-0.005331	-16.337502	-82.258713	-42.376338
07964	9.650506	-0.387396	1.242046	-0.008628	-0.002508	-0.004772	-16.317037	-82.260308	-42.398385
07965	9.680736	-0.370947	1.246481	-0.008628	-0.002508	-0.004772	-16.295791	-82.261863	-42.419973
07966	9.661780	-0.403615	1.228102	-0.008835	-0.000909	-0.006727	-16.265773	-82.262904	-42.447710
07967	9.668529	-0.387469	1.257961	-0.010607	-0.001829	-0.005789	-16.240721	-82.264246	-42.474283
07968	9.704313	-0.369165	1.220730	-0.009036	0.001220	-0.005150	-16.214628	-82.263851	-42.501014
07969	9.692061	-0.386506	1.232323	-0.007551	-0.005759	0.000655	-16.218549	-82.266322	-42.496581
07970	9.663014	-0.368260	1.229014	-0.008367	0.001699	-0.000101	-16.211877	-82.264854	-42.502686
07971	9.668622	-0.387245	1.257320	-0.009731	-0.002951	0.001214	-16.216003	-82.265690	-42.499306
07972	9.658582	-0.336132	1.272069	-0.010841	-0.003922	0.003668	-16.232494	-82.266707	-42.483348
07973	9.674287	-0.386048	1.214568	-0.008213	-0.005710	-0.000861	-16.230597	-82.269394	-42.485168
07974	9.675493	-0.372277	1.285929	-0.009530	-0.005080	-0.000362	-16.231637	-82.271697	-42.486449
07975	9.681154	-0.370555	1.243344	-0.009122	-0.008810	0.000015	-16.237477	-82.275948	-42.480987
07976	9.667798	-0.401864	1.182658	-0.011055	-0.002851	-0.001816	-16.231220	-82.277273	-42.489049
07977	9.657824	-0.371116	1.267618	-0.007550	-0.005761	0.000656	-16.235158	-82.279745	-42.484597
07978	9.623305	-0.354560	1.305558	-0.012018	-0.011760	-0.003657	-16.232236	-82.286258	-42.489292
07979	9.684895	-0.437420	1.195150	-0.015523	-0.008850	-0.006127	-16.216838	-82.291515	-42.508964
07980	9.669386	-0.387315	1.251408	-0.003813	-0.006576	-0.006328	-16.191936	-82.295594	-42.531293
07981	9.669510	-0.386570	1.250676	-0.015738	-0.007778	-0.011612	-16.153019	-82.301133	-42.574822
07982	9.662905	-0.401244	1.220003	-0.006664	-0.004245	-0.010814	-16.109000	-82.304650	-42.618148
07983	9.669738	-0.384443	1.249572	-0.011085	-0.004964	-0.015940	-16.046357	-82.309317	-42.682927
07984	9.722358	-0.400982	1.227008	-0.015447	0.000651	-0.014814	-15.985027	-82.310753	-42.747939
07985	9.692211	-0.415736	1.222560	-0.006581	0.005788	-0.015971	-15.907037	-82.309482	-42.825600
07986	9.669814	-0.380049	1.250329	-0.010958	0.010348	-0.021908	-15.802919	-82.306657	-42.931767
07987	9.682043	-0.360692	1.239315	-0.011203	0.007194	-0.019516	-15.711562	-82.305128	-43.025589
07988	9.669762	-0.376276	1.251866	-0.012073	0.008845	-0.022983	-15.605237	-82.303238	-43.135130
07989	9.651840	-0.372842	1.236128	-0.012073	0.008843	-0.022981	-15.498437	-82.301286	-43.245039
07990	9.712147	-0.338649	1.246110	-0.013224	0.002588	-0.019717	-15.413802	-82.302321	-43.332909
07991	9.628450	-0.369639	1.262030	-0.011703	-0.000169	-0.021794	-15.321797	-82.305121	-43.427674
07992	9.693370	-0.368334	1.227585	-0.012184	-0.005948	-0.013484	-15.271016	-82.309879	-43.480991
07993	9.705702	-0.349602	1.215434	-0.008392	-0.000422	-0.014215	-15.208293	-82.311648	-43.544293
07994	9.687964	-0.367935	1.268955	-0.017002	-0.001890	-0.011919	-15.162418	-82.313927	-43.595495
07995	9.652239	-0.364193	1.235588	-0.001133	-0.003080	-0.011670	-15.108854	-82.316771	-43.645358
07996	9.677952	-0.314672	1.283272	-0.012872	-0.010128	-0.007127	-15.088955	-82.322867	-43.668238
07997	9.663686	-0.379723	1.220700	-0.012380	-0.003297	-0.008372	-15.055534	-82.325332	-43.704277
07998	9.671451	-0.328854	1.252175	-0.000471	-0.003130	-0.010155	-15.008737	-82.328022	-43.745476
07999	9.677178	-0.347071	1.280286	-0.011921	-0.001221	-0.005277	-14.985438	-82.328872	-43.771035
08000	9.676112	-0.360096	1.207987	-0.008425	-0.005178	-0.009873	-14.946352	-82.332637	-43.810278
08001	9.700751	-0.344900	1.254456	-0.006164	0.002579	-0.012054	-14.887701	-82.332379	-43.868179
08002	9.681874	-0.377022	1.236255	-0.012137	-0.000147	-0.010757	-14.841664	-82.333482	-43.916837
08003	9.688469	-0.339707	1.195955	-0.005539	-0.002752	-0.009731	-14.798009	-82.335823	-43.959246
08004	9.724315	-0.341605	1.228977	-0.002859	0.001802	-0.008009	-14.755835	-82.335432	-44.000209
08005	9.671716	-0.323364	1.251559	-0.006152	0.003630	-0.004992	-14.725103	-82.333539	-44.029933
08006	9.700826	-0.341257	1.254872	-0.009902	0.003380	-0.005069	-14.697298	-82.331843	-44.057480
08007	9.724263	-0.340202	1.229778	-0.007265	0.002128	-0.006070	-14.664413	-82.330934	-44.090021
08008	9.659436	-0.339942	1.264073	-0.003955	0.001877	0.001503	-14.661533	-82.329100	-44.089995
08009	9.659431	-0.340051	1.264084	-0.015664	-0.000950	-0.001822	-14.654269	-82.329280	-44.101539
08010	9.706358	-0.338973	1.213206	-0.005310	-0.002778	0.002810	-14.662728	-82.329841	-44.091507
08011	9.689555	-0.324350	1.268702	-0.006139	0.004680	0.002070	-14.659961	-82.326336	-44.093007
08012	9.671637	-0.323569	1.252117	-0.011277	-0.004982	0.007636	-14.694329	-82.327425	-44.061507
08013	9.682887	-0.341493	1.238165	-0.007068	-0.002655	0.010808	-14.735937	-82.326713	-44.018768
08014	9.647211	-0.360932	1.274944	-0.008176	-0.003633	0.013259	-14.790075	-82.326226	-43.964277
08015	9.676210	-0.359546	1.207360	-0.009500	-0.003532	0.010231	-14.831644	-82.326074	-43.922983
08016	9.700809	-0.346577	1.253544	-0.009290	-0.005135	0.012181	-14.883741	-82.326570	-43.870954
08017	9.652785	-0.362765	1.231738	-0.009946	-0.004561	0.014198	-14.942993	-82.326393	-43.812075
08018	9.694128	-0.364576	1.222716	-0.008150	0.000599	0.005395	-14.960364	-82.324709	-43.794745
08019	9.658425	-0.383501	1.259803	-0.009258	-0.000378	0.007847	-14.988525	-82.323150	-43.766840
08020	9.670625	-0.366557	1.248078	-0.003291	0.001826	0.003020	-14.991822	-82.321134	-43.759574
08021	9.681808	-0.383791	1.234687	-0.009022	0.002253	0.001931	-14.992657	-82.318993	-43.759105
08022	9.659355	-0.350090	1.261922	-0.005730	0.000428	-0.001089	-14.982128	-82.318359	-43.769084
08023	9.659381	-0.349935	1.261767	-0.006642	-0.003199	-0.003749	-14.964277	-82.320078	-43.786095
08024	9.659415	-0.349981	1.261495	-0.012359	-0.001726	0.002225	-14.973359	-82.320145	-43.777689
08025	9.682901	-0.349870	1.235710	-0.007323	-0.006862	0.006133	-15.000490	-82.322427	-43.749705
08026	9.713105	-0.334313	1.239804	-0.013715	-0.006383	0.003531	-15.020873	-82.324876	-43.731878
08027	9.705379	-0.384761	1.207865	-0.006339	0.006805	0.003657	-15.022235	-82.319960	-43.729327
08028	9.700753	-0.352981	1.252186	-0.004352	0.006650	0.008201	-15.041964	-82.314500	-43.706114
08029	9.681711	-0.386837	1.234498	-0.012062	0.007755	0.006101	-15.055556	-82.308695	-43.694531
08030	9.647979	-0.336741	1.275750	-0.007244	0.003700	0.004528	-15.065130	-82.305412	-43.684361
08031	9.646922	-0.371951	1.273961	-0.013460	-0.002185	0.008208	-15.099081	-82.304790	-43.653041
08032	9.681621	-0.388936	1.234544	-0.006669	-0.007437	0.004115	-15.119243	-82.307739	-43.632193
08033	9.653571	-0.336763	1.232959	-0.006621	-0.001635	0.006845	-15.143091	-82.307013	-43.607115
08034	9.677197	-0.357773	1.277197	-0.009554	-0.009865	0.003972	-15.166787	-82.311315	-43.583986
08035	9.681773	-0.390843	1.232750	-0.007526	-0.004740	0.007715	-15.198179	-82.312173	-43.551820
08036	9.700758	-0.358508	1.250581	-0.005554	-0.005938	0.005195	-15.220123	-82.314114	-43.527226
08037	9.682856	-0.357466	1.233892	-0.007250	0.003179	0.000999	-15.215032	-82.311601	-43.531713
08038	9.659385	-0.358435	1.259349	-0.001763	-0.000407	0.004469	-15.225890	-82.310599	-43.517061
08039	9.700736	-0.359693	1.250412	-0.011695	-0.001780	0.003743	-15.240106	-82.310415	-43.504636
08040	9.659380	-0.359256	1.259149	-0.006385	0.001002	0.000931	-15.237713	-82.309168	-43.507354
08041	9.665079	-0.378269	1.287171	-0.008866	-0.005675	-0.002377	-15.229592	-82.312059	-43.515833
08042	9.677262	-0.339782	1.204649	-0.008649	-0.006761	0.003104	-15.245798	-82.314767	-43.501424
08043	9.688624	-0.378193	1.260876	-0.014539	0.001075	0.002802	-15.254606	-82.313146	-43.496101
08044	9.694155	-0.376495	1.218885	-0.005310	-0.002782	0.002812	-15.263188	-82.313701	-43.484706
08045	9.689692	-0.344558	1.262311	-0.008398	-0.003085	0.004253	-15.279067	-82.314160	-43.468696
08046	9.676280	-0.376098	1.201743	-0.009052	-0.002513	0.006271	-15.303813	-82.314045	-43.444723
08047	9.665247	-0.381030	1.285094	-0.002458	-0.005120	0.007287	-15.331000	-82.315168	-43.413868
08048	9.659606	-0.362705	1.256422	-0.013464	-0.002709	0.004683	-15.351942	-82.315401	-43.394500
08049	9.676345	-0.378098	1.200592	-0.006418	-0.003764	0.005265	-15.371604	-82.316079	-43.373528
08050	9.689823	-0.347595	1.260471	-0.002676	-0.004033	0.001806	-15.376098	-82.317474	-43.367140
08051	9.659699	-0.363861	1.255378	-0.013682	-0.001622	-0.000796	-15.372693	-82.317888	-43.373644
08052	9.658515	-0.377134	1.183239	0.000654	-0.000571	-0.002018	-15.355544	-82.317947	-43.385639
08053	9.659736	-0.363643	1.255158	-0.006845	-0.001070	-0.002164	-15.341997	-82.318264	-43.398425
08054	9.683187	-0.362898	1.229699	-0.002433	-0.000874	-0.000577	-15.333062	-82.318279	-43.403989
08055	9.677664	-0.365073	1.271579	-0.002634	0.001250	0.001007	-15.327490	-82.316833	-43.406293
08056	9.683177	-0.363160	1.229696	-0.004857	-0.001231	0.002379	-15.332596	-82.316600	-43.400249
08057	9.676434	-0.379032	1.199585	0.001787	0.001963	0.006127	-15.344654	-82.313984	-43.382207
08058	9.701031	-0.365604	1.246399	-0.000646	0.001089	0.005551	-15.357548	-82.311987	-43.363903
08059	9.683051	-0.364619	1.230264	-0.002584	0.007051	0.003742	-15.356614	-82.306920	-43.361498
08060	9.641622	-0.364116	1.239626	-0.001065	0.004302	0.001654	-15.350088	-82.303730	-43.365426
08061	9.688586	-0.384051	1.259398	-0.002181	0.002803	0.000574	-15.340742	-82.301491	-43.371276
08062	9.633742	-0.413981	1.208394	-0.000830	0.006944	-0.004260	-15.307193	-82.297749	-43.400388
08063	9.671632	-0.347521	1.245718	-0.001081	0.003267	-0.005411	-15.272266	-82.296157	-43.431416
08064	9.693997	-0.380885	1.218778	-0.004169	0.002964	-0.003970	-15.246214	-82.294563	-43.454999
08065	9.682759	-0.363662	1.232835	0.001150	0.006265	-0.003249	-15.215534	-82.290984	-43.480452
08066	9.689448	-0.347978	1.263240	-0.003095	-0.000820	-0.002092	-15.201230	-82.291210	-43.493645
08067	9.664790	-0.361705	1.216939	-0.005444	0.008872	-0.004263	-15.167333	-82.286339	-43.526157
08068	9.677087	-0.364980	1.275986	0.000697	0.004712	-0.002815	-15.141340	-82.283599	-43.547341
08069	9.653474	-0.344116	1.231691	-0.001945	0.005444	-0.005340	-15.104890	-82.280780	-43.580408
08070	9.641173	-0.361139	1.243977	-0.000175	0.006372	-0.006277	-15.063381	-82.277634	-43.616674
08071	9.688141	-0.380318	1.263942	0.000690	0.004195	-0.006347	-15.022736	-82.275650	-43.652450
08072	9.635579	-0.361972	1.286593	-0.005290	0.000946	-0.008583	-14.980701	-82.275840	-43.692085
08073	9.676971	-0.361933	1.277737	-0.003108	-0.001856	-0.009156	-14.937385	-82.277613	-43.732753
08074	9.670303	-0.376539	1.247604	-0.004837	0.002499	-0.009016	-14.891506	-82.276993	-43.776439
08075	9.671345	-0.341273	1.249670	-0.001540	0.001196	-0.008508	-14.846607	-82.276973	-43.817797
08076	9.693776	-0.374264	1.222577	-0.002858	0.001820	-0.008005	-14.804463	-82.276568	-43.858000
08077	9.688233	-0.375632	1.264638	-0.004837	0.002498	-0.009015	-14.757984	-82.275892	-43.902860
08078	9.664669	-0.354385	1.220048	-0.002858	0.001820	-0.008004	-14.715907	-82.275484	-43.941456
08079	9.689290	-0.339887	1.266653	-0.006640	-0.003197	-0.003750	-14.698088	-82.277191	-43.958437
08080	9.693830	-0.371637	1.222950	-0.001953	0.004926	-0.008870	-14.648754	-82.275183	-44.005400
08081	9.659144	-0.354912	1.262192	-0.004621	0.001408	-0.003535	-14.625730	-82.274303	-44.026465
08082	9.671381	-0.337156	1.250506	-0.008161	-0.000450	-0.001662	-14.615345	-82.274237	-44.036610
08083	9.688291	-0.372847	1.265024	-0.002438	-0.001393	-0.004109	-14.591710	-82.274991	-44.057029
08084	9.682612	-0.353474	1.236947	-0.005034	0.005138	-0.003897	-14.564129	-82.272132	-44.084013
08085	9.671337	-0.336321	1.251076	-0.006351	0.005761	-0.003394	-14.538081	-82.268813	-44.109130
08086	9.670274	-0.370555	1.249619	-0.006804	0.004208	-0.002961	-14.516731	-82.266342	-44.132414
08087	9.682470	-0.352730	1.238270	-0.005486	0.003584	-0.003464	-14.492236	-82.264239	-44.155464
08088	9.671200	-0.335305	1.252406	-0.008546	0.007527	-0.009882	-14.440000	-82.260910	-44.210032
08089	9.658923	-0.352273	1.264620	-0.006148	0.003637	-0.004978	-14.409686	-82.258989	-44.239338
08090	9.677826	-0.318965	1.283160	-0.005525	-0.001699	-0.002670	-14.394995	-82.259752	-44.253004
08091	9.675727	-0.366442	1.209154	-0.008370	0.001154	-0.003609	-14.374156	-82.259011	-44.274033
08092	9.689057	-0.335345	1.269646	-0.007917	0.002707	-0.004041	-14.350702	-82.257525	-44.297776
08093	9.658915	-0.351104	1.265007	-0.007261	0.002137	-0.006059	-14.318212	-82.256584	-44.329922
08094	9.700275	-0.351212	1.256383	-0.006605	0.001567	-0.008076	-14.278705	-82.256297	-44.369516
08095	9.671147	-0.332242	1.253628	-0.007923	0.002190	-0.007572	-14.240373	-82.255533	-44.407940
08096	9.677857	-0.316358	1.283577	-0.008203	-0.006253	-0.004401	-14.224841	-82.259064	-44.423831
08097	9.682441	-0.348382	1.239733	-0.011419	0.006128	-0.002960	-14.203276	-82.255461	-44.447355
08098	9.689062	-0.332694	1.270304	-0.008579	0.002759	-0.005553	-14.173677	-82.254138	-44.477048
08099	9.712491	-0.331670	1.245307	-0.011871	0.004574	-0.002527	-14.155776	-82.251335	-44.497136
08100	9.670075	-0.365365	1.252680	-0.010305	0.007626	-0.001877	-14.137407	-82.246801	-44.515193
08101	9.665397	-0.332916	1.297278	-0.011176	0.009286	-0.005336	-14.102852	-82.241770	-44.551687
08102	9.634132	-0.361837	1.220971	-0.011875	0.004057	-0.006058	-14.071912	-82.239791	-44.585460
08103	9.647408	-0.330402	1.281714	-0.010110	0.004473	-0.010525	-14.020566	-82.238150	-44.638284
08104	9.635215	-0.347347	1.293327	-0.012159	-0.004902	-0.006423	-13.997745	-82.241204	-44.665421
08105	9.700126	-0.346604	1.258810	-0.013030	-0.003241	-0.009881	-13.958528	-82.243755	-44.707693
08106	9.688949	-0.329116	1.272094	-0.011707	-0.003350	-0.006853	-13.931789	-82.245997	-44.735493
08107	9.705813	-0.342986	1.216437	-0.015424	0.001162	-0.011247	-13.883868	-82.246280	-44.787933
08108	9.671080	-0.326210	1.255731	-0.009654	0.006539	-0.007421	-13.843619	-82.243085	-44.831713
08109	9.670075	-0.359886	1.254268	-0.012089	0.005146	-0.011530	-13.788656	-82.241178	-44.889334
08110	9.682248	-0.341240	1.243218	-0.011186	0.008253	-0.012391	-13.727459	-82.237705	-44.953251
08111	9.665361	-0.325435	1.299435	-0.009872	0.007117	-0.016426	-13.649347	-82.235348	-45.032953
08112	9.670913	-0.321702	1.258172	-0.016051	0.005980	-0.017077	-13.574003	-82.233748	-45.112349
08113	9.676564	-0.339203	1.287020	-0.014491	0.008519	-0.019954	-13.482841	-82.231053	-45.207892
08114	9.664229	-0.333730	1.229324	-0.005466	0.006806	-0.018366	-13.395411	-82.229128	-45.294287
08115	9.636077	-0.300780	1.299021	-0.013413	0.004733	-0.018084	-13.315051	-82.228257	-45.378306
08116	9.694422	-0.335735	1.305086	-0.010566	0.001883	-0.017149	-13.240287	-82.228883	-45.454849
08117	9.677467	-0.298316	1.290810	-0.011433	0.004057	-0.017073	-13.163590	-82.228226	-45.534026
08118	9.665170	-0.293205	1.232744	-0.013859	0.003689	-0.014120	-13.101553	-82.227431	-45.599607
08119	9.682133	-0.327619	1.247772	-0.007444	0.007477	-0.019369	-13.009975	-82.225136	-45.691497
08120	9.676481	-0.328434	1.290430	-0.011397	0.009849	-0.014324	-12.940289	-82.220918	-45.763412
08121	9.670729	-0.307899	1.263035	-0.010531	0.007161	-0.017929	-12.856788	-82.218580	-45.848936
08122	9.681988	-0.323479	1.249972	-0.008997	0.005960	-0.009430	-12.809341	-82.215886	-45.895140
08123	9.688523	-0.307044	1.280828	-0.011188	0.007726	-0.015909	-12.734043	-82.212952	-45.972766
08124	9.688471	-0.305909	1.281490	-0.010976	0.006631	-0.010437	-12.682719	-82.209976	-46.025999
08125	9.670548	-0.303726	1.265431	-0.008787	0.004350	-0.007487	-12.643653	-82.207851	-46.065668
08126	9.687541	-0.339041	1.280186	-0.015413	0.001651	-0.007711	-12.611056	-82.207327	-46.102186
08127	9.682684	-0.284953	1.254430	-0.008995	0.006470	-0.005897	-12.576706	-82.203812	-46.137216
08128	9.646947	-0.303166	1.291874	-0.010764	0.005534	-0.004963	-12.548965	-82.200760	-46.166166
08129	9.699606	-0.320050	1.269802	-0.011004	0.001860	-0.006123	-12.519077	-82.199847	-46.197855
08130	9.664759	-0.303871	1.309101	-0.006356	0.005744	-0.003375	-12.495169	-82.196476	-46.221151
08131	9.659017	-0.284451	1.281333	-0.013642	0.003096	-0.005113	-12.469823	-82.194742	-46.249781
08132	9.681636	-0.317717	1.254173	-0.009684	0.001752	-0.003097	-12.452252	-82.193555	-46.267834
08133	9.670302	-0.300764	1.268012	-0.005937	0.002016	-0.003023	-12.432013	-82.192164	-46.286853
08134	9.699481	-0.318733	1.271083	-0.011663	0.002423	-0.004105	-12.411159	-82.190735	-46.310012
08135	9.699446	-0.318452	1.271422	-0.005037	0.005124	-0.003878	-12.384144	-82.187708	-46.335351
08136	9.676755	-0.284821	1.299173	-0.007915	0.003198	-0.000500	-12.375390	-82.185407	-46.345439
08137	9.688031	-0.301727	1.285801	-0.008574	0.003763	0.001518	-12.373646	-82.182477	-46.347315
08138	9.646601	-0.301485	1.294847	-0.008574	0.003763	0.001518	-12.372414	-82.179590	-46.348660
08139	9.693651	-0.321244	1.314427	-0.008154	-0.000475	-0.001662	-12.361264	-82.179423	-46.359788
08140	9.663511	-0.315894	1.239635	-0.007465	0.004752	-0.000927	-12.349064	-82.176304	-46.371502
08141	9.670010	-0.300702	1.270250	-0.007255	0.003144	0.001014	-12.345074	-82.173783	-46.374882
08142	9.687841	-0.302281	1.287102	-0.007914	0.003198	-0.000499	-12.336032	-82.171469	-46.384466
08143	9.646425	-0.301771	1.296091	-0.008574	0.003251	-0.002011	-12.320399	-82.169258	-46.400362
08144	9.658566	-0.283923	1.284849	-0.006805	0.004188	-0.002944	-12.300200	-82.166700	-46.420659
08145	9.652007	-0.299201	1.254695	-0.009263	-0.001467	0.000783	-12.300534	-82.166788	-46.420837
08146	9.670782	-0.287968	1.343349	-0.008364	0.001642	-0.000071	-12.294961	-82.165299	-46.425472
08147	9.657704	-0.318533	1.282747	-0.007284	-0.002649	-0.001740	-12.284942	-82.166356	-46.434955
08148	9.664299	-0.303141	1.312660	-0.008393	-0.004150	-0.002825	-12.273202	-82.168441	-46.445237
08149	9.652126	-0.299087	1.253810	-0.012140	-0.004415	-0.002899	-12.262802	-82.170628	-46.457913
08150	9.710578	-0.335212	1.259202	-0.010582	-0.001869	-0.005771	-12.238389	-82.171793	-46.484006
08151	9.635249	-0.284261	1.308845	-0.006834	-0.001095	-0.002166	-12.224990	-82.172031	-46.496642
08152	9.687977	-0.300988	1.286386	-0.019155	0.000870	-0.011308	-12.180398	-82.172326	-46.547530
08153	9.699285	-0.316957	1.273023	-0.011632	0.007193	-0.008404	-12.137066	-82.168672	-46.593154
08154	9.652206	-0.318116	1.324261	-0.005457	0.007834	-0.011280	-12.078558	-82.165040	-46.652847
08155	9.652989	-0.282648	1.327040	-0.014059	0.005799	-0.012513	-12.021187	-82.162647	-46.714047
08156	9.645621	-0.331397	1.294838	-0.012109	-0.000155	-0.010733	-11.976187	-82.163437	-46.761920
08157	9.653051	-0.280862	1.326971	-0.012137	-0.005437	-0.009960	-11.937828	-82.167026	-46.802818
08158	9.670133	-0.294250	1.270826	-0.020289	-0.005919	-0.011618	-11.898702	-82.171141	-46.847964
08159	9.681565	-0.310130	1.256613	-0.013006	-0.003267	-0.009878	-11.859238	-82.173495	-46.890479
08160	9.670281	-0.292484	1.270104	-0.011449	-0.000719	-0.012748	-11.805787	-82.174809	-46.945938
08161	9.700367	-0.275197	1.274957	-0.016963	-0.001928	-0.011888	-11.759198	-82.176638	-46.997932
08162	9.659001	-0.274022	1.283723	-0.012531	0.004076	-0.007544	-11.723319	-82.174630	-47.038153
08163	9.670320	-0.289887	1.270407	-0.012741	0.005178	-0.013010	-11.663721	-82.172591	-47.100838
08164	9.675986	-0.308004	1.299152	-0.013164	0.008904	-0.013354	-11.600640	-82.168543	-47.168600
08165	9.664569	-0.290185	1.313601	-0.012292	0.006732	-0.013435	-11.537841	-82.165663	-47.234258
08166	9.652286	-0.284974	1.255864	-0.010524	0.007671	-0.014366	-11.470366	-82.162408	-47.304074
08167	9.646617	-0.286189	1.298192	-0.018911	0.003510	-0.017191	-11.398786	-82.161742	-47.382424
08168	9.687987	-0.284965	1.289950	-0.009862	0.006602	-0.019911	-11.309581	-82.159709	-47.471951
08169	9.693698	-0.302679	1.318478	-0.012527	0.003055	-0.014599	-11.245329	-82.158979	-47.539212
08170	9.682250	-0.262942	1.262558	-0.012526	0.003054	-0.014598	-11.181905	-82.158294	-47.606536
08171	9.664473	-0.281998	1.316089	-0.013633	0.001552	-0.015684	-11.115088	-82.158509	-47.677027
08172	9.676613	-0.262902	1.304839	-0.012078	0.004608	-0.015021	-11.048667	-82.156984	-47.747754
08173	9.687979	-0.278323	1.291460	-0.013845	0.003666	-0.014089	-10.986817	-82.155814	-47.813353
08174	9.670072	-0.275545	1.275479	-0.010736	0.009275	-0.016292	-10.910667	-82.151771	-47.894115
08175	9.670753	-0.239898	1.278445	-0.015378	0.006394	-0.011987	-10.856204	-82.148817	-47.953145
08176	9.640711	-0.254986	1.273963	-0.008542	0.006489	-0.016880	-10.778602	-82.146381	-48.031967
08177	9.669953	-0.271660	1.277214	-0.007458	0.002709	-0.015027	-10.710134	-82.145807	-48.100554
08178	9.664260	-0.273268	1.319489	-0.011636	0.007171	-0.008383	-10.668456	-82.142056	-48.145345
08179	9.682016	-0.251858	1.266606	-0.011203	0.002433	-0.015100	-10.602094	-82.141627	-48.213973
08180	9.669896	-0.268550	1.278299	-0.009227	0.002271	-0.010566	-10.554215	-82.140870	-48.263097
08181	9.646361	-0.268726	1.303815	-0.009439	0.003880	-0.012500	-10.496374	-82.139335	-48.322104
08182	9.687734	-0.267858	1.295503	-0.010097	0.003934	-0.014010	-10.433643	-82.137988	-48.384333
08183	9.669875	-0.265267	1.279141	-0.006586	0.001043	-0.011579	-10.380093	-82.137941	-48.437359
08184	9.688427	-0.231265	1.298287	-0.008334	0.005381	-0.011411	-10.325718	-82.135480	-48.491629
08185	9.669823	-0.263481	1.279907	-0.010104	0.004942	-0.006952	-10.290196	-82.132747	-48.528490
08186	9.681887	-0.245078	1.268916	-0.002614	0.005496	-0.006805	-10.251548	-82.129752	-48.563698
08187	9.676165	-0.247149	1.311225	-0.010104	0.004941	-0.006952	-10.216081	-82.127013	-48.600504
08188	9.670370	-0.227396	1.283618	-0.009446	0.004887	-0.005441	-10.187270	-82.124210	-48.629928
08189	9.675391	-0.280813	1.309703	-0.005935	0.001998	-0.003011	-10.167676	-82.122727	-48.648299
08190	9.687473	-0.262805	1.298493	-0.010554	0.003889	-0.003000	-10.150239	-82.120239	-48.666787
08191	9.658152	-0.244520	1.296011	-0.005489	0.003555	-0.003433	-10.127552	-82.117920	-48.688022
08192	9.664564	-0.229311	1.326517	-0.008811	0.000056	0.000360	-10.125954	-82.117276	-48.687464
08193	9.627495	-0.295557	1.288562	-0.012790	-0.003389	0.002642	-10.137260	-82.118260	-48.678605
08194	9.669586	-0.261486	1.282104	-0.009680	0.001720	-0.003083	-10.120370	-82.116993	-48.695808
08195	9.675310	-0.280623	1.310339	-0.007255	0.002610	-0.002502	-10.103188	-82.115111	-48.712507
08196	9.687402	-0.262472	1.299085	-0.007251	0.002106	-0.006031	-10.072865	-82.113934	-48.740482
08197	9.680970	-0.277041	1.268869	-0.010333	0.001269	-0.008122	-10.035547	-82.113369	-48.779290
08198	9.663860	-0.262492	1.324598	-0.007908	0.002160	-0.007541	-9.999177	-82.112288	-48.816437
08199	9.640259	-0.241049	1.280085	-0.009012	0.000657	-0.008629	-9.959490	-82.112111	-48.856873
08200	9.675310	-0.277731	1.310958	-0.012757	0.000377	-0.008702	-9.922900	-82.112170	-48.896480
08201	9.657477	-0.275623	1.294344	-0.010778	-0.000289	-0.007698	-9.888689	-82.112428	-48.932409
08202	9.658183	-0.240637	1.296511	-0.009246	-0.002512	-0.006274	-9.861796	-82.113862	-48.959401
08203	9.698927	-0.274633	1.285527	-0.010544	0.002878	-0.010051	-9.815617	-82.112557	-49.007276
08204	9.687483	-0.257238	1.299530	-0.008566	0.002212	-0.009048	-9.773695	-82.111585	-49.050827
08205	9.669617	-0.255037	1.283165	-0.009886	0.002823	-0.008540	-9.733364	-82.110155	-49.092419
08206	9.699563	-0.237956	1.288498	-0.006587	0.001546	-0.008045	-9.694671	-82.109443	-49.131448
08207	9.670334	-0.241199	1.355732	-0.010544	0.002876	-0.010050	-9.648555	-82.108119	-49.179261
08208	9.669598	-0.252444	1.283824	-0.009430	0.003373	-0.016016	-9.578133	-82.107152	-49.250396
08209	9.669598	-0.251315	1.284044	-0.007244	0.001599	-0.009555	-9.533052	-82.106490	-49.295255
08210	9.658134	-0.234039	1.298081	-0.012527	0.004041	-0.007523	-9.498885	-82.104343	-49.330474
08211	9.681663	-0.232108	1.273059	-0.009010	0.000652	-0.008625	-9.459269	-82.104120	-49.370837
08212	9.688049	-0.216317	1.303677	-0.005039	0.004605	-0.007376	-9.420261	-82.101582	-49.410166
08213	9.675911	-0.233639	1.315568	-0.005702	0.005161	-0.005358	-9.389042	-82.098497	-49.440140
08214	9.639514	-0.264631	1.280569	-0.009658	0.006489	-0.007361	-9.352068	-82.094921	-49.477970
08215	9.675789	-0.232542	1.316661	-0.006359	0.005214	-0.006867	-9.315097	-82.091942	-49.514131
08216	9.675718	-0.231846	1.317304	-0.006126	0.008382	-0.009218	-9.267097	-82.087446	-49.561102
08217	9.681375	-0.228110	1.275967	-0.008557	0.001705	-0.012573	-9.210557	-82.086967	-49.618292
08218	9.675046	-0.264178	1.315696	-0.007667	0.004819	-0.013413	-9.148797	-82.084857	-49.680462
08219	9.669251	-0.243463	1.288165	-0.010959	0.005590	-0.017434	-9.071354	-82.082604	-49.760146
08220	9.674981	-0.261242	1.316763	-0.010514	0.007146	-0.017853	-8.991614	-82.079545	-49.843293
08221	9.651311	-0.238699	1.272892	-0.005661	0.008431	-0.020216	-8.898107	-82.075900	-49.936133
08222	9.664002	-0.206639	1.334316	-0.010950	0.005084	-0.020959	-8.807359	-82.074250	-50.028018
08223	9.686935	-0.237946	1.307268	-0.014914	0.006910	-0.019434	-8.723431	-82.071358	-50.116539
08224	9.657571	-0.218007	1.305043	-0.008519	0.005475	-0.023901	-8.619500	-82.069718	-50.220269
08225	9.663336	-0.235380	1.333485	-0.012714	0.004131	-0.020027	-8.533713	-82.068411	-50.309397
08226	9.686862	-0.232383	1.308809	-0.015578	0.007459	-0.017412	-8.459129	-82.065049	-50.390179
08227	9.657441	-0.212629	1.306893	-0.009173	0.011308	-0.022630	-8.356523	-82.059856	-50.494241
08228	9.656827	-0.244955	1.305310	-0.015560	0.006452	-0.024463	-8.254142	-82.057627	-50.599337
08229	9.698176	-0.242749	1.297549	-0.010485	0.011412	-0.025645	-8.140212	-82.052569	-50.715594
08230	9.663004	-0.225054	1.337666	-0.014431	0.012229	-0.031171	-8.006662	-82.047533	-50.852535
08231	9.686464	-0.220802	1.313748	-0.011566	0.014681	-0.031005	-7.870060	-82.040971	-50.992312
08232	9.656966	-0.199716	1.312426	-0.013746	0.016447	-0.037456	-7.708478	-82.033920	-51.158174
08233	9.662634	-0.215620	1.341887	-0.009122	0.014569	-0.037467	-7.544813	-82.027808	-51.323869
08234	9.662989	-0.178151	1.345714	-0.010252	0.014566	-0.027978	-7.421590	-82.021010	-51.452488
08235	9.668621	-0.172470	1.305166	-0.013758	0.011657	-0.033175	-7.279967	-82.016127	-51.598612
08236	9.668067	-0.204106	1.303797	-0.015534	0.011204	-0.028722	-7.158921	-82.011220	-51.726597
08237	9.674241	-0.186386	1.335244	-0.009145	0.010284	-0.029659	-7.029919	-82.006779	-51.857312
08238	9.668332	-0.164324	1.308358	-0.015091	0.012756	-0.029135	-6.906355	-82.000939	-51.985195
08239	9.709180	-0.196067	1.298717	-0.013552	0.015817	-0.028458	-6.782386	-81.993189	-52.113381
08240	9.643991	-0.195094	1.334094	-0.013991	0.019534	-0.028782	-6.656527	-81.983370	-52.243870
08241	9.686081	-0.145923	1.401879	-0.003873	0.014139	-0.025375	-6.540763	-81.976296	-52.358173
08242	9.655668	-0.172261	1.325797	-0.017960	0.016063	-0.026513	-6.428465	-81.968230	-52.477282
08243	9.684957	-0.188212	1.329834	-0.006987	0.009512	-0.016150	-6.354176	-81.963144	-52.551506
08244	9.626431	-0.139119	1.397189	-0.002818	0.006591	-0.012223	-6.296014	-81.959564	-52.607900
08245	9.673627	-0.135140	1.347146	-0.013175	-0.001243	-0.008279	-6.261899	-81.960090	-52.645132
08246	9.684888	-0.185507	1.330718	-0.008124	-0.001047	-0.005186	-6.237611	-81.960355	-52.667930
08247	9.650069	-0.136074	1.371987	-0.002205	-0.002512	0.001340	-6.236553	-81.961001	-52.665429
08248	9.643932	-0.151623	1.341048	-0.010371	-0.007334	0.007467	-6.267649	-81.964072	-52.635683
08249	9.702860	-0.188141	1.346029	-0.009931	-0.005777	0.007051	-6.295515	-81.966219	-52.608442
08250	9.685438	-0.153242	1.331715	-0.007087	0.002462	0.010003	-6.330811	-81.963555	-52.573559
08251	9.667205	-0.187445	1.312654	-0.007314	-0.000706	0.012344	-6.376257	-81.962474	-52.527050
08252	9.673802	-0.139208	1.345478	-0.004667	-0.001914	0.011328	-6.417357	-81.962201	-52.486421
08253	9.649834	-0.176459	1.367732	-0.007313	-0.005985	0.013085	-6.468182	-81.964068	-52.434479
08254	9.661491	-0.194158	1.353345	-0.009945	-0.005277	0.010577	-6.510848	-81.965762	-52.390432
08255	9.649993	-0.178810	1.366307	-0.005975	-0.012369	0.009793	-6.550631	-81.971466	-52.348869
08256	9.667921	-0.158773	1.312076	-0.006189	-0.010759	0.007869	-6.582935	-81.976451	-52.314988
08257	9.685447	-0.195452	1.325215	-0.005748	-0.009201	0.007454	-6.611758	-81.980500	-52.284361
08258	9.662379	-0.163496	1.351937	-0.006857	-0.010208	0.009887	-6.651985	-81.985006	-52.242821
08259	9.679855	-0.178136	1.295312	-0.005547	-0.010314	0.012903	-6.703325	-81.989319	-52.189340
08260	9.651003	-0.149561	1.363996	-0.003568	-0.005692	0.013164	-6.753150	-81.991044	-52.136134
08261	9.692497	-0.150839	1.354729	-0.008192	-0.009107	0.013922	-6.809637	-81.994587	-52.078987
08262	9.656502	-0.183821	1.318148	-0.007751	-0.007549	0.013506	-6.864211	-81.997338	-52.021083
08263	9.662853	-0.170292	1.347706	-0.002913	-0.011027	0.015413	-6.924745	-82.001856	-51.956795
08264	9.633140	-0.188675	1.341241	-0.004476	-0.013096	0.021788	-7.013631	-82.007147	-51.865762
08265	9.679976	-0.222069	1.287136	-0.012829	-0.012025	0.018210	-7.091846	-82.012010	-51.789358
08266	9.633359	-0.192578	1.339110	0.000379	-0.006516	0.018691	-7.162444	-82.013762	-51.711677
08267	9.675927	-0.147876	1.403978	-0.007984	-0.021284	0.017331	-7.239242	-82.023924	-51.633903
08268	9.703938	-0.225912	1.258056	-0.014139	-0.011919	0.015198	-7.307100	-82.028979	-51.568467
08269	9.663676	-0.181060	1.340383	0.006337	-0.009491	0.014636	-7.358876	-82.032612	-51.507677
08270	9.663778	-0.182487	1.339452	-0.006212	-0.009771	0.014929	-7.419854	-82.036428	-51.446455
08271	9.645553	-0.216986	1.319338	-0.009954	-0.010066	0.014858	-7.482283	-82.040354	-51.384333
08272	9.663966	-0.185356	1.337696	0.000846	-0.005957	0.011225	-7.521770	-82.042242	-51.338242
08273	9.675572	-0.203212	1.323089	-0.006877	-0.009222	0.016949	-7.590576	-82.045515	-51.267903
08274	9.699222	-0.203150	1.296994	-0.009502	-0.009004	0.010917	-7.636912	-82.049163	-51.224180
08275	9.652177	-0.207395	1.346699	0.003923	-0.005115	0.013315	-7.682601	-82.050364	-51.170935
08276	9.675771	-0.206928	1.321060	-0.005088	-0.003979	0.008232	-7.713068	-82.051383	-51.136574
08277	9.675784	-0.207883	1.320812	-0.002890	-0.000972	0.010415	-7.748602	-82.050446	-51.097524
08278	9.687803	-0.190867	1.309466	-0.003104	0.000642	0.008491	-7.776450	-82.048814	-51.066291
08279	9.669937	-0.190287	1.292882	-0.004868	-0.000312	0.009418	-7.808676	-82.047573	-51.031725
08280	9.664224	-0.194206	1.334577	-0.002225	-0.001523	0.008397	-7.836730	-82.047167	-50.999722
08281	9.664251	-0.195046	1.334259	-0.007509	-0.004878	0.007651	-7.865839	-82.048652	-50.969830
08282	9.657948	-0.210738	1.303445	-0.001559	-0.002073	0.006379	-7.885436	-82.048708	-50.943491
08283	9.687845	-0.195085	1.308533	-0.001568	-0.001579	0.009906	-7.918453	-82.048140	-50.906216
08284	9.652261	-0.215740	1.344785	-0.008182	-0.003834	0.013198	-7.970783	-82.048657	-50.854071
08285	9.676383	-0.181173	1.321715	-0.001141	-0.004809	0.013756	-8.021037	-82.049606	-50.799146
08286	9.670082	-0.197543	1.290712	-0.006647	-0.006055	0.014613	-8.079107	-82.051234	-50.738677
08287	9.646571	-0.200587	1.315392	-0.005547	-0.004553	0.015706	-8.139687	-82.051865	-50.675874
08288	9.664429	-0.203653	1.331679	-0.004660	-0.001435	0.014873	-8.194949	-82.050832	-50.617099
08289	9.705842	-0.205130	1.322733	-0.004883	-0.005103	0.013688	-8.247282	-82.051924	-50.562239
08290	9.646601	-0.205111	1.314468	-0.005324	-0.000887	0.016894	-8.311392	-82.050432	-50.495086
08291	9.675922	-0.224712	1.317042	-0.004659	-0.001437	0.014875	-8.366242	-82.049331	-50.437555
08292	9.634518	-0.226171	1.325451	-0.010823	-0.002625	0.014225	-8.423467	-82.049019	-50.380087
08293	9.658073	-0.226179	1.299927	-0.003782	-0.003604	0.014781	-8.478720	-82.049138	-50.321643
08294	9.629463	-0.197643	1.368954	-0.008405	-0.007505	0.012017	-8.528529	-82.051759	-50.270904
08295	9.681751	-0.227335	1.273254	-0.013692	-0.010857	0.011272	-8.579680	-82.056273	-50.222334
08296	9.664692	-0.215119	1.327963	-0.000043	-0.009092	0.012061	-8.626233	-82.059794	-50.170245
08297	9.688307	-0.214765	1.302014	-0.008617	-0.005890	0.010093	-8.666716	-82.061584	-50.129511
08298	9.688367	-0.216243	1.301321	-0.009518	-0.008026	0.017984	-8.742113	-82.063973	-50.053626
08299	9.635540	-0.201405	1.323363	-0.002678	-0.002107	0.015877	-8.800354	-82.063104	-49.991526
08300	9.641399	-0.222454	1.350455	-0.013925	-0.014034	0.013617	-8.864073	-82.069238	-49.929565
08301	9.658703	-0.237492	1.293214	-0.014156	-0.017212	0.015960	-8.938909	-82.076892	-49.857352
08302	9.665290	-0.224291	1.322082	-0.004248	-0.015741	0.016677	-9.010915	-82.083692	-49.785139
08303	9.695420	-0.209589	1.325691	-0.012835	-0.017821	0.015451	-9.083591	-82.091711	-49.714346
08304	9.682762	-0.240992	1.263010	-0.005350	-0.017246	0.015587	-9.153042	-82.099443	-49.642307
08305	9.677899	-0.211217	1.306060	-0.004232	-0.010460	0.015943	-9.218203	-82.103230	-49.574127
08306	9.712252	-0.262525	1.263534	-0.012368	-0.004714	0.020624	-9.304201	-82.103391	-49.489947
08307	9.665885	-0.232973	1.316216	0.001286	-0.003447	0.017874	-9.369459	-82.103010	-49.418477
08308	9.630965	-0.219800	1.354939	-0.005986	-0.005641	0.019667	-9.448558	-82.103755	-49.338072
08309	9.653880	-0.254784	1.326205	-0.012167	-0.012109	0.019760	-9.535129	-82.108064	-49.252866
08310	9.641756	-0.252172	1.266600	-0.008869	-0.013383	0.020244	-9.623538	-82.113087	-49.165365
08311	9.666234	-0.240909	1.312218	-0.008653	-0.015492	0.018640	-9.706084	-82.119379	-49.082193
08312	9.654299	-0.260714	1.321996	-0.013053	-0.015720	0.017067	-9.785611	-82.125983	-49.006451
08313	9.701439	-0.259703	1.270042	-0.003805	-0.013710	0.019799	-9.869111	-82.131123	-48.919514
08314	9.665939	-0.280729	1.305549	-0.012142	-0.007802	0.011969	-9.921627	-82.133726	-48.868181
08315	9.701606	-0.262711	1.268148	-0.004444	-0.008852	0.014024	-9.978572	-82.136670	-48.808423
08316	9.690254	-0.247619	1.281529	-0.002001	-0.002673	0.013866	-10.029963	-82.136203	-48.753628
08317	9.643290	-0.251817	1.331669	-0.005530	-0.005065	0.012197	-10.077373	-82.137180	-48.704124
08318	9.648961	-0.250071	1.289121	-0.010610	-0.010031	0.013384	-10.136981	-82.140893	-48.645594
08319	9.684829	-0.254843	1.321211	-0.006208	-0.009808	0.014957	-10.199586	-82.144251	-48.581143
08320	9.690519	-0.253407	1.278394	-0.007314	-0.010822	0.017397	-10.273870	-82.147962	-48.503364
08321	9.671972	-0.287661	1.258281	-0.007080	-0.008127	0.011524	-10.321803	-82.150704	-48.454231
08322	9.672745	-0.254231	1.260478	-0.004189	-0.000873	0.007417	-10.346875	-82.149850	-48.425519
08323	9.678530	-0.274773	1.288066	-0.003763	-0.004116	0.011268	-10.388892	-82.150350	-48.380439
08324	9.679272	-0.241391	1.290567	-0.004401	0.001233	0.009024	-10.419123	-82.148140	-48.346763
08325	9.667108	-0.260327	1.302029	-0.001318	0.002062	0.011110	-10.454429	-82.145168	-48.307043
08326	9.667075	-0.261589	1.302023	-0.003317	-0.002072	0.014384	-10.508004	-82.144230	-48.251737
08327	9.667060	-0.263056	1.301841	-0.004635	-0.001465	0.014899	-10.563302	-82.142838	-48.193752
08328	9.673567	-0.249487	1.332281	-0.002423	0.000563	0.010019	-10.596890	-82.140876	-48.160098
08329	9.637771	-0.247407	1.299097	-0.005081	-0.003026	0.015317	-10.655306	-82.140306	-48.099226
08330	9.678387	-0.283616	1.287226	-0.000914	-0.006473	0.015699	-10.716278	-82.141691	-48.031656
08331	9.667049	-0.268406	1.300826	-0.002869	-0.000998	0.010437	-10.751953	-82.140485	-47.992460
08332	9.654929	-0.287506	1.311800	-0.003551	-0.005741	0.013197	-10.803585	-82.141698	-47.939011
08333	9.660550	-0.285619	1.269466	-0.006188	-0.005009	0.010694	-10.845329	-82.142714	-47.895609
08334	9.655802	-0.255424	1.313371	-0.002893	-0.006288	0.011174	-10.888905	-82.144454	-47.847089
08335	9.702009	-0.287979	1.259549	-0.009932	-0.005775	0.007100	-10.918764	-82.146281	-47.817849
08336	9.702843	-0.254590	1.261733	0.000640	-0.003902	0.012843	-10.965694	-82.146501	-47.767495
08337	9.644565	-0.242051	1.326028	-0.002868	-0.001000	0.010439	-11.001363	-82.145273	-47.728304
08338	9.678554	-0.292772	1.283911	-0.011459	-0.002577	0.012757	-11.053330	-82.144727	-47.678421
08339	9.667226	-0.277714	1.297554	0.001959	-0.004030	0.015862	-11.110732	-82.144596	-47.614500
08340	9.673808	-0.264379	1.327649	-0.002443	-0.004248	0.014292	-11.165056	-82.144809	-47.554666
08341	9.660680	-0.295210	1.266274	-0.005740	-0.003451	0.010280	-11.203662	-82.144957	-47.514172
08342	9.679434	-0.263582	1.285000	0.000850	-0.006012	0.011237	-11.245213	-82.146493	-47.465979
08343	9.625978	-0.282571	1.304329	-0.006869	-0.009274	0.016991	-11.316559	-82.149152	-47.393089
08344	9.690882	-0.282875	1.269430	-0.004001	-0.007790	0.010084	-11.357662	-82.151804	-47.347868
08345	9.656193	-0.269143	1.307747	-0.000279	-0.011837	0.017949	-11.431334	-82.155774	-47.268820
08346	9.679723	-0.269496	1.281586	-0.011032	-0.005825	0.016615	-11.501703	-82.156568	-47.200246
08347	9.648861	-0.321853	1.272917	-0.004891	-0.009950	0.017988	-11.576722	-82.159446	-47.122506
08348	9.698611	-0.240356	1.299109	-0.000699	-0.008112	0.017632	-11.647044	-82.161371	-47.047917
08349	9.685634	-0.294368	1.307014	-0.009714	-0.006435	0.016102	-11.714268	-82.162470	-46.980834
08350	9.679040	-0.310636	1.276030	-0.000674	-0.003304	0.013364	-11.763322	-82.162184	-46.926289
08351	9.632148	-0.314611	1.326207	-0.000466	-0.005410	0.011756	-11.806687	-82.163200	-46.877943
08352	9.685725	-0.298229	1.305466	-0.009061	-0.007461	0.010544	-11.852835	-82.165572	-46.832364
08353	9.667877	-0.297277	1.288337	-0.003768	-0.005088	0.004210	-11.867095	-82.167287	-46.815307
08354	9.638771	-0.279829	1.285019	-0.002921	-0.011589	0.011916	-11.918675	-82.171795	-46.759932
08355	9.697266	-0.317238	1.288939	-0.013261	-0.010260	0.003834	-11.941330	-82.176452	-46.739891
08356	9.684971	-0.312723	1.229916	-0.002663	-0.004073	0.001768	-11.944913	-82.177937	-46.734184
08357	9.687029	-0.266902	1.304393	-0.005538	-0.006520	0.001610	-11.950859	-82.180760	-46.726544
08358	9.685103	-0.313198	1.228760	-0.016318	-0.005792	0.001016	-11.960663	-82.183302	-46.720686
08359	9.667423	-0.334144	1.281769	0.001341	0.004203	-0.004786	-11.927296	-82.180873	-46.748748
08360	9.669186	-0.264899	1.287428	-0.009019	0.001201	-0.005062	-11.902160	-82.180217	-46.774363
08361	9.679544	-0.315377	1.271031	-0.007673	0.005883	-0.006312	-11.866317	-82.177022	-46.810138
08362	9.674833	-0.283492	1.316188	-0.004142	0.007786	-0.008179	-11.819971	-82.173030	-46.855000
08363	9.679408	-0.314018	1.272405	-0.013604	0.007903	-0.009288	-11.773735	-82.169044	-46.904697
08364	9.632213	-0.293111	1.254333	-0.005882	0.011646	-0.011512	-11.711555	-82.163260	-46.967096
08365	9.633216	-0.280428	1.327470	-0.005255	0.005810	-0.012805	-11.648083	-82.160841	-47.029364
08366	9.667060	-0.328727	1.285900	-0.015826	0.004429	-0.015007	-11.583983	-82.159520	-47.096952
08367	9.650023	-0.291297	1.272407	-0.005495	0.002144	-0.013996	-11.518906	-82.159277	-47.160979
08368	9.674547	-0.276963	1.319675	-0.009449	0.003490	-0.015980	-11.447710	-82.158559	-47.231575
08369	9.679246	-0.306846	1.275386	-0.014957	0.002256	-0.015105	-11.383452	-82.158359	-47.300248
08370	9.674522	-0.274402	1.320396	-0.011843	0.008370	-0.013751	-11.318615	-82.154607	-47.370215
08371	9.680008	-0.270035	1.279317	-0.008549	0.007089	-0.013275	-11.254266	-82.151465	-47.435274
08372	9.714673	-0.283834	1.241060	-0.011368	0.015220	-0.014895	-11.179431	-82.143991	-47.512995
08373	9.667595	-0.285549	1.293097	-0.006306	0.015371	-0.011818	-11.113252	-82.136010	-47.578607
08374	9.643974	-0.285885	1.319786	-0.013132	0.014263	-0.013961	-11.044168	-82.128937	-47.653097
08375	9.667326	-0.283173	1.295628	-0.006333	0.009600	-0.014620	-10.971422	-82.124486	-47.725356
08376	9.614556	-0.265078	1.319275	-0.008758	0.008710	-0.015196	-10.899279	-82.120642	-47.799734
08377	9.678558	-0.296792	1.282964	-0.011210	0.002051	-0.018578	-10.819261	-82.120841	-47.882155
08378	9.667208	-0.278858	1.297446	-0.006781	0.008037	-0.014203	-10.750597	-82.117242	-47.951175
08379	9.680081	-0.225449	1.289692	-0.008544	0.007560	-0.009737	-10.700803	-82.113370	-48.001544
08380	9.697896	-0.226680	1.306877	-0.013390	0.006735	-0.003823	-10.679277	-82.109392	-48.025906
08381	9.672540	-0.273774	1.257957	-0.005882	0.012592	-0.004429	-10.645757	-82.102116	-48.058307
08382	9.686284	-0.209702	1.322989	-0.003246	0.011857	-0.001928	-10.622370	-82.095055	-48.078743
08383	9.715342	-0.228201	1.326713	-0.019082	0.013843	0.004999	-10.633771	-82.086077	-48.073428
08384	9.574837	-0.394787	1.281493	-0.014284	0.003611	-0.002995	-10.618645	-82.083769	-48.091551
08385	9.781578	-0.158054	1.299898	0.015463	0.012800	-0.005154	-10.569969	-82.076448	-48.126908
08386	9.559236	-0.312025	1.344799	-0.029649	0.011491	-0.004277	-10.552952	-82.069850	-48.157748
08387	9.661299	-0.222187	1.280164	0.002400	-0.005353	-0.005765	-10.523041	-82.072813	-48.181717
08388	9.701898	-0.256663	1.268561	-0.023744	0.004187	-0.000575	-10.522679	-82.069921	-48.189878
08389	9.659647	-0.291040	1.275090	0.000919	0.008888	0.001982	-10.514253	-82.064051	-48.193012
08390	9.684743	-0.243916	1.325700	-0.005694	0.006152	0.001757	-10.511623	-82.059812	-48.194169
08391	9.643309	-0.243990	1.334773	-0.007036	0.001468	0.002998	-10.517422	-82.058015	-48.187541
08392	9.624650	-0.277017	1.315278	-0.005743	-0.004427	0.003205	-10.528344	-82.059570	-48.175368
08393	9.659561	-0.291949	1.275537	-0.007719	-0.004709	-0.004855	-10.507448	-82.062074	-48.196089
08394	9.659577	-0.291786	1.275448	0.001554	0.003058	0.000682	-10.498727	-82.059695	-48.198910
08395	9.661258	-0.245745	1.350806	-0.000211	0.001150	-0.005456	-10.466716	-82.058960	-48.226509
08396	9.695228	-0.271715	1.239021	-0.008378	-0.004169	-0.002829	-10.454733	-82.061007	-48.239050
08397	9.649041	-0.240197	1.292249	0.002212	0.002517	-0.001344	-10.436929	-82.059071	-48.250903
08398	9.679189	-0.247038	1.367062	-0.000236	-0.003187	0.002335	-10.440221	-82.060022	-48.242378
08399	9.666159	-0.276851	1.305661	-0.005295	-0.002391	0.006325	-10.461357	-82.060055	-48.219258
08400	9.678318	-0.259319	1.294239	0.000211	-0.001626	0.001922	-10.461913	-82.060183	-48.214408
08401	9.654847	-0.261366	1.319214	-0.005084	-0.004017	0.008247	-10.491910	-82.060931	-48.182219
08402	9.672763	-0.263940	1.335332	-0.000025	-0.004339	0.007791	-10.518101	-82.061963	-48.150772
08403	9.678406	-0.261357	1.293170	-0.007719	-0.003282	0.005748	-10.538970	-82.062554	-48.129324
08404	9.684161	-0.281999	1.320588	-0.001342	-0.003258	0.011843	-10.581755	-82.062568	-48.079615
08405	9.696334	-0.265201	1.308937	-0.009932	-0.005324	0.010627	-10.625152	-82.063790	-48.036701
08406	9.678470	-0.264427	1.292062	-0.002212	-0.001567	0.008413	-10.653048	-82.063178	-48.008006
08407	9.620168	-0.252134	1.356286	-0.004872	-0.005171	0.013705	-10.705875	-82.063980	-47.952644
08408	9.689907	-0.283077	1.276803	-0.011065	-0.012585	0.006721	-10.740467	-82.069748	-47.921469
08409	9.671254	-0.316502	1.256874	0.000661	0.000883	0.008578	-10.764806	-82.067680	-47.891670
08410	9.661638	-0.255129	1.346343	-0.003502	0.004328	0.008209	-10.788227	-82.063779	-47.864487
08411	9.637154	-0.268791	1.299421	-0.009906	-0.000509	0.006372	-10.810754	-82.062728	-47.842630
08412	9.654204	-0.305670	1.313026	-0.004847	-0.000831	0.005914	-10.829699	-82.061974	-47.821754
08413	9.667187	-0.254058	1.304511	-0.011671	-0.001464	0.007303	-10.857725	-82.061359	-47.795365
08414	9.630589	-0.285602	1.268454	-0.007271	-0.001721	0.005337	-10.876395	-82.061164	-47.776670
08415	9.667223	-0.255222	1.304022	-0.006403	-0.004362	0.001698	-10.881029	-82.062783	-47.770852
08416	9.666411	-0.290139	1.300903	-0.013647	-0.000793	0.006314	-10.906229	-82.061944	-47.748563
08417	9.672006	-0.287198	1.259073	-0.005718	0.000389	-0.001050	-10.895697	-82.061187	-47.757662
08418	9.673783	-0.241856	1.334356	-0.010774	0.001657	0.006479	-10.918504	-82.058977	-47.735989
08419	9.677676	-0.307818	1.287010	-0.013410	0.001922	0.000445	-10.917218	-82.057195	-47.740203
08420	9.666312	-0.291885	1.301252	-0.008349	0.002545	0.007057	-10.939760	-82.054397	-47.717144
08421	9.643622	-0.259747	1.329533	-0.015174	0.001438	0.004912	-10.957857	-82.052402	-47.702807
08422	9.667093	-0.258722	1.304292	-0.011882	-0.000312	0.001849	-10.964103	-82.051797	-47.699101
08423	9.654104	-0.311463	1.312403	-0.012779	-0.003436	0.002674	-10.975614	-82.052787	-47.690029
08424	9.684986	-0.260969	1.320669	-0.010749	0.005530	-0.004844	-10.949403	-82.049613	-47.717513
08425	9.660635	-0.296579	1.343273	-0.009460	-0.000367	-0.004644	-10.927138	-82.049673	-47.740623
08426	9.672801	-0.278286	1.332135	-0.016046	0.002188	-0.005586	-10.903630	-82.048455	-47.769260
08427	9.666126	-0.269205	1.232167	-0.009012	0.000724	-0.008591	-10.864369	-82.048326	-47.809273
08428	9.660635	-0.294723	1.343678	-0.008328	0.005005	-0.014870	-10.796821	-82.046518	-47.876364
08429	9.666232	-0.290085	1.302246	-0.016258	0.002872	-0.014576	-10.735967	-82.045809	-47.942371
08430	9.684914	-0.256258	1.322114	-0.009197	0.007171	-0.014762	-10.667654	-82.042735	-48.013849
08431	9.655639	-0.236652	1.320343	-0.009855	0.007237	-0.016269	-10.593063	-82.039724	-48.090024
08432	9.648255	-0.284387	1.287289	-0.015598	0.002801	-0.013066	-10.538408	-82.038907	-48.148917
08433	9.684802	-0.252571	1.323641	-0.010302	0.006144	-0.012321	-10.480874	-82.036077	-48.208128
08434	9.654723	-0.267689	1.318854	-0.010302	0.006144	-0.012320	-10.424477	-82.033310	-48.269336
08435	9.689525	-0.281390	1.280072	-0.014701	0.005923	-0.013887	-10.363404	-82.030750	-48.334667
08436	9.647329	-0.314450	1.286315	-0.009432	0.003976	-0.012427	-10.307737	-82.029206	-48.391676
08437	9.665994	-0.280736	1.306058	-0.016254	0.002863	-0.014571	-10.247098	-82.028423	-48.457469
08438	9.677336	-0.295702	1.292397	-0.009195	0.006697	-0.018289	-10.165224	-82.025891	-48.542173
08439	9.684597	-0.245122	1.326539	-0.007219	0.006025	-0.017299	-10.086198	-82.023575	-48.621305
08440	9.678077	-0.258167	1.296270	-0.014276	0.001718	-0.017115	-10.016213	-82.023737	-48.696100
08441	9.654595	-0.258063	1.321703	-0.005029	0.002785	-0.021459	-9.921530	-82.023632	-48.789775
