// General information: 
//  MT Manager version: 2022.2.0 
//  XDA version: 2022.2.0 build 7381 rev 124627 built on 2023-07-19
// Device information: 
//  DeviceId: 00B4BA83
//  ProductCode: MTW2-3A7G6
//  Firmware Version: 4.6.0
//  Hardware Version: 2.0.0
// Device settings: 
//  Filter Profile: human(46.1)
//  Option Flags: Orientation Smoother Disabled, Position/Velocity Smoother Disabled, Continuous Zero Rotation Update Disabled, AHS Disabled, ICC Disabled
// Coordinate system: ENU
PacketCounter	Acc_X	Acc_Y	Acc_Z	Gyr_X	Gyr_Y	Gyr_Z	Roll	Pitch	Yaw
21572	9.689340	-0.069858	0.053250	-0.003904	0.005607	-0.007846	-148.811380	-88.773841	-100.826508
21573	9.759704	-0.002717	-0.223668	-0.006272	0.008833	-0.007984	-148.758313	-88.776324	-100.881465
21574	9.754288	-0.096017	-0.141968	-0.002640	-0.001185	-0.008078	-148.841320	-88.773970	-100.798216
21575	9.732270	-0.096491	-0.239813	-0.006273	0.008833	-0.007984	-148.788311	-88.776454	-100.853117
21576	9.771906	-0.113614	-0.272352	-0.000641	-0.000778	-0.011244	-148.937170	-88.775235	-100.702857
21577	9.756995	-0.153384	-0.195603	-0.003535	0.001977	-0.004542	-148.898693	-88.773339	-100.741654
21578	9.726653	-0.142705	-0.273294	-0.004845	0.010315	-0.007000	-148.798760	-88.776302	-100.842650
21579	9.751375	-0.200673	-0.229066	-0.002924	-0.000646	-0.006004	-148.829953	-88.773552	-100.811411
21580	9.788333	-0.158226	-0.207227	-0.002477	0.007091	-0.006862	-148.770247	-88.774891	-100.870820
21581	9.743073	-0.187961	-0.208369	-0.001538	0.002383	-0.007709	-148.797705	-88.774132	-100.842521
21582	9.742505	-0.166080	-0.220313	-0.001865	0.004468	-0.008323	-148.807460	-88.774618	-100.832101
21583	9.735362	-0.196118	-0.175348	-0.003907	0.005608	-0.007847	-148.794690	-88.775481	-100.845399
21584	9.757132	-0.148407	-0.192576	0.002217	0.002189	-0.009275	-148.855574	-88.775130	-100.781494
21585	9.763971	-0.141319	-0.133003	-0.006256	0.008058	-0.006641	-148.782452	-88.776836	-100.856503
21586	9.779508	-0.121130	-0.197069	-0.000904	-0.001012	-0.007825	-148.856223	-88.774488	-100.781499
21587	9.723159	-0.079663	-0.124163	-0.001845	0.003695	-0.006978	-148.848908	-88.774155	-100.788158
21588	9.746101	-0.074263	-0.116758	-0.002173	0.005779	-0.007593	-148.823915	-88.775067	-100.812668
21589	9.776805	-0.059051	-0.141515	-0.001867	0.004468	-0.008323	-148.836727	-88.775512	-100.799209
21590	9.769052	-0.068031	-0.108925	-0.003581	0.003523	-0.007233	-148.835559	-88.775210	-100.800690
21591	9.768460	-0.046236	-0.120845	-0.001846	0.003695	-0.006979	-148.828249	-88.774878	-100.807345
21592	9.746143	-0.071253	-0.115145	-0.005339	0.004124	-0.008833	-148.856465	-88.775348	-100.780450
21593	9.730989	-0.065414	-0.153925	-0.003582	0.003523	-0.007234	-148.858372	-88.775006	-100.778880
21594	9.777458	-0.076406	-0.127413	-0.003582	0.003523	-0.007234	-148.857234	-88.774709	-100.780340
21595	9.754543	-0.080329	-0.133986	-0.003604	0.004297	-0.008579	-148.879279	-88.775145	-100.758641
21596	9.763536	-0.112017	-0.141097	-0.002483	0.007091	-0.006862	-148.819498	-88.776485	-100.818120
21597	9.741234	-0.137115	-0.135282	-0.005318	0.003351	-0.007489	-148.830664	-88.776135	-100.808285
21598	9.735686	-0.184883	-0.169506	-0.003583	0.003523	-0.007234	-148.829588	-88.775836	-100.809681
21599	9.766399	-0.169512	-0.194414	-0.006792	0.003415	-0.011165	-148.925090	-88.776605	-100.716334
21600	9.750272	-0.167134	-0.141968	0.001646	0.003267	-0.005124	-148.875920	-88.775557	-100.762833
21601	9.742905	-0.151641	-0.212913	-0.009120	0.005090	-0.008614	-148.890965	-88.776393	-100.751296
21602	9.767076	-0.188263	-0.181035	-0.001563	0.003159	-0.009055	-148.935586	-88.776449	-100.705817
21603	9.735173	-0.159819	-0.180154	-0.004967	0.000492	-0.005531	-148.941085	-88.774117	-100.701450
21604	9.773648	-0.134907	-0.237285	-0.003914	0.005608	-0.007848	-148.925382	-88.775022	-100.717667
21605	9.733973	-0.116290	-0.203972	-0.001826	0.002923	-0.005634	-148.897891	-88.773913	-100.744496
21606	9.765297	-0.122208	-0.216591	-0.003607	0.004297	-0.008579	-148.917018	-88.774392	-100.725712
21607	9.756305	-0.089123	-0.208495	-0.000398	0.004406	-0.004648	-148.845608	-88.773719	-100.795651
21608	9.747930	-0.077200	-0.188023	-0.005959	0.006746	-0.007373	-148.804133	-88.775042	-100.838810
21609	9.762469	-0.060228	-0.160678	-0.003015	0.002450	-0.011386	-148.915835	-88.775405	-100.727096
21610	9.747963	-0.075331	-0.187068	-0.000776	0.008039	-0.007952	-148.867052	-88.777528	-100.774592
21611	9.739581	-0.063275	-0.166566	-0.001850	0.003697	-0.006980	-148.859717	-88.777196	-100.781274
21612	9.763131	-0.079073	-0.146954	-0.002135	0.004233	-0.004904	-148.794408	-88.776553	-100.846088
21613	9.740229	-0.083187	-0.153440	-0.002181	0.005781	-0.007594	-148.772381	-88.777426	-100.867656
21614	9.763780	-0.098882	-0.133852	-0.001519	0.001612	-0.006366	-148.776891	-88.775928	-100.862278
21615	9.740249	-0.081816	-0.152888	-0.001542	0.002386	-0.007711	-148.804375	-88.775171	-100.833957
21616	9.764432	-0.118470	-0.120979	-0.003941	0.006382	-0.009194	-148.808807	-88.776854	-100.830050
21617	9.741533	-0.122528	-0.127552	-0.003541	0.001975	-0.004546	-148.770582	-88.774957	-100.868599
21618	9.781275	-0.139748	-0.160077	-0.000162	0.005419	-0.009414	-148.791336	-88.776228	-100.846193
21619	9.749973	-0.132372	-0.146637	-0.005631	0.004660	-0.006761	-148.767786	-88.776303	-100.871261
21620	9.759033	-0.164106	-0.153923	-0.003587	0.003523	-0.007236	-148.766558	-88.776007	-100.872805
21621	9.736139	-0.168199	-0.160604	-0.003564	0.002749	-0.005891	-148.748475	-88.774888	-100.891220
21622	9.735519	-0.146511	-0.172593	-0.003565	0.002749	-0.005891	-148.727465	-88.773809	-100.912545
21623	9.753002	-0.189585	-0.199915	-0.005324	0.003350	-0.007492	-148.738726	-88.773460	-100.902619
21624	9.766243	-0.130419	-0.197158	-0.003326	0.003762	-0.010657	-148.812421	-88.774294	-100.829074
21625	9.743353	-0.134485	-0.203740	-0.004159	0.004596	-0.003085	-148.704834	-88.773245	-100.937355
21626	9.734946	-0.122753	-0.183401	-0.005610	0.003886	-0.005417	-148.658321	-88.772580	-100.985359
21627	9.757868	-0.117331	-0.176012	-0.001876	0.004472	-0.008325	-148.671023	-88.773029	-100.972014
21628	9.757244	-0.095469	-0.187861	-0.001853	0.003698	-0.006980	-148.660721	-88.772742	-100.981660
21629	9.766327	-0.127156	-0.195096	-0.003922	0.005609	-0.007850	-148.647938	-88.773606	-100.994979
21630	9.748849	-0.082730	-0.166972	-0.003899	0.004834	-0.006506	-148.612140	-88.773726	-101.031279
21631	9.748219	-0.061091	-0.178712	-0.002449	0.005544	-0.004173	-148.515375	-88.773459	-101.127756
21632	9.780208	-0.087953	-0.179083	-0.002709	0.001142	-0.012120	-148.658864	-88.773449	-100.984056
21633	9.748886	-0.080457	-0.165920	-0.003590	0.003524	-0.007237	-148.660889	-88.773109	-100.982373
21634	9.748900	-0.079642	-0.165486	-0.000166	0.005422	-0.009414	-148.681389	-88.774384	-100.960227
21635	9.748914	-0.078813	-0.165060	-0.005327	0.003349	-0.007494	-148.692711	-88.774035	-100.950240
21636	9.758013	-0.110410	-0.172436	-0.001569	0.003163	-0.009057	-148.737332	-88.774096	-100.904768
21637	9.758028	-0.109646	-0.172049	-0.003901	0.004834	-0.006506	-148.704582	-88.774181	-100.938046
21638	9.735145	-0.113695	-0.178588	-0.000143	0.004648	-0.008069	-148.705104	-88.774677	-100.935871
21639	9.759365	-0.150446	-0.146650	-0.003901	0.004834	-0.006506	-148.672342	-88.774761	-100.969161
21640	9.759384	-0.149603	-0.146236	-0.003330	0.003763	-0.010659	-148.746158	-88.775600	-100.895506
21641	9.759403	-0.148725	-0.145886	-0.003592	0.003524	-0.007238	-148.748182	-88.775260	-100.893826
21642	9.758767	-0.126865	-0.157562	-0.000789	0.008043	-0.007951	-148.698863	-88.777387	-100.941864
21643	9.767891	-0.158589	-0.164732	-0.003568	0.002749	-0.005893	-148.680871	-88.776267	-100.960191
21644	9.750345	-0.114254	-0.136806	-0.003593	0.003524	-0.007238	-148.679858	-88.775970	-100.961532
21645	9.727464	-0.118318	-0.143473	-0.003593	0.003524	-0.007238	-148.681909	-88.775630	-100.959824
21646	9.759488	-0.145167	-0.143785	-0.003617	0.004299	-0.008583	-148.700981	-88.776110	-100.941084
21647	9.758841	-0.123439	-0.155654	-0.003855	0.003284	-0.003817	-148.628216	-88.774634	-101.014360
21648	9.758192	-0.101538	-0.167675	-0.002711	0.001144	-0.012122	-148.771923	-88.774620	-100.870450
21649	9.749746	-0.089309	-0.147519	-0.003594	0.003524	-0.007239	-148.773952	-88.774281	-100.868765
21650	9.735330	-0.104614	-0.174030	-0.005665	0.005433	-0.008109	-148.767392	-88.775177	-100.876828
21651	9.726216	-0.071579	-0.165863	-0.002144	0.004234	-0.004905	-148.705287	-88.774492	-100.938462
21652	9.766713	-0.109767	-0.186133	-0.003308	0.002989	-0.009315	-148.759330	-88.774543	-100.884566
21653	9.743172	-0.092654	-0.204999	-0.003905	0.004834	-0.006507	-148.726599	-88.774628	-100.917828
21654	9.749810	-0.085727	-0.145430	-0.000147	0.004651	-0.008069	-148.726866	-88.775125	-100.915891
21655	9.743204	-0.091226	-0.204079	-0.003906	0.004834	-0.006508	-148.694124	-88.775210	-100.949164
21656	9.759651	-0.137868	-0.139866	-0.002506	0.007094	-0.006864	-148.633786	-88.776559	-101.009229
21657	9.758322	-0.094978	-0.163899	-0.001524	0.001615	-0.006368	-148.641381	-88.775026	-101.000790
21658	9.736795	-0.141302	-0.146126	-0.005667	0.005433	-0.008111	-148.635641	-88.775911	-101.008062
21659	9.759022	-0.114560	-0.151028	-0.002974	0.000905	-0.008703	-148.707356	-88.774726	-100.936319
21660	9.745304	-0.150996	-0.165481	-0.003907	0.004834	-0.006508	-148.671377	-88.774858	-100.972814
21661	9.767529	-0.124278	-0.170360	-0.001263	0.001856	-0.009790	-148.753685	-88.774461	-100.889496
21662	9.760420	-0.154437	-0.125710	-0.001861	0.003700	-0.006982	-148.743253	-88.774169	-100.899243
21663	9.776044	-0.134139	-0.189471	-0.002795	0.007629	-0.004787	-148.631601	-88.775109	-101.010807
21664	9.760453	-0.153119	-0.124720	-0.004735	0.001504	-0.010306	-148.729613	-88.774734	-100.913747
21665	9.753195	-0.137378	-0.195909	-0.001525	0.001616	-0.006369	-148.737078	-88.773201	-100.905438
21666	9.776094	-0.131930	-0.188414	-0.006293	0.008052	-0.006648	-148.661135	-88.774943	-100.983269
21667	9.744062	-0.103682	-0.187165	-0.001861	0.003701	-0.006982	-148.653871	-88.774614	-100.989886
21668	9.767639	-0.119264	-0.167627	-0.003286	0.002215	-0.007972	-148.687967	-88.773889	-100.955937
21669	9.736283	-0.112041	-0.154350	-0.003935	0.005609	-0.007854	-148.675257	-88.774754	-100.969190
21670	9.758493	-0.085362	-0.158975	-0.000463	0.005962	-0.007337	-148.640474	-88.775682	-101.002509
21671	9.744124	-0.100813	-0.185454	-0.003885	0.004058	-0.005164	-148.587793	-88.774986	-101.055713
21672	9.767017	-0.095221	-0.178040	-0.003337	0.003766	-0.010662	-148.661776	-88.775819	-100.981879
21673	9.768407	-0.136653	-0.153456	-0.002924	-0.000645	-0.006015	-148.693491	-88.773075	-100.950118
21674	9.750728	-0.092334	-0.125581	-0.005673	0.005432	-0.008112	-148.687375	-88.773968	-100.957762
21675	9.744180	-0.097727	-0.184210	-0.000152	0.004654	-0.008069	-148.690724	-88.774429	-100.952784
21676	9.767763	-0.113320	-0.164494	-0.003912	0.004834	-0.006509	-148.655158	-88.774547	-100.988853
21677	9.729842	-0.112438	-0.210255	-0.003912	0.004834	-0.006509	-148.622468	-88.774631	-101.022077
21678	9.744919	-0.116802	-0.170719	-0.001551	0.002392	-0.007715	-148.646528	-88.773924	-100.997144
21679	9.730569	-0.132170	-0.197345	-0.003913	0.004834	-0.006510	-148.613858	-88.774008	-101.030349
21680	9.744947	-0.115392	-0.170031	-0.003288	0.002215	-0.007973	-148.647667	-88.773289	-100.996679
21681	9.754171	-0.147041	-0.177455	-0.000128	0.003879	-0.006724	-148.631046	-88.772970	-101.011662
21682	9.754192	-0.146324	-0.176874	-0.000805	0.008049	-0.007950	-148.581578	-88.775091	-101.059848
21683	9.737182	-0.123139	-0.136387	-0.003914	0.004833	-0.006510	-148.548885	-88.775175	-101.093077
21684	9.777101	-0.140120	-0.168788	-0.001865	0.003702	-0.006983	-148.538928	-88.774889	-101.102402
21685	9.745028	-0.111874	-0.167778	-0.005337	0.003347	-0.007501	-148.550483	-88.774542	-101.092188
21686	9.759391	-0.095064	-0.140355	-0.002204	0.005787	-0.007596	-148.525103	-88.775461	-101.117112
21687	9.722896	-0.136371	-0.161730	-0.003602	0.003524	-0.007242	-148.527277	-88.775124	-101.115287
21688	9.745075	-0.109641	-0.166500	-0.001892	0.004478	-0.008328	-148.536802	-88.775619	-101.105111
21689	9.745796	-0.130009	-0.153905	-0.003602	0.003524	-0.007242	-148.538977	-88.775282	-101.103285
21690	9.767969	-0.103412	-0.158702	-0.005626	0.003880	-0.005425	-148.492942	-88.774608	-101.150821
21691	9.735881	-0.075253	-0.157566	-0.002205	0.005787	-0.007596	-148.470717	-88.775482	-101.172600
21692	9.745134	-0.106885	-0.164840	-0.003603	0.003525	-0.007243	-148.470315	-88.775181	-101.173348
21693	9.776543	-0.112553	-0.177372	-0.003603	0.003525	-0.007243	-148.472513	-88.774843	-101.171500
21694	9.745161	-0.105496	-0.164097	-0.003917	0.004833	-0.006511	-148.436896	-88.774960	-101.207623
21695	9.753712	-0.115927	-0.183660	-0.005052	0.002814	-0.009579	-148.503239	-88.774975	-101.142446
21696	9.776590	-0.110285	-0.176230	-0.003917	0.004834	-0.006511	-148.467691	-88.775078	-101.178460
21697	9.745205	-0.103237	-0.162958	-0.003604	0.003525	-0.007243	-148.469893	-88.774741	-101.176608
21698	9.753043	-0.092638	-0.194732	-0.000131	0.003881	-0.006724	-148.451067	-88.774450	-101.193802
21699	9.745948	-0.122868	-0.150128	-0.003003	0.001684	-0.010052	-148.542818	-88.774054	-101.102036
21700	9.753786	-0.112181	-0.182038	-0.001842	0.002927	-0.005639	-148.512427	-88.772999	-101.131775
21701	9.746694	-0.142573	-0.137294	-0.003945	0.005610	-0.007856	-148.499657	-88.773864	-101.145094
21702	9.753821	-0.110658	-0.181099	-0.001921	0.005256	-0.009674	-148.529118	-88.775131	-101.114964
21703	9.754558	-0.131029	-0.168512	-0.003579	0.002748	-0.005899	-148.511443	-88.774012	-101.132978
21704	9.768880	-0.114257	-0.141162	-0.001896	0.004480	-0.008329	-148.521347	-88.774485	-101.122381
21705	9.746041	-0.118383	-0.147627	-0.006311	0.008048	-0.006652	-148.448220	-88.776180	-101.197426
21706	9.731030	-0.112765	-0.186345	-0.003553	0.001972	-0.004554	-148.408016	-88.774320	-101.237961
21707	9.777478	-0.123424	-0.159726	-0.003345	0.003769	-0.010666	-148.484783	-88.775128	-101.161378
21708	9.731062	-0.111190	-0.185646	-0.002184	0.005012	-0.006252	-148.439707	-88.775267	-101.206007
21709	9.768227	-0.089556	-0.151048	-0.003947	0.005610	-0.007857	-148.426874	-88.776132	-101.219390
21710	9.777530	-0.121102	-0.158295	-0.001897	0.004480	-0.008329	-148.436786	-88.776628	-101.208852
21711	9.722549	-0.097784	-0.164419	-0.001529	0.001619	-0.006372	-148.444647	-88.775100	-101.200151
21712	9.777559	-0.119544	-0.157738	-0.003346	0.003770	-0.010667	-148.518310	-88.775950	-101.126654
21713	9.745429	-0.091156	-0.156635	-0.005685	0.005431	-0.008117	-148.514992	-88.776805	-101.131516
21714	9.754741	-0.122781	-0.164035	-0.001529	0.001619	-0.006372	-148.519817	-88.775324	-101.125857
21715	9.746187	-0.110886	-0.143754	-0.003950	0.005610	-0.007857	-148.507051	-88.776190	-101.139174
21716	9.769049	-0.105345	-0.136258	-0.001845	0.002928	-0.005640	-148.476461	-88.775133	-101.169098
21717	9.754786	-0.120771	-0.162850	-0.002214	0.005789	-0.007597	-148.454210	-88.776008	-101.190907
21718	9.731958	-0.124895	-0.169384	-0.003950	0.005610	-0.007858	-148.438851	-88.776905	-101.206808
21719	9.763398	-0.130346	-0.181823	-0.005057	0.002814	-0.009583	-148.505382	-88.776922	-101.141445
21720	9.754836	-0.118434	-0.161597	0.001628	0.003287	-0.005119	-148.456450	-88.775863	-101.187705
21721	9.763426	-0.129106	-0.181181	-0.005633	0.003877	-0.005429	-148.413442	-88.775154	-101.232236
21722	9.755604	-0.138417	-0.148596	-0.002215	0.005790	-0.007598	-148.387837	-88.776065	-101.257350
21723	9.732779	-0.142512	-0.155199	-0.003637	0.004302	-0.008591	-148.409936	-88.776511	-101.235615
21724	9.723467	-0.109452	-0.147170	-0.001530	0.001620	-0.006373	-148.414098	-88.775031	-101.230574
21725	9.741394	-0.152219	-0.174571	-0.005374	0.004122	-0.008851	-148.445662	-88.775468	-101.200368
21726	9.754177	-0.093077	-0.171539	-0.001874	0.003705	-0.006985	-148.436302	-88.775171	-101.209095
21727	9.763526	-0.124739	-0.178873	-0.003926	0.004833	-0.006514	-148.403681	-88.775253	-101.242259
21728	9.754203	-0.091701	-0.170785	-0.003295	0.002217	-0.007978	-148.438499	-88.774534	-101.207623
21729	9.754219	-0.090892	-0.170305	-0.004297	0.007695	-0.008471	-148.410612	-88.776601	-101.236264
21730	9.777076	-0.085132	-0.162678	-0.001586	0.003174	-0.009063	-148.454846	-88.776688	-101.191199
21731	9.740755	-0.126622	-0.184315	-0.003872	0.003279	-0.003824	-148.382562	-88.775205	-101.264004
21732	9.746414	-0.098801	-0.137079	-0.001559	0.002397	-0.007718	-148.407221	-88.774506	-101.238512
21733	9.755023	-0.109141	-0.156750	-0.003323	0.002994	-0.009324	-148.464190	-88.774534	-101.181720
21734	9.746440	-0.097174	-0.136330	-0.002535	0.007098	-0.006865	-148.404414	-88.775859	-101.241231
21735	9.786494	-0.113803	-0.168608	-0.005060	0.002814	-0.009585	-148.470942	-88.775877	-101.175873
21736	9.732233	-0.111787	-0.162594	-0.003873	0.003279	-0.003824	-148.395241	-88.774430	-101.252035
21737	9.755837	-0.127479	-0.142984	-0.003612	0.003525	-0.007247	-148.397540	-88.774095	-101.250091
21738	9.740863	-0.121541	-0.182002	-0.000955	0.000560	-0.010528	-148.511982	-88.773337	-101.134460
21739	9.746498	-0.093474	-0.134762	-0.002193	0.005014	-0.006253	-148.469956	-88.773430	-101.176037
21740	9.755882	-0.125059	-0.142067	-0.003641	0.004302	-0.008592	-148.489788	-88.773911	-101.156581
21741	9.741675	-0.140377	-0.168721	-0.001877	0.003706	-0.006986	-148.482585	-88.773585	-101.163147
21742	9.740165	-0.097332	-0.192674	-0.001905	0.004483	-0.008331	-148.491784	-88.774073	-101.153248
21743	9.764542	-0.133958	-0.160816	-0.001877	0.003706	-0.006986	-148.484582	-88.773747	-101.159814
21744	9.764560	-0.133092	-0.160455	-0.003354	0.003772	-0.010670	-148.558574	-88.774593	-101.085989
21745	9.732363	-0.104985	-0.159316	-0.006273	0.006490	-0.003966	-148.445950	-88.774723	-101.200519
21746	9.747355	-0.109526	-0.119596	-0.000141	0.003887	-0.006725	-148.426665	-88.774416	-101.218086
21747	9.764608	-0.131035	-0.159178	-0.001273	0.001868	-0.009797	-148.508998	-88.774035	-101.134748
21748	9.741795	-0.135091	-0.166098	-0.003298	0.002217	-0.007981	-148.543755	-88.773314	-101.100162
21749	9.763096	-0.087099	-0.182936	-0.002224	0.005791	-0.007599	-148.521586	-88.774191	-101.121896
21750	9.763884	-0.107533	-0.170304	-0.001879	0.003706	-0.006986	-148.512196	-88.773904	-101.130679
21751	9.764675	-0.127874	-0.157654	-0.005726	0.006206	-0.009467	-148.528892	-88.775543	-101.115546
21752	9.741091	-0.110913	-0.176503	-0.001851	0.002929	-0.005642	-148.498378	-88.774453	-101.145297
21753	9.763930	-0.105504	-0.168926	-0.006276	0.006489	-0.003967	-148.385797	-88.774580	-101.259786
21754	9.741894	-0.131079	-0.163491	-0.001534	0.001622	-0.006374	-148.390463	-88.773097	-101.254250
21755	9.741909	-0.130381	-0.163142	-0.003962	0.005610	-0.007861	-148.377700	-88.773963	-101.267571
21756	9.740374	-0.087254	-0.186886	-0.002255	0.006570	-0.008944	-148.373653	-88.775664	-101.271286
21757	9.749807	-0.118757	-0.194161	-0.003617	0.003525	-0.007249	-148.376006	-88.775329	-101.269290
21758	9.774204	-0.155407	-0.162363	-0.003617	0.003525	-0.007249	-148.376566	-88.775013	-101.269087
21759	9.741199	-0.106171	-0.173441	-0.002227	0.005792	-0.007599	-148.354246	-88.775889	-101.290974
21760	9.741996	-0.126648	-0.160874	-0.005325	0.002566	-0.006166	-148.343713	-88.774786	-101.302813
21761	9.765615	-0.142064	-0.141212	-0.003675	0.005081	-0.009939	-148.385620	-88.776019	-101.261287
21762	9.741246	-0.103772	-0.172270	-0.001592	0.003178	-0.009065	-148.430821	-88.776086	-101.215255
21763	9.764863	-0.119415	-0.152535	-0.004514	0.005891	-0.002361	-148.288841	-88.775436	-101.358140
21764	9.741273	-0.102735	-0.171377	-0.003618	0.003526	-0.007250	-148.287205	-88.775145	-101.360065
21765	9.742073	-0.123192	-0.158867	-0.001882	0.003708	-0.006987	-148.280053	-88.774820	-101.366582
21766	9.764903	-0.117506	-0.151444	-0.003300	0.002218	-0.007983	-148.314914	-88.774091	-101.331856
21767	9.772782	-0.106667	-0.183220	-0.003648	0.004304	-0.008595	-148.337024	-88.774540	-101.310116
21768	9.741326	-0.099820	-0.170058	0.001620	0.003294	-0.005117	-148.288742	-88.773488	-101.355773
21769	9.733473	-0.109329	-0.137622	-0.005645	0.003872	-0.005435	-148.246116	-88.772775	-101.399929
21770	9.758665	-0.120935	-0.209217	-0.003619	0.003526	-0.007250	-148.246372	-88.772455	-101.400000
21771	9.750024	-0.108919	-0.188978	0.000433	0.002832	-0.010881	-148.338792	-88.772876	-101.305596
21772	9.742175	-0.118011	-0.156535	-0.001912	0.004486	-0.008333	-148.348010	-88.773400	-101.295778
21773	9.772868	-0.102252	-0.181091	-0.003620	0.003525	-0.007250	-148.350398	-88.773065	-101.293749
21774	9.733541	-0.105412	-0.135878	-0.003620	0.003525	-0.007250	-148.349463	-88.772786	-101.295052
21775	9.765031	-0.110841	-0.148212	-0.002232	0.005793	-0.007600	-148.327163	-88.773662	-101.316921
21776	9.750904	-0.126080	-0.174917	-0.001276	0.001872	-0.009799	-148.405933	-88.773317	-101.237065
21777	9.742252	-0.114194	-0.154599	-0.004259	0.006139	-0.005785	-148.338596	-88.773817	-101.305143
21778	9.750134	-0.103472	-0.186325	0.000490	0.001277	-0.008191	-148.388918	-88.772685	-101.252757
21779	9.750951	-0.123896	-0.173885	-0.005677	0.004649	-0.006781	-148.366022	-88.772758	-101.277196
21780	9.751773	-0.144297	-0.161301	-0.003651	0.004304	-0.008596	-148.385746	-88.773222	-101.257786
21781	9.742309	-0.111244	-0.153146	-0.003622	0.003525	-0.007251	-148.388140	-88.772888	-101.255752
21782	9.750196	-0.100491	-0.184724	-0.004290	0.006918	-0.007130	-148.337290	-88.774206	-101.307298
21783	9.751019	-0.120887	-0.172185	-0.001247	0.001095	-0.008454	-148.399864	-88.773048	-101.243709
21784	9.743163	-0.129999	-0.139870	-0.003363	0.003775	-0.010675	-148.475569	-88.773860	-101.168185
21785	9.773856	-0.114158	-0.164315	-0.004262	0.006139	-0.005785	-148.408248	-88.774362	-101.236249
21786	9.751068	-0.118585	-0.170989	-0.005650	0.003871	-0.005437	-148.363913	-88.773637	-101.282023
21787	9.773885	-0.113024	-0.163401	-0.002206	0.005016	-0.006255	-148.321882	-88.773730	-101.323612
21788	9.732910	-0.073884	-0.142450	-0.001597	0.003181	-0.009067	-148.366251	-88.773842	-101.278503
21789	9.742422	-0.105484	-0.149985	-0.003564	0.001969	-0.004562	-148.329242	-88.771940	-101.315848
21790	9.773924	-0.111054	-0.162426	-0.003944	0.004832	-0.006519	-148.294976	-88.772041	-101.350668
21791	9.742448	-0.104197	-0.149216	-0.003654	0.004304	-0.008597	-148.317085	-88.772492	-101.328933
21792	9.751152	-0.114616	-0.168909	-0.003244	0.000662	-0.005295	-148.311093	-88.770223	-101.335026
21793	9.743287	-0.124063	-0.136634	-0.003625	0.003526	-0.007252	-148.313520	-88.769889	-101.332960
21794	9.751177	-0.113286	-0.168369	-0.003625	0.003526	-0.007252	-148.311480	-88.769610	-101.335283
21795	9.751191	-0.112587	-0.168019	-0.001888	0.003710	-0.006989	-148.304356	-88.769286	-101.341776
21796	9.774004	-0.106861	-0.160400	-0.003975	0.005611	-0.007864	-148.287519	-88.770186	-101.359070
21797	9.719727	-0.104952	-0.154327	-0.003656	0.004305	-0.008598	-148.309598	-88.770637	-101.337367
21798	9.737970	-0.147493	-0.181736	-0.003305	0.002219	-0.007986	-148.343900	-88.769917	-101.303181
21799	9.751252	-0.109622	-0.166409	-0.004236	0.005360	-0.004441	-148.257148	-88.769631	-101.390665
21800	9.728472	-0.113811	-0.173267	-0.002726	0.001164	-0.012143	-148.400291	-88.769653	-101.247315
21801	9.751278	-0.107988	-0.165946	-0.003566	0.001968	-0.004563	-148.363381	-88.767752	-101.284563
21802	9.728498	-0.112367	-0.172764	-0.005715	0.005427	-0.008128	-148.356578	-88.768680	-101.292955
21803	9.760017	-0.117719	-0.185070	-0.000153	0.003895	-0.006725	-148.339882	-88.768368	-101.308027
21804	9.728529	-0.110856	-0.171980	-0.003337	0.002999	-0.009332	-148.394433	-88.768439	-101.253680
21805	9.720665	-0.120061	-0.139562	-0.003658	0.004305	-0.008598	-148.416529	-88.768889	-101.231960
21806	9.782023	-0.089105	-0.188953	-0.001891	0.003710	-0.006989	-148.406915	-88.768607	-101.240950
21807	9.760083	-0.114555	-0.183544	-0.003979	0.005611	-0.007865	-148.394296	-88.769475	-101.254137
21808	9.751382	-0.102579	-0.163270	-0.004754	0.001508	-0.010330	-148.494192	-88.769096	-101.155252
21809	9.752231	-0.122928	-0.150988	-0.001540	0.001625	-0.006378	-148.501965	-88.767572	-101.146645
21810	9.728618	-0.106065	-0.169962	-0.005718	0.005427	-0.008129	-148.495187	-88.768510	-101.155027
21811	9.751422	-0.100237	-0.162301	-0.001923	0.004490	-0.008334	-148.507751	-88.768971	-101.141846
21812	9.751437	-0.099472	-0.161913	-0.003629	0.003526	-0.007254	-148.508477	-88.768688	-101.141589
21813	9.760177	-0.109767	-0.181466	-0.003660	0.004305	-0.008599	-148.530633	-88.769138	-101.119811
21814	9.782978	-0.103962	-0.173902	-0.003630	0.003526	-0.007254	-148.529887	-88.768854	-101.120914
21815	9.729538	-0.123378	-0.155928	-0.001571	0.002405	-0.007723	-148.557366	-88.768114	-101.092615
21816	9.775121	-0.112696	-0.141076	-0.004594	0.007444	-0.005053	-148.452139	-88.769085	-101.198744
21817	9.729569	-0.122147	-0.154924	-0.003630	0.003526	-0.007254	-148.454567	-88.768752	-101.196681
21818	9.783883	-0.122354	-0.160151	-0.001603	0.003185	-0.009068	-148.498689	-88.768829	-101.151704
21819	9.727903	-0.078291	-0.178393	-0.002537	0.006323	-0.005522	-148.422115	-88.769343	-101.228034
21820	9.761135	-0.126076	-0.166340	-0.003952	0.004832	-0.006521	-148.386512	-88.769468	-101.264151
21821	9.729632	-0.119317	-0.153151	-0.001925	0.004491	-0.008335	-148.399045	-88.769930	-101.251004
21822	9.752430	-0.113538	-0.145394	-0.002569	0.007103	-0.006868	-148.339462	-88.771293	-101.310439
21823	9.753298	-0.134104	-0.132618	-0.002538	0.006323	-0.005523	-148.262673	-88.771803	-101.386985
21824	9.760353	-0.102153	-0.176384	-0.003309	0.002220	-0.007989	-148.298781	-88.771032	-101.350960
21825	9.761222	-0.122562	-0.163872	-0.002248	0.005797	-0.007602	-148.276465	-88.771911	-101.372854
21826	9.751636	-0.089513	-0.155628	-0.001604	0.003186	-0.009069	-148.322065	-88.771968	-101.326413
21827	9.738477	-0.126039	-0.170361	-0.005338	0.002561	-0.006175	-148.314528	-88.770840	-101.335295
21828	9.783187	-0.094082	-0.167685	-0.003986	0.005612	-0.007867	-148.421860	-88.780012	-101.193493
21829	9.738512	-0.124553	-0.169481	-0.001927	0.004492	-0.008335	-148.434585	-88.780479	-101.180142
21830	9.784075	-0.113745	-0.154732	-0.005338	0.002561	-0.006176	-148.425830	-88.779339	-101.189329
21831	9.737680	-0.102017	-0.180960	-0.001896	0.003712	-0.006990	-148.418690	-88.779023	-101.195830
21832	9.753431	-0.127536	-0.129299	-0.003311	0.002221	-0.007990	-148.453194	-88.778310	-101.161435
21833	9.760475	-0.095614	-0.173266	-0.003570	0.001967	-0.004566	-148.416084	-88.776414	-101.198872
21834	9.762215	-0.137341	-0.148676	-0.005725	0.005426	-0.008133	-148.410307	-88.777328	-101.206902
21835	9.761368	-0.115469	-0.160278	-0.000482	0.005204	-0.005991	-148.358535	-88.777439	-101.257236
21836	9.737746	-0.098676	-0.179234	-0.001574	0.002407	-0.007725	-148.384621	-88.776717	-101.229765
21837	9.762263	-0.135175	-0.147467	-0.003666	0.004306	-0.008601	-148.406980	-88.777173	-101.207776
21838	9.761412	-0.113253	-0.159141	-0.003957	0.004832	-0.006522	-148.371855	-88.777296	-101.243617
21839	9.760559	-0.091344	-0.170804	-0.001929	0.004493	-0.008336	-148.384529	-88.777764	-101.230320
21840	9.739546	-0.137848	-0.153501	-0.004758	0.001509	-0.010335	-148.483164	-88.777437	-101.133079
21841	9.753559	-0.120867	-0.126003	-0.002253	0.005798	-0.007602	-148.460927	-88.778323	-101.154887
21842	9.770250	-0.120945	-0.177542	-0.001607	0.003187	-0.009070	-148.507246	-88.778403	-101.107859
21843	9.761490	-0.109129	-0.157233	-0.005696	0.004645	-0.006789	-148.484546	-88.778482	-101.132102
21844	9.737864	-0.092440	-0.176134	-0.002189	0.004239	-0.004912	-148.421001	-88.777820	-101.195079
21845	9.729973	-0.101989	-0.143717	-0.003636	0.003527	-0.007257	-148.423575	-88.777493	-101.192862
21846	9.770312	-0.118240	-0.175917	-0.003992	0.005612	-0.007868	-148.407161	-88.778410	-101.209963
21847	9.753642	-0.116644	-0.123483	-0.000162	0.003900	-0.006725	-148.390323	-88.778106	-101.225171
21848	9.738797	-0.110846	-0.162450	-0.003313	0.002221	-0.007991	-148.425176	-88.777373	-101.190044
21849	9.756382	-0.132226	-0.201909	-0.004284	0.006137	-0.005789	-148.357826	-88.777879	-101.258138
21850	9.761587	-0.104451	-0.154355	-0.003637	0.003527	-0.007258	-148.357697	-88.777582	-101.258516
21851	9.771273	-0.135929	-0.161727	-0.002256	0.005799	-0.007602	-148.335366	-88.778467	-101.280419
21852	9.738859	-0.108005	-0.160641	-0.003670	0.004307	-0.008603	-148.355742	-88.778964	-101.260619
21853	9.761633	-0.102146	-0.153034	-0.003638	0.003527	-0.007258	-148.358353	-88.778637	-101.258366
21854	9.747681	-0.117550	-0.179845	-0.001900	0.003714	-0.006992	-148.347885	-88.778367	-101.268237
21855	9.770454	-0.111651	-0.172299	-0.005084	0.002815	-0.009604	-148.415019	-88.778397	-101.202275
21856	9.771355	-0.132084	-0.159919	-0.001868	0.002934	-0.005647	-148.385010	-88.777338	-101.231841
21857	9.770480	-0.110265	-0.171710	-0.003639	0.003527	-0.007258	-148.387616	-88.777011	-101.229593
21858	9.748630	-0.135807	-0.166390	-0.002258	0.005800	-0.007603	-148.361972	-88.777888	-101.254515
21859	9.761710	-0.097702	-0.151011	-0.004728	0.000729	-0.008993	-148.444218	-88.776717	-101.173233
21860	9.748664	-0.134178	-0.165762	-0.002259	0.005800	-0.007603	-148.419321	-88.777661	-101.197835
21861	9.753825	-0.106330	-0.118212	-0.003640	0.003527	-0.007259	-148.421927	-88.777334	-101.195587
21862	9.770557	-0.106388	-0.169796	-0.003673	0.004307	-0.008604	-148.441078	-88.777787	-101.176684
21863	9.739910	-0.120749	-0.144551	-0.003706	0.005088	-0.009949	-148.483384	-88.779028	-101.134765
21864	9.755750	-0.099715	-0.208207	-0.003899	0.003271	-0.003834	-148.407440	-88.777614	-101.211231
21865	9.769703	-0.083003	-0.180701	0.001864	0.003566	-0.008538	-148.435608	-88.777690	-101.180262
21866	9.739050	-0.097527	-0.155681	-0.005020	0.001253	-0.006915	-148.461405	-88.776200	-101.155745
21867	9.756693	-0.118758	-0.195165	-0.002294	0.006581	-0.008948	-148.459002	-88.777871	-101.157738
21868	9.770645	-0.101854	-0.167500	-0.003641	0.003527	-0.007259	-148.457485	-88.777595	-101.159618
21869	9.725164	-0.111320	-0.181549	-0.004000	0.005612	-0.007870	-148.444979	-88.778470	-101.172693
21870	9.747928	-0.105485	-0.173852	-0.001904	0.003715	-0.006992	-148.435494	-88.778185	-101.181465
21871	9.771593	-0.120880	-0.154149	-0.001904	0.003715	-0.006993	-148.428366	-88.777871	-101.187959
21872	9.727020	-0.151581	-0.156245	0.000158	0.002599	-0.007460	-148.444232	-88.777177	-101.170151
21873	9.740048	-0.113695	-0.140940	-0.003575	0.001965	-0.004570	-148.407277	-88.775281	-101.207437
21874	9.761898	-0.086681	-0.145443	-0.003709	0.005088	-0.009950	-148.447537	-88.776531	-101.167618
21875	9.748901	-0.123266	-0.160192	-0.003576	0.001965	-0.004570	-148.410601	-88.774636	-101.204885
21876	9.748914	-0.122618	-0.159890	-0.003676	0.004308	-0.008605	-148.430362	-88.775134	-101.185448
21877	9.725277	-0.105700	-0.178819	-0.003677	0.004308	-0.008605	-148.452779	-88.775592	-101.163407
21878	9.757778	-0.132101	-0.178993	-0.002197	0.004239	-0.004913	-148.387080	-88.775015	-101.228867
21879	9.770790	-0.094150	-0.163473	-0.001940	0.004496	-0.008338	-148.399733	-88.775486	-101.215596
21880	9.740141	-0.108758	-0.138368	-0.005348	0.002557	-0.006183	-148.390870	-88.774352	-101.225690
21881	9.748989	-0.119026	-0.158002	0.001861	0.003570	-0.008538	-148.418901	-88.774431	-101.194860
21882	9.748090	-0.096933	-0.169670	-0.003712	0.005089	-0.009951	-148.458955	-88.775689	-101.155190
21883	9.758783	-0.149563	-0.164818	-0.004622	0.007440	-0.005057	-148.356851	-88.776611	-101.258239
21884	9.756964	-0.106550	-0.188517	-0.001581	0.002411	-0.007728	-148.382969	-88.775898	-101.231405
21885	9.748135	-0.094845	-0.168290	-0.001907	0.003716	-0.006993	-148.375874	-88.775584	-101.237868
21886	9.757914	-0.126219	-0.175808	-0.003353	0.003003	-0.009341	-148.431286	-88.775650	-101.182602
21887	9.748164	-0.093264	-0.167465	-0.000856	0.007295	-0.006602	-148.364334	-88.776965	-101.248334
21888	9.757950	-0.124722	-0.174847	-0.003319	0.002222	-0.007996	-148.399914	-88.776203	-101.212776
21889	9.749117	-0.112919	-0.154570	-0.009219	0.005045	-0.008675	-148.416764	-88.777043	-101.199478
21890	9.750057	-0.133284	-0.142182	0.000482	0.001297	-0.008195	-148.467519	-88.775922	-101.146648
21891	9.771879	-0.106166	-0.146662	-0.004007	0.005612	-0.007872	-148.455085	-88.776798	-101.159654
21892	9.757089	-0.100275	-0.185464	-0.003681	0.004308	-0.008607	-148.473616	-88.777343	-101.141674
21893	9.725516	-0.093663	-0.172426	-0.003647	0.003527	-0.007262	-148.476279	-88.777018	-101.139374
21894	9.758049	-0.119988	-0.172654	-0.001909	0.003717	-0.006994	-148.468311	-88.776739	-101.146788
21895	9.749205	-0.108101	-0.152434	-0.004801	0.002291	-0.011690	-148.590280	-88.777134	-101.025815
21896	9.726490	-0.112497	-0.159310	0.000947	0.005923	-0.003643	-148.471270	-88.776953	-101.142568
21897	9.758096	-0.117785	-0.171506	-0.003648	0.003527	-0.007262	-148.473944	-88.776628	-101.140258
21898	9.750183	-0.127255	-0.139066	-0.005747	0.005423	-0.008141	-148.468500	-88.777497	-101.147176
21899	9.726534	-0.110416	-0.158055	-0.003321	0.002223	-0.007997	-148.506092	-88.776755	-101.109753
21900	9.767010	-0.126443	-0.190361	-0.003648	0.003527	-0.007262	-148.508335	-88.776447	-101.108001
21901	9.749288	-0.103702	-0.150186	-0.003356	0.003004	-0.009342	-148.565740	-88.776488	-101.050780
21902	9.749300	-0.102953	-0.149909	-0.003614	0.002746	-0.005917	-148.545152	-88.775430	-101.071749
21903	9.736399	-0.139554	-0.164828	-0.006798	0.001843	-0.008534	-148.602210	-88.774661	-101.016848
21904	9.748382	-0.080242	-0.161440	0.001529	0.004879	-0.007803	-148.591060	-88.775207	-101.025323
21905	9.759154	-0.132991	-0.156890	-0.003580	0.001964	-0.004572	-148.554023	-88.773314	-101.062693
21906	9.735501	-0.116238	-0.175908	-0.003719	0.005090	-0.009953	-148.592247	-88.774640	-101.024880
21907	9.749364	-0.099313	-0.148214	-0.003977	0.004831	-0.006528	-148.560084	-88.774733	-101.057604
21908	9.759205	-0.130721	-0.155631	-0.003685	0.004309	-0.008608	-148.577091	-88.775303	-101.041077
21909	9.749392	-0.097790	-0.147393	-0.003650	0.003527	-0.007263	-148.579750	-88.774978	-101.038784
21910	9.736517	-0.134378	-0.162090	-0.002275	0.005803	-0.007605	-148.553486	-88.775941	-101.064724
21911	9.767189	-0.118295	-0.186389	-0.003616	0.002746	-0.005918	-148.536315	-88.774832	-101.082245
21912	9.750381	-0.116986	-0.134093	-0.003979	0.004831	-0.006529	-148.500819	-88.774953	-101.118253
21913	9.744501	-0.122084	-0.192926	-0.001621	0.003196	-0.009075	-148.548360	-88.775008	-101.069903
21914	9.759298	-0.126482	-0.153275	-0.002206	0.004240	-0.004915	-148.484915	-88.774292	-101.132744
21915	9.767252	-0.115494	-0.184821	-0.003722	0.005091	-0.009954	-148.527225	-88.775536	-101.090831
21916	9.758376	-0.103669	-0.164538	-0.003324	0.002224	-0.007999	-148.563895	-88.774827	-101.054414
21917	9.754417	-0.151281	-0.199326	-0.003945	0.004049	-0.005184	-148.511930	-88.774135	-101.106925
21918	9.757443	-0.081203	-0.175935	-0.003652	0.003527	-0.007264	-148.507991	-88.773919	-101.111246
21919	9.768271	-0.133919	-0.171258	-0.002571	0.006326	-0.005525	-148.431201	-88.774440	-101.187801
21920	9.758431	-0.101067	-0.162887	-0.005426	0.004118	-0.008879	-148.462682	-88.774879	-101.157702
21921	9.750505	-0.110454	-0.130539	-0.001622	0.003197	-0.009075	-148.510217	-88.774935	-101.109359
21922	9.745614	-0.136605	-0.177280	-0.000248	0.005474	-0.009416	-148.528646	-88.776279	-101.089340
21923	9.758478	-0.098623	-0.161532	-0.006341	0.006465	-0.003984	-148.416687	-88.776406	-101.203232
21924	9.727839	-0.113424	-0.136387	-0.003361	0.003006	-0.009345	-148.470255	-88.776480	-101.149756
21925	9.758507	-0.097199	-0.160685	-0.002244	0.005022	-0.006260	-148.428226	-88.776584	-101.191354
21926	9.768398	-0.128639	-0.168039	-0.004018	0.005613	-0.007875	-148.411921	-88.777517	-101.208169
21927	9.767448	-0.106788	-0.179632	-0.003947	0.004049	-0.005185	-148.359951	-88.776823	-101.260687
21928	9.736809	-0.121478	-0.154573	-0.003397	0.003788	-0.010691	-148.438405	-88.777681	-101.182613
21929	9.759532	-0.115607	-0.146861	-0.004241	0.004570	-0.003105	-148.331724	-88.776616	-101.290023
21930	9.735865	-0.099098	-0.165950	-0.005028	0.001251	-0.006925	-148.356344	-88.775097	-101.266445
21931	9.755652	-0.162675	-0.181460	-0.001917	0.003719	-0.006996	-148.349261	-88.774785	-101.272903
21932	9.768485	-0.124749	-0.165898	-0.003948	0.004049	-0.005185	-148.294895	-88.774154	-101.327911
21933	9.767527	-0.102927	-0.177588	-0.003655	0.003528	-0.007265	-148.297668	-88.773831	-101.325506
21934	9.745810	-0.128568	-0.172459	-0.001953	0.004502	-0.008341	-148.307813	-88.774367	-101.314820
21935	9.736906	-0.116754	-0.152065	-0.003728	0.005093	-0.009956	-148.349966	-88.775615	-101.273067
21936	9.744874	-0.105566	-0.183585	-0.001954	0.004502	-0.008341	-148.358986	-88.776148	-101.263409
21937	9.782342	-0.104729	-0.136668	-0.001553	0.001634	-0.006386	-148.367093	-88.774636	-101.254465
21938	9.767601	-0.098939	-0.175740	-0.007133	0.003144	-0.007806	-148.387002	-88.774304	-101.236884
21939	9.744915	-0.103365	-0.182681	-0.000217	0.004695	-0.008071	-148.389780	-88.774791	-101.232503
21940	9.760662	-0.128884	-0.130828	-0.004023	0.005613	-0.007876	-148.372828	-88.775735	-101.250011
21941	9.743966	-0.080745	-0.193755	-0.002212	0.004241	-0.004916	-148.311126	-88.775052	-101.311269
21942	9.745945	-0.122487	-0.169251	-0.005432	0.004118	-0.008882	-148.336702	-88.775618	-101.287071
21943	9.753916	-0.111337	-0.200815	-0.001956	0.004503	-0.008342	-148.349328	-88.776094	-101.273837
21944	9.723281	-0.126056	-0.175837	-0.003328	0.002225	-0.008002	-148.386484	-88.775354	-101.236831
21945	9.745989	-0.120222	-0.168311	-0.003585	0.001963	-0.004576	-148.349857	-88.773458	-101.273796
21946	9.768700	-0.114376	-0.160629	-0.005763	0.005421	-0.008147	-148.346251	-88.774287	-101.278852
21947	9.746022	-0.118834	-0.167404	-0.000549	0.005999	-0.007336	-148.314087	-88.775189	-101.309612
21948	9.754982	-0.129070	-0.186921	-0.005360	0.002553	-0.006192	-148.305115	-88.774128	-101.320000
21949	9.745062	-0.096278	-0.178633	-0.002287	0.005806	-0.007606	-148.282796	-88.775017	-101.341908
21950	9.756007	-0.148872	-0.174023	-0.003659	0.003528	-0.007267	-148.278792	-88.774789	-101.346209
21951	9.777728	-0.121689	-0.178292	-0.004026	0.005614	-0.007877	-148.266325	-88.775666	-101.359260
21952	9.715450	-0.130811	-0.140659	0.000147	0.002611	-0.007462	-148.282951	-88.774962	-101.340797
21953	9.768807	-0.109389	-0.157538	-0.004320	0.006134	-0.005797	-148.215895	-88.775466	-101.408619
21954	9.737177	-0.102994	-0.144492	-0.001628	0.003201	-0.009078	-148.262473	-88.775478	-101.361057
21955	9.745151	-0.091907	-0.176075	-0.003991	0.004831	-0.006532	-148.230356	-88.775568	-101.393742
21956	9.769848	-0.128390	-0.144314	-0.003330	0.002225	-0.008003	-148.264767	-88.774889	-101.359563
21957	9.746173	-0.111723	-0.163456	-0.003624	0.002745	-0.005923	-148.247972	-88.773779	-101.376712
21958	9.746187	-0.111009	-0.163116	-0.003698	0.004311	-0.008613	-148.267870	-88.774296	-101.357239
21959	9.723515	-0.115501	-0.170017	-0.003992	0.004831	-0.006533	-148.235790	-88.774387	-101.389888
21960	9.755183	-0.120420	-0.182153	-0.001960	0.004505	-0.008342	-148.248112	-88.774866	-101.376966
21961	9.746234	-0.108769	-0.161835	-0.003661	0.003528	-0.007268	-148.250956	-88.774543	-101.374493
21962	9.764182	-0.129733	-0.201370	-0.001630	0.003202	-0.009078	-148.293414	-88.774725	-101.331394
21963	9.746263	-0.107067	-0.161210	-0.003368	0.003009	-0.009349	-148.350821	-88.774775	-101.274177
21964	9.755247	-0.117247	-0.180789	-0.002218	0.004241	-0.004917	-148.287990	-88.774061	-101.336471
21965	9.738325	-0.116020	-0.128533	-0.001630	0.003202	-0.009078	-148.335474	-88.774124	-101.288185
21966	9.777960	-0.110562	-0.172680	-0.002256	0.005024	-0.006262	-148.292124	-88.774204	-101.331021
21967	9.747328	-0.125485	-0.147652	-0.003663	0.003528	-0.007269	-148.294971	-88.773882	-101.328547
21968	9.732627	-0.119713	-0.186564	-0.003994	0.004831	-0.006533	-148.265398	-88.773998	-101.358943
21969	9.756339	-0.134871	-0.166700	-0.003738	0.005095	-0.009960	-148.307549	-88.775249	-101.317199
21970	9.746365	-0.101846	-0.158401	-0.001631	0.003203	-0.009079	-148.354809	-88.775264	-101.269015
21971	9.747393	-0.122250	-0.146055	-0.005402	0.003334	-0.007541	-148.367567	-88.774928	-101.257624
21972	9.741681	-0.127332	-0.204909	-0.003996	0.004831	-0.006534	-148.334280	-88.774975	-101.291334
21973	9.778070	-0.105204	-0.169824	-0.003702	0.004312	-0.008615	-148.356823	-88.775439	-101.269181
21974	9.724762	-0.125329	-0.152139	-0.003996	0.004831	-0.006534	-148.319761	-88.775554	-101.306626
21975	9.755421	-0.109080	-0.176427	-0.001557	0.001637	-0.006388	-148.327929	-88.774044	-101.297623
21976	9.787102	-0.114032	-0.188572	-0.002628	0.007111	-0.006872	-148.270462	-88.775283	-101.354740
21977	9.756474	-0.128956	-0.163460	-0.003665	0.003528	-0.007270	-148.273340	-88.774961	-101.352236
21978	9.755468	-0.106932	-0.175162	-0.001633	0.003204	-0.009079	-148.320914	-88.775033	-101.303970
21979	9.733831	-0.132669	-0.170222	-0.005366	0.002551	-0.006197	-148.314047	-88.773911	-101.312187
21980	9.746499	-0.094606	-0.154615	-0.001965	0.004506	-0.008344	-148.320293	-88.774481	-101.305297
21981	9.756535	-0.125900	-0.162183	-0.001596	0.002421	-0.007734	-148.348113	-88.773759	-101.276658
21982	9.756548	-0.125266	-0.161871	-0.003961	0.004047	-0.005189	-148.295332	-88.773039	-101.329932
21983	9.746534	-0.092573	-0.153600	-0.003666	0.003529	-0.007270	-148.298209	-88.772717	-101.327429
21984	9.746546	-0.091852	-0.153303	0.000142	0.002616	-0.007462	-148.314477	-88.772046	-101.309426
21985	9.747588	-0.112268	-0.140996	-0.001634	0.003205	-0.009080	-148.361887	-88.772110	-101.261216
21986	9.755577	-0.101052	-0.172532	-0.005776	0.005419	-0.008152	-148.358012	-88.773037	-101.266785
21987	9.756627	-0.121515	-0.159956	-0.000561	0.006004	-0.007336	-148.325826	-88.773942	-101.297574
21988	9.756644	-0.120834	-0.159430	-0.004000	0.004830	-0.006535	-148.292763	-88.773996	-101.331098
21989	9.755624	-0.098909	-0.171101	-0.001597	0.002421	-0.007735	-148.320595	-88.773274	-101.302449
21990	9.756673	-0.119296	-0.158818	-0.003374	0.003010	-0.009352	-148.377174	-88.773371	-101.246203
21991	9.755653	-0.097103	-0.170500	-0.001674	0.003989	-0.010426	-148.444368	-88.774221	-101.178227
21992	9.756705	-0.117627	-0.158129	-0.003925	0.003263	-0.003845	-148.372303	-88.772770	-101.250921
21993	9.734053	-0.122279	-0.165194	-0.001636	0.003205	-0.009080	-148.419749	-88.772834	-101.202675
21994	9.742046	-0.111126	-0.196796	-0.000192	0.003919	-0.006727	-148.397895	-88.772612	-101.222911
21995	9.756745	-0.115635	-0.157084	-0.003964	0.004046	-0.005190	-148.346314	-88.771918	-101.275050
21996	9.779421	-0.109744	-0.149328	-0.001931	0.003724	-0.006999	-148.337992	-88.771626	-101.282787
21997	9.733069	-0.098336	-0.175718	-0.003708	0.004312	-0.008617	-148.360530	-88.772091	-101.260643
21998	9.748810	-0.123804	-0.124000	0.000102	0.003401	-0.008808	-148.394118	-88.772201	-101.225186
21999	9.788490	-0.118169	-0.168155	-0.003670	0.003528	-0.007272	-148.397014	-88.771879	-101.222667
22000	9.733112	-0.095934	-0.174621	-0.001971	0.004508	-0.008345	-148.403701	-88.772357	-101.215081
22001	9.764814	-0.100790	-0.186761	-0.005704	0.003850	-0.005464	-148.362087	-88.771649	-101.258247
22002	9.756847	-0.110468	-0.154477	-0.001637	0.003206	-0.009081	-148.405029	-88.771788	-101.214496
22003	9.735254	-0.136175	-0.149577	-0.001599	0.002422	-0.007736	-148.432751	-88.771065	-101.185958
22004	9.779531	-0.103539	-0.146491	-0.003710	0.004312	-0.008618	-148.450727	-88.771561	-101.168260
22005	9.765924	-0.118978	-0.173414	-0.005705	0.003850	-0.005464	-148.409129	-88.770854	-101.211411
22006	9.748920	-0.117870	-0.121141	-0.001972	0.004508	-0.008345	-148.418887	-88.771367	-101.201024
22007	9.756915	-0.106748	-0.152784	-0.001561	0.001639	-0.006391	-148.426925	-88.769858	-101.192153
22008	9.734275	-0.111378	-0.159772	-0.006117	0.006720	-0.007419	-148.387766	-88.771148	-101.233042
22009	9.758004	-0.126442	-0.139799	-0.003750	0.005097	-0.009964	-148.430014	-88.772400	-101.191207
22010	9.743354	-0.120531	-0.178694	-0.000196	0.003921	-0.006727	-148.407544	-88.772228	-101.212157
22011	9.767080	-0.135725	-0.158992	-0.003339	0.002227	-0.008009	-148.445235	-88.771492	-101.174645
22012	9.734335	-0.108319	-0.158220	-0.001895	0.002940	-0.005655	-148.416963	-88.770437	-101.202358
22013	9.743395	-0.118540	-0.177773	-0.004007	0.004830	-0.006537	-148.385127	-88.770530	-101.234771
22014	9.734360	-0.107108	-0.157481	-0.003634	0.002744	-0.005928	-148.364594	-88.769408	-101.255439
22015	9.766071	-0.112052	-0.169725	-0.000157	0.003137	-0.005382	-148.328043	-88.768327	-101.290362
22016	9.752488	-0.127457	-0.196724	-0.008929	0.003723	-0.009439	-148.381476	-88.768766	-101.240423
22017	9.757049	-0.099550	-0.149043	-0.003753	0.005097	-0.009965	-148.423646	-88.770019	-101.198668
22018	9.757062	-0.098748	-0.148717	-0.001562	0.001639	-0.006391	-148.427392	-88.768464	-101.193761
22019	9.744553	-0.135531	-0.163659	-0.002605	0.006328	-0.005528	-148.350952	-88.768985	-101.269987
22020	9.751492	-0.103217	-0.207016	-0.004049	0.005614	-0.007883	-148.332042	-88.769996	-101.289497
22021	9.758174	-0.117992	-0.135306	-0.003675	0.003529	-0.007274	-148.334986	-88.769675	-101.286932
22022	9.743535	-0.112114	-0.174265	-0.003715	0.004313	-0.008620	-148.356625	-88.770129	-101.265644
22023	9.775260	-0.116894	-0.186270	-0.002606	0.006328	-0.005528	-148.280051	-88.770648	-101.342003
22024	9.743567	-0.110754	-0.173337	-0.003341	0.002227	-0.008011	-148.315899	-88.769832	-101.306036
22025	9.743579	-0.109932	-0.173187	-0.003006	0.000926	-0.008747	-148.388310	-88.768685	-101.233604
22026	9.752662	-0.119902	-0.192811	-0.005790	0.005417	-0.008158	-148.385446	-88.769538	-101.238035
22027	9.767329	-0.124174	-0.153003	-0.003716	0.004313	-0.008620	-148.408010	-88.770004	-101.215869
22028	9.743626	-0.107495	-0.172036	-0.003677	0.003529	-0.007275	-147.931135	-88.798358	-101.658019
22029	9.735647	-0.117133	-0.139785	-0.001643	0.003210	-0.009083	-147.979266	-88.798449	-101.609081
22030	9.744737	-0.127178	-0.159315	-0.002274	0.005027	-0.006265	-147.933266	-88.798558	-101.654585
22031	9.744754	-0.126493	-0.158831	0.001499	0.004906	-0.007799	-147.925264	-88.799083	-101.659990
22032	9.766326	-0.099008	-0.162987	-0.003422	0.003797	-0.010703	-148.000176	-88.799982	-101.585100
22033	9.753868	-0.135703	-0.177934	-0.004269	0.004561	-0.003112	-147.891884	-88.798915	-101.694124
22034	9.743718	-0.103116	-0.169521	-0.005792	0.005417	-0.008159	-147.887491	-88.799844	-101.699510
22035	9.753903	-0.134398	-0.177013	-0.001939	0.003726	-0.007001	-147.880118	-88.799553	-101.706257
22036	9.753920	-0.133732	-0.176600	-0.004014	0.004830	-0.006539	-147.844352	-88.799667	-101.742507
22037	9.744848	-0.122360	-0.156287	-0.000161	0.003139	-0.005382	-147.807049	-88.798598	-101.778172
22038	9.766407	-0.095120	-0.160430	-0.004055	0.005615	-0.007885	-147.791136	-88.799566	-101.794959
22039	9.766421	-0.094323	-0.160061	-0.005082	0.002030	-0.008287	-147.840023	-88.798845	-101.747235
22040	9.775522	-0.104506	-0.179735	-0.003934	0.003260	-0.003849	-147.769356	-88.797329	-101.818076
22041	9.731364	-0.135851	-0.182266	0.001833	0.003607	-0.008535	-147.797003	-88.797449	-101.787634
22042	9.766459	-0.092283	-0.158921	-0.004432	0.007700	-0.008494	-147.766712	-88.799537	-101.818837
22043	9.766475	-0.091506	-0.158377	-0.003680	0.003529	-0.007277	-147.769610	-88.799234	-101.816307
22044	9.754051	-0.128148	-0.173459	-0.001605	0.002426	-0.007739	-147.797088	-88.798493	-101.787778
22045	9.743870	-0.095394	-0.165232	-0.003680	0.003529	-0.007277	-147.799981	-88.798191	-101.785254
22046	9.754082	-0.126731	-0.172769	-0.004017	0.004830	-0.006540	-147.763000	-88.798387	-101.823211
22047	9.743901	-0.093838	-0.164310	-0.003802	0.005884	-0.011313	-147.825025	-88.800459	-101.761613
22048	9.776746	-0.119740	-0.164374	-0.003936	0.003259	-0.003850	-147.749595	-88.799004	-101.837706
22049	9.745029	-0.113685	-0.151459	-0.000285	0.005496	-0.009418	-147.771388	-88.800310	-101.814332
22050	9.754154	-0.123553	-0.170962	-0.001647	0.003212	-0.009084	-147.816421	-88.800433	-101.768513
22051	9.754170	-0.122902	-0.170538	-0.002575	0.005543	-0.004184	-147.717713	-88.800162	-101.866979
22052	9.754187	-0.122308	-0.169998	-0.004059	0.005615	-0.007886	-147.706847	-88.801025	-101.878962
22053	9.746195	-0.132022	-0.137658	-0.005421	0.003330	-0.007553	-147.720055	-88.800711	-101.867118
22054	9.739606	-0.115729	-0.208580	-0.001943	0.003728	-0.007003	-147.710380	-88.800441	-101.876124
22055	9.722497	-0.114828	-0.156258	-0.002617	0.006329	-0.005529	-147.631311	-88.800959	-101.954972
22056	9.775766	-0.092797	-0.172785	-0.003427	0.003799	-0.010706	-147.709062	-88.801844	-101.877531
22057	9.740765	-0.134738	-0.195472	-0.002926	-0.000643	-0.006060	-147.744355	-88.799149	-101.842169
22058	9.753167	-0.096767	-0.179816	-0.004357	0.006130	-0.005805	-147.671484	-88.799647	-101.915655
22059	9.755406	-0.138544	-0.155352	-0.003724	0.004314	-0.008624	-147.694081	-88.800138	-101.893449
22060	9.768915	-0.121651	-0.127700	-0.003305	0.001443	-0.006670	-147.710366	-88.798712	-101.877889
22061	9.730590	-0.099988	-0.186254	-0.005422	0.003330	-0.007554	-147.723577	-88.798398	-101.866043
22062	9.746323	-0.125622	-0.134583	-0.001945	0.003728	-0.007003	-147.715845	-88.798119	-101.873468
22063	9.753233	-0.093215	-0.178091	-0.000206	0.003928	-0.006728	-147.698274	-88.797842	-101.889422
22064	9.754363	-0.113738	-0.165816	-0.003347	0.002229	-0.008015	-147.732362	-88.797154	-101.855140
22065	9.778110	-0.128912	-0.145984	-0.004360	0.006130	-0.005805	-147.663783	-88.797660	-101.924494
22066	9.754395	-0.112368	-0.164856	-0.005803	0.005416	-0.008163	-147.659439	-88.798532	-101.929850
22067	9.754410	-0.111571	-0.164488	-0.003347	0.002229	-0.008016	-147.698205	-88.797827	-101.891254
22068	9.778157	-0.126823	-0.144682	-0.002580	0.005544	-0.004184	-147.597259	-88.797600	-101.991942
22069	9.763575	-0.121153	-0.183600	-0.003685	0.003529	-0.007279	-147.600248	-88.797299	-101.989324
22070	9.730717	-0.093841	-0.182764	-0.003685	0.003529	-0.007279	-147.599943	-88.797008	-101.989532
22071	9.754465	-0.109040	-0.162908	-0.000546	0.005229	-0.005991	-147.546598	-88.797133	-102.041462
22072	9.731872	-0.113623	-0.169932	-0.003431	0.003801	-0.010707	-147.617966	-88.798067	-101.969963
22073	9.731886	-0.112873	-0.169656	-0.003603	0.001958	-0.004589	-147.581893	-88.796179	-102.006369
22074	9.745362	-0.096102	-0.141912	-0.005805	0.005416	-0.008164	-147.575350	-88.797124	-102.014969
22075	9.763671	-0.116768	-0.181285	-0.001989	0.004515	-0.008349	-147.587598	-88.797628	-102.002120
22076	9.754540	-0.105176	-0.160983	-0.001651	0.003215	-0.009086	-147.633494	-88.797744	-101.955608
22077	9.742230	-0.141666	-0.176108	-0.003391	0.003015	-0.009362	-147.691863	-88.797832	-101.897431
22078	9.745415	-0.092802	-0.140467	-0.001906	0.002944	-0.005658	-147.664372	-88.796692	-101.924202
22079	9.733108	-0.129612	-0.155510	-0.002287	0.005029	-0.006267	-147.621321	-88.796807	-101.966834
22080	9.763749	-0.113053	-0.179456	-0.004026	0.004829	-0.006543	-147.587492	-88.796857	-102.000938
22081	9.733142	-0.128174	-0.154556	-0.003772	0.005101	-0.009971	-147.629595	-88.798143	-101.959248
22082	9.755762	-0.121883	-0.146689	-0.007166	0.003129	-0.007833	-147.650397	-88.797835	-101.940523
22083	9.763799	-0.110643	-0.178239	-0.000210	0.003930	-0.006728	-147.632807	-88.797559	-101.956498
22084	9.777254	-0.093746	-0.150438	-0.003731	0.004316	-0.008626	-147.652558	-88.798076	-101.937871
22085	9.741229	-0.114507	-0.184988	-0.001611	0.002430	-0.007741	-147.681051	-88.797384	-101.908556
22086	9.755821	-0.118847	-0.145235	-0.004070	0.005615	-0.007889	-147.663180	-88.798291	-101.926981
22087	9.762720	-0.086369	-0.188568	-0.002289	0.005030	-0.006267	-147.620074	-88.798406	-101.969670
22088	9.754709	-0.096270	-0.156203	-0.004029	0.004829	-0.006544	-147.584626	-88.798540	-102.005798
22089	9.763895	-0.106177	-0.175648	-0.003774	0.005102	-0.009972	-147.626796	-88.799826	-101.964043
22090	9.741315	-0.110726	-0.182734	-0.007168	0.003128	-0.007835	-147.651825	-88.799479	-101.941623
22091	9.763925	-0.104530	-0.174985	-0.001612	0.002431	-0.007742	-147.680352	-88.798788	-101.912275
22092	9.733318	-0.119732	-0.150195	-0.004072	0.005616	-0.007890	-147.665086	-88.799670	-101.927910
22093	9.741361	-0.108447	-0.181638	-0.003691	0.003530	-0.007282	-147.668114	-88.799370	-101.925258
22094	9.732199	-0.096953	-0.161333	-0.003734	0.004316	-0.008627	-147.685187	-88.799942	-101.908776
22095	9.774318	-0.133465	-0.181291	-0.002292	0.005030	-0.006268	-147.642025	-88.800057	-101.951523
22096	9.755971	-0.111343	-0.141088	-0.003352	0.002230	-0.008019	-147.677879	-88.799388	-101.916115
22097	9.750605	-0.116103	-0.200121	-0.001655	0.003218	-0.009088	-147.726024	-88.799490	-101.867169
22098	9.742595	-0.125876	-0.167698	-0.006493	0.008013	-0.006693	-147.648931	-88.801168	-101.945954
22099	9.765203	-0.119740	-0.159692	0.000126	0.002633	-0.007465	-147.667150	-88.800490	-101.925920
22100	9.754871	-0.087056	-0.151419	-0.003692	0.003530	-0.007282	-147.665491	-88.800210	-101.928115
22101	9.742641	-0.123860	-0.166511	-0.002251	0.004244	-0.004922	-147.602740	-88.799532	-101.990431
22102	9.754894	-0.085755	-0.150691	-0.003395	0.003017	-0.009365	-147.661197	-88.799679	-101.932434
22103	9.750707	-0.111669	-0.197635	-0.002040	0.005305	-0.009696	-147.693146	-88.800978	-101.899908
22104	9.751884	-0.132260	-0.185271	-0.003947	0.003256	-0.003854	-147.621630	-88.799487	-101.971997
22105	9.741543	-0.099653	-0.176871	-0.000301	0.005506	-0.009419	-147.643166	-88.800799	-101.948889
22106	9.742720	-0.120139	-0.164574	-0.001571	0.001646	-0.006397	-147.650804	-88.799393	-101.940861
22107	9.742733	-0.119453	-0.164335	-0.005433	0.003328	-0.007561	-147.664224	-88.799080	-101.928812
22108	9.756132	-0.102538	-0.136521	-0.000259	0.004720	-0.008074	-147.663668	-88.799610	-101.927677
22109	9.742766	-0.117870	-0.163509	-0.003737	0.004316	-0.008629	-147.686354	-88.800104	-101.905389
22110	9.765363	-0.111712	-0.155656	-0.001912	0.002945	-0.005660	-147.659517	-88.798974	-101.931340
22111	9.742792	-0.116635	-0.162822	-0.003992	0.004042	-0.005201	-147.607203	-88.798283	-101.984214
22112	9.742808	-0.115854	-0.162444	-0.003441	0.003804	-0.010712	-147.685468	-88.799155	-101.906396
22113	9.765407	-0.109495	-0.154472	-0.002340	0.005818	-0.007614	-147.661949	-88.800065	-101.929522
22114	9.765420	-0.108808	-0.154110	-0.001572	0.001646	-0.006398	-147.667384	-88.798575	-101.923176
22115	9.742853	-0.113621	-0.161316	-0.005776	0.004627	-0.006824	-147.645020	-88.798665	-101.947116
22116	9.764273	-0.086235	-0.165295	-0.004037	0.004829	-0.006547	-147.615045	-88.798731	-101.977744
22117	9.711090	-0.107080	-0.148032	-0.001957	0.003732	-0.007006	-147.607773	-88.798444	-101.984400
22118	9.775868	-0.138005	-0.160529	-0.003740	0.004317	-0.008630	-147.626846	-88.798907	-101.965551
22119	9.752130	-0.121343	-0.179742	-0.004753	0.000730	-0.009037	-147.711909	-88.797789	-101.881454
22120	9.752148	-0.120358	-0.179414	-0.002089	0.006093	-0.011043	-147.760877	-88.799842	-101.831704
22121	9.773560	-0.092926	-0.183323	-0.004292	0.004554	-0.003118	-147.653074	-88.798763	-101.940252
22122	9.742959	-0.108426	-0.158493	-0.005822	0.005413	-0.008171	-147.647572	-88.799660	-101.947187
22123	9.752197	-0.118299	-0.178092	0.000464	0.001338	-0.008203	-147.701542	-88.798581	-101.891200
22124	9.765560	-0.101396	-0.150249	-0.004425	0.006915	-0.007155	-147.649647	-88.799905	-101.944032
22125	9.721615	-0.132971	-0.152883	-0.003654	0.002743	-0.005939	-147.633173	-88.798812	-101.960865
22126	9.774815	-0.110668	-0.169429	-0.003400	0.003018	-0.009368	-147.692042	-88.798920	-101.902277
22127	9.743030	-0.104595	-0.156670	-0.003742	0.004317	-0.008631	-147.714760	-88.799415	-101.879959
22128	9.729705	-0.120131	-0.183753	-0.003952	0.003254	-0.003856	-147.642471	-88.797939	-101.952778
22129	9.744243	-0.124611	-0.144058	-0.001662	0.003222	-0.009090	-147.690558	-88.798044	-101.903893
22130	9.752305	-0.113310	-0.175444	-0.000904	0.006534	-0.005253	-147.600223	-88.798583	-101.993213
22131	9.765653	-0.096499	-0.147415	-0.005825	0.005413	-0.008172	-147.597461	-88.799467	-101.997574
22132	9.752339	-0.111903	-0.174424	-0.001960	0.003733	-0.007007	-147.591137	-88.799214	-102.003418
22133	9.752355	-0.111151	-0.174023	-0.002004	0.004521	-0.008353	-147.603424	-88.799722	-101.990538
22134	9.774937	-0.104841	-0.166055	-0.002005	0.004521	-0.008353	-147.616411	-88.800183	-101.976934
22135	9.774951	-0.104137	-0.165703	-0.003656	0.002743	-0.005940	-147.599995	-88.799090	-101.993710
22136	9.731034	-0.135574	-0.168518	-0.003447	0.003806	-0.010715	-147.674760	-88.800019	-101.919118
22137	9.729855	-0.113612	-0.179935	-0.002944	0.006842	-0.003449	-147.540304	-88.800145	-102.053552
22138	9.753632	-0.128768	-0.159984	-0.001663	0.003223	-0.009091	-147.587391	-88.800136	-102.005041
22139	9.753647	-0.128051	-0.159645	-0.005738	0.003838	-0.005482	-147.545567	-88.799432	-102.048424
22140	9.752462	-0.106087	-0.171181	-0.003746	0.004318	-0.008632	-147.564903	-88.799924	-102.029337
22141	9.752475	-0.105370	-0.170841	-0.003657	0.002743	-0.005941	-147.548550	-88.798831	-102.046050
22142	9.743232	-0.094034	-0.150678	-0.003359	0.002232	-0.008024	-147.586545	-88.798129	-102.008178
22143	9.776262	-0.119812	-0.150824	-0.002260	0.004245	-0.004924	-147.523984	-88.797450	-102.070309
22144	9.739215	-0.119504	-0.197237	-0.004134	0.006404	-0.009240	-147.526547	-88.799203	-102.068422
22145	9.753737	-0.123924	-0.157332	-0.002261	0.004245	-0.004924	-147.463966	-88.798523	-102.130574
22146	9.776308	-0.117658	-0.149554	-0.000979	0.000627	-0.010567	-147.580848	-88.797738	-102.011950
22147	9.761820	-0.111686	-0.188693	-0.005785	0.004625	-0.006829	-147.558629	-88.797828	-102.035750
22148	9.753781	-0.121668	-0.156379	-0.002306	0.005033	-0.006270	-147.517684	-88.797885	-102.076151
22149	9.739298	-0.115834	-0.195307	-0.002008	0.004522	-0.008354	-147.529928	-88.798394	-102.063316
22150	9.744546	-0.109559	-0.135591	-0.001964	0.003735	-0.007008	-147.520944	-88.798140	-102.071650
22151	9.752615	-0.098211	-0.167097	-0.005443	0.003326	-0.007567	-147.534573	-88.797830	-102.059399
22152	9.730077	-0.102946	-0.174266	-0.002009	0.004523	-0.008354	-147.541044	-88.798397	-102.052446
22153	9.755071	-0.139407	-0.142438	-0.004301	0.004551	-0.003121	-147.433667	-88.797309	-102.160572
22154	9.752654	-0.096436	-0.165874	-0.005742	0.003836	-0.005484	-147.388911	-88.796652	-102.206905
22155	9.763157	-0.127640	-0.173528	0.000073	0.003429	-0.008812	-147.426494	-88.796776	-102.167533
22156	9.752680	-0.094961	-0.165174	-0.001965	0.003735	-0.007008	-147.416873	-88.796471	-102.176292
22157	9.753911	-0.115532	-0.152904	-0.003705	0.003531	-0.007288	-147.420104	-88.796174	-102.173445
22158	9.753923	-0.114896	-0.152592	-0.001920	0.002947	-0.005663	-147.394632	-88.795034	-102.198295
22159	9.753934	-0.114305	-0.152370	-0.001577	0.001649	-0.006401	-147.403886	-88.793554	-102.188204
22160	9.763226	-0.124225	-0.172107	-0.003361	0.002233	-0.008026	-147.440786	-88.792861	-102.151529
22161	9.762015	-0.102329	-0.183822	-0.003615	0.001954	-0.004597	-147.405395	-88.790972	-102.187260
22162	9.741930	-0.149689	-0.167209	-0.003796	0.005107	-0.009980	-147.446659	-88.792213	-102.146346
22163	9.750013	-0.138277	-0.198495	-0.002654	0.006331	-0.005533	-147.368067	-88.792726	-102.224738
22164	9.762064	-0.100151	-0.182410	-0.003752	0.004319	-0.008635	-147.391582	-88.793157	-102.201436
22165	9.754015	-0.110101	-0.150221	-0.001921	0.002947	-0.005663	-147.365128	-88.792076	-102.227258
22166	9.754029	-0.109415	-0.149859	-0.002012	0.004524	-0.008355	-147.377963	-88.792607	-102.214087
22167	9.763334	-0.119164	-0.169541	-0.006498	0.000525	-0.009326	-147.473412	-88.791486	-102.120600
22168	9.740806	-0.123919	-0.176850	-0.004051	0.004829	-0.006551	-147.437997	-88.791564	-102.156325
22169	9.754066	-0.107158	-0.149027	0.001901	0.002060	-0.005841	-147.426373	-88.790110	-102.165122
22170	9.763377	-0.116969	-0.168624	-0.007278	0.004697	-0.010542	-147.486950	-88.791359	-102.106845
22171	9.722256	-0.100524	-0.135913	-0.002267	0.004246	-0.004925	-147.424814	-88.790678	-102.168555
22172	9.763409	-0.115575	-0.167716	-0.004098	0.005617	-0.007897	-147.410992	-88.791526	-102.182754
22173	9.763424	-0.114893	-0.167312	-0.003662	0.002742	-0.005944	-147.394971	-88.790433	-102.199138
22174	9.732833	-0.130456	-0.142749	-0.003708	0.003531	-0.007290	-147.399284	-88.790096	-102.195197
22175	9.739678	-0.097661	-0.186070	-0.003800	0.005108	-0.009981	-147.441106	-88.791390	-102.153804
22176	9.763470	-0.112781	-0.166063	-0.004652	0.005847	-0.002384	-147.296279	-88.790656	-102.299349
22177	9.740948	-0.117765	-0.173197	-0.001670	0.003228	-0.009093	-147.344041	-88.790771	-102.250795
22178	9.731657	-0.106228	-0.152871	-0.003801	0.005108	-0.009982	-147.385682	-88.792059	-102.209511
22179	9.763518	-0.110531	-0.164777	-0.004009	0.004040	-0.005206	-147.334005	-88.791363	-102.261758
22180	9.772844	-0.120515	-0.184335	-0.003710	0.003531	-0.007290	-147.332968	-88.791161	-102.263426
22181	9.763546	-0.109147	-0.164022	-0.002016	0.004526	-0.008355	-147.345060	-88.791674	-102.250748
22182	9.764806	-0.129688	-0.151707	-0.000231	0.003943	-0.006729	-147.324698	-88.791456	-102.269521
22183	9.739797	-0.092015	-0.182718	-0.001971	0.003737	-0.007010	-147.317560	-88.791172	-102.276050
22184	9.771663	-0.096339	-0.194554	-0.006187	0.006708	-0.007441	-147.280242	-88.792428	-102.315216
22185	9.741075	-0.111934	-0.169887	0.001900	0.002063	-0.005840	-147.268751	-88.790974	-102.323881
22186	9.764867	-0.126893	-0.150167	-0.005151	0.002816	-0.009656	-147.333287	-88.791115	-102.260403
22187	9.750430	-0.120819	-0.189182	-0.002064	0.005315	-0.009702	-147.364644	-88.792424	-102.228483
22188	9.764902	-0.125109	-0.149347	-0.003712	0.003531	-0.007291	-147.364298	-88.792174	-102.229161
22189	9.750465	-0.119217	-0.188365	-0.002018	0.004526	-0.008356	-147.376421	-88.792686	-102.216453
22190	9.741154	-0.107795	-0.168015	-0.003758	0.004320	-0.008637	-147.395183	-88.793251	-102.198102
22191	9.774280	-0.133391	-0.168099	-0.001926	0.002949	-0.005665	-147.368742	-88.792171	-102.223913
22192	9.741182	-0.106377	-0.167324	-0.005499	0.004113	-0.008919	-147.398460	-88.792666	-102.195400
22193	9.741199	-0.105449	-0.166880	-0.003806	0.005109	-0.009984	-147.440404	-88.793962	-102.153889
22194	9.774332	-0.131052	-0.166952	-0.000140	0.002367	-0.004038	-147.383943	-88.792069	-102.208694
22195	9.773084	-0.109126	-0.178575	-0.001674	0.003229	-0.009095	-147.431777	-88.792183	-102.160070
22196	9.774363	-0.129553	-0.166303	-0.002020	0.004527	-0.008357	-147.439512	-88.792766	-102.151807
22197	9.741254	-0.102481	-0.165533	-0.001628	0.002441	-0.007749	-147.468037	-88.792083	-102.122470
22198	9.773129	-0.106739	-0.177571	-0.003714	0.003531	-0.007292	-147.468622	-88.791765	-102.122023
22199	9.765064	-0.116823	-0.145430	-0.000188	0.003156	-0.005383	-147.431694	-88.790699	-102.157327
22200	9.765078	-0.116120	-0.145079	-0.005501	0.004113	-0.008920	-147.463126	-88.791186	-102.127277
22201	9.742575	-0.120853	-0.152301	0.001804	0.003644	-0.008532	-147.489996	-88.791326	-102.097628
22202	9.750672	-0.109397	-0.183550	-0.006541	0.008004	-0.006705	-147.413809	-88.793001	-102.175738
22203	9.763858	-0.092340	-0.155520	-0.003116	0.002515	-0.011462	-147.527247	-88.793498	-102.062321
22204	9.750707	-0.107597	-0.182740	-0.001976	0.003738	-0.007011	-147.518441	-88.793164	-102.070379
22205	9.765157	-0.112016	-0.142974	-0.003716	0.003531	-0.007293	-147.521757	-88.792868	-102.067453
22206	9.750737	-0.106111	-0.182010	-0.003763	0.004320	-0.008639	-147.542508	-88.793353	-102.047040
22207	9.741398	-0.094716	-0.161620	-0.005850	0.005409	-0.008183	-147.540031	-88.794238	-102.051131
22208	9.761408	-0.136350	-0.189072	0.001456	0.004943	-0.007793	-147.526082	-88.794846	-102.062399
22209	9.750788	-0.103761	-0.180627	-0.003716	0.003531	-0.007294	-147.529411	-88.794550	-102.059460
22210	9.750802	-0.103129	-0.180273	-0.005756	0.003831	-0.005491	-147.485077	-88.793852	-102.105249
22211	9.741454	-0.091806	-0.159921	-0.003812	0.005109	-0.009986	-147.527195	-88.795147	-102.063566
22212	9.773344	-0.095913	-0.171813	-0.003717	0.003531	-0.007294	-147.527894	-88.794925	-102.063438
22213	9.753414	-0.143222	-0.155289	-0.001725	0.004021	-0.010442	-147.595320	-88.795834	-101.995247
22214	9.750866	-0.099793	-0.178683	-0.001978	0.003739	-0.007012	-147.580795	-88.795662	-102.009166
22215	9.752163	-0.120495	-0.166411	-0.002278	0.004246	-0.004927	-147.518427	-88.794984	-102.071115
22216	9.741522	-0.087885	-0.157985	-0.003466	0.003813	-0.010725	-147.592744	-88.795945	-101.997174
22217	9.760284	-0.108061	-0.197381	-0.005854	0.005409	-0.008184	-147.590336	-88.796831	-102.001198
22218	9.752215	-0.118065	-0.165125	-0.000239	0.003947	-0.006730	-147.571728	-88.796564	-102.018324
22219	9.742852	-0.106813	-0.144854	-0.005459	0.003323	-0.007577	-147.585614	-88.796255	-102.005824
22220	9.761621	-0.127209	-0.184343	-0.000239	0.003947	-0.006730	-147.566397	-88.795993	-102.023273
22221	9.752259	-0.115907	-0.164022	-0.003767	0.004320	-0.008641	-147.589208	-88.796493	-102.000876
22222	9.760366	-0.104366	-0.195331	-0.002375	0.005825	-0.007620	-147.562550	-88.797467	-102.027198
22223	9.752292	-0.114275	-0.163226	-0.006504	0.000521	-0.009338	-147.658543	-88.796342	-101.933173
22224	9.753598	-0.134857	-0.151161	0.001548	0.003367	-0.005101	-147.608857	-88.795292	-101.980197
22225	9.752315	-0.113047	-0.162691	-0.005760	0.003829	-0.005493	-147.567584	-88.794587	-102.023041
22226	9.752329	-0.112330	-0.162351	-0.001680	0.003233	-0.009097	-147.619070	-88.794606	-101.970639
22227	9.752344	-0.111577	-0.161950	-0.002329	0.005036	-0.006274	-147.576172	-88.794725	-102.013142
22228	9.776156	-0.126588	-0.142020	-0.001981	0.003740	-0.007013	-147.682818	-88.800764	-101.896468
22229	9.740565	-0.147762	-0.176873	-0.001933	0.002950	-0.005667	-147.656061	-88.799692	-101.922596
22230	9.753686	-0.130929	-0.148911	-0.004118	0.005617	-0.007903	-147.642268	-88.800635	-101.937101
22231	9.752400	-0.108956	-0.160383	-0.003673	0.002741	-0.005950	-147.626143	-88.799549	-101.953592
22232	9.761809	-0.118873	-0.179938	-0.004070	0.004827	-0.006557	-147.594951	-88.799614	-101.985227
22233	9.739332	-0.123693	-0.187091	-0.003819	0.005111	-0.009988	-147.637502	-88.800913	-101.943112
22234	9.784337	-0.111735	-0.171460	-0.000145	0.002369	-0.004038	-147.578400	-88.799147	-102.000803
22235	9.731270	-0.133154	-0.154450	-0.004516	0.007703	-0.008511	-147.549138	-88.801246	-102.030918
22236	9.761877	-0.115955	-0.178114	-0.001634	0.002444	-0.007752	-147.575406	-88.800612	-102.003722
22237	9.739401	-0.120790	-0.185425	-0.003771	0.004321	-0.008643	-147.598415	-88.801117	-101.981127
22238	9.752501	-0.103869	-0.157590	-0.003325	0.001445	-0.006690	-147.616654	-88.799667	-101.963287
22239	9.739431	-0.119198	-0.184886	-0.001731	0.004024	-0.010445	-147.684489	-88.800579	-101.894686
22240	9.739450	-0.118436	-0.184332	-0.004771	0.007419	-0.005080	-147.579019	-88.801540	-102.001352
22241	9.753859	-0.122952	-0.144373	-0.003724	0.003531	-0.007297	-147.582498	-88.801249	-101.998264
22242	9.752559	-0.100853	-0.155915	-0.001683	0.003235	-0.009099	-147.630538	-88.801302	-101.949272
22243	9.771399	-0.121154	-0.195464	-0.003675	0.002741	-0.005951	-147.614448	-88.800215	-101.965729
22244	9.730098	-0.104947	-0.162956	-0.003473	0.003815	-0.010729	-147.688501	-88.801185	-101.892097
22245	9.763337	-0.130194	-0.162907	-0.004123	0.005617	-0.007905	-147.675698	-88.802090	-101.905523
22246	9.763354	-0.129425	-0.162517	-0.001635	0.002445	-0.007753	-147.703385	-88.801428	-101.877095
22247	9.730143	-0.102430	-0.161848	-0.003425	0.003025	-0.009383	-147.762351	-88.801530	-101.818337
22248	9.730156	-0.101694	-0.161560	-0.001936	0.002951	-0.005668	-147.735942	-88.800394	-101.844058
22249	9.763397	-0.127207	-0.161652	-0.003726	0.003531	-0.007298	-147.739400	-88.800103	-101.840991
22250	9.749033	-0.121262	-0.200646	-0.000344	0.005531	-0.009422	-147.757994	-88.801465	-101.820864
22251	9.762108	-0.104307	-0.172573	-0.004076	0.004827	-0.006559	-147.725604	-88.801576	-101.853854
22252	9.750399	-0.141093	-0.187754	-0.000645	0.006037	-0.007337	-147.691866	-88.802543	-101.886407
22253	9.731558	-0.119261	-0.147479	-0.003426	0.003025	-0.009384	-147.750904	-88.802645	-101.827577
22254	9.762157	-0.101904	-0.171261	-0.005516	0.004111	-0.008929	-147.779428	-88.803178	-101.800573
22255	9.752741	-0.090536	-0.150812	-0.000696	0.006828	-0.008684	-147.765064	-88.804909	-101.813596
22256	9.739712	-0.106092	-0.177900	-0.003979	0.003246	-0.003868	-147.690705	-88.803420	-101.888384
22257	9.754099	-0.110537	-0.138059	-0.003826	0.005112	-0.009991	-147.733550	-88.804719	-101.845980
22258	9.795465	-0.125146	-0.169893	-0.003629	0.001950	-0.004607	-147.695133	-88.802917	-101.885098
22259	9.739753	-0.104005	-0.176918	-0.003427	0.003026	-0.009384	-147.754198	-88.803020	-101.826242
22260	9.763579	-0.118724	-0.157095	-0.001687	0.003236	-0.009100	-147.800498	-88.803213	-101.779400
22261	9.741120	-0.123647	-0.164357	-0.002339	0.005037	-0.006276	-147.757412	-88.803340	-101.822093
22262	9.773055	-0.127731	-0.176158	-0.003778	0.004321	-0.008646	-147.778510	-88.803881	-101.801572
22263	9.762288	-0.095087	-0.167679	-0.003779	0.004322	-0.008646	-147.801729	-88.804385	-101.778771
22264	9.741169	-0.121365	-0.163138	-0.001939	0.002951	-0.005669	-147.773302	-88.803334	-101.806572
22265	9.764997	-0.136332	-0.143190	-0.002390	0.005828	-0.007622	-147.749899	-88.804255	-101.829607
22266	9.739857	-0.098727	-0.174206	-0.001589	0.001656	-0.006408	-147.755739	-88.802782	-101.822863
22267	9.763683	-0.113640	-0.154330	-0.004130	0.005617	-0.007907	-147.743028	-88.803689	-101.836202
22268	9.741232	-0.118564	-0.161447	-0.002391	0.005828	-0.007622	-147.716120	-88.804619	-101.862622
22269	9.749358	-0.107082	-0.192803	-0.003680	0.002740	-0.005954	-147.699982	-88.803534	-101.879130
22270	9.749372	-0.106379	-0.192451	-0.002040	0.004533	-0.008362	-147.711664	-88.804000	-101.866729
22271	9.741278	-0.116378	-0.160243	-0.002040	0.004533	-0.008362	-147.724169	-88.804520	-101.853647
22272	9.763759	-0.110157	-0.152066	-0.004684	0.005836	-0.002390	-147.580640	-88.803814	-101.998110
22273	9.749418	-0.104391	-0.191197	-0.000987	0.000647	-0.010580	-147.700949	-88.803134	-101.876598
22274	9.773247	-0.119153	-0.171445	-0.000251	0.003954	-0.006731	-147.680721	-88.802939	-101.895330
22275	9.773262	-0.118448	-0.171093	-0.005471	0.003319	-0.007586	-147.694971	-88.802634	-101.882470
22276	9.749460	-0.102225	-0.190257	-0.002293	0.004247	-0.004930	-147.627118	-88.802029	-101.949959
22277	9.736481	-0.117733	-0.217439	-0.003782	0.004322	-0.008647	-147.650270	-88.802535	-101.927227
22278	9.741376	-0.111618	-0.157687	-0.001992	0.003743	-0.007016	-147.643177	-88.802298	-101.933921
22279	9.771966	-0.094281	-0.181442	-0.003431	0.003027	-0.009387	-147.702254	-88.802403	-101.875055
22280	9.741405	-0.110032	-0.156982	-0.004084	0.004826	-0.006562	-147.668953	-88.802520	-101.908933
22281	9.750895	-0.119734	-0.176509	-0.001691	0.003239	-0.009102	-147.717337	-88.802640	-101.859765
22282	9.774729	-0.134557	-0.156627	-0.000252	0.003955	-0.006731	-147.699360	-88.802362	-101.876194
22283	9.749567	-0.096975	-0.187478	-0.004487	0.006912	-0.007169	-147.650717	-88.803669	-101.925677
22284	9.773403	-0.111856	-0.167439	-0.003733	0.003531	-0.007302	-147.647613	-88.803385	-101.928840
22285	9.773417	-0.111136	-0.167098	-0.003734	0.003531	-0.007302	-147.651196	-88.803096	-101.925653
22286	9.741493	-0.105665	-0.154533	-0.003734	0.003531	-0.007302	-147.651007	-88.802825	-101.926196
22287	9.752353	-0.136746	-0.162367	-0.003331	0.001445	-0.006696	-147.670885	-88.801340	-101.906481
22288	9.751002	-0.114585	-0.173957	-0.003484	0.003818	-0.010734	-147.748303	-88.802253	-101.829292
22289	9.763987	-0.097507	-0.145881	-0.002397	0.005829	-0.007624	-147.724914	-88.803176	-101.852318
22290	9.738071	-0.129260	-0.200724	-0.003633	0.001949	-0.004610	-147.684731	-88.801381	-101.892901
22291	9.741556	-0.101932	-0.153000	0.000399	0.002157	-0.009556	-147.758197	-88.801116	-101.817447
22292	9.751062	-0.111514	-0.172590	-0.002046	0.004535	-0.008363	-147.769864	-88.801615	-101.805172
22293	9.751078	-0.110761	-0.172189	-0.001995	0.003743	-0.007017	-147.762711	-88.801342	-101.811727
22294	9.765420	-0.115251	-0.132424	-0.003685	0.002740	-0.005957	-147.742827	-88.800327	-101.831974
22295	9.742982	-0.120340	-0.139809	-0.001996	0.003744	-0.007017	-147.735687	-88.800053	-101.838516
22296	9.760617	-0.119067	-0.191113	-0.003486	0.003819	-0.010735	-147.810787	-88.800953	-101.763560
22297	9.751138	-0.107685	-0.170753	-0.005881	0.005404	-0.008196	-147.808943	-88.801844	-101.767032
22298	9.741650	-0.096604	-0.150484	-0.003634	0.001948	-0.004611	-147.768606	-88.799968	-101.807500
22299	9.762047	-0.138120	-0.178115	-0.000359	0.005540	-0.009424	-147.790031	-88.801301	-101.784533
22300	9.770188	-0.126401	-0.209489	-0.003384	0.002236	-0.008043	-147.828912	-88.800682	-101.746109
22301	9.765514	-0.109965	-0.129954	-0.001946	0.002953	-0.005671	-147.802090	-88.799615	-101.772310
22302	9.728758	-0.109865	-0.176927	-0.003032	0.000942	-0.008783	-147.879276	-88.798534	-101.695262
22303	9.762108	-0.135124	-0.177025	-0.004091	0.004826	-0.006564	-147.847113	-88.798647	-101.728034
22304	9.762124	-0.134522	-0.176650	-0.001946	0.002953	-0.005671	-147.818169	-88.797573	-101.756293
22305	9.773684	-0.096307	-0.160560	-0.001696	0.003241	-0.009104	-147.866371	-88.797692	-101.707310
22306	9.784600	-0.127204	-0.168224	-0.005884	0.005404	-0.008197	-147.862745	-88.798588	-101.712673
22307	9.752664	-0.121710	-0.155527	-0.000310	0.004749	-0.008078	-147.864542	-88.799126	-101.709310
22308	9.728846	-0.105437	-0.174758	-0.001594	0.001658	-0.006411	-147.867404	-88.797749	-101.705677
22309	9.751301	-0.099024	-0.166632	-0.004498	0.006911	-0.007171	-147.819192	-88.799059	-101.754735
22310	9.762228	-0.130056	-0.174212	-0.003739	0.003531	-0.007305	-147.820696	-88.798840	-101.753805
22311	9.752724	-0.118782	-0.154033	-0.001344	0.001947	-0.009844	-147.904671	-88.798557	-101.668839
22312	9.752740	-0.117963	-0.153593	-0.002759	0.007125	-0.006885	-147.840403	-88.799966	-101.732971
22313	9.751360	-0.096072	-0.164870	-0.002302	0.004247	-0.004932	-147.777837	-88.799300	-101.795127
22314	9.739859	-0.132964	-0.180298	-0.003740	0.003531	-0.007305	-147.781399	-88.799027	-101.792086
22315	9.751386	-0.094580	-0.164179	0.000344	0.002953	-0.010904	-147.874341	-88.799556	-101.697184
22316	9.762330	-0.125361	-0.171912	-0.003793	0.004323	-0.008652	-147.893180	-88.800172	-101.678927
22317	9.738512	-0.109039	-0.191070	-0.002001	0.003745	-0.007019	-147.886024	-88.799900	-101.685490
22318	9.752829	-0.113529	-0.151296	-0.003689	0.002739	-0.005959	-147.869755	-88.798758	-101.702023
22319	9.762375	-0.123350	-0.170833	-0.002355	0.005039	-0.006279	-147.826881	-88.798888	-101.744513
22320	9.760987	-0.101405	-0.182181	-0.004096	0.004825	-0.006566	-147.789751	-88.799058	-101.782258
22321	9.752873	-0.111514	-0.149939	-0.000365	0.005543	-0.009425	-147.811152	-88.800392	-101.759319
22322	9.730460	-0.116431	-0.157249	-0.007223	0.003102	-0.007880	-147.837688	-88.800001	-101.735094
22323	9.752903	-0.109946	-0.149182	-0.000261	0.003960	-0.006732	-147.819784	-88.799745	-101.751409
22324	9.762457	-0.119658	-0.168743	-0.005483	0.003317	-0.007593	-147.833189	-88.799372	-101.739207
22325	9.740046	-0.124628	-0.176105	-0.003795	0.004323	-0.008653	-147.856488	-88.799879	-101.716335
22326	9.740063	-0.123880	-0.175665	-0.004098	0.004825	-0.006567	-147.823230	-88.800054	-101.750418
22327	9.762506	-0.117343	-0.167503	-0.005536	0.004109	-0.008940	-147.857319	-88.800545	-101.717752
22328	9.740095	-0.122484	-0.174884	-0.003993	0.003241	-0.003874	-147.786742	-88.799115	-101.789096
22329	9.740107	-0.122081	-0.174500	0.001176	0.004677	-0.004358	-147.702733	-88.798480	-101.870707
22330	9.730573	-0.111058	-0.154099	-0.005892	0.005403	-0.008201	-147.698842	-88.799363	-101.876166
22331	9.749694	-0.131041	-0.193457	-0.003797	0.004323	-0.008653	-147.722094	-88.799871	-101.853342
22332	9.762581	-0.114072	-0.165428	-0.003744	0.003531	-0.007307	-147.723451	-88.799683	-101.852631
22333	9.753041	-0.102885	-0.145136	-0.003797	0.004323	-0.008654	-147.746723	-88.800191	-101.829788
22334	9.762612	-0.112517	-0.164658	-0.002004	0.003746	-0.007020	-147.733521	-88.799987	-101.842336
22335	9.740207	-0.117563	-0.171986	-0.000317	0.004753	-0.008079	-147.735220	-88.800527	-101.839076
22336	9.730665	-0.106244	-0.151658	-0.003496	0.003822	-0.010741	-147.811375	-88.801442	-101.763103
22337	9.740244	-0.115712	-0.171127	-0.005894	0.005402	-0.008202	-147.809701	-88.802334	-101.766413
22338	9.785093	-0.103533	-0.155262	-0.000159	0.002377	-0.004039	-147.746280	-88.800596	-101.828231
22339	9.740270	-0.114606	-0.170392	-0.002361	0.005040	-0.006280	-147.703337	-88.800725	-101.870794
22340	9.740286	-0.113975	-0.169915	-0.004102	0.004825	-0.006568	-147.666122	-88.800922	-101.908636
22341	9.762718	-0.107419	-0.161737	-0.005540	0.004108	-0.008943	-147.700223	-88.801414	-101.875959
22342	9.762734	-0.106705	-0.161232	-0.002717	0.006334	-0.005540	-147.617989	-88.802016	-101.958151
22343	9.753175	-0.095845	-0.140896	-0.000159	0.002377	-0.004039	-147.561039	-88.800167	-102.013463
22344	9.749919	-0.121696	-0.188170	-0.003497	0.003823	-0.010742	-147.635607	-88.801159	-101.939236
22345	9.764203	-0.126147	-0.148294	-0.004352	0.004534	-0.003135	-147.528575	-88.800075	-102.047044
22346	9.730802	-0.099461	-0.147402	-0.003960	0.006701	-0.012695	-147.609889	-88.802924	-101.966142
22347	9.762808	-0.103151	-0.159051	-0.005791	0.003817	-0.005511	-147.568994	-88.802223	-102.008622
22348	9.741844	-0.129656	-0.154635	-0.002007	0.003747	-0.007021	-147.561542	-88.801966	-102.015542
22349	9.750007	-0.117964	-0.185953	-0.002061	0.004540	-0.008367	-147.573981	-88.802492	-102.002539
22350	9.762850	-0.100907	-0.157917	-0.003445	0.003031	-0.009396	-147.632972	-88.802607	-101.943823
22351	9.740455	-0.106010	-0.165324	-0.002311	0.004248	-0.004934	-147.570417	-88.801938	-102.005974
22352	9.772464	-0.109969	-0.176945	-0.006255	0.006695	-0.007464	-147.531333	-88.803267	-102.047011
22353	9.773918	-0.130637	-0.164714	0.001883	0.002093	-0.005838	-147.519008	-88.801832	-102.056518
22354	9.751527	-0.135601	-0.172252	-0.003143	0.002530	-0.011483	-147.631414	-88.802417	-101.944300
22355	9.782100	-0.117953	-0.195849	-0.004106	0.004825	-0.006570	-147.599257	-88.802529	-101.977075
22356	9.740528	-0.102387	-0.163314	-0.002365	0.005041	-0.006281	-147.556311	-88.802663	-102.019723
22357	9.741988	-0.122932	-0.150969	-0.005954	0.006194	-0.009552	-147.574075	-88.804353	-102.003624
22358	9.750159	-0.111185	-0.182150	-0.004107	0.004825	-0.006570	-147.543243	-88.804419	-102.035085
22359	9.742023	-0.121407	-0.149986	-0.002063	0.004541	-0.008368	-147.555707	-88.804946	-102.022058
22360	9.774040	-0.125166	-0.161662	0.001418	0.004974	-0.007790	-147.544313	-88.805549	-102.030968
22361	9.748758	-0.087732	-0.192697	-0.003643	0.001946	-0.004618	-147.509051	-88.803668	-102.066583
22362	9.750219	-0.108422	-0.180544	-0.005902	0.005401	-0.008206	-147.505051	-88.804492	-102.071994
22363	9.751686	-0.128981	-0.168315	-0.003751	0.003532	-0.007311	-147.508863	-88.804206	-102.068589
22364	9.759855	-0.117263	-0.199747	-0.003394	0.002239	-0.008051	-147.545425	-88.803517	-102.032109
22365	9.751717	-0.127406	-0.167723	-0.003805	0.004325	-0.008657	-147.568765	-88.804028	-102.009202
22366	9.750280	-0.105295	-0.179141	-0.003752	0.003532	-0.007311	-147.571178	-88.803730	-102.007166
22367	9.732528	-0.105239	-0.127111	-0.002369	0.005042	-0.006282	-147.528122	-88.803858	-102.049846
22368	9.718303	-0.099196	-0.166292	-0.002788	0.001239	-0.012226	-147.678626	-88.804000	-101.899274
22369	9.772716	-0.097060	-0.170492	-0.003644	0.001945	-0.004618	-147.643219	-88.802121	-101.935035
22370	9.759950	-0.112526	-0.197841	-0.003861	0.005118	-0.010005	-147.682491	-88.803497	-101.896298
22371	9.750354	-0.101293	-0.177411	-0.004165	0.005618	-0.007918	-147.669958	-88.804407	-101.909478
22372	9.751831	-0.121871	-0.165177	-0.003753	0.003532	-0.007312	-147.672065	-88.804068	-101.907617
22373	9.718372	-0.095314	-0.164502	-0.003754	0.003532	-0.007312	-147.675856	-88.803782	-101.904233
22374	9.751862	-0.120398	-0.164435	-0.000327	0.004759	-0.008079	-147.675664	-88.804313	-101.902792
22375	9.783890	-0.124148	-0.176157	-0.003754	0.003532	-0.007312	-147.679463	-88.804027	-101.899402
22376	9.751894	-0.118843	-0.163667	-0.005550	0.004108	-0.008948	-147.712177	-88.804531	-101.868122
22377	9.760066	-0.107134	-0.195066	0.001881	0.002098	-0.005837	-147.699551	-88.803099	-101.877931
22378	9.742295	-0.107003	-0.143106	-0.003864	0.005118	-0.010006	-147.740777	-88.804400	-101.837109
22379	9.750469	-0.095267	-0.174362	-0.004058	0.004031	-0.005225	-147.689003	-88.803717	-101.889477
22380	9.775807	-0.131489	-0.142733	-0.003342	0.001446	-0.006707	-147.707302	-88.802231	-101.871306
22381	9.751965	-0.115305	-0.161960	-0.002428	0.005835	-0.007629	-147.683920	-88.803158	-101.894342
22382	9.751983	-0.114541	-0.161405	-0.004169	0.005618	-0.007919	-147.670170	-88.804091	-101.908820
22383	9.761636	-0.124061	-0.180834	-0.003811	0.004325	-0.008660	-147.693615	-88.804602	-101.885811
22384	9.752013	-0.112982	-0.160675	0.002238	0.000806	-0.006578	-147.715474	-88.802778	-101.860906
22385	9.760186	-0.101307	-0.192159	-0.003756	0.003532	-0.007313	-147.719286	-88.802492	-101.857503
22386	9.731133	-0.138859	-0.156124	-0.005801	0.003813	-0.005516	-147.674734	-88.801787	-101.903495
22387	9.752052	-0.110972	-0.159720	-0.003812	0.004325	-0.008660	-147.698144	-88.802299	-101.880523
22388	9.729687	-0.116047	-0.167141	-0.003757	0.003532	-0.007313	-147.697541	-88.802027	-101.881398
22389	9.752080	-0.109483	-0.158990	-0.002016	0.003750	-0.007023	-147.690451	-88.801758	-101.887903
22390	9.761741	-0.119141	-0.178484	-0.004116	0.004824	-0.006573	-147.657004	-88.801871	-101.921946
22391	9.729731	-0.114063	-0.165888	-0.000635	0.005261	-0.005992	-147.603123	-88.802018	-101.974461
22392	9.760289	-0.096385	-0.189447	-0.004836	0.001522	-0.010432	-147.706660	-88.801735	-101.871896
22393	9.742487	-0.096114	-0.137620	-0.001713	0.003251	-0.009111	-147.755034	-88.801864	-101.822751
22394	9.763291	-0.137252	-0.165354	-0.007240	0.003095	-0.007895	-147.779707	-88.801523	-101.800410
22395	9.752166	-0.104900	-0.156832	-0.002377	0.005043	-0.006283	-147.736767	-88.801654	-101.842979
22396	9.739460	-0.120437	-0.184122	-0.002018	0.003750	-0.007024	-147.726198	-88.801407	-101.852871
22397	9.753681	-0.124893	-0.144390	-0.005085	0.001227	-0.006999	-147.757147	-88.799909	-101.823087
22398	9.773085	-0.075595	-0.159856	-0.002074	0.004544	-0.008370	-147.766110	-88.800403	-101.813334
22399	9.739505	-0.118291	-0.183132	-0.000637	0.005262	-0.005992	-147.712294	-88.800552	-101.865784
22400	9.753725	-0.122747	-0.143273	-0.003400	0.002240	-0.008055	-147.749129	-88.799955	-101.829305
22401	9.749197	-0.127160	-0.202401	-0.003760	0.003532	-0.007315	-147.752956	-88.799670	-101.825889
22402	9.742592	-0.089715	-0.134508	-0.005805	0.003811	-0.005518	-147.708820	-88.798983	-101.871557
22403	9.761935	-0.109686	-0.173860	-0.002435	0.005837	-0.007630	-147.685502	-88.799911	-101.894533
22404	9.761953	-0.108901	-0.173356	-0.002075	0.004545	-0.008371	-147.693625	-88.800507	-101.885880
22405	9.739601	-0.113913	-0.180806	-0.003457	0.003034	-0.009403	-147.752873	-88.800620	-101.826858
22406	9.771655	-0.117546	-0.192518	-0.004121	0.004824	-0.006574	-147.719915	-88.800741	-101.860456
22407	9.763501	-0.127945	-0.160360	-0.002380	0.005043	-0.006283	-147.677002	-88.800872	-101.903001
22408	9.753845	-0.116808	-0.140023	-0.003513	0.003828	-0.010750	-147.752334	-88.801764	-101.827717
22409	9.729991	-0.100592	-0.159223	-0.002325	0.004249	-0.004937	-147.689804	-88.801099	-101.889850
22410	9.763550	-0.125650	-0.159177	-0.001717	0.003254	-0.009112	-147.737173	-88.801254	-101.841770
22411	9.762059	-0.103608	-0.170594	-0.004066	0.004030	-0.005228	-147.685621	-88.800571	-101.893921
22412	9.728534	-0.146463	-0.193943	-0.002382	0.005043	-0.006284	-147.641065	-88.800751	-101.938209
22413	9.763594	-0.123709	-0.157971	-0.003763	0.003532	-0.007316	-147.644948	-88.800467	-101.934739
22414	9.762102	-0.101601	-0.169347	-0.002078	0.004546	-0.008372	-147.655700	-88.801061	-101.923549
22415	9.741265	-0.128031	-0.165080	-0.003403	0.002240	-0.008057	-147.695418	-88.800378	-101.884030
22416	9.752444	-0.089579	-0.148818	-0.003515	0.003829	-0.010751	-147.769219	-88.801281	-101.810292
22417	9.776328	-0.104247	-0.128832	-0.002327	0.004249	-0.004937	-147.706713	-88.800617	-101.872404
22418	9.763668	-0.119967	-0.156271	-0.003651	0.001944	-0.004623	-147.670090	-88.798692	-101.909220
22419	9.762168	-0.097939	-0.167671	-0.000395	0.005560	-0.009427	-147.691155	-88.800037	-101.886634
22420	9.771876	-0.107388	-0.187148	-0.005505	0.003312	-0.007608	-147.706416	-88.799663	-101.872686
22421	9.754020	-0.107401	-0.135292	-0.001663	0.002460	-0.007766	-147.735128	-88.798997	-101.843178
22422	9.771904	-0.105822	-0.186541	-0.003821	0.004327	-0.008664	-147.754611	-88.799616	-101.824266
22423	9.731693	-0.111773	-0.142346	-0.002385	0.005044	-0.006284	-147.711754	-88.799749	-101.866757
22424	9.771936	-0.104569	-0.185572	-0.002690	0.005541	-0.004197	-147.611885	-88.799500	-101.966440
22425	9.741422	-0.120843	-0.161226	-0.003878	0.005121	-0.010011	-147.654830	-88.800811	-101.923965
22426	9.763791	-0.113920	-0.153107	-0.000998	0.000672	-0.010596	-147.774940	-88.800160	-101.802777
22427	9.751157	-0.129271	-0.180589	-0.004127	0.004824	-0.006577	-147.743039	-88.800275	-101.835308
22428	9.751173	-0.128587	-0.180186	-0.003766	0.003532	-0.007318	-147.443306	-88.802441	-102.146912
22429	9.741484	-0.117527	-0.159901	-0.003823	0.004327	-0.008665	-147.466516	-88.802958	-102.124149
22430	9.749679	-0.105653	-0.191238	-0.001664	0.002461	-0.007767	-147.495703	-88.802269	-102.094357
22431	9.773569	-0.120449	-0.171312	-0.002330	0.004249	-0.004938	-147.433113	-88.801600	-102.156558
22432	9.773586	-0.119678	-0.170920	-0.003519	0.003830	-0.010753	-147.510311	-88.802516	-102.079778
22433	9.741546	-0.114431	-0.158391	-0.002445	0.005839	-0.007632	-147.486590	-88.803446	-102.103166
22434	9.763907	-0.107771	-0.150091	-0.003768	0.003532	-0.007318	-147.490555	-88.803126	-102.099704
22435	9.752824	-0.144568	-0.165801	-0.001665	0.002462	-0.007768	-147.519282	-88.802465	-102.070186
22436	9.727428	-0.107073	-0.196747	-0.000705	0.006060	-0.007340	-147.480825	-88.803410	-102.107118
22437	9.775205	-0.137113	-0.157033	-0.003825	0.004327	-0.008666	-147.504096	-88.803927	-102.084296
22438	9.763964	-0.104685	-0.148565	-0.003407	0.002241	-0.008060	-147.544628	-88.803259	-102.044026
22439	9.719293	-0.115697	-0.164016	-0.003464	0.003036	-0.009407	-147.603877	-88.803379	-101.985011
22440	9.741648	-0.109023	-0.155875	-0.001971	0.002958	-0.005680	-147.578775	-88.802263	-102.009610
22441	9.773729	-0.112574	-0.167536	-0.003884	0.005122	-0.010013	-147.621624	-88.803578	-101.967239
22442	9.719337	-0.113474	-0.163000	-0.003655	0.001942	-0.004626	-147.581400	-88.801756	-102.007647
22443	9.783482	-0.121447	-0.186837	0.000017	0.003478	-0.008822	-147.618561	-88.801910	-101.968728
22444	9.751431	-0.116342	-0.174448	-0.003770	0.003532	-0.007320	-147.622729	-88.801619	-101.965094
22445	9.751447	-0.115673	-0.174034	-0.002391	0.005045	-0.006286	-147.579611	-88.801752	-102.007854
22446	9.749914	-0.093741	-0.185396	-0.001972	0.002958	-0.005680	-147.552201	-88.800632	-102.034614
22447	9.743288	-0.125577	-0.141616	-0.004133	0.004823	-0.006579	-147.520124	-88.800746	-102.067328
22448	9.749942	-0.092489	-0.184553	-0.004133	0.004823	-0.006579	-147.486313	-88.800860	-102.101769
22449	9.775387	-0.128593	-0.152881	-0.001609	0.001668	-0.006422	-147.495576	-88.799401	-102.091688
22450	9.737372	-0.107272	-0.211656	-0.000404	0.005565	-0.009428	-147.514375	-88.800810	-102.071452
22451	9.764129	-0.095541	-0.143842	-0.004439	0.005319	-0.004491	-147.426995	-88.800520	-102.159657
22452	9.751551	-0.111105	-0.171134	-0.002088	0.004549	-0.008374	-147.442092	-88.800963	-102.144117
22453	9.773898	-0.104381	-0.162876	-0.003772	0.003532	-0.007321	-147.445933	-88.800682	-102.140698
22454	9.761325	-0.119873	-0.190296	-0.002031	0.003754	-0.007028	-147.433640	-88.800491	-102.152272
22455	9.719520	-0.104592	-0.157954	-0.002089	0.004549	-0.008375	-147.445850	-88.801026	-102.139518
22456	9.750056	-0.086795	-0.181280	-0.004136	0.004823	-0.006580	-147.408704	-88.801222	-102.177090
22457	9.751630	-0.107326	-0.169055	-0.003889	0.005123	-0.010015	-147.451365	-88.802540	-102.134909
22458	9.751647	-0.106388	-0.168649	-0.001727	0.003259	-0.009116	-147.496812	-88.802721	-102.088544
22459	9.753222	-0.127052	-0.156504	-0.006183	0.005096	-0.004785	-147.420371	-88.802414	-102.166806
22460	9.753236	-0.126469	-0.156077	-0.002032	0.003754	-0.007028	-147.416913	-88.802161	-102.169999
22461	9.729363	-0.110398	-0.175331	-0.002032	0.003754	-0.007028	-147.409734	-88.801898	-102.176606
22462	9.753267	-0.125011	-0.155323	-0.003832	0.004328	-0.008669	-147.431925	-88.802421	-102.154920
22463	9.775607	-0.118308	-0.146991	-0.002396	0.005045	-0.006287	-147.388775	-88.802552	-102.197715
22464	9.763061	-0.133787	-0.174308	-0.002091	0.004550	-0.008375	-147.397019	-88.803115	-102.188846
22465	9.743556	-0.112429	-0.134034	-0.003891	0.005123	-0.010016	-147.439754	-88.804434	-102.146593
22466	9.743572	-0.111493	-0.133628	-0.001728	0.003259	-0.009117	-147.486747	-88.804537	-102.098693
22467	9.761548	-0.109905	-0.184809	-0.002339	0.004250	-0.004940	-147.424092	-88.803869	-102.160964
22468	9.761561	-0.109403	-0.184408	-0.004081	0.004027	-0.005234	-147.371236	-88.803168	-102.214332
22469	9.753377	-0.119911	-0.152404	-0.003775	0.003532	-0.007323	-147.375143	-88.802888	-102.210850
22470	9.753393	-0.119125	-0.152025	-0.003834	0.004328	-0.008670	-147.395886	-88.803404	-102.190517
22471	9.771378	-0.117545	-0.203151	-0.002340	0.004250	-0.004940	-147.333342	-88.802734	-102.252677
22472	9.751845	-0.096585	-0.162996	-0.001976	0.002959	-0.005682	-147.302280	-88.801766	-102.283015
22473	9.753434	-0.117166	-0.150871	-0.003893	0.005123	-0.010017	-147.344878	-88.803087	-102.240901
22474	9.753451	-0.116314	-0.150453	-0.003776	0.003532	-0.007323	-147.343490	-88.802795	-102.242489
22475	9.740929	-0.131845	-0.177833	-0.002400	0.005046	-0.006287	-147.300324	-88.802924	-102.285301
22476	9.753482	-0.114794	-0.149621	-0.005271	0.003610	-0.011053	-147.389147	-88.803873	-102.197851
22477	9.763278	-0.124184	-0.169207	-0.001977	0.002960	-0.005682	-147.362592	-88.802810	-102.223806
22478	9.740978	-0.129498	-0.176851	-0.003413	0.002242	-0.008065	-147.404126	-88.802131	-102.182716
22479	9.753522	-0.112492	-0.148726	-0.002095	0.004551	-0.008376	-147.416349	-88.802668	-102.169953
22480	9.761738	-0.100658	-0.179994	-0.001977	0.002960	-0.005682	-147.394419	-88.801499	-102.191380
22481	9.739440	-0.106012	-0.187577	-0.003778	0.003532	-0.007324	-147.398345	-88.801219	-102.187879
22482	9.763349	-0.120736	-0.167598	-0.005825	0.003803	-0.005530	-147.356341	-88.800546	-102.231547
22483	9.763363	-0.120030	-0.167246	0.000010	0.003485	-0.008824	-147.393374	-88.800707	-102.192762
22484	9.731281	-0.114969	-0.154865	-0.003838	0.004328	-0.008671	-147.414431	-88.801234	-102.172087
22485	9.753605	-0.108151	-0.146523	-0.000355	0.004775	-0.008082	-147.415560	-88.801789	-102.169424
22486	9.763413	-0.117576	-0.166073	-0.001673	0.002466	-0.007772	-147.440626	-88.801157	-102.143439
22487	9.739527	-0.101615	-0.185490	-0.003661	0.001940	-0.004630	-147.405830	-88.799277	-102.178602
22488	9.755234	-0.127524	-0.133818	-0.006311	0.006685	-0.007483	-147.367697	-88.800559	-102.218636
22489	9.753659	-0.105309	-0.144973	-0.003899	0.005124	-0.010019	-147.410357	-88.801880	-102.176463
22490	9.741170	-0.120703	-0.172453	-0.001614	0.001670	-0.006425	-147.421220	-88.800361	-102.164747
22491	9.765083	-0.135326	-0.152521	-0.002098	0.004552	-0.008377	-147.433440	-88.800898	-102.151988
22492	9.741202	-0.119144	-0.171724	-0.003840	0.004328	-0.008672	-147.456648	-88.801401	-102.129269
22493	9.731414	-0.108118	-0.151393	-0.002099	0.004553	-0.008377	-147.468897	-88.801938	-102.116481
22494	9.763537	-0.111577	-0.162918	-0.002405	0.005046	-0.006289	-147.423586	-88.802081	-102.161362
22495	9.761951	-0.089704	-0.174126	-0.002711	0.005540	-0.004200	-147.325161	-88.801805	-102.259624
22496	9.755357	-0.121582	-0.130316	-0.005582	0.004104	-0.008968	-147.359051	-88.802300	-102.227212
22497	9.751094	-0.125855	-0.189476	-0.001615	0.001671	-0.006425	-147.368522	-88.800845	-102.216925
22498	9.751114	-0.124917	-0.189070	-0.004021	0.006717	-0.012714	-147.450683	-88.803695	-102.135373
22499	9.739713	-0.092475	-0.180421	-0.001981	0.002961	-0.005684	-147.424105	-88.802634	-102.161353
22500	9.763627	-0.107208	-0.160408	-0.004148	0.004822	-0.006584	-147.392218	-88.802765	-102.193954
22501	9.765249	-0.127932	-0.148212	-0.002407	0.005047	-0.006289	-147.349087	-88.802896	-102.236736
22502	9.763656	-0.105921	-0.159502	-0.002041	0.003757	-0.007031	-147.338009	-88.802609	-102.247044
22503	9.751199	-0.121607	-0.186810	-0.003080	0.006830	-0.003458	-147.203542	-88.802721	-102.381567
22504	9.763685	-0.104633	-0.158596	-0.002804	0.001256	-0.012247	-147.351028	-88.802864	-102.233759
22505	9.763701	-0.103627	-0.158276	-0.005951	0.005394	-0.008227	-147.349536	-88.803761	-102.236924
22506	9.763716	-0.102891	-0.157822	-0.000301	0.003982	-0.006736	-147.331267	-88.803466	-102.253649
22507	9.773559	-0.112323	-0.177306	-0.002103	0.004554	-0.008379	-147.343492	-88.804005	-102.240887
22508	9.752901	-0.138978	-0.173064	-0.004151	0.004822	-0.006585	-147.311404	-88.804120	-102.273727
22509	9.765373	-0.122172	-0.144861	-0.001982	0.002961	-0.005684	-147.284951	-88.803057	-102.299583
22510	9.749698	-0.095016	-0.195802	-0.003784	0.003532	-0.007327	-147.289265	-88.802701	-102.295625
22511	9.752950	-0.137000	-0.171924	-0.002470	0.005844	-0.007637	-147.265431	-88.803633	-102.319141
22512	9.773634	-0.108917	-0.175301	-0.005466	0.002511	-0.006276	-147.259176	-88.802523	-102.326682
22513	9.772031	-0.086823	-0.186518	-0.004640	0.007705	-0.008538	-147.229714	-88.804630	-102.357070
22514	9.743166	-0.124556	-0.150601	-0.001737	0.003265	-0.009121	-147.271783	-88.804873	-102.314114
22515	9.751401	-0.112565	-0.181869	-0.002044	0.003758	-0.007032	-147.264662	-88.804612	-102.320669
22516	9.753039	-0.133221	-0.169808	-0.003786	0.003533	-0.007328	-147.266364	-88.804328	-102.319358
22517	9.753055	-0.132516	-0.169457	-0.002044	0.003758	-0.007032	-147.259249	-88.804067	-102.325908
22518	9.743226	-0.121588	-0.149168	-0.003847	0.004329	-0.008675	-147.277533	-88.804551	-102.307786
22519	9.751462	-0.109730	-0.180347	-0.000610	0.004476	-0.004647	-147.203868	-88.803896	-102.380078
22520	9.751477	-0.109060	-0.179932	-0.005589	0.004104	-0.008972	-147.241335	-88.804321	-102.344155
22521	9.763920	-0.091927	-0.151839	0.002479	0.001138	-0.010014	-147.339325	-88.803720	-102.242985
22522	9.743287	-0.118364	-0.147769	-0.003909	0.005126	-0.010023	-147.379024	-88.805078	-102.203710
22523	9.751527	-0.106388	-0.178818	-0.002781	0.006337	-0.005548	-147.299750	-88.805602	-102.282855
22524	9.751544	-0.105705	-0.178290	-0.002107	0.004555	-0.008380	-147.313555	-88.806104	-102.268607
22525	9.739141	-0.121155	-0.205730	-0.002046	0.003758	-0.007033	-147.306433	-88.805843	-102.275164
22526	9.765624	-0.109401	-0.137985	-0.003788	0.003532	-0.007329	-147.313873	-88.805540	-102.268375
22527	9.719451	-0.099483	-0.165335	-0.001618	0.001672	-0.006428	-147.323460	-88.804086	-102.257974
22528	9.777147	-0.139476	-0.145650	-0.005591	0.004103	-0.008973	-147.355812	-88.804623	-102.227063
22529	9.743390	-0.113175	-0.145026	0.001743	0.003719	-0.008529	-147.381712	-88.804805	-102.198420
22530	9.751629	-0.101179	-0.176273	-0.003789	0.003532	-0.007330	-147.385986	-88.804623	-102.194838
22531	9.763151	-0.131896	-0.184089	-0.003851	0.004329	-0.008677	-147.409483	-88.805145	-102.171803
22532	9.743433	-0.110830	-0.143917	-0.003790	0.003532	-0.007330	-147.412287	-88.804775	-102.169267
22533	9.765717	-0.103939	-0.135646	-0.003483	0.003040	-0.009420	-147.471829	-88.804904	-102.109970
22534	9.741816	-0.087839	-0.154972	-0.002049	0.003759	-0.007033	-147.462001	-88.804651	-102.119165
22535	9.743474	-0.108515	-0.142908	-0.002049	0.003759	-0.007033	-147.454865	-88.804390	-102.125738
22536	9.753360	-0.117909	-0.162515	-0.003422	0.002243	-0.008073	-147.492427	-88.803785	-102.088422
22537	9.775642	-0.110958	-0.154316	-0.005226	0.002814	-0.009717	-147.563148	-88.803894	-102.018942
22538	9.751741	-0.094816	-0.173553	-0.002480	0.005845	-0.007639	-147.537951	-88.804875	-102.043916
22539	9.743529	-0.105262	-0.141619	-0.001313	0.001181	-0.008518	-147.602722	-88.803825	-101.978144
22540	9.743539	-0.104552	-0.141431	-0.003730	0.002735	-0.005983	-147.587236	-88.802766	-101.994079
22541	9.731170	-0.120076	-0.168886	-0.004222	0.005618	-0.007936	-147.574878	-88.803682	-102.007121
22542	9.774057	-0.085845	-0.164141	-0.002419	0.005048	-0.006292	-147.526646	-88.803843	-102.054854
22543	9.745238	-0.123788	-0.128376	-0.005596	0.004103	-0.008976	-147.561443	-88.804346	-102.021519
22544	9.753482	-0.111809	-0.159513	-0.000678	0.005275	-0.005994	-147.503751	-88.804564	-102.077886
22545	9.761729	-0.099777	-0.190597	-0.003917	0.005127	-0.010026	-147.546844	-88.805887	-102.035289
22546	9.761746	-0.098837	-0.190190	-0.001744	0.003268	-0.009124	-147.595064	-88.805955	-101.986227
22547	9.731273	-0.115422	-0.166167	-0.002421	0.005048	-0.006292	-147.551892	-88.806091	-102.029057
22548	9.729626	-0.093284	-0.177469	-0.003486	0.003041	-0.009422	-147.607270	-88.806332	-101.973977
22549	9.729640	-0.092378	-0.177164	-0.001745	0.003268	-0.009124	-147.655693	-88.806477	-101.924805
22550	9.753576	-0.106880	-0.157111	-0.004163	0.004821	-0.006590	-147.624963	-88.806606	-101.956334
22551	9.765155	-0.137522	-0.165011	-0.004860	0.001525	-0.010462	-147.731903	-88.806315	-101.850417
22552	9.755273	-0.126517	-0.144799	0.001368	0.005013	-0.007787	-147.725987	-88.806875	-101.854047
22553	9.775873	-0.098308	-0.148099	-0.003795	0.003532	-0.007332	-147.730064	-88.806597	-101.850406
22554	9.755303	-0.125057	-0.144044	-0.003795	0.003532	-0.007333	-147.733626	-88.806292	-101.847215
22555	9.741297	-0.119178	-0.183264	-0.003795	0.003532	-0.007333	-147.737703	-88.806014	-101.843574
22556	9.755333	-0.123550	-0.143326	-0.003858	0.004330	-0.008680	-147.758726	-88.806570	-101.822982
22557	9.755350	-0.122713	-0.142896	-0.002117	0.004558	-0.008383	-147.771218	-88.807110	-101.809962
22558	9.731441	-0.106717	-0.162109	-0.004166	0.004821	-0.006590	-147.738409	-88.807187	-101.843357
22559	9.731453	-0.106063	-0.161808	-0.003364	0.001446	-0.006728	-147.758791	-88.805713	-101.823160
22560	9.773536	-0.119497	-0.193314	-0.004167	0.004821	-0.006591	-147.727947	-88.805854	-101.854831
22561	9.763640	-0.108657	-0.173004	0.001736	0.003726	-0.008529	-147.753828	-88.806036	-101.826210
22562	9.741408	-0.113995	-0.180634	-0.003797	0.003532	-0.007333	-147.755093	-88.805847	-101.825458
22563	9.755434	-0.118433	-0.140732	-0.003797	0.003532	-0.007334	-147.759185	-88.805570	-101.821802
22564	9.733203	-0.123865	-0.148315	-0.004168	0.004820	-0.006591	-147.726864	-88.805717	-101.854892
22565	9.763699	-0.105821	-0.171440	-0.004168	0.004821	-0.006591	-147.695014	-88.805837	-101.887398
22566	9.773635	-0.115259	-0.190906	-0.000314	0.003989	-0.006737	-147.675619	-88.805651	-101.905376
22567	9.755490	-0.115825	-0.138985	-0.000685	0.005277	-0.005995	-147.621207	-88.805808	-101.958454
22568	9.741501	-0.110047	-0.178061	-0.004169	0.004820	-0.006592	-147.586217	-88.805990	-101.994117
22569	9.773683	-0.113328	-0.189560	-0.003798	0.003532	-0.007334	-147.590366	-88.805713	-101.990406
22570	9.765461	-0.123843	-0.157556	-0.005974	0.005390	-0.008238	-147.592377	-88.806546	-101.990173
22571	9.741550	-0.107726	-0.176823	-0.003491	0.003042	-0.009425	-147.652119	-88.806673	-101.930680
22572	9.763805	-0.100742	-0.168449	-0.000379	0.004788	-0.008085	-147.652828	-88.807267	-101.928511
22573	9.721035	-0.133637	-0.172310	-0.005912	0.004592	-0.006891	-147.632266	-88.807366	-101.950727
22574	9.753901	-0.089121	-0.147733	-0.003492	0.003043	-0.009425	-147.690850	-88.807378	-101.892148
22575	9.743307	-0.125919	-0.163569	-0.004171	0.004820	-0.006592	-147.658982	-88.807497	-101.924675
22576	9.743324	-0.125184	-0.163116	-0.002122	0.004560	-0.008384	-147.672123	-88.807977	-101.910987
22577	9.763879	-0.096904	-0.166399	-0.003800	0.003532	-0.007335	-147.676281	-88.807701	-101.907267
22578	9.753291	-0.133795	-0.182507	-0.006415	-0.001098	-0.006723	-147.733753	-88.805015	-101.851703
22579	9.741665	-0.101638	-0.174060	-0.002494	0.005848	-0.007641	-147.710275	-88.805953	-101.874876
22580	9.763914	-0.094781	-0.165590	-0.002059	0.003762	-0.007037	-147.698292	-88.805806	-101.886288
22581	9.763926	-0.094090	-0.165225	-0.002059	0.003762	-0.007037	-147.691134	-88.805550	-101.892888
22582	9.765642	-0.114796	-0.153138	-0.004173	0.004820	-0.006593	-147.656193	-88.805657	-101.928383
22583	9.753374	-0.130234	-0.180646	-0.001752	0.003273	-0.009127	-147.704607	-88.805803	-101.879223
22584	9.765672	-0.113251	-0.152354	-0.004174	0.004820	-0.006593	-147.673201	-88.805903	-101.911333
22585	9.751705	-0.107268	-0.191444	-0.003930	0.005129	-0.010031	-147.716622	-88.807225	-101.868415
22586	9.745184	-0.139104	-0.147796	-0.003803	0.003533	-0.007336	-147.719286	-88.806973	-101.866207
22587	9.773964	-0.099539	-0.182712	0.000053	0.002704	-0.007481	-147.736767	-88.806340	-101.846954
22588	9.743507	-0.116263	-0.158748	-0.002497	0.005848	-0.007642	-147.711509	-88.807330	-101.871957
22589	9.765746	-0.109407	-0.150382	-0.003367	0.001447	-0.006732	-147.732010	-88.805858	-101.851643
22590	9.743532	-0.114831	-0.158220	-0.003432	0.002245	-0.008080	-147.768889	-88.805278	-101.815062
22591	9.764060	-0.086548	-0.161429	-0.004612	0.006906	-0.007198	-147.720813	-88.806594	-101.864053
22592	9.753528	-0.123254	-0.177152	-0.003560	0.003842	-0.010775	-147.800958	-88.807498	-101.784254
22593	9.751831	-0.100986	-0.188461	-0.003804	0.003533	-0.007337	-147.805124	-88.807222	-101.780529
22594	9.743597	-0.111622	-0.156540	-0.000321	0.003993	-0.006738	-147.785144	-88.806942	-101.798807
22595	9.753577	-0.121004	-0.176018	-0.005919	0.004590	-0.006894	-147.764699	-88.807043	-101.820910
22596	9.753593	-0.120302	-0.175627	-0.003805	0.003533	-0.007337	-147.766595	-88.806831	-101.819502
22597	9.765859	-0.103282	-0.147385	-0.001755	0.003274	-0.009128	-147.815077	-88.806976	-101.770277
22598	9.751904	-0.097358	-0.186557	-0.002436	0.005050	-0.006295	-147.770980	-88.807118	-101.814045
22599	9.755362	-0.139412	-0.162882	-0.003433	0.002245	-0.008081	-147.811119	-88.806445	-101.774126
22600	9.733161	-0.144857	-0.170568	-0.004179	0.004820	-0.006595	-147.776344	-88.806598	-101.809510
22601	9.755938	-0.090354	-0.125877	-0.002501	0.005849	-0.007643	-147.752884	-88.807538	-101.832669
22602	9.755416	-0.137083	-0.161596	0.000294	0.003017	-0.010920	-147.839875	-88.808155	-101.743610
22603	9.753706	-0.114894	-0.172927	-0.005857	0.003790	-0.005547	-147.799729	-88.807458	-101.785383
22604	9.753719	-0.114221	-0.172638	-0.003434	0.002246	-0.008081	-147.838858	-88.806793	-101.746498
22605	9.743752	-0.103478	-0.152394	-0.002438	0.005051	-0.006295	-147.795736	-88.806935	-101.789288
22606	9.753751	-0.112831	-0.171756	-0.002503	0.005849	-0.007643	-147.772311	-88.807927	-101.812587
22607	9.745515	-0.123376	-0.139716	-0.003872	0.004332	-0.008686	-147.796232	-88.808450	-101.789142
22608	9.775996	-0.105012	-0.162798	-0.002130	0.004562	-0.008386	-147.807490	-88.809024	-101.777404
22609	9.731589	-0.116732	-0.178555	-0.003678	0.001935	-0.004644	-147.772281	-88.807151	-101.812990
22610	9.776022	-0.103679	-0.162118	-0.000454	0.005593	-0.009434	-147.791223	-88.808635	-101.792750
22611	9.752095	-0.087677	-0.181316	-0.005924	0.004589	-0.006896	-147.770825	-88.808736	-101.814809
22612	9.733375	-0.135977	-0.165581	-0.002440	0.005051	-0.006296	-147.723476	-88.808928	-101.861755
22613	9.776068	-0.101605	-0.160666	-0.002440	0.005051	-0.006296	-147.680272	-88.809069	-101.904628
22614	9.765610	-0.138530	-0.176528	-0.003809	0.003533	-0.007340	-147.680537	-88.808831	-101.904726
22615	9.753887	-0.106546	-0.168016	-0.001937	0.002166	-0.004344	-147.634163	-88.806976	-101.950482
22616	9.779584	-0.142499	-0.136343	-0.002132	0.004563	-0.008387	-147.646334	-88.807514	-101.937821
22617	9.753917	-0.105018	-0.167220	-0.003940	0.005131	-0.010035	-147.689857	-88.808839	-101.894807
22618	9.755674	-0.125594	-0.155241	-0.001629	0.001678	-0.006435	-147.695256	-88.807429	-101.888540
22619	9.776145	-0.097339	-0.158594	-0.003810	0.003533	-0.007340	-147.699514	-88.807155	-101.884725
22620	9.755703	-0.124146	-0.154599	-0.002133	0.004563	-0.008387	-147.709953	-88.807734	-101.873787
22621	9.765726	-0.133391	-0.174096	-0.003811	0.003533	-0.007340	-147.714215	-88.807459	-101.869970
22622	9.731786	-0.107482	-0.173552	-0.002069	0.003764	-0.007040	-147.707846	-88.807126	-101.875717
22623	9.755749	-0.121861	-0.153526	-0.003502	0.003045	-0.009432	-147.767749	-88.807254	-101.816070
22624	9.755764	-0.121159	-0.153136	-0.006236	0.005075	-0.004807	-147.686221	-88.806958	-101.899225
22625	9.764041	-0.108980	-0.184304	-0.003194	0.002558	-0.011523	-147.801771	-88.807490	-101.783742
22626	9.765810	-0.129353	-0.172377	-0.001761	0.003277	-0.009131	-147.846636	-88.807708	-101.738148
22627	9.764072	-0.107243	-0.183681	-0.005863	0.003788	-0.005551	-147.806616	-88.807011	-101.779799
22628	9.744051	-0.086625	-0.143526	-0.000328	0.003997	-0.006739	-147.304787	-88.802586	-102.293115
22629	9.764101	-0.105881	-0.182900	-0.003878	0.004332	-0.008689	-147.328113	-88.803112	-102.270273
22630	9.755853	-0.116576	-0.150965	-0.004122	0.004020	-0.005250	-147.275293	-88.802436	-102.323540
22631	9.764129	-0.104689	-0.182096	-0.002380	0.004252	-0.004949	-147.212718	-88.801764	-102.385759
22632	9.733688	-0.121443	-0.158358	-0.002821	0.001272	-0.012268	-147.364669	-88.801889	-102.233999
22633	9.745872	-0.104255	-0.130066	-0.002512	0.005851	-0.007645	-147.340664	-88.802824	-102.257716
22634	9.765940	-0.123589	-0.169263	-0.004563	0.006106	-0.005855	-147.271589	-88.803296	-102.327508
22635	9.755930	-0.112789	-0.148882	-0.001829	0.004078	-0.010480	-147.338871	-88.804254	-102.259525
22636	9.742023	-0.106794	-0.188031	-0.002447	0.005052	-0.006297	-147.295969	-88.804339	-102.302272
22637	9.733773	-0.117570	-0.156015	-0.002447	0.005052	-0.006297	-147.252569	-88.804471	-102.345351
22638	9.766009	-0.120591	-0.167395	-0.005623	0.004100	-0.008992	-147.285482	-88.804960	-102.313662
22639	9.774294	-0.108440	-0.198478	-0.002448	0.005052	-0.006297	-147.242058	-88.805092	-102.356764
22640	9.743858	-0.125341	-0.174555	-0.002139	0.004565	-0.008389	-147.253595	-88.805699	-102.344711
22641	9.774325	-0.106989	-0.197707	-0.001632	0.001680	-0.006437	-147.263020	-88.804249	-102.334485
22642	9.743888	-0.123893	-0.173914	-0.005999	0.005386	-0.008249	-147.262760	-88.805149	-102.336516
22643	9.764317	-0.095453	-0.177035	0.001720	0.003745	-0.008529	-147.287929	-88.805343	-102.308622
22644	9.742151	-0.100894	-0.184640	-0.002516	0.005852	-0.007646	-147.260660	-88.806324	-102.335598
22645	9.753985	-0.131460	-0.192562	-0.003065	0.000960	-0.008830	-147.336909	-88.805268	-102.259354
22646	9.766136	-0.114382	-0.164347	-0.003883	0.004333	-0.008691	-147.362453	-88.805730	-102.234624
22647	9.735703	-0.131136	-0.140547	-0.003508	0.003047	-0.009435	-147.421975	-88.805865	-102.175365
22648	9.766168	-0.112734	-0.163586	-0.000708	0.005285	-0.005996	-147.364090	-88.806000	-102.231824
22649	9.766183	-0.111993	-0.163170	-0.001766	0.003280	-0.009133	-147.412182	-88.806155	-102.182999
22650	9.767982	-0.132475	-0.151104	-0.000466	0.005599	-0.009436	-147.429525	-88.807577	-102.164091
22651	9.733988	-0.106600	-0.150364	-0.004570	0.006105	-0.005857	-147.361398	-88.808084	-102.233117
22652	9.774506	-0.098368	-0.193196	-0.004127	0.004019	-0.005253	-147.310025	-88.807436	-102.285184
22653	9.745857	-0.136769	-0.157666	-0.004261	0.005619	-0.007949	-147.297375	-88.808352	-102.298544
22654	9.766264	-0.108396	-0.160758	-0.002076	0.003766	-0.007042	-147.289194	-88.808059	-102.306114
22655	9.744106	-0.113870	-0.168452	-0.003885	0.004333	-0.008693	-147.312699	-88.808586	-102.283096
22656	9.766295	-0.106784	-0.159934	-0.002143	0.004566	-0.008390	-147.323890	-88.809176	-102.271335
22657	9.754204	-0.122419	-0.187354	-0.003139	0.006824	-0.003463	-147.188584	-88.809283	-102.406734
22658	9.744155	-0.111990	-0.166844	-0.004572	0.006105	-0.005858	-147.119030	-88.809756	-102.477244
22659	9.744172	-0.111238	-0.166403	-0.003510	0.003047	-0.009437	-147.178758	-88.809897	-102.417781
22660	9.744186	-0.110431	-0.166074	-0.002077	0.003767	-0.007043	-147.169027	-88.809707	-102.426918
22661	9.754271	-0.119704	-0.185593	-0.002077	0.003767	-0.007043	-147.161697	-88.809450	-102.433706
22662	9.788548	-0.096522	-0.149168	-0.003820	0.003533	-0.007346	-147.161550	-88.809249	-102.434124
22663	9.768189	-0.123501	-0.145221	-0.002455	0.005053	-0.006299	-147.117990	-88.809380	-102.477366
22664	9.742447	-0.086318	-0.176227	-0.008980	0.002030	-0.006906	-147.136306	-88.808238	-102.462442
22665	9.756126	-0.138391	-0.172575	-0.000336	0.004001	-0.006740	-147.117486	-88.808000	-102.479725
22666	9.732183	-0.122671	-0.191782	-0.001090	0.006573	-0.005253	-147.028106	-88.808492	-102.568222
22667	9.754366	-0.115640	-0.183165	-0.001836	0.004082	-0.010483	-147.095507	-88.809459	-102.500125
22668	9.746101	-0.126223	-0.151279	-0.002079	0.003767	-0.007043	-147.087359	-88.809174	-102.507844
22669	9.746116	-0.125537	-0.150877	-0.005941	0.004584	-0.006906	-147.066848	-88.809268	-102.530030
22670	9.754415	-0.113442	-0.181917	-0.002456	0.005053	-0.006300	-147.018537	-88.809461	-102.577761
22671	9.712098	-0.099141	-0.149841	-0.003822	0.003533	-0.007347	-147.022773	-88.809186	-102.573980
22672	9.756250	-0.133426	-0.169465	0.001338	0.005037	-0.007785	-147.009353	-88.809787	-102.584908
22673	9.744378	-0.101284	-0.160583	-0.004712	0.007705	-0.008555	-146.979368	-88.811895	-102.615865
22674	9.754485	-0.110376	-0.180047	-0.003067	0.000962	-0.008835	-147.054538	-88.810875	-102.540719
22675	9.744406	-0.099672	-0.159887	-0.004200	0.004818	-0.006603	-147.022472	-88.810987	-102.573465
22676	9.736134	-0.110391	-0.127933	-0.002148	0.004568	-0.008392	-147.034300	-88.811550	-102.561284
22677	9.756340	-0.129503	-0.167306	-0.003823	0.003533	-0.007347	-147.038560	-88.811276	-102.557480
22678	9.754545	-0.107383	-0.178582	-0.003823	0.003533	-0.007348	-147.039577	-88.811024	-102.556911
22679	9.746274	-0.117951	-0.146729	-0.003581	0.003849	-0.010788	-147.118702	-88.811973	-102.478087
22680	9.740716	-0.100529	-0.217295	-0.004958	0.007389	-0.005116	-147.014763	-88.812796	-102.583242
22681	9.756411	-0.126437	-0.165526	0.001713	0.003754	-0.008529	-147.039941	-88.812996	-102.555343
22682	9.766660	-0.087998	-0.148699	-0.006013	0.005384	-0.008256	-147.037331	-88.813841	-102.559549
22683	9.756445	-0.124810	-0.164717	-0.003446	0.002248	-0.008092	-147.077999	-88.813181	-102.519112
22684	9.778610	-0.117681	-0.156293	-0.005635	0.004099	-0.009000	-147.110978	-88.813707	-102.487599
22685	9.734330	-0.129469	-0.172155	-0.002083	0.003768	-0.007045	-147.103655	-88.813452	-102.494382
22686	9.754672	-0.101073	-0.175292	-0.003825	0.003533	-0.007349	-147.106030	-88.813198	-102.492425
22687	9.778655	-0.115391	-0.155179	-0.003894	0.004334	-0.008697	-147.129634	-88.813729	-102.469313
22688	9.756524	-0.120858	-0.162986	-0.003447	0.002248	-0.008093	-147.171940	-88.812997	-102.427199
22689	9.754712	-0.098778	-0.174381	0.001848	0.002154	-0.005833	-147.158411	-88.811588	-102.437938
22690	9.756551	-0.119487	-0.162407	-0.006016	0.005383	-0.008257	-147.154832	-88.812526	-102.443178
22691	9.732597	-0.103580	-0.181775	-0.003448	0.002248	-0.008093	-147.195409	-88.811864	-102.402834
22692	9.756581	-0.117959	-0.161700	-0.004206	0.004818	-0.006605	-147.161959	-88.811975	-102.436915
22693	9.732628	-0.102141	-0.180931	-0.004274	0.005619	-0.007953	-147.149251	-88.812893	-102.450342
22694	9.764907	-0.104984	-0.192291	-0.001706	0.002484	-0.007789	-147.177840	-88.812280	-102.421061
22695	9.764923	-0.104226	-0.191886	-0.002533	0.005855	-0.007649	-147.153538	-88.813217	-102.445085
22696	9.756643	-0.115143	-0.159961	-0.004070	0.003216	-0.003909	-147.085253	-88.811749	-102.514186
22697	9.754826	-0.093087	-0.171138	-0.000480	0.005607	-0.009437	-147.104936	-88.813123	-102.493040
22698	9.744666	-0.129918	-0.187079	-0.000343	0.004005	-0.006741	-147.083918	-88.812939	-102.512532
22699	9.734553	-0.119231	-0.166846	-0.001775	0.003285	-0.009138	-147.132286	-88.813103	-102.463437
22700	9.756705	-0.112130	-0.158368	-0.002086	0.003769	-0.007046	-147.123921	-88.812821	-102.471274
22701	9.744716	-0.127643	-0.186032	-0.003829	0.003533	-0.007350	-147.128235	-88.812547	-102.467419
22702	9.780705	-0.125820	-0.137908	-0.000344	0.004006	-0.006741	-147.108612	-88.812321	-102.485558
22703	9.732774	-0.094889	-0.176988	-0.003898	0.004334	-0.008699	-147.132251	-88.812853	-102.462413
22704	9.780737	-0.124254	-0.137046	0.001329	0.005043	-0.007785	-147.118811	-88.813448	-102.473329
22705	9.766916	-0.118464	-0.176328	-0.003692	0.001930	-0.004654	-147.084541	-88.811564	-102.507988
22706	9.756789	-0.107923	-0.156099	-0.006021	0.005382	-0.008260	-147.082482	-88.812421	-102.511711
22707	9.765101	-0.095698	-0.187237	-0.001639	0.001684	-0.006442	-147.092242	-88.810975	-102.501154
22708	9.736530	-0.134182	-0.152012	-0.003899	0.004334	-0.008699	-147.113387	-88.811539	-102.480490
22709	9.766976	-0.115618	-0.174891	-0.002468	0.005054	-0.006302	-147.069792	-88.811671	-102.523775
22710	9.734717	-0.111324	-0.162693	-0.002157	0.004571	-0.008395	-147.082447	-88.812204	-102.510660
22711	9.756861	-0.104331	-0.154004	-0.001106	0.006576	-0.005253	-146.990825	-88.812740	-102.601201
22712	9.767024	-0.113656	-0.173442	-0.005504	0.002495	-0.006309	-146.988110	-88.811652	-102.605406
22713	9.746764	-0.140582	-0.169628	-0.003970	0.005136	-0.010048	-147.030956	-88.812990	-102.563092
22714	9.734776	-0.108596	-0.160983	-0.000208	0.002404	-0.004045	-146.973382	-88.811177	-102.619169
22715	9.748612	-0.113141	-0.120917	-0.002608	0.006657	-0.008999	-146.968176	-88.812920	-102.624137
22716	9.767090	-0.110684	-0.171672	-0.004282	0.005619	-0.007956	-146.955171	-88.813859	-102.637912
22717	9.767107	-0.109966	-0.171167	-0.004213	0.004817	-0.006608	-146.923150	-88.813970	-102.670620
22718	9.734841	-0.105697	-0.158943	-0.004282	0.005619	-0.007957	-146.909139	-88.814910	-102.685391
22719	9.767139	-0.108440	-0.170295	-0.005195	0.002012	-0.008402	-146.961686	-88.814235	-102.634075
22720	9.755198	-0.123992	-0.197878	-0.004975	0.007386	-0.005120	-146.855431	-88.815107	-102.741456
22721	9.734886	-0.103613	-0.157597	-0.003833	0.003533	-0.007353	-146.859873	-88.814835	-102.737476
22722	9.767185	-0.106344	-0.168983	-0.001780	0.003288	-0.009140	-146.909251	-88.814975	-102.687405
22723	9.745084	-0.111879	-0.176689	-0.000799	0.006094	-0.007346	-146.873023	-88.815930	-102.722364
22724	9.745099	-0.111189	-0.176324	-0.003383	0.001447	-0.006749	-146.893538	-88.814464	-102.702006
22725	9.767229	-0.104137	-0.167806	-0.002542	0.005857	-0.007652	-146.869005	-88.815400	-102.726268
22726	9.746995	-0.131086	-0.163889	-0.003904	0.004335	-0.008702	-146.892262	-88.815931	-102.703517
22727	9.755322	-0.118780	-0.194962	-0.002092	0.003771	-0.007048	-146.885021	-88.815677	-102.710224
22728	9.758966	-0.113218	-0.135086	-0.003593	0.003853	-0.010795	-146.964337	-88.816631	-102.631231
22729	9.755358	-0.117012	-0.194238	-0.003835	0.003533	-0.007354	-146.968787	-88.816359	-102.627244
22730	9.757126	-0.090355	-0.145840	-0.006652	0.006346	-0.004078	-146.854621	-88.816406	-102.743489
22731	9.769190	-0.120999	-0.153614	-0.003905	0.004335	-0.008703	-146.878299	-88.816941	-102.720310
22732	9.735171	-0.142734	-0.189405	-0.002163	0.004573	-0.008397	-146.885633	-88.817533	-102.712344
22733	9.759037	-0.109623	-0.132891	-0.004147	0.004015	-0.005262	-146.834351	-88.816837	-102.764279
22734	9.769235	-0.118881	-0.152390	-0.002093	0.003772	-0.007048	-146.824318	-88.816577	-102.773694
22735	9.745270	-0.103056	-0.171758	-0.003906	0.004335	-0.008703	-146.847994	-88.817113	-102.750518
22736	9.769267	-0.117353	-0.151555	-0.004218	0.004817	-0.006610	-146.814781	-88.817195	-102.784364
22737	9.745300	-0.101616	-0.170913	-0.003837	0.003534	-0.007355	-146.819282	-88.816923	-102.780326
22738	9.755505	-0.110782	-0.190422	-0.000352	0.004010	-0.006742	-146.799388	-88.816653	-102.798612
22739	9.745329	-0.100221	-0.170068	-0.002547	0.005858	-0.007653	-146.774741	-88.817589	-102.822989
22740	9.735317	-0.137050	-0.186051	-0.003908	0.004336	-0.008704	-146.797381	-88.818134	-102.800837
22741	9.747241	-0.120077	-0.157553	-0.004220	0.004817	-0.006611	-146.765295	-88.818245	-102.833615
22742	9.777678	-0.101448	-0.180304	-0.002548	0.005858	-0.007653	-146.736027	-88.819226	-102.862514
22743	9.745393	-0.097163	-0.168122	-0.003908	0.004336	-0.008704	-146.759737	-88.819763	-102.839305
22744	9.747292	-0.117821	-0.156103	-0.004220	0.004817	-0.006611	-146.726199	-88.819891	-102.873504
22745	9.759399	-0.148261	-0.163919	-0.003980	0.005138	-0.010053	-146.769115	-88.821236	-102.831125
22746	9.737118	-0.106402	-0.135434	-0.007183	0.001452	-0.005273	-146.758237	-88.819232	-102.844293
22747	9.747334	-0.115620	-0.155108	0.000029	0.002728	-0.007487	-146.775880	-88.818616	-102.824895
22748	9.781543	-0.139722	-0.154860	-0.002167	0.004575	-0.008398	-146.787902	-88.819175	-102.812431
22749	9.745476	-0.092711	-0.165861	-0.002479	0.005056	-0.006305	-146.744028	-88.819304	-102.856001
22750	9.747381	-0.113285	-0.153856	-0.003599	0.003855	-0.010798	-146.824538	-88.820237	-102.775828
22751	9.745506	-0.091034	-0.164998	-0.002480	0.005056	-0.006305	-146.780633	-88.820367	-102.819429
22752	9.755733	-0.100283	-0.184482	-0.002026	0.002970	-0.005701	-146.755242	-88.819302	-102.844322
22753	9.755745	-0.099483	-0.184303	-0.001020	0.000725	-0.010632	-146.877097	-88.818712	-102.721292
22754	9.747440	-0.110153	-0.152425	-0.001263	0.008184	-0.007950	-146.821065	-88.820906	-102.776339
22755	9.767651	-0.081671	-0.155230	-0.007638	0.003536	-0.005879	-146.793345	-88.820173	-102.806709
22756	9.757691	-0.118564	-0.171403	-0.001786	0.003292	-0.009143	-146.841016	-88.820330	-102.758289
22757	9.757707	-0.117755	-0.171073	-0.003841	0.003534	-0.007357	-146.845584	-88.820059	-102.754187
22758	9.757723	-0.117000	-0.170632	-0.004296	0.005620	-0.007961	-146.832353	-88.820985	-102.768187
22759	9.757742	-0.116197	-0.170138	-0.002170	0.004576	-0.008399	-146.844368	-88.821540	-102.755680
22760	9.755854	-0.093972	-0.181376	-0.003459	0.002250	-0.008103	-146.888213	-88.820855	-102.712173
22761	9.749448	-0.126204	-0.137977	-0.002554	0.005859	-0.007654	-146.863572	-88.821793	-102.736549
22762	9.757789	-0.113842	-0.168987	-0.007328	0.003054	-0.007973	-146.891419	-88.821536	-102.711240
22763	9.757805	-0.113032	-0.168657	0.001698	0.003773	-0.008529	-146.916497	-88.821746	-102.683450
22764	9.757820	-0.112291	-0.168239	-0.004227	0.004817	-0.006614	-146.885564	-88.821845	-102.715145
22765	9.757835	-0.111619	-0.167824	-0.002100	0.003774	-0.007051	-146.878323	-88.821594	-102.721857
22766	9.747612	-0.101094	-0.147599	-0.003844	0.003534	-0.007359	-146.884885	-88.821347	-102.715937
22767	9.735783	-0.116490	-0.175366	-0.003532	0.003053	-0.009452	-146.945447	-88.821500	-102.655652
22768	9.759792	-0.130711	-0.155210	-0.004228	0.004817	-0.006614	-146.911692	-88.821641	-102.690092
22769	9.735813	-0.115060	-0.174674	-0.001646	0.001688	-0.006447	-146.921804	-88.820199	-102.679187
22770	9.757906	-0.107961	-0.166093	-0.002557	0.005860	-0.007655	-146.896536	-88.821058	-102.704086
22771	9.759839	-0.128627	-0.153962	-0.002558	0.005860	-0.007655	-146.871908	-88.821997	-102.728451
22772	9.757940	-0.106488	-0.165057	-0.002102	0.003774	-0.007051	-146.862167	-88.821817	-102.737718
22773	9.737797	-0.133546	-0.161323	-0.003917	0.004337	-0.008708	-146.886073	-88.822354	-102.714317
22774	9.733977	-0.089872	-0.184014	-0.002174	0.004577	-0.008400	-146.898936	-88.822861	-102.700972
22775	9.746167	-0.120227	-0.191791	-0.004374	0.006422	-0.009312	-146.905487	-88.824588	-102.695192
22776	9.758005	-0.103149	-0.163280	-0.003462	0.002251	-0.008105	-146.947173	-88.823913	-102.653775
22777	9.759941	-0.123807	-0.151443	-0.003846	0.003534	-0.007360	-146.951795	-88.823643	-102.649623
