// General information: 
//  MT Manager version: 2022.2.0 
//  XDA version: 2022.2.0 build 7381 rev 124627 built on 2023-07-19
// Device information: 
//  DeviceId: 00B4BB52
//  ProductCode: MTW2-3A7G6
//  Firmware Version: 4.6.0
//  Hardware Version: 2.0.0
// Device settings: 
//  Filter Profile: human(46.1)
//  Option Flags: Orientation Smoother Disabled, Position/Velocity Smoother Disabled, Continuous Zero Rotation Update Disabled, AHS Disabled, ICC Disabled
// Coordinate system: ENU
PacketCounter	Acc_X	Acc_Y	Acc_Z	Gyr_X	Gyr_Y	Gyr_Z	Roll	Pitch	Yaw
63401	9.323663	2.586734	1.121336	0.018651	-0.045773	0.099791	65.680657	-73.241684	-109.850924
63402	9.287046	2.643285	1.140342	0.013881	-0.048609	0.113424	65.686616	-73.311815	-109.843630
63403	9.362786	2.588087	1.127358	-0.011428	-0.056269	0.132491	65.677166	-73.393792	-109.835353
63404	9.370623	2.530959	1.102861	-0.002827	-0.047726	0.136174	65.653800	-73.475591	-109.807458
63405	9.338742	2.539908	1.102744	0.005533	-0.041027	0.142489	65.618895	-73.559181	-109.762508
63406	9.316258	2.527038	1.152205	-0.001248	-0.044780	0.150244	65.579278	-73.647615	-109.716754
63407	9.340346	2.439214	1.136525	-0.001994	-0.049794	0.150944	65.547990	-73.737677	-109.680108
63408	9.328477	2.454321	1.123266	0.013540	-0.049199	0.154564	65.520387	-73.829397	-109.638082
63409	9.304670	2.462921	1.181273	0.010825	-0.061467	0.160440	65.509002	-73.927175	-109.614543
63410	9.296625	2.433034	1.146592	0.008457	-0.070778	0.158822	65.513503	-74.026237	-109.608991
63411	9.271362	2.382699	1.213444	0.005616	-0.095075	0.163162	65.558130	-74.133409	-109.646828
63412	9.367487	2.218765	1.072554	-0.007388	-0.140439	0.138326	65.699663	-74.238247	-109.793140
63413	9.457679	2.419664	1.076163	0.076717	-0.100222	0.130298	65.824038	-74.329421	-109.871464
63414	9.317597	2.438979	1.092957	0.036001	-0.117805	0.134392	65.954919	-74.426721	-109.980764
63415	9.417256	2.321679	1.029613	0.009127	-0.133369	0.135993	66.100785	-74.528494	-110.121512
63416	9.401718	2.405045	1.038394	0.050098	-0.116352	0.145661	66.230670	-74.631220	-110.221293
63417	9.307094	2.379649	1.099712	0.046530	-0.127741	0.148366	66.380508	-74.738005	-110.343799
63418	9.392041	2.370450	1.024911	0.026036	-0.144912	0.166268	66.537843	-74.857955	-110.486209
63419	9.333697	2.320463	1.079676	0.034756	-0.158961	0.171118	66.726882	-74.983613	-110.656164
63420	9.326317	2.289107	1.035019	0.032702	-0.179384	0.186311	66.944539	-75.121642	-110.856884
63421	9.408093	2.240123	0.976319	0.026847	-0.199254	0.189573	67.200702	-75.265687	-111.100743
63422	9.437755	2.265192	0.923179	0.033740	-0.186534	0.197406	67.432405	-75.410722	-111.315103
63423	9.309095	2.281054	0.993947	0.038107	-0.194437	0.204375	67.682319	-75.561021	-111.545517
63424	9.325590	2.240549	1.023087	0.020713	-0.224502	0.213911	67.980982	-75.722529	-111.836407
63425	9.379536	2.179999	0.913240	0.027099	-0.254826	0.232499	68.339473	-75.900039	-112.184987
63426	9.400063	2.195376	0.926002	0.044654	-0.260297	0.240545	68.721168	-76.082362	-112.546868
63427	9.495076	2.199196	0.905788	0.056952	-0.276987	0.257002	69.143466	-76.276370	-112.942987
63428	10.140801	2.187801	0.292842	-0.007346	-0.282081	0.172487	69.620769	-76.425270	-113.433355
63429	9.534568	2.099006	0.642247	0.056956	-0.152568	0.151362	69.872438	-76.536456	-113.653474
63430	9.350016	2.200814	0.896628	0.054053	-0.173013	0.168071	70.158081	-76.660332	-113.910143
63431	9.494361	2.094541	0.724288	0.000991	-0.235917	0.181012	70.553397	-76.803017	-114.310566
63432	9.575575	1.911099	0.604213	-0.026679	-0.174594	0.149143	70.823171	-76.916250	-114.598164
63433	9.591487	2.046777	0.674760	0.035925	-0.155096	0.128316	71.105723	-77.014312	-114.861913
63434	9.530807	2.073627	0.630034	0.013506	-0.137835	0.127180	71.338458	-77.108237	-115.087650
63435	9.534146	2.061881	0.617944	-0.018547	-0.116907	0.118944	71.513674	-77.193759	-115.273120
63436	9.489660	2.010470	0.697307	-0.015225	-0.109032	0.121186	71.671409	-77.278886	-115.438677
63437	9.546854	1.958917	0.657552	0.000742	-0.121086	0.118749	71.872752	-77.364800	-115.639479
63438	9.674504	2.034560	0.512770	0.000556	-0.094464	0.109475	72.017870	-77.440734	-115.782734
63439	9.619030	2.006152	0.546115	-0.012389	-0.062807	0.099727	72.088182	-77.505776	-115.856896
63440	9.593098	1.963317	0.616894	-0.018457	-0.058958	0.090346	72.152627	-77.564938	-115.928614
63441	9.638218	1.958727	0.543667	-0.014329	-0.047878	0.076718	72.204517	-77.614779	-115.985020
63442	9.659219	1.869214	0.488180	-0.024016	-0.013903	0.048459	72.188080	-77.643177	-115.977168
63443	9.558602	1.888928	0.617462	-0.000883	0.015537	0.020001	72.135410	-77.650964	-115.918637
63444	9.524390	1.956273	0.643866	0.012943	0.008763	0.010472	72.114026	-77.654658	-115.884045
63445	9.597485	1.943508	0.611349	0.010489	0.005977	0.007389	72.101754	-77.657242	-115.860200
63446	9.543911	1.961065	0.631233	0.013799	0.010039	0.003999	72.082871	-77.657179	-115.827667
63447	9.582622	1.950659	0.594825	0.014454	0.009570	0.000075	72.069805	-77.655142	-115.800683
63448	9.610625	2.006794	0.529956	0.014551	0.031127	-0.003152	72.004640	-77.647449	-115.720329
63449	9.571790	1.950524	0.540757	0.005797	0.038816	-0.006247	71.919072	-77.636769	-115.624201
63450	9.601064	1.980330	0.600193	0.008848	0.055256	-0.004062	71.791723	-77.624220	-115.483525
63451	9.517214	2.014216	0.589371	0.000575	0.059740	-0.003813	71.649728	-77.611020	-115.332679
63452	9.503449	1.950613	0.679276	-0.006750	0.057798	0.003152	71.501765	-77.601786	-115.180034
63453	9.468864	1.952215	0.680314	-0.003823	0.049967	-0.001904	71.380360	-77.591248	-115.052838
63454	9.522238	1.912385	0.655606	-0.004458	0.038317	-0.010483	71.293549	-77.578047	-114.961452
63455	9.482977	1.901618	0.686156	0.009156	0.034502	-0.016426	71.230191	-77.562392	-114.886066
63456	9.482039	1.970909	0.717847	0.015897	0.019096	-0.028246	71.217475	-77.543062	-114.858605
63457	9.500785	1.979692	0.705185	0.020202	0.007319	-0.026927	71.236160	-77.526714	-114.860753
63458	9.446445	2.022596	0.733474	0.016743	-0.012621	-0.024004	71.298170	-77.515526	-114.909325
63459	9.504621	1.997764	0.671006	-0.004326	-0.031348	-0.012563	71.385543	-77.514061	-114.996220
63460	9.519517	1.969065	0.676121	0.005026	-0.029084	-0.016100	71.474521	-77.510140	-115.079292
63461	9.465763	1.988344	0.691881	0.009786	-0.039363	-0.010413	71.587827	-77.511237	-115.184467
63462	9.470385	2.002859	0.656508	-0.010246	-0.045651	-0.005981	71.700437	-77.515741	-115.300705
63463	9.500297	1.988105	0.687886	-0.002892	-0.044682	-0.008237	71.817860	-77.518885	-115.417534
63464	9.504850	2.024779	0.661782	0.001626	-0.050994	-0.003738	71.948779	-77.525457	-115.545552
63465	9.494979	2.001377	0.588234	-0.009259	-0.053054	0.005457	72.072417	-77.537433	-115.672477
63466	9.544477	2.013658	0.615056	-0.006124	-0.051722	0.009338	72.190644	-77.551144	-115.792035
63467	9.614567	1.763277	0.510544	0.113872	-0.033850	0.018800	72.327293	-77.566929	-115.860018
63468	9.452357	2.174953	0.721018	0.131656	0.008103	0.003687	72.381214	-77.567064	-115.832878
63469	9.496235	2.110165	0.620066	-0.034389	-0.055520	0.023617	72.483192	-77.589186	-115.952345
63470	9.587371	1.815749	0.615396	-0.013086	-0.037046	0.019032	72.554307	-77.605495	-116.027725
63471	9.523290	1.965686	0.631345	0.054845	-0.016712	0.012409	72.620162	-77.614767	-116.057848
63472	9.513008	2.008708	0.589102	0.025636	-0.026231	0.007422	72.695863	-77.622840	-116.115203
63473	9.523954	1.986506	0.634982	0.010761	-0.034590	0.013492	72.780377	-77.635728	-116.190279
63474	9.567499	1.966405	0.552974	0.039761	-0.034221	0.009509	72.882738	-77.646257	-116.266636
63475	9.587123	1.993915	0.545687	0.041925	-0.018060	0.013413	72.944133	-77.656272	-116.299765
63476	9.490911	1.985337	0.621657	0.034756	-0.012574	0.014136	72.986100	-77.665664	-116.317229
63477	9.529971	1.951330	0.572822	0.033215	-0.016080	0.014053	73.037182	-77.675686	-116.344902
63478	9.588131	1.990673	0.539786	0.043832	-0.001655	0.010378	73.059913	-77.681189	-116.337354
63479	9.515518	1.979511	0.562299	0.039825	0.000463	0.013974	73.073390	-77.688403	-116.322666
63480	9.588588	1.966653	0.528491	0.029952	-0.001326	0.003712	73.092444	-77.690199	-116.319494
63481	9.607878	1.994862	0.524678	0.033632	0.019328	0.002942	73.063430	-77.688223	-116.264939
63482	9.569132	2.005332	0.563736	0.028187	0.034760	0.002190	72.992042	-77.683148	-116.170230
63483	9.539022	2.043042	0.541167	0.003572	0.040453	-0.001507	72.896323	-77.675158	-116.065030
63484	9.549436	1.954758	0.565206	-0.000217	0.039602	-0.001465	72.799545	-77.667201	-115.960985
63485	9.563974	1.969997	0.596732	0.013108	0.049161	-0.006652	72.691797	-77.654839	-115.837870
63486	9.544192	1.964875	0.614928	0.005729	0.049189	-0.009121	72.580794	-77.640973	-115.715766
63487	9.563060	1.971757	0.605504	0.009112	0.042859	-0.009803	72.489412	-77.627877	-115.611739
63488	9.558068	1.959526	0.641272	0.017970	0.053033	-0.015759	72.381600	-77.609630	-115.485707
63489	9.546995	1.982336	0.596521	0.021787	0.049194	-0.016814	72.287786	-77.591529	-115.371735
63490	9.556621	1.985673	0.659762	0.019974	0.050623	-0.022820	72.193367	-77.569758	-115.258224
63491	9.487340	2.013403	0.665385	0.014209	0.047494	-0.016749	72.099993	-77.551911	-115.149137
63492	9.433147	2.032735	0.687857	0.003848	0.028113	-0.007123	72.039965	-77.542595	-115.080292
63493	9.506040	2.020831	0.656750	-0.012079	0.003592	0.000307	72.026510	-77.541755	-115.068463
63494	9.545008	1.987569	0.610747	-0.001795	0.004167	0.004474	72.013101	-77.542981	-115.050672
63495	9.559768	2.024194	0.648331	-0.005135	0.004817	0.008881	71.993733	-77.546594	-115.028706
63496	9.598967	1.967834	0.592866	-0.001796	0.007898	0.010203	71.966508	-77.550278	-114.996766
63497	9.564636	2.013563	0.608888	0.009108	0.013681	0.006699	71.935156	-77.551126	-114.954166
63498	9.545389	1.984684	0.614156	0.007748	0.016612	0.005066	71.896014	-77.550454	-114.904423
63499	9.564775	1.990099	0.602080	0.003502	0.017972	0.006473	71.851057	-77.550404	-114.851208
63500	9.560248	1.975923	0.635592	0.006141	0.027232	0.007966	71.782469	-77.549393	-114.772253
63501	9.511293	1.939824	0.597174	0.004745	0.035859	0.002579	71.697330	-77.543986	-114.677145
63502	9.564433	2.011166	0.619900	0.004313	0.033370	0.002950	71.616746	-77.539093	-114.586974
63503	9.569055	1.979430	0.572998	0.011841	0.049239	0.005820	71.500278	-77.532959	-114.455603
63504	9.486463	1.964625	0.673154	0.014475	0.055757	-0.003166	71.375782	-77.520587	-114.314491
63505	9.505634	1.948229	0.654649	0.004924	0.047049	0.001959	71.264252	-77.512644	-114.192235
63506	9.544157	1.960119	0.631872	0.009386	0.047432	-0.002011	71.156704	-77.502314	-114.071457
63507	9.480787	1.951620	0.717758	0.018109	0.045475	-0.002642	71.060742	-77.492072	-113.957405
63508	9.485060	1.965630	0.689796	0.024626	0.036742	-0.005132	70.990993	-77.481958	-113.866392
63509	9.499568	1.958582	0.709939	0.026488	0.021175	-0.002077	70.958889	-77.476504	-113.812831
63510	9.538231	1.970936	0.684130	0.031194	0.017595	-0.004840	70.939491	-77.470103	-113.769538
63511	9.523190	1.979389	0.667372	0.036095	0.020471	-0.009188	70.920668	-77.460923	-113.723932
63512	9.523065	1.957781	0.659164	0.031177	0.022324	-0.003876	70.889015	-77.454150	-113.668091
63513	9.561698	1.970132	0.634100	0.033143	0.033071	-0.003234	70.832943	-77.445816	-113.586082
63514	9.561222	1.993192	0.646635	0.034889	0.043062	-0.004778	70.753953	-77.434623	-113.479560
63515	9.521874	1.982239	0.677605	0.038643	0.054359	-0.007632	70.653416	-77.419834	-113.348716
63516	9.516492	1.992218	0.722876	0.040002	0.051442	-0.006003	70.558512	-77.406308	-113.222875
63517	9.486426	2.030475	0.699982	0.032917	0.037070	-0.004484	70.494255	-77.396434	-113.132543
63518	9.520344	2.029326	0.706871	0.031393	0.027850	-0.000766	70.447239	-77.390190	-113.060819
63519	9.501063	1.978594	0.703254	0.034079	0.026719	0.003492	70.401950	-77.386572	-112.989276
63520	9.578574	2.046631	0.670001	0.036546	0.023855	0.010317	70.358075	-77.387054	-112.917743
63521	9.583500	2.058693	0.640224	0.030048	0.025938	0.021280	70.297045	-77.393158	-112.832419
63522	9.554622	2.046418	0.728115	0.028698	0.026934	0.029108	70.224910	-77.403145	-112.736540
63523	9.555405	1.998737	0.710916	0.031840	0.023580	0.032013	70.161081	-77.415448	-112.647317
63524	9.541154	2.025361	0.703691	0.023368	0.014918	0.042356	70.103048	-77.434867	-112.569025
63525	9.522552	1.993139	0.708830	0.022241	0.018621	0.042867	70.035808	-77.453940	-112.481951
63526	9.484269	1.999542	0.746065	0.034776	0.009914	0.055474	69.984419	-77.481366	-112.403782
63527	9.446139	2.027680	0.791383	0.032591	-0.008254	0.061201	69.971637	-77.515552	-112.366420
63528	9.530458	2.058063	0.704201	0.022324	-0.016458	0.070271	69.963677	-77.556107	-112.340056
63529	9.639615	2.083305	0.561998	0.005119	-0.025038	0.090680	69.949580	-77.609451	-112.317497
63530	9.735075	1.931235	0.458801	-0.002092	0.005035	0.115963	69.833315	-77.670348	-112.194590
63531	9.859973	1.554939	0.573110	0.066050	0.060488	0.130963	69.605444	-77.728337	-111.917483
63532	10.248166	1.437655	0.257089	0.490573	0.162038	0.187978	69.312982	-77.796110	-111.325500
63533	10.096940	2.322951	0.243310	0.911682	0.355450	0.312935	68.656983	-77.890096	-110.114975
63534	9.519658	2.742287	0.381234	0.999558	0.414948	0.389660	67.809075	-78.008756	-108.657250
63535	9.213977	3.409763	0.685756	1.120469	0.480845	0.389398	66.845181	-78.108054	-107.010697
63536	8.356728	4.673100	1.033691	1.410690	0.589617	0.255348	65.906903	-78.106170	-105.220742
63537	8.087946	5.872964	1.647885	1.541619	0.566160	0.138483	65.239336	-78.043777	-103.630564
63538	7.913219	6.985452	1.474044	1.364277	0.326418	0.126286	65.078156	-78.030305	-102.661676
63539	8.624752	6.889312	2.279871	0.790150	0.301310	0.091458	64.693024	-78.003765	-101.800003
63540	8.651024	5.968068	1.563673	0.512095	0.262040	0.012686	64.337203	-77.945153	-101.131102
63541	8.407215	5.478794	1.932446	0.988364	0.368297	-0.049803	64.079906	-77.826700	-100.283567
63542	8.789369	5.890397	2.120735	0.720632	0.161387	0.016163	64.090790	-77.794041	-99.867180
63543	9.030637	4.911326	1.909806	0.458547	0.111820	0.046972	64.036819	-77.789085	-99.537933
63544	9.041928	4.490653	1.795315	0.586249	0.194834	0.015349	63.893983	-77.747411	-99.042972
63545	8.929346	4.780767	1.789959	0.612409	0.236168	-0.030985	63.727679	-77.670482	-98.508411
63546	8.917592	4.971692	1.776257	0.453579	0.175610	-0.019414	63.600288	-77.615293	-98.106844
63547	8.709680	4.850303	1.602130	0.343212	0.141425	-0.041709	63.520038	-77.556389	-97.818056
63548	8.738795	4.834562	1.599236	0.202149	0.093519	-0.077463	63.510402	-77.492184	-97.684450
63549	8.855109	4.443607	1.498481	0.026433	0.043951	-0.140784	63.590235	-77.407178	-97.745436
63550	8.942796	4.068421	1.454001	-0.067743	0.040269	-0.221391	63.711965	-77.282685	-97.904861
63551	8.927336	3.704293	1.392853	-0.153507	0.036389	-0.303971	63.884798	-77.115526	-98.166987
63552	9.188446	3.460277	1.475996	-0.285689	0.007659	-0.351409	64.089161	-76.932077	-98.539559
63553	9.247959	2.676646	1.312130	-0.437561	-0.033229	-0.379802	64.321335	-76.742662	-99.030144
63554	9.455747	2.261424	1.293530	-0.470351	-0.033238	-0.392847	64.535465	-76.547270	-99.522076
63555	9.537517	1.570114	1.163308	-0.541292	-0.073484	-0.374034	64.768795	-76.369820	-100.075752
63556	9.793532	1.187329	1.020780	-0.649805	-0.104363	-0.334614	64.954531	-76.221091	-100.645014
63557	9.637399	0.369260	0.581065	-0.711831	-0.158627	-0.306620	65.186121	-76.098315	-101.298245
63558	9.858041	0.266635	0.589593	-0.690844	-0.163305	-0.298767	65.422086	-75.981319	-101.944118
63559	9.966008	0.123104	0.632506	-0.763957	-0.195120	-0.298520	65.676818	-75.870207	-102.652678
63560	10.170140	-1.128113	-0.202133	-0.928312	-0.343373	-0.203448	66.048752	-75.843726	-103.579599
63561	10.399567	-1.441734	0.294748	-0.984460	-0.321255	-0.055371	66.207984	-75.887659	-104.320169
63562	10.110121	-2.448524	-0.145457	-0.927082	-0.332526	-0.083336	66.450143	-75.919871	-105.112369
63563	10.798606	-3.503332	-0.509685	-1.032465	-0.444825	-0.038428	66.832683	-75.999371	-106.111202
63564	11.285402	-5.378049	-1.050792	-1.124349	-0.521415	0.139526	67.175164	-76.189137	-107.122533
63565	11.808438	-6.216473	-1.418013	-0.827208	-0.381268	0.281473	67.274757	-76.421407	-107.707648
63566	11.245809	-6.557138	-1.940887	-0.574935	-0.275784	0.370651	67.213066	-76.677826	-107.977788
63567	12.060288	-6.325683	-2.923782	-0.421834	-0.369007	0.522229	67.314022	-77.034958	-108.324493
63568	10.611762	-0.331622	1.156361	0.517317	0.394402	0.129370	66.583858	-77.014140	-107.265908
63569	9.065819	2.876906	0.788804	1.242855	0.489203	-0.142279	66.332745	-76.827184	-106.271905
63570	8.420198	4.460177	2.143548	0.383687	0.305380	0.007665	65.865249	-76.759755	-105.560773
63571	9.235591	2.513488	0.728684	-0.666177	-0.453402	0.270232	66.235424	-77.006358	-106.327639
63572	9.967576	0.884553	0.745141	-0.596955	-0.256094	0.266651	66.212723	-77.204777	-106.650108
63573	9.539818	1.011695	0.957618	0.390807	-0.003282	0.064930	66.380949	-77.239257	-106.587870
63574	9.253915	2.119823	0.784417	0.325216	-0.012268	-0.018129	66.615815	-77.231987	-106.632512
63575	9.335485	2.264197	1.086756	-0.136583	-0.159347	0.007640	66.903322	-77.271717	-107.002389
63576	9.487470	1.734031	0.951569	-0.050529	-0.204575	0.024164	67.331440	-77.329511	-107.465802
63577	9.509799	1.963888	0.875316	0.136817	-0.168852	0.013467	67.797693	-77.373249	-107.858184
63578	9.667004	2.171086	0.588083	0.043376	-0.185241	0.014997	68.250058	-77.420407	-108.291136
63579	9.752425	1.930807	0.514261	-0.049120	-0.138563	0.021124	68.535728	-77.460583	-108.607517
63580	9.692803	1.847193	0.650417	0.031051	-0.060570	0.012856	68.688473	-77.479578	-108.740650
63581	9.328987	1.863058	0.871598	0.062611	-0.027519	0.005058	68.788319	-77.487697	-108.801053
63582	9.343806	1.879243	0.892599	0.045954	-0.081500	-0.000840	69.013494	-77.503541	-108.999616
63583	9.506965	2.002063	0.768876	0.064588	-0.108906	-0.001259	69.317483	-77.524765	-109.267941
63584	9.616557	2.074751	0.634997	0.068113	-0.097970	0.017974	69.579591	-77.553604	-109.491291
63585	9.671506	2.053529	0.607570	0.045392	-0.089121	0.027992	69.800049	-77.586076	-109.685284
63586	9.815377	2.075857	0.465128	0.050797	-0.037903	0.041024	69.886598	-77.615121	-109.738989
63587	9.600230	2.037484	0.620512	0.041590	0.013008	0.056190	69.830458	-77.642490	-109.651993
63588	9.330389	1.952068	0.900327	0.013434	-0.015936	0.060506	69.824224	-77.677675	-109.632622
63589	9.548194	1.911552	0.713051	-0.003045	-0.064284	0.057663	69.931409	-77.721074	-109.738988
63590	9.633344	1.916146	0.612926	0.012098	-0.045481	0.048095	70.009072	-77.755387	-109.806261
63591	9.595180	1.924438	0.644561	0.023609	-0.032392	0.044693	70.065178	-77.785502	-109.844707
63592	9.576608	1.937906	0.663738	0.006093	-0.023805	0.046879	70.087132	-77.814900	-109.858488
63593	9.499027	1.867747	0.698232	-0.006716	-0.032260	0.039074	70.130978	-77.841953	-109.902158
63594	9.573424	1.918153	0.690196	0.002299	-0.027730	0.036636	70.170084	-77.866591	-109.935706
63595	9.500893	1.906570	0.709528	-0.001309	-0.036458	0.032447	70.233933	-77.890872	-109.996658
63596	9.546165	1.925598	0.646675	-0.008967	-0.042996	0.031816	70.309732	-77.915849	-110.074328
63597	9.581216	1.920449	0.647790	-0.011425	-0.037253	0.035309	70.367738	-77.941796	-110.135220
63598	9.542877	1.906953	0.671626	-0.019294	-0.039850	0.033382	70.428841	-77.966977	-110.203897
63599	9.563072	1.840464	0.628853	-0.027820	-0.040144	0.025872	70.493784	-77.988355	-110.281477
63600	9.583316	1.866399	0.621426	-0.022560	-0.019686	0.011896	70.521573	-77.998049	-110.317998
63601	9.544462	1.878028	0.656329	-0.018695	-0.008427	0.008748	70.526791	-78.004104	-110.329166
63602	9.544838	1.899819	0.663934	-0.030431	-0.022279	0.009971	70.558469	-78.013248	-110.374272
63603	9.564372	1.835576	0.623350	-0.036460	-0.014041	0.001525	70.574316	-78.016469	-110.406709
63604	9.589316	1.898129	0.594769	-0.028103	-0.003336	-0.000888	70.568908	-78.016131	-110.412538
63605	9.550081	1.887901	0.622590	-0.027628	0.003913	-0.000480	70.545926	-78.014849	-110.400109
63606	9.525095	1.825304	0.651857	-0.036160	0.003626	-0.007982	70.524568	-78.009350	-110.394351
63607	9.485870	1.861651	0.697047	-0.031231	-0.003079	-0.014157	70.529609	-78.002015	-110.412681
63608	9.524970	1.895815	0.678207	-0.030591	-0.014025	-0.015040	70.562637	-77.996072	-110.459263
63609	9.569054	1.919342	0.618064	-0.029477	-0.017725	-0.015509	70.607045	-77.990793	-110.516812
63610	9.543842	1.812027	0.628228	-0.042040	-0.011927	-0.013858	70.627049	-77.985077	-110.556788
63611	9.524193	1.877059	0.667826	-0.019303	-0.000929	-0.025283	70.643283	-77.971316	-110.579574
63612	9.465234	1.909284	0.725435	-0.024759	-0.021342	-0.018251	70.700888	-77.965002	-110.647873
63613	9.563036	1.913321	0.646295	-0.030423	-0.037814	-0.012510	70.792853	-77.965108	-110.754610
63614	9.607097	1.913935	0.576067	-0.014198	-0.019770	-0.012104	70.846991	-77.961789	-110.813178
63615	9.582465	1.920460	0.629006	-0.015755	-0.013809	-0.010331	70.884484	-77.958521	-110.855626
63616	9.601922	1.903327	0.605677	-0.014407	-0.012815	-0.003047	70.912842	-77.958784	-110.887958
63617	9.567718	1.905519	0.600749	-0.006057	0.002634	-0.004559	70.909074	-77.955554	-110.882534
63618	9.562658	1.916711	0.641826	-0.002006	0.005203	-0.007258	70.902510	-77.950159	-110.871893
63619	9.582006	1.899574	0.620235	-0.006715	0.008829	-0.004532	70.882646	-77.945783	-110.850395
63620	9.547570	1.879215	0.608235	-0.013885	0.015166	-0.008625	70.845259	-77.937776	-110.815196
63621	9.542032	1.822718	0.624795	-0.014758	0.022290	-0.020224	70.800594	-77.922370	-110.773048
63622	9.502488	1.905971	0.689501	-0.010469	0.027416	-0.030255	70.753418	-77.900338	-110.725831
63623	9.487233	1.915627	0.673366	-0.015894	0.012618	-0.027112	70.738780	-77.883025	-110.715052
63624	9.574463	1.896932	0.661735	-0.025105	0.008173	-0.031605	70.733067	-77.863893	-110.718816
63625	9.539632	1.924653	0.667221	-0.014082	0.013976	-0.035361	70.723357	-77.841861	-110.712015
63626	9.538829	1.905100	0.660178	-0.011831	0.016078	-0.034565	70.708040	-77.819633	-110.698173
63627	9.557717	1.936106	0.657038	-0.021270	0.013825	-0.030863	70.690720	-77.800062	-110.687800
63628	9.517888	1.928319	0.685958	-0.013638	0.014735	-0.026335	70.670622	-77.782537	-110.670123
63629	9.576030	1.946405	0.646994	-0.017672	0.017789	-0.027518	70.642640	-77.764019	-110.646729
63630	9.555788	1.920807	0.654240	-0.018114	0.024800	-0.025344	70.594186	-77.745112	-110.602658
63631	9.569653	1.916309	0.675336	-0.016978	0.026733	-0.029693	70.546486	-77.723709	-110.558674
63632	9.500503	1.922973	0.668900	-0.027286	0.026870	-0.038483	70.499471	-77.697293	-110.521448
63633	9.553259	1.930249	0.663318	-0.024792	0.031547	-0.045028	70.449186	-77.666672	-110.479393
63634	9.512975	1.946571	0.702350	-0.016714	0.025457	-0.042675	70.415756	-77.638252	-110.449863
63635	9.506985	1.938052	0.736595	-0.013358	0.018227	-0.038469	70.399403	-77.613721	-110.435831
63636	9.545415	1.929298	0.702387	-0.013588	0.011790	-0.036754	70.396340	-77.591120	-110.435555
63637	9.569263	1.927792	0.649915	-0.017157	0.018229	-0.043135	70.381961	-77.564069	-110.425769
63638	9.533918	1.979195	0.665255	-0.007716	0.030023	-0.045100	70.345044	-77.533454	-110.387378
63639	9.478972	2.002533	0.685896	-0.013103	0.030338	-0.044110	70.304511	-77.503541	-110.348425
63640	9.541286	1.968153	0.721287	-0.015570	0.021800	-0.043206	70.281787	-77.475526	-110.329172
63641	9.506296	1.950799	0.710150	-0.009526	0.023919	-0.037750	70.253645	-77.450274	-110.300804
63642	9.485548	1.994424	0.743508	-0.020750	0.017279	-0.036188	70.232982	-77.426916	-110.286700
63643	9.524132	1.985426	0.709248	-0.027264	0.006139	-0.032590	70.233312	-77.407888	-110.297913
63644	9.518389	1.975890	0.742452	-0.024358	0.011551	-0.030068	70.219167	-77.388939	-110.292603
63645	9.528332	1.934967	0.653549	-0.029730	0.002352	-0.030821	70.225649	-77.371599	-110.311571
63646	9.541852	1.976387	0.691061	-0.020987	0.020363	-0.032744	70.194605	-77.349497	-110.286962
63647	9.462334	2.003242	0.764770	-0.015601	0.014421	-0.029865	70.179384	-77.330334	-110.275392
63648	9.559976	2.009644	0.689669	-0.026402	0.003724	-0.020112	70.174327	-77.318271	-110.280597
63649	9.500741	1.995118	0.731133	-0.018558	0.006333	-0.018138	70.166696	-77.306998	-110.278540
63650	9.505251	2.031672	0.708878	-0.013632	0.002638	-0.013941	70.166232	-77.298472	-110.280953
63651	9.499954	2.020247	0.741182	-0.021281	-0.000063	-0.009006	70.164463	-77.293364	-110.286506
63652	9.465895	1.999442	0.727804	-0.018838	-0.002810	-0.002151	70.163871	-77.292252	-110.291846
63653	9.504982	2.032815	0.709207	-0.017948	-0.013862	0.003858	70.185903	-77.296758	-110.319839
63654	9.519939	2.002433	0.717684	-0.017062	-0.014510	0.006861	70.206554	-77.302775	-110.345910
63655	9.525021	2.036833	0.693825	-0.015496	-0.010957	0.006830	70.220514	-77.308314	-110.364189
63656	9.534894	2.016150	0.742754	-0.017992	-0.021308	0.017241	70.248030	-77.321241	-110.397842
63657	9.545774	1.993783	0.660431	-0.012402	-0.005651	0.016283	70.242944	-77.330847	-110.394779
63658	9.521298	1.997098	0.714513	-0.016441	-0.002598	0.015088	70.228366	-77.338988	-110.384376
63659	9.502208	1.967328	0.719210	-0.014650	-0.002997	0.016340	70.215552	-77.348111	-110.374713
63660	9.507440	2.000766	0.696263	-0.015553	-0.003245	0.018088	70.200411	-77.357993	-110.363212
63661	9.517366	1.979396	0.746221	-0.014209	-0.006145	0.019774	70.192408	-77.369578	-110.358222
63662	9.503401	1.961807	0.718524	-0.017108	-0.011542	0.017228	70.197059	-77.380607	-110.367917
63663	9.537965	1.958533	0.722397	-0.010142	-0.013046	0.015327	70.211856	-77.391134	-110.383903
63664	9.494508	2.000970	0.675369	-0.005423	-0.011898	0.013488	70.227341	-77.400214	-110.397839
63665	9.524135	1.962817	0.701935	-0.002057	-0.013500	0.013833	70.249215	-77.410022	-110.416329
63666	9.538888	1.977351	0.727814	-0.005182	-0.014946	0.010011	70.275264	-77.417815	-110.440946
63667	9.510293	1.967238	0.681193	-0.001408	-0.011099	0.020307	70.286149	-77.430648	-110.447795
63668	9.530170	1.993651	0.675707	-0.003638	-0.007545	0.015617	70.290370	-77.440032	-110.449140
63669	9.545234	1.962292	0.684489	-0.010146	-0.008285	0.016200	70.293021	-77.450107	-110.452682
63670	9.525825	1.978211	0.706667	-0.000269	0.001251	0.012975	70.280149	-77.456366	-110.434538
63671	9.511396	2.006725	0.697425	-0.006777	0.000511	0.013559	70.265685	-77.463316	-110.418569
63672	9.531651	1.942480	0.657187	-0.015302	-0.006274	0.014599	70.261009	-77.471905	-110.417646
63673	9.526582	1.996690	0.715709	-0.004320	0.003408	0.016535	70.238296	-77.479897	-110.391786
63674	9.512540	1.956871	0.679688	-0.007891	-0.005284	0.012263	70.237484	-77.487036	-110.390471
63675	9.532342	1.961242	0.666194	-0.007431	0.002865	0.007964	70.221754	-77.490510	-110.373590
63676	9.527442	1.947908	0.698571	-0.002951	0.007056	0.009603	70.196091	-77.493820	-110.343922
63677	9.527592	1.947013	0.699030	-0.007880	0.000367	0.008396	70.185778	-77.498011	-110.332854
63678	9.527600	1.969058	0.708312	-0.003384	0.005457	0.005286	70.167513	-77.499301	-110.311018
63679	9.527865	1.923064	0.691216	-0.006749	0.007065	0.004940	70.144579	-77.500326	-110.286359
63680	9.513063	1.975501	0.691586	-0.004927	0.008461	-0.003305	70.125671	-77.496399	-110.264770
63681	9.527546	1.968420	0.710796	-0.006516	0.008764	0.002349	70.101020	-77.495693	-110.238216
63682	9.566797	1.956303	0.676161	-0.011892	0.014727	-0.000526	70.060480	-77.492035	-110.198556
63683	9.512999	1.930031	0.677653	-0.010085	0.015225	-0.004023	70.023739	-77.486629	-110.161711
63684	9.512460	1.998554	0.706318	-0.006944	0.022320	-0.004068	69.970806	-77.479563	-110.106452
63685	9.561127	1.944689	0.713869	-0.008734	0.022726	-0.005324	69.917896	-77.471969	-110.052249
63686	9.546194	1.974981	0.706948	-0.008283	0.025228	-0.005759	69.858785	-77.463398	-109.991443
63687	9.545849	1.975577	0.709940	-0.007602	0.034184	-0.007903	69.781269	-77.452127	-109.911364
63688	9.530972	1.983207	0.694860	-0.012099	0.029094	-0.004802	69.709980	-77.443271	-109.840317
63689	9.530730	1.961076	0.689347	-0.007817	0.038146	-0.009189	69.624209	-77.430475	-109.751900
63690	9.549832	1.989726	0.688755	-0.015468	0.040217	-0.003404	69.523210	-77.420099	-109.652385
63691	9.549749	1.944532	0.675183	-0.011201	0.043616	-0.003925	69.417975	-77.408963	-109.546005
63692	9.529442	1.984783	0.711165	-0.012777	0.049582	-0.002152	69.295270	-77.397285	-109.422658
63693	9.529192	1.962052	0.707595	-0.012113	0.057647	0.000440	69.152362	-77.385537	-109.278200
63694	9.523593	1.949512	0.745049	-0.012321	0.056859	-0.001732	69.012628	-77.372466	-109.137125
63695	9.517649	1.982555	0.799793	-0.011640	0.045901	-0.002654	68.901384	-77.361335	-109.024824
63696	9.488477	1.974176	0.758809	-0.014332	0.046065	-0.002176	68.787124	-77.350131	-108.911023
63697	9.522253	1.972468	0.768184	-0.012327	0.041706	0.000355	68.683051	-77.341382	-108.806467
63698	9.507695	1.956689	0.744877	-0.013229	0.036704	0.001217	68.588850	-77.333852	-108.712569
63699	9.467968	1.968021	0.784284	-0.017981	0.034659	0.007779	68.491578	-77.330462	-108.618299
63700	9.502002	1.965554	0.792265	-0.016849	0.021434	0.005560	68.427601	-77.328395	-108.557502
63701	9.521653	1.970167	0.781414	-0.013280	0.025382	0.008954	68.353963	-77.327534	-108.484694
63702	9.526925	1.981658	0.752399	-0.013069	0.026183	0.011108	68.275716	-77.327382	-108.407051
63703	9.501846	1.985115	0.808771	-0.017576	0.016322	0.013325	68.216935	-77.330730	-108.351993
63704	9.521860	1.966323	0.788543	-0.015793	0.020677	0.015459	68.146006	-77.334026	-108.283452
63705	9.482663	1.953633	0.817214	-0.017853	0.013712	0.020659	68.086194	-77.341802	-108.227503
63706	9.502821	1.934370	0.796368	-0.012008	0.011142	0.018384	68.037115	-77.348662	-108.179136
63707	9.503052	1.932731	0.797588	-0.012426	0.009547	0.014067	67.996444	-77.353808	-108.139620
63708	9.508374	1.966632	0.776185	-0.012635	0.013512	0.012783	67.946672	-77.357167	-108.090914
63709	9.483296	1.970183	0.831637	-0.011269	0.011507	0.009729	67.906126	-77.359575	-108.050848
63710	9.523085	1.957013	0.796872	-0.013790	0.002034	0.015362	67.880337	-77.366764	-108.027400
63711	9.509013	1.962483	0.778841	-0.018968	-0.001607	0.017601	67.858803	-77.376171	-108.011340
63712	9.509518	1.937934	0.770196	-0.011795	0.002425	0.018778	67.829874	-77.385083	-107.983505
63713	9.509702	1.958856	0.779564	-0.016937	-0.000306	0.016269	67.807646	-77.393499	-107.965543
63714	9.524519	1.927435	0.789326	-0.012877	0.002290	0.013613	67.783351	-77.399695	-107.943092
63715	9.510363	1.933312	0.771383	-0.016900	0.000607	0.011519	67.763533	-77.405392	-107.927578
63716	9.510613	1.909832	0.763002	-0.019064	0.005096	0.002072	67.740199	-77.404856	-107.909746
63717	9.524681	1.947818	0.800309	-0.015003	0.007691	-0.000581	67.716398	-77.402597	-107.889038
63718	9.485290	1.914364	0.818757	-0.014095	0.003180	-0.003201	67.705593	-77.399679	-107.881126
63719	9.485121	1.937074	0.828032	-0.015254	-0.003539	0.000250	67.707476	-77.400301	-107.886883
63720	9.490357	1.972284	0.805177	-0.005389	-0.004437	0.000078	67.716536	-77.400776	-107.894216
63721	9.530227	1.937455	0.759525	-0.007916	-0.018673	0.004822	67.754089	-77.407106	-107.932214
63722	9.524960	1.947076	0.798801	-0.004310	-0.013823	0.003480	67.782760	-77.411419	-107.959007
63723	9.505456	1.941040	0.811046	-0.005463	-0.011020	0.008688	67.799847	-77.418134	-107.974593
63724	9.505616	1.962855	0.818735	-0.014668	-0.021099	0.007946	67.835599	-77.426386	-108.014721
63725	9.550910	1.940208	0.740837	-0.012845	-0.015837	0.005342	67.863202	-77.432362	-108.045414
63726	9.545818	1.926839	0.771530	-0.008818	-0.009397	0.008316	67.874156	-77.438276	-108.056699
63727	9.551216	1.961375	0.748295	-0.010146	-0.006479	0.006623	67.879811	-77.442911	-108.063321
63728	9.506617	1.937254	0.806481	-0.005420	-0.000586	0.005701	67.874260	-77.445536	-108.055701
63729	9.512183	1.926653	0.765583	-0.009236	-0.006228	0.004881	67.881529	-77.449192	-108.063443
63730	9.546349	1.946849	0.779203	-0.003428	-0.004962	0.008238	67.885094	-77.454108	-108.063993
63731	9.532070	1.953537	0.760729	-0.002482	0.000960	0.002636	67.881272	-77.455023	-108.056408
63732	9.512449	1.947642	0.774130	-0.003635	-0.000999	0.006963	67.876498	-77.458406	-108.048536
63733	9.532294	1.952388	0.760877	-0.003179	0.001506	0.006533	67.867188	-77.461271	-108.035737
63734	9.532446	1.951505	0.761232	-0.000516	0.005190	0.011680	67.844840	-77.465821	-108.008032
63735	9.473500	1.934117	0.801642	-0.004785	0.001804	0.012170	67.828403	-77.471611	-107.988876
63736	9.507987	1.908269	0.797676	-0.005487	-0.002408	0.015184	67.817902	-77.479659	-107.976226
63737	9.533455	1.902151	0.743337	-0.007064	-0.005957	0.015195	67.815720	-77.488732	-107.973010
63738	9.528143	1.956046	0.801967	-0.008842	-0.000782	0.014815	67.799743	-77.496232	-107.956721
63739	9.533847	1.944530	0.761536	-0.006143	0.003813	0.015218	67.774665	-77.503201	-107.929514
63740	9.528792	1.930296	0.793805	-0.010407	0.005190	0.016590	67.741713	-77.510345	-107.896756
63741	9.529171	1.883661	0.776453	-0.012369	0.005721	0.008429	67.715096	-77.513294	-107.871628
63742	9.554163	1.923808	0.741662	-0.007148	0.015026	0.002342	67.674409	-77.510738	-107.829036
63743	9.494746	1.952691	0.801183	-0.004913	0.012356	0.002292	67.642213	-77.508985	-107.793817
63744	9.489541	1.916733	0.824711	-0.016640	0.002340	0.008913	67.619981	-77.512667	-107.775699
63745	9.534431	1.939596	0.766792	-0.006956	0.001543	0.001848	67.612909	-77.513031	-107.767413
63746	9.554259	1.944389	0.753767	-0.013285	0.000715	0.009280	67.596112	-77.517260	-107.752891
63747	9.529338	1.925412	0.799092	-0.012375	0.000964	0.007540	67.581703	-77.520765	-107.740271
63748	9.549103	1.952722	0.795238	-0.009224	0.003303	0.006635	67.563633	-77.523026	-107.722063
63749	9.529479	1.946518	0.809249	-0.007433	0.007647	0.008781	67.534813	-77.525724	-107.691784
63750	9.529674	1.922935	0.801052	-0.011246	0.006771	0.008839	67.505085	-77.528388	-107.662823
63751	9.554802	1.962772	0.765960	-0.012366	0.005727	0.008420	67.478362	-77.531309	-107.637586
63752	9.510195	1.915486	0.816237	-0.013054	0.011035	0.013197	67.433031	-77.535335	-107.593708
63753	9.524808	1.884290	0.826469	-0.008800	0.004897	0.010943	67.407796	-77.539766	-107.567904
63754	9.501545	1.910711	0.758923	-0.008305	0.008316	0.005777	67.379050	-77.540456	-107.538224
63755	9.530331	1.917892	0.805315	-0.014193	0.000474	0.011006	67.361217	-77.545892	-107.523165
63756	9.530491	1.916814	0.805982	-0.009001	0.008864	0.009669	67.326850	-77.548514	-107.488138
63757	9.555847	1.911064	0.752833	-0.011279	0.005863	0.013569	67.295175	-77.554110	-107.457196
63758	9.555889	1.955036	0.772161	-0.012591	0.013547	0.012763	67.244393	-77.557320	-107.407466
63759	9.491489	1.901970	0.836397	-0.010585	0.018687	0.017064	67.178834	-77.561905	-107.341418
63760	9.511426	1.905787	0.824547	-0.009036	0.007954	0.014400	67.141766	-77.567204	-107.303649
63761	9.522491	1.907087	0.753285	-0.010145	0.011673	0.014865	67.095383	-77.572167	-107.256982
63762	9.517250	1.915395	0.795286	-0.009272	0.011008	0.017863	67.047287	-77.578598	-107.208059
63763	9.477960	1.903175	0.822694	-0.005445	0.003273	0.011302	67.027263	-77.583545	-107.185628
63764	9.512293	1.877490	0.819094	-0.011040	0.002820	0.010091	67.005603	-77.587699	-107.164814
63765	9.551964	1.887184	0.793174	-0.012149	0.006540	0.010556	66.974629	-77.591518	-107.135104
63766	9.492758	1.892746	0.842897	-0.006977	0.005403	0.007456	66.951763	-77.593699	-107.110672
63767	9.532387	1.902868	0.816544	-0.012599	-0.004573	0.004474	66.953337	-77.596800	-107.114553
63768	9.532509	1.902308	0.816426	-0.010355	-0.002487	0.005312	66.949625	-77.599619	-107.111716
63769	9.532612	1.901788	0.816428	-0.008324	-0.001196	0.003995	66.946034	-77.601711	-107.107801
63770	9.518426	1.908409	0.798006	-0.011514	-0.004444	0.009626	66.941945	-77.607244	-107.105257
63771	9.538427	1.890069	0.775813	-0.012607	0.004038	0.010978	66.916198	-77.611840	-107.081171
63772	9.538500	1.934338	0.794642	-0.009006	0.004114	0.008770	66.893866	-77.614998	-107.058478
63773	9.524407	1.895438	0.758438	-0.008808	0.000148	0.010038	66.880567	-77.619971	-107.044908
63774	9.533420	1.919584	0.826976	-0.011037	0.002826	0.010084	66.858793	-77.624108	-107.023979
63775	9.519336	1.880605	0.790759	-0.007686	0.001191	0.010456	66.843180	-77.629064	-107.007382
63776	9.485394	1.926749	0.804020	-0.011301	-0.003645	0.011774	66.835034	-77.635548	-107.000560
63777	9.500080	1.850264	0.794654	-0.010194	-0.007363	0.011306	66.837649	-77.642879	-107.004096
63778	9.539749	1.883028	0.776679	-0.009673	-0.007788	0.000528	66.851962	-77.644371	-107.019311
63779	9.545274	1.895525	0.744503	-0.003866	-0.006546	0.003895	66.863869	-77.647615	-107.028647
63780	9.520157	1.899744	0.798027	-0.008551	-0.006745	0.000948	66.875893	-77.649092	-107.040861
63781	9.548882	1.862328	0.825266	-0.007839	-0.002530	-0.002054	66.881985	-77.648298	-107.046574
63782	9.539877	1.905459	0.784444	-0.006680	-0.000572	-0.006366	66.887739	-77.644532	-107.051271
63783	9.534283	1.915958	0.825425	-0.007999	0.002354	-0.008053	66.888142	-77.639478	-107.051255
63784	9.534206	1.871351	0.807142	-0.006695	-0.005332	-0.007256	66.906240	-77.636313	-107.068598
63785	9.519733	1.902014	0.797684	-0.010045	-0.003695	-0.007629	66.919564	-77.632842	-107.083011
63786	9.519555	1.880316	0.788810	-0.003688	0.006646	-0.013260	66.916731	-77.623821	-107.077162
63787	9.553365	1.902039	0.803500	-0.008211	0.001563	-0.010210	66.921103	-77.617808	-107.081333
63788	9.538797	1.932880	0.794623	-0.009120	0.001315	-0.008476	66.923066	-77.612506	-107.083582
63789	9.538649	1.911035	0.785812	-0.010901	0.001737	-0.009741	66.924993	-77.606701	-107.086829
63790	9.552836	1.881734	0.795628	-0.006862	0.008159	-0.006745	66.910067	-77.600774	-107.070460
63791	9.498680	1.924256	0.823043	-0.007075	0.007367	-0.008902	66.899840	-77.594147	-107.059018
63792	9.543516	1.925698	0.756354	-0.013416	0.001784	-0.002385	66.891999	-77.591950	-107.053748
63793	9.532530	1.900575	0.820202	-0.003262	0.008237	-0.008951	66.881945	-77.585100	-107.040245
63794	9.532222	1.924071	0.830351	-0.012205	0.009428	-0.010543	66.864854	-77.576884	-107.024793
63795	9.526682	1.866773	0.844419	-0.010687	0.002533	-0.007591	66.862820	-77.572033	-107.023859
63796	9.531715	1.925856	0.832024	-0.003422	0.013130	-0.014953	66.846449	-77.560659	-107.003990
63797	9.491898	1.916115	0.859367	-0.015830	-0.000169	-0.010125	66.850505	-77.555082	-107.012309
63798	9.517023	1.889950	0.796301	-0.013600	-0.002846	-0.010173	66.861580	-77.549823	-107.026518
63799	9.516731	1.936059	0.814565	-0.005317	-0.002571	-0.009424	66.876652	-77.545156	-107.039950
63800	9.516580	1.914499	0.805399	-0.012440	-0.000880	-0.014488	66.888073	-77.537180	-107.053833
63801	9.516498	1.892568	0.796360	-0.014995	-0.001763	-0.002393	66.888501	-77.536034	-107.057947
63802	9.516355	1.915569	0.805516	-0.010037	-0.003688	-0.007646	66.901017	-77.532295	-107.071543
63803	9.535977	1.944041	0.801222	-0.013885	-0.005481	-0.002865	66.911418	-77.531736	-107.085220
63804	9.510811	1.925952	0.845602	-0.013896	-0.010240	-0.003760	66.933385	-77.531515	-107.110758
63805	9.536048	1.944277	0.799800	-0.016634	-0.015752	0.000549	66.963235	-77.535057	-107.145968
63806	9.556040	1.904420	0.767081	-0.015265	-0.012994	-0.001608	66.988812	-77.536583	-107.176006
63807	9.536269	1.921626	0.788866	-0.017034	-0.007810	-0.001980	67.002072	-77.537007	-107.194459
63808	9.516528	1.894005	0.792574	-0.015179	-0.006381	-0.010186	67.020604	-77.532525	-107.217232
63809	9.530655	1.932399	0.828996	-0.016785	-0.006093	-0.004560	67.032514	-77.531203	-107.234155
63810	9.536068	1.923056	0.787807	-0.013645	-0.008518	-0.006345	67.053122	-77.529221	-107.258156
63811	9.496468	1.912779	0.814077	-0.017408	-0.003699	-0.010140	67.064586	-77.524418	-107.274989
63812	9.516143	1.918704	0.800544	-0.018151	-0.008847	-0.002411	67.079414	-77.524583	-107.295714
63813	9.521560	1.931627	0.768439	-0.016369	-0.009270	-0.001147	67.095680	-77.525767	-107.316856
63814	9.516215	1.918784	0.799487	-0.014340	-0.007977	-0.002458	67.110665	-77.525711	-107.335504
63815	9.516362	1.896148	0.789431	-0.016625	-0.015742	0.000527	67.140557	-77.529216	-107.370751
63816	9.536084	1.924355	0.784434	-0.012982	-0.009975	-0.005512	67.164165	-77.527989	-107.397435
63817	9.501994	1.904346	0.769241	-0.012295	-0.015266	-0.010308	67.206297	-77.525659	-107.442677
63818	9.564726	1.888500	0.810037	-0.018078	-0.006980	-0.011889	67.226213	-77.520392	-107.468570
63819	9.515990	1.921433	0.795799	-0.007100	-0.002125	-0.010702	67.240311	-77.514934	-107.482052
63820	9.496072	1.916849	0.809115	-0.021877	-0.003089	-0.010946	67.247789	-77.509300	-107.497437
63821	9.510216	1.932962	0.836246	-0.013614	-0.012330	-0.012000	67.283764	-77.505414	-107.537149
63822	9.535118	1.974792	0.799840	-0.015879	-0.010584	-0.007213	67.308797	-77.503408	-107.566995
63823	9.529999	1.894378	0.803093	-0.017023	-0.007799	-0.002001	67.322011	-77.503797	-107.585396
63824	9.549556	1.923011	0.798843	-0.016498	-0.003427	-0.011888	67.334265	-77.497736	-107.602516
63825	9.529602	1.940748	0.821564	-0.013623	0.001009	-0.004556	67.330958	-77.494828	-107.602000
63826	9.515232	1.925843	0.794199	-0.017226	-0.003827	-0.003260	67.335147	-77.493417	-107.611287
63827	9.549419	1.901550	0.789498	-0.018810	-0.012125	-0.004180	67.359797	-77.493606	-107.642451
63828	9.509821	1.935952	0.833826	-0.011193	-0.010390	-0.004265	67.384084	-77.493108	-107.668783
63829	9.540224	1.967617	0.756584	-0.011438	-0.012109	-0.001691	67.410444	-77.494605	-107.697373
63830	9.535134	1.909467	0.768760	-0.015695	-0.010725	-0.000330	67.429048	-77.496258	-107.720527
63831	9.549532	1.902150	0.786683	-0.011391	-0.001663	-0.004612	67.433425	-77.493909	-107.726570
63832	9.529730	1.919216	0.809262	-0.016137	-0.003719	0.001898	67.432857	-77.495199	-107.730345
63833	9.529821	1.896601	0.799948	-0.009609	-0.002089	-0.003347	67.438009	-77.493613	-107.736139
63834	9.500896	1.934331	0.772672	-0.014535	-0.003993	-0.003734	67.444592	-77.491984	-107.746298
63835	9.515220	1.927304	0.790791	-0.013840	-0.004521	-0.007631	67.457358	-77.488666	-107.762373
63836	9.534796	1.933619	0.777271	-0.007557	-0.004610	-0.010301	67.475898	-77.483695	-107.780686
63837	9.529365	1.921362	0.808467	-0.014296	-0.007024	-0.007221	67.493946	-77.481142	-107.802440
63838	9.534569	1.935033	0.776538	-0.013389	-0.006768	-0.008956	67.512936	-77.477353	-107.824637
63839	9.529094	1.922961	0.807854	-0.006194	-0.001847	-0.012450	67.528423	-77.470895	-107.839013
63840	9.534273	1.914414	0.767137	-0.012020	0.000746	-0.010192	67.531490	-77.464805	-107.844095
63841	9.553612	1.943680	0.763723	-0.014883	0.005830	-0.015713	67.526913	-77.454938	-107.843018
63842	9.513875	1.911609	0.782086	-0.004544	0.013085	-0.020084	67.514652	-77.440908	-107.828009
63843	9.533000	1.941577	0.779470	-0.011038	0.012392	-0.019581	67.500518	-77.427556	-107.814882
63844	9.532616	1.920860	0.771596	-0.009012	0.013689	-0.020890	67.485120	-77.412966	-107.799280
63845	9.531974	1.945403	0.782469	-0.005867	0.016026	-0.021770	67.467556	-77.397657	-107.779603
63846	9.511749	1.941719	0.797265	-0.011035	0.012398	-0.019590	67.452852	-77.384036	-107.765898
63847	9.545385	1.941507	0.803943	-0.002091	0.020709	-0.016162	67.420972	-77.370662	-107.729329
63848	9.516112	1.958010	0.769153	-0.004328	0.013880	-0.017934	67.405067	-77.357588	-107.710455
63849	9.524733	1.939092	0.820632	-0.005896	0.019845	-0.016130	67.373141	-77.344415	-107.676069
63850	9.524071	1.963351	0.831929	-0.001391	0.020193	-0.020068	67.346251	-77.328816	-107.644208
63851	9.484329	1.931030	0.850905	-0.007502	0.015359	-0.011414	67.319445	-77.319120	-107.616010
63852	9.503782	1.915443	0.829943	-0.003868	0.016394	-0.018355	67.298497	-77.305260	-107.591693
63853	9.508461	1.952762	0.809423	-0.002750	0.017435	-0.017929	67.276019	-77.291656	-107.565139
63854	9.522345	1.947089	0.829360	-0.006763	0.015787	-0.020061	67.256608	-77.277026	-107.544095
63855	9.536311	1.919193	0.840207	-0.009622	0.020880	-0.025596	67.229765	-77.258603	-107.517099
63856	9.520892	1.974193	0.842593	0.002913	0.019780	-0.026183	67.212687	-77.239849	-107.492759
63857	9.511230	1.996871	0.794694	-0.008995	0.018470	-0.020021	67.186488	-77.224902	-107.466051
63858	9.519950	1.955560	0.836886	-0.012589	0.013624	-0.018737	67.167685	-77.211444	-107.449048
63859	9.505094	1.964652	0.820125	-0.003199	0.014943	-0.017532	67.150673	-77.198591	-107.428354
63860	9.504476	1.988656	0.830777	-0.010392	0.010003	-0.014049	67.137020	-77.188413	-107.415339
63861	9.538409	1.965644	0.827738	-0.003445	0.013217	-0.014957	67.121415	-77.177301	-107.396229
63862	9.523453	1.996822	0.820150	-0.007952	0.012864	-0.011025	67.099614	-77.168078	-107.373423
63863	9.503878	1.946903	0.815843	-0.009768	0.007587	-0.008466	67.087132	-77.161645	-107.361231
63864	9.483682	1.964574	0.839390	-0.006626	0.009929	-0.009341	67.071286	-77.153963	-107.343752
63865	9.517322	1.986125	0.854787	-0.013571	0.006715	-0.008438	67.058637	-77.147738	-107.333624
63866	9.488593	1.979111	0.809568	-0.006868	0.003444	-0.007675	67.056046	-77.142383	-107.329881
63867	9.522287	2.000471	0.824785	-0.007330	0.010449	-0.005441	67.035429	-77.136904	-107.307911
63868	9.516754	1.987734	0.857370	-0.013160	0.008274	-0.004108	67.014601	-77.132350	-107.289160
63869	9.522195	1.978508	0.817735	-0.008697	0.012436	-0.002384	66.985651	-77.128033	-107.259445
63870	9.516417	1.988192	0.860044	-0.011138	0.014335	-0.004503	66.952422	-77.121908	-107.226784
63871	9.502130	1.973310	0.833569	-0.011833	0.005338	-0.002425	66.938119	-77.119155	-107.213936
63872	9.476917	1.954610	0.879176	-0.012953	0.009055	-0.001946	66.913546	-77.115558	-107.191220
63873	9.467841	1.975296	0.830038	-0.007360	-0.000014	-0.002523	66.914238	-77.113955	-107.191126
63874	9.535968	1.972137	0.840325	-0.010458	-0.001403	-0.006397	66.919567	-77.110361	-107.197618
63875	9.501767	1.974277	0.835421	-0.008023	0.001456	-0.003367	66.917321	-77.107983	-107.194899
63876	9.501449	1.997075	0.845084	-0.008023	0.001456	-0.003367	66.914487	-77.105343	-107.191586
63877	9.521591	1.957899	0.813488	-0.010711	0.001623	-0.002908	66.909864	-77.103169	-107.188009
63878	9.501297	1.997497	0.845789	-0.006907	0.002496	-0.002935	66.904854	-77.100523	-107.181807
63879	9.501009	2.020152	0.855417	-0.008270	-0.000276	-0.000790	66.903924	-77.099892	-107.180583
63880	9.521438	1.958190	0.814584	-0.011627	0.006118	-0.000262	66.885256	-77.097840	-107.163144
63881	9.481434	1.991766	0.860448	-0.010964	0.004649	0.000581	66.870109	-77.096823	-107.148918
63882	9.501174	1.997242	0.847767	-0.009639	0.001709	0.002267	66.860243	-77.097094	-107.139341
63883	9.496053	1.961338	0.870211	-0.008728	0.001972	0.000532	66.852578	-77.096652	-107.131478
63884	9.495774	1.983839	0.880067	-0.011168	0.003873	-0.001588	66.840651	-77.094404	-107.120684
63885	9.541041	1.963409	0.804169	-0.010715	0.006384	-0.001999	66.824192	-77.091633	-107.104965
63886	9.481477	1.968965	0.853887	-0.008027	0.006217	-0.002457	66.809545	-77.088398	-107.089535
63887	9.486530	2.004794	0.832446	-0.012282	0.002835	-0.002023	66.800375	-77.086414	-107.082218
63888	9.515426	1.967539	0.859943	-0.010250	-0.000618	-0.004239	66.801916	-77.083782	-107.084702
63889	9.486397	2.005180	0.833035	-0.007816	0.002237	-0.001205	66.795874	-77.082363	-107.077968
63890	9.495374	1.984412	0.883090	-0.014556	-0.000201	0.001854	66.787992	-77.082846	-107.073317
63891	9.520510	2.003173	0.838624	-0.009383	-0.001312	-0.001229	66.789223	-77.082214	-107.074963
63892	9.520755	1.980535	0.829504	-0.014103	0.002310	0.001443	66.776240	-77.081913	-107.064812
63893	9.520765	1.980248	0.830080	-0.011873	0.004389	0.002310	66.759472	-77.081856	-107.049458
63894	9.500998	1.974335	0.843987	-0.011624	0.006125	-0.000268	66.740844	-77.079790	-107.032057
63895	9.495591	1.960893	0.876238	-0.013446	0.005598	0.003199	66.719527	-77.079926	-107.012958
63896	9.480964	1.990649	0.868179	-0.011624	0.006126	-0.000269	66.700906	-77.077856	-106.995565
63897	9.495520	1.960595	0.877663	-0.010503	0.002409	-0.000752	66.692488	-77.076633	-106.987972
63898	9.480914	1.990473	0.869123	-0.011866	-0.000365	0.001390	66.686981	-77.076907	-106.984175
63899	9.480975	1.990180	0.869134	-0.011656	-0.004347	0.002641	66.690035	-77.078999	-106.989028
63900	9.500803	1.995653	0.855640	-0.008510	-0.006761	0.000859	66.701646	-77.080444	-107.000821
63901	9.500893	1.995493	0.855015	-0.010077	-0.010310	0.000832	66.721074	-77.082933	-107.021553
63902	9.520966	1.978624	0.831641	-0.009166	-0.010045	-0.000903	66.741592	-77.084192	-107.042869
63903	9.515623	1.965437	0.862572	-0.007146	-0.003985	-0.001283	66.750278	-77.084134	-107.050848
63904	9.506492	2.008369	0.821935	-0.011241	-0.007552	0.006057	66.757027	-77.088491	-107.059258
63905	9.501493	1.972100	0.843638	-0.010540	-0.003306	0.003074	66.757913	-77.090574	-107.061231
63906	9.501300	1.994440	0.852941	-0.006032	-0.002946	-0.000849	66.763882	-77.090253	-107.065779
63907	9.501345	1.994329	0.852698	-0.010082	-0.005551	0.001746	66.771498	-77.092143	-107.074388
63908	9.501620	1.971724	0.843088	-0.010496	-0.002342	-0.001671	66.774334	-77.091253	-107.078346
63909	9.481638	1.988551	0.865615	-0.006031	-0.002945	-0.000850	66.780844	-77.091188	-107.083448
63910	9.501437	1.994106	0.852199	-0.007189	-0.004946	0.003458	66.786501	-77.093586	-107.088355
63911	9.521528	1.976892	0.829326	-0.008762	-0.003738	0.004349	66.788143	-77.096435	-107.090060
63912	9.516237	1.963284	0.860695	-0.003597	-0.000095	0.002189	66.785961	-77.097070	-107.084815
63913	9.501937	1.970516	0.842341	-0.012768	-0.005379	0.002199	66.791192	-77.099159	-107.092554
63914	9.510777	1.972044	0.901108	-0.004706	-0.005888	0.000832	66.803030	-77.100387	-107.102344
63915	9.516453	1.962633	0.859797	-0.007393	-0.005718	0.001287	66.813018	-77.102071	-107.111813
63916	9.501919	1.992567	0.850414	-0.009165	-0.010038	-0.000912	66.833570	-77.103315	-107.133163
63917	9.521950	1.975811	0.827051	-0.004248	-0.008132	-0.000497	66.852668	-77.104601	-107.150113
63918	9.487952	1.977406	0.821172	-0.006520	-0.011170	0.003374	66.873138	-77.108355	-107.169823
63919	9.516546	1.984817	0.866389	-0.004001	-0.006395	-0.003072	66.890925	-77.107892	-107.185298
63920	9.497165	1.956287	0.869446	-0.009910	-0.010492	0.007730	66.903625	-77.113787	-107.199030
63921	9.541874	2.003179	0.820559	-0.008260	-0.005016	-0.001724	66.914465	-77.113722	-107.209870
63922	9.522457	1.974585	0.824140	-0.010126	-0.001756	0.007407	66.907242	-77.117483	-107.203290
63923	9.502614	1.990716	0.846978	-0.010541	0.001454	0.003993	66.896254	-77.118977	-107.193096
63924	9.517296	1.960276	0.855831	-0.011651	-0.004337	0.002632	66.898795	-77.120801	-107.197429
63925	9.482857	2.006609	0.869458	-0.008096	-0.005207	0.005185	66.903386	-77.124420	-107.201763
63926	9.522920	1.972596	0.823551	-0.009206	-0.010997	0.003823	66.921520	-77.128368	-107.220654
63927	9.488760	1.996398	0.827186	-0.010777	-0.009788	0.004714	66.935613	-77.132767	-107.236323
63928	9.483621	1.982534	0.857660	-0.011681	-0.014805	0.005520	66.959478	-77.138462	-107.262547
63929	9.523321	1.993334	0.830108	-0.008788	-0.014203	0.007231	66.982461	-77.145174	-107.286156
63930	9.504047	1.964339	0.832905	-0.010570	-0.009014	0.006881	66.992283	-77.150285	-107.297321
63931	9.524201	1.946843	0.809468	-0.007220	-0.010657	0.007263	67.007972	-77.156217	-107.312526
63932	9.538326	1.983736	0.846173	-0.006733	-0.002430	0.003047	67.008540	-77.157831	-107.311945
63933	9.509647	1.998406	0.809631	-0.007641	-0.002695	0.004779	67.008009	-77.160671	-107.310771
63934	9.504595	1.962223	0.831642	-0.010744	0.000687	0.001824	67.000266	-77.160943	-107.304023
63935	9.499096	1.971161	0.872672	-0.008510	-0.001993	0.001769	67.000567	-77.162038	-107.304197
63936	9.504481	1.984225	0.841240	-0.008510	-0.001993	0.001769	67.000359	-77.162881	-107.303864
63937	9.524442	1.967314	0.818574	-0.006487	-0.000692	0.000474	67.000079	-77.163000	-107.302235
63938	9.504563	1.983817	0.841282	-0.005617	-0.001393	0.003482	66.998457	-77.164612	-107.298752
63939	9.524536	1.966870	0.818537	-0.008717	-0.002763	-0.000401	67.002544	-77.164734	-107.302953
63940	9.519020	1.975897	0.859578	-0.005828	0.002588	0.002242	66.992805	-77.164801	-107.291269
63941	9.504667	1.983210	0.841533	-0.008510	-0.001992	0.001768	66.993098	-77.165894	-107.291438
63942	9.524601	1.966315	0.819125	-0.008268	0.004498	0.000126	66.979619	-77.164417	-107.277351
63943	9.499568	1.947027	0.863965	-0.006732	-0.002429	0.003043	66.980686	-77.166280	-107.277281
63944	9.499604	1.946807	0.864056	-0.009835	0.000955	0.000089	66.974547	-77.165577	-107.271644
63945	9.504744	1.982489	0.842369	-0.009172	-0.000518	0.000927	66.971860	-77.165897	-107.269167
63946	9.504770	1.982258	0.842613	-0.009628	0.001726	0.002258	66.961921	-77.166164	-107.259511
63947	9.499672	1.946289	0.864482	-0.006483	-0.005442	-0.000459	66.973536	-77.166855	-107.270093
63948	9.524584	1.987717	0.829088	-0.008962	-0.004499	0.002165	66.978478	-77.168469	-107.275307
63949	9.485204	1.976037	0.855144	-0.010283	-0.006303	-0.000443	66.989889	-77.169360	-107.287905
63950	9.504998	1.981645	0.841482	-0.006728	-0.007179	0.002110	67.002377	-77.171544	-107.299546
63951	9.490892	1.966527	0.813285	-0.007390	-0.005706	0.001271	67.012372	-77.173205	-107.309016
63952	9.519535	1.973793	0.858706	-0.009827	-0.008545	-0.001776	67.030073	-77.173644	-107.327823
63953	9.539280	1.979580	0.845158	-0.008715	-0.002759	-0.000406	67.034131	-77.173759	-107.331955
63954	9.539463	1.957142	0.835694	-0.010041	0.000188	-0.002082	67.031775	-77.172083	-107.330319
63955	9.510846	1.949903	0.789901	-0.013178	-0.002146	-0.001228	67.032677	-77.171627	-107.333848
63956	9.505129	1.981553	0.840223	-0.008259	-0.005000	-0.001739	67.043026	-77.171292	-107.344195
63957	9.519538	1.974024	0.858142	-0.010944	-0.004827	-0.001285	67.051468	-77.171407	-107.354183
63958	9.525032	1.965100	0.817021	-0.008014	-0.003261	-0.004309	67.060446	-77.169327	-107.362979
63959	9.505068	1.982030	0.839782	-0.010040	0.000190	-0.002083	67.058543	-77.167901	-107.361842
63960	9.505267	1.959625	0.830077	-0.012510	-0.008368	-0.001328	67.073852	-77.168534	-107.379773
63961	9.525010	1.965397	0.816563	-0.008714	-0.002757	-0.000409	67.077929	-77.168646	-107.383924
63962	9.505088	1.982098	0.839398	-0.012725	0.000364	-0.001630	67.073180	-77.167170	-107.381410
63963	9.519642	1.952207	0.848146	-0.006899	-0.002224	-0.003872	67.080418	-77.165338	-107.387773
63964	9.504991	1.982489	0.839575	-0.010040	0.000192	-0.002085	67.078054	-77.163660	-107.386127
63965	9.499638	1.969199	0.871210	-0.008925	0.001226	-0.001645	67.073976	-77.162232	-107.382074
63966	9.505106	1.960234	0.830494	-0.011154	-0.000842	-0.002525	67.073798	-77.160553	-107.383325
63967	9.539160	1.958615	0.835709	-0.008017	0.001493	-0.003377	67.071290	-77.158151	-107.380347
63968	9.519200	1.975471	0.858561	-0.011605	-0.003349	-0.002129	67.076270	-77.157241	-107.387154
63969	9.504967	1.960791	0.830768	-0.009583	-0.002048	-0.003421	67.081103	-77.155607	-107.392635
63970	9.504881	1.961209	0.830769	-0.007768	-0.001515	-0.006883	67.088683	-77.151778	-107.399854
63971	9.470475	1.985856	0.835454	-0.006240	0.001054	-0.002101	67.086953	-77.150149	-107.396643
63972	9.538604	1.982629	0.845636	-0.008431	-0.000040	-0.007721	67.091556	-77.145549	-107.401198
63973	9.504369	1.984968	0.840763	-0.007561	-0.000747	-0.004713	67.095798	-77.142942	-107.404874
63974	9.504682	1.940437	0.821858	-0.005995	0.002795	-0.004669	67.092256	-77.139320	-107.399643
63975	9.504165	1.985729	0.841265	-0.006446	0.000288	-0.004273	67.094317	-77.136714	-107.400386
63976	9.518697	1.955960	0.850103	-0.008017	0.001495	-0.003379	67.091366	-77.134062	-107.396949
63977	9.469930	1.987952	0.836647	-0.003799	-0.000860	0.000013	67.093382	-77.133976	-107.396146
63978	9.518648	1.956044	0.850463	-0.010494	0.002435	-0.000755	67.084277	-77.132499	-107.387853
63979	9.498637	1.972966	0.873597	-0.010000	0.001170	-0.006829	67.084735	-77.128346	-107.389035
63980	9.503795	1.986924	0.842619	-0.007772	0.003238	-0.005948	67.080411	-77.123950	-107.384046
63981	9.538034	1.962888	0.838524	-0.009380	0.003469	-0.000315	67.069572	-77.122721	-107.373286
63982	9.489457	1.972402	0.815793	-0.006902	0.002530	-0.002940	67.064450	-77.120070	-107.366967
63983	9.528785	1.984310	0.789847	-0.008679	0.002972	-0.004219	67.058945	-77.116893	-107.361286
63984	9.489087	1.995317	0.826053	-0.009374	-0.001279	-0.001256	67.059554	-77.115981	-107.362298
63985	9.498150	1.974426	0.875583	-0.006896	-0.002218	-0.003881	67.066723	-77.114145	-107.368637
63986	9.523364	1.971312	0.821487	-0.009167	-0.000513	0.000916	67.063563	-77.114208	-107.365662
63987	9.503423	1.987934	0.844435	-0.006238	0.001057	-0.002104	67.061843	-77.112576	-107.362485
63988	9.503358	1.988183	0.844584	-0.011357	-0.001602	-0.004708	67.065428	-77.109915	-107.367716
63989	9.503482	1.966091	0.835214	-0.009792	0.001940	-0.004662	67.062121	-77.106737	-107.365002
63990	9.503371	1.966501	0.835518	-0.008222	0.000734	-0.005556	67.062944	-77.103107	-107.365557
63991	9.517477	1.981620	0.863478	-0.011150	-0.000836	-0.002537	67.063169	-77.101667	-107.367207
63992	9.522750	1.995176	0.832232	-0.009373	-0.001277	-0.001259	67.063776	-77.100753	-107.368217
63993	9.503202	1.967150	0.835911	-0.013133	-0.001158	-0.005990	67.066991	-77.097563	-107.374094
63994	9.502903	1.989848	0.845777	-0.007808	0.002265	-0.001212	67.060289	-77.095883	-107.366687
63995	9.517437	1.960125	0.854606	-0.008427	-0.000028	-0.007731	67.065284	-77.091521	-107.371589
63996	9.488469	1.976046	0.818468	-0.007314	0.001005	-0.007289	67.067688	-77.086916	-107.373232
63997	9.502512	1.991445	0.846413	-0.006650	-0.000470	-0.006453	67.073447	-77.083326	-107.377872
63998	9.496879	2.000841	0.887528	-0.005330	0.001327	-0.003837	67.072883	-77.080471	-107.375306
63999	9.488157	1.977331	0.818980	-0.007351	0.000025	-0.002550	67.073318	-77.078832	-107.374973
64000	9.502329	1.992234	0.846606	-0.007588	-0.006467	-0.000926	67.086560	-77.079252	-107.387897
64001	9.507818	1.983494	0.805569	-0.010905	0.000911	-0.005108	67.085380	-77.076063	-107.387922
64002	9.488061	1.977860	0.818813	-0.006024	-0.002925	-0.000878	67.091322	-77.075718	-107.392437
64003	9.502256	1.992590	0.846587	-0.009165	-0.000512	0.000910	67.088580	-77.076024	-107.389868
64004	9.516460	2.007233	0.874472	-0.010278	-0.001545	0.000467	67.087602	-77.076081	-107.389785
64005	9.502538	1.969905	0.836968	-0.004247	-0.003368	0.000401	67.094751	-77.076755	-107.394506
64006	9.522028	1.998178	0.833297	-0.014281	-0.003167	-0.001700	67.097315	-77.076030	-107.400409
64007	9.482663	1.986425	0.859248	-0.006260	-0.009417	0.000742	67.116862	-77.078232	-107.419008
64008	9.521881	2.020563	0.842107	-0.011597	-0.003339	-0.002151	67.121798	-77.077307	-107.425769
64009	9.502403	1.992375	0.845449	-0.008250	-0.004989	-0.001767	67.132475	-77.077197	-107.436479
64010	9.497132	1.978827	0.876691	-0.009164	-0.000511	0.000909	67.129328	-77.077257	-107.433515
64011	9.522576	1.953399	0.812783	-0.012253	-0.006609	-0.003934	67.143508	-77.076361	-107.450146
64012	9.516828	1.984939	0.863004	-0.009363	-0.006020	-0.002212	67.155949	-77.075999	-107.463292
64013	9.487992	2.000434	0.826242	-0.007792	-0.007226	-0.003107	67.173320	-77.075679	-107.480625
64014	9.522117	1.998792	0.830794	-0.012046	-0.005845	-0.001762	67.183385	-77.075514	-107.492910
64015	9.517084	1.962837	0.852306	-0.007593	-0.001716	0.000013	67.185155	-77.075613	-107.494065
64016	9.493286	2.014108	0.794364	-0.009370	-0.001272	-0.001266	67.185747	-77.074694	-107.495059
64017	9.522102	1.998863	0.830801	-0.010034	0.000205	-0.002102	67.183752	-77.073248	-107.493769
64018	9.502423	1.992892	0.844000	-0.007836	-0.003462	0.002577	67.186543	-77.074846	-107.496117
64019	9.522381	1.976193	0.821153	-0.008257	-0.000239	-0.000823	67.185349	-77.074175	-107.494621
64020	9.502218	2.015072	0.853971	-0.006487	0.004063	0.001405	67.172731	-77.073481	-107.480366
64021	9.502244	2.014810	0.854294	-0.010069	-0.000779	0.002636	67.168380	-77.074754	-107.476652
64022	9.502982	1.947264	0.825363	-0.008499	-0.001985	0.001741	67.168201	-77.075582	-107.476342
64023	9.502319	2.014374	0.854488	-0.006030	0.001826	0.000065	67.162663	-77.074918	-107.469051
64024	9.508070	1.982945	0.803941	-0.013408	-0.003873	0.001300	67.164442	-77.075933	-107.473636
64025	9.522795	1.952483	0.812420	-0.010975	-0.001049	0.004364	67.158517	-77.078183	-107.468967
64026	9.522398	1.996981	0.831926	-0.004253	0.001381	0.001345	67.153407	-77.078053	-107.461102
64027	9.517364	1.960906	0.853628	-0.008705	-0.002745	-0.000436	67.157342	-77.078145	-107.465181
64028	9.522431	1.996787	0.832014	-0.009162	-0.000507	0.000904	67.154191	-77.078202	-107.462211
64029	9.488334	1.998411	0.827219	-0.008049	0.000525	0.001349	67.149229	-77.078508	-107.456734
64030	9.508292	1.981666	0.804468	-0.008498	-0.001983	0.001738	67.149047	-77.079334	-107.456421
64031	9.502827	1.990325	0.845513	-0.005366	0.000350	0.000899	67.146467	-77.079438	-107.451766
64032	9.508171	2.003544	0.814260	-0.010311	-0.002524	0.005196	67.143137	-77.082210	-107.449288
64033	9.517579	1.959666	0.854074	-0.007349	0.000036	-0.002556	67.143507	-77.080561	-107.448851
64034	9.522653	1.995459	0.832664	-0.008748	0.001015	0.005251	67.132870	-77.082574	-107.437958
64035	9.517685	1.959108	0.854179	-0.008490	-0.006727	0.000784	67.144922	-77.084195	-107.450185
64036	9.503084	1.989091	0.845530	-0.006478	-0.000680	0.000453	67.144144	-77.084052	-107.448073
64037	9.503113	1.989006	0.845404	-0.009154	-0.005250	-0.000051	67.153200	-77.084901	-107.457564
64038	9.503391	1.966457	0.835394	-0.006264	-0.004665	0.001675	67.160535	-77.086290	-107.463650
64039	9.517607	1.981098	0.863244	-0.004010	0.003130	-0.001219	67.154381	-77.084661	-107.454600
64040	9.503467	1.966103	0.835362	-0.011208	-0.007539	0.005969	67.161338	-77.088957	-107.463204
64041	9.503371	1.988121	0.844578	-0.004694	-0.005871	0.000779	67.173578	-77.090384	-107.473423
64042	9.523358	1.971397	0.821349	-0.012742	-0.005343	0.002125	67.178332	-77.092161	-107.480668
64043	9.503761	1.965193	0.834151	-0.009395	-0.006996	0.002509	67.188796	-77.094750	-107.491777
64044	9.523348	1.993122	0.830315	-0.006056	-0.003904	0.003847	67.192399	-77.097116	-107.493911
64045	9.503967	1.964447	0.833568	-0.011628	-0.004311	0.002570	67.195353	-77.099143	-107.498684
64046	9.509062	2.000304	0.811813	-0.006021	-0.002914	-0.000890	67.201288	-77.098787	-107.503191
64047	9.503829	1.986626	0.842941	-0.010722	-0.004039	0.000840	67.205791	-77.099840	-107.509015
64048	9.509177	1.999833	0.811624	-0.008081	-0.000461	0.006083	67.198127	-77.102623	-107.500781
64049	9.504472	1.940905	0.823189	-0.013639	-0.010355	0.002894	67.213559	-77.106162	-107.519548
64050	9.523854	1.991282	0.828923	-0.010058	-0.005515	0.001672	67.220702	-77.107737	-107.527666
64051	9.504229	1.985143	0.841925	-0.008496	-0.001977	0.001732	67.220866	-77.108800	-107.527665
64052	9.489879	1.992562	0.823600	-0.012076	-0.006815	0.002952	67.228616	-77.111339	-107.537592
64053	9.519062	1.954377	0.849658	-0.005599	-0.006139	0.002501	67.239300	-77.113737	-107.546821
64054	9.543914	1.995855	0.814663	-0.014100	-0.003371	0.005189	67.235775	-77.116694	-107.546371
64055	9.490396	1.968971	0.813151	-0.008495	-0.001976	0.001731	67.235921	-77.117759	-107.546435
64056	9.504712	1.983286	0.840846	-0.009849	-0.004754	0.003844	67.239330	-77.120313	-107.550600
64057	9.524638	1.966601	0.817998	-0.007804	0.002282	-0.001215	67.232907	-77.118869	-107.543312
64058	9.504973	1.960502	0.831381	-0.008287	-0.001217	0.003905	67.228979	-77.120670	-107.539032
64059	9.504876	1.982415	0.841045	-0.012531	-0.004576	0.004290	67.230320	-77.123663	-107.542619
64060	9.524680	1.987889	0.827576	-0.008280	-0.005960	0.002946	67.238287	-77.126009	-107.550537
64061	9.519542	1.973838	0.858521	-0.009849	-0.004753	0.003841	67.242013	-77.128800	-107.554957
64062	9.524911	1.987011	0.827024	-0.012530	-0.004574	0.004288	67.243044	-77.131548	-107.558257
64063	9.505539	1.958223	0.830272	-0.008735	-0.003723	0.004288	67.244599	-77.134351	-107.559882
64064	9.491183	1.965653	0.811998	-0.010720	-0.004030	0.000832	67.248763	-77.135152	-107.565332
64065	9.490859	2.010182	0.831323	-0.007830	-0.003451	0.002559	67.251895	-77.136982	-107.568050
64066	9.525450	1.963262	0.816568	-0.007830	-0.003451	0.002559	67.254700	-77.138567	-107.570408
64067	9.505652	1.979409	0.839360	-0.006717	-0.002422	0.003007	67.255663	-77.140395	-107.570027
64068	9.505904	1.956805	0.829437	-0.008038	-0.004207	0.000382	67.262212	-77.140998	-107.576348
64069	9.530841	1.976395	0.784870	-0.006684	-0.001428	-0.001728	67.265490	-77.140116	-107.578603
64070	9.505319	2.024070	0.858542	-0.007797	-0.002456	-0.002177	67.270607	-77.138978	-107.583313
64071	9.496691	1.978369	0.779943	-0.009157	-0.000493	0.000895	67.267800	-77.139268	-107.580617
64072	9.505510	2.001653	0.848882	-0.006684	-0.001427	-0.001729	67.270738	-77.138140	-107.582439
64073	9.510964	1.992959	0.807583	-0.009600	-0.007741	0.000315	67.284988	-77.139729	-107.597571
64074	9.540084	1.954944	0.833749	-0.006475	-0.000671	0.000447	67.284185	-77.139583	-107.595432
64075	9.471444	2.003469	0.843384	-0.006229	-0.003662	-0.003075	67.294157	-77.138483	-107.604288
64076	9.525451	1.985199	0.825150	-0.010718	-0.004027	0.000827	67.298323	-77.139280	-107.609740
64077	9.506007	1.956736	0.828428	-0.005811	-0.002149	0.001277	67.300826	-77.140144	-107.610677
64078	9.505671	2.001312	0.847879	-0.005811	-0.002149	0.001277	67.303023	-77.140764	-107.611224
64079	9.505903	1.978769	0.838019	-0.005811	-0.002149	0.001277	67.305528	-77.141619	-107.611980
64080	9.511368	1.969927	0.796899	-0.005811	-0.002149	0.001277	67.307724	-77.142238	-107.612527
64081	9.540110	1.976512	0.842964	-0.009611	0.001744	0.002239	67.298155	-77.142747	-107.603261
64082	9.491787	1.963345	0.810521	-0.008738	0.001021	0.005245	67.287487	-77.144763	-107.592333
64083	9.486419	1.971709	0.851644	-0.008701	-0.002724	-0.000453	67.291350	-77.144833	-107.596211
64084	9.491876	1.962868	0.810630	-0.010059	-0.000762	0.002619	67.286597	-77.145855	-107.592128
64085	9.511588	1.968631	0.797475	-0.004907	-0.001876	-0.000452	67.290686	-77.145742	-107.594100
64086	9.505997	1.999590	0.848283	-0.010268	-0.001517	0.000442	67.289672	-77.145780	-107.593974
64087	9.506386	1.954762	0.828736	-0.007587	-0.001696	-0.000005	67.291391	-77.145864	-107.595129
64088	9.506201	1.977051	0.838702	-0.004912	0.002866	0.000513	67.283227	-77.144971	-107.584521
64089	9.486553	1.970956	0.851899	-0.010054	-0.005502	0.001652	67.290706	-77.146769	-107.592931
64090	9.506066	1.999154	0.848540	-0.007801	0.002291	-0.001217	67.283894	-77.145089	-107.585409
64091	9.486777	1.948300	0.842339	-0.008282	-0.001213	0.003897	67.280275	-77.147124	-107.581419
64092	9.511744	1.967679	0.797972	-0.010267	-0.001515	0.000440	67.279259	-77.147161	-107.581290
64093	9.506180	1.998458	0.848905	-0.006265	0.000087	0.002619	67.275020	-77.148238	-107.575561
64094	9.506597	1.953485	0.829327	-0.009604	-0.002994	0.001269	67.277007	-77.149041	-107.578121
64095	9.511668	1.989438	0.807982	-0.009818	0.000993	0.000059	67.271115	-77.148563	-107.572761
64096	9.520901	1.967801	0.857314	-0.008036	-0.004200	0.000372	67.277665	-77.149158	-107.579081
64097	9.511899	1.966858	0.798150	-0.009154	-0.000486	0.000888	67.274757	-77.149445	-107.576383
64098	9.486832	1.969274	0.852687	-0.007382	0.003802	0.003136	67.260463	-77.149730	-107.560939
64099	9.526544	1.936367	0.807017	-0.008459	-0.000967	-0.003015	67.262866	-77.148059	-107.563254
64100	9.506482	1.975183	0.839914	-0.005361	0.000361	0.000892	67.259880	-77.147920	-107.558220
64101	9.526190	1.980991	0.826731	-0.006923	-0.003172	0.000820	67.264504	-77.148763	-107.561855
64102	9.506721	1.952580	0.830038	-0.006473	-0.000666	0.000441	67.263695	-77.148613	-107.559708
64103	9.506369	1.997207	0.849733	-0.002680	0.000181	0.000446	67.263413	-77.148520	-107.555922
64104	9.526407	1.958399	0.817077	-0.007137	0.000815	-0.000389	67.259600	-77.147604	-107.551085
64105	9.506542	1.974816	0.840094	-0.006019	-0.002899	-0.000907	67.265848	-77.147477	-107.555921
64106	9.506305	1.997382	0.850028	-0.005993	0.002841	-0.004671	67.262154	-77.143849	-107.550533
64107	9.520903	1.967293	0.858455	-0.008490	-0.001965	0.001715	67.262238	-77.144896	-107.550419
64108	9.506483	1.974994	0.840344	-0.004906	-0.001872	-0.000457	67.265992	-77.144539	-107.552032
64109	9.526187	1.980858	0.827090	-0.005809	-0.002145	0.001269	67.268459	-77.145393	-107.552847
64110	9.506540	1.974745	0.840282	-0.009153	-0.000484	0.000885	67.265263	-77.145437	-107.549827
64111	9.511741	1.988547	0.809313	-0.006896	0.002569	-0.002945	67.260307	-77.143025	-107.543792
64112	9.506497	1.974769	0.840720	-0.008489	-0.001964	0.001714	67.260114	-77.143835	-107.543463
64113	9.492010	1.982773	0.822662	-0.007764	-0.001443	-0.006922	67.267810	-77.140208	-107.550852
64114	9.506408	1.975164	0.840794	-0.009152	-0.000484	0.000884	67.264616	-77.140252	-107.547833
64115	9.491971	1.982979	0.822615	-0.009356	-0.005976	-0.002264	67.277359	-77.140086	-107.561280
64116	9.506460	1.975133	0.840281	-0.007371	-0.005677	0.001193	67.286910	-77.141442	-107.570287
64117	9.526193	1.980935	0.826833	-0.006921	-0.003170	0.000816	67.291526	-77.142285	-107.574018
64118	9.486884	1.968917	0.852930	-0.009147	-0.005222	-0.000088	67.300249	-77.142863	-107.583220
64119	9.506573	1.974846	0.839675	-0.008248	-0.000209	-0.000842	67.298897	-77.142171	-107.581550
64120	9.526294	1.980622	0.826414	-0.007161	-0.004924	0.003369	67.304720	-77.144510	-107.586610
64121	9.511867	1.988394	0.808203	-0.009570	-0.001986	-0.003472	67.309244	-77.142820	-107.591732
64122	9.506448	1.997013	0.849299	-0.006472	-0.000663	0.000438	67.308433	-77.142668	-107.589583
64123	9.531900	1.949633	0.775474	-0.009151	-0.000482	0.000882	67.305511	-77.142948	-107.586848
64124	9.506682	1.974347	0.839610	-0.008488	-0.001962	0.001711	67.305321	-77.143756	-107.586520
64125	9.486876	1.990535	0.862538	-0.006921	-0.003169	0.000813	67.309965	-77.144592	-107.590186
64126	9.526448	1.979961	0.826221	-0.009600	-0.002987	0.001258	67.311950	-77.145387	-107.592744
64127	9.526626	1.957652	0.816318	-0.009570	-0.001983	-0.003474	67.316486	-77.143694	-107.597852
64128	9.506773	1.974028	0.839333	-0.008487	-0.001961	0.001709	67.316296	-77.144501	-107.597524
64129	9.506623	1.996297	0.849029	-0.008242	-0.004945	-0.001819	67.326827	-77.144338	-107.608016
64130	9.492417	1.981606	0.820772	-0.009175	-0.006223	0.004638	67.333283	-77.147634	-107.614908
64131	9.506778	1.995798	0.848463	-0.007584	-0.001687	-0.000017	67.334884	-77.147705	-107.615903
64132	9.526830	1.957026	0.815440	-0.008033	-0.004193	0.000358	67.341434	-77.148291	-107.622221
64133	9.512253	1.987009	0.807064	-0.007823	-0.003441	0.002536	67.344548	-77.150097	-107.624863
64134	9.506929	1.995306	0.847930	-0.008032	-0.004192	0.000358	67.351099	-77.150682	-107.631182
64135	9.512321	1.986831	0.806700	-0.007793	-0.002436	-0.002196	67.356454	-77.149765	-107.636140
64136	9.512533	1.964418	0.796592	-0.004479	-0.005104	0.002918	67.364681	-77.151905	-107.642089
64137	9.492775	1.980527	0.819240	-0.007368	-0.005673	0.001184	67.374519	-77.153489	-107.651410
64138	9.527012	1.978332	0.823620	-0.011399	-0.008270	0.003727	67.385347	-77.156754	-107.664095
64139	9.512825	1.963525	0.795313	-0.005143	-0.003623	0.002090	67.390822	-77.158365	-107.667626
64140	9.527193	1.977714	0.823009	-0.007822	-0.003440	0.002534	67.393652	-77.159934	-107.670004
64141	9.493324	1.956901	0.808103	-0.004933	-0.002872	0.004268	67.395417	-77.162532	-107.669600
64142	9.522183	1.963030	0.854006	-0.007163	-0.000183	0.004338	67.389322	-77.164338	-107.662437
64143	9.512970	1.984448	0.804917	-0.005358	0.000365	0.000888	67.386571	-77.164433	-107.657613
64144	9.513036	1.984095	0.805011	-0.005386	-0.000640	0.005618	67.381314	-77.167017	-107.650266
64145	9.527635	1.975540	0.823113	-0.005176	0.000110	0.007796	67.372590	-77.170830	-107.639393
64146	9.522483	1.961318	0.854591	-0.002893	0.004170	-0.000756	67.363757	-77.168982	-107.626913
64147	9.493546	1.976931	0.818988	-0.008490	0.002781	0.002683	67.351852	-77.169497	-107.614644
64148	9.508031	1.968810	0.837334	-0.004245	0.001391	0.001341	67.346669	-77.169370	-107.606702
64149	9.513303	1.982331	0.806198	-0.007612	-0.002688	0.004710	67.346029	-77.172162	-107.605453
64150	9.522656	1.960115	0.855423	-0.003371	0.000659	0.004346	67.340131	-77.173786	-107.596265
64151	9.513352	2.003647	0.816075	-0.005835	-0.003145	0.005990	67.340312	-77.177353	-107.594754
64152	9.508539	1.944694	0.827718	-0.008040	0.005288	0.002309	67.322957	-77.176877	-107.576560
64153	9.493922	1.974706	0.819994	-0.001566	0.001208	0.000897	67.320389	-77.176791	-107.569736
64154	9.527911	1.994957	0.834920	-0.011827	-0.000289	0.001320	67.314780	-77.177023	-107.565813
64155	9.493966	1.974322	0.820416	-0.006923	0.001575	0.001784	67.307417	-77.177323	-107.557233
64156	9.528132	1.972184	0.825403	-0.008485	-0.001954	0.001702	67.307218	-77.178126	-107.556894
64157	9.494044	1.973926	0.820462	-0.003128	-0.002322	0.000816	67.312043	-77.178774	-107.558545
64158	9.528250	1.971692	0.825219	-0.006498	-0.001663	0.005161	67.308946	-77.181340	-107.554067
64159	9.528469	1.949072	0.815336	-0.002678	0.000184	0.000443	67.308600	-77.181237	-107.550135
64160	9.503522	1.951200	0.869341	-0.008510	-0.007698	0.005450	67.318092	-77.185290	-107.559749
64161	9.494239	1.994841	0.829681	-0.007821	-0.003435	0.002528	67.321161	-77.187091	-107.562384
64162	9.508927	1.964389	0.837546	-0.002464	-0.003804	0.001641	67.328770	-77.188270	-107.566515
64163	9.528635	1.970253	0.824216	-0.007582	-0.001678	-0.000023	67.330339	-77.188337	-107.567556
64164	9.508998	1.964089	0.837445	-0.006259	0.000094	0.002610	67.325771	-77.189167	-107.561430
64165	9.514259	1.977626	0.806470	-0.007824	0.001302	0.003507	67.316851	-77.190436	-107.551710
64166	9.528627	1.991635	0.834674	-0.007824	0.001303	0.003507	67.307704	-77.191472	-107.541807
64167	9.503974	1.949012	0.869304	-0.007161	-0.000180	0.004333	67.301833	-77.193507	-107.534884
64168	9.509214	1.962723	0.838188	-0.006680	-0.001402	-0.001748	67.304738	-77.192364	-107.536669
64169	9.494769	1.970666	0.819910	-0.002012	-0.006034	0.000287	67.319293	-77.193555	-107.547714
64170	9.494917	1.948528	0.809615	-0.009116	-0.004197	-0.004836	67.330300	-77.191396	-107.559239
64171	9.514381	1.977186	0.806114	0.000242	-0.002979	-0.003531	67.342760	-77.189893	-107.566810
64172	9.528807	1.969584	0.823827	-0.007340	-0.004656	-0.003556	67.354603	-77.188511	-107.578148
64173	9.509105	1.963937	0.836586	-0.006887	-0.006886	-0.004909	67.373408	-77.187133	-107.596262
64174	9.489427	1.958312	0.849047	-0.002882	-0.010036	-0.003701	67.400451	-77.186858	-107.620569
64175	9.533941	1.984494	0.790933	-0.011130	-0.005493	-0.003569	67.412289	-77.185882	-107.634083
64176	9.528687	1.970939	0.821961	-0.004876	-0.000851	-0.005196	67.418271	-77.182793	-107.637963
64177	9.503787	1.951377	0.866047	-0.007788	-0.007160	-0.003187	67.435541	-77.182381	-107.655003
64178	9.533909	1.963417	0.780162	-0.009537	-0.005690	-0.009197	67.453959	-77.178238	-107.674375
64179	9.508768	1.966647	0.834049	-0.003069	-0.005035	-0.009628	67.475185	-77.173946	-107.692623
64180	9.528420	1.951364	0.810412	-0.009295	-0.008666	-0.012732	67.504036	-77.168581	-107.722554
64181	9.503088	1.977185	0.873984	-0.005504	-0.007827	-0.012720	67.533319	-77.163271	-107.750744
64182	9.513409	1.983913	0.801039	-0.006616	-0.008848	-0.013177	67.564507	-77.157703	-107.781499
64183	9.508069	1.971151	0.831379	-0.010854	-0.012191	-0.012822	67.600875	-77.153281	-107.820009
64184	9.522158	1.986913	0.858717	-0.003917	-0.003283	-0.017366	67.624638	-77.144272	-107.841564
64185	9.527262	1.979759	0.817276	-0.014437	-0.007548	-0.009671	67.645105	-77.140505	-107.866004
64186	9.532157	1.994992	0.786005	-0.013490	-0.000511	-0.019869	67.659286	-77.129562	-107.883358
64187	9.512331	1.968262	0.789485	-0.014180	-0.000040	-0.015967	67.668461	-77.120813	-107.895902
64188	9.526111	2.006471	0.827840	-0.017286	0.003388	-0.018900	67.670472	-77.109535	-107.903003
64189	9.472081	1.981807	0.826818	-0.015929	0.001439	-0.021983	67.680897	-77.097276	-107.917882
64190	9.486167	1.975693	0.845204	-0.018842	-0.000136	-0.018994	67.690230	-77.086713	-107.933410
64191	9.500087	1.991877	0.873250	-0.015253	-0.004772	-0.022153	67.715471	-77.075717	-107.963215
64192	9.505105	1.985225	0.831779	-0.017736	-0.009593	-0.015790	67.744190	-77.068905	-107.997985
64193	9.509945	2.000833	0.800086	-0.011244	-0.007915	-0.020951	67.777781	-77.059219	-108.033943
64194	9.499147	1.996848	0.872118	-0.017509	-0.003095	-0.017353	67.793034	-77.050162	-108.054764
64195	9.543430	2.002351	0.804327	-0.018153	-0.011075	-0.020163	67.829185	-77.041571	-108.097439
64196	9.528576	2.012010	0.786048	-0.012819	-0.001971	-0.019067	67.846078	-77.031357	-108.117188
64197	9.488699	2.023828	0.822830	-0.017950	0.004888	-0.019742	67.845027	-77.019536	-108.121606
64198	9.488248	2.025575	0.823733	-0.022403	0.005534	-0.020586	67.840544	-77.006894	-108.125055
64199	9.502349	2.019221	0.842630	-0.018640	0.005356	-0.015840	67.834371	-76.997043	-108.124660
64200	9.526912	2.018564	0.789413	-0.021748	0.008787	-0.018775	67.821105	-76.984659	-108.118709
64201	9.506892	2.013718	0.804028	-0.018900	0.013059	-0.011308	67.792870	-76.975538	-108.095658
64202	9.520859	2.029019	0.833281	-0.019329	0.005823	-0.011940	67.781434	-76.967421	-108.090162
64203	9.520785	2.007718	0.824520	-0.020008	0.012041	-0.011772	67.755392	-76.958279	-108.070219
64204	9.505962	2.016554	0.807914	-0.015998	0.008893	-0.010566	67.737584	-76.950224	-108.056222
64205	9.505630	2.017553	0.809316	-0.014209	0.014190	-0.013022	67.711125	-76.939943	-108.032331
64206	9.524840	2.024924	0.798075	-0.011311	0.020510	-0.015019	67.673699	-76.926997	-107.995437
64207	9.485331	1.991819	0.816600	-0.014861	0.021438	-0.017593	67.634810	-76.912707	-107.959070
64208	9.498863	2.029612	0.856861	-0.010228	0.020510	-0.009830	67.593285	-76.902499	-107.917327
64209	9.479057	2.002387	0.861988	-0.008171	0.018112	-0.016827	67.565251	-76.889328	-107.888105
64210	9.488943	2.031689	0.801454	-0.007770	0.013832	-0.008717	67.539386	-76.881160	-107.860992
64211	9.469001	2.026260	0.816277	-0.004000	0.019408	-0.007701	67.502376	-76.872524	-107.819993
64212	9.531533	2.031663	0.868928	-0.007326	0.016342	-0.009086	67.471493	-76.863603	-107.787464
64213	9.536658	2.024243	0.829462	-0.005550	0.015880	-0.007800	67.441664	-76.855685	-107.754895
64214	9.501900	2.049024	0.836565	-0.005330	0.022385	-0.009359	67.398587	-76.845282	-107.708667
64215	9.501761	2.027840	0.828813	-0.005298	0.023417	-0.014098	67.357924	-76.832367	-107.664929
64216	9.476483	2.008750	0.875375	-0.008877	0.023316	-0.011940	67.313298	-76.820378	-107.619192
64217	9.456333	2.003833	0.890948	-0.007735	0.025372	-0.016220	67.268948	-76.805886	-107.572926
64218	9.460468	2.063615	0.881804	-0.012197	0.009750	-0.010580	67.251854	-76.797607	-107.557419
64219	9.480498	2.026098	0.849415	-0.007965	0.002602	-0.008169	67.251200	-76.792407	-107.556229
64220	9.499994	2.032954	0.836501	-0.008850	-0.002416	-0.007439	67.260465	-76.788482	-107.565826
64221	9.514335	2.025731	0.854371	-0.003495	-0.002774	-0.008310	67.274558	-76.784399	-107.577143
64222	9.465282	2.058269	0.841371	-0.007076	-0.002880	-0.006151	67.284655	-76.781256	-107.586551
64223	9.504507	2.071098	0.815014	-0.012873	-0.005031	-0.004916	67.295274	-76.779469	-107.599936
64224	9.474428	2.037173	0.890030	-0.001721	-0.003237	-0.007022	67.310053	-76.775944	-107.611002
64225	9.499505	2.035689	0.835404	-0.007755	-0.007160	-0.003236	67.326847	-76.775516	-107.627793
64226	9.479825	2.029703	0.848317	-0.007333	0.000084	-0.002605	67.326781	-76.773592	-107.626912
64227	9.513632	2.050302	0.863188	-0.005335	-0.004376	-0.000125	67.335751	-76.774191	-107.634173
64228	9.528764	1.997879	0.860977	-0.008236	-0.000201	-0.000881	67.334187	-76.773241	-107.632285
64229	9.533272	2.056505	0.850203	-0.003343	0.001666	-0.000392	67.330931	-76.772369	-107.625915
64230	9.479773	2.029776	0.848726	-0.005579	0.004354	-0.000321	67.320120	-76.770709	-107.612964
64231	9.499409	2.035891	0.836005	-0.004247	0.001381	0.001333	67.315333	-76.770811	-107.605588
64232	9.513601	2.050039	0.864154	-0.000903	-0.000285	0.001724	67.315713	-76.771257	-107.601382
64233	9.484766	2.065243	0.828270	-0.002097	0.001357	0.011734	67.302431	-76.776861	-107.583955
64234	9.494345	2.041945	0.877381	-0.003442	-0.001438	0.013822	67.292558	-76.783956	-107.570711
64235	9.480450	2.026380	0.849273	-0.002539	-0.001152	0.012097	67.284370	-76.790303	-107.558746
64236	9.509371	2.031544	0.895205	0.003020	-0.000773	0.013413	67.277067	-76.797034	-107.544339
64237	9.480707	2.046135	0.858990	-0.001207	-0.004125	0.013749	67.274705	-76.804902	-107.537364
64238	9.500946	2.028893	0.835548	-0.000969	-0.002352	0.011198	67.270749	-76.810811	-107.528743
64239	9.500872	2.050145	0.845450	0.004828	-0.000203	0.009963	67.266586	-76.815815	-107.516515
64240	9.515950	2.018664	0.853115	-0.006799	-0.005533	0.017167	67.260809	-76.825582	-107.509455
64241	9.501810	2.025124	0.834872	-0.000763	-0.001613	0.013382	67.253413	-76.832717	-107.497453
64242	9.502089	2.023912	0.834624	-0.000303	-0.003837	0.012021	67.252386	-76.839390	-107.491449
64243	9.516869	2.014634	0.852386	-0.004343	-0.001715	0.015539	67.241118	-76.847671	-107.477228
64244	9.502163	2.065563	0.854350	0.002785	-0.002541	0.015956	67.235181	-76.856135	-107.464365
64245	9.482928	2.057622	0.867021	-0.000367	-0.005900	0.021488	67.229942	-76.868502	-107.454390
64246	9.464334	2.004746	0.859579	-0.004405	-0.003774	0.025004	67.214037	-76.882019	-107.435523
64247	9.518826	1.984937	0.841044	-0.010344	-0.004591	0.014582	67.206676	-76.890433	-107.428936
64248	9.518549	2.028282	0.861006	-0.001838	-0.001598	0.008179	67.203303	-76.894578	-107.421427
64249	9.484858	2.006927	0.846241	-0.010991	0.002663	0.010017	67.183427	-76.898969	-107.402356
64250	9.504913	1.990112	0.823333	-0.008268	-0.001221	0.003852	67.179634	-76.900745	-107.398200
64251	9.484873	2.027679	0.856763	-0.002754	0.002853	0.010898	67.163087	-76.905549	-107.377562
64252	9.519241	2.024706	0.861771	-0.013892	-0.003656	0.012001	67.153800	-76.912169	-107.371074
64253	9.471189	2.010948	0.828666	-0.003881	-0.003933	0.014169	67.148906	-76.920219	-107.363292
64254	9.485744	2.023793	0.856304	-0.008112	-0.007278	0.014502	67.148756	-76.928965	-107.362785
64255	9.481179	1.986051	0.876313	-0.011872	-0.017581	0.012477	67.171975	-76.939148	-107.388409
64256	9.472485	1.984839	0.815929	-0.008512	-0.013485	0.009132	67.190897	-76.946437	-107.407715
64257	9.501464	1.990425	0.860462	-0.014919	-0.022570	0.002807	67.233063	-76.952606	-107.454363
64258	9.546345	1.994553	0.791600	-0.018448	-0.015869	-0.003501	67.263859	-76.953743	-107.491700
64259	9.501590	1.990947	0.857853	-0.006366	-0.012783	-0.012057	67.302828	-76.949891	-107.530310
64260	9.486753	2.022212	0.848829	-0.009486	-0.015104	-0.011263	67.344403	-76.946746	-107.573442
64261	9.521067	1.998989	0.842280	-0.012399	-0.016689	-0.008283	67.385166	-76.945739	-107.617480
64262	9.525869	2.036326	0.820333	-0.001691	-0.006928	-0.012754	67.413938	-76.939992	-107.642886
64263	9.500921	2.016917	0.863985	-0.011522	-0.006942	-0.008004	67.432730	-76.936983	-107.663940
64264	9.525640	2.037750	0.819449	-0.003536	-0.003796	-0.003576	67.444580	-76.935399	-107.673060
64265	9.486513	2.003592	0.835525	-0.005531	0.000666	-0.006047	67.447663	-76.931754	-107.674507
64266	9.505854	2.032247	0.832558	-0.008679	-0.002692	-0.000520	67.451151	-76.931544	-107.678067
64267	9.520633	2.001961	0.840123	-0.004673	-0.005850	0.000691	67.463257	-76.932889	-107.688141
64268	9.505907	2.032237	0.831985	-0.005102	-0.002592	-0.002678	67.470607	-76.931514	-107.693563
64269	9.526212	1.972086	0.788484	-0.004866	-0.000820	-0.005224	67.476525	-76.928616	-107.697249
64270	9.486054	2.026950	0.845334	-0.001968	0.005498	-0.007201	67.471508	-76.923072	-107.688130
64271	9.471626	2.013378	0.817694	-0.007306	0.001135	-0.007335	67.473622	-76.918628	-107.689329
64272	9.500432	1.998237	0.853723	-0.008830	-0.001356	-0.012172	67.484979	-76.911957	-107.701057
64273	9.519632	2.027586	0.850610	-0.004615	-0.003779	-0.008775	67.501272	-76.907834	-107.715322
64274	9.465677	2.024134	0.858646	-0.010382	-0.004882	-0.012279	67.519839	-76.901879	-107.735366
64275	9.485359	2.009383	0.834718	-0.005665	-0.013221	-0.015983	67.563627	-76.896001	-107.778499
64276	9.504761	2.017028	0.820759	-0.010131	-0.007838	-0.015832	67.592347	-76.888804	-107.808821
64277	9.499306	2.004650	0.851210	-0.022979	-0.011797	-0.025494	67.631841	-76.877563	-107.857651
64278	9.538019	2.019782	0.824674	-0.020929	-0.003681	-0.035218	67.662945	-76.859179	-107.896778
64279	9.518184	1.972582	0.817884	-0.020016	0.002379	-0.040675	67.685995	-76.836807	-107.927268
64280	9.482609	2.022582	0.834090	-0.014888	0.006018	-0.042734	67.705384	-76.812322	-107.950815
64281	9.510490	2.032735	0.880492	-0.019530	-0.004558	-0.043067	67.746400	-76.790177	-107.999359
64282	9.481400	1.986567	0.814100	-0.021226	-0.006723	-0.054848	67.801856	-76.762022	-108.063691
64283	9.514447	1.990005	0.819154	-0.008115	0.005839	-0.056196	67.837698	-76.730649	-108.100312
64284	9.551473	2.074588	0.824172	-0.007878	0.007626	-0.058757	67.871657	-76.697299	-108.134714
64285	9.496394	2.075512	0.833784	-0.008128	0.016363	-0.058943	67.886053	-76.662185	-108.149198
64286	9.460934	2.082461	0.830679	-0.003264	0.017190	-0.053718	67.896425	-76.629443	-108.156650
64287	9.473954	2.101373	0.860168	-0.016409	0.008312	-0.046646	67.912742	-76.602588	-108.177910
64288	9.512875	2.074012	0.814563	-0.005033	0.006125	-0.047568	67.941071	-76.575492	-108.204865
64289	9.530715	2.128856	0.822672	-0.004886	0.010538	-0.039629	67.952585	-76.551872	-108.214240
64290	9.490633	2.119625	0.850076	-0.014716	0.010486	-0.034883	67.954140	-76.530572	-108.219375
64291	9.504330	2.114937	0.869425	-0.002936	0.015540	-0.035144	67.951685	-76.508269	-108.213506
64292	9.489405	2.103669	0.842745	-0.017417	0.009615	-0.029717	67.948979	-76.489900	-108.215852
64293	9.508661	2.090698	0.821083	-0.012534	0.017270	-0.032954	67.935211	-76.468397	-108.204241
64294	9.433672	2.126578	0.864663	-0.003697	0.019665	-0.025480	67.914448	-76.450114	-108.179928
64295	9.486760	2.133638	0.858217	-0.025036	0.011600	-0.024047	67.898113	-76.434541	-108.172694
64296	9.461973	2.092706	0.893676	-0.017708	0.011518	-0.021427	67.883719	-76.420164	-108.163188
64297	9.432399	2.110320	0.858741	-0.018770	-0.000015	-0.019176	67.892144	-76.409682	-108.177779
64298	9.486136	2.094952	0.840790	-0.025394	-0.000356	-0.025729	67.903250	-76.395580	-108.199039
64299	9.485591	2.097187	0.841365	-0.011848	0.004238	-0.024681	67.911204	-76.381234	-108.208495
64300	9.484600	2.121469	0.852161	-0.010976	0.003476	-0.021662	67.918501	-76.368465	-108.217338
64301	9.503740	2.129753	0.839538	-0.012311	0.000670	-0.019581	67.929531	-76.357619	-108.230790
64302	9.483259	2.147166	0.863159	-0.008331	0.002247	-0.017348	67.937175	-76.347403	-108.238431
64303	9.483411	2.126306	0.853339	-0.011039	0.001359	-0.012169	67.940656	-76.340328	-108.243049
64304	9.488685	2.119434	0.812582	-0.009737	0.003107	-0.009503	67.938660	-76.334094	-108.241598
64305	9.502482	2.134580	0.841518	-0.009544	0.009622	-0.011042	67.924004	-76.325860	-108.227170
64306	9.477570	2.114555	0.886711	-0.006469	0.010901	-0.007079	67.904743	-76.319233	-108.206024
64307	9.477349	2.115181	0.887579	-0.005758	0.004684	-0.007269	67.899764	-76.314069	-108.199418
64308	9.502258	2.114510	0.834126	-0.004895	0.009709	-0.007981	67.884830	-76.307219	-108.181795
64309	9.461851	2.146492	0.881703	-0.001820	0.010987	-0.004017	67.865503	-76.302403	-108.157725
64310	9.481832	2.130978	0.859211	-0.002915	0.004174	-0.000752	67.857377	-76.300582	-108.145942
64311	9.447679	2.132336	0.854667	0.002403	0.002768	0.003138	67.851977	-76.301340	-108.133837
64312	9.481470	2.152459	0.869608	0.002177	-0.004811	0.009427	67.857312	-76.306861	-108.132905
64313	9.481740	2.151414	0.869247	0.001905	-0.001870	0.012995	67.853080	-76.313849	-108.122239
64314	9.457495	2.128995	0.912856	0.002309	-0.006210	0.021123	67.851161	-76.325880	-108.113764
64315	9.484168	2.081252	0.837104	0.004361	-0.015408	0.022584	67.869388	-76.340881	-108.124787
64316	9.469673	2.109378	0.828215	0.007664	-0.006551	0.020258	67.872049	-76.352526	-108.117869
64317	9.524248	2.090684	0.809514	-0.012543	-0.000964	0.009923	67.860339	-76.357693	-108.108101
64318	9.460030	2.078483	0.890411	-0.000979	0.009159	0.003756	67.838364	-76.357187	-108.080927
64319	9.424945	2.124120	0.906284	-0.004211	-0.003361	0.000316	67.845111	-76.357784	-108.085535
64320	9.479705	2.084784	0.876853	-0.012325	-0.017750	-0.003637	67.882053	-76.359166	-108.125679
64321	9.484201	2.121951	0.855395	0.001638	0.000930	-0.010398	67.892344	-76.353133	-108.130082
64322	9.469998	2.108442	0.826885	-0.004572	-0.009537	-0.005094	67.917053	-76.351964	-108.153067
64323	9.484028	2.123185	0.854251	-0.002567	-0.008219	-0.006351	67.941368	-76.350064	-108.174719
64324	9.483504	2.145868	0.863697	-0.004572	-0.009537	-0.005095	67.966068	-76.348890	-108.197694
64325	9.424775	2.126744	0.901888	-0.009917	-0.014980	-0.000503	67.995668	-76.351540	-108.229097
64326	9.484679	2.101513	0.840852	-0.021914	-0.021823	0.002282	68.030804	-76.356915	-108.273037
64327	9.470241	2.109408	0.821618	-0.020117	-0.015438	-0.004905	68.059419	-76.357309	-108.309326
64328	9.471117	2.065795	0.800185	-0.036269	-0.017720	-0.015038	68.092634	-76.352589	-108.359753
64329	9.539506	2.042678	0.799103	-0.024852	-0.006186	-0.032898	68.122981	-76.336113	-108.400520
64330	9.458822	2.087412	0.882326	-0.018917	0.001319	-0.057868	68.161929	-76.304543	-108.446622
64331	9.456661	2.136828	0.903140	-0.034681	-0.006365	-0.055146	68.206116	-76.276256	-108.507382
64332	9.402432	2.114409	0.900407	-0.043662	-0.026821	-0.053687	68.288094	-76.252866	-108.612387
64333	9.524869	2.128615	0.768594	-0.044009	-0.032966	-0.059136	68.387571	-76.228033	-108.735480
64334	9.542230	2.184753	0.775311	-0.034694	-0.000519	-0.058922	68.421420	-76.196239	-108.785660
64335	9.423144	2.172580	0.865100	-0.047237	0.004293	-0.052737	68.432268	-76.166944	-108.819822
64336	9.471850	2.123558	0.868658	-0.064104	0.001378	-0.054238	68.440872	-76.137241	-108.861370
64337	9.509256	2.163190	0.854394	-0.053277	0.005084	-0.047991	68.442412	-76.110277	-108.888884
64338	9.497283	2.234036	0.828226	-0.045348	0.014037	-0.047234	68.428389	-76.081640	-108.896061
64339	9.472868	2.172463	0.854178	-0.070512	0.014546	-0.043880	68.396183	-76.054880	-108.899163
64340	9.452257	2.169274	0.870307	-0.047047	0.023619	-0.039543	68.354212	-76.028318	-108.878547
64341	9.415948	2.217521	0.889369	-0.036490	0.024421	-0.025956	68.305312	-76.009031	-108.844732
64342	9.332956	2.155313	0.964582	-0.045426	0.010831	-0.006001	68.263275	-76.003026	-108.823087
64343	9.450832	2.172979	0.876519	-0.042513	-0.020919	0.001618	68.284345	-76.008014	-108.864803
64344	9.549326	2.183745	0.800311	-0.014640	-0.006702	0.003160	68.289604	-76.010602	-108.873722
64345	9.509084	2.214339	0.846974	-0.011316	-0.002553	-0.000162	68.290837	-76.010755	-108.876745
64346	9.470151	2.200418	0.872906	-0.031333	-0.010007	0.008601	68.288968	-76.016940	-108.888175
64347	9.495498	2.198474	0.818575	-0.024745	-0.003892	0.011473	68.275599	-76.023574	-108.884137
64348	9.471375	2.175677	0.862517	-0.019426	-0.005318	0.015377	68.264749	-76.032371	-108.879281
64349	9.487627	2.121855	0.859088	-0.021794	-0.013874	0.015923	68.270507	-76.043479	-108.892976
64350	9.498394	2.127765	0.786615	-0.012526	-0.001030	0.009906	68.259087	-76.048455	-108.883459
64351	9.508692	2.082739	0.825683	-0.024927	0.009215	-0.007680	68.233752	-76.042101	-108.866966
64352	9.413672	2.131461	0.892997	-0.004934	0.022475	-0.020145	68.202079	-76.026089	-108.832097
64353	9.442860	2.095598	0.919934	-0.012958	0.009214	-0.028966	68.201825	-76.008415	-108.834481
64354	9.460441	2.149377	0.928456	0.004040	0.003793	-0.034280	68.227302	-75.988854	-108.853207
64355	9.474982	2.174887	0.825842	0.005170	0.005911	-0.038562	68.252645	-75.966758	-108.870838
64356	9.501998	2.206943	0.883114	-0.004167	0.010507	-0.043703	68.267008	-75.940755	-108.882959
64357	9.467467	2.190078	0.868954	-0.009739	0.009043	-0.040313	68.278415	-75.917059	-108.895057
64358	9.501264	2.170754	0.864413	-0.008128	0.008961	-0.045985	68.295619	-75.890167	-108.912449
64359	9.519605	2.182217	0.852610	-0.002098	0.014057	-0.054496	68.312708	-75.857876	-108.926305
64360	9.418008	2.241704	0.960264	0.003056	0.006111	-0.049083	68.344783	-75.829934	-108.952431
64361	9.359883	2.181439	0.977912	-0.008098	-0.018619	-0.039150	68.414224	-75.812697	-109.023575
64362	9.428371	2.212392	0.864346	0.004016	-0.033897	-0.031765	68.516430	-75.802384	-109.121476
64363	9.500562	2.249326	0.850414	0.008758	-0.029500	-0.020662	68.602883	-75.797247	-109.200561
64364	9.549789	2.271959	0.749840	-0.002967	-0.019723	-0.015150	68.657303	-75.792770	-109.253302
64365	9.585038	2.228127	0.733493	-0.028587	0.005805	-0.018328	68.645976	-75.781479	-109.253485
64366	9.559307	2.230560	0.790687	-0.033818	0.040258	-0.025849	68.565273	-75.758765	-109.185067
64367	9.460124	2.220624	0.871394	-0.043545	0.051376	-0.021599	68.452573	-75.736175	-109.089727
64368	9.381199	2.194997	0.928589	-0.050491	0.036937	-0.020453	68.365316	-75.716978	-109.024391
64369	9.395171	2.188351	0.950078	-0.028352	0.022499	-0.015573	68.317178	-75.703603	-108.985982
64370	9.439372	2.195808	0.884928	-0.025993	0.009281	-0.012986	68.295774	-75.694209	-108.974111
64371	9.477292	2.232699	0.870478	-0.012556	0.003752	-0.016137	68.296303	-75.684501	-108.976678
64372	9.476164	2.255881	0.882140	-0.021615	0.013361	-0.011056	68.267327	-75.675269	-108.954403
64373	9.482207	2.227334	0.832256	-0.040938	0.011284	-0.009995	68.231042	-75.667231	-108.935716
64374	9.510370	2.234141	0.880506	-0.032081	0.015835	-0.011939	68.191729	-75.656996	-108.908958
64375	9.494571	2.264985	0.875391	-0.039614	0.014129	-0.012079	68.152021	-75.647245	-108.886108
64376	9.495776	2.221374	0.856761	-0.045479	0.015549	-0.005096	68.100012	-75.640700	-108.854167
64377	9.494620	2.244078	0.869796	-0.042922	0.016921	-0.017269	68.056990	-75.627591	-108.830064
64378	9.528968	2.222202	0.867271	-0.046599	0.027328	-0.017801	67.990655	-75.611756	-108.783993
64379	9.460732	2.203954	0.850787	-0.048814	0.031138	-0.022504	67.919398	-75.592790	-108.734034
64380	9.454924	2.191297	0.885673	-0.047830	0.033709	-0.033782	67.852867	-75.567068	-108.688480
64381	9.452220	2.238369	0.910871	-0.035325	0.033709	-0.038911	67.798112	-75.538809	-108.647471
64382	9.372852	2.214247	0.966402	-0.039462	0.031471	-0.043434	67.749449	-75.508431	-108.615409
64383	9.431062	2.216797	0.920487	-0.033776	0.022420	-0.044167	67.723511	-75.479822	-108.603291
64384	9.424163	2.227538	0.964486	-0.029558	0.019963	-0.040725	67.702037	-75.453372	-108.593446
64385	9.414294	2.231981	0.907390	-0.025681	0.010264	-0.037996	67.700489	-75.430664	-108.601522
64386	9.500264	2.262351	0.916824	-0.025713	0.016119	-0.041722	67.689949	-75.404520	-108.600695
64387	9.425875	2.253235	0.940298	-0.027405	0.027875	-0.043493	67.656060	-75.375094	-108.577009
64388	9.420607	2.220131	0.963467	-0.026231	0.024187	-0.044072	67.630913	-75.345947	-108.561392
64389	9.408813	2.269017	0.928305	-0.018024	0.024411	-0.043095	67.609451	-75.317480	-108.544910
64390	9.421330	2.286856	0.959311	-0.023286	0.020021	-0.043344	67.593942	-75.289625	-108.537508
64391	9.395732	2.268694	1.004820	-0.020262	0.011127	-0.043658	67.598418	-75.263741	-108.548808
64392	9.453273	2.293808	0.967069	-0.014481	-0.002645	-0.045437	67.635302	-75.239723	-108.590365
64393	9.477544	2.298340	0.913252	-0.022224	0.000806	-0.051555	67.665924	-75.211933	-108.630547
64394	9.413744	2.245210	0.972388	-0.020774	0.000089	-0.059470	67.705002	-75.179870	-108.678114
64395	9.474911	2.308764	0.914272	-0.021675	-0.000225	-0.057757	67.742674	-75.148970	-108.724615
64396	9.451966	2.226608	0.926500	-0.027290	0.001006	-0.070965	67.785195	-75.110595	-108.779622
64397	9.523340	2.247254	0.906610	-0.017135	0.005344	-0.087795	67.838311	-75.062537	-108.839441
64398	9.541508	2.241841	0.884529	-0.008564	0.017886	-0.112247	67.890766	-74.998583	-108.893650
64399	9.538347	2.254323	0.886899	0.004185	0.030753	-0.149846	67.954840	-74.912089	-108.952409
64400	9.509073	2.269158	0.943849	0.017723	0.033543	-0.166356	68.033416	-74.815999	-109.018118
64401	9.471736	2.264877	0.930664	0.026355	0.029078	-0.186777	68.140724	-74.710178	-109.108257
64402	9.593520	2.305044	0.904567	0.029523	0.032455	-0.221997	68.269055	-74.584656	-109.218618
64403	9.570536	2.277696	0.898709	0.022971	0.033745	-0.270328	68.426073	-74.433265	-109.362693
64404	9.517237	2.319935	0.979648	0.060052	0.057765	-0.310280	68.585366	-74.255213	-109.487206
64405	9.494363	2.359368	0.965263	0.059924	0.045270	-0.344370	68.789730	-74.061658	-109.658347
64406	9.459867	2.393295	1.022387	0.072128	0.052112	-0.370181	69.002160	-73.852529	-109.831189
64407	9.488948	2.445185	0.999472	0.081158	0.043522	-0.392308	69.245905	-73.633323	-110.031122
64408	9.588696	2.456259	0.965604	0.084590	0.052963	-0.425087	69.490844	-73.394194	-110.230812
64409	9.667549	2.544439	0.947150	0.099346	0.082683	-0.452738	69.703553	-73.134270	-110.388040
64410	9.682344	2.598186	1.000108	0.104014	0.106635	-0.488542	69.894220	-72.849982	-110.519884
64411	9.687530	2.743749	1.097293	0.118552	0.136652	-0.526089	70.059877	-72.539627	-110.615830
64412	9.709060	2.754299	1.094608	0.096255	0.191756	-0.558734	70.135484	-72.200724	-110.632056
64413	9.531772	2.755085	1.021592	0.155655	0.205200	-0.579813	70.233754	-71.848059	-110.636076
64414	9.525061	2.887101	1.055715	0.129638	0.207382	-0.607647	70.327688	-71.479740	-110.651524
64415	9.542274	2.956363	0.945946	0.121199	0.204473	-0.624286	70.428974	-71.103184	-110.679267
64416	9.648099	3.053090	1.033177	0.107304	0.152725	-0.637908	70.607134	-70.728946	-110.797449
64417	9.471299	3.005363	1.066225	0.096918	0.163521	-0.668957	70.774220	-70.335960	-110.909992
64418	9.568110	3.129736	1.394330	0.117134	0.165527	-0.685463	70.952568	-69.933351	-111.022955
64419	9.297644	2.849646	1.028070	0.132940	0.141605	-0.734897	71.193722	-69.508434	-111.192905
64420	9.355890	3.282361	1.220414	0.227277	0.109542	-0.763562	71.539338	-69.073349	-111.417840
64421	9.316997	3.267187	1.235740	0.110515	0.060117	-0.785570	71.886371	-68.634934	-111.716523
64422	9.372503	3.151287	1.270159	0.128123	0.046047	-0.813194	72.261760	-68.183040	-112.035917
64423	9.307777	3.241732	1.173716	0.206159	0.059458	-0.856056	72.667588	-67.704877	-112.340948
64424	9.204590	3.458319	1.208077	0.240295	0.063743	-0.886438	73.084556	-67.208292	-112.637934
64425	9.364482	3.551596	1.211491	0.183762	0.030390	-0.913014	73.507289	-66.702055	-112.977488
64426	9.360083	3.561819	1.096114	0.197516	0.036836	-0.957630	73.929889	-66.169017	-113.309619
64427	9.244144	3.763097	1.058871	0.267343	0.077561	-1.000428	74.340912	-65.605331	-113.586649
64428	9.178285	3.917283	1.157019	0.223015	0.053913	-1.036276	74.751394	-65.024392	-113.892285
64429	9.073759	3.871630	1.136068	0.178535	0.030088	-1.071763	75.159371	-64.426738	-114.224811
64430	9.069768	4.007917	1.075140	0.223460	0.044248	-1.111103	75.571670	-63.803951	-114.535220
64431	8.824892	4.174783	1.120206	0.236010	0.045139	-1.142664	75.982469	-63.162833	-114.837615
64432	8.728915	4.249473	1.211698	0.167235	0.015314	-1.158731	76.374246	-62.515648	-115.164635
64433	8.709964	4.245060	1.156936	0.165859	-0.006428	-1.171063	76.774912	-61.863746	-115.504540
64434	8.588742	4.370433	1.115759	0.213813	0.013188	-1.178351	77.168059	-61.203879	-115.806715
64435	8.603819	4.619690	1.140774	0.213727	0.005065	-1.194291	77.557633	-60.535435	-116.106796
64436	8.705578	4.837214	1.307925	0.154951	-0.009430	-1.193296	77.912826	-59.868092	-116.408041
64437	8.902081	4.704993	1.340312	0.112856	0.041733	-1.190620	78.181507	-59.195658	-116.638958
64438	8.401169	4.647316	0.916845	0.250705	0.117791	-1.210604	78.451827	-58.502360	-116.781139
64439	8.306295	5.178579	0.936969	0.288881	0.125951	-1.221063	78.729943	-57.802212	-116.907824
64440	8.340786	5.325065	0.920033	0.142133	0.074064	-1.208762	78.959819	-57.114148	-117.077983
64441	8.496533	5.236478	0.841213	0.090755	0.066255	-1.205609	79.158810	-56.428658	-117.247742
64442	8.389408	5.267389	0.903442	0.132254	0.111621	-1.217138	79.338372	-55.731237	-117.366794
64443	8.120028	5.447873	0.858703	0.182050	0.127898	-1.222785	79.528262	-55.029011	-117.464723
64444	8.075341	5.676829	0.783539	0.178413	0.088008	-1.211352	79.740563	-54.336854	-117.593506
64445	8.065373	5.785415	1.145575	0.109024	0.035590	-1.199247	79.946059	-53.656848	-117.764129
64446	7.860981	5.526320	0.886688	0.094318	0.032517	-1.195694	80.138382	-52.978512	-117.930330
64447	7.766188	5.770754	0.912048	0.175786	0.078777	-1.205605	80.338175	-52.290049	-118.048698
64448	7.634682	5.916810	1.119195	0.148217	0.046272	-1.193253	80.538723	-51.611113	-118.189185
64449	7.724485	5.887271	1.041932	0.088065	0.021941	-1.182312	80.715301	-50.940648	-118.344434
64450	7.669284	5.979886	1.055793	0.154542	0.038797	-1.195587	80.914234	-50.260521	-118.480821
64451	7.590818	6.112879	1.085769	0.163830	0.040638	-1.194213	81.111836	-49.581014	-118.609859
64452	7.511661	6.198572	1.019419	0.159217	0.034509	-1.197948	81.306113	-48.899347	-118.739316
64453	7.337100	6.298813	0.998713	0.177702	0.034299	-1.196926	81.506073	-48.218295	-118.863569
64454	7.420412	6.424334	0.982761	0.156755	0.017852	-1.196729	81.699497	-47.538148	-118.996523
64455	7.401258	6.498014	1.021113	0.168807	0.019881	-1.201592	81.894234	-46.855087	-119.123304
64456	7.399353	6.601923	0.882611	0.178106	0.018018	-1.207237	82.091187	-46.168373	-119.247230
64457	7.630024	6.824549	0.953369	0.164711	0.024158	-1.226960	82.274005	-45.470022	-119.363588
64458	7.613588	6.913464	0.920305	0.163573	0.049619	-1.240858	82.438531	-44.761280	-119.456470
64459	7.563955	7.000230	0.850807	0.178716	0.068532	-1.255120	82.598703	-44.043171	-119.531896
64460	7.533679	7.084296	0.892015	0.156698	0.072192	-1.272498	82.742316	-43.314451	-119.602611
64461	7.446609	7.181954	0.755225	0.164687	0.089092	-1.298883	82.880454	-42.569741	-119.659531
64462	7.459669	7.324795	0.687934	0.148384	0.116142	-1.333039	82.994953	-41.803270	-119.695994
64463	7.324942	7.378312	0.595941	0.139103	0.173274	-1.379604	83.076561	-41.006666	-119.691309
64464	7.163673	7.413888	0.370502	0.134016	0.209316	-1.448806	83.140940	-40.167862	-119.664564
64465	7.105245	7.648627	0.406624	0.103118	0.230989	-1.522233	83.181478	-39.286212	-119.627703
64466	6.760742	7.811639	0.266005	0.125278	0.214189	-1.594696	83.246384	-38.364113	-119.608775
64467	6.608012	8.015582	0.458859	0.075554	0.135380	-1.658546	83.320634	-37.411384	-119.650993
64468	6.633346	8.051559	0.700325	-0.111473	-0.002830	-1.704297	83.347518	-36.441379	-119.793737
64469	6.592288	7.918375	0.749091	-0.113412	-0.059792	-1.759748	83.396067	-35.443921	-119.978553
64470	6.117472	8.006856	0.602659	0.044906	-0.094136	-1.838948	83.547256	-34.402943	-120.188973
64471	5.845809	8.230823	0.494389	0.111458	-0.229900	-1.924499	83.785136	-33.321678	-120.492192
64472	6.176785	8.710255	0.588202	0.035546	-0.412615	-1.989270	84.039065	-32.213111	-120.914486
64473	6.619389	8.760069	0.575290	-0.059461	-0.584453	-2.071384	84.289226	-31.066636	-121.446611
64474	7.374882	8.748941	0.715705	-0.137340	-0.678368	-2.136100	84.512947	-29.886202	-122.032993
64475	7.852303	8.711517	0.826613	-0.089824	-0.650936	-2.241402	84.741610	-28.642733	-122.595592
64476	7.791850	8.690988	0.774171	0.016812	-0.594767	-2.364834	85.000492	-27.323383	-123.116123
64477	7.554801	8.760113	0.857252	0.021166	-0.589150	-2.486781	85.246707	-25.932713	-123.626990
64478	6.995001	8.337623	0.732407	-0.012148	-0.604232	-2.626226	85.464025	-24.460688	-124.142031
64479	6.583732	7.919997	0.533441	-0.028208	-0.601268	-2.785169	85.657435	-22.896758	-124.651094
64480	6.181291	7.830494	0.326826	0.008313	-0.575503	-2.984653	85.851384	-21.215504	-125.141544
64481	5.628814	7.901871	0.256226	0.035437	-0.560002	-3.200044	86.042990	-19.409781	-125.620165
64482	5.279548	8.060504	0.070334	0.004479	-0.576760	-3.382967	86.204027	-17.497987	-126.104952
64483	4.825036	8.126429	0.000710	-0.085949	-0.608730	-3.548731	86.302132	-15.492447	-126.605679
64484	4.647563	7.247970	-0.164429	-0.312522	-0.678038	-3.625352	86.262618	-13.444560	-127.144219
64485	6.133331	7.761557	-1.416864	-0.303650	-0.954997	-3.163741	86.241693	-11.672188	-127.824190
64486	7.148177	8.473297	-0.371292	-0.388205	-0.924478	-2.576181	86.145338	-10.234291	-128.461427
64487	7.582890	7.515571	-0.300209	-0.676820	-1.351324	-1.782620	85.907602	-9.269879	-129.316187
64488	8.464234	6.784513	-0.003183	-0.805944	-1.354898	-1.050021	85.580343	-8.727258	-130.144319
64489	9.072520	6.608831	0.612728	-0.669703	-1.049965	-0.268584	85.295214	-8.622802	-130.762580
64490	9.155412	6.535309	1.075939	-0.531208	-0.560782	0.380610	85.042137	-8.866887	-131.067056
64491	8.846984	6.833944	1.414025	-0.372440	-0.014690	0.903049	84.827965	-9.384394	-131.028555
64492	8.053243	7.165331	1.407486	-0.320439	0.508011	1.306773	84.587581	-10.102802	-130.663548
64493	7.258052	7.381350	1.348360	-0.353475	0.933540	1.633206	84.274196	-10.983880	-130.028961
64494	6.548508	7.557521	1.285788	-0.390336	1.266647	1.886705	83.886047	-11.983994	-129.177720
64495	5.762962	7.596367	1.050157	-0.384173	1.517215	2.074833	83.449812	-13.071515	-128.157622
64496	4.752382	7.426725	0.873451	-0.403036	1.650332	2.195666	82.959678	-14.208553	-127.037418
64497	3.521425	7.111825	0.564550	-0.377808	1.640204	2.247062	82.458849	-15.368340	-125.903600
64498	2.640323	6.990770	0.409697	-0.317054	1.465763	2.246489	81.994359	-16.529780	-124.856261
64499	1.977813	6.780328	0.375145	-0.340350	1.155881	2.218985	81.546289	-17.695273	-123.979279
64500	1.779396	6.500010	0.406482	-0.388978	0.725925	2.223012	81.128766	-18.891474	-123.343295
64501	2.293034	6.137241	0.581839	-0.421563	0.361553	2.207336	80.748955	-20.109738	-122.914208
64502	3.046985	5.879850	0.805875	-0.340067	0.153721	2.178373	80.448800	-21.326366	-122.602452
64503	3.944559	5.915491	1.115391	-0.272480	0.062961	2.161541	80.199190	-22.543121	-122.338925
64504	4.974477	5.978603	1.464931	-0.268622	0.031212	2.218621	79.948600	-23.791840	-122.080522
64505	5.968466	6.023584	1.685856	-0.267946	0.103043	2.356532	79.664577	-25.112300	-121.753387
64506	6.680749	6.009771	1.849402	-0.216272	0.215791	2.623207	79.353835	-26.567303	-121.313340
64507	6.599554	6.110642	1.824496	-0.074194	0.374168	2.917434	79.044594	-28.171229	-120.722632
64508	5.601007	6.463466	1.808851	0.024803	0.446869	3.162686	78.729966	-29.899647	-120.034898
64509	4.681202	6.685593	1.764990	-0.086017	0.338736	3.284187	78.348630	-31.707493	-119.377224
64510	4.031674	6.532052	1.649169	-0.231436	0.152669	3.274302	77.918814	-33.525093	-118.816651
64511	3.815533	6.351464	1.587280	-0.264090	0.000886	3.157781	77.507542	-35.295024	-118.348334
64512	3.981108	6.243920	1.650254	-0.245268	-0.131308	2.994633	77.150132	-36.985157	-117.972183
64513	4.533762	6.136648	1.779376	-0.266143	-0.258797	2.829235	76.830684	-38.600126	-117.692092
64514	5.404807	5.937910	1.907293	-0.262591	-0.320678	2.702429	76.538616	-40.148801	-117.461028
64515	6.304189	5.718911	1.995482	-0.223150	-0.302811	2.620469	76.254800	-41.651058	-117.215699
64516	7.091434	5.632130	1.993619	-0.122880	-0.236151	2.575287	75.985488	-43.115563	-116.913247
64517	7.488833	5.502681	1.852485	-0.000831	-0.143354	2.561848	75.720695	-44.561137	-116.524939
64518	7.692774	5.249623	1.731319	0.113833	-0.074496	2.572375	75.461471	-45.998859	-116.061337
64519	7.830804	4.978683	1.621344	0.181767	-0.060651	2.573858	75.208383	-47.436559	-115.564301
64520	7.856324	5.063091	1.478137	0.304155	-0.049426	2.570031	74.994580	-48.866452	-115.036665
64521	7.937013	5.538510	1.528562	0.437543	-0.057824	2.550315	74.839716	-50.288236	-114.497920
64522	8.237092	5.845931	1.628521	0.338788	-0.152159	2.567465	74.663805	-51.730015	-114.015455
64523	8.680931	5.669453	1.590071	0.243524	-0.232763	2.572908	74.463083	-53.188788	-113.580587
64524	9.107738	5.462235	1.621558	0.234783	-0.222771	2.576218	74.223533	-54.644114	-113.111572
64525	9.326373	5.095102	1.452678	0.212620	-0.198597	2.579038	73.919382	-56.098590	-112.588366
64526	9.689364	4.819065	1.272979	0.218888	-0.170268	2.585862	73.557235	-57.547806	-111.999923
64527	10.042410	4.565334	1.132744	0.297147	-0.123722	2.605154	73.148166	-59.000530	-111.313504
64528	10.268082	4.384369	0.946378	0.406055	-0.067722	2.644981	72.685218	-60.460113	-110.502370
64529	10.584630	4.415977	1.010887	0.494792	-0.053679	2.682374	72.180403	-61.936984	-109.597634
64530	10.932070	4.783132	1.159383	0.570373	-0.035860	2.727621	71.608175	-63.428390	-108.580211
64531	11.013807	5.482425	1.321120	0.618659	0.015467	2.773044	70.891267	-64.932462	-107.385055
64532	10.885902	6.158534	1.445793	0.575377	0.029660	2.804449	69.998297	-66.440539	-106.038050
64533	10.669571	6.730826	1.512722	0.458457	-0.004756	2.808495	68.925126	-67.950718	-104.584122
64534	10.581286	6.939264	1.569069	0.242723	-0.087422	2.788768	67.670927	-69.453446	-103.083496
64535	10.804953	6.763504	1.524282	0.026211	-0.184709	2.755113	66.239878	-70.949662	-101.541880
64536	11.133880	6.517354	1.478772	-0.068789	-0.206120	2.710917	64.575191	-72.410772	-99.824731
64537	11.242042	6.376263	1.437685	-0.110114	-0.181979	2.657918	62.585937	-73.823054	-97.807200
64538	11.145273	6.222299	1.350196	-0.155072	-0.172446	2.595461	60.246761	-75.175851	-95.466946
64539	10.997918	6.048661	1.222191	-0.167712	-0.167827	2.515662	57.526101	-76.461499	-92.755341
64540	10.830486	5.949075	1.093445	-0.153873	-0.169132	2.426716	54.401006	-77.667729	-89.634427
64541	10.752879	5.872929	1.025140	-0.123105	-0.168842	2.322242	50.817690	-78.785418	-86.041651
64542	10.651020	5.944942	0.961479	-0.085953	-0.169666	2.220972	46.719273	-79.806422	-81.915924
64543	10.592314	5.931040	0.887455	-0.049245	-0.158336	2.131406	41.961012	-80.726495	-77.112305
64544	10.442816	6.061472	0.836947	-0.011111	-0.151693	2.057465	36.451748	-81.539155	-71.538034
64545	10.244218	6.267645	0.849869	0.000315	-0.151703	2.001342	30.044181	-82.242031	-65.061089
64546	9.987094	6.437164	0.882109	-0.001706	-0.167778	1.967538	22.656857	-82.828905	-57.606852
64547	9.472265	6.541851	0.887624	-0.025356	-0.184625	1.909194	14.388684	-83.277722	-49.287691
64548	8.897845	6.671634	0.930705	0.004668	-0.210435	1.813055	5.692418	-83.577528	-40.526431
64549	8.393183	6.862709	1.135389	-0.071260	-0.287751	1.712807	-3.177098	-83.763789	-31.639038
64550	8.770026	7.131211	1.425416	-0.237101	-0.396534	1.638919	-12.179283	-83.862940	-22.715957
64551	8.835179	6.471057	1.453398	-0.452185	-0.377395	1.552345	-20.917713	-83.815796	-14.182709
64552	8.355627	5.480571	1.432445	-0.506698	-0.298024	1.460484	-28.752442	-83.618151	-6.587834
64553	7.961158	5.080354	1.411730	-0.506079	-0.270876	1.388247	-35.647071	-83.324146	0.064703
64554	7.606456	4.816492	1.332887	-0.585696	-0.339873	1.330573	-41.945798	-82.997243	6.075509
64555	7.742049	4.368709	1.181566	-0.786420	-0.456670	1.260164	-47.927734	-82.671233	11.655226
64556	8.179657	3.718096	0.893251	-0.945544	-0.520365	1.164104	-53.427238	-82.343476	16.660622
64557	8.675287	3.446069	0.692575	-0.952295	-0.479791	1.091527	-58.170779	-81.979852	20.903025
64558	8.752119	3.318365	0.478645	-0.900163	-0.358338	1.042882	-61.968322	-81.564013	24.223943
64559	8.303385	3.451118	0.304635	-0.880314	-0.302523	1.023670	-65.196458	-81.115325	26.984059
64560	7.605105	3.708473	0.104298	-0.889042	-0.331183	0.989448	-68.181994	-80.669504	29.496850
64561	6.867244	3.885851	0.031646	-0.891363	-0.405248	0.906370	-71.056614	-80.263334	31.898846
64562	18.654877	6.154474	4.887969	-1.402051	-1.089774	0.549441	-75.835421	-80.139338	35.938195
64563	11.383750	0.962605	0.862084	-2.959697	1.596612	-0.873343	-71.590878	-80.363580	29.916021
64564	1.253885	-10.271361	-4.322522	2.004900	2.726738	-1.712506	-59.503664	-80.611013	18.831148
64565	4.903549	-1.709986	2.003274	1.249170	0.459791	-1.038144	-55.435115	-80.970837	15.439617
64566	7.499666	-2.805902	-1.177937	-0.685989	-0.518835	-0.815802	-55.693426	-81.524110	15.308348
64567	10.459977	-1.653992	1.132880	-0.097296	-0.068107	-1.224071	-53.120053	-82.117049	12.657260
64568	8.675897	-1.388724	1.151649	1.312299	0.749400	-1.465412	-45.909074	-82.477017	6.144569
64569	9.455301	1.290156	2.713666	0.938155	0.054944	-1.303424	-40.944201	-82.967504	1.686349
64570	10.815381	1.149393	3.369906	-0.022791	-0.293093	-1.164736	-37.477383	-83.519196	-1.812783
64571	9.937423	-0.296440	2.830771	0.159193	0.130751	-1.280608	-31.514343	-83.872964	-7.715221
64572	7.560692	-0.196693	2.444298	0.419080	0.208439	-1.422836	-23.850309	-84.145822	-15.174745
64573	7.902296	0.196785	1.762650	0.100953	-0.333867	-1.464366	-16.441089	-84.614617	-22.556440
64574	9.153590	-0.382404	0.773353	0.005685	-0.480479	-1.529750	-7.558469	-85.066666	-31.466698
64575	9.787992	0.113955	0.586931	0.273630	-0.378458	-1.555324	3.109354	-85.318105	-42.009595
64576	15.051414	2.414556	1.017584	0.125481	-0.744522	-1.485705	14.635775	-85.608844	-53.494833
64577	13.674339	0.937685	-0.616413	-0.190815	0.128928	-1.317095	23.210703	-85.292371	-62.201378
64578	11.794759	0.815549	-1.275455	0.168912	0.295284	-1.154360	29.320169	-84.846474	-68.231298
64579	11.760140	0.736959	-1.603470	0.043201	0.356729	-1.009750	33.454389	-84.369493	-72.353948
64580	11.299839	-0.074567	-0.707556	0.072380	0.675804	-0.951464	35.697970	-83.740354	-74.562910
64581	10.461045	0.873630	0.983130	0.433603	0.707293	-0.855906	37.281253	-83.122104	-75.901513
64582	9.862556	2.168087	2.686586	0.248075	0.662905	-0.788659	38.409844	-82.544103	-76.890689
64583	9.105272	1.408120	2.210417	0.055327	0.426759	-0.773341	39.847910	-82.073951	-78.304743
64584	9.337224	0.969144	1.598142	0.004737	0.280431	-0.775031	41.477344	-81.661883	-79.942932
64585	9.449073	0.869803	1.149844	0.051941	0.196041	-0.765717	43.169499	-81.282546	-81.618820
64586	9.390501	0.838664	1.048868	0.082420	0.137649	-0.765969	44.884066	-80.920023	-83.301413
64587	9.291364	0.858952	1.128385	0.141372	0.074551	-0.764027	46.654979	-80.575688	-85.008499
64588	9.599547	1.311443	1.258247	0.183571	0.019515	-0.781900	48.501278	-80.236660	-86.769242
64589	9.239661	1.313602	1.471855	0.106671	0.058088	-0.827945	50.182666	-79.854254	-88.409162
64590	8.562393	0.766086	1.387255	0.080827	-0.017649	-0.878033	52.006025	-79.468371	-90.210449
64591	8.332114	0.867898	1.360192	0.147972	-0.049870	-1.022410	54.067868	-79.016622	-92.217740
64592	8.464658	1.000794	1.073246	0.138906	-0.131337	-1.139972	56.337963	-78.522455	-94.445890
64593	8.448237	0.828857	0.839922	0.135368	-0.148207	-1.283427	58.659226	-77.947041	-96.732570
64594	8.022907	0.630946	0.637195	0.218197	-0.158904	-1.479039	61.079897	-77.259065	-99.077856
64595	8.297187	0.965505	0.884298	0.269474	-0.214755	-1.661825	63.598458	-76.472009	-101.500296
64596	14.007172	3.860778	2.392573	0.186262	-0.412935	-1.553745	66.105028	-75.765997	-103.967126
64597	18.240226	7.815330	1.705018	0.061846	-0.256512	-0.944656	67.494292	-75.325753	-105.360013
64598	8.353079	4.827942	-0.283028	0.290355	0.880718	-0.380179	66.237872	-74.926632	-103.882755
64599	9.558419	3.714184	0.901551	-0.032804	-0.503020	0.210168	67.033429	-75.150723	-104.720461
64600	9.604069	2.366468	1.071902	-1.431429	-0.105766	-0.007567	66.432095	-75.170152	-104.941662
64601	9.674840	0.821225	0.809189	-0.508139	-0.088220	-0.016136	66.332930	-75.181141	-105.135030
64602	9.072657	1.966303	1.374128	0.466422	0.230211	-0.065718	66.204532	-75.093056	-104.720532
64603	8.959549	3.017190	1.376392	0.151193	-0.006145	-0.043306	66.343667	-75.071002	-104.769657
64604	9.380924	2.522618	0.964978	-0.384149	-0.229764	0.008301	66.572234	-75.127416	-105.228772
64605	9.674421	1.869063	0.877447	-0.201576	-0.137458	0.012406	66.721653	-75.164381	-105.497629
64606	9.521634	2.344732	0.930777	0.111539	-0.019028	-0.009980	66.834124	-75.162900	-105.542704
64607	9.246740	2.449967	1.023606	-0.061893	-0.054619	-0.002846	66.912656	-75.172926	-105.655414
64608	9.364082	2.217385	1.123109	-0.139940	-0.121030	0.009057	67.068409	-75.204286	-105.894292
64609	9.485946	2.159945	0.897402	-0.036110	-0.095414	0.002516	67.239341	-75.226071	-106.087264
64610	9.468950	2.380872	0.933027	-0.037735	-0.073397	0.004748	67.363140	-75.244290	-106.232488
64611	9.451131	2.350740	0.929450	-0.077536	-0.084609	0.010090	67.483217	-75.267477	-106.397381
64612	9.489087	2.281610	0.898200	-0.060320	-0.074247	0.012256	67.590249	-75.289705	-106.538618
64613	9.469381	2.295202	0.916078	-0.046955	-0.060039	0.015373	67.674663	-75.310179	-106.648493
64614	9.449659	2.308621	0.934861	-0.057915	-0.055377	0.015785	67.742617	-75.330069	-106.747883
64615	9.417312	2.285604	0.915634	-0.059922	-0.050861	0.013234	67.803255	-75.347351	-106.840842
64616	9.373596	2.255664	0.968256	-0.067132	-0.061350	0.013267	67.880574	-75.367137	-106.955352
64617	9.409498	2.230912	0.958337	-0.063983	-0.073877	0.007222	67.991113	-75.386113	-107.102273
64618	9.454836	2.257888	0.895953	-0.054099	-0.079520	0.006253	68.119314	-75.405954	-107.261626
64619	9.518737	2.314075	0.831393	-0.053333	-0.063869	0.002755	68.219821	-75.420271	-107.391851
64620	9.435668	2.271408	0.909404	-0.053542	-0.049645	0.005780	68.288176	-75.433379	-107.489018
64621	9.422621	2.256220	0.877438	-0.057906	-0.053729	0.003833	68.364797	-75.446036	-107.597255
64622	9.457270	2.254337	0.879048	-0.053290	-0.047794	0.003170	68.431912	-75.457301	-107.692981
64623	9.437251	2.268884	0.899225	-0.043815	-0.039973	0.003064	68.489244	-75.466591	-107.772940
64624	9.378846	2.247818	0.935091	-0.036946	-0.036731	0.002354	68.543842	-75.475051	-107.846053
64625	9.374322	2.232283	0.962453	-0.035246	-0.054305	0.007911	68.631880	-75.489879	-107.952653
64626	9.425204	2.252151	0.859976	-0.027192	-0.060603	0.010395	68.735095	-75.507549	-108.070201
64627	9.497521	2.307755	0.855377	-0.023930	-0.051685	0.008085	68.824483	-75.521838	-108.171484
64628	9.460566	2.249151	0.856579	-0.023604	-0.038592	0.005018	68.888928	-75.531997	-108.246852
64629	9.421073	2.256693	0.889698	-0.024323	-0.038195	0.008950	68.949742	-75.543907	-108.318848
64630	9.470810	2.298633	0.799008	-0.007035	-0.038529	0.013915	69.016668	-75.558770	-108.386967
64631	9.367733	2.270451	0.901982	-0.009201	-0.024580	0.013492	69.054465	-75.570283	-108.426240
64632	9.299922	2.218294	0.999049	-0.017954	-0.052463	0.030360	69.131332	-75.596764	-108.511073
64633	9.450457	2.226417	0.809884	-0.006754	-0.077108	0.030464	69.266987	-75.628025	-108.649918
64634	9.440202	2.238278	0.885868	0.008648	-0.060579	0.027667	69.378979	-75.654620	-108.755253
64635	9.391100	2.289042	0.877321	0.010630	-0.075202	0.025834	69.525325	-75.682862	-108.894817
64636	9.432296	2.277728	0.833676	-0.015399	-0.080882	0.034555	69.661842	-75.717088	-109.039653
64637	9.507645	2.264951	0.794909	-0.011585	-0.078893	0.029819	69.801322	-75.748034	-109.185227
64638	9.454575	2.278206	0.806558	-0.011258	-0.072741	0.035258	69.923696	-75.780864	-109.312983
64639	9.510967	2.236504	0.771254	-0.025040	-0.067491	0.029204	70.032874	-75.809088	-109.435212
64640	9.571850	2.210206	0.706719	-0.029037	-0.041439	0.020078	70.091022	-75.827516	-109.507198
64641	9.497799	2.240397	0.746786	-0.019254	-0.013705	0.008516	70.105283	-75.834045	-109.528093
64642	9.482670	2.269691	0.738813	-0.016616	-0.008049	0.004379	70.111542	-75.837491	-109.539219
64643	9.626606	1.991934	0.761193	0.203573	-0.003243	0.013076	70.227670	-75.844439	-109.533500
64644	9.227091	2.470375	0.866061	0.132226	0.033971	-0.010163	70.240615	-75.831897	-109.463569
64645	9.485088	2.322226	0.853124	-0.097981	-0.064708	0.000108	70.325336	-75.843735	-109.603651
64646	9.567347	2.047800	0.693422	-0.042186	-0.031806	-0.015843	70.383269	-75.840834	-109.683178
64647	9.510491	2.302033	0.784738	0.045420	0.017974	-0.032686	70.398391	-75.819013	-109.666742
64648	9.445464	2.344188	0.755505	-0.034440	0.000387	-0.029899	70.402533	-75.802322	-109.686219
64649	9.531995	2.204053	0.721308	-0.040463	0.002215	-0.029879	70.399955	-75.785044	-109.702281
64650	9.474632	2.289794	0.773062	-0.001533	0.025252	-0.038833	70.376762	-75.758751	-109.674110
64651	9.469549	2.256373	0.795653	-0.035409	0.011724	-0.035632	70.361233	-75.736541	-109.673825
64652	9.538242	2.213751	0.787011	-0.033046	0.028327	-0.049436	70.321683	-75.703929	-109.647400
64653	9.372928	2.289367	0.856897	-0.010433	0.033491	-0.049102	70.284739	-75.670252	-109.610244
64654	9.510287	2.275593	0.737188	-0.055428	0.009051	-0.052977	70.275953	-75.639448	-109.628803
64655	9.504004	2.265920	0.771222	-0.043223	0.034859	-0.062444	70.227718	-75.598303	-109.599375
64656	9.423577	2.265939	0.838193	-0.040423	0.040140	-0.059630	70.167455	-75.557886	-109.555911
64657	9.501377	2.255131	0.769915	-0.061780	0.033535	-0.070151	70.117645	-75.512833	-109.535826
64658	9.478302	2.298516	0.809290	-0.047392	0.054474	-0.070156	70.032106	-75.463924	-109.470360
64659	9.475350	2.326907	0.826255	-0.058040	0.056260	-0.073297	69.940331	-75.412709	-109.404693
