// General information: 
//  MT Manager version: 2022.2.0 
//  XDA version: 2022.2.0 build 7381 rev 124627 built on 2023-07-19
// Device information: 
//  DeviceId: 00B4BA83
//  ProductCode: MTW2-3A7G6
//  Firmware Version: 4.6.0
//  Hardware Version: 2.0.0
// Device settings: 
//  Filter Profile: human(46.1)
//  Option Flags: Orientation Smoother Disabled, Position/Velocity Smoother Disabled, Continuous Zero Rotation Update Disabled, AHS Disabled, ICC Disabled
// Coordinate system: ENU
PacketCounter	Acc_X	Acc_Y	Acc_Z	Gyr_X	Gyr_Y	Gyr_Z	Roll	Pitch	Yaw
55472	6.760323	1.194050	6.956671	-0.007217	-0.004733	-0.004400	9.934197	-45.084343	134.371847
55473	6.919875	1.295099	6.788815	0.001882	0.003687	-0.014122	9.941861	-45.084473	134.366189
55474	6.979308	1.354401	6.863188	-0.007502	-0.000066	-0.009015	9.941597	-45.087238	134.364085
55475	6.846749	1.307359	6.862491	-0.004468	0.010147	-0.000176	9.937088	-45.085102	134.370479
55476	6.821451	1.265326	6.771452	-0.003463	-0.000336	-0.000906	9.934621	-45.088804	134.374802
55477	6.993180	1.187186	6.799400	-0.008561	0.000846	-0.004928	9.931380	-45.091447	134.376095
55478	6.933938	1.211166	6.844124	-0.005764	0.016568	-0.002035	9.926572	-45.085497	134.381869
55479	6.802315	1.186134	6.833318	-0.005480	0.004165	-0.005974	9.925358	-45.086163	134.382790
55480	6.790784	1.189190	6.952768	-0.001919	0.006186	-0.007731	9.927013	-45.085502	134.382565
55481	6.947571	1.246268	6.806082	-0.006442	-0.000975	-0.013105	9.929794	-45.088365	134.377067
55482	6.912484	1.230023	6.823503	0.002122	0.006910	-0.010200	9.935100	-45.087041	134.374978
55483	6.820909	1.282120	6.864497	-0.001005	0.011478	-0.009849	9.937919	-45.083197	134.373825
55484	6.920791	1.267174	6.844635	-0.004038	0.000271	-0.008111	9.939125	-45.085830	134.372516
55485	6.965335	1.230596	6.829881	-0.007214	0.003996	-0.006429	9.937193	-45.086547	134.373050
55486	6.906562	1.194035	6.745607	-0.005386	0.005850	-0.008639	9.937397	-45.085986	134.372061
55487	6.869750	1.216073	6.902380	-0.007118	0.005682	-0.009092	9.936860	-45.085488	134.370702
55488	6.907245	1.187186	6.846838	-0.011403	0.000742	0.000034	9.929217	-45.088677	134.375909
55489	6.925325	1.175764	6.768860	-0.008563	0.000845	-0.004932	9.925976	-45.091320	134.377199
55490	6.918066	1.155153	6.839213	-0.005772	0.008835	-0.010590	9.926798	-45.088872	134.375056
55491	6.938366	1.159925	6.851601	-0.003174	0.004722	-0.008897	9.928506	-45.088934	134.373719
55492	6.922840	1.154525	6.780375	-0.003558	-0.001025	-0.008825	9.930536	-45.092233	134.371632
55493	7.017198	1.169792	6.709044	-0.003608	0.006863	-0.009517	9.932133	-45.091026	134.370098
55494	6.978751	1.198880	6.765496	-0.001780	0.008719	-0.011726	9.935845	-45.088551	134.367048
55495	6.928239	1.147842	6.822674	-0.002407	0.007486	-0.007019	9.936654	-45.087240	134.367598
55496	6.919355	1.134166	6.792764	-0.007556	0.007823	-0.009714	9.936028	-45.085464	134.366016
55497	6.961901	1.165363	6.806517	-0.003944	0.001960	-0.010777	9.938633	-45.086900	134.362789
55498	6.950213	1.196963	6.815074	-0.012897	0.004787	-0.007082	9.933713	-45.087110	134.362911
55499	6.962479	1.187335	6.796823	-0.005005	0.002868	-0.006689	9.933305	-45.088437	134.363079
55500	6.966598	1.163965	6.747930	-0.006785	0.001855	-0.005812	9.931495	-45.090394	134.363834
55501	7.019348	1.141209	6.763822	-0.007655	0.006137	-0.007051	9.929449	-45.089840	134.364170
55502	6.930903	1.147013	6.766058	-0.003376	0.010082	-0.005594	9.928718	-45.087181	134.366172
55503	6.924658	1.148503	6.826197	-0.004191	0.006475	-0.006142	9.928110	-45.086527	134.367282
55504	6.936851	1.139414	6.807938	-0.002165	0.002975	-0.011655	9.932189	-45.087273	134.363480
55505	6.951581	1.174880	6.768780	0.003079	0.004326	-0.011623	9.939061	-45.087289	134.359908
55506	6.938530	1.185118	6.787713	-0.001447	0.004894	-0.008445	9.941466	-45.087303	134.358956
55507	6.948741	1.243547	6.797892	-0.002413	0.007488	-0.007020	9.942273	-45.085990	134.359506
55508	6.926114	1.217335	6.796881	-0.000776	0.005970	-0.003902	9.942422	-45.085846	134.362296
55509	6.911841	1.204888	6.826281	-0.005490	0.004165	-0.005979	9.941206	-45.086512	134.363213
55510	6.912609	1.226950	6.816371	-0.006409	0.007603	-0.005886	9.939059	-45.085258	134.364662
55511	6.920408	1.240814	6.847325	-0.008471	0.002529	-0.007602	9.937215	-45.086686	134.364053
55512	6.902479	1.190976	6.796919	-0.003322	0.002194	-0.004905	9.936879	-45.088553	134.365521
55513	6.924172	1.217550	6.798821	-0.004678	0.007772	-0.005431	9.935460	-45.087237	134.367381
55514	6.897145	1.214529	6.846958	-0.002510	0.005801	-0.004357	9.934940	-45.087119	134.369776
55515	6.908066	1.183174	6.839171	-0.005396	0.005854	-0.008643	9.935118	-45.086569	134.368800
55516	6.921513	1.196120	6.810538	-0.002697	0.003430	-0.009613	9.937629	-45.087277	134.366723
55517	6.922322	1.218671	6.800504	-0.003134	0.005571	-0.010232	9.940031	-45.086729	134.364437
55518	6.941436	1.201538	6.823210	-0.003134	0.005571	-0.010232	9.942446	-45.086157	134.362167
55519	6.908669	1.228904	6.820012	-0.005929	0.006306	-0.006600	9.941117	-45.085553	134.362888
55520	6.908314	1.229032	6.820348	-0.004525	0.001572	-0.007406	9.941570	-45.087540	134.362235
55521	6.973760	1.197047	6.817592	-0.007178	0.004840	-0.007768	9.940333	-45.087648	134.361816
55522	6.918991	1.197767	6.812812	-0.003714	0.005180	-0.006857	9.940516	-45.087640	134.362201
55523	6.926829	1.211745	6.843687	-0.005541	0.003321	-0.004650	9.938602	-45.088914	134.364062
55524	6.930927	1.188434	6.794897	-0.005447	0.005010	-0.007313	9.938111	-45.088951	134.364025
55525	6.930502	1.188660	6.795291	-0.004916	0.004558	-0.009357	9.939097	-45.089060	134.362297
55526	6.907969	1.162377	6.794187	-0.004200	0.006477	-0.006144	9.938500	-45.088390	134.363404
55527	6.928419	1.166951	6.806476	-0.005010	0.002869	-0.006694	9.938093	-45.089716	134.363567
55528	6.948868	1.171658	6.818743	-0.001936	0.006195	-0.007733	9.939700	-45.089053	134.363375
55529	6.927561	1.167573	6.807243	-0.004917	0.004559	-0.009358	9.940686	-45.089162	134.361646
55530	6.949193	1.194489	6.809156	-0.001453	0.004899	-0.008446	9.943127	-45.089150	134.360695
55531	6.937243	1.226410	6.817849	-0.005356	0.006700	-0.009977	9.944000	-45.087990	134.358771
55532	6.948143	1.195132	6.810114	-0.004202	0.006477	-0.006145	9.943437	-45.087331	134.359817
55533	6.926792	1.190823	6.798694	-0.004202	0.006477	-0.006145	9.942823	-45.086676	134.360925
55534	6.959787	1.185890	6.792509	-0.007668	0.006136	-0.007058	9.940816	-45.086096	134.361248
55535	6.912017	1.178240	6.828570	-0.006745	0.002699	-0.007152	9.939691	-45.087473	134.361021
55536	6.946336	1.195373	6.811915	-0.003002	0.007099	-0.003644	9.938310	-45.086720	134.364166
55537	6.937701	1.181802	6.781804	-0.002655	0.004280	-0.010947	9.941519	-45.086829	134.361128
55538	6.923317	1.169391	6.811247	-0.008155	0.007432	-0.006346	9.938688	-45.085605	134.362183
55539	6.911390	1.200901	6.819972	-0.006699	0.003545	-0.008485	9.938259	-45.086373	134.361010
55540	6.943302	1.174120	6.823988	-0.003188	0.004731	-0.008903	9.939944	-45.086415	134.359702
55541	6.944081	1.196597	6.813999	-0.003188	0.004731	-0.008903	9.941646	-45.086472	134.358360
55542	6.889276	1.197460	6.809163	-0.003674	0.006027	-0.008191	9.942573	-45.085867	134.357721
55543	6.945591	1.241380	6.794098	-0.004968	0.003715	-0.008029	9.942861	-45.086584	134.356936
55544	6.921846	1.192993	6.803350	-0.002914	0.008790	-0.006308	9.942876	-45.084591	134.358224
55545	6.901602	1.210848	6.781653	-0.007095	0.006532	-0.010437	9.943029	-45.083480	134.355909
55546	6.916249	1.216705	6.853500	-0.005014	0.002870	-0.006698	9.942677	-45.084815	134.355977
55547	6.907758	1.202865	6.823304	-0.005987	0.005462	-0.005272	9.940648	-45.084819	134.357641
55548	6.920053	1.193451	6.805093	-0.005501	0.004166	-0.005985	9.939453	-45.085461	134.358559
55549	6.932351	1.184173	6.786859	-0.003722	0.005183	-0.006860	9.939647	-45.085465	134.358914
55550	6.919144	1.193721	6.805970	-0.004695	0.007774	-0.005434	9.938204	-45.084147	134.360775
55551	6.904737	1.181183	6.835424	-0.003723	0.005183	-0.006860	9.938398	-45.084151	134.361130
55552	6.937710	1.176698	6.829229	-0.003054	0.007272	-0.012899	9.942218	-45.082361	134.356939
55553	6.917546	1.194897	6.807388	-0.001459	0.004905	-0.008447	9.944636	-45.082365	134.355986
55554	6.904335	1.204482	6.826482	-0.008163	0.007432	-0.006350	9.941834	-45.081140	134.357004
55555	6.929316	1.185775	6.789679	-0.004484	0.002421	-0.008744	9.942933	-45.082517	134.355466
55556	6.949742	1.190558	6.801971	-0.003679	0.006030	-0.008192	9.943851	-45.081890	134.354873
55557	6.915714	1.195665	6.809114	-0.005945	0.006308	-0.006606	9.942516	-45.081284	134.355589
55558	6.905916	1.159763	6.789394	-0.005945	0.006308	-0.006606	9.941193	-45.080654	134.356327
55559	6.941349	1.199073	6.762532	-0.007191	0.004841	-0.007777	9.939952	-45.080760	134.355901
55560	6.946688	1.168943	6.814130	-0.003239	0.003889	-0.007574	9.940984	-45.081417	134.355473
55561	6.947405	1.191127	6.804258	-0.008167	0.007432	-0.006351	9.938121	-45.080203	134.356550
55562	6.926096	1.186881	6.792770	-0.002661	0.004287	-0.010950	9.941317	-45.080293	134.353535
55563	6.945210	1.169632	6.815518	-0.002969	0.007947	-0.004977	9.940604	-45.078924	134.355783
55564	6.925033	1.187471	6.793750	-0.003682	0.006031	-0.008193	9.941469	-45.078298	134.355239
55565	6.933826	1.223693	6.814426	-0.003727	0.005185	-0.006862	9.941661	-45.078301	134.355594
55566	6.911409	1.197297	6.813198	-0.005461	0.005013	-0.007320	9.941121	-45.078333	134.355604
55567	6.931856	1.202084	6.825471	-0.001020	0.002767	-0.007829	9.943652	-45.079605	134.354846
55568	6.944188	1.192929	6.807225	-0.007682	0.006136	-0.007066	9.941604	-45.079049	134.355155
55569	6.930998	1.202443	6.826279	-0.004929	0.004565	-0.009365	9.942587	-45.079154	134.353421
55570	6.922497	1.188851	6.796092	-0.003729	0.005185	-0.006862	9.942811	-45.079148	134.353742
55571	6.909372	1.198219	6.815100	-0.007774	0.004443	-0.004404	9.939368	-45.079813	134.355957
55572	6.934487	1.179570	6.778227	-0.004442	0.003271	-0.010079	9.941174	-45.080571	134.353457
55573	6.908593	1.198569	6.815829	-0.004218	0.006481	-0.006149	9.940553	-45.079913	134.354562
55574	6.941653	1.193964	6.809630	-0.003197	0.004738	-0.008907	9.942231	-45.079947	134.353262
55575	6.920508	1.189823	6.797948	-0.004487	0.002424	-0.008748	9.943330	-45.081321	134.351721
55576	6.928086	1.204031	6.828954	0.000537	0.009139	-0.005390	9.944725	-45.079221	134.353841
55577	6.918304	1.168397	6.809203	-0.003731	0.005186	-0.006863	9.944916	-45.079223	134.354194
55578	6.941001	1.217353	6.800940	-0.004931	0.004566	-0.009367	9.945854	-45.079307	134.352530
55579	6.918654	1.190936	6.799640	-0.005510	0.004166	-0.005991	9.944634	-45.079971	134.353437
55580	6.939014	1.195480	6.812053	-0.005954	0.006309	-0.006609	9.943242	-45.079357	134.354208
55581	6.917755	1.191076	6.800530	-0.005466	0.005014	-0.007323	9.942716	-45.079411	134.354170
55582	6.938156	1.195751	6.812879	-0.004977	0.003719	-0.008036	9.942965	-45.080124	134.353406
55583	6.903142	1.178713	6.830091	-0.003289	0.003045	-0.006245	9.943272	-45.081396	134.353953
55584	6.929412	1.182470	6.782911	-0.003156	0.005587	-0.010240	9.945722	-45.080810	134.351641
55585	6.937058	1.196494	6.813867	-0.007289	0.003146	-0.005120	9.943090	-45.082135	134.353102
55586	6.928592	1.182738	6.783702	-0.002445	0.007502	-0.007022	9.943917	-45.080804	134.353617
55587	6.944174	1.210874	6.845294	-0.000978	0.003618	-0.009162	9.947142	-45.081463	134.351913
55588	6.940487	1.174196	6.765842	-0.005468	0.005014	-0.007324	9.946582	-45.081500	134.351927
55589	6.935321	1.197427	6.815470	-0.006002	0.005461	-0.005279	9.944548	-45.081503	134.353585
55590	6.914104	1.193009	6.803904	-0.003735	0.005187	-0.006864	9.944720	-45.081486	134.353978
55591	6.913752	1.193137	6.804239	-0.006757	0.002700	-0.007166	9.943596	-45.082861	134.353740
55592	6.926198	1.183928	6.785939	-0.002047	0.004513	-0.005073	9.943765	-45.083427	134.355446
55593	6.913039	1.193522	6.804896	-0.004936	0.004568	-0.009369	9.944745	-45.083529	134.353709
55594	6.946082	1.188933	6.798764	-0.005916	0.007157	-0.007943	9.944082	-45.082288	134.353530
55595	6.924837	1.184649	6.787202	-0.003247	0.003894	-0.007578	9.945083	-45.082948	134.353131
55596	6.931309	1.176690	6.828442	-0.004937	0.004569	-0.009370	9.946032	-45.083049	134.351414
55597	6.923985	1.185273	6.787962	-0.003694	0.006036	-0.008196	9.946915	-45.082439	134.350821
55598	6.924695	1.207471	6.778094	-0.006049	0.004613	-0.003949	9.944154	-45.083047	134.353453
55599	6.923082	1.185500	6.788843	-0.003650	0.006885	-0.009528	9.945731	-45.081827	134.351915
55600	6.930603	1.199516	6.819901	-0.004316	0.004786	-0.003489	9.943733	-45.082368	134.354917
55601	6.930207	1.199778	6.820258	-0.002671	0.004297	-0.010955	9.946936	-45.082467	134.351875
55602	6.915937	1.187332	6.849443	-0.005026	0.002873	-0.006708	9.946541	-45.083776	134.352025
55603	6.935434	1.199220	6.761391	-0.005473	0.005015	-0.007326	9.946013	-45.083828	134.351984
55604	6.942990	1.213101	6.792433	-0.006007	0.005461	-0.005281	9.944001	-45.083801	134.353659
55605	6.941462	1.191078	6.803105	-0.004983	0.003722	-0.008040	9.944286	-45.084513	134.352867
55606	6.921397	1.208847	6.781215	-0.004231	0.006483	-0.006152	9.943657	-45.083842	134.353981
55607	6.926594	1.178589	6.832898	-0.004231	0.006483	-0.006152	9.943030	-45.083183	134.355085
55608	6.952797	1.182278	6.785903	-0.005431	0.005864	-0.008658	9.943225	-45.082592	134.354116
55609	6.927879	1.223225	6.813255	-0.003741	0.005190	-0.006866	9.943412	-45.082592	134.354467
55610	6.937979	1.170094	6.815588	-0.002673	0.004299	-0.010956	9.946602	-45.082665	134.351470
55611	6.939806	1.214635	6.795412	-0.004276	0.005635	-0.004821	9.945281	-45.082615	134.353519
55612	6.917439	1.188214	6.794119	-0.001965	0.006212	-0.007736	9.946834	-45.081963	134.353329
55613	6.937724	1.193055	6.806570	-0.003742	0.005190	-0.006866	9.947021	-45.081962	134.353680
55614	6.956885	1.175740	6.829307	-0.003699	0.006039	-0.008198	9.947917	-45.081340	134.353074
55615	6.915983	1.189020	6.795460	-0.004234	0.006484	-0.006153	9.947290	-45.080679	134.354177
55616	6.936226	1.193691	6.807986	-0.004235	0.006484	-0.006153	9.946595	-45.080003	134.355368
55617	6.935830	1.193954	6.808343	-0.002760	0.002603	-0.008294	9.948409	-45.081321	134.354215
55618	6.935487	1.194218	6.808647	-0.008410	0.004223	-0.010297	9.948012	-45.081516	134.351637
55619	6.930238	1.217458	6.858237	-0.003787	0.004341	-0.005536	9.947503	-45.082126	134.352932
55620	6.915108	1.212017	6.787063	-0.005521	0.004167	-0.005998	9.946271	-45.082780	134.353847
55621	6.934306	1.194656	6.809772	-0.001968	0.006214	-0.007737	9.947865	-45.082115	134.353646
55622	6.934985	1.217041	6.799902	-0.003788	0.004342	-0.005536	9.947355	-45.082710	134.354958
55623	6.946330	1.185771	6.791914	-0.006721	0.003549	-0.008505	9.946925	-45.083473	134.353769
55624	6.933086	1.195184	6.810922	-0.004238	0.006484	-0.006154	9.946317	-45.082792	134.354875
55625	6.932610	1.195496	6.811351	-0.001477	0.004921	-0.008451	9.948724	-45.082786	134.353922
55626	6.931068	1.173772	6.821985	-0.004945	0.004573	-0.009375	9.949732	-45.082879	134.352149
55627	6.931788	1.195982	6.812103	-0.006058	0.004611	-0.003953	9.947000	-45.083493	134.354747
55628	6.931432	1.196154	6.812435	-0.002720	0.003454	-0.009627	9.949473	-45.084235	134.352598
55629	6.931076	1.196458	6.812744	-0.003790	0.004342	-0.005537	9.948963	-45.084845	134.353893
55630	6.942360	1.165244	6.804823	-0.005439	0.005866	-0.008662	9.949032	-45.084285	134.352990
55631	6.930222	1.196905	6.813533	-0.006188	0.003106	-0.010553	9.950110	-45.085096	134.350102
55632	6.929875	1.197212	6.813833	-0.003256	0.003899	-0.007582	9.951099	-45.085748	134.349707
55633	6.941125	1.166136	6.805929	-0.002465	0.007509	-0.007023	9.951875	-45.084423	134.350258
55634	6.928883	1.197660	6.814762	-0.006018	0.005461	-0.005286	9.949818	-45.084412	134.351944
55635	6.920612	1.183887	6.784486	-0.002100	0.003667	-0.003743	9.949328	-45.085580	134.354578
55636	6.940987	1.188608	6.796878	-0.003749	0.005192	-0.006869	9.949518	-45.085565	134.354932
55637	6.926656	1.175866	6.826104	-0.005526	0.004168	-0.006000	9.948294	-45.086227	134.355832
55638	6.919424	1.184364	6.785614	-0.003708	0.006042	-0.008200	9.949152	-45.085608	134.355253
55639	6.926737	1.198361	6.816821	-0.006428	0.008453	-0.007236	9.947684	-45.083729	134.355767
55640	6.926233	1.198590	6.817292	-0.004456	0.003282	-0.010092	9.949486	-45.084479	134.353260
55641	6.905110	1.194076	6.805623	-0.008290	0.005729	-0.003705	9.945223	-45.084488	134.356214
55642	6.938258	1.189522	6.799504	-0.002680	0.004307	-0.010960	9.948444	-45.084542	134.353207
55643	6.912136	1.208541	6.837028	-0.001482	0.004925	-0.008452	9.950849	-45.084534	134.352254
55644	6.949149	1.159033	6.791890	-0.003752	0.005193	-0.006870	9.951041	-45.084525	134.352588
55645	6.924075	1.199874	6.819258	-0.005444	0.005868	-0.008665	9.951203	-45.083964	134.351597
55646	6.935369	1.168684	6.811358	-0.005487	0.005018	-0.007333	9.950669	-45.083988	134.351591
55647	6.924341	1.222227	6.809811	-0.005571	0.003318	-0.004671	9.948751	-45.085261	134.353435
55648	6.902131	1.195747	6.808351	-0.003176	0.005602	-0.010247	9.951088	-45.084697	134.351170
55649	6.935157	1.191570	6.802308	0.000997	0.007863	-0.006097	9.953288	-45.083264	134.352512
55650	6.955441	1.196444	6.814773	-0.005036	0.002875	-0.006717	9.952827	-45.084585	134.352699
55651	6.921461	1.201237	6.821672	-0.004248	0.006486	-0.006156	9.952193	-45.083923	134.353800
55652	6.940590	1.183853	6.844469	-0.005447	0.005869	-0.008666	9.952318	-45.083356	134.352842
55653	6.912624	1.187804	6.791941	-0.005489	0.005018	-0.007335	9.951785	-45.083406	134.352796
55654	6.945818	1.183369	6.785789	-0.003261	0.003902	-0.007585	9.952779	-45.084056	134.352390
55655	6.933722	1.214902	6.794427	-0.006771	0.002700	-0.007182	9.951655	-45.085430	134.352141
55656	6.932242	1.193069	6.805016	0.001489	0.006572	-0.006810	9.954728	-45.084651	134.352659
55657	6.930694	1.171420	6.815645	-0.006153	0.003959	-0.011891	9.956499	-45.084847	134.348822
55658	6.931349	1.193740	6.805808	-0.006027	0.005460	-0.005290	9.954425	-45.084840	134.350511
55659	6.930835	1.193745	6.806332	-0.004746	0.007779	-0.005443	9.952973	-45.083519	134.352363
55660	6.917485	1.203138	6.825369	-0.003262	0.003902	-0.007586	9.953985	-45.084156	134.351963
55661	6.950605	1.198728	6.819305	-0.005945	0.007162	-0.007953	9.953329	-45.082934	134.351723
55662	6.908707	1.189795	6.795577	-0.003263	0.003903	-0.007586	9.954329	-45.083571	134.351333
55663	6.928072	1.172487	6.818127	-0.004543	0.001584	-0.007433	9.954736	-45.085550	134.350726
55664	6.941589	1.185642	6.789719	-0.002973	0.008807	-0.006310	9.954621	-45.083574	134.352067
55665	6.927083	1.172802	6.819078	-0.006029	0.005460	-0.005291	9.952578	-45.083577	134.353716
55666	6.940681	1.185912	6.790599	-0.002768	0.002611	-0.008301	9.954366	-45.084900	134.352550
55667	6.906729	1.190746	6.797421	-0.004295	0.005636	-0.004827	9.953036	-45.084850	134.354594
55668	6.926999	1.195461	6.809934	-0.003759	0.005196	-0.006872	9.953151	-45.084854	134.354980
55669	6.913641	1.204885	6.828955	-0.005453	0.005871	-0.008669	9.953309	-45.084291	134.353987
55670	6.938990	1.186755	6.792181	-0.003264	0.003904	-0.007587	9.954325	-45.084916	134.353601
55671	6.927793	1.240552	6.790706	-0.003719	0.006047	-0.008204	9.955197	-45.084300	134.353003
55672	6.912352	1.205723	6.830112	-0.007932	0.002934	-0.011028	9.955580	-45.085155	134.349689
55673	6.923801	1.174604	6.822100	-0.003761	0.005196	-0.006873	9.955758	-45.085150	134.350036
55674	6.925404	1.219300	6.802118	-0.000211	0.007252	-0.008606	9.958712	-45.083812	134.349315
55675	6.936767	1.188274	6.794185	-0.005537	0.004168	-0.006007	9.957485	-45.084473	134.350210
55676	6.936412	1.188447	6.794517	-0.003266	0.003904	-0.007588	9.958460	-45.085118	134.349829
55677	6.943852	1.202442	6.825528	-0.003803	0.004345	-0.005542	9.957946	-45.085725	134.351120
55678	6.922799	1.197974	6.813762	-0.006735	0.003551	-0.008519	9.957446	-45.086501	134.349951
55679	6.921318	1.176047	6.824371	-0.003722	0.006048	-0.008205	9.958315	-45.085884	134.349353
55680	6.921858	1.198422	6.814639	-0.004259	0.006488	-0.006159	9.957594	-45.085194	134.350577
55681	6.921382	1.198600	6.815091	-0.003763	0.005197	-0.006874	9.957771	-45.085189	134.350923
55682	6.921996	1.220971	6.805286	-0.003764	0.005197	-0.006874	9.957976	-45.085190	134.351212
55683	6.954118	1.194421	6.809436	-0.005499	0.005020	-0.007340	9.957440	-45.085239	134.351161
55684	6.932995	1.189956	6.797740	-0.005499	0.005020	-0.007340	9.956868	-45.085275	134.351160
55685	6.919649	1.199173	6.816750	-0.006036	0.005460	-0.005294	9.954823	-45.085277	134.352806
55686	6.938820	1.181756	6.839526	-0.003725	0.006049	-0.008206	9.955589	-45.084664	134.352292
55687	6.919670	1.221865	6.807490	-0.001950	0.007079	-0.009071	9.957862	-45.083379	134.351146
55688	6.909337	1.164052	6.797640	-0.005540	0.004168	-0.006009	9.956600	-45.084029	134.352084
55689	6.930675	1.191074	6.799909	-0.001494	0.004936	-0.008455	9.958998	-45.084015	134.351130
55690	6.930153	1.191429	6.800379	-0.001291	0.008135	-0.004514	9.958955	-45.082573	134.353796
55691	6.937439	1.205377	6.831528	-0.006738	0.003552	-0.008522	9.958524	-45.083332	134.352594
55692	6.908531	1.187137	6.789157	-0.005958	0.007164	-0.007958	9.957901	-45.082082	134.352348
55693	6.928707	1.191930	6.801765	-0.003767	0.005198	-0.006875	9.958077	-45.082076	134.352693
55694	6.947876	1.174562	6.824540	-0.004264	0.006490	-0.006161	9.957379	-45.081446	134.353771
55695	6.914871	1.201396	6.821206	-0.006739	0.003552	-0.008523	9.956948	-45.082205	134.352569
55696	6.919552	1.178707	6.772401	-0.004186	0.008195	-0.008824	9.957691	-45.080317	134.351756
55697	6.947350	1.197408	6.815816	-0.002491	0.007520	-0.007026	9.958453	-45.078986	134.352307
55698	6.926155	1.193062	6.804165	-0.003768	0.005199	-0.006876	9.958645	-45.078970	134.352640
55699	6.938698	1.184177	6.785949	-0.003271	0.003908	-0.007591	9.959638	-45.079621	134.352233
55700	6.924331	1.171425	6.815072	-0.003769	0.005199	-0.006876	9.930210	-45.085312	134.375720
55701	6.937906	1.184614	6.786683	-0.003809	0.004346	-0.005545	9.929668	-45.085924	134.377030
55702	6.924488	1.193935	6.805708	-0.004228	0.007343	-0.007493	9.929738	-45.084619	134.377175
55703	6.912179	1.225456	6.814452	-0.004548	0.001587	-0.007441	9.930119	-45.086600	134.376583
55704	6.922644	1.172171	6.816657	-0.007659	0.007840	-0.009759	9.929395	-45.084829	134.375009
55705	6.923203	1.194426	6.806930	-0.003849	0.003494	-0.004214	9.928160	-45.086053	134.377264
55706	6.922761	1.194599	6.807349	-0.002495	0.007521	-0.007026	9.928842	-45.084749	134.377863
55707	6.942963	1.199536	6.819911	-0.006205	0.003115	-0.010572	9.929895	-45.085558	134.374982
55708	6.900257	1.168385	6.806114	-0.005008	0.003731	-0.008059	9.930141	-45.086274	134.374186
55709	6.942150	1.199982	6.820660	-0.005966	0.007166	-0.007961	9.929451	-45.085055	134.373959
55710	6.920969	1.195581	6.808998	-0.002037	0.005378	-0.006410	9.930264	-45.085005	134.374747
55711	6.933531	1.186717	6.790785	-0.005009	0.003731	-0.008060	9.930519	-45.085715	134.373961
55712	6.919201	1.173934	6.819849	-0.003274	0.003909	-0.007592	9.931455	-45.086358	134.373587
55713	6.940420	1.200869	6.822265	-0.009438	0.006810	-0.008897	9.929341	-45.085247	134.372562
55714	6.952952	1.191884	6.804110	-0.001579	0.003235	-0.005793	9.930340	-45.086443	134.373507
55715	6.918892	1.196680	6.810916	-0.005431	0.006729	-0.010008	9.931158	-45.085269	134.371582
55716	6.918464	1.196902	6.811311	-0.005049	0.002878	-0.006729	9.930640	-45.086591	134.371810
55717	6.930024	1.165747	6.803296	-0.004274	0.006491	-0.006163	9.929968	-45.085931	134.372926
55718	6.917594	1.197297	6.812125	-0.003237	0.004764	-0.008924	9.931634	-45.085974	134.371580
55719	6.917086	1.197699	6.812570	-0.003697	0.006908	-0.009541	9.933163	-45.084744	134.370054
55720	6.949251	1.171374	6.816741	-0.007943	0.002938	-0.011044	9.933493	-45.085622	134.366767
55721	6.917249	1.220407	6.803162	-0.003776	0.005201	-0.006878	9.933639	-45.085619	134.367130
55722	6.928777	1.189303	6.795183	-0.002579	0.005817	-0.004364	9.932897	-45.085512	134.369666
55723	6.915370	1.198540	6.814165	-0.008444	0.004229	-0.010330	9.932419	-45.085717	134.367135
55724	6.935606	1.203275	6.826735	-0.007247	0.004844	-0.007815	9.931080	-45.085817	134.366758
55725	6.928548	1.211841	6.786210	-0.005013	0.003733	-0.008062	9.931333	-45.086526	134.365970
55726	6.947769	1.194444	6.808953	-0.006013	0.006313	-0.006632	9.929920	-45.085910	134.366710
55727	6.912701	1.176895	6.825927	-0.003278	0.003912	-0.007594	9.930885	-45.086564	134.366321
55728	6.934838	1.226074	6.818258	-0.006475	0.008458	-0.007249	9.929381	-45.084688	134.366829
55729	6.924631	1.168124	6.808378	-0.003779	0.005202	-0.006879	9.929526	-45.084684	134.367192
55730	6.945846	1.195214	6.810780	-0.004976	0.004587	-0.009394	9.930426	-45.084785	134.365480
55731	6.891091	1.195228	6.805442	-0.004280	0.006493	-0.006164	9.929752	-45.084123	134.366595
55732	6.931029	1.182560	6.840272	-0.002817	0.001768	-0.006978	9.930864	-45.086039	134.366378
55733	6.944695	1.195911	6.811831	-0.003780	0.005203	-0.006880	9.931009	-45.086035	134.366741
55734	6.922706	1.169209	6.810148	-0.006789	0.002700	-0.007201	9.929846	-45.087407	134.366512
55735	6.936456	1.182384	6.781658	-0.003356	0.002204	-0.004932	9.929427	-45.089288	134.368013
55736	6.923030	1.191597	6.800637	-0.007676	0.007843	-0.009765	9.928708	-45.087493	134.366435
55737	6.901919	1.187035	6.788920	-0.003857	0.003495	-0.004217	9.927471	-45.088717	134.368688
55738	6.941932	1.174369	6.823680	-0.002780	0.002624	-0.008310	9.929271	-45.090008	134.367544
55739	6.921846	1.192073	6.801759	-0.006519	0.007604	-0.005919	9.927065	-45.088744	134.369011
55740	6.941939	1.196826	6.814480	-0.005480	0.005879	-0.008681	9.927208	-45.088165	134.368017
55741	6.920833	1.192483	6.802718	-0.003244	0.004769	-0.008927	9.928862	-45.088204	134.366683
55742	6.941079	1.197449	6.815246	-0.005017	0.003735	-0.008065	9.929109	-45.088905	134.365891
55743	6.940648	1.197715	6.815638	-0.003745	0.006059	-0.008212	9.929943	-45.088286	134.365309
55744	6.905588	1.179976	6.832592	-0.007831	0.004425	-0.004442	9.926522	-45.088935	134.367474
55745	6.919191	1.193142	6.804272	-0.004980	0.004590	-0.009397	9.927465	-45.089028	134.365739
55746	6.918760	1.193539	6.804641	-0.001510	0.004949	-0.008458	9.929809	-45.089007	134.364817
55747	6.911723	1.202265	6.764104	-0.005558	0.004170	-0.006019	9.928550	-45.089671	134.365724
55748	6.918007	1.193969	6.805331	-0.003283	0.003915	-0.007596	9.929453	-45.090346	134.365355
55749	6.930592	1.185091	6.787178	-0.006022	0.006314	-0.006636	9.928065	-45.089739	134.366068
55750	6.937690	1.198903	6.818440	-0.004287	0.006494	-0.006166	9.927341	-45.089082	134.367208
55751	6.928598	1.163089	6.798323	-0.006023	0.006315	-0.006636	9.925953	-45.088475	134.367921
55752	6.929066	1.185550	6.788656	-0.003209	0.005626	-0.010259	9.928317	-45.087888	134.365623
55753	6.936191	1.199444	6.819870	-0.004865	0.006074	-0.002788	9.925437	-45.087797	134.369378
55754	6.947806	1.168248	6.811884	-0.003786	0.005205	-0.006882	9.925596	-45.087787	134.369719
55755	6.935308	1.199746	6.820715	-0.002051	0.005385	-0.006412	9.926448	-45.087726	134.370481
55756	6.934913	1.199964	6.821078	-0.006756	0.003556	-0.008538	9.925950	-45.088491	134.369311
55757	6.947594	1.191009	6.802859	-0.005560	0.004170	-0.006021	9.924690	-45.089155	134.370216
55758	6.913544	1.195505	6.809596	-0.003788	0.005206	-0.006882	9.924812	-45.089137	134.370600
55759	6.933771	1.200263	6.822186	-0.007297	0.003990	-0.006492	9.922842	-45.089856	134.371103
55760	6.946374	1.191272	6.804059	-0.004291	0.006495	-0.006167	9.922135	-45.089193	134.372234
55761	6.911278	1.173746	6.820967	-0.001513	0.004953	-0.008458	9.924497	-45.089174	134.371300
55762	6.911884	1.196110	6.811174	-0.007335	0.003135	-0.005161	9.921830	-45.090512	134.372739
55763	6.932111	1.200828	6.823774	-0.005488	0.005882	-0.008684	9.921951	-45.089946	134.371754
55764	6.911026	1.196463	6.811983	-0.003250	0.004773	-0.008929	9.923573	-45.089985	134.370432
55765	6.923712	1.187738	6.793734	-0.003324	0.003062	-0.006267	9.923844	-45.091250	134.370985
55766	6.943890	1.192637	6.806354	-0.004256	0.007351	-0.007499	9.923863	-45.089963	134.371147
55767	6.929377	1.179645	6.835520	-0.005526	0.005026	-0.007354	9.923293	-45.090011	134.371106
55768	6.948400	1.170280	6.757953	-0.005490	0.005882	-0.008685	9.923438	-45.089431	134.370104
55769	6.908781	1.197562	6.814066	-0.003791	0.005207	-0.006883	9.923578	-45.089424	134.370465
55770	6.921403	1.188677	6.795922	-0.007263	0.004846	-0.007826	9.922303	-45.089510	134.370028
55771	6.920060	1.166563	6.806420	-0.003828	0.004351	-0.005552	9.921753	-45.090118	134.371334
55772	6.942172	1.215820	6.798791	-0.003792	0.005207	-0.006883	9.921918	-45.090099	134.371675
55773	6.920180	1.189110	6.797092	-0.005528	0.005027	-0.007355	9.921347	-45.090147	134.371634
55774	6.932806	1.180277	6.778944	-0.003793	0.005208	-0.006884	9.921482	-45.090127	134.372005
55775	6.959655	1.176631	6.832396	-0.005062	0.002882	-0.006739	9.921042	-45.091446	134.372156
55776	6.918996	1.189585	6.798214	-0.004297	0.006497	-0.006168	9.920327	-45.090775	134.373300
55777	6.939123	1.194583	6.810873	-0.001517	0.004956	-0.008459	9.922687	-45.090754	134.372366
55778	6.938686	1.194935	6.811258	-0.003794	0.005208	-0.006884	9.922811	-45.090736	134.372744
55779	6.904590	1.199466	6.817979	-0.006726	0.004414	-0.009875	9.923042	-45.090882	134.370603
55780	6.957529	1.177912	6.834341	-0.003291	0.003920	-0.007600	9.924021	-45.091508	134.370211
55781	6.903806	1.199943	6.818688	-0.005531	0.005027	-0.007356	9.923449	-45.091556	134.370169
55782	6.904311	1.222323	6.808994	-0.003795	0.005209	-0.006885	9.923596	-45.091543	134.370517
55783	6.956184	1.178575	6.835596	-0.002527	0.007535	-0.007028	9.924311	-45.090208	134.371087
55784	6.950132	1.209513	6.784974	-0.003364	0.002207	-0.004938	9.923897	-45.092068	134.372590
55785	6.915135	1.191644	6.801781	-0.009473	0.006810	-0.008917	9.921774	-45.090956	134.371549
55786	6.913697	1.169531	6.812375	-0.003796	0.005209	-0.006885	9.921889	-45.090941	134.371927
55787	6.934786	1.196700	6.814918	-0.002060	0.005390	-0.006413	9.922736	-45.090878	134.372689
55788	6.912783	1.169967	6.813227	-0.006038	0.006316	-0.006642	9.921363	-45.090244	134.373400
55789	6.913247	1.192266	6.803591	-0.005533	0.005028	-0.007358	9.920791	-45.090292	134.373357
55790	6.933367	1.197191	6.816276	-0.003762	0.006066	-0.008217	9.921599	-45.089669	134.372780
55791	6.932853	1.197414	6.816759	-0.004303	0.006498	-0.006170	9.920914	-45.089004	134.373891
55792	6.932342	1.197595	6.817247	-0.005498	0.005885	-0.008690	9.921056	-45.088414	134.372899
55793	6.931945	1.197724	6.817629	-0.003870	0.003496	-0.004223	9.919814	-45.089636	134.375147
55794	6.924010	1.184394	6.787211	-0.001450	0.006674	-0.011123	9.923544	-45.088373	134.372332
55795	6.910365	1.193812	6.806247	-0.002568	0.006680	-0.005698	9.923568	-45.087652	134.373846
55796	6.943567	1.189725	6.800404	-0.005536	0.005028	-0.007359	9.922966	-45.087695	134.373821
55797	6.923515	1.207316	6.778447	-0.005571	0.004171	-0.006028	9.921704	-45.088357	134.374720
55798	6.908219	1.171985	6.817508	-0.005031	0.003741	-0.008075	9.921973	-45.089046	134.373912
55799	6.930408	1.221287	6.809804	-0.004597	0.000738	-0.006128	9.921667	-45.091636	134.374251
55800	6.908579	1.194437	6.807951	-0.003111	0.007111	-0.003651	9.920187	-45.090869	134.377447
55801	6.941705	1.190278	6.802209	-0.006007	0.007174	-0.007975	9.919480	-45.089644	134.377210
55802	6.907518	1.194754	6.808971	-0.004996	0.004598	-0.009407	9.920407	-45.089716	134.375493
55803	6.927665	1.199732	6.821624	-0.003801	0.005211	-0.006887	9.920542	-45.089707	134.375851
55804	6.960911	1.195708	6.815746	-0.003802	0.005211	-0.006887	9.920683	-45.089675	134.376226
55805	6.905264	1.173238	6.820286	-0.005503	0.005887	-0.008692	9.920798	-45.089106	134.375236
55806	6.959014	1.173898	6.826756	-0.004308	0.006499	-0.006171	9.920096	-45.088430	134.376364
55807	6.918263	1.186947	6.792624	-0.002031	0.006251	-0.007745	9.921629	-45.087749	134.376182
55808	6.938479	1.191969	6.805203	-0.004562	0.001596	-0.007462	9.922004	-45.089724	134.375567
55809	6.917511	1.187377	6.793314	-0.004816	0.007787	-0.005456	9.920493	-45.088402	134.377430
55810	6.924455	1.201358	6.824596	-0.002721	0.004352	-0.010982	9.923694	-45.088461	134.374361
55811	6.916564	1.188040	6.794163	-0.002609	0.005824	-0.004367	9.923025	-45.088354	134.376819
55812	6.936691	1.192935	6.806856	-0.003804	0.005212	-0.006888	9.923156	-45.088333	134.377186
55813	6.936337	1.193195	6.807172	-0.004528	0.002454	-0.008794	9.924228	-45.089691	134.375635
55814	6.935946	1.193371	6.807539	-0.006048	0.006317	-0.006646	9.922862	-45.089086	134.376290
55815	6.934575	1.171329	6.818054	-0.005000	0.004600	-0.009410	9.923800	-45.089173	134.374546
55816	6.921802	1.202759	6.827041	-0.003048	0.008828	-0.006314	9.923702	-45.087171	134.375853
55817	6.906450	1.175739	6.765825	-0.002792	0.002637	-0.008321	9.925482	-45.088473	134.374705
55818	6.934999	1.216704	6.799159	-0.005001	0.004600	-0.009410	9.926367	-45.088555	134.373007
55819	6.919673	1.181405	6.838200	-0.003841	0.004354	-0.005558	9.925812	-45.089161	134.374308
55820	6.947335	1.208165	6.781359	-0.003807	0.005213	-0.006889	9.925931	-45.089148	134.374670
55821	6.913164	1.212538	6.788073	-0.004314	0.006500	-0.006173	9.925241	-45.088481	134.375779
55822	6.945526	1.186206	6.792309	-0.005578	0.004172	-0.006032	9.923984	-45.089148	134.376650
55823	6.918860	1.204142	6.829779	-0.005544	0.005030	-0.007364	9.923409	-45.089193	134.376602
55824	6.910966	1.190616	6.799406	-0.004315	0.006500	-0.006173	9.922723	-45.088523	134.377700
55825	6.944186	1.186739	6.793586	-0.001530	0.004967	-0.008462	9.925076	-45.088496	134.376765
55826	6.930533	1.195972	6.812593	-0.006018	0.007176	-0.007980	9.924364	-45.087272	134.376510
55827	6.909472	1.191372	6.800793	-0.005545	0.005030	-0.007365	9.923788	-45.087318	134.376461
55828	6.929552	1.196243	6.813544	-0.004317	0.006501	-0.006174	9.923111	-45.086646	134.377551
55829	6.928185	1.174190	6.824055	-0.003809	0.005214	-0.006890	9.923243	-45.086635	134.377907
55830	6.921199	1.182899	6.783620	-0.006054	0.006318	-0.006649	9.921845	-45.086027	134.378592
55831	6.928082	1.196596	6.814977	-0.003123	0.007113	-0.003652	9.920349	-45.085263	134.381802
55832	6.948200	1.201470	6.827692	-0.007970	0.002949	-0.011079	9.920713	-45.086108	134.378476
55833	6.947734	1.201608	6.828142	-0.004827	0.007788	-0.005458	9.919197	-45.084785	134.380337
55834	6.898730	1.178738	6.773176	-0.001532	0.004969	-0.008463	9.921517	-45.084765	134.379406
55835	6.926196	1.197352	6.816761	-0.007793	0.006135	-0.007125	9.919409	-45.084211	134.379703
55836	6.925691	1.197447	6.817257	-0.005514	0.005890	-0.008698	9.919527	-45.083637	134.378693
55837	6.937423	1.166542	6.809283	-0.004286	0.007361	-0.007506	9.919523	-45.082353	134.378857
55838	6.904122	1.193101	6.805920	-0.003846	0.004356	-0.005560	9.918921	-45.082967	134.380173
55839	6.937515	1.189123	6.799982	-0.006269	0.002274	-0.009275	9.919285	-45.084379	134.378212
55840	6.924761	1.220521	6.808902	-0.004254	0.008220	-0.008838	9.920006	-45.082461	134.377413
55841	6.929202	1.175929	6.770014	-0.003881	0.003497	-0.004229	9.918761	-45.083681	134.379656
55842	6.937088	1.211930	6.791170	-0.003813	0.005215	-0.006892	9.918844	-45.083664	134.380054
55843	6.934933	1.167672	6.811625	-0.002110	0.004540	-0.005085	9.918994	-45.084211	134.381759
55844	6.936321	1.212269	6.791893	-0.005584	0.004173	-0.006036	9.917752	-45.084863	134.382631
55845	6.920926	1.176813	6.830965	-0.004289	0.007362	-0.007507	9.917746	-45.083579	134.382795
55846	6.921361	1.199268	6.821333	-0.003339	0.003070	-0.006277	9.918031	-45.084829	134.383328
55847	6.921046	1.199436	6.821624	-0.006779	0.003562	-0.008560	9.917570	-45.085585	134.382118
55848	6.934667	1.213106	6.793432	-0.003239	0.005648	-0.010271	9.919944	-45.084994	134.379779
55849	6.934115	1.213377	6.793947	-0.004834	0.007789	-0.005460	9.918425	-45.083670	134.381639
55850	6.919634	1.200146	6.822931	-0.006271	0.002275	-0.009278	9.918794	-45.085068	134.379681
55851	6.919164	1.200456	6.823353	-0.002522	0.008406	-0.008363	9.920182	-45.083109	134.379307
55852	6.931873	1.191848	6.805256	-0.005077	0.002886	-0.006754	9.919767	-45.084421	134.379416
55853	6.910949	1.187215	6.793310	-0.004326	0.006503	-0.006177	9.919072	-45.083753	134.380522
55854	6.931004	1.192110	6.806096	-0.005554	0.005033	-0.007370	9.918498	-45.083769	134.380500
55855	6.910004	1.187479	6.794224	-0.004327	0.006503	-0.006177	9.917802	-45.083101	134.381606
55856	6.963816	1.188408	6.800746	-0.004502	0.003320	-0.010134	9.919602	-45.083828	134.379071
55857	6.896064	1.196817	6.813434	-0.003884	0.003497	-0.004231	9.918356	-45.085048	134.381312
55858	6.916228	1.201883	6.826078	-0.002732	0.004364	-0.010989	9.921540	-45.085102	134.378249
55859	6.928911	1.193334	6.808012	-0.004839	0.007790	-0.005461	9.920019	-45.083778	134.380108
55860	6.941596	1.184567	6.789987	-0.005556	0.005033	-0.007371	9.919399	-45.083816	134.380090
55861	6.928040	1.193595	6.808852	-0.003342	0.003071	-0.006279	9.919666	-45.085075	134.380635
55862	6.928573	1.216096	6.799113	-0.003309	0.003931	-0.007610	9.920594	-45.085727	134.380229
55863	6.945556	1.140533	6.751583	-0.003820	0.005218	-0.006894	9.920722	-45.085713	134.380582
55864	6.914572	1.225335	6.818386	-0.005590	0.004173	-0.006040	9.919533	-45.086372	134.381388
55865	6.925675	1.172249	6.820253	-0.001540	0.004976	-0.008465	9.921880	-45.086339	134.380452
55866	6.892291	1.198881	6.816887	-0.006036	0.007179	-0.007986	9.921120	-45.085098	134.380258
55867	6.945206	1.177467	6.833520	-0.003854	0.004358	-0.005563	9.920560	-45.085701	134.381555
55868	6.926027	1.217270	6.801496	-0.005591	0.004173	-0.006041	9.919245	-45.086360	134.382480
55869	6.923936	1.172898	6.821907	-0.003822	0.005218	-0.006895	9.919373	-45.086346	134.382833
55870	6.938401	1.208685	6.783776	-0.004365	0.005644	-0.004847	9.918001	-45.086274	134.384890
55871	6.945219	1.222389	6.815127	-0.004333	0.006504	-0.006178	9.917302	-45.085604	134.385996
55872	6.936648	1.186655	6.794677	-0.006786	0.003563	-0.008567	9.916867	-45.086340	134.384777
55873	6.902531	1.190887	6.801221	-0.003823	0.005219	-0.006895	9.916994	-45.086325	134.385130
55874	6.949882	1.200468	6.766916	-0.003823	0.005219	-0.006895	9.917116	-45.086298	134.385495
55875	6.915681	1.204786	6.773527	-0.003791	0.006080	-0.008227	9.917930	-45.085666	134.384904
55876	6.954541	1.170111	6.818689	-0.003824	0.005219	-0.006895	9.918105	-45.085628	134.385237
55877	6.921179	1.196632	6.815293	-0.005529	0.005895	-0.008705	9.918212	-45.085053	134.384238
55878	6.921544	1.219108	6.805729	-0.003824	0.005219	-0.006896	9.918322	-45.085032	134.384604
55879	6.920312	1.197070	6.816097	-0.005050	0.003749	-0.008090	9.918568	-45.085730	134.383796
55880	6.952854	1.170905	6.820273	-0.005595	0.004174	-0.006043	9.917335	-45.086377	134.384658
55881	6.932789	1.188633	6.798269	-0.001544	0.004980	-0.008466	9.919680	-45.086343	134.383722
55882	6.939694	1.202497	6.829483	-0.003890	0.003498	-0.004234	9.918453	-45.087533	134.385980
55883	6.939298	1.202714	6.829848	-0.004987	0.005471	-0.010754	9.920072	-45.086995	134.383284
55884	6.911068	1.184585	6.787020	-0.005564	0.005035	-0.007375	9.919547	-45.087028	134.383175
55885	6.951707	1.194338	6.812086	-0.003347	0.003073	-0.006282	9.919812	-45.088285	134.383718
55886	6.904374	1.207384	6.837098	-0.003827	0.005220	-0.006897	9.919869	-45.088286	134.384096
55887	6.929589	1.167676	6.810457	-0.005565	0.005035	-0.007375	9.919288	-45.088328	134.384039
55888	6.903390	1.207958	6.837991	-0.003188	0.007380	-0.012938	9.922973	-45.086486	134.379882
55889	6.929322	1.190611	6.801457	-0.004916	0.006069	-0.002801	9.920072	-45.086396	134.383627
55890	6.915633	1.199719	6.820379	0.000735	0.004743	-0.010036	9.924645	-45.086327	134.381403
55891	6.934748	1.182657	6.843238	-0.006559	0.008467	-0.007274	9.923097	-45.084442	134.381907
55892	6.926880	1.169286	6.812936	-0.003765	0.006943	-0.009560	9.924595	-45.083171	134.380392
55893	6.961007	1.187944	6.797172	-0.002804	0.002650	-0.008331	9.926374	-45.084464	134.379238
55894	6.912806	1.178786	6.832172	-0.005536	0.005896	-0.008708	9.926492	-45.083891	134.378204
55895	6.933677	1.206113	6.834955	-0.003317	0.003936	-0.007615	9.927443	-45.084529	134.377803
55896	6.946487	1.197488	6.816857	-0.003150	0.007115	-0.003654	9.925898	-45.083760	134.381040
55897	6.925522	1.192991	6.804909	-0.002741	0.004374	-0.010994	9.929049	-45.083818	134.377998
55898	6.945494	1.198109	6.817759	-0.004857	0.007791	-0.005465	9.927515	-45.082488	134.379853
55899	6.924576	1.193476	6.805787	-0.004542	0.002465	-0.008811	9.928587	-45.083839	134.378289
55900	6.924258	1.193688	6.806073	-0.003863	0.004360	-0.005567	9.928198	-45.084949	134.378161
55901	6.944339	1.198667	6.818838	-0.003832	0.005221	-0.006899	9.928322	-45.084933	134.378510
55902	6.922613	1.171899	6.816823	-0.003287	0.004798	-0.008947	9.929959	-45.084950	134.377160
55903	6.923063	1.194466	6.807153	-0.003350	0.003075	-0.006284	9.930223	-45.086207	134.377700
55904	6.955614	1.168494	6.811355	-0.006732	0.005288	-0.011238	9.931133	-45.085709	134.374603
55905	6.923087	1.217169	6.797890	-0.003896	0.003498	-0.004236	9.929884	-45.086929	134.376840
55906	6.921851	1.195034	6.808285	-0.007247	0.006573	-0.010521	9.929972	-45.085778	134.374493
55907	6.913296	1.159534	6.787847	-0.000327	0.006457	-0.007271	9.932192	-45.085028	134.374717
55908	6.934932	1.209188	6.780687	-0.003865	0.004360	-0.005568	9.931635	-45.085633	134.375989
55909	6.933735	1.187048	6.791046	-0.005572	0.005036	-0.007379	9.931052	-45.085674	134.375928
55910	6.920026	1.195862	6.809995	-0.006117	0.005458	-0.005331	9.928979	-45.085664	134.377557
55911	6.919637	1.195993	6.810367	-0.006252	0.003142	-0.010625	9.930032	-45.086453	134.374637
55912	6.932483	1.187401	6.792262	-0.003157	0.007116	-0.003655	9.928464	-45.085670	134.377917
55913	6.938398	1.178890	6.833605	-0.005028	0.004614	-0.009428	9.929394	-45.085747	134.376159
55914	6.918287	1.196557	6.811640	-0.002643	0.005832	-0.004372	9.928693	-45.085621	134.378639
55915	6.944458	1.179293	6.774970	-0.004515	0.003329	-0.010146	9.930451	-45.086352	134.376129
55916	6.951251	1.193142	6.806240	-0.005574	0.005036	-0.007381	9.929832	-45.086391	134.376097
55917	6.917023	1.197209	6.812808	-0.004352	0.006508	-0.006184	9.929126	-45.085719	134.377198
55918	6.930592	1.210905	6.784816	-0.005545	0.005899	-0.008712	9.929200	-45.085122	134.376239
55919	6.916041	1.197696	6.813719	-0.003292	0.004801	-0.008949	9.930835	-45.085141	134.374891
55920	6.928865	1.189255	6.795629	-0.005545	0.005899	-0.008713	9.930967	-45.084569	134.373833
55921	6.915885	1.220501	6.804620	-0.003838	0.005224	-0.006901	9.931088	-45.084552	134.374181
55922	6.941259	1.180993	6.777951	-0.005031	0.004615	-0.009430	9.931982	-45.084614	134.372470
55923	6.914186	1.198794	6.815409	-0.000878	0.006882	-0.005223	9.932685	-45.083827	134.374392
55924	6.927001	1.190307	6.797344	-0.003839	0.005224	-0.006901	9.932874	-45.083786	134.374703
55925	6.925824	1.168248	6.807667	-0.005062	0.003752	-0.008099	9.933118	-45.084481	134.373887
55926	6.946631	1.195623	6.810520	-0.003810	0.006087	-0.008233	9.933930	-45.083855	134.373253
55927	6.925787	1.190920	6.798473	-0.008569	0.002515	-0.007731	9.932079	-45.085284	134.372558
55928	6.945849	1.196063	6.811240	0.000211	0.006041	-0.009319	9.935826	-45.084542	134.371104
55929	6.945290	1.196418	6.811748	-0.004872	0.007792	-0.005468	9.934289	-45.083217	134.372956
55930	6.910246	1.178261	6.828265	-0.006226	0.004007	-0.011961	9.936036	-45.083363	134.369107
55931	6.924674	1.214350	6.790241	-0.002649	0.005833	-0.004373	9.935347	-45.083251	134.371561
55932	6.936809	1.183552	6.782059	-0.003326	0.003941	-0.007619	9.936290	-45.083869	134.371180
55933	6.923877	1.214737	6.790985	-0.007318	0.004850	-0.007865	9.935000	-45.083968	134.370705
55934	6.956401	1.188752	6.795301	-0.003813	0.006088	-0.008234	9.935750	-45.083340	134.370129
55935	6.908962	1.201528	6.820224	-0.005125	0.002027	-0.005439	9.934624	-45.085271	134.371198
55936	6.935305	1.184283	6.783470	0.001341	0.004925	-0.004127	9.936164	-45.085694	134.373726
55937	6.941946	1.198243	6.814836	-0.003784	0.006952	-0.009566	9.937653	-45.084438	134.372186
55938	6.920996	1.193491	6.802900	-0.009604	0.005082	-0.006300	9.934163	-45.084546	134.372989
55939	6.900199	1.188771	6.790804	-0.001073	0.002846	-0.007856	9.936645	-45.085776	134.372241
55940	6.940721	1.198942	6.815960	-0.001560	0.004993	-0.008470	9.938946	-45.085725	134.371342
55941	6.939481	1.176922	6.826343	-0.006099	0.006321	-0.006668	9.937531	-45.085111	134.372029
55942	6.932620	1.185822	6.785945	-0.003816	0.006089	-0.008235	9.938360	-45.084463	134.371414
55943	6.919613	1.217167	6.794895	-0.001591	0.004130	-0.007139	9.940012	-45.085039	134.371418
55944	6.897217	1.168181	6.802706	-0.003270	0.005669	-0.010284	9.942352	-45.084428	134.369102
55945	6.924292	1.186996	6.846498	-0.005038	0.004618	-0.009435	9.943280	-45.084502	134.367340
55946	6.917510	1.195803	6.806040	-0.004939	0.006065	-0.002807	9.940360	-45.084413	134.371074
55947	6.936673	1.178371	6.828947	-0.006072	0.007185	-0.008001	9.939629	-45.083180	134.370817
55948	6.929027	1.164948	6.798533	-0.004364	0.006510	-0.006187	9.938931	-45.082489	134.371923
55949	6.916686	1.218403	6.797652	-0.005556	0.005902	-0.008718	9.939029	-45.081910	134.370913
55950	6.914744	1.174000	6.817934	-0.003877	0.004362	-0.005573	9.938438	-45.082510	134.372211
55951	6.935450	1.201321	6.820905	-0.004336	0.007374	-0.007519	9.938411	-45.081218	134.372366
55952	6.901199	1.205287	6.827416	-0.005616	0.004174	-0.006056	9.937138	-45.081866	134.373249
55953	6.927569	1.187931	6.790733	-0.003907	0.003499	-0.004242	9.935887	-45.083085	134.375481
55954	6.934212	1.201701	6.822097	-0.003791	0.006955	-0.009568	9.937402	-45.081819	134.373914
55955	6.926620	1.188459	6.791608	-0.003849	0.005227	-0.006905	9.937519	-45.081799	134.374259
55956	6.933259	1.202317	6.822956	-0.003303	0.004808	-0.008954	9.939136	-45.081796	134.372940
55957	6.912443	1.197715	6.810849	-0.006809	0.003567	-0.008589	9.938674	-45.082547	134.371706
55958	6.925402	1.189246	6.792712	-0.002112	0.005416	-0.006423	9.939483	-45.082457	134.372482
55959	6.932034	1.203102	6.824063	-0.005042	0.004620	-0.009437	9.940410	-45.082529	134.370718
55960	6.931560	1.203322	6.824505	-0.004369	0.006511	-0.006189	9.939720	-45.081857	134.371779
55961	6.930338	1.181334	6.834864	-0.001566	0.004997	-0.008471	9.942054	-45.081812	134.370840
55962	6.943995	1.195119	6.806863	-0.004945	0.006065	-0.002809	9.939125	-45.081724	134.374582
55963	6.910521	1.221351	6.803391	-0.006235	0.004013	-0.011970	9.940863	-45.081889	134.370709
55964	6.923456	1.212987	6.785274	-0.003852	0.005228	-0.006906	9.940994	-45.081854	134.371047
55965	6.922281	1.190908	6.795602	-0.003852	0.005228	-0.006907	9.941110	-45.081834	134.371391
55966	6.914828	1.191085	6.855347	-0.003334	0.003945	-0.007624	9.942010	-45.082481	134.370987
55967	6.921490	1.191472	6.796309	-0.005045	0.004621	-0.009439	9.942937	-45.082553	134.369222
55968	6.921739	1.214027	6.786839	0.000297	0.007497	-0.002690	9.942812	-45.081650	134.373283
55969	6.919791	1.169560	6.807143	-0.007330	0.004850	-0.007875	9.941520	-45.081747	134.372801
55970	6.920093	1.191988	6.797641	-0.003854	0.005228	-0.006907	9.941703	-45.081718	134.373081
55971	6.940764	1.219476	6.800626	-0.005017	0.005486	-0.010771	9.943313	-45.081170	134.370372
55972	6.918427	1.170399	6.808384	-0.003308	0.004811	-0.008956	9.945015	-45.081182	134.368937
55973	6.939128	1.197885	6.811339	-0.003855	0.005229	-0.006908	9.945129	-45.081161	134.369280
55974	6.918282	1.193219	6.799268	-0.003855	0.005229	-0.006908	9.945268	-45.081123	134.369617
55975	6.938258	1.198234	6.812164	-0.007333	0.004850	-0.007876	9.943976	-45.081220	134.369133
55976	6.918183	1.215825	6.790142	-0.003337	0.003946	-0.007625	9.944968	-45.081835	134.368695
55977	6.930446	1.185131	6.781917	-0.003856	0.005229	-0.006908	9.945082	-45.081814	134.369037
55978	6.930082	1.185386	6.782244	-0.001627	0.003271	-0.005810	9.946069	-45.082992	134.369974
55979	6.902112	1.180643	6.829577	-0.006059	0.008052	-0.009338	9.946016	-45.081137	134.368770
55980	6.949461	1.190675	6.795706	-0.004404	0.005647	-0.004860	9.944667	-45.081048	134.370810
55981	6.922197	1.208181	6.833145	-0.002091	0.006284	-0.007756	9.946168	-45.080347	134.370623
55982	6.901282	1.203600	6.821123	-0.005568	0.005905	-0.008725	9.946292	-45.079742	134.369607
55983	6.948079	1.191249	6.797019	-0.007391	0.003119	-0.005215	9.943633	-45.081079	134.371007
55984	6.940681	1.177847	6.766418	-0.002092	0.006285	-0.007756	9.945103	-45.080378	134.370837
55985	6.933810	1.200369	6.816315	-0.005050	0.004623	-0.009443	9.946028	-45.080448	134.369069
55986	6.933376	1.200632	6.816710	-0.003859	0.005230	-0.006909	9.946144	-45.080418	134.369412
55987	6.925869	1.187193	6.786231	-0.006638	0.007605	-0.005959	9.943892	-45.079150	134.370846
55988	6.932349	1.200898	6.817708	-0.003312	0.004814	-0.008958	9.945508	-45.079181	134.369454
55989	6.924181	1.165375	6.797040	-0.005571	0.005906	-0.008726	9.945601	-45.078598	134.368438
55990	6.937790	1.179192	6.769147	-0.006119	0.006323	-0.006677	9.944151	-45.077987	134.369127
55991	6.911172	1.218931	6.796722	-0.003833	0.006096	-0.008241	9.944946	-45.077345	134.368526
55992	6.943823	1.193024	6.801055	-0.004436	0.004781	-0.003530	9.942865	-45.077889	134.371528
55993	6.930020	1.201820	6.819913	-0.006243	0.004018	-0.011979	9.944602	-45.078050	134.367649
55994	6.922612	1.188562	6.789314	-0.002671	0.005837	-0.004376	9.943881	-45.077925	134.370128
55995	6.908754	1.197350	6.808224	-0.003862	0.005231	-0.006910	9.943994	-45.077902	134.370469
55996	6.908281	1.197569	6.808665	-0.005574	0.005907	-0.008727	9.944085	-45.077315	134.369446
55997	6.940907	1.171808	6.813013	-0.002124	0.005422	-0.006425	9.944900	-45.077233	134.370202
55998	6.927668	1.202996	6.822095	-0.004357	0.007379	-0.007525	9.944866	-45.075924	134.370360
55999	6.920270	1.189783	6.791487	-0.002821	0.002668	-0.008346	9.946641	-45.077207	134.369195
56000	6.906381	1.198660	6.810401	-0.007808	0.007865	-0.009828	9.945924	-45.075422	134.367498
56001	6.919334	1.190140	6.792378	-0.003918	0.003499	-0.004248	9.944669	-45.076640	134.369724
56002	6.919587	1.212622	6.782917	-0.002619	0.007570	-0.007039	9.945359	-45.075275	134.370271
56003	6.938064	1.173082	6.815688	-0.007342	0.004851	-0.007883	9.944065	-45.075371	134.369781
56004	6.938327	1.195528	6.806223	-0.003865	0.005232	-0.006912	9.944185	-45.075353	134.370093
56005	6.917553	1.190744	6.794086	-0.005631	0.004175	-0.006066	9.942911	-45.076009	134.370961
56006	6.936840	1.173466	6.816868	-0.003865	0.005232	-0.006912	9.943063	-45.075976	134.371267
56007	6.937709	1.218277	6.797603	-0.006099	0.007190	-0.008012	9.942322	-45.074739	134.371002
56008	6.935779	1.173779	6.817894	-0.004388	0.006514	-0.006194	9.941654	-45.074056	134.372042
56009	6.935382	1.173906	6.818276	-0.005110	0.002894	-0.006785	9.941212	-45.075365	134.372157
56010	6.915421	1.191431	6.796136	-0.005110	0.002894	-0.006785	9.940822	-45.076675	134.372205
56011	6.935392	1.196604	6.809024	-0.002101	0.006291	-0.007757	9.942318	-45.075971	134.372018
56012	6.934310	1.174634	6.819240	-0.004562	0.002479	-0.008834	9.943370	-45.077315	134.370436
56013	6.934637	1.197212	6.809686	-0.003868	0.005233	-0.006912	9.943480	-45.077292	134.370776
56014	6.934198	1.197428	6.810095	-0.003868	0.005233	-0.006913	9.943649	-45.077223	134.371127
56015	6.919709	1.183902	6.838779	-0.003372	0.003085	-0.006299	9.943909	-45.078472	134.371656
56016	6.947649	1.211417	6.782390	-0.009112	0.003793	-0.007042	9.941234	-45.079254	134.371663
56017	6.952815	1.180451	6.833511	-0.001581	0.005010	-0.008475	9.943561	-45.079201	134.370723
56018	6.912258	1.193153	6.799050	-0.009583	0.006808	-0.008987	9.941451	-45.078064	134.369610
56019	6.931437	1.175889	6.821945	-0.002130	0.005425	-0.006426	9.942262	-45.077980	134.370365
56020	6.945085	1.189854	6.794053	-0.004392	0.006515	-0.006195	9.941587	-45.077289	134.371423
56021	6.917733	1.207123	6.831441	-0.003896	0.004367	-0.005582	9.941013	-45.077886	134.372705
56022	6.937732	1.212216	6.844317	-0.005087	0.003762	-0.008118	9.941281	-45.078547	134.371881
56023	6.943224	1.168003	6.805045	-0.005610	0.005043	-0.007401	9.940688	-45.078582	134.371804
56024	6.929370	1.176785	6.823889	-0.003348	0.003953	-0.007632	9.941648	-45.079220	134.371339
56025	6.929640	1.199368	6.814392	-0.003871	0.005235	-0.006914	9.941757	-45.079195	134.371678
56026	6.942669	1.191069	6.796308	-0.005062	0.004629	-0.009451	9.942708	-45.079267	134.369853
56027	6.895657	1.225801	6.811229	-0.003898	0.004367	-0.005583	9.942134	-45.079863	134.371135
56028	6.929112	1.222383	6.805629	-0.003349	0.003954	-0.007632	9.943100	-45.080486	134.370690
56029	6.927344	1.178035	6.825731	-0.003847	0.006102	-0.008246	9.943890	-45.079840	134.370086
56030	6.907187	1.195605	6.803772	-0.007352	0.004852	-0.007890	9.942598	-45.079938	134.369568
56031	6.927186	1.200622	6.816666	-0.005115	0.002895	-0.006789	9.942156	-45.081246	134.369679
56032	6.926871	1.200881	6.816940	-0.004541	0.003349	-0.010170	9.944005	-45.081942	134.367083
56033	6.925737	1.178903	6.827212	-0.002633	0.007576	-0.007040	9.944662	-45.080583	134.367649
56034	6.925956	1.201447	6.817771	-0.005116	0.002895	-0.006789	9.944246	-45.081885	134.367731
56035	6.939035	1.193117	6.799659	-0.003849	0.006103	-0.008246	9.945035	-45.081238	134.367126
56036	6.925045	1.201838	6.818627	-0.006138	0.006325	-0.006685	9.943679	-45.080614	134.367729
56037	6.938051	1.193516	6.800593	-0.003326	0.004823	-0.008965	9.945301	-45.080619	134.366372
56038	6.903789	1.197420	6.806901	-0.003876	0.005236	-0.006915	9.945410	-45.080596	134.366688
56039	6.937138	1.194086	6.801424	-0.003851	0.006104	-0.008247	9.946199	-45.079949	134.366083
56040	6.936125	1.171965	6.811600	-0.003403	0.002220	-0.004971	9.945796	-45.081835	134.367487
56041	6.943312	1.207989	6.833083	-0.005067	0.004631	-0.009453	9.946717	-45.081900	134.365712
56042	6.921807	1.181019	6.830830	-0.002637	0.007577	-0.007041	9.947429	-45.080540	134.366209
56043	6.935469	1.195172	6.802936	-0.004543	0.003351	-0.010172	9.949184	-45.081255	134.363680
56044	6.934472	1.173145	6.813080	-0.005093	0.003764	-0.008123	9.949458	-45.081931	134.362816
56045	6.934645	1.195699	6.803683	-0.004378	0.007385	-0.007530	9.949412	-45.080632	134.362964
56046	6.920668	1.204440	6.822610	-0.002164	0.004561	-0.005096	9.949541	-45.081168	134.364643
56047	6.933276	1.173697	6.814202	-0.006359	0.000554	-0.006667	9.948549	-45.083808	134.364523
56048	6.947017	1.187637	6.786275	-0.003164	0.008858	-0.006323	9.948286	-45.081779	134.365943
56049	6.939799	1.210031	6.836290	-0.002780	0.004413	-0.011016	9.951423	-45.081811	134.362889
56050	6.912278	1.191952	6.792970	-0.005119	0.002896	-0.006792	9.951037	-45.083084	134.362989
56051	6.932208	1.197075	6.805924	-0.002666	0.006710	-0.005710	9.951009	-45.082346	134.364497
56052	6.931730	1.197247	6.806381	-0.005620	0.005045	-0.007406	9.950458	-45.082355	134.364400
56053	6.931257	1.197467	6.806824	-0.003856	0.006106	-0.008249	9.951245	-45.081707	134.363794
56054	6.944327	1.189129	6.788766	-0.005645	0.004176	-0.006075	9.950029	-45.082328	134.364643
56055	6.943932	1.189347	6.789132	-0.003332	0.004826	-0.008967	9.951649	-45.082331	134.363283
56056	6.923297	1.184605	6.776829	-0.008075	0.001230	-0.008490	9.950661	-45.084404	134.361777
56057	6.909470	1.193191	6.795608	-0.002692	0.005842	-0.004379	9.949950	-45.084287	134.364228
56058	6.942239	1.167523	6.799955	-0.005072	0.004634	-0.009457	9.950900	-45.084353	134.362401
56059	6.909225	1.215919	6.786604	-0.004433	0.005649	-0.004868	9.949488	-45.084296	134.364433
56060	6.948215	1.181197	6.831824	-0.005647	0.004176	-0.006076	9.948273	-45.084930	134.365259
56061	6.907804	1.193695	6.797214	-0.005623	0.005045	-0.007407	9.947676	-45.084963	134.365177
56062	6.906783	1.171567	6.807399	-0.003358	0.003959	-0.007636	9.948666	-45.085566	134.364733
56063	6.921111	1.208104	6.769676	-0.002120	0.006301	-0.007760	9.950151	-45.084856	134.364545
56064	6.946550	1.181974	6.833382	-0.009128	0.003790	-0.007056	9.947532	-45.085623	134.364511
56065	6.926383	1.199439	6.811437	-0.002647	0.007581	-0.007042	9.948182	-45.084262	134.365076
56066	6.939310	1.191436	6.793491	-0.001547	0.006760	-0.011141	9.951920	-45.082944	134.362207
56067	6.904914	1.195353	6.799858	-0.004412	0.006519	-0.006201	9.951188	-45.082265	134.363296
56068	6.924175	1.178149	6.822682	-0.005099	0.003766	-0.008127	9.951451	-45.082960	134.362401
56069	6.924399	1.200668	6.813237	-0.005626	0.005046	-0.007409	9.950853	-45.082993	134.362317
56070	6.936916	1.169964	6.804966	-0.003910	0.004370	-0.005588	9.950352	-45.083591	134.363499
56071	6.916823	1.187464	6.782936	-0.005627	0.005046	-0.007409	9.949754	-45.083624	134.363415
56072	6.957742	1.219930	6.798620	-0.004598	0.001617	-0.007515	9.950223	-45.085558	134.362718
56073	6.916112	1.187760	6.783610	-0.004940	0.007799	-0.005483	9.948654	-45.084228	134.364560
56074	6.942067	1.184146	6.837560	-0.002787	0.004420	-0.011019	9.951843	-45.084227	134.361492
56075	6.936081	1.215699	6.787267	-0.004438	0.005650	-0.004870	9.950429	-45.084170	134.363522
56076	6.920808	1.179559	6.825854	-0.006131	0.007195	-0.008023	9.949757	-45.082901	134.363206
56077	6.935055	1.215834	6.788290	-0.006179	0.005456	-0.005361	9.947642	-45.082905	134.364817
56078	6.933324	1.171352	6.808387	-0.002102	0.007173	-0.009092	9.949833	-45.081557	134.363672
56079	6.933455	1.193965	6.799022	-0.005653	0.004177	-0.006080	9.948554	-45.082211	134.364529
56080	6.919469	1.202644	6.817895	-0.002126	0.006304	-0.007761	9.950070	-45.081495	134.364303
56081	6.932624	1.194355	6.799802	-0.008606	0.002510	-0.007780	9.948227	-45.082922	134.363567
56082	6.918642	1.202945	6.818682	-0.002654	0.007584	-0.007043	9.948908	-45.081552	134.364097
56083	6.931751	1.194833	6.800607	-0.002836	0.002682	-0.008358	9.950681	-45.082824	134.362924
56084	6.897539	1.198604	6.806767	-0.003891	0.005241	-0.006921	9.950820	-45.082761	134.363269
56085	6.910692	1.190315	6.788684	-0.003914	0.004371	-0.005590	9.950241	-45.083355	134.364545
56086	6.930626	1.195512	6.801634	-0.003364	0.003962	-0.007640	9.951211	-45.083992	134.364052
56087	6.930114	1.195911	6.802087	-0.003822	0.007851	-0.010916	9.953353	-45.082094	134.361559
56088	6.949891	1.201120	6.815196	-0.004466	0.004780	-0.003540	9.951187	-45.082684	134.364544
56089	6.915042	1.182480	6.831190	-0.002790	0.004423	-0.011022	9.954321	-45.082710	134.361486
56090	6.969266	1.206680	6.828655	-0.004949	0.007800	-0.005485	9.952829	-45.081352	134.363283
56091	6.928167	1.196915	6.803893	-0.003342	0.004833	-0.008972	9.954446	-45.081351	134.361921
56092	6.914086	1.205666	6.822821	-0.004398	0.007391	-0.007535	9.954431	-45.080058	134.361995
56093	6.940704	1.189001	6.786392	-0.003894	0.005242	-0.006922	9.954531	-45.080028	134.362327
56094	6.933417	1.211049	6.836352	-0.005634	0.005047	-0.007414	9.953963	-45.080048	134.362218
56095	6.926380	1.197826	6.805552	-0.002861	0.001814	-0.007028	9.955056	-45.081942	134.361985
56096	6.905664	1.193048	6.793319	-0.007858	0.007873	-0.009851	9.954332	-45.080123	134.360309
56097	6.911318	1.184206	6.834659	-0.003941	0.003501	-0.004260	9.953071	-45.081340	134.362526
56098	6.925111	1.198385	6.806745	-0.001604	0.005029	-0.008481	9.955359	-45.081259	134.361629
56099	6.944913	1.203779	6.819800	-0.003873	0.006113	-0.008254	9.956138	-45.080606	134.361020
56100	6.910614	1.207510	6.826012	-0.003367	0.003964	-0.007642	9.927841	-45.084309	134.379863
56101	6.902936	1.171933	6.805065	-0.005637	0.005048	-0.007415	9.927216	-45.084342	134.379792
56102	6.936943	1.191134	6.789862	-0.003345	0.004835	-0.008973	9.928865	-45.084334	134.378417
56103	6.936464	1.191439	6.790299	-0.002686	0.006716	-0.005713	9.928802	-45.083595	134.379941
56104	6.908287	1.186139	6.837387	-0.008038	0.002972	-0.011169	9.929155	-45.084404	134.376566
56105	6.921980	1.200347	6.809583	-0.002664	0.007587	-0.007044	9.929771	-45.083041	134.377147
56106	6.935050	1.192058	6.791633	-0.006190	0.005456	-0.005366	9.927667	-45.083034	134.378750
56107	6.921023	1.200557	6.810518	-0.003898	0.005243	-0.006924	9.927741	-45.083006	134.379100
56108	6.920583	1.200770	6.810928	-0.003899	0.005243	-0.006924	9.927831	-45.082959	134.379438
56109	6.913468	1.187520	6.780239	-0.005639	0.005048	-0.007417	9.927205	-45.082992	134.379366
56110	6.912511	1.165285	6.790384	-0.006851	0.003575	-0.008628	9.926723	-45.083735	134.378112
56111	6.919367	1.201201	6.812088	-0.005640	0.005049	-0.007417	9.926097	-45.083768	134.378040
56112	6.918969	1.201415	6.812454	-0.003370	0.003966	-0.007643	9.927045	-45.084375	134.377613
56113	6.919129	1.223991	6.803060	-0.002712	0.005846	-0.004381	9.926299	-45.084258	134.380079
56114	6.931793	1.193294	6.794741	-0.003945	0.003501	-0.004262	9.925047	-45.085462	134.382292
56115	6.917755	1.201867	6.813607	-0.005597	0.006791	-0.010081	9.925780	-45.084249	134.380335
56116	6.917166	1.202136	6.814157	-0.004409	0.007394	-0.007538	9.925790	-45.082928	134.380444
56117	6.929651	1.171676	6.805986	-0.002139	0.006311	-0.007764	9.927241	-45.082214	134.380271
56118	6.936353	1.207767	6.827801	-0.005620	0.005920	-0.008750	9.927272	-45.081626	134.379261
56119	6.929260	1.194568	6.797101	-0.002183	0.004569	-0.005101	9.927363	-45.082159	134.380973
56120	6.915288	1.203260	6.815865	-0.004561	0.003364	-0.010188	9.929107	-45.082852	134.378442
56121	6.908166	1.190066	6.785195	-0.004964	0.007801	-0.005488	9.927504	-45.081522	134.380296
56122	6.940967	1.164325	6.789698	-0.006196	0.005456	-0.005369	9.925376	-45.081532	134.381900
56123	6.954334	1.213646	6.842630	-0.003882	0.006117	-0.008258	9.926127	-45.080879	134.381305
56124	6.926997	1.195518	6.799239	-0.003373	0.003967	-0.007645	9.927042	-45.081494	134.380893
56125	6.926597	1.195776	6.799602	-0.003904	0.005245	-0.006926	9.927113	-45.081465	134.381241
56126	6.925571	1.173622	6.809802	-0.005623	0.005921	-0.008752	9.927225	-45.080862	134.380189
56127	6.945354	1.178957	6.822900	-0.003352	0.004839	-0.008977	9.928813	-45.080859	134.378841
56128	6.925729	1.218986	6.791143	-0.005624	0.005921	-0.008752	9.928887	-45.080267	134.377805
56129	6.924239	1.174410	6.811021	-0.005136	0.002900	-0.006808	9.928417	-45.081573	134.377918
56130	6.958299	1.193562	6.795848	-0.002717	0.005848	-0.004382	9.927677	-45.081445	134.380379
56131	6.909851	1.183116	6.830181	-0.006304	0.003170	-0.010684	9.928706	-45.082215	134.377432
56132	6.923634	1.197382	6.802336	-0.003906	0.005246	-0.006927	9.928808	-45.082176	134.377760
56133	6.943441	1.202629	6.815426	-0.003907	0.005246	-0.006927	9.928878	-45.082146	134.378107
56134	6.902471	1.192823	6.790505	-0.003886	0.006118	-0.008259	9.929628	-45.081483	134.377509
56135	6.922280	1.198029	6.803600	-0.005669	0.004178	-0.006090	9.928321	-45.082139	134.378376
56136	6.955728	1.194832	6.798257	-0.005627	0.005922	-0.008754	9.928380	-45.081542	134.377348
56137	6.920752	1.176176	6.814259	-0.000385	0.007384	-0.008602	9.931204	-45.080140	134.376655
56138	6.920319	1.176437	6.814654	-0.008620	0.002508	-0.007799	9.929354	-45.081553	134.375918
56139	6.906863	1.207255	6.823696	-0.003909	0.005247	-0.006928	9.929423	-45.081522	134.376264
56140	6.920141	1.199108	6.805586	-0.003398	0.003097	-0.006316	9.929651	-45.082788	134.376775
56141	6.953124	1.173535	6.809924	-0.004462	0.005652	-0.004878	9.928202	-45.082732	134.378817
56142	6.919298	1.199488	6.806376	-0.003336	0.005715	-0.010310	9.930479	-45.082093	134.376519
56143	6.932388	1.191534	6.788431	-0.002681	0.007594	-0.007046	9.931087	-45.080727	134.377099
56144	6.911748	1.186701	6.776114	-0.003420	0.002225	-0.004985	9.930672	-45.082590	134.378546
56145	6.937722	1.182833	6.829990	-0.007392	0.004854	-0.007919	9.929346	-45.082684	134.378045
56146	6.916976	1.177831	6.817806	-0.004975	0.007802	-0.005491	9.927753	-45.081343	134.379888
56147	6.930679	1.192041	6.790087	-0.003379	0.003970	-0.007648	9.928660	-45.081961	134.379480
56148	6.929787	1.170000	6.800134	-0.001638	0.004167	-0.007153	9.930307	-45.082507	134.379469
56149	6.916301	1.200981	6.809158	-0.006861	0.003577	-0.008639	9.929819	-45.083250	134.378214
56150	6.929572	1.192732	6.791095	-0.007394	0.004854	-0.007920	9.928557	-45.083313	134.377684
56151	6.935265	1.183858	6.832307	-0.003400	0.003098	-0.006317	9.928785	-45.084556	134.378218
56152	6.928740	1.193120	6.791876	-0.004405	0.008271	-0.008874	9.929413	-45.082600	134.377419
56153	6.928262	1.193291	6.792333	-0.003954	0.003502	-0.004267	9.928123	-45.083817	134.379649
56154	6.914245	1.201837	6.811095	-0.006289	0.004046	-0.012022	9.929879	-45.083960	134.375712
56155	6.934036	1.207240	6.824180	-0.002173	0.005446	-0.006434	9.930644	-45.083866	134.376481
56156	6.926518	1.171818	6.803151	-0.003361	0.004845	-0.008981	9.932247	-45.083854	134.375114
56157	6.933114	1.207936	6.824994	-0.003895	0.006122	-0.008262	9.932993	-45.083198	134.374517
56158	6.911863	1.180666	6.822500	-0.006189	0.006328	-0.006707	9.931499	-45.082585	134.375195
56159	6.945238	1.177619	6.817262	-0.002154	0.006319	-0.007766	9.932942	-45.081866	134.375022
56160	6.911415	1.203614	6.813652	-0.003382	0.003972	-0.007650	9.933875	-45.082467	134.374602
56161	6.931239	1.208844	6.826737	-0.007398	0.004854	-0.007923	9.932547	-45.082560	134.374098
56162	6.923251	1.150866	6.815430	-0.005104	0.004648	-0.009478	9.933428	-45.082607	134.372328
56163	6.910230	1.204258	6.814741	-0.001662	0.003296	-0.005823	9.934352	-45.083786	134.373285
56164	6.923077	1.173808	6.806310	-0.005125	0.003775	-0.008146	9.934565	-45.084467	134.372439
56165	6.923153	1.196418	6.796991	-0.005639	0.005925	-0.008759	9.934612	-45.083872	134.371417
56166	6.942316	1.179271	6.819953	-0.006173	0.007202	-0.008040	9.933899	-45.082594	134.371114
56167	6.928659	1.210097	6.829134	-0.003938	0.004376	-0.005600	9.933287	-45.083186	134.372400
56168	6.921345	1.174630	6.807930	-0.002317	0.001420	-0.009089	9.935890	-45.085099	134.370462
56169	6.941153	1.180085	6.820995	-0.002692	0.007598	-0.007048	9.936491	-45.083730	134.371042
56170	6.941558	1.225094	6.802136	-0.006175	0.007202	-0.008041	9.935730	-45.082468	134.370759
56171	6.913860	1.184350	6.768428	-0.005680	0.004178	-0.006097	9.934420	-45.083122	134.371620
56172	6.939193	1.158123	6.832120	-0.003920	0.005250	-0.006932	9.934499	-45.083083	134.371951
56173	6.933271	1.189804	6.781902	-0.003386	0.003974	-0.007652	9.935404	-45.083699	134.371540
56174	6.918194	1.153611	6.820100	-0.005108	0.004650	-0.009480	9.936285	-45.083747	134.369766
56175	6.938991	1.203779	6.813764	-0.003386	0.003974	-0.007652	9.937190	-45.084363	134.369356
56176	6.918346	1.198919	6.801443	-0.004456	0.006527	-0.006213	9.936404	-45.083685	134.370447
56177	6.917869	1.198957	6.801922	-0.006217	0.005455	-0.005379	9.934254	-45.083691	134.372061
56178	6.937640	1.204029	6.815095	-0.007404	0.004855	-0.007927	9.932922	-45.083798	134.371530
56179	6.916929	1.199086	6.802855	-0.004438	0.007402	-0.007545	9.932824	-45.082491	134.371685
56180	6.915924	1.176904	6.813044	-0.003922	0.005251	-0.006933	9.932955	-45.082430	134.371997
56181	6.929681	1.191194	6.785327	-0.005664	0.005053	-0.007431	9.932322	-45.082459	134.371914
56182	6.922029	1.213089	6.835323	-0.003369	0.004850	-0.008984	9.933926	-45.082421	134.370568
56183	6.914654	1.177589	6.814214	-0.003942	0.004377	-0.005602	9.933312	-45.083013	134.371853
56184	6.915182	1.222691	6.795212	-0.003351	0.005724	-0.010316	9.935574	-45.082376	134.369548
56185	6.913824	1.178061	6.814975	-0.007445	0.003106	-0.005266	9.932889	-45.083718	134.370924
56186	6.947766	1.197440	6.800021	0.000783	0.007998	-0.006053	9.934882	-45.082218	134.372348
56187	6.913338	1.200885	6.806187	-0.007408	0.004855	-0.007929	9.933552	-45.082310	134.371839
56188	6.926584	1.192793	6.788207	-0.003906	0.006127	-0.008266	9.934365	-45.081624	134.371202
56189	6.946257	1.198319	6.801408	-0.001611	0.005924	-0.009819	9.937320	-45.080926	134.369332
56190	6.911909	1.201799	6.807477	-0.005686	0.004179	-0.006101	9.936055	-45.081590	134.370132
56191	6.930672	1.162297	6.840055	-0.003889	0.007002	-0.009598	9.937472	-45.080305	134.368590
56192	6.925156	1.216377	6.780250	-0.005686	0.004179	-0.006101	9.936194	-45.080962	134.369406
56193	6.890450	1.197172	6.795933	-0.003964	0.003503	-0.004272	9.934902	-45.082179	134.371631
56194	6.943628	1.176856	6.813131	-0.002703	0.007602	-0.007049	9.935549	-45.080805	134.372159
56195	6.929461	1.185324	6.831967	-0.005151	0.002903	-0.006821	9.935079	-45.082108	134.372262
56196	6.929649	1.207983	6.822522	-0.002855	0.002701	-0.008374	9.936808	-45.083389	134.371077
56197	6.922365	1.172531	6.801341	-0.003928	0.005253	-0.006935	9.936870	-45.083354	134.371419
56198	6.928846	1.208452	6.823254	-0.005670	0.005054	-0.007434	9.936320	-45.083382	134.371253
56199	6.921458	1.172920	6.802197	-0.003910	0.006128	-0.008267	9.937059	-45.082721	134.370652
56200	6.955862	1.214708	6.777600	-0.004502	0.004778	-0.003553	9.934945	-45.083281	134.373614
56201	6.906884	1.181411	6.821429	-0.005116	0.004654	-0.009486	9.935829	-45.083333	134.371833
56202	6.920574	1.195929	6.793783	-0.003893	0.007004	-0.009599	9.937297	-45.082038	134.370247
56203	6.940273	1.201378	6.806974	-0.003393	0.003978	-0.007656	9.938200	-45.082651	134.369834
56204	6.939872	1.201635	6.807338	-0.003930	0.005254	-0.006936	9.938278	-45.082612	134.370157
56205	6.919257	1.196748	6.794980	-0.003931	0.005254	-0.006936	9.938339	-45.082576	134.370497
56206	6.918778	1.196917	6.795438	-0.004468	0.006529	-0.006217	9.937628	-45.081857	134.371569
56207	6.958681	1.207336	6.821393	-0.003394	0.003979	-0.007656	9.938530	-45.082470	134.371155
56208	6.917515	1.174971	6.805853	-0.002208	0.004578	-0.005106	9.938619	-45.082999	134.372845
56209	6.957830	1.207760	6.822185	-0.006193	0.007205	-0.008048	9.937820	-45.081752	134.372570
56210	6.936779	1.180421	6.819488	-0.006341	0.002305	-0.009375	9.938180	-45.083129	134.370548
56211	6.917200	1.220308	6.787662	-0.003950	0.004379	-0.005605	9.937563	-45.083719	134.371830
56212	6.916350	1.198109	6.797700	-0.005120	0.004655	-0.009488	9.938494	-45.083767	134.369999
56213	6.935634	1.181023	6.820548	-0.005675	0.005055	-0.007437	9.937859	-45.083795	134.369912
56214	6.915482	1.198498	6.798514	-0.003934	0.005255	-0.006938	9.937943	-45.083731	134.370258
56215	6.920926	1.189586	6.839872	-0.006196	0.007206	-0.008049	9.937143	-45.082484	134.369983
56216	6.914487	1.198973	6.799443	0.000087	0.004379	-0.006658	9.939471	-45.082951	134.370408
56217	6.893924	1.194116	6.787022	-0.007418	0.004855	-0.007937	9.938140	-45.083042	134.369893
56218	6.933739	1.204431	6.813091	-0.006197	0.007206	-0.008050	9.937393	-45.081780	134.369579
56219	6.926829	1.191192	6.782397	-0.004490	0.005654	-0.004887	9.935934	-45.081721	134.371613
56220	6.912661	1.199567	6.801194	-0.003397	0.003981	-0.007658	9.936896	-45.082309	134.371169
56221	6.932857	1.227355	6.804686	-0.003936	0.005256	-0.006938	9.936955	-45.082273	134.371508
56222	6.945344	1.174571	6.805955	-0.003398	0.003981	-0.007658	9.937851	-45.082876	134.371101
56223	6.910975	1.177913	6.811986	-0.002733	0.006731	-0.005719	9.937763	-45.082128	134.372621
56224	6.910969	1.200585	6.802734	-0.003398	0.003981	-0.007659	9.938607	-45.082745	134.372240
56225	6.944579	1.197761	6.797390	-0.006344	0.002306	-0.009379	9.938960	-45.084132	134.370216
56226	6.929942	1.183719	6.825865	-0.006201	0.007207	-0.008051	9.938188	-45.082865	134.369927
56227	6.929976	1.206262	6.816594	-0.003433	0.002229	-0.004996	9.937736	-45.084729	134.371395
56228	6.915444	1.192246	6.844952	-0.005125	0.004658	-0.009491	9.938610	-45.084769	134.369620
56229	6.942993	1.198582	6.798866	-0.002196	0.005457	-0.006439	9.939363	-45.084669	134.370386
56230	6.942160	1.176328	6.808900	-0.005698	0.004180	-0.006108	9.938092	-45.085306	134.371213
56231	6.914669	1.215254	6.836415	-0.005142	0.003782	-0.008160	9.938297	-45.085981	134.370369
56232	6.941794	1.199180	6.799984	-0.002181	0.006334	-0.007771	9.939761	-45.085255	134.370150
56233	6.927451	1.207761	6.818896	-0.003906	0.007010	-0.009603	9.941171	-45.083965	134.368605
56234	6.914228	1.181360	6.756941	-0.007424	0.004856	-0.007941	9.939788	-45.084061	134.368113
56235	6.939914	1.177507	6.810985	-0.005144	0.003782	-0.008161	9.939993	-45.084736	134.367268
56236	6.906428	1.225529	6.797682	-0.004497	0.005655	-0.004889	9.938610	-45.084657	134.369249
56237	6.919355	1.195049	6.789344	-0.003941	0.005257	-0.006940	9.938667	-45.084620	134.369587
56238	6.924880	1.186187	6.830572	-0.003402	0.003983	-0.007660	9.939599	-45.085231	134.369129
56239	6.918668	1.195511	6.789963	-0.003435	0.002229	-0.004997	9.939147	-45.087095	134.370596
56240	6.904505	1.203935	6.808703	-0.002184	0.006335	-0.007771	9.940608	-45.086386	134.370351
56241	6.931132	1.165475	6.782030	-0.007394	0.006610	-0.010607	9.940627	-45.085222	134.367948
56242	6.923501	1.209511	6.822596	-0.005022	0.007806	-0.005501	9.939053	-45.083899	134.369717
56243	6.936825	1.201471	6.804650	-0.005146	0.003783	-0.008162	9.939258	-45.084573	134.368871
56244	6.936464	1.201639	6.804987	-0.003960	0.004381	-0.005610	9.938651	-45.085129	134.370176
56245	6.936023	1.201852	6.805400	-0.003928	0.006135	-0.008273	9.939383	-45.084464	134.369572
56246	6.921657	1.210318	6.824324	-0.002726	0.007610	-0.007052	9.940054	-45.083068	134.370088
56247	6.928209	1.166777	6.784791	-0.003388	0.004861	-0.008994	9.941629	-45.083051	134.368729
56248	6.954337	1.185470	6.829129	-0.003437	0.002230	-0.004998	9.941234	-45.084906	134.370145
56249	6.933806	1.180585	6.816670	-0.003913	0.007013	-0.009606	9.942642	-45.083613	134.368598
56250	6.919966	1.211430	6.825841	-0.005163	0.002906	-0.006832	9.942177	-45.084894	134.368706
56251	6.933049	1.180966	6.817374	-0.003962	0.004381	-0.005611	9.941557	-45.085482	134.369984
56252	6.912929	1.198376	6.795301	-0.005688	0.005058	-0.007444	9.940934	-45.085487	134.369896
56253	6.932613	1.203733	6.808540	-0.002204	0.005460	-0.006441	9.941684	-45.085385	134.370661
56254	6.931692	1.181517	6.818658	-0.006214	0.007209	-0.008056	9.940932	-45.084128	134.370330
56255	6.931584	1.204081	6.809527	-0.005689	0.005058	-0.007445	9.940293	-45.084154	134.370236
56256	6.930714	1.181691	6.819622	-0.007973	0.006130	-0.007227	9.938160	-45.083577	134.370443
56257	6.924425	1.190875	6.779151	-0.005165	0.002907	-0.006833	9.937688	-45.084876	134.370537
56258	6.910161	1.199227	6.797966	-0.002731	0.007613	-0.007053	9.938371	-45.083474	134.371047
56259	6.943584	1.196496	6.792885	-0.003948	0.005260	-0.006943	9.938426	-45.083435	134.371382
56260	6.909242	1.199697	6.798817	-0.005150	0.003785	-0.008166	9.938666	-45.084089	134.370518
56261	6.928603	1.182579	6.821614	-0.003964	0.004382	-0.005612	9.938044	-45.084677	134.371795
56262	6.922312	1.191853	6.781136	-0.005692	0.005058	-0.007446	9.937488	-45.084689	134.371632
56263	6.928124	1.205223	6.812845	-0.006233	0.006332	-0.006726	9.936004	-45.084066	134.372291
56264	6.927297	1.182824	6.822898	-0.005708	0.004181	-0.006115	9.934740	-45.084707	134.373097
56265	6.940732	1.174820	6.804880	-0.003950	0.005261	-0.006944	9.934793	-45.084667	134.373432
56266	6.906730	1.200393	6.801246	-0.002765	0.005858	-0.004389	9.934042	-45.084518	134.375900
56267	6.906250	1.200560	6.801704	-0.005678	0.005937	-0.008779	9.934078	-45.083915	134.374863
56268	6.945255	1.166165	6.847040	-0.003966	0.004383	-0.005613	9.933425	-45.084518	134.376134
56269	6.905413	1.200852	6.802502	-0.005694	0.005059	-0.007447	9.932784	-45.084542	134.376039
56270	6.918819	1.192993	6.784500	-0.003395	0.004866	-0.008997	9.934372	-45.084522	134.374652
56271	6.938145	1.176016	6.807312	-0.005153	0.003786	-0.008168	9.934576	-45.085194	134.373803
56272	6.943968	1.189461	6.838979	-0.004494	0.006535	-0.006225	9.933825	-45.084472	134.374895
56273	6.903279	1.179307	6.813729	-0.003953	0.005261	-0.006945	9.933878	-45.084431	134.375230
56274	6.957359	1.204175	6.811759	-0.006354	0.002311	-0.009392	9.934328	-45.085781	134.373146
56275	6.936819	1.199185	6.799319	-0.003295	0.008010	-0.005001	9.933385	-45.084381	134.375419
56276	6.922108	1.184928	6.827797	-0.005711	0.004181	-0.006117	9.932081	-45.085014	134.376270
56277	6.921748	1.185094	6.828134	-0.003412	0.003989	-0.007666	9.932978	-45.085621	134.375850
56278	6.941444	1.190513	6.841358	-0.003954	0.005262	-0.006946	9.933000	-45.085574	134.376210
56279	6.935092	1.199899	6.800955	-0.002754	0.006737	-0.005722	9.932901	-45.084822	134.377729
56280	6.914181	1.172591	6.798087	-0.004598	0.003393	-0.010222	9.934631	-45.085496	134.375191
56281	6.920317	1.208517	6.820192	-0.005040	0.007808	-0.005505	9.932994	-45.084160	134.377033
56282	6.933654	1.200677	6.802283	-0.001655	0.005071	-0.008494	9.935200	-45.084066	134.376160
56283	6.932885	1.178446	6.812249	-0.007456	0.003979	-0.006622	9.933190	-45.084781	134.376573
56284	6.952587	1.183656	6.825508	-0.005699	0.005060	-0.007450	9.932523	-45.084797	134.376500
56285	6.898508	1.204065	6.808937	-0.003414	0.003990	-0.007667	9.933420	-45.085402	134.376079
56286	6.932066	1.201360	6.803781	-0.005700	0.005060	-0.007451	9.932798	-45.085427	134.375950
56287	6.931225	1.179129	6.813820	-0.003943	0.006142	-0.008279	9.933524	-45.084758	134.375342
56288	6.924999	1.188610	6.773288	0.000043	0.002637	-0.003995	9.934503	-45.086468	134.377645
56289	6.910364	1.174502	6.801637	-0.007415	0.006616	-0.010619	9.934518	-45.085300	134.375232
56290	6.916433	1.210428	6.823792	-0.003958	0.005263	-0.006947	9.934618	-45.085248	134.375522
56291	6.923372	1.166808	6.784057	-0.005172	0.002909	-0.006840	9.934146	-45.086546	134.375611
56292	6.949668	1.207859	6.818954	-0.003959	0.005264	-0.006947	9.934183	-45.086521	134.375920
56293	6.922974	1.189682	6.775170	-0.003416	0.003991	-0.007668	9.935078	-45.087126	134.375498
56294	6.914550	1.188731	6.834790	-0.007445	0.004858	-0.007957	9.933767	-45.087202	134.374951
56295	6.907841	1.175566	6.804016	-0.006233	0.007213	-0.008064	9.932953	-45.085950	134.374665
56296	6.927807	1.203462	6.807746	-0.004602	0.003396	-0.010225	9.934722	-45.086623	134.372086
56297	6.940937	1.173066	6.799322	-0.005076	0.006050	-0.002843	9.931731	-45.086543	134.375809
56298	6.906882	1.198566	6.795671	-0.001660	0.005075	-0.008496	9.933963	-45.086424	134.374946
56299	6.926211	1.181599	6.818489	-0.006903	0.003586	-0.008678	9.933472	-45.087158	134.373660
56300	6.906052	1.199085	6.796423	-0.003948	0.006144	-0.008280	9.929277	-45.082522	134.379873
56301	6.945379	1.187219	6.832224	-0.005705	0.005061	-0.007453	9.928629	-45.082541	134.379779
56302	6.919070	1.191454	6.778846	-0.003418	0.003992	-0.007669	9.929498	-45.083157	134.379376
56303	6.938557	1.174353	6.801529	-0.006387	0.000554	-0.006736	9.928499	-45.085790	134.379224
56304	6.938504	1.196933	6.792338	-0.003295	0.008893	-0.006334	9.928203	-45.083776	134.380546
56305	6.923786	1.182699	6.820761	-0.005175	0.002910	-0.006843	9.927726	-45.085069	134.380639
56306	6.917596	1.192260	6.780208	-0.002848	0.004481	-0.011054	9.930780	-45.085081	134.377582
56307	6.908975	1.191444	6.839954	-0.005040	0.008689	-0.006840	9.929806	-45.083112	134.378486
56308	6.936219	1.175477	6.803719	-0.005708	0.005062	-0.007455	9.929123	-45.083130	134.378429
56309	6.922259	1.206103	6.812921	-0.003978	0.004385	-0.005618	9.928492	-45.083711	134.379708
56310	6.921820	1.206272	6.813337	-0.005695	0.005942	-0.008787	9.928541	-45.083093	134.378648
56311	6.921008	1.184119	6.823333	-0.003407	0.004874	-0.009002	9.930104	-45.083065	134.377290
56312	6.948348	1.168215	6.787010	-0.007997	0.006131	-0.007241	9.927965	-45.082470	134.377485
56313	6.914315	1.193640	6.783311	-0.001691	0.003318	-0.005833	9.928872	-45.083633	134.378442
56314	6.913953	1.193938	6.783628	-0.005152	0.004671	-0.009508	9.929741	-45.083671	134.376654
56315	6.919327	1.184963	6.824891	-0.001038	0.006065	-0.003886	9.929648	-45.083476	134.379552
56316	6.933123	1.199554	6.797369	-0.005710	0.005062	-0.007456	9.928994	-45.083472	134.379503
56317	6.898385	1.180183	6.812805	-0.003409	0.004875	-0.009003	9.930557	-45.083443	134.378144
56318	6.931841	1.177658	6.807802	-0.004500	0.007419	-0.007562	9.930437	-45.082104	134.378274
56319	6.917776	1.208273	6.817088	-0.005724	0.004182	-0.006125	9.929113	-45.082750	134.379118
56320	6.917088	1.185976	6.826985	-0.003423	0.003995	-0.007672	9.930026	-45.083323	134.378710
56321	6.944846	1.192778	6.781006	-0.001667	0.005080	-0.008497	9.932281	-45.083228	134.377784
56322	6.930164	1.178418	6.809378	-0.008573	0.005641	-0.003859	9.927894	-45.083282	134.380617
56323	6.930092	1.200963	6.800210	-0.002865	0.003605	-0.009725	9.930303	-45.083898	134.378504
56324	6.909601	1.196148	6.787671	-0.003957	0.006148	-0.008283	9.931089	-45.083219	134.377825
56325	6.942777	1.171043	6.792222	-0.004529	0.005658	-0.004899	9.929610	-45.083153	134.379856
56326	6.908360	1.173971	6.798111	-0.003970	0.005267	-0.006952	9.929685	-45.083093	134.380175
56327	6.934445	1.215032	6.833163	-0.003983	0.004387	-0.005620	9.929053	-45.083674	134.381452
56328	6.941890	1.194008	6.783816	-0.003425	0.003996	-0.007673	9.929991	-45.084264	134.380999
56329	6.913395	1.187820	6.830403	-0.006366	0.002316	-0.009407	9.930343	-45.085639	134.378960
56330	6.941295	1.194392	6.784357	-0.003996	0.003506	-0.004288	9.929043	-45.086851	134.381147
56331	6.912677	1.188106	6.831081	-0.005691	0.006826	-0.010123	9.929740	-45.085610	134.379165
56332	6.912445	1.210887	6.822030	-0.006888	0.005350	-0.011351	9.930609	-45.085099	134.375969
56333	6.959851	1.200321	6.798681	-0.004519	0.006539	-0.006232	9.929802	-45.084405	134.377058
56334	6.925386	1.203315	6.804588	-0.002230	0.005473	-0.006446	9.930504	-45.084278	134.377860
56335	6.924982	1.203479	6.804970	-0.005729	0.004182	-0.006128	9.929179	-45.084924	134.378702
56336	6.944271	1.186438	6.827858	-0.002218	0.006354	-0.007778	9.930631	-45.084162	134.378522
56337	6.923751	1.181700	6.815330	-0.002856	0.004489	-0.011059	9.933712	-45.084147	134.375466
56338	6.937565	1.196438	6.787811	-0.006277	0.005454	-0.005408	9.931588	-45.084131	134.377051
56339	6.923068	1.204426	6.806749	-0.006801	0.008488	-0.007351	9.929915	-45.082226	134.377518
56340	6.922250	1.182126	6.816781	-0.003428	0.003998	-0.007674	9.930852	-45.082823	134.377038
56341	6.935754	1.174302	6.798831	-0.003338	0.007134	-0.003673	9.929215	-45.082045	134.380256
56342	6.921361	1.182408	6.817635	-0.005172	0.003793	-0.008182	9.929411	-45.082694	134.379418
56343	6.941178	1.210276	6.821535	-0.005059	0.008693	-0.006844	9.928429	-45.080723	134.380318
56344	6.934502	1.197330	6.790783	-0.002221	0.006356	-0.007778	9.929810	-45.079982	134.380166
56345	6.899732	1.178041	6.806165	-0.001674	0.005085	-0.008499	9.932061	-45.079884	134.379239
56346	6.953314	1.180644	6.814102	-0.009767	0.005043	-0.006426	9.928627	-45.080020	134.379818
56347	6.918893	1.183520	6.819946	-0.001674	0.005086	-0.008499	9.930878	-45.079922	134.378891
56348	6.932671	1.198369	6.792469	-0.005710	0.005947	-0.008795	9.930945	-45.079317	134.377792
56349	6.917901	1.184128	6.820847	-0.003966	0.006152	-0.008287	9.931657	-45.078637	134.377184
56350	6.931387	1.176414	6.802918	-0.003978	0.005270	-0.006955	9.931753	-45.078573	134.377492
56351	6.931118	1.199193	6.793908	-0.002760	0.008510	-0.008390	9.932980	-45.076553	134.377132
56352	6.916343	1.185077	6.822262	-0.004615	0.003405	-0.010238	9.934749	-45.077220	134.374542
56353	6.950230	1.204863	6.807714	-0.008586	0.005637	-0.003867	9.930364	-45.077268	134.377395
56354	6.909834	1.194429	6.782159	-0.002883	0.002729	-0.008398	9.932186	-45.078518	134.376111
56355	6.929202	1.177394	6.804975	-0.004540	0.005659	-0.004903	9.930704	-45.078452	134.378139
56356	6.948824	1.182712	6.818322	-0.006919	0.003589	-0.008694	9.930261	-45.079162	134.376813
56357	6.928409	1.177688	6.805731	-0.002237	0.005476	-0.006447	9.930989	-45.079046	134.377581
56358	6.941985	1.169989	6.787727	-0.005176	0.003795	-0.008186	9.931194	-45.079701	134.376717
56359	6.913869	1.208587	6.815356	-0.002786	0.006747	-0.005727	9.931074	-45.078939	134.378239
56360	6.927402	1.200887	6.797398	-0.003433	0.004001	-0.007677	9.932020	-45.079532	134.377753
56361	6.927088	1.201014	6.797696	-0.008676	0.002501	-0.007872	9.930160	-45.080954	134.376965
56362	6.932480	1.191756	6.838904	-0.002798	0.005865	-0.004395	9.929389	-45.080808	134.379417
56363	6.925968	1.178776	6.808026	-0.003972	0.006154	-0.008289	9.930099	-45.080128	134.378808
56364	6.925494	1.178992	6.808472	-0.005727	0.005066	-0.007466	9.929448	-45.080131	134.378711
56365	6.945100	1.184580	6.821791	-0.001130	0.003820	-0.009222	9.932546	-45.080676	134.377029
56366	6.924688	1.179722	6.809165	-0.003984	0.005272	-0.006957	9.932587	-45.080638	134.377346
56367	6.924286	1.179976	6.809530	-0.003435	0.004002	-0.007678	9.933472	-45.081233	134.376923
56368	6.929870	1.193335	6.841274	-0.009206	0.005537	-0.009818	9.932089	-45.080736	134.375034
56369	6.923659	1.202768	6.800878	-0.003985	0.005272	-0.006958	9.932126	-45.080684	134.375365
56370	6.922944	1.180445	6.810812	-0.002801	0.005866	-0.004395	9.931380	-45.080527	134.377805
56371	6.922383	1.180656	6.811346	-0.004514	0.008308	-0.008901	9.931912	-45.078570	134.377008
56372	6.942055	1.208699	6.815371	-0.003975	0.006155	-0.008290	9.932656	-45.077884	134.376365
56373	6.941609	1.209133	6.815748	-0.001132	0.003822	-0.009223	9.935753	-45.078427	134.374684
56374	6.914945	1.168601	6.781273	-0.003986	0.005273	-0.006958	9.935814	-45.078343	134.375048
56375	6.920498	1.181900	6.813046	-0.004547	0.005659	-0.004906	9.934328	-45.078276	134.377074
56376	6.900282	1.199208	6.791034	-0.004537	0.006543	-0.006238	9.933529	-45.077565	134.378162
56377	6.939530	1.187398	6.826967	-0.003987	0.005273	-0.006959	9.933564	-45.077513	134.378492
56378	6.919010	1.182528	6.814448	-0.000479	0.007452	-0.008603	9.936356	-45.076055	134.377800
56379	6.938515	1.188126	6.827873	-0.003998	0.004390	-0.005627	9.935720	-45.076633	134.379071
56380	6.918342	1.205524	6.805799	-0.005722	0.005950	-0.008802	9.935726	-45.076025	134.378020
56381	6.937561	1.188556	6.828767	-0.003978	0.006157	-0.008292	9.936433	-45.075343	134.377409
56382	6.917092	1.183553	6.816218	-0.003989	0.005273	-0.006960	9.936520	-45.075270	134.377711
56383	6.936719	1.188979	6.829549	-0.005193	0.002914	-0.006859	9.936043	-45.076559	134.377791
56384	6.910534	1.193203	6.776166	-0.003337	0.008903	-0.006339	9.935782	-45.074507	134.379102
56385	6.909725	1.171104	6.786161	-0.002868	0.004501	-0.011067	9.938859	-45.074484	134.376042
56386	6.915261	1.184448	6.817919	-0.009783	0.005039	-0.006439	9.935299	-45.074618	134.376746
56387	6.929137	1.199117	6.790458	-0.001695	0.004211	-0.007171	9.936873	-45.075145	134.376759
56388	6.914744	1.207358	6.809130	-0.003440	0.004004	-0.007682	9.937711	-45.075721	134.376396
56389	6.928327	1.199668	6.791187	-0.004542	0.006544	-0.006240	9.936895	-45.075023	134.377480
56390	6.947582	1.182611	6.814141	-0.003991	0.005274	-0.006961	9.936984	-45.074951	134.377782
56391	6.927328	1.200050	6.792139	-0.004533	0.007427	-0.007572	9.936841	-45.073622	134.377924
56392	6.926681	1.177721	6.802009	-0.003460	0.002237	-0.005018	9.936392	-45.075479	134.379348
56393	6.926290	1.177760	6.802401	-0.009767	0.006807	-0.009105	9.934179	-45.074349	134.378177
56394	6.926023	1.200475	6.793395	-0.001687	0.005096	-0.008503	9.936414	-45.074209	134.377297
56395	6.911507	1.208620	6.812192	-0.006289	0.006337	-0.006752	9.934908	-45.073577	134.377942
56396	6.944878	1.183632	6.816719	-0.003451	0.003122	-0.006351	9.935154	-45.074797	134.378420
56397	6.924536	1.178609	6.804039	-0.002249	0.005482	-0.006450	9.935877	-45.074678	134.379186
56398	6.904360	1.196041	6.781957	-0.005738	0.005068	-0.007473	9.935224	-45.074666	134.379102
56399	6.943775	1.206888	6.808470	0.000696	0.008050	-0.006039	9.937147	-45.073138	134.380557
56400	6.943058	1.184558	6.818411	-0.009237	0.003769	-0.007165	9.934533	-45.073892	134.380450
56401	6.922928	1.201950	6.796288	-0.001689	0.005098	-0.008504	9.936777	-45.073786	134.379521
56402	6.942453	1.207439	6.809720	-0.006301	0.005453	-0.005421	9.934688	-45.073768	134.381036
56403	6.936018	1.194368	6.778862	-0.004538	0.007429	-0.007574	9.934542	-45.072438	134.381177
56404	6.947179	1.198384	6.851493	-0.003453	0.003122	-0.006352	9.934727	-45.073651	134.381718
56405	6.906886	1.187989	6.825788	-0.005740	0.005068	-0.007475	9.934071	-45.073663	134.381607
56406	6.934860	1.194784	6.779974	-0.005759	0.003300	-0.004811	9.932131	-45.074925	134.383335
56407	6.934533	1.194857	6.780296	-0.002261	0.004599	-0.005119	9.932181	-45.075435	134.385042
56408	6.919887	1.180340	6.808468	-0.005750	0.004184	-0.006143	9.930883	-45.076083	134.385828
56409	6.939677	1.208113	6.812429	-0.006303	0.005453	-0.005422	9.928705	-45.076081	134.387412
56410	6.938931	1.185735	6.822408	-0.002797	0.007638	-0.007062	9.929220	-45.074701	134.387981
56411	6.932727	1.195299	6.782064	-0.002815	0.005869	-0.004398	9.928419	-45.074566	134.390442
56412	6.937916	1.186149	6.823367	-0.003989	0.006161	-0.008296	9.929093	-45.073862	134.389882
56413	6.917702	1.203623	6.801312	-0.003998	0.005277	-0.006964	9.929125	-45.073807	134.390209
56414	6.917039	1.181420	6.811174	-0.003437	0.004893	-0.009018	9.930643	-45.073755	134.388887
56415	6.916525	1.181680	6.811651	-0.006288	0.007223	-0.008088	9.929806	-45.072491	134.388588
56416	6.936002	1.187183	6.825133	-0.003446	0.004008	-0.007686	9.930675	-45.073074	134.388183
56417	6.929863	1.196632	6.784756	-0.008595	0.007399	-0.006547	9.927628	-45.071863	134.389140
56418	6.935088	1.187344	6.826034	-0.001711	0.003332	-0.005841	9.928551	-45.073016	134.390069
56419	6.928802	1.174503	6.795013	-0.003992	0.006163	-0.008297	9.929253	-45.072330	134.389454
56420	6.900177	1.190447	6.832142	-0.004001	0.005278	-0.006965	9.929314	-45.072276	134.389740
56421	6.933756	1.188105	6.827254	-0.004001	0.005278	-0.006965	9.929345	-45.072220	134.390066
56422	6.947486	1.203031	6.799977	-0.004538	0.008317	-0.008908	9.929912	-45.070243	134.389239
56423	6.912738	1.183330	6.815208	-0.005192	0.003801	-0.008200	9.930105	-45.070899	134.388372
56424	6.932243	1.188793	6.828671	-0.004556	0.006547	-0.006244	9.929382	-45.070179	134.389381
56425	6.912100	1.206209	6.806547	-0.001712	0.003333	-0.005842	9.930282	-45.071332	134.390333
56426	6.945555	1.181330	6.811049	-0.007492	0.004862	-0.007992	9.928965	-45.071413	134.389732
56427	6.925352	1.198674	6.788999	-0.005739	0.005955	-0.008811	9.928977	-45.070793	134.388678
56428	6.924714	1.176292	6.798870	-0.005756	0.004185	-0.006147	9.927682	-45.071436	134.389458
56429	6.930409	1.212094	6.821152	-0.003449	0.004011	-0.007688	9.928563	-45.072024	134.389029
56430	6.943817	1.182064	6.812693	-0.005733	0.006841	-0.010144	9.929286	-45.070759	134.387004
56431	6.929413	1.212570	6.822079	-0.004567	0.005662	-0.004913	9.927794	-45.070690	134.389024
56432	6.908603	1.162416	6.828365	-0.006924	0.005365	-0.011380	9.928624	-45.070162	134.385819
56433	6.928463	1.212824	6.822999	-0.005130	0.006044	-0.002860	9.925610	-45.070080	134.389533
56434	6.941911	1.182656	6.814533	-0.001698	0.005106	-0.008507	9.927835	-45.069971	134.388603
56435	6.921533	1.177693	6.801865	-0.004006	0.005279	-0.006967	9.927864	-45.069914	134.388927
56436	6.921054	1.177950	6.802309	-0.003998	0.006165	-0.008299	9.928597	-45.069183	134.388349
56437	6.940547	1.183424	6.815789	-0.005759	0.004185	-0.006149	9.927268	-45.069825	134.389174
56438	6.934358	1.170474	6.784726	-0.003452	0.004012	-0.007689	9.928225	-45.070414	134.388662
56439	6.919888	1.201098	6.794140	-0.003357	0.009797	-0.007675	9.928579	-45.067739	134.389053
56440	6.919403	1.201305	6.794598	-0.003467	0.002240	-0.005025	9.928078	-45.069603	134.390511
56441	6.952919	1.176637	6.799043	-0.002882	0.004516	-0.011075	9.931150	-45.069572	134.387446
56442	6.924186	1.192548	6.836186	-0.005118	0.007816	-0.005525	9.929459	-45.068221	134.389292
56443	6.952263	1.222148	6.781142	-0.005190	0.004689	-0.009536	9.930321	-45.068244	134.387481
56444	6.923234	1.192932	6.837084	-0.005754	0.005071	-0.007483	9.929649	-45.068249	134.387369
56445	6.937134	1.207821	6.809690	-0.005198	0.003804	-0.008205	9.929841	-45.068903	134.386499
56446	6.916630	1.180201	6.806417	-0.004009	0.005281	-0.006969	9.929880	-45.068859	134.386784
56447	6.916115	1.180371	6.806911	-0.006303	0.007226	-0.008094	9.929037	-45.067593	134.386480
56448	6.935374	1.163203	6.829899	-0.004580	0.004776	-0.003583	9.926830	-45.068158	134.389459
56449	6.935332	1.208494	6.811406	-0.002885	0.004519	-0.011077	9.929902	-45.068125	134.386394
56450	6.914876	1.181003	6.808060	-0.005207	0.002918	-0.006874	9.929396	-45.069396	134.386502
56451	6.914662	1.203560	6.799024	-0.008057	0.006130	-0.007278	9.927196	-45.068828	134.386697
56452	6.948087	1.178703	6.803623	-0.003455	0.004014	-0.007691	9.928125	-45.069398	134.386237
56453	6.947646	1.179005	6.804020	-0.004005	0.006168	-0.008302	9.928822	-45.068708	134.385619
56454	6.899177	1.212020	6.818615	-0.004012	0.005282	-0.006970	9.928874	-45.068661	134.385890
56455	6.946567	1.179521	6.805033	-0.003366	0.009800	-0.007676	9.929223	-45.065983	134.386281
56456	6.892062	1.176818	6.797722	-0.005765	0.004186	-0.006153	9.927999	-45.066615	134.387008
56457	6.931723	1.210149	6.814785	-0.001718	0.003337	-0.005844	9.928896	-45.067765	134.387959
56458	6.925404	1.174908	6.793100	-0.001705	0.005111	-0.008509	9.931132	-45.067625	134.387053
56459	6.911033	1.205498	6.802370	-0.004020	0.004395	-0.005638	9.930489	-45.068199	134.388316
56460	6.930120	1.165944	6.834763	-0.004564	0.007436	-0.007581	9.930345	-45.066859	134.388441
56461	6.944033	1.203481	6.798122	-0.004008	0.006169	-0.008303	9.931041	-45.066168	134.387823
56462	6.909382	1.183514	6.813199	-0.004584	0.004776	-0.003585	9.928856	-45.066734	134.390773
56463	6.929044	1.211530	6.817263	-0.003451	0.004902	-0.009025	9.930404	-45.066687	134.389401
56464	6.928476	1.189349	6.827029	-0.003458	0.004015	-0.007693	9.931313	-45.067262	134.388952
56465	6.908329	1.206747	6.804894	-0.002834	0.005873	-0.004402	9.930503	-45.067124	134.391410
56466	6.927631	1.189679	6.827829	-0.008688	0.004273	-0.010573	9.930030	-45.067297	134.388633
56467	6.941377	1.182223	6.809858	0.000031	0.004436	-0.006661	9.932282	-45.067747	134.389084
56468	6.926818	1.190316	6.828543	-0.004016	0.005283	-0.006972	9.932301	-45.067691	134.389388
56469	6.926497	1.212966	6.819596	-0.006319	0.006340	-0.006766	9.930786	-45.067056	134.390021
56470	6.920308	1.200087	6.788581	-0.001714	0.004226	-0.007178	9.932308	-45.067584	134.390047
56471	6.919753	1.177771	6.798360	-0.007508	0.004863	-0.008005	9.930959	-45.067660	134.389484
56472	6.939401	1.205759	6.802446	-0.002279	0.004606	-0.005124	9.930969	-45.068178	134.391190
56473	6.924689	1.191232	6.830543	-0.005200	0.004694	-0.009543	9.931829	-45.068198	134.389375
56474	6.938338	1.183754	6.812689	-0.007497	0.006638	-0.010670	9.931763	-45.067007	134.386979
56475	6.923707	1.191669	6.831461	-0.004025	0.004396	-0.005640	9.931118	-45.067580	134.388240
56476	6.923264	1.191967	6.831859	-0.003450	0.005792	-0.010359	9.933319	-45.066913	134.385908
56477	6.936982	1.184618	6.813919	-0.003462	0.004017	-0.007695	9.934196	-45.067497	134.385474
56478	6.936578	1.184872	6.814286	-0.004020	0.005284	-0.006973	9.934220	-45.067442	134.385785
56479	6.950304	1.177306	6.796384	-0.005766	0.005073	-0.007490	9.933557	-45.067450	134.385663
56480	6.915996	1.202570	6.792535	-0.001153	0.003849	-0.009233	9.936684	-45.067968	134.383942
56481	6.935334	1.185819	6.815388	-0.005203	0.004695	-0.009545	9.937544	-45.067987	134.382125
56482	6.934908	1.185863	6.815814	-0.009822	0.005031	-0.006471	9.934056	-45.068078	134.382807
56483	6.914623	1.180676	6.803075	0.001773	0.004650	-0.006144	9.936993	-45.068458	134.383701
56484	6.934268	1.208939	6.807115	-0.005209	0.003807	-0.008213	9.937257	-45.069102	134.382762
56485	6.939265	1.177164	6.857752	-0.005763	0.005962	-0.008824	9.937262	-45.068477	134.381699
56486	6.933219	1.186837	6.817363	-0.004023	0.005285	-0.006974	9.937343	-45.068404	134.381977
56487	6.932699	1.187139	6.817838	-0.004013	0.007061	-0.009639	9.938703	-45.067078	134.380415
56488	6.946473	1.179675	6.799889	-0.003475	0.002242	-0.005032	9.938212	-45.068901	134.381922
56489	6.946278	1.202554	6.790771	-0.002896	0.004529	-0.011083	9.941280	-45.068862	134.378852
56490	6.911652	1.182586	6.805762	-0.005152	0.006041	-0.002866	9.938229	-45.068828	134.382503
56491	6.951082	1.215864	6.823082	-0.004025	0.005285	-0.006975	9.938252	-45.068768	134.382823
56492	6.930641	1.188138	6.819756	-0.005770	0.005074	-0.007493	9.937567	-45.068780	134.382700
56493	6.930245	1.188308	6.820129	-0.005212	0.003808	-0.008215	9.937757	-45.069431	134.381822
56494	6.910102	1.205788	6.797962	-0.003462	0.004908	-0.009030	9.939255	-45.069388	134.380468
56495	6.929531	1.211405	6.811499	-0.005772	0.005074	-0.007493	9.938591	-45.069396	134.380343
56496	6.943152	1.203953	6.793719	0.000097	0.009341	-0.005311	9.939652	-45.067204	134.382543
56497	6.948064	1.194781	6.835154	-0.007508	0.006640	-0.010677	9.939638	-45.066013	134.380094
56498	6.907706	1.161602	6.818756	-0.006337	0.005452	-0.005440	9.937475	-45.066015	134.381626
56499	6.955640	1.174188	6.786326	-0.004027	0.005286	-0.006976	9.937496	-45.065954	134.381945
56500	6.906945	1.184425	6.810219	-0.004028	0.005286	-0.006976	9.931904	-45.077597	134.378654
56501	6.920974	1.222064	6.773516	-0.003468	0.004020	-0.007699	9.932776	-45.078190	134.378216
56502	6.940277	1.182559	6.805712	-0.005219	0.002920	-0.006885	9.932266	-45.079468	134.378269
56503	6.905895	1.207681	6.801899	-0.004020	0.007064	-0.009642	9.933619	-45.078150	134.376704
56504	6.939485	1.205493	6.797192	-0.009271	0.003763	-0.007200	9.930921	-45.078912	134.376604
56505	6.904729	1.162675	6.821587	-0.005150	0.007819	-0.005533	9.929227	-45.077575	134.378428
56506	6.938460	1.183111	6.807469	-0.002909	0.002756	-0.008421	9.931002	-45.078809	134.377201
56507	6.923998	1.213544	6.816742	-0.004595	0.005664	-0.004923	9.929494	-45.078748	134.379211
56508	6.937733	1.183485	6.808145	-0.004655	0.002544	-0.008940	9.930581	-45.080023	134.377591
56509	6.917628	1.201003	6.785927	-0.003466	0.004911	-0.009032	9.932120	-45.079981	134.376211
56510	6.956966	1.212048	6.812558	-0.003475	0.003133	-0.006367	9.932308	-45.081203	134.376680
56511	6.902545	1.186641	6.814293	-0.005773	0.005965	-0.008829	9.932306	-45.080587	134.375610
56512	6.936089	1.184644	6.809618	-0.002282	0.006389	-0.007791	9.933680	-45.079816	134.375384
56513	6.935634	1.207448	6.800775	-0.006335	0.007230	-0.008108	9.932822	-45.078557	134.375068
56514	6.915140	1.157188	6.806760	-0.001730	0.003345	-0.005849	9.933739	-45.079699	134.375988
56515	6.954573	1.190655	6.824057	-0.007525	0.004864	-0.008017	9.932382	-45.079784	134.375413
56516	6.914447	1.180115	6.798136	-0.003468	0.004912	-0.009033	9.933917	-45.079732	134.374056
56517	6.948131	1.200725	6.784061	-0.004030	0.006178	-0.008311	9.934600	-45.079047	134.373430
56518	6.947650	1.200983	6.784508	-0.004034	0.005288	-0.006979	9.934591	-45.078974	134.373801
56519	6.932874	1.163712	6.821873	-0.005223	0.002921	-0.006888	9.934107	-45.080267	134.373856
56520	6.932646	1.186470	6.812805	-0.003473	0.004023	-0.007701	9.934990	-45.080841	134.373443
56521	6.932323	1.186680	6.813098	-0.005223	0.002921	-0.006888	9.934506	-45.082134	134.373498
56522	6.917732	1.194317	6.831774	-0.005165	0.006040	-0.002870	9.931486	-45.082051	134.377160
56523	6.931520	1.186741	6.813904	-0.005217	0.004701	-0.009554	9.932338	-45.082076	134.375334
56524	6.911338	1.204212	6.791764	-0.005217	0.004701	-0.009554	9.933179	-45.082088	134.373506
56525	6.936216	1.200253	6.846220	-0.006344	0.006342	-0.006777	9.931651	-45.081462	134.374129
56526	6.944369	1.179698	6.796905	-0.004037	0.005289	-0.006980	9.931684	-45.081419	134.374415
56527	6.943928	1.179999	6.797304	-0.003472	0.004914	-0.009035	9.933221	-45.081375	134.373034
56528	6.915066	1.218007	6.825009	-0.008092	0.006129	-0.007298	9.931047	-45.080804	134.373186
56529	6.934334	1.201056	6.847986	-0.001726	0.005128	-0.008515	9.933268	-45.080691	134.372250
56530	6.908391	1.182936	6.803800	-0.006343	0.007232	-0.008111	9.932396	-45.079419	134.371951
56531	6.927662	1.188494	6.817521	-0.002854	0.006768	-0.005738	9.932237	-45.078654	134.373464
56532	6.921794	1.220784	6.767760	-0.005223	0.003812	-0.008223	9.932436	-45.079284	134.372546
56533	6.912611	1.196589	6.836558	-0.003477	0.004025	-0.007703	9.933304	-45.079873	134.372105
56534	6.940699	1.181580	6.800327	-0.004040	0.005290	-0.006981	9.933386	-45.079825	134.372301
56535	6.925850	1.189553	6.819177	-0.002847	0.009439	-0.009736	9.935229	-45.077158	134.370993
56536	6.925366	1.212546	6.810325	-0.004658	0.003438	-0.010279	9.936963	-45.077841	134.368332
56537	6.939151	1.182404	6.801763	-0.008664	0.005613	-0.003913	9.932558	-45.077909	134.371141
56538	6.910201	1.197857	6.838772	0.000583	0.004968	-0.010050	9.936963	-45.077741	134.368922
56539	6.918505	1.200284	6.780018	-0.002295	0.005504	-0.006461	9.937660	-45.077619	134.369680
56540	6.923513	1.191044	6.821290	-0.004039	0.006181	-0.008315	9.938254	-45.076914	134.369147
56541	6.931837	1.193173	6.762579	-0.004045	0.004400	-0.005650	9.937598	-45.077494	134.370399
56542	6.942484	1.196775	6.835287	-0.005788	0.005078	-0.007503	9.936933	-45.077489	134.370284
56543	6.936446	1.184012	6.804241	-0.002294	0.006395	-0.007794	9.938296	-45.076732	134.370102
56544	6.936150	1.206737	6.795246	-0.006977	0.001818	-0.006082	9.936402	-45.078728	134.370718
56545	6.921488	1.214517	6.813915	-0.004038	0.007073	-0.009648	9.937748	-45.077405	134.369149
56546	6.935170	1.184650	6.805431	-0.004044	0.005291	-0.006983	9.937760	-45.077357	134.369430
56547	6.920368	1.169868	6.833508	-0.007534	0.005755	-0.009358	9.937069	-45.076806	134.367908
56548	6.914414	1.179587	6.793130	-0.004044	0.005292	-0.006983	9.937106	-45.076764	134.368204
56549	6.933840	1.207766	6.797420	-0.004045	0.005292	-0.006983	9.937116	-45.076710	134.368515
56550	6.953212	1.213303	6.811049	-0.007538	0.004865	-0.008027	9.935811	-45.076767	134.367893
56551	6.932994	1.185504	6.807499	-0.004665	0.002550	-0.008950	9.936850	-45.078065	134.366249
56552	6.918237	1.193354	6.826237	-0.003425	0.008925	-0.006350	9.936492	-45.076035	134.367560
56553	6.931950	1.186148	6.808450	-0.002914	0.004546	-0.011094	9.939549	-45.075995	134.364482
56554	6.931507	1.186356	6.808865	-0.005179	0.006038	-0.002874	9.936497	-45.075948	134.368156
56555	6.911304	1.181062	6.796038	-0.004663	0.003442	-0.010283	9.938204	-45.076611	134.365571
56556	6.930756	1.209434	6.800267	-0.003481	0.004920	-0.009039	9.939675	-45.076560	134.364232
56557	6.930389	1.209731	6.800589	-0.003485	0.003137	-0.006374	9.939874	-45.077781	134.364729
56558	6.910176	1.181955	6.797030	-0.004048	0.005293	-0.006985	9.939980	-45.077694	134.365010
56559	6.949330	1.193000	6.823880	-0.004048	0.005293	-0.006985	9.939988	-45.077639	134.365321
56560	6.923544	1.174794	6.779603	-0.005793	0.005970	-0.008840	9.939970	-45.076995	134.364290
56561	6.928576	1.188007	6.811559	-0.004049	0.005293	-0.006985	9.939979	-45.076940	134.364600
56562	6.928138	1.188265	6.811961	-0.005230	0.004707	-0.009563	9.940862	-45.076960	134.362705
56563	6.927775	1.188429	6.812300	-0.004053	0.003510	-0.004320	9.939537	-45.078175	134.364895
56564	6.907655	1.205689	6.790115	-0.004050	0.005293	-0.006985	9.939563	-45.078101	134.365235
56565	6.907177	1.183287	6.799846	-0.005797	0.005079	-0.007508	9.938887	-45.078114	134.365097
56566	6.955121	1.173830	6.776900	-0.003484	0.004922	-0.009041	9.940344	-45.078047	134.363789
56567	6.906339	1.183753	6.800616	-0.005799	0.004188	-0.006176	9.939002	-45.078696	134.364591
56568	6.939903	1.181865	6.796048	-0.001120	0.008770	-0.007883	9.940831	-45.076584	134.364703
56569	6.944832	1.195114	6.828088	-0.007545	0.004865	-0.008032	9.939471	-45.076666	134.364117
56570	6.924715	1.212420	6.805888	-0.001742	0.003353	-0.005853	9.940379	-45.077802	134.365046
56571	6.944062	1.195532	6.828797	-0.005798	0.005971	-0.008842	9.940369	-45.077180	134.363968
56572	6.923919	1.190316	6.815891	-0.004670	0.001661	-0.007622	9.940780	-45.079113	134.363207
56573	6.937824	1.182970	6.797978	-0.004617	0.007450	-0.007597	9.940595	-45.077780	134.363330
56574	6.922958	1.190691	6.816802	-0.004619	0.006558	-0.006264	9.939759	-45.077056	134.364399
56575	6.936784	1.183211	6.798997	-0.004620	0.005666	-0.004932	9.938241	-45.076993	134.366402
56576	6.922158	1.190798	6.817594	-0.008164	0.001232	-0.008669	9.937195	-45.079081	134.364809
56577	6.936179	1.205949	6.790310	-0.004054	0.005295	-0.006987	9.937201	-45.079024	134.365117
56578	6.915929	1.178101	6.786798	-0.002875	0.005881	-0.004409	9.936415	-45.078873	134.367557
56579	6.940641	1.196809	6.832051	-0.002306	0.007295	-0.009129	9.938436	-45.077476	134.366434
56580	6.900563	1.186278	6.806037	-0.004055	0.005295	-0.006988	9.938444	-45.077422	134.366760
56581	6.953948	1.189773	6.814709	-0.004622	0.006559	-0.006265	9.937592	-45.076724	134.367823
56582	6.919392	1.214705	6.810892	-0.003489	0.004925	-0.009043	9.939068	-45.076690	134.366407
56583	6.933335	1.184715	6.802253	-0.007551	0.003080	-0.005370	9.936375	-45.078043	134.367698
56584	6.932956	1.207461	6.793332	-0.003489	0.005818	-0.010376	9.938578	-45.077326	134.365413
56585	6.937903	1.198024	6.834618	-0.005191	0.006037	-0.002878	9.935535	-45.077257	134.369110
56586	6.932021	1.207917	6.794206	0.000570	0.004985	-0.010051	9.939902	-45.077104	134.366933
56587	6.911744	1.180366	6.790666	-0.002877	0.006774	-0.005742	9.939732	-45.076335	134.368444
56588	6.931039	1.208501	6.795104	-0.004625	0.005666	-0.004934	9.938198	-45.076255	134.370478
56589	6.916229	1.216152	6.813846	-0.005805	0.005974	-0.008846	9.938186	-45.075631	134.369396
56590	6.915738	1.193786	6.823585	-0.004058	0.005296	-0.006989	9.938177	-45.075576	134.369708
56591	6.929585	1.186555	6.805752	-0.002311	0.006404	-0.007798	9.939531	-45.074813	134.369524
56592	6.943566	1.201777	6.778530	-0.006987	0.001817	-0.006096	9.937714	-45.076785	134.370059
56593	6.928910	1.209558	6.797086	-0.002925	0.004557	-0.011100	9.940769	-45.076739	134.366977
56594	6.928465	1.187236	6.806774	-0.006374	0.005451	-0.005459	9.938613	-45.076717	134.368535
56595	6.927943	1.187265	6.807300	-0.003447	0.008038	-0.005020	9.937582	-45.075307	134.370800
56596	6.947215	1.192829	6.821040	-0.004061	0.004404	-0.005657	9.936864	-45.075884	134.372100
56597	6.921675	1.174621	6.776573	-0.003493	0.004034	-0.007713	9.937727	-45.076467	134.371652
56598	6.926687	1.210418	6.799199	-0.004061	0.005297	-0.006990	9.937744	-45.076410	134.371918
56599	6.931694	1.200919	6.840408	-0.005808	0.004188	-0.006183	9.936400	-45.077057	134.372714
56600	6.920432	1.197785	6.768462	-0.002315	0.006406	-0.007798	9.937729	-45.076299	134.372538
56601	6.945107	1.194096	6.822964	-0.002927	0.004559	-0.011102	9.940782	-45.076252	134.369455
56602	6.890814	1.190946	6.815094	-0.006377	0.005451	-0.005461	9.938612	-45.076241	134.370992
56603	6.944187	1.194476	6.823834	-0.004063	0.006191	-0.008324	9.939281	-45.075546	134.370358
56604	6.923993	1.189317	6.810959	-0.003495	0.004035	-0.007714	9.940182	-45.076123	134.369867
56605	6.943298	1.195074	6.824634	-0.004064	0.006191	-0.008324	9.940851	-45.075428	134.369233
56606	6.923110	1.189781	6.811776	-0.005811	0.004188	-0.006184	9.939478	-45.076069	134.370050
56607	6.903005	1.184534	6.798825	-0.004676	0.003451	-0.010295	9.941183	-45.076727	134.367457
56608	6.936691	1.160091	6.803514	-0.008127	0.006128	-0.007320	9.938933	-45.076144	134.367660
56609	6.955946	1.188170	6.808005	-0.002885	0.005883	-0.004411	9.938093	-45.076010	134.370110
56610	6.887279	1.215018	6.809123	-0.005245	0.004714	-0.009573	9.938948	-45.076020	134.368256
56611	6.940791	1.173537	6.836283	-0.003497	0.003143	-0.006382	9.939145	-45.077238	134.368747
56612	6.940435	1.218829	6.818058	-0.005813	0.004189	-0.006185	9.937843	-45.077845	134.369562
56613	6.934700	1.205914	6.786867	-0.005813	0.004189	-0.006185	9.936498	-45.078492	134.370357
56614	6.914577	1.177983	6.783233	-0.004067	0.005299	-0.006993	9.936469	-45.078438	134.370674
56615	6.919443	1.213721	6.805982	-0.002888	0.006777	-0.005744	9.936293	-45.077667	134.372184
56616	6.919041	1.168709	6.824927	-0.006993	0.003604	-0.008768	9.935818	-45.078362	134.370843
56617	6.933051	1.206669	6.788416	-0.002930	0.002775	-0.008439	9.937540	-45.079584	134.369639
56618	6.938074	1.197369	6.829543	-0.005247	0.004715	-0.009575	9.938375	-45.079604	134.367804
56619	6.937672	1.197579	6.829915	-0.004067	0.004405	-0.005660	9.937711	-45.080181	134.369048
56620	6.951597	1.190358	6.812064	-0.002322	0.006410	-0.007800	9.939064	-45.079407	134.368852
56621	6.931305	1.207811	6.789997	-0.001143	0.006995	-0.005218	9.939568	-45.078566	134.370813
56622	6.916462	1.192934	6.817975	-0.004069	0.005300	-0.006994	9.939620	-45.078484	134.371098
56623	6.916099	1.193187	6.818299	-0.004679	0.002559	-0.008966	9.940660	-45.079776	134.369442
56624	6.930079	1.185933	6.800408	-0.004639	0.006562	-0.006271	9.939794	-45.079074	134.370502
56625	6.895455	1.210675	6.796577	-0.004070	0.005300	-0.006994	9.939795	-45.079014	134.370806
56626	6.948907	1.169139	6.823855	-0.002891	0.005884	-0.004412	9.938955	-45.078861	134.373271
56627	6.923366	1.173528	6.770151	-0.005250	0.004716	-0.009577	9.939799	-45.078875	134.371428
56628	6.933607	1.199704	6.833668	-0.005250	0.004716	-0.009577	9.940689	-45.078885	134.369539
56629	6.908109	1.181547	6.789201	-0.004072	0.005300	-0.006995	9.940689	-45.078824	134.369842
56630	6.941741	1.179828	6.784693	-0.004073	0.006195	-0.008328	9.941318	-45.078155	134.369192
56631	6.946512	1.193198	6.816753	-0.003507	0.006723	-0.011717	9.944173	-45.076824	134.365921
56632	6.911915	1.195418	6.822150	-0.004640	0.004773	-0.003607	9.942010	-45.077416	134.368802
56633	6.925904	1.188222	6.804260	-0.002936	0.004567	-0.011107	9.945060	-45.077362	134.365716
56634	6.911105	1.173279	6.832180	-0.005210	0.006034	-0.002884	9.942050	-45.077295	134.369349
56635	6.924982	1.188460	6.805157	-0.005823	0.005979	-0.008856	9.942032	-45.076667	134.368260
56636	6.924500	1.188714	6.805603	-0.002327	0.005518	-0.006469	9.942688	-45.076528	134.369033
56637	6.924049	1.211562	6.796728	-0.005252	0.003822	-0.008246	9.942867	-45.077178	134.368129
56638	6.923732	1.189220	6.806296	-0.003504	0.004040	-0.007719	9.943664	-45.077781	134.367688
56639	6.943124	1.194967	6.819894	-0.006429	0.002344	-0.009497	9.944023	-45.079141	134.365577
56640	6.942649	1.195229	6.820331	-0.004650	0.008353	-0.008939	9.944483	-45.077151	134.364788
56641	6.922452	1.190033	6.807456	-0.001756	0.003363	-0.005859	9.945359	-45.078296	134.365728
56642	6.907736	1.174896	6.835308	-0.009888	0.005015	-0.006524	9.941813	-45.078433	134.366353
56643	6.941369	1.195640	6.821562	-0.003508	0.004936	-0.009053	9.943337	-45.078375	134.364961
56644	6.921183	1.190360	6.808689	-0.006396	0.006346	-0.006802	9.941764	-45.077746	134.365568
56645	6.906372	1.197861	6.827333	-0.005252	0.002928	-0.006915	9.941279	-45.079033	134.365603
56646	6.920557	1.168090	6.818558	-0.002936	0.002780	-0.008443	9.943099	-45.080243	134.364300
56647	6.934467	1.183610	6.791468	-0.002904	0.007676	-0.007079	9.943580	-45.078834	134.364869
56648	6.919650	1.191148	6.810109	-0.006998	0.001815	-0.006111	9.941740	-45.080817	134.365393
56649	6.899628	1.185909	6.797060	-0.002941	0.004571	-0.011110	9.944789	-45.080761	134.362306
56650	6.918967	1.191750	6.810698	-0.005253	0.002928	-0.006916	9.944347	-45.082031	134.362323
56651	6.918599	1.191955	6.811035	-0.002332	0.005521	-0.006470	9.945025	-45.081898	134.363077
56652	6.937815	1.197708	6.824814	-0.005830	0.005980	-0.008859	9.945025	-45.081267	134.361964
56653	6.932066	1.184879	6.793698	-0.006397	0.005450	-0.005470	9.942815	-45.081273	134.363507
56654	6.917205	1.192320	6.812387	-0.005828	0.005085	-0.007527	9.942123	-45.081286	134.363338
56655	6.931269	1.185170	6.794460	-0.002938	0.002782	-0.008445	9.943843	-45.082503	134.362130
56656	6.936207	1.198416	6.826323	-0.003510	0.004043	-0.007722	9.944712	-45.083044	134.361701
56657	6.930455	1.185806	6.795179	-0.002909	0.007678	-0.007080	9.945191	-45.081633	134.362270
56658	6.915576	1.193363	6.813858	-0.004076	0.003512	-0.004333	9.943845	-45.082849	134.364451
56659	6.929572	1.208735	6.786729	-0.005261	0.004721	-0.009584	9.944686	-45.082859	134.362604
56660	6.929206	1.186386	6.796352	-0.004083	0.005304	-0.006999	9.944644	-45.082802	134.362913
56661	6.948447	1.192142	6.810109	-0.002335	0.005522	-0.006470	9.945321	-45.082669	134.363667
56662	6.948041	1.169790	6.819775	-0.005834	0.005982	-0.008861	9.945322	-45.082032	134.362545
56663	6.913514	1.194577	6.815737	-0.002364	0.000626	-0.007836	9.947241	-45.084526	134.361520
56664	6.907939	1.181928	6.784433	-0.004656	0.006565	-0.006276	9.946390	-45.083818	134.362549
56665	6.941584	1.180215	6.779996	-0.004084	0.005304	-0.007000	9.946385	-45.083755	134.362849
56666	6.912255	1.217758	6.807616	-0.005257	0.002929	-0.006919	9.945897	-45.085038	134.362881
56667	6.946100	1.193534	6.812259	-0.003516	0.004940	-0.009056	9.947418	-45.084977	134.361486
56668	6.926059	1.165800	6.808505	-0.003516	0.004940	-0.009057	9.948935	-45.084912	134.360087
56669	6.930764	1.201600	6.831291	-0.004086	0.005305	-0.007000	9.948930	-45.084849	134.360386
56670	6.925082	1.188955	6.800106	-0.002338	0.005523	-0.006471	9.949611	-45.084744	134.361073
56671	6.924672	1.189338	6.800456	-0.002944	0.003680	-0.009780	9.951994	-45.085322	134.358923
56672	6.924328	1.166942	6.810070	-0.008156	0.006127	-0.007337	9.949737	-45.084746	134.359095
56673	6.938197	1.204912	6.773797	-0.001763	0.003367	-0.005862	9.950611	-45.085889	134.360033
56674	6.923408	1.167360	6.810934	-0.006420	0.009036	-0.010807	9.951036	-45.083344	134.357814
56675	6.942472	1.195750	6.815568	-0.003511	0.003148	-0.006392	9.951229	-45.084558	134.358298
56676	6.922350	1.190476	6.802621	-0.002917	0.007681	-0.007081	9.951654	-45.083126	134.358933
56677	6.921901	1.190815	6.803018	-0.002942	0.002785	-0.008448	9.953374	-45.084341	134.357722
56678	6.921496	1.191156	6.803371	-0.004093	0.006202	-0.008335	9.954001	-45.083644	134.357081
56679	6.926302	1.204251	6.835349	-0.005260	0.002930	-0.006922	9.953515	-45.084928	134.357110
56680	6.940284	1.197104	6.817559	-0.004671	0.008359	-0.008945	9.953920	-45.082952	134.356315
56681	6.939824	1.174563	6.827318	-0.005229	0.006032	-0.002889	9.950861	-45.082886	134.360002
56682	6.919529	1.191718	6.805273	-0.002920	0.007682	-0.007082	9.951262	-45.081506	134.360575
56683	6.924320	1.204849	6.837251	-0.004687	0.001670	-0.007647	9.951639	-45.083430	134.359849
56684	6.899139	1.186606	6.792566	-0.005839	0.005087	-0.007533	9.950921	-45.083436	134.359713
56685	6.938174	1.175127	6.828898	-0.005835	0.004190	-0.006200	9.949571	-45.084081	134.360496
56686	6.937772	1.175246	6.829285	-0.004092	0.005306	-0.007003	9.949604	-45.084027	134.360725
56687	6.932021	1.162665	6.798195	-0.002926	0.008580	-0.008415	9.950739	-45.081975	134.360353
56688	6.936649	1.198406	6.821028	-0.003509	0.002253	-0.005061	9.950278	-45.083805	134.361795
56689	6.911402	1.180249	6.776405	-0.004101	0.007101	-0.009670	9.951596	-45.082464	134.360213
56690	6.950198	1.191616	6.803642	-0.004093	0.005307	-0.007004	9.951571	-45.082402	134.360505
56691	6.915664	1.193589	6.808873	-0.007016	0.003608	-0.008789	9.951068	-45.083119	134.359138
56692	6.934964	1.199296	6.822585	-0.005268	0.003828	-0.008258	9.951179	-45.083762	134.358276
56693	6.934720	1.176891	6.832101	-0.005268	0.003828	-0.008258	9.951355	-45.084407	134.357363
56694	6.929032	1.186851	6.791667	-0.004095	0.005307	-0.007004	9.951281	-45.084344	134.357705
56695	6.928669	1.187015	6.792008	-0.005264	0.002931	-0.006926	9.950794	-45.085628	134.357731
56696	6.913782	1.194644	6.810599	-0.003530	0.005843	-0.010394	9.953030	-45.084909	134.355347
56697	6.927786	1.187479	6.792828	-0.005236	0.006031	-0.002891	9.949967	-45.084843	134.359033
56698	6.912893	1.172251	6.820767	-0.002927	0.007684	-0.007083	9.950496	-45.083429	134.359537
56699	6.960923	1.186070	6.788944	-0.006448	0.003247	-0.010848	9.951519	-45.084146	134.356473
56700	6.917138	1.185675	6.853216	-0.005850	0.005986	-0.008870	9.934615	-45.079815	134.376405
56701	6.916535	1.208464	6.844489	-0.005846	0.005088	-0.007537	9.933910	-45.079818	134.376265
56702	6.925444	1.188411	6.795053	-0.005846	0.005088	-0.007537	9.933210	-45.079853	134.376076
56703	6.944604	1.194300	6.808881	-0.001784	0.006065	-0.009864	9.936053	-45.079075	134.374212
56704	6.944293	1.171842	6.818477	-0.008161	0.004331	-0.004679	9.932537	-45.079788	134.376195
56705	6.909497	1.218890	6.805354	-0.005277	0.004727	-0.009594	9.933358	-45.079791	134.374359
56706	6.923894	1.166628	6.805793	-0.001770	0.003372	-0.005864	9.934147	-45.080947	134.375330
56707	6.962595	1.200557	6.823837	-0.006429	0.007246	-0.008147	9.933241	-45.079672	134.375004
56708	6.942404	1.195090	6.810985	-0.006424	0.006348	-0.006815	9.931726	-45.079016	134.375590
56709	6.922467	1.167039	6.807175	-0.005273	0.003830	-0.008262	9.931885	-45.079657	134.374694
56710	6.926980	1.202726	6.830089	-0.004682	0.007466	-0.007616	9.931652	-45.078299	134.374854
56711	6.921289	1.190080	6.798994	-0.002928	0.006789	-0.005751	9.931440	-45.077518	134.376379
56712	6.954849	1.211262	6.785408	-0.004703	0.003470	-0.010320	9.933057	-45.078170	134.373829
56713	6.920366	1.190588	6.799844	-0.005254	0.007827	-0.005560	9.931302	-45.076822	134.375652
56714	6.919844	1.190885	6.800323	-0.002961	0.004589	-0.011121	9.934385	-45.076771	134.372459
56715	6.914106	1.201101	6.759936	-0.004108	0.006208	-0.008341	9.935020	-45.076062	134.371833
56716	6.918955	1.191569	6.801108	-0.003520	0.003153	-0.006398	9.935188	-45.077247	134.372361
56717	6.933257	1.161727	6.792401	-0.006422	0.005449	-0.005483	9.932955	-45.077249	134.373913
56718	6.923403	1.181928	6.842701	-0.004103	0.005310	-0.007008	9.932951	-45.077181	134.374175
56719	6.917788	1.191879	6.802240	-0.005270	0.002932	-0.006931	9.932448	-45.078460	134.374217
56720	6.937019	1.197475	6.816052	-0.008178	0.006127	-0.007350	9.930230	-45.077896	134.374284
56721	6.931441	1.184849	6.784860	-0.001785	0.005172	-0.008532	9.932407	-45.077753	134.373359
56722	6.916394	1.192424	6.803563	-0.006436	0.007247	-0.008151	9.931553	-45.076454	134.372971
56723	6.915838	1.192544	6.804107	-0.004682	0.006569	-0.006285	9.930660	-45.075745	134.374038
56724	6.935084	1.175723	6.827176	-0.002363	0.006431	-0.007809	9.931990	-45.074989	134.373781
56725	6.929277	1.208536	6.777573	-0.002951	0.002794	-0.008456	9.933692	-45.076195	134.372585
56726	6.934310	1.176359	6.827853	-0.005855	0.005090	-0.007542	9.932991	-45.076172	134.372476
56727	6.928588	1.186321	6.787516	-0.002935	0.006791	-0.005752	9.932776	-45.075390	134.374000
56728	6.918532	1.229217	6.828655	-0.007027	0.003611	-0.008800	9.932167	-45.076090	134.372742
56729	6.932911	1.176945	6.829173	-0.004120	0.007110	-0.009676	9.933462	-45.074741	134.371175
56730	6.946689	1.192527	6.802378	-0.005263	0.007828	-0.005562	9.931671	-45.073388	134.373014
56731	6.931665	1.199948	6.821062	-0.003530	0.004053	-0.007734	9.932507	-45.073955	134.372572
56732	6.926190	1.187372	6.789780	-0.004108	0.005312	-0.007010	9.932480	-45.073876	134.372853
56733	6.930815	1.200363	6.821853	-0.005857	0.005091	-0.007544	9.931773	-45.073877	134.372707
56734	6.945084	1.170729	6.813184	-0.003538	0.004953	-0.009067	9.933222	-45.073823	134.371370
56735	6.929677	1.223593	6.813590	-0.002945	0.007691	-0.007086	9.933667	-45.072402	134.371954
56736	6.909995	1.172947	6.818821	-0.003518	0.002255	-0.005068	9.933171	-45.074255	134.373350
56737	6.924060	1.188280	6.791793	-0.009928	0.005006	-0.006556	9.929581	-45.074401	134.373982
56738	6.928599	1.201135	6.823967	-0.002946	0.007692	-0.007086	9.930012	-45.072956	134.374597
56739	6.957048	1.209538	6.778846	-0.005281	0.003833	-0.008269	9.930170	-45.073595	134.373696
56740	6.908036	1.195978	6.811425	-0.006445	0.007249	-0.008155	9.929191	-45.072350	134.373375
56741	6.941847	1.171841	6.816291	-0.004111	0.005313	-0.007011	9.929160	-45.072278	134.373686
56742	6.926457	1.224520	6.816698	-0.004690	0.006571	-0.006288	9.928206	-45.071575	134.374792
56743	6.921323	1.166721	6.803707	-0.002962	0.003697	-0.009793	9.930568	-45.072140	134.372655
56744	6.906296	1.196889	6.813030	-0.003519	0.002256	-0.005069	9.930111	-45.073959	134.374094
56745	6.925651	1.202502	6.826718	-0.008774	0.002490	-0.008006	9.928251	-45.075381	134.373215
56746	6.939776	1.195395	6.808928	-0.002950	0.007693	-0.007087	9.928681	-45.073962	134.373792
56747	6.905315	1.174652	6.823267	-0.005284	0.003834	-0.008271	9.928838	-45.074600	134.372890
56748	6.938893	1.195817	6.809754	-0.005863	0.005092	-0.007547	9.928107	-45.074564	134.372772
56749	6.923850	1.203211	6.828420	-0.005871	0.005992	-0.008880	9.928059	-45.073923	134.371684
56750	6.918537	1.167930	6.806332	-0.005864	0.005092	-0.007547	9.927375	-45.073893	134.371553
56751	6.922814	1.203498	6.829420	-0.005281	0.008729	-0.006898	9.926272	-45.071904	134.372432
56752	6.922554	1.180968	6.838977	-0.003521	0.002257	-0.005070	9.925746	-45.073764	134.373862
56753	6.936797	1.174091	6.821043	-0.002972	0.004600	-0.011127	9.928769	-45.073687	134.370784
56754	6.916663	1.191361	6.798787	-0.007599	0.003070	-0.005417	9.926054	-45.075031	134.372068
56755	6.935850	1.196936	6.812657	-0.004696	0.006572	-0.006289	9.925156	-45.074320	134.373132
