// General information: 
//  MT Manager version: 2022.2.0 
//  XDA version: 2022.2.0 build 7381 rev 124627 built on 2023-07-19
// Device information: 
//  DeviceId: 00B4BB4D
//  ProductCode: MTW2-3A7G6
//  Firmware Version: 4.6.0
//  Hardware Version: 2.0.0
// Device settings: 
//  Filter Profile: human(46.1)
//  Option Flags: Orientation Smoother Disabled, Position/Velocity Smoother Disabled, Continuous Zero Rotation Update Disabled, AHS Disabled, ICC Disabled
// Coordinate system: ENU
PacketCounter	Acc_X	Acc_Y	Acc_Z	Gyr_X	Gyr_Y	Gyr_Z	Roll	Pitch	Yaw
55472	6.816268	1.249756	6.821584	0.008242	-0.015110	-0.000984	10.486761	-45.385565	115.749088
55473	6.951139	1.321651	6.738269	0.011965	-0.008153	-0.009654	10.493713	-45.385329	115.741843
55474	7.031842	1.400648	6.739725	0.011206	-0.009721	0.004589	10.492245	-45.387368	115.745784
55475	6.884231	1.353640	6.768386	0.006816	-0.003610	0.004152	10.487851	-45.386037	115.750266
55476	6.866905	1.304336	6.739333	0.008783	-0.013426	0.005858	10.484661	-45.390296	115.754676
55477	6.998675	1.263696	6.663588	0.004776	-0.007733	0.003285	10.480062	-45.391191	115.757833
55478	6.955628	1.246401	6.700457	0.009620	-0.000324	0.000745	10.478888	-45.387534	115.760085
55479	6.854283	1.218677	6.792944	0.009814	-0.001134	0.002169	10.477118	-45.384595	115.763316
55480	6.825139	1.233391	6.828839	0.009694	-0.008555	-0.004392	10.479789	-45.385041	115.760226
55481	6.955953	1.287278	6.716079	0.009578	-0.017178	-0.005968	10.484258	-45.390282	115.754530
55482	6.922951	1.284440	6.722408	0.015658	-0.000691	-0.000806	10.487467	-45.386671	115.755484
55483	6.888688	1.320272	6.746410	0.012114	-0.004851	-0.005665	10.491891	-45.384960	115.751933
55484	6.926848	1.343056	6.767831	0.010274	-0.010985	-0.000119	10.492712	-45.387220	115.751909
55485	6.992239	1.256320	6.689045	0.005734	-0.009380	0.000438	10.490422	-45.388745	115.752559
55486	6.925639	1.248830	6.702691	0.006080	-0.005684	0.000869	10.487714	-45.388121	115.754115
55487	6.943372	1.282279	6.801838	0.006656	-0.006913	0.000157	10.485933	-45.388218	115.754847
55488	6.935755	1.246720	6.742703	0.002541	-0.011045	0.000997	10.481691	-45.390628	115.755710
55489	6.980602	1.225863	6.687424	0.005351	-0.008960	0.002573	10.477934	-45.392144	115.758121
55490	6.952549	1.201784	6.705885	0.009112	-0.007326	-0.003685	10.479738	-45.391971	115.755781
55491	6.948042	1.223205	6.693294	0.007036	-0.007333	-0.001981	10.479446	-45.392065	115.754763
55492	6.987138	1.207182	6.697403	0.008764	-0.011023	-0.004116	10.481687	-45.393930	115.751528
55493	7.026823	1.207719	6.630174	0.010227	-0.005669	-0.002542	10.483266	-45.393039	115.750405
55494	7.012301	1.215621	6.647991	0.010379	-0.001162	-0.003537	10.485060	-45.389409	115.749098
55495	6.963552	1.203147	6.744378	0.009651	-0.004439	-0.001831	10.485818	-45.387913	115.748636
55496	6.954872	1.206499	6.702629	0.005536	-0.008570	-0.000988	10.484164	-45.388722	115.748275
55497	6.970085	1.200143	6.683806	0.009108	-0.007326	-0.003686	10.486005	-45.388663	115.745854
55498	7.018018	1.236447	6.675003	0.009497	-0.008944	-0.000837	10.486574	-45.389699	115.745558
55499	6.970264	1.240017	6.699731	0.004384	-0.006110	0.000435	10.483172	-45.389372	115.746720
55500	6.977286	1.197426	6.622457	0.006500	-0.011418	0.001150	10.481151	-45.392008	115.747651
55501	7.010755	1.185301	6.686054	0.007194	-0.004024	0.002009	10.478326	-45.390628	115.750369
55502	6.982469	1.161270	6.704824	0.009648	-0.004439	-0.001833	10.479075	-45.389021	115.749942
55503	6.948352	1.196705	6.728792	0.010960	-0.003590	0.000734	10.479104	-45.387296	115.751630
55504	6.963510	1.190421	6.710003	0.010070	-0.010174	-0.001550	10.480538	-45.388950	115.750580
55505	6.977910	1.222934	6.708295	0.012490	-0.006471	-0.002827	10.483764	-45.388473	115.748990
55506	6.958692	1.251701	6.713798	0.014952	-0.008081	-0.001683	10.487850	-45.388935	115.748143
55507	6.973005	1.284251	6.712154	0.013421	-0.005199	0.001876	10.488698	-45.388271	115.750556
55508	6.973474	1.284938	6.711535	0.010805	-0.008094	0.001728	10.488461	-45.389095	115.752444
55509	6.945369	1.260925	6.730153	0.009460	-0.004825	0.001726	10.487130	-45.388196	115.754753
55510	6.936019	1.247859	6.759879	0.008147	-0.005675	-0.000841	10.486582	-45.387389	115.754939
55511	6.945348	1.300644	6.746288	0.008536	-0.007292	0.002009	10.484837	-45.387898	115.757130
55512	6.933052	1.230888	6.729284	0.009532	-0.014257	0.001583	10.484605	-45.392179	115.757986
55513	6.943342	1.244949	6.698391	0.003416	-0.003263	-0.001704	10.481679	-45.389997	115.757785
55514	6.933046	1.270573	6.745412	0.011335	-0.004011	-0.001408	10.483106	-45.388193	115.757763
55515	6.929263	1.253322	6.715701	0.008914	-0.007713	-0.000129	10.482802	-45.388688	115.758259
55516	6.910960	1.242939	6.704041	0.009109	-0.008521	0.001296	10.481886	-45.389707	115.759737
55517	6.959699	1.240495	6.677984	0.009097	-0.007328	-0.003691	10.483667	-45.389645	115.757399
55518	6.934831	1.273440	6.743036	0.009446	-0.003631	-0.003265	10.485032	-45.387434	115.755944
55519	6.935278	1.274222	6.742429	0.008369	-0.010602	-0.001982	10.485827	-45.389374	115.754455
55520	6.979082	1.292471	6.704256	0.012297	-0.006856	0.000728	10.486886	-45.389396	115.755725
55521	6.942137	1.216357	6.735976	0.007024	-0.007333	-0.001985	10.486552	-45.389505	115.754715
55522	6.951475	1.269219	6.722287	0.007024	-0.007333	-0.001985	10.486190	-45.389513	115.753737
55523	6.952743	1.231129	6.704583	0.008337	-0.006482	0.000580	10.485033	-45.389410	115.754942
55524	6.958230	1.210918	6.716030	0.006840	-0.007718	0.001577	10.482572	-45.390007	115.756764
55525	6.963445	1.245590	6.673129	0.007218	-0.008141	-0.000560	10.481617	-45.390723	115.756787
55526	6.997793	1.195136	6.719595	0.008336	-0.006482	0.000579	10.480452	-45.390519	115.757993
55527	6.945091	1.219325	6.732394	0.005147	-0.008146	0.001147	10.477322	-45.391406	115.759419
55528	6.974995	1.205902	6.695294	0.016825	-0.008459	0.000158	10.481470	-45.392272	115.759993
55529	6.941909	1.202948	6.701899	0.006630	-0.005720	-0.004837	10.482329	-45.391173	115.756977
55530	6.969944	1.266889	6.699261	0.007944	-0.004867	-0.002272	10.482397	-45.389762	115.756134
55531	6.994293	1.257866	6.721635	0.009677	-0.009749	0.000581	10.482365	-45.391501	115.756826
55532	6.957102	1.236627	6.699047	0.010404	-0.006476	-0.001131	10.483361	-45.391115	115.756660
55533	6.948297	1.239791	6.657333	0.006069	-0.005679	0.000861	10.480687	-45.390581	115.758187
55534	6.967173	1.235065	6.739152	0.008907	-0.007712	-0.000134	10.480387	-45.390996	115.758638
55535	6.948785	1.224662	6.727611	0.008333	-0.006481	0.000577	10.479264	-45.390892	115.759791
55536	6.977870	1.249717	6.707621	0.007983	-0.010178	0.000152	10.478531	-45.392726	115.760105
55537	6.964522	1.218465	6.708138	0.003803	-0.004877	0.001144	10.474287	-45.391774	115.762004
55538	6.945297	1.246688	6.713730	0.012862	-0.008085	0.000008	10.476211	-45.392413	115.762514
55539	6.965494	1.219805	6.706885	0.009282	-0.008136	-0.002272	10.477433	-45.392951	115.761120
55540	6.946260	1.248245	6.712445	0.009828	-0.005245	-0.000423	10.477564	-45.391946	115.761705
55541	6.970530	1.239326	6.734897	0.010400	-0.006476	-0.001134	10.478602	-45.391648	115.761500
55542	6.927350	1.277546	6.717504	0.011895	-0.005241	-0.002133	10.480895	-45.390462	115.760714
55543	6.966263	1.261592	6.721758	0.010022	-0.006051	0.001002	10.480429	-45.390156	115.762291
55544	6.947940	1.251179	6.710160	0.007979	-0.010177	0.000151	10.479695	-45.391989	115.762605
55545	6.952670	1.269722	6.738669	0.005870	-0.004872	-0.000566	10.477638	-45.390863	115.763084
55546	6.948834	1.252005	6.709080	0.006262	-0.006484	0.002285	10.474310	-45.390837	115.765658
55547	6.958574	1.249886	6.749675	0.008902	-0.007711	-0.000137	10.474056	-45.391360	115.766048
55548	6.969514	1.225294	6.701707	0.007209	-0.008140	-0.000564	10.473074	-45.391971	115.766091
55549	6.954663	1.271644	6.736249	0.007781	-0.009371	-0.001275	10.472937	-45.393305	115.765418
55550	6.960925	1.212984	6.730687	0.007936	-0.004868	-0.002278	10.473004	-45.391894	115.764571
55551	6.951360	1.254783	6.705943	0.009293	-0.009322	0.002713	10.471481	-45.393607	115.767046
55552	6.938068	1.223960	6.706385	0.013034	-0.007703	-0.003561	10.475501	-45.393660	115.764749
55553	6.971973	1.228756	6.698514	0.007935	-0.004868	-0.002279	10.475629	-45.392332	115.763847
55554	6.943069	1.243557	6.734429	0.008327	-0.006479	0.000572	10.474462	-45.392125	115.765047
55555	6.958161	1.237023	6.715648	0.007011	-0.007334	-0.001991	10.474152	-45.392240	115.763993
55556	6.934741	1.247252	6.692053	0.008898	-0.007710	-0.000139	10.473849	-45.392653	115.764439
55557	6.983442	1.244600	6.665856	0.009094	-0.008515	0.001286	10.472973	-45.393723	115.765955
55558	6.945136	1.245735	6.731895	0.006831	-0.007713	0.001572	10.470508	-45.394316	115.767774
55559	6.974912	1.232045	6.694850	0.010588	-0.007280	0.000285	10.470899	-45.394637	115.768610
55560	6.951971	1.187462	6.725717	0.006830	-0.007713	0.001571	10.468434	-45.395230	115.770429
55561	6.961288	1.240279	6.711806	0.009074	-0.007331	-0.003704	10.470249	-45.395157	115.768045
55562	6.933192	1.216611	6.730673	0.006614	-0.005724	-0.004844	10.471116	-45.393962	115.765012
55563	6.976695	1.234769	6.692490	0.012278	-0.006850	0.000708	10.472130	-45.394074	115.766335
55564	6.943673	1.231659	6.699170	0.009269	-0.008136	-0.002279	10.473307	-45.394504	115.765002
55565	6.963032	1.243437	6.709413	0.010389	-0.006475	-0.001143	10.474303	-45.394201	115.764850
55566	6.973120	1.257656	6.678447	0.009465	-0.008940	-0.000853	10.474863	-45.395232	115.764542
55567	6.959122	1.265423	6.695886	0.009661	-0.009745	0.000572	10.474787	-45.396969	115.765266
55568	6.960340	1.227177	6.678348	0.005292	-0.003640	0.000141	10.471828	-45.395118	115.766542
55569	6.959919	1.266503	6.694853	0.009070	-0.007331	-0.003706	10.473619	-45.395053	115.764181
55570	6.951613	1.215039	6.707533	0.010781	-0.008083	0.001707	10.473380	-45.395868	115.766054
55571	6.970210	1.265290	6.734782	0.007751	-0.005245	0.001279	10.471374	-45.395148	115.767959
55572	6.951758	1.254803	6.723370	0.008892	-0.007709	-0.000144	10.471070	-45.395560	115.768403
55573	6.948026	1.237232	6.693627	0.009088	-0.008513	0.001282	10.470150	-45.396664	115.769901
55574	6.967402	1.248889	6.703861	0.008497	-0.006100	-0.002996	10.471080	-45.395872	115.768294
55575	6.958161	1.236205	6.733703	0.009617	-0.004439	-0.001862	10.471835	-45.394359	115.767846
55576	6.954343	1.218842	6.704013	0.010031	-0.010172	-0.001567	10.473257	-45.396011	115.766783
55577	6.959101	1.237680	6.732460	0.009243	-0.004011	0.000275	10.472501	-45.394471	115.768160
55578	6.939816	1.266008	6.738067	0.007001	-0.007334	-0.001994	10.472132	-45.394479	115.767175
55579	6.978891	1.249998	6.742140	0.011150	-0.008510	-0.000433	10.473372	-45.395394	115.767296
55580	6.936592	1.249202	6.707656	0.007198	-0.008138	-0.000569	10.472385	-45.396003	115.767336
55581	6.951757	1.242584	6.688760	0.009085	-0.008511	0.001280	10.471431	-45.397133	115.768819
55582	6.957288	1.222562	6.700279	0.008120	-0.005672	-0.000861	10.470880	-45.396323	115.768989
55583	6.981022	1.252308	6.739505	0.007964	-0.010173	0.000146	10.470158	-45.398242	115.769293
55584	6.962720	1.241855	6.727949	0.008887	-0.007708	-0.000147	10.469853	-45.398653	115.769734
55585	6.944381	1.231530	6.716410	0.008138	-0.009798	-0.003418	10.471225	-45.400008	115.767219
55586	6.959505	1.225035	6.697524	0.008316	-0.006475	0.000564	10.470057	-45.399799	115.768413
55587	6.978842	1.236706	6.707778	0.010379	-0.006474	-0.001152	10.471070	-45.399481	115.768263
55588	6.979309	1.237397	6.707164	0.008885	-0.007707	-0.000148	10.470764	-45.399891	115.768703
55589	6.946252	1.234128	6.713998	0.008118	-0.005672	-0.000863	10.470201	-45.399181	115.768891
55590	6.951757	1.214160	6.725558	0.008885	-0.007707	-0.000148	10.469895	-45.399592	115.769331
55591	6.985140	1.257441	6.734280	0.010220	-0.010974	-0.000145	10.470683	-45.401932	115.769333
55592	6.957396	1.249538	6.681597	0.008488	-0.006101	-0.003002	10.471611	-45.401140	115.767722
55593	6.972247	1.227360	6.734338	0.010376	-0.006473	-0.001154	10.472594	-45.400853	115.767553
55594	6.963310	1.230305	6.692602	0.004932	-0.007336	-0.000281	10.470061	-45.401040	115.767941
55595	6.944159	1.258510	6.698080	0.008883	-0.007707	-0.000150	10.469775	-45.401535	115.768407
55596	6.949754	1.238506	6.709566	0.007191	-0.008137	-0.000572	10.468786	-45.402143	115.768443
55597	6.950125	1.239197	6.709055	0.009410	-0.003636	-0.003297	10.470132	-45.400035	115.766989
55598	6.950448	1.239974	6.708576	0.008684	-0.006904	-0.001577	10.470442	-45.399844	115.766402
55599	6.950903	1.240624	6.707984	0.006993	-0.007334	-0.001998	10.470050	-45.399951	115.765435
55600	6.975359	1.231791	6.730305	0.012262	-0.006845	0.000691	10.471109	-45.399963	115.766677
55601	6.937272	1.249045	6.724998	0.004930	-0.007335	-0.000282	10.468598	-45.400229	115.767078
55602	6.990136	1.264521	6.727767	0.010373	-0.006473	-0.001157	10.469591	-45.399839	115.766891
55603	6.967343	1.235874	6.687375	0.008509	-0.007276	0.001986	10.467836	-45.400308	115.769106
55604	6.943763	1.230179	6.735374	0.006991	-0.007334	-0.001999	10.467463	-45.400316	115.768117
55605	6.968370	1.237000	6.686097	0.007757	-0.009369	-0.001284	10.467319	-45.401641	115.767434
55606	6.939671	1.252040	6.721965	0.009604	-0.004438	-0.001874	10.468067	-45.400031	115.766974
55607	6.978696	1.235918	6.726088	0.005695	-0.009369	0.000433	10.465804	-45.401504	115.767663
55608	6.965337	1.204967	6.726853	0.011862	-0.005240	-0.002166	10.468096	-45.400315	115.766850
55609	6.941013	1.253904	6.720232	0.004928	-0.007335	-0.000282	10.465602	-45.400578	115.767233
55610	6.974884	1.258422	6.712252	0.009973	-0.004869	-0.004013	10.467828	-45.398987	115.764993
55611	6.970958	1.240925	6.682671	0.009075	-0.008507	0.001273	10.466896	-45.400098	115.766466
55612	6.961982	1.228204	6.712419	0.010368	-0.006472	-0.001161	10.467888	-45.399707	115.766277
55613	6.962424	1.228810	6.711849	0.006618	-0.006903	0.000137	10.466018	-45.399821	115.767051
55614	6.948379	1.236603	6.729435	0.011134	-0.008506	-0.000446	10.467255	-45.400651	115.767134
55615	6.958487	1.250572	6.698267	0.006261	-0.010601	-0.000278	10.465811	-45.402760	115.767088
55616	6.964164	1.230632	6.709710	0.012255	-0.006842	0.000683	10.466870	-45.402770	115.768324
55617	6.964631	1.231324	6.709098	0.006985	-0.007335	-0.002001	10.466487	-45.402867	115.767371
55618	6.935903	1.246358	6.745048	0.007909	-0.004869	-0.002298	10.466551	-45.401455	115.766507
55619	6.946530	1.221606	6.697248	0.009441	-0.008937	-0.000867	10.467126	-45.402596	115.766142
55620	6.970374	1.251613	6.736283	0.010563	-0.007273	0.000263	10.467501	-45.402805	115.766976
55621	6.942440	1.243527	6.683779	0.008674	-0.006903	-0.001583	10.467802	-45.402711	115.766402
55622	6.952383	1.242025	6.724298	0.010931	-0.007704	-0.001876	10.469655	-45.402940	115.765457
55623	6.986308	1.246582	6.716211	0.006416	-0.006102	-0.001291	10.468415	-45.402430	115.765214
55624	6.943777	1.245637	6.681997	0.012252	-0.006841	0.000680	10.469474	-45.402439	115.766447
55625	6.953703	1.244144	6.722541	0.010362	-0.006472	-0.001166	10.470478	-45.402144	115.766257
55626	6.954148	1.244837	6.721953	0.006982	-0.007335	-0.002003	10.470103	-45.402152	115.765264
55627	6.950129	1.227168	6.692495	0.009227	-0.004006	0.000256	10.469366	-45.400638	115.766556
55628	6.973858	1.257075	6.731658	0.007180	-0.008135	-0.000576	10.468373	-45.401245	115.766589
55629	6.936481	1.235543	6.709589	0.008671	-0.006903	-0.001585	10.468615	-45.401208	115.765985
55630	6.955896	1.247263	6.719694	0.008869	-0.007703	-0.000158	10.468306	-45.401615	115.766418
55631	6.957218	1.209060	6.702178	0.006623	-0.011032	-0.002416	10.468315	-45.403743	115.764624
55632	6.971505	1.241397	6.700097	0.009395	-0.003638	-0.003311	10.469679	-45.401532	115.763130
55633	6.957413	1.249560	6.717697	0.013948	-0.010538	-0.001457	10.473327	-45.403512	115.762071
55634	6.981880	1.240890	6.740020	0.006770	-0.002404	-0.000880	10.471667	-45.400859	115.762711
55635	6.958154	1.250941	6.716672	0.010557	-0.007271	0.000258	10.472049	-45.401148	115.763565
55636	6.939681	1.240467	6.705370	0.008301	-0.006470	0.000551	10.470879	-45.400934	115.764750
55637	6.973607	1.244889	6.697260	0.006978	-0.007335	-0.002004	10.470446	-45.401040	115.763834
55638	6.959603	1.252761	6.714831	0.009433	-0.008936	-0.000871	10.470997	-45.402068	115.763512
55639	6.965244	1.232806	6.726380	0.006610	-0.006901	0.000133	10.469164	-45.402129	115.764323
55640	6.946007	1.261112	6.731896	0.009790	-0.005238	-0.000460	10.469294	-45.401116	115.764879
55641	6.956598	1.236139	6.684117	0.007375	-0.008934	0.000849	10.467678	-45.402408	115.765981
55642	6.933237	1.230727	6.732090	0.012810	-0.008071	-0.000039	10.469598	-45.403035	115.766455
55643	6.972330	1.214804	6.736087	0.006975	-0.007335	-0.002005	10.469294	-45.403109	115.765423
55644	6.967692	1.235969	6.723264	0.010554	-0.007270	0.000255	10.469668	-45.403316	115.766251
55645	6.953613	1.243809	6.740936	0.006408	-0.006101	-0.001295	10.468400	-45.402798	115.766064
55646	6.963469	1.257652	6.709907	0.008863	-0.007702	-0.000162	10.468089	-45.403204	115.766494
55647	6.945695	1.208373	6.681895	0.008663	-0.006903	-0.001590	10.468393	-45.403122	115.765874
55648	6.965131	1.219982	6.691973	0.006807	-0.007700	0.001559	10.465920	-45.403706	115.767686
55649	6.950348	1.266450	6.726411	0.005841	-0.004868	-0.000585	10.463775	-45.402578	115.768251
55650	6.932424	1.216995	6.698597	0.004518	-0.005735	-0.003139	10.462468	-45.401566	115.766584
55651	6.970741	1.239787	6.719399	0.010551	-0.007269	0.000252	10.462799	-45.401873	115.767452
55652	6.951567	1.268141	6.724833	0.008296	-0.006468	0.000547	10.461627	-45.401658	115.768635
55653	6.967247	1.222615	6.689288	0.008861	-0.007701	-0.000164	10.461317	-45.402167	115.769062
55654	6.952550	1.269354	6.723588	0.010550	-0.007269	0.000251	10.461691	-45.402372	115.769888
55655	6.991536	1.253393	6.727686	0.007895	-0.004870	-0.002308	10.461802	-45.401049	115.768982
55656	6.954112	1.231933	6.705727	0.009990	-0.010168	-0.001587	10.463210	-45.402697	115.767904
55657	6.978823	1.223269	6.727825	0.009424	-0.008935	-0.000876	10.463714	-45.403827	115.767635
55658	6.960374	1.212904	6.716512	0.010348	-0.006470	-0.001178	10.464704	-45.403434	115.767433
55659	6.969504	1.265608	6.702141	0.006604	-0.006900	0.000130	10.462843	-45.403529	115.768201
55660	6.975773	1.206732	6.697138	0.008293	-0.006467	0.000545	10.461671	-45.403313	115.769382
55661	6.942073	1.242258	6.720857	0.008293	-0.006467	0.000545	10.460489	-45.403193	115.770586
55662	6.957015	1.235520	6.702054	0.008292	-0.006467	0.000544	10.459317	-45.402977	115.771766
55663	6.961952	1.254533	6.730333	0.009221	-0.008136	-0.002305	10.460431	-45.403502	115.770492
55664	6.957999	1.236988	6.700763	0.010910	-0.007703	-0.001891	10.462280	-45.403729	115.769535
55665	6.958391	1.237591	6.700244	0.007162	-0.003999	0.001965	10.459383	-45.402380	115.772215
55666	6.977730	1.249175	6.710400	0.006966	-0.007335	-0.002009	10.459002	-45.402388	115.771218
55667	6.959298	1.238715	6.699094	0.009420	-0.008934	-0.000878	10.459523	-45.403516	115.770927
55668	6.964292	1.257742	6.727312	0.006965	-0.007335	-0.002009	10.459142	-45.403523	115.769929
55669	6.950966	1.226750	6.728300	0.008854	-0.007700	-0.000168	10.458830	-45.404019	115.770357
55670	6.970445	1.238471	6.738284	0.008854	-0.007700	-0.000168	10.458518	-45.404424	115.770782
55671	6.951987	1.228094	6.727000	0.010907	-0.007703	-0.001893	10.460365	-45.404740	115.769853
55672	6.961774	1.241999	6.695913	0.006400	-0.006101	-0.001299	10.459124	-45.404126	115.769608
55673	6.947715	1.249835	6.713618	0.006963	-0.007335	-0.002010	10.458729	-45.404241	115.768599
55674	6.962716	1.243166	6.694716	0.010742	-0.008064	0.001671	10.458485	-45.405043	115.770447
55675	6.949306	1.212213	6.695807	0.005998	-0.004506	-0.004155	10.458427	-45.403335	115.768208
55676	6.973101	1.242421	6.734808	0.008651	-0.006902	-0.001597	10.458731	-45.403142	115.767605
55677	6.969123	1.224758	6.705279	0.011104	-0.008500	-0.000468	10.459927	-45.404090	115.767656
55678	6.949956	1.253293	6.710654	0.008450	-0.006105	-0.003026	10.460847	-45.403298	115.766025
55679	6.974437	1.244674	6.733008	0.009775	-0.005235	-0.000474	10.460930	-45.402369	115.766658
55680	6.965284	1.247432	6.691251	0.011304	-0.009297	0.000959	10.461545	-45.403790	115.767751
55681	6.965771	1.247864	6.690663	0.003781	-0.004863	0.001136	10.457243	-45.402854	115.769665
55682	6.947179	1.237212	6.679579	0.010338	-0.006469	-0.001186	10.458232	-45.402459	115.769456
55683	6.957262	1.235886	6.720116	0.008648	-0.006902	-0.001599	10.458601	-45.402335	115.768822
55684	6.962226	1.254997	6.748360	0.010538	-0.007266	0.000241	10.458973	-45.402538	115.769640
55685	6.934029	1.246652	6.696064	0.008447	-0.006105	-0.003027	10.459815	-45.401867	115.768069
55686	6.977578	1.249137	6.728926	0.008848	-0.007699	-0.000172	10.459501	-45.402270	115.768492
55687	6.959073	1.238697	6.717723	0.010336	-0.006469	-0.001188	10.460462	-45.401977	115.768318
55688	6.955060	1.220875	6.688255	0.005470	-0.008565	-0.000997	10.458775	-45.402783	115.767951
55689	6.960005	1.239739	6.716565	0.005831	-0.004867	-0.000591	10.456632	-45.401646	115.768514
55690	6.960460	1.240302	6.715990	0.009410	-0.008932	-0.000884	10.457176	-45.402670	115.768183
55691	6.946520	1.248165	6.733602	0.006595	-0.006897	0.000125	10.455357	-45.402758	115.768901
55692	6.961464	1.241428	6.714740	0.010535	-0.007265	0.000238	10.455728	-45.402960	115.769718
55693	6.961930	1.242033	6.714146	0.008283	-0.006464	0.000537	10.454527	-45.402842	115.770924
55694	6.976870	1.235291	6.695283	0.008845	-0.007698	-0.000174	10.454212	-45.403245	115.771345
55695	6.948485	1.250422	6.731155	0.005467	-0.008565	-0.000997	10.452467	-45.404184	115.770981
55696	6.982369	1.254949	6.722872	0.011819	-0.005239	-0.002208	10.454759	-45.402990	115.770135
55697	6.954435	1.231220	6.742399	0.003779	-0.004862	0.001135	10.450494	-45.402031	115.772022
55698	6.969349	1.224476	6.723560	0.011456	-0.008937	-0.002613	10.453199	-45.402878	115.770303
55699	6.964752	1.245667	6.710545	0.009045	-0.008494	0.001252	10.452282	-45.403960	115.771769
55700	6.951424	1.214717	6.711652	0.008440	-0.006106	-0.003032	10.453200	-45.403169	115.770133
55701	6.970888	1.226598	6.721578	0.009405	-0.008932	-0.000887	10.453831	-45.404262	115.769736
55702	6.947205	1.236465	6.698137	0.007717	-0.005228	0.001245	10.451798	-45.403421	115.771662
55703	6.985444	1.259449	6.718835	0.011052	-0.003208	-0.002928	10.453857	-45.401092	115.770548
55704	6.938612	1.224840	6.727713	0.011293	-0.009294	0.000951	10.454470	-45.402511	115.771636
55705	6.947800	1.277408	6.713001	0.004902	-0.007330	-0.000287	10.451865	-45.402832	115.772028
55706	6.963405	1.231771	6.677566	0.012779	-0.008064	-0.000067	10.453782	-45.403452	115.772481
55707	6.953999	1.258216	6.724005	0.006590	-0.006896	0.000123	10.451855	-45.403567	115.773283
55708	6.968887	1.251497	6.705165	0.010326	-0.006468	-0.001196	10.452843	-45.403171	115.773067
55709	6.955513	1.220632	6.706340	0.008638	-0.006902	-0.001606	10.453093	-45.403115	115.772458
55710	6.950795	1.241764	6.693431	0.010527	-0.007263	0.000232	10.453464	-45.403315	115.773269
55711	6.970260	1.253482	6.703367	0.006588	-0.006896	0.000123	10.451570	-45.403378	115.774115
55712	6.961509	1.240936	6.733311	0.007510	-0.008570	-0.002727	10.452040	-45.404007	115.772359
55713	6.961978	1.241629	6.732699	0.011653	-0.005594	0.001351	10.452292	-45.403472	115.774273
55714	6.971729	1.255295	6.701500	0.007351	-0.008925	0.000840	10.450671	-45.404672	115.775326
55715	6.944039	1.231596	6.720877	0.010525	-0.007262	0.000230	10.451002	-45.404938	115.776238
55716	6.963549	1.243451	6.730738	0.007508	-0.008571	-0.002728	10.451472	-45.405567	115.774481
55717	6.964043	1.244145	6.730099	0.008634	-0.006902	-0.001608	10.451744	-45.405477	115.773898
55718	6.959876	1.226332	6.700772	0.009761	-0.005232	-0.000489	10.451874	-45.404459	115.774432
55719	6.964832	1.245442	6.729042	0.008274	-0.006461	0.000530	10.450691	-45.404351	115.775575
55720	6.979764	1.238577	6.710160	0.005459	-0.008564	-0.000998	10.448998	-45.405157	115.775207
55721	6.952097	1.214845	6.729558	0.010725	-0.008056	0.001656	10.448685	-45.406053	115.777117
55722	6.942134	1.256352	6.704363	0.007869	-0.004872	-0.002327	10.448743	-45.404640	115.776229
55723	6.966687	1.247654	6.726712	0.004695	-0.006535	-0.001716	10.446731	-45.404348	115.775630
55724	6.957406	1.250170	6.684992	0.011082	-0.008496	-0.000484	10.447959	-45.405169	115.775685
55725	6.972846	1.228528	6.737797	0.008070	-0.005666	-0.000900	10.447347	-45.404452	115.775891
55726	6.962888	1.269985	6.712584	0.008833	-0.007696	-0.000182	10.447029	-45.404853	115.776307
55727	6.949628	1.239080	6.713720	0.011081	-0.008496	-0.000485	10.448265	-45.405782	115.776325
55728	6.950023	1.239770	6.713184	0.007306	-0.003637	-0.001618	10.447466	-45.403747	115.776189
55729	6.945772	1.221799	6.683968	0.008271	-0.006460	0.000528	10.446239	-45.403634	115.777406
55730	6.936502	1.248467	6.730285	0.013888	-0.010532	-0.001499	10.449869	-45.405496	115.776346
55731	6.971082	1.214107	6.705357	0.006380	-0.006101	-0.001309	10.448589	-45.404983	115.776130
55732	6.951925	1.242406	6.710726	0.007143	-0.008130	-0.000591	10.447582	-45.405586	115.776153
55733	6.952404	1.243054	6.710111	0.010315	-0.006467	-0.001205	10.448634	-45.405280	115.775855
55734	6.958131	1.223416	6.721764	0.008060	-0.009806	-0.003441	10.449958	-45.406531	115.773343
55735	6.953413	1.244524	6.708792	0.008067	-0.005666	-0.000902	10.474892	-45.400831	115.763846
55736	6.958996	1.224801	6.720616	0.008424	-0.006108	-0.003041	10.475827	-45.400035	115.762191
55737	6.973185	1.257175	6.718200	0.010314	-0.006466	-0.001206	10.476796	-45.399723	115.762045
55738	6.978819	1.237541	6.729959	0.010313	-0.006466	-0.001206	10.477803	-45.399321	115.761809
55739	6.950391	1.228897	6.677863	0.008065	-0.005666	-0.000903	10.477263	-45.398582	115.761973
55740	6.946243	1.235024	6.736664	0.008828	-0.007694	-0.000185	10.476965	-45.398977	115.762374
55741	6.955910	1.248707	6.705425	0.008624	-0.006901	-0.001614	10.477260	-45.398879	115.761759
55742	6.970792	1.241979	6.686528	0.008827	-0.007694	-0.000186	10.476962	-45.399274	115.762160
55743	6.962098	1.229555	6.716533	0.006936	-0.007336	-0.002021	10.476593	-45.399373	115.761090
55744	6.938344	1.239329	6.693131	0.010157	-0.006816	0.002359	10.475510	-45.399539	115.763662
55745	6.962372	1.269742	6.731784	0.006529	-0.005750	-0.004879	10.476357	-45.398441	115.760641
55746	6.944484	1.220176	6.704298	0.011122	-0.009637	0.004505	10.474899	-45.400420	115.764517
55747	6.958835	1.252292	6.701722	0.005044	-0.006978	-0.003857	10.474395	-45.400157	115.762113
55748	6.959289	1.252940	6.701129	0.010512	-0.007258	0.000219	10.474785	-45.400349	115.762903
55749	6.926382	1.249775	6.708326	0.008824	-0.007694	-0.000188	10.474412	-45.400876	115.763323
55750	6.951112	1.241095	6.730523	0.006577	-0.006893	0.000117	10.472568	-45.400852	115.764085
55751	6.966031	1.234270	6.711589	0.009382	-0.008929	-0.000899	10.473056	-45.401984	115.763812
55752	6.946903	1.262662	6.716896	0.006373	-0.006100	-0.001312	10.471827	-45.401365	115.763545
55753	6.966854	1.235436	6.710521	0.009189	-0.003994	0.000209	10.471157	-45.399820	115.764684
55754	6.948279	1.224925	6.699499	0.008050	-0.009807	-0.003444	10.472499	-45.401067	115.762157
55755	6.948806	1.225573	6.698834	0.008263	-0.006457	0.000521	10.471336	-45.400925	115.763338
55756	6.972862	1.255937	6.737460	0.008059	-0.005665	-0.000908	10.470797	-45.400102	115.763460
55757	6.973269	1.256587	6.736917	0.008618	-0.006901	-0.001618	10.471079	-45.400018	115.762843
55758	6.950021	1.227426	6.697235	0.008059	-0.005665	-0.000908	10.470539	-45.399196	115.762965
55759	6.979358	1.237542	6.748151	0.009176	-0.008136	-0.002329	10.471686	-45.399719	115.761614
55760	6.931359	1.256593	6.701908	0.008820	-0.007693	-0.000190	10.471386	-45.400114	115.762011
55761	6.965310	1.261048	6.693347	0.009378	-0.008928	-0.000901	10.471942	-45.401226	115.761659
55762	6.970978	1.241309	6.705152	0.009186	-0.003993	0.000206	10.471235	-45.399578	115.762922
55763	6.952334	1.230743	6.694223	0.010506	-0.007257	0.000213	10.471582	-45.399882	115.763726
55764	6.952206	1.270435	6.709940	0.008615	-0.006901	-0.001620	10.471898	-45.399682	115.763093
55765	6.963121	1.230406	6.734108	0.010302	-0.006465	-0.001216	10.472900	-45.399365	115.762878
55766	6.939273	1.240348	6.710746	0.010301	-0.006465	-0.001216	10.473905	-45.398961	115.762634
55767	6.954089	1.233626	6.691870	0.006927	-0.007336	-0.002025	10.473475	-45.399069	115.761675
55768	6.968345	1.265782	6.689294	0.010150	-0.006812	0.002351	10.472392	-45.399232	115.764242
55769	6.955005	1.234960	6.690672	0.012341	-0.006474	-0.002953	10.475546	-45.398745	115.762612
55770	6.970735	1.213667	6.743380	0.008449	-0.011391	-0.000588	10.475652	-45.401182	115.762141
55771	6.960766	1.254979	6.717960	0.007496	-0.004428	-0.000201	10.474290	-45.399816	115.762977
55772	6.975489	1.248206	6.699177	0.010298	-0.006465	-0.001218	10.475295	-45.399412	115.762731
55773	6.952440	1.243411	6.747566	0.008611	-0.006900	-0.001622	10.475607	-45.399293	115.762120
55774	6.943004	1.245870	6.705862	0.009169	-0.008137	-0.002333	10.476778	-45.399715	115.760733
55775	6.948639	1.226233	6.717723	0.010869	-0.003556	0.000604	10.476702	-45.397958	115.762486
55776	6.962821	1.258390	6.715192	0.005440	-0.008563	-0.001000	10.475020	-45.398758	115.762104
55777	6.982913	1.231157	6.708694	0.011630	-0.005583	0.001322	10.475233	-45.398236	115.764007
55778	6.944705	1.248241	6.703660	0.004882	-0.007327	-0.000290	10.472695	-45.398414	115.764378
55779	6.950522	1.228395	6.715380	0.011261	-0.009282	0.000927	10.473330	-45.399886	115.765488
55780	6.970129	1.240188	6.725058	0.008459	-0.007245	0.001944	10.471556	-45.400251	115.767665
55781	6.951607	1.229477	6.714059	0.008812	-0.007691	-0.000195	10.471270	-45.400714	115.768076
55782	6.990157	1.252589	6.734183	0.008607	-0.006901	-0.001625	10.471584	-45.400513	115.767440
55783	6.957211	1.249400	6.741539	0.008254	-0.006455	0.000515	10.470418	-45.400384	115.768582
55784	6.947863	1.251736	6.699734	0.013706	-0.010872	0.002047	10.471975	-45.402803	115.770303
55785	6.958364	1.250702	6.740107	0.004471	-0.005746	-0.003149	10.470624	-45.401880	115.768700
55786	6.973096	1.243909	6.721293	0.010292	-0.006465	-0.001224	10.471628	-45.401474	115.768450
55787	6.940165	1.240850	6.728626	0.010496	-0.007255	0.000205	10.471983	-45.401785	115.769217
55788	6.969334	1.226521	6.691434	0.006566	-0.006890	0.000111	10.470134	-45.401759	115.769976
55789	6.950223	1.254797	6.696713	0.007122	-0.008127	-0.000599	10.469115	-45.402441	115.770043
55790	6.960630	1.253822	6.737187	0.010086	-0.005675	-0.002654	10.470736	-45.401442	115.768763
55791	6.956301	1.235908	6.708013	0.011624	-0.005581	0.001316	10.470970	-45.400885	115.770686
55792	6.961554	1.255251	6.735967	0.006548	-0.011036	-0.002421	10.470996	-45.402931	115.768798
55793	6.971671	1.229837	6.688390	0.011214	-0.004002	-0.001544	10.472467	-45.401185	115.768668
55794	6.948693	1.225044	6.736845	0.007325	-0.008916	0.000830	10.470857	-45.402375	115.769703
55795	6.972513	1.230998	6.687298	0.007284	-0.003638	-0.001637	10.470026	-45.400444	115.769582
55796	6.968514	1.237459	6.746168	0.010492	-0.007254	0.000202	10.470414	-45.400632	115.770360
55797	6.973343	1.232202	6.686211	0.006563	-0.006890	0.000110	10.468541	-45.400692	115.771163
55798	6.954175	1.260608	6.691518	0.010287	-0.006464	-0.001228	10.469544	-45.400287	115.770910
55799	6.950872	1.228118	6.734036	0.007470	-0.008574	-0.002740	10.470046	-45.401009	115.769074
55800	6.979479	1.252982	6.712978	0.012177	-0.006817	0.000602	10.471125	-45.400992	115.770237
55801	6.960802	1.242591	6.702107	0.009876	-0.004886	-0.004088	10.473314	-45.399503	115.767967
55802	6.985622	1.234369	6.724190	0.011806	-0.010516	0.000210	10.474795	-45.401529	115.768266
55803	6.976087	1.236673	6.682523	0.007282	-0.003638	-0.001639	10.473984	-45.399570	115.768176
55804	6.947800	1.252215	6.718633	0.008803	-0.007689	-0.000200	10.473680	-45.399962	115.768566
55805	6.973157	1.204765	6.724591	0.010284	-0.006464	-0.001230	10.474707	-45.399632	115.768309
55806	6.948745	1.253554	6.717406	0.007116	-0.008126	-0.000601	10.473712	-45.400227	115.768313
55807	6.963474	1.246727	6.698562	0.009522	-0.004438	-0.001950	10.474438	-45.398712	115.767809
55808	6.969213	1.227128	6.710395	0.011248	-0.009278	0.000918	10.475063	-45.400115	115.768861
55809	6.969749	1.227732	6.709727	0.008245	-0.006452	0.000508	10.473912	-45.399987	115.769958
55810	6.970263	1.228336	6.709083	0.009356	-0.008926	-0.000912	10.474462	-45.401001	115.769593
55811	6.975493	1.247859	6.737033	0.007054	-0.006997	-0.005600	10.476208	-45.400519	115.765722
55812	6.984893	1.261482	6.705751	0.009725	-0.005226	-0.000523	10.476356	-45.399490	115.766219
55813	6.976262	1.249330	6.735965	0.008594	-0.006900	-0.001632	10.476645	-45.399395	115.765579
55814	6.957758	1.238713	6.724978	0.009560	-0.009714	0.000517	10.476579	-45.401001	115.766244
55815	6.958308	1.239276	6.724305	0.008244	-0.006451	0.000507	10.475408	-45.400871	115.767384
55816	6.972942	1.232478	6.705538	0.009313	-0.003650	-0.003383	10.476788	-45.398655	115.765819
55817	6.953731	1.261063	6.710838	0.009353	-0.008925	-0.000913	10.477310	-45.399777	115.765461
55818	6.954852	1.222628	6.693986	0.010689	-0.008039	0.001625	10.477081	-45.400556	115.767264
55819	6.983362	1.247329	6.672937	0.006146	-0.005312	-0.002752	10.476443	-45.399422	115.766015
55820	6.960511	1.242603	6.721412	0.007666	-0.009362	-0.001313	10.476299	-45.400640	115.765264
55821	6.989056	1.267346	6.700306	0.009722	-0.005226	-0.000526	10.476436	-45.399702	115.765777
55822	6.966649	1.223670	6.732749	0.008385	-0.006112	-0.003064	10.477362	-45.398907	115.764103
55823	6.947416	1.252259	6.738068	0.008385	-0.006112	-0.003064	10.478254	-45.398235	115.762416
55824	6.981771	1.217640	6.713325	0.008796	-0.007687	-0.000205	10.477948	-45.398625	115.762802
55825	6.948399	1.253558	6.736812	0.010686	-0.008038	0.001623	10.477702	-45.399490	115.764637
55826	6.958562	1.228093	6.689128	0.013829	-0.010525	-0.001539	10.481342	-45.401340	115.763532
55827	6.963867	1.247741	6.716981	0.006697	-0.006550	-0.003464	10.481540	-45.400868	115.761471
55828	6.969680	1.228083	6.728807	0.007663	-0.009362	-0.001314	10.481395	-45.402086	115.760719
55829	6.964813	1.248995	6.715767	0.009165	-0.003987	0.000181	10.480699	-45.400530	115.761935
55830	6.961495	1.216540	6.758533	0.008587	-0.006900	-0.001637	10.481009	-45.400328	115.761290
55831	6.965697	1.250290	6.714610	0.007661	-0.009362	-0.001314	10.480835	-45.401643	115.760569
55832	6.960947	1.271198	6.701438	0.008792	-0.007687	-0.000207	10.480529	-45.402033	115.760953
55833	6.952982	1.219866	6.715541	0.008238	-0.006449	0.000502	10.479362	-45.401894	115.762094
55834	6.952936	1.259662	6.730991	0.012716	-0.008049	-0.000123	10.481294	-45.402496	115.762493
55835	6.973019	1.232495	6.724540	0.004661	-0.006537	-0.001722	10.479321	-45.402182	115.761876
55836	6.959198	1.240532	6.742275	0.008791	-0.007686	-0.000208	10.479014	-45.402571	115.762260
55837	6.949527	1.242667	6.700676	0.009716	-0.005224	-0.000532	10.479147	-45.401650	115.762733
55838	6.974344	1.234310	6.722832	0.008790	-0.007686	-0.000209	10.478840	-45.402039	115.763117
55839	6.974846	1.234958	6.722192	0.010475	-0.007249	0.000188	10.479196	-45.402342	115.763870
55840	6.956215	1.224268	6.711391	0.006344	-0.006100	-0.001326	10.477958	-45.401721	115.763592
55841	6.961498	1.243694	6.739318	0.009342	-0.008924	-0.000919	10.478522	-45.402807	115.763232
55842	6.927429	1.254848	6.674982	0.007823	-0.004876	-0.002360	10.478593	-45.401389	115.762307
55843	6.995690	1.248850	6.730104	0.010474	-0.007248	0.000186	10.478986	-45.401656	115.763078
55844	6.952681	1.247145	6.696570	0.008235	-0.006448	0.000500	10.477825	-45.401421	115.764214
55845	6.957920	1.266580	6.724539	0.008581	-0.006900	-0.001640	10.478121	-45.401320	115.763561
55846	6.958914	1.228235	6.707867	0.010819	-0.007700	-0.001954	10.479976	-45.401535	115.762542
55847	6.959322	1.229139	6.707279	0.011744	-0.005238	-0.002279	10.482315	-45.400432	115.761563
55848	6.959800	1.229957	6.706632	0.011231	-0.009271	0.000905	10.482937	-45.401830	115.762605
55849	6.960280	1.230690	6.706000	0.006481	-0.005766	-0.004897	10.483812	-45.400715	115.759523
55850	6.960821	1.231381	6.705312	0.008413	-0.011385	-0.000596	10.483901	-45.403147	115.759047
55851	6.960848	1.271157	6.720644	0.009711	-0.005223	-0.000537	10.484001	-45.402234	115.759544
55852	6.961801	1.232760	6.704041	0.009131	-0.008137	-0.002352	10.485161	-45.402654	115.758140
55853	6.981348	1.244846	6.713614	0.010263	-0.006461	-0.001247	10.486133	-45.402326	115.757932
55854	6.968072	1.214034	6.715292	0.009130	-0.008137	-0.002352	10.487293	-45.402746	115.756528
55855	6.949023	1.242590	6.720398	0.009336	-0.008923	-0.000922	10.487918	-45.403840	115.756058
55856	6.963811	1.235775	6.701397	0.012153	-0.006808	0.000577	10.488996	-45.403817	115.757203
55857	6.969631	1.216235	6.713275	0.005552	-0.008229	-0.004573	10.489365	-45.404139	115.754046
55858	6.950487	1.244791	6.718476	0.010261	-0.006461	-0.001249	10.490365	-45.403729	115.753776
55859	6.970629	1.217745	6.711965	0.009887	-0.010161	-0.001633	10.491762	-45.405437	115.752685
55860	6.965800	1.238705	6.698789	0.008023	-0.005661	-0.000935	10.491216	-45.404610	115.752787
55861	6.957282	1.226681	6.729093	0.010259	-0.006461	-0.001250	10.492149	-45.404319	115.752553
55862	6.957245	1.266476	6.744462	0.007096	-0.008122	-0.000609	10.491146	-45.404913	115.752551
55863	6.958265	1.227892	6.727856	0.006889	-0.007338	-0.002039	10.490792	-45.405027	115.751432
55864	6.977758	1.239865	6.737491	0.009706	-0.005222	-0.000542	10.490940	-45.403993	115.751914
55865	6.939438	1.257056	6.732612	0.011597	-0.005568	0.001282	10.491169	-45.403429	115.753814
55866	6.978627	1.241120	6.736360	0.007302	-0.008907	0.000821	10.489550	-45.404614	115.754842
55867	6.973767	1.261987	6.723213	0.008365	-0.006114	-0.003077	10.490342	-45.403941	115.753277
55868	6.960389	1.231132	6.725066	0.009705	-0.005222	-0.000543	10.490489	-45.402907	115.753759
55869	6.964346	1.264773	6.681126	0.010463	-0.007245	0.000178	10.490858	-45.403167	115.754567
55870	6.947087	1.240128	6.742153	0.011014	-0.008483	-0.000532	10.492094	-45.403971	115.754572
55871	6.961919	1.233163	6.723110	0.007300	-0.008906	0.000821	10.490485	-45.405225	115.755626
55872	6.956968	1.254066	6.710037	0.009288	-0.003653	-0.003406	10.491863	-45.403009	115.754044
55873	6.953737	1.221908	6.752982	0.011594	-0.005567	0.001279	10.492101	-45.402440	115.755943
55874	6.972078	1.247911	6.690544	0.008402	-0.011383	-0.000598	10.492186	-45.404871	115.755465
55875	6.963747	1.235883	6.720717	0.009702	-0.005222	-0.000546	10.492343	-45.403925	115.755939
55876	6.983235	1.247911	6.730327	0.008568	-0.006899	-0.001648	10.492648	-45.403721	115.755284
55877	6.964584	1.237264	6.719596	0.008568	-0.006899	-0.001648	10.492936	-45.403607	115.754658
55878	6.959736	1.258203	6.706392	0.009326	-0.008921	-0.000928	10.493478	-45.404617	115.754281
55879	6.960726	1.219721	6.689834	0.011592	-0.005566	0.001276	10.493701	-45.404070	115.756150
55880	6.951761	1.246879	6.736088	0.004990	-0.006993	-0.003865	10.493232	-45.403687	115.753703
55881	6.942021	1.248799	6.694460	0.010666	-0.008027	0.001604	10.492988	-45.404545	115.755519
55882	6.966998	1.240502	6.716496	0.006881	-0.007338	-0.002042	10.492598	-45.404546	115.754483
55883	6.948307	1.229890	6.705808	0.010042	-0.005676	-0.002689	10.494206	-45.403628	115.753199
55884	6.996257	1.226828	6.678724	0.008565	-0.006899	-0.001650	10.494510	-45.403423	115.752543
55885	6.949130	1.231311	6.704695	0.009906	-0.006004	0.000882	10.494017	-45.403090	115.754047
55886	6.959753	1.230661	6.745190	0.009698	-0.005221	-0.000549	10.494163	-45.402054	115.754524
55887	6.968879	1.243994	6.713897	0.008939	-0.003199	-0.001271	10.494002	-45.399905	115.754807
55888	6.969295	1.244683	6.713337	0.011214	-0.009265	0.000893	10.494622	-45.401298	115.755840
55889	6.936496	1.241665	6.720871	0.010247	-0.006460	-0.001260	10.495536	-45.401005	115.755621
55890	6.951207	1.234754	6.701908	0.010662	-0.008026	0.001602	10.495303	-45.401775	115.757407
55891	6.970773	1.246710	6.711427	0.008012	-0.005660	-0.000942	10.494762	-45.401030	115.757507
55892	6.937855	1.243607	6.719109	0.008561	-0.006899	-0.001652	10.495065	-45.400825	115.756850
55893	6.957353	1.255652	6.728681	0.009695	-0.005221	-0.000552	10.495190	-45.399866	115.757381
55894	6.971986	1.248735	6.709790	0.010453	-0.007242	0.000170	10.495572	-45.400045	115.758134
55895	6.958151	1.257077	6.727589	0.009486	-0.004438	-0.001983	10.496324	-45.398524	115.757562
55896	6.944819	1.226183	6.729524	0.008768	-0.007682	-0.000221	10.496011	-45.398910	115.757936
55897	6.973384	1.250889	6.707936	0.010417	-0.011399	-0.002350	10.498254	-45.401255	115.756053
55898	6.979269	1.231398	6.719851	0.009143	-0.003981	0.000156	10.497549	-45.399595	115.757280
55899	6.965379	1.239705	6.737723	0.008350	-0.006117	-0.003084	10.498400	-45.398913	115.755633
55900	6.955542	1.241722	6.696120	0.009108	-0.008138	-0.002363	10.499554	-45.399332	115.754221
55901	6.955961	1.242582	6.695526	0.011717	-0.005237	-0.002304	10.501845	-45.398211	115.753315
55902	6.966631	1.242167	6.735975	0.008557	-0.006899	-0.001654	10.502147	-45.398006	115.752656
55903	6.967147	1.242859	6.735313	0.009315	-0.008920	-0.000932	10.502638	-45.399123	115.752304
55904	6.957320	1.244774	6.693706	0.009691	-0.005220	-0.000555	10.502784	-45.398086	115.752776
55905	6.968067	1.244200	6.734114	0.010657	-0.008023	0.001598	10.502553	-45.398931	115.754587
55906	6.963707	1.225937	6.705001	0.012681	-0.008040	-0.000153	10.504482	-45.399526	115.754962
55907	6.969085	1.245713	6.732780	0.006663	-0.006557	-0.003476	10.504698	-45.399040	115.752872
55908	6.950369	1.234945	6.722189	0.006322	-0.006099	-0.001336	10.503452	-45.398417	115.752587
55909	6.969935	1.246880	6.731684	0.008763	-0.007680	-0.000224	10.503130	-45.398895	115.752974
55910	6.941023	1.237311	6.679982	0.008763	-0.007680	-0.000225	10.502816	-45.399279	115.753345
55911	6.951851	1.236801	6.720314	0.009103	-0.008138	-0.002365	10.503949	-45.399789	115.751950
55912	6.971961	1.209649	6.713911	0.008762	-0.007680	-0.000225	10.503634	-45.400174	115.752321
55913	7.000347	1.234155	6.692442	0.008213	-0.006440	0.000484	10.502389	-45.400024	115.753550
55914	6.947895	1.258818	6.705889	0.006869	-0.007339	-0.002046	10.501994	-45.400026	115.752511
55915	6.967895	1.231706	6.699591	0.010027	-0.005677	-0.002700	10.503618	-45.399111	115.751188
55916	6.954169	1.240036	6.717319	0.008970	-0.008461	0.001205	10.502688	-45.400085	115.752591
55917	6.968434	1.272266	6.714077	0.009100	-0.008138	-0.002367	10.503767	-45.400607	115.751247
55918	6.950340	1.222388	6.687538	0.009308	-0.008919	-0.000936	10.504303	-45.401615	115.750863
55919	6.989041	1.245758	6.707035	0.009346	-0.004760	0.001580	10.502952	-45.400639	115.753141
55920	6.931718	1.251350	6.692060	0.007833	-0.010140	0.000107	10.502176	-45.402444	115.753413
55921	6.970979	1.235536	6.695676	0.010233	-0.006458	-0.001271	10.503131	-45.402135	115.753157
55922	6.957309	1.243789	6.713373	0.007284	-0.008901	0.000816	10.501504	-45.403316	115.754182
55923	6.963219	1.224070	6.725375	0.006317	-0.006099	-0.001338	10.500241	-45.402778	115.753930
55924	6.939091	1.233521	6.702195	0.010231	-0.006458	-0.001272	10.501237	-45.402364	115.753644
55925	6.964092	1.225408	6.724228	0.008757	-0.007679	-0.000229	10.500974	-45.402832	115.753956
55926	6.984195	1.198165	6.717857	0.008757	-0.007679	-0.000229	10.500658	-45.403216	115.754325
55927	6.959582	1.246806	6.710456	0.009134	-0.003978	0.000145	10.499922	-45.401660	115.755555
55928	6.984539	1.238528	6.732567	0.005390	-0.008560	-0.001004	10.498213	-45.402458	115.755171
55929	6.965963	1.227783	6.721856	0.012670	-0.008038	-0.000164	10.500131	-45.403113	115.755606
55930	6.980708	1.220767	6.702800	0.007281	-0.008900	0.000815	10.498503	-45.404293	115.756630
55931	6.961607	1.249134	6.707923	0.007997	-0.005659	-0.000952	10.497929	-45.403552	115.756749
55932	6.947818	1.257360	6.725768	0.006314	-0.006099	-0.001340	10.496681	-45.402929	115.756461
55933	6.967812	1.230156	6.719505	0.010228	-0.006458	-0.001275	10.497623	-45.402617	115.756217
55934	6.967784	1.270139	6.734654	0.008544	-0.006899	-0.001662	10.497922	-45.402411	115.755551
55935	6.954579	1.239120	6.736645	0.005387	-0.008560	-0.001004	10.479105	-45.410136	115.757135
55936	6.954562	1.278891	6.751819	0.011024	-0.004317	0.001960	10.478468	-45.408859	115.759764
55937	6.959089	1.233847	6.676326	0.009807	-0.004898	-0.004139	10.480675	-45.407377	115.757384
55938	6.969863	1.233390	6.716785	0.004839	-0.007320	-0.000295	10.478100	-45.407557	115.757758
55939	6.970386	1.233865	6.716155	0.010645	-0.008017	0.001586	10.477875	-45.408391	115.759609
55940	6.956714	1.242233	6.733868	0.010225	-0.006458	-0.001277	10.478857	-45.407983	115.759322
55941	6.971304	1.235288	6.714940	0.008541	-0.006899	-0.001664	10.479142	-45.407857	115.758713
55942	6.962563	1.262660	6.761056	0.008204	-0.006438	0.000477	10.477961	-45.407620	115.759836
55943	6.947583	1.245216	6.691226	0.007994	-0.005658	-0.000955	10.477404	-45.406899	115.759914
55944	6.967217	1.257269	6.700574	0.011190	-0.009257	0.000876	10.478004	-45.408292	115.760940
55945	6.973282	1.237702	6.712441	0.005931	-0.009800	-0.001714	10.477112	-45.409793	115.759702
55946	6.973869	1.238392	6.711704	0.012662	-0.008036	-0.000171	10.479025	-45.410389	115.760069
55947	6.960256	1.246770	6.729368	0.007066	-0.008119	-0.000619	10.477982	-45.411079	115.760020
55948	6.950274	1.248524	6.687813	0.010011	-0.005679	-0.002712	10.479579	-45.410082	115.758698
55949	6.989464	1.232854	6.691453	0.009295	-0.008918	-0.000943	10.480130	-45.411184	115.758254
55950	6.961706	1.248929	6.727467	0.010430	-0.007237	0.000151	10.480495	-45.411363	115.758998
55951	6.970963	1.262044	6.695779	0.007611	-0.009359	-0.001329	10.480334	-45.412663	115.758243
55952	6.943594	1.238807	6.716196	0.009673	-0.005217	-0.000573	10.480466	-45.411630	115.758706
55953	6.958212	1.231670	6.697250	0.007274	-0.008897	0.000812	10.478830	-45.412895	115.759727
55954	6.958654	1.232357	6.696665	0.009798	-0.004900	-0.004146	10.481043	-45.411310	115.757370
55955	6.964062	1.252209	6.724418	0.007063	-0.008118	-0.000620	10.480024	-45.411986	115.757373
55956	6.959596	1.233604	6.695456	0.007063	-0.008118	-0.000621	10.478995	-45.412582	115.757367
55957	6.950951	1.260948	6.741514	0.008199	-0.006436	0.000473	10.477804	-45.412435	115.758468
55958	6.946494	1.242469	6.712520	0.009837	-0.010158	-0.001654	10.479170	-45.414073	115.757329
55959	6.961263	1.235367	6.693397	0.007272	-0.008897	0.000811	10.477469	-45.415352	115.758430
55960	6.991406	1.246374	6.743636	0.012109	-0.006794	0.000531	10.478532	-45.415322	115.759544
55961	6.956799	1.256935	6.679448	0.008868	-0.007361	-0.003810	10.480283	-45.415258	115.757070
55962	6.948634	1.245269	6.709785	0.009289	-0.008917	-0.000947	10.480799	-45.416270	115.756684
55963	6.954180	1.265055	6.737413	0.006850	-0.007340	-0.002054	10.480353	-45.416371	115.755649
55964	6.955070	1.226413	6.721193	0.008532	-0.006898	-0.001670	10.480636	-45.416170	115.754982
55965	6.988827	1.230862	6.712139	0.009077	-0.008139	-0.002379	10.481782	-45.416677	115.753526
55966	6.955648	1.267171	6.735501	0.007394	-0.008581	-0.002763	10.482215	-45.417310	115.751731
55967	6.956608	1.228524	6.719215	0.008741	-0.007676	-0.000239	10.481844	-45.417808	115.752096
55968	6.971244	1.221409	6.700216	0.008741	-0.007676	-0.000240	10.481511	-45.418194	115.752462
55969	6.966178	1.242324	6.686994	0.009790	-0.004901	-0.004153	10.483734	-45.416672	115.750144
55970	6.957935	1.230679	6.717448	0.010633	-0.008012	0.001575	10.483483	-45.417437	115.751916
55971	6.958028	1.270454	6.732423	0.004830	-0.007318	-0.000297	10.480967	-45.417703	115.752247
55972	6.978039	1.243066	6.726206	0.007983	-0.005657	-0.000964	10.480401	-45.416876	115.752331
55973	6.948848	1.233289	6.674730	0.010966	-0.008475	-0.000567	10.481688	-45.417753	115.752271
55974	6.973614	1.264626	6.712184	0.009284	-0.008917	-0.000950	10.482203	-45.418764	115.751882
55975	6.960437	1.233654	6.714308	0.008193	-0.006435	0.000468	10.481057	-45.418600	115.752959
55976	6.955374	1.254433	6.701089	0.008316	-0.006121	-0.003106	10.481954	-45.417812	115.751255
55977	6.936706	1.243591	6.690564	0.007267	-0.008894	0.000808	10.480335	-45.419066	115.752272
55978	6.975592	1.267125	6.709657	0.012646	-0.008033	-0.000186	10.482247	-45.419659	115.752627
55979	6.967769	1.216109	6.724589	0.005543	-0.004081	-0.002071	10.480747	-45.417907	115.752037
55980	6.957254	1.256927	6.698670	0.007599	-0.009358	-0.001333	10.480562	-45.419127	115.751274
55981	6.971837	1.249834	6.679692	0.009662	-0.005215	-0.000584	10.480795	-45.418139	115.751761
55982	6.963597	1.238133	6.710207	0.008524	-0.006898	-0.001675	10.481077	-45.417938	115.751090
55983	6.964136	1.238908	6.709504	0.011506	-0.009715	-0.001279	10.483086	-45.419457	115.750361
55984	6.970102	1.219559	6.721545	0.009661	-0.005215	-0.000585	10.483218	-45.418421	115.750814
55985	6.950917	1.248201	6.726664	0.008856	-0.007363	-0.003817	10.484943	-45.418350	115.748343
55986	6.942799	1.236559	6.757066	0.010628	-0.008009	0.001570	10.484692	-45.419113	115.750111
55987	6.980204	1.234044	6.688562	0.007596	-0.009358	-0.001334	10.484495	-45.420438	115.749309
55988	6.952534	1.250186	6.724625	0.008522	-0.006898	-0.001677	10.484776	-45.420236	115.748636
55989	6.958482	1.230758	6.736714	0.010415	-0.007232	0.000137	10.485083	-45.420520	115.749361
55990	6.948358	1.232314	6.695214	0.007977	-0.005657	-0.000968	10.484515	-45.419692	115.749441
55991	6.962906	1.225204	6.676259	0.007383	-0.008582	-0.002767	10.484938	-45.420394	115.747664
55992	6.954410	1.252816	6.722194	0.008732	-0.007674	-0.000245	10.484603	-45.420778	115.748025
55993	6.974539	1.225594	6.715842	0.009275	-0.008916	-0.000954	10.485147	-45.421851	115.747657
55994	6.944906	1.254959	6.679926	0.008187	-0.006433	0.000463	10.483964	-45.421611	115.748770
55995	6.975517	1.226887	6.714591	0.010744	-0.007697	-0.002007	10.485789	-45.421912	115.747668
55996	6.956393	1.255575	6.719628	0.010200	-0.006456	-0.001298	10.486768	-45.421500	115.747365
55997	6.962302	1.236243	6.731761	0.010200	-0.006455	-0.001299	10.487739	-45.421178	115.747020
55998	6.943155	1.264848	6.736836	0.008518	-0.006898	-0.001679	10.488019	-45.420976	115.746346
55999	6.996346	1.241413	6.722158	0.009444	-0.004438	-0.002023	10.488718	-45.419473	115.745740
56000	6.924796	1.254846	6.725875	0.011166	-0.009248	0.000857	10.489314	-45.420860	115.746751
56001	6.944910	1.227580	6.719558	0.008185	-0.006432	0.000461	10.488186	-45.420685	115.747850
56002	6.978521	1.232012	6.710530	0.009773	-0.004904	-0.004165	10.490395	-45.419100	115.745476
56003	6.954279	1.241372	6.687388	0.008940	-0.008449	0.001185	10.489444	-45.420168	115.746874
56004	6.968855	1.234242	6.668382	0.010197	-0.006455	-0.001301	10.490423	-45.419756	115.746569
56005	6.976456	1.241007	6.767975	0.010621	-0.008006	0.001564	10.490235	-45.420591	115.748313
56006	6.947198	1.230984	6.716570	0.006833	-0.007341	-0.002060	10.489814	-45.420598	115.747266
56007	6.961348	1.263202	6.713064	0.010408	-0.007230	0.000131	10.490173	-45.420852	115.747981
56008	6.962273	1.224410	6.696942	0.005363	-0.008558	-0.001007	10.488437	-45.421655	115.747599
56009	6.967926	1.244314	6.724451	0.012631	-0.008029	-0.000200	10.490406	-45.422334	115.747871
56010	6.977063	1.257270	6.692637	0.007256	-0.008891	0.000804	10.488754	-45.423513	115.748893
56011	6.949736	1.233999	6.713390	0.007215	-0.003639	-0.001698	10.487918	-45.421570	115.748693
56012	6.950069	1.234645	6.712926	0.008512	-0.006898	-0.001683	10.488196	-45.421368	115.748015
56013	6.983792	1.238985	6.703759	0.008724	-0.007673	-0.000250	10.487940	-45.421803	115.748360
56014	6.965114	1.228233	6.693287	0.010735	-0.007697	-0.002013	10.489765	-45.422016	115.747299
56015	6.970695	1.248281	6.720845	0.008511	-0.006898	-0.001683	10.490068	-45.421883	115.746669
56016	6.957564	1.217400	6.723088	0.011159	-0.009246	0.000852	10.490663	-45.423268	115.747677
56017	6.952536	1.237916	6.709769	0.003733	-0.004832	0.001118	10.486361	-45.422274	115.749560
56018	6.938853	1.246185	6.727664	0.010191	-0.006455	-0.001306	10.487340	-45.421862	115.749251
56019	6.953343	1.239121	6.708710	0.008509	-0.006898	-0.001684	10.487665	-45.421731	115.748550
56020	6.958980	1.259011	6.736243	0.008934	-0.008447	0.001181	10.486712	-45.422700	115.749941
56021	6.959833	1.220247	6.720223	0.009647	-0.005213	-0.000598	10.486928	-45.421718	115.750331
56022	6.940615	1.248774	6.725366	0.007966	-0.005656	-0.000976	10.486359	-45.420889	115.750405
56023	6.969127	1.233901	6.688064	0.013763	-0.006343	0.000881	10.488139	-45.420730	115.751804
56024	6.930926	1.250976	6.683192	0.007793	-0.010132	0.000094	10.487332	-45.422535	115.752072
56025	6.966871	1.242048	6.745961	0.004815	-0.007316	-0.000299	10.484826	-45.422795	115.752324
56026	6.970717	1.235574	6.686099	0.010187	-0.006455	-0.001309	10.485804	-45.422382	115.752012
56027	6.957130	1.244070	6.703866	0.008718	-0.007672	-0.000253	10.485428	-45.422857	115.752400
56028	6.982304	1.236097	6.725811	0.009857	-0.005986	0.000832	10.484943	-45.422403	115.753876
56029	6.943959	1.253174	6.721094	0.010186	-0.006455	-0.001310	10.485927	-45.422093	115.753507
56030	6.963995	1.225980	6.714866	0.008717	-0.007672	-0.000254	10.485589	-45.422476	115.753861
56031	6.964140	1.265923	6.729613	0.007036	-0.008115	-0.000631	10.484595	-45.423138	115.753808
56032	6.984285	1.238772	6.723262	0.013161	-0.009270	-0.000918	10.487352	-45.424352	115.753392
56033	6.946038	1.256017	6.718415	0.010184	-0.006455	-0.001311	10.488400	-45.424014	115.753012
56034	6.966120	1.228735	6.712158	0.007248	-0.008888	0.000802	10.486745	-45.425192	115.754033
56035	6.947366	1.217834	6.701827	0.009429	-0.004439	-0.002036	10.487563	-45.423645	115.753345
56036	6.952879	1.237894	6.729464	0.008502	-0.006898	-0.001688	10.487840	-45.423442	115.752663
56037	6.953345	1.238584	6.728856	0.010395	-0.007228	0.000121	10.488259	-45.423708	115.753302
56038	6.943079	1.239956	6.687389	0.007960	-0.005656	-0.000980	10.487688	-45.422879	115.753373
56039	6.968163	1.232050	6.709429	0.009640	-0.005212	-0.000605	10.487772	-45.421973	115.753779
56040	6.954343	1.279964	6.742433	0.008868	-0.012616	-0.001324	10.488655	-45.425029	115.752540
56041	6.955377	1.241085	6.726295	0.004811	-0.007316	-0.000300	10.486098	-45.425289	115.752875
56042	6.950722	1.222345	6.697525	0.012614	-0.008027	-0.000214	10.488007	-45.425876	115.753208
56043	6.964798	1.254769	6.693903	0.008072	-0.005353	-0.004556	10.489584	-45.424588	115.750350
56044	6.951512	1.223975	6.696407	0.008498	-0.006898	-0.001690	10.489860	-45.424385	115.749666
56045	6.976372	1.255442	6.733652	0.007031	-0.008114	-0.000633	10.488826	-45.425076	115.749603
56046	6.976885	1.256047	6.733008	0.010392	-0.007227	0.000117	10.489187	-45.425247	115.750321
56047	6.958260	1.245264	6.722539	0.009792	-0.010156	-0.001675	10.490478	-45.426957	115.749223
56048	6.972735	1.237982	6.703584	0.005195	-0.003613	0.000058	10.487514	-45.425085	115.750431
56049	6.964675	1.226294	6.734224	0.009250	-0.008913	-0.000967	10.487989	-45.426171	115.750074
56050	6.959700	1.246988	6.720729	0.010604	-0.007999	0.001549	10.487735	-45.426926	115.751826
56051	6.979658	1.219701	6.714615	0.007202	-0.003640	-0.001709	10.487035	-45.424907	115.751592
56052	6.954836	1.268238	6.707007	0.007955	-0.005655	-0.000984	10.486464	-45.424077	115.751660
56053	6.966377	1.228756	6.732016	0.008709	-0.007670	-0.000259	10.486198	-45.424508	115.751962
56054	6.961353	1.249443	6.718561	0.007354	-0.008585	-0.002776	10.486617	-45.425143	115.750156
56055	6.942603	1.238564	6.708252	0.007954	-0.005655	-0.000985	10.486023	-45.424414	115.750210
56056	6.976186	1.242753	6.699110	0.007628	-0.005184	0.001156	10.483991	-45.423542	115.752066
56057	6.929430	1.247495	6.725571	0.009247	-0.008913	-0.000969	10.484521	-45.424642	115.751616
56058	6.963090	1.251854	6.716312	0.007739	-0.004883	-0.002419	10.484565	-45.423228	115.750647
56059	6.968989	1.232509	6.728625	0.011528	-0.005539	0.001195	10.484789	-45.422642	115.752482
56060	6.969392	1.233243	6.728073	0.010172	-0.006454	-0.001320	10.485765	-45.422228	115.752162
56061	6.953467	1.254607	6.673850	0.007952	-0.005655	-0.000986	10.485318	-45.421437	115.752204
56062	6.965026	1.215229	6.698866	0.009031	-0.008141	-0.002403	10.486438	-45.421860	115.750763
56063	6.970376	1.274867	6.741563	0.010711	-0.007697	-0.002029	10.488331	-45.422135	115.749659
56064	6.946389	1.244583	6.703217	0.007626	-0.005183	0.001155	10.486299	-45.421262	115.751513
56065	6.985343	1.268254	6.721941	0.011677	-0.010483	0.000129	10.487782	-45.423342	115.751697
56066	6.958567	1.205905	6.727489	0.006381	-0.005800	-0.004936	10.488584	-45.422182	115.748571
56067	6.967093	1.258267	6.710960	0.010923	-0.008468	-0.000597	10.489873	-45.423074	115.748384
56068	6.978738	1.218821	6.735936	0.006484	-0.006870	0.000072	10.487984	-45.423040	115.749119
56069	6.968359	1.219994	6.694532	0.009630	-0.005210	-0.000615	10.488125	-45.422100	115.749498
56070	6.935188	1.256452	6.717964	0.008488	-0.006898	-0.001697	10.488398	-45.421896	115.748809
56071	6.951999	1.236386	6.771089	0.006483	-0.006870	0.000072	10.486600	-45.421933	115.749437
56072	6.955623	1.229716	6.711275	0.008273	-0.006127	-0.003131	10.487488	-45.421146	115.747711
56073	6.956103	1.230446	6.710644	0.009240	-0.008912	-0.000972	10.488032	-45.422199	115.747344
56074	6.951045	1.251237	6.697149	0.008811	-0.007371	-0.003839	10.489765	-45.422038	115.744865
56075	6.976361	1.243582	6.718941	0.012814	-0.008794	0.001206	10.491171	-45.423271	115.746122
56076	6.971620	1.224842	6.690250	0.007947	-0.005654	-0.000990	10.490598	-45.422440	115.746185
56077	6.938578	1.261225	6.713568	0.009453	-0.009682	0.000461	10.490604	-45.424085	115.746740
56078	6.939386	1.222382	6.697748	0.009088	-0.003966	0.000089	10.489889	-45.422416	115.747920
56079	6.978091	1.246168	6.716665	0.009411	-0.004439	-0.002052	10.490582	-45.420883	115.747323
56080	6.967729	1.247470	6.675183	0.011132	-0.009238	0.000832	10.491172	-45.422261	115.748316
56081	6.954611	1.216638	6.677677	0.010163	-0.006453	-0.001327	10.492206	-45.421914	115.747951
56082	6.946377	1.244577	6.723474	0.007233	-0.008883	0.000796	10.490545	-45.423088	115.748968
56083	6.946792	1.245093	6.722949	0.007192	-0.003641	-0.001717	10.489806	-45.421118	115.748672
56084	6.966381	1.257251	6.732107	0.008697	-0.007668	-0.000266	10.489463	-45.421497	115.749017
56085	6.961556	1.238574	6.703490	0.011626	-0.005238	-0.002391	10.491788	-45.420377	115.747950
56086	6.947994	1.247247	6.721308	0.008697	-0.007668	-0.000266	10.491444	-45.420757	115.748294
56087	6.954008	1.227893	6.733583	0.009623	-0.005209	-0.000621	10.491542	-45.419832	115.748706
56088	6.968087	1.260141	6.729800	0.007339	-0.008587	-0.002780	10.491955	-45.420466	115.746896
56089	6.944163	1.229764	6.691442	0.010590	-0.007992	0.001538	10.491678	-45.421307	115.748656
56090	6.958307	1.261922	6.687596	0.006801	-0.007343	-0.002072	10.491246	-45.421315	115.747600
56091	6.955884	1.230436	6.731181	0.009084	-0.003965	0.000085	10.490615	-45.419717	115.748719
56092	6.964640	1.243171	6.699435	0.010374	-0.007223	0.000103	10.490975	-45.419884	115.749426
56093	6.945959	1.232166	6.689137	0.007230	-0.008882	0.000795	10.489334	-45.421145	115.750417
56094	6.957332	1.232121	6.729377	0.008156	-0.006424	0.000440	10.488145	-45.420897	115.751513
56095	6.966228	1.244760	6.697488	0.007551	-0.009357	-0.001347	10.487981	-45.422180	115.750728
56096	6.958394	1.233371	6.728049	0.012052	-0.006777	0.000472	10.489044	-45.422135	115.751797
56097	6.958869	1.233931	6.727455	0.004796	-0.007314	-0.000301	10.486400	-45.422412	115.752183
56098	6.959322	1.234491	6.726883	0.010156	-0.006453	-0.001333	10.487375	-45.421996	115.751852
56099	6.973748	1.227262	6.707879	0.008692	-0.007667	-0.000270	10.487071	-45.422445	115.752174
56100	6.954750	1.255770	6.712729	0.007549	-0.009356	-0.001348	10.486867	-45.423663	115.751400
56101	6.949709	1.276356	6.699180	0.008691	-0.007667	-0.000270	10.486598	-45.424094	115.751704
56102	6.975359	1.229065	6.705874	0.006796	-0.007343	-0.002074	10.486165	-45.424101	115.750646
56103	6.942236	1.265585	6.729279	0.011296	-0.004764	-0.000258	10.487049	-45.422915	115.751381
56104	6.948341	1.246251	6.741501	0.007763	-0.010125	0.000086	10.486229	-45.424715	115.751643
56105	6.929693	1.235107	6.731218	0.004794	-0.007313	-0.000302	10.483634	-45.424961	115.752029
56106	6.955073	1.227218	6.753027	0.009226	-0.008911	-0.000979	10.484133	-45.425966	115.751617
56107	6.944624	1.228382	6.711586	0.007721	-0.004885	-0.002432	10.484212	-45.424610	115.750631
56108	6.950243	1.248535	6.739116	0.007936	-0.005654	-0.000998	10.483639	-45.423778	115.750687
56109	6.945361	1.229671	6.710587	0.008472	-0.006898	-0.001706	10.483870	-45.423674	115.750006
56110	6.959426	1.261827	6.706744	0.008151	-0.006422	0.000435	10.482682	-45.423424	115.751099
56111	6.959852	1.262472	6.706181	0.010151	-0.006453	-0.001338	10.483680	-45.423065	115.750774
56112	6.932702	1.239541	6.727303	0.004897	-0.007021	-0.003878	10.483157	-45.422703	115.748315
56113	6.985847	1.215921	6.712415	0.011509	-0.005531	0.001172	10.483414	-45.422118	115.750075
56114	6.966700	1.244435	6.717408	0.008150	-0.006422	0.000435	10.482225	-45.421868	115.751168
56115	6.933997	1.241438	6.725619	0.009006	-0.008143	-0.002415	10.483375	-45.422365	115.749680
56116	6.973322	1.225756	6.729002	0.007007	-0.008112	-0.000642	10.482325	-45.422955	115.749657
56117	6.968193	1.246326	6.715508	0.008469	-0.006898	-0.001708	10.482606	-45.422827	115.748967
56118	6.949394	1.235427	6.705353	0.008469	-0.006898	-0.001708	10.482875	-45.422622	115.748268
56119	6.969027	1.247702	6.714387	0.009612	-0.005208	-0.000633	10.483039	-45.421641	115.748672
56120	6.964231	1.228767	6.685777	0.007758	-0.010124	0.000084	10.482218	-45.423441	115.748933
56121	6.950805	1.237059	6.703590	0.003719	-0.004823	0.001113	10.477940	-45.422452	115.750780
56122	6.951266	1.237488	6.703032	0.009219	-0.008910	-0.000983	10.478438	-45.423457	115.750365
56123	6.957017	1.257632	6.730429	0.007396	-0.004409	-0.000294	10.477038	-45.422077	115.751149
56124	6.985280	1.242286	6.693098	0.008683	-0.007666	-0.000276	10.476692	-45.422454	115.751487
56125	6.938687	1.247204	6.719712	0.008683	-0.007666	-0.000276	10.476384	-45.422901	115.751791
56126	6.977915	1.231529	6.723183	0.009609	-0.005208	-0.000635	10.476514	-45.421856	115.752205
56127	6.939506	1.248538	6.718619	0.008466	-0.006898	-0.001710	10.476808	-45.421735	115.751466
56128	6.964919	1.240868	6.740372	0.011112	-0.009232	0.000817	10.477394	-45.423109	115.752448
56129	6.948868	1.261823	6.685976	0.008146	-0.006421	0.000431	10.476161	-45.422950	115.753555
56130	6.960546	1.222689	6.711185	0.012140	-0.006484	-0.003120	10.479297	-45.422365	115.751785
56131	6.966231	1.242984	6.738626	0.005715	-0.004855	-0.000663	10.477183	-45.421197	115.752210
56132	6.966647	1.243501	6.738101	0.008680	-0.007665	-0.000277	10.476836	-45.421574	115.752546
56133	6.970029	1.236562	6.678294	0.009607	-0.005207	-0.000638	10.476994	-45.420606	115.752924
56134	6.948180	1.233195	6.727519	0.007928	-0.005653	-0.001004	10.476420	-45.419773	115.752975
56135	6.951215	1.265723	6.682799	0.009823	-0.005974	0.000796	10.480195	-45.417414	115.758114
56136	6.957311	1.246377	6.695109	0.008679	-0.007665	-0.000278	10.479851	-45.417788	115.758451
56137	6.949566	1.235008	6.725754	0.010573	-0.007986	0.001522	10.479616	-45.418618	115.760161
56138	6.963991	1.227635	6.706706	0.006782	-0.007345	-0.002079	10.479182	-45.418624	115.759101
56139	6.931265	1.224608	6.715028	0.009821	-0.005974	0.000795	10.478684	-45.418248	115.760560
56140	6.956323	1.256404	6.751888	0.008677	-0.007665	-0.000279	10.478339	-45.418622	115.760897
56141	6.943139	1.225505	6.754717	0.009604	-0.005207	-0.000640	10.478498	-45.417656	115.761275
56142	6.971004	1.249764	6.732433	0.009603	-0.005207	-0.000640	10.478632	-45.416609	115.761686
56143	6.952211	1.238758	6.722331	0.008893	-0.008431	0.001155	10.477686	-45.417645	115.763027
56144	6.974855	1.243369	6.671988	0.008242	-0.006132	-0.003149	10.478571	-45.416857	115.761288
56145	6.953014	1.240263	6.721223	0.009703	-0.004920	-0.004218	10.480774	-45.415365	115.758855
56146	6.953397	1.240907	6.720708	0.004784	-0.007312	-0.000303	10.478176	-45.415538	115.759225
56147	6.953884	1.241423	6.720109	0.010353	-0.007218	0.000085	10.478546	-45.415771	115.759939
56148	6.943377	1.242395	6.678645	0.008674	-0.007664	-0.000280	10.478201	-45.416145	115.760274
56149	6.954881	1.242715	6.718837	0.010352	-0.007218	0.000084	10.478629	-45.416375	115.760882
56150	6.955333	1.243447	6.718235	0.010134	-0.006452	-0.001351	10.479604	-45.415955	115.760538
56151	6.975019	1.255711	6.727166	0.008139	-0.006419	0.000426	10.478416	-45.415770	115.761662
56152	6.956308	1.244738	6.716986	0.009740	-0.010155	-0.001696	10.479755	-45.417399	115.760491
56153	6.968090	1.205446	6.742240	0.007071	-0.003928	0.001841	10.476907	-45.415989	115.763024
56154	6.962527	1.265392	6.743811	0.006777	-0.007345	-0.002081	10.476470	-45.415996	115.761961
56155	6.977116	1.218575	6.709870	0.009915	-0.005687	-0.002787	10.478074	-45.415052	115.760596
56156	6.938695	1.235566	6.705340	0.008138	-0.006419	0.000425	10.476886	-45.414798	115.761682
56157	6.972325	1.239829	6.695796	0.008987	-0.008144	-0.002424	10.477994	-45.415306	115.760221
56158	6.944998	1.256657	6.731999	0.011809	-0.006005	-0.000989	10.479675	-45.414671	115.760233
56159	6.964843	1.229507	6.726070	0.008846	-0.003196	-0.001373	10.479576	-45.412491	115.760365
56160	6.967832	1.261893	6.681247	0.009105	-0.009194	0.002587	10.478000	-45.414026	115.762774
56161	6.946267	1.258642	6.730318	0.008768	-0.007379	-0.003860	10.479700	-45.413946	115.760336
56162	6.974480	1.243304	6.692906	0.008136	-0.006418	0.000424	10.478512	-45.413691	115.761421
56163	6.941739	1.240291	6.701316	0.011491	-0.005524	0.001151	10.478745	-45.413091	115.763199
56164	6.956069	1.232919	6.682320	0.008668	-0.007664	-0.000284	10.478398	-45.413465	115.763532
56165	6.967608	1.233430	6.722487	0.012339	-0.007251	-0.001699	10.480914	-45.413541	115.762793
56166	6.943148	1.242525	6.699442	0.010345	-0.007217	0.000079	10.481274	-45.413701	115.763484
56167	6.968545	1.234852	6.721254	0.008134	-0.006418	0.000423	10.480147	-45.413494	115.764539
56168	6.938352	1.263548	6.685383	0.006238	-0.006100	-0.001375	10.478867	-45.412872	115.764228
56169	6.969355	1.236142	6.720177	0.012119	-0.006486	-0.003136	10.482007	-45.412363	115.762449
56170	6.964111	1.256693	6.706666	0.006140	-0.006383	0.002202	10.478656	-45.412274	115.764966
56171	6.959115	1.237586	6.678284	0.009908	-0.005687	-0.002792	10.480224	-45.411365	115.763583
56172	6.945584	1.246386	6.696199	0.009592	-0.005206	-0.000650	10.480356	-45.410316	115.763986
56173	6.970945	1.238898	6.718020	0.010657	-0.007698	-0.002065	10.482160	-45.410601	115.762913
56174	6.938303	1.236020	6.726341	0.008665	-0.007663	-0.000285	10.481812	-45.410974	115.763245
56175	6.966209	1.260130	6.703842	0.007914	-0.005653	-0.001014	10.481187	-45.410228	115.763348
56176	6.977755	1.260424	6.744071	0.005309	-0.008557	-0.001011	10.479425	-45.411029	115.762965
56177	6.934350	1.218101	6.696668	0.012551	-0.008015	-0.000269	10.481341	-45.411691	115.763234
56178	6.973384	1.242079	6.714901	0.008131	-0.006417	0.000421	10.480152	-45.411435	115.764317
56179	6.973845	1.242682	6.714311	0.010340	-0.007216	0.000075	10.480520	-45.411676	115.765000
56180	6.955070	1.231765	6.704231	0.008976	-0.008145	-0.002429	10.481627	-45.412097	115.763539
56181	6.936016	1.260384	6.709048	0.006766	-0.007346	-0.002084	10.481240	-45.412152	115.762457
56182	6.956037	1.233093	6.702983	0.010339	-0.007215	0.000074	10.481599	-45.412310	115.763143
56183	6.956525	1.233693	6.702366	0.005088	-0.007793	-0.002446	10.480446	-45.412601	115.761752
56184	6.957017	1.234377	6.701730	0.010652	-0.007698	-0.002069	10.482260	-45.412808	115.760647
56185	6.976807	1.246889	6.710452	0.012547	-0.008014	-0.000273	10.484121	-45.413486	115.760956
56186	6.949931	1.224045	6.731721	0.007201	-0.008873	0.000785	10.482450	-45.414652	115.761968
56187	6.964009	1.256101	6.727558	0.007909	-0.005653	-0.001017	10.481875	-45.413897	115.762012
56188	6.964339	1.256661	6.727112	0.007377	-0.004406	-0.000310	10.480460	-45.412432	115.762807
56189	6.934302	1.245694	6.676437	0.008127	-0.006416	0.000418	10.479312	-45.412245	115.763856
56190	6.965368	1.218145	6.711272	0.007909	-0.005653	-0.001017	10.478737	-45.411409	115.763899
56191	6.971157	1.238591	6.738587	0.009899	-0.005688	-0.002799	10.480357	-45.410489	115.762462
56192	6.960587	1.239442	6.697086	0.011522	-0.010750	0.003670	10.479713	-45.413013	115.765510
56193	6.952951	1.228186	6.727848	0.009053	-0.003959	0.000049	10.479013	-45.411431	115.766618
56194	6.978214	1.220617	6.749811	0.007688	-0.004890	-0.002453	10.479052	-45.410016	115.765621
56195	6.928732	1.237776	6.704434	0.009720	-0.010155	-0.001704	10.480370	-45.411733	115.764448
56196	6.973907	1.202265	6.720581	0.005834	-0.009803	-0.001718	10.479445	-45.413163	115.763312
56197	6.963034	1.242654	6.693947	0.010114	-0.006451	-0.001366	10.480435	-45.412838	115.762898
56198	6.955394	1.231580	6.724701	0.009187	-0.008908	-0.000998	10.480926	-45.413839	115.762472
56199	6.955905	1.232182	6.724062	0.008124	-0.006415	0.000416	10.479779	-45.413651	115.763509
56200	6.964420	1.244712	6.692122	0.011571	-0.005241	-0.002443	10.482074	-45.412435	115.762469
56201	6.964728	1.245526	6.691650	0.007686	-0.004890	-0.002455	10.482093	-45.411094	115.761509
56202	6.932043	1.242616	6.700115	0.009185	-0.008908	-0.000999	10.482583	-45.412094	115.761083
56203	6.971350	1.226988	6.703445	0.007904	-0.005652	-0.001021	10.482041	-45.411340	115.761072
56204	6.944085	1.243786	6.739753	0.008435	-0.006899	-0.001728	10.482306	-45.411132	115.760360
56205	6.977638	1.248113	6.730116	0.010111	-0.006451	-0.001369	10.483321	-45.410767	115.759985
56206	6.953006	1.256904	6.707262	0.005696	-0.004853	-0.000674	10.481197	-45.409516	115.760422
56207	6.959083	1.237644	6.719769	0.010110	-0.006451	-0.001369	10.482177	-45.409164	115.760066
56208	6.959606	1.238376	6.719093	0.011079	-0.009222	0.000795	10.482761	-45.410528	115.761033
56209	6.946380	1.246979	6.736798	0.008560	-0.007938	0.003284	10.480324	-45.411513	115.764202
56210	6.960654	1.239282	6.717840	0.005695	-0.004853	-0.000674	10.478200	-45.410263	115.764638
56211	6.947233	1.248014	6.735727	0.010639	-0.007698	-0.002077	10.480029	-45.410553	115.763496
56212	6.975124	1.272234	6.712995	0.010327	-0.007213	0.000065	10.480387	-45.410709	115.764175
56213	6.948395	1.209813	6.719754	0.007901	-0.005652	-0.001023	10.479812	-45.409932	115.764244
56214	6.942896	1.269979	6.720900	0.010857	-0.008459	-0.000643	10.481009	-45.410716	115.764171
56215	6.968640	1.222872	6.727865	0.009796	-0.005965	0.000771	10.480529	-45.410313	115.765617
56216	6.968944	1.263061	6.741950	0.007722	-0.010117	0.000076	10.479695	-45.412106	115.765873
56217	6.944659	1.232198	6.704231	0.007680	-0.004891	-0.002460	10.479790	-45.410757	115.764814
56218	6.978189	1.236556	6.694566	0.012531	-0.008011	-0.000286	10.481695	-45.411326	115.765093
56219	6.956742	1.233598	6.743827	0.006222	-0.006100	-0.001382	10.480480	-45.410773	115.764698
56220	6.959765	1.226069	6.684103	0.008118	-0.006413	0.000411	10.479289	-45.410514	115.765774
56221	6.932634	1.242920	6.720323	0.010854	-0.008459	-0.000645	10.480495	-45.411362	115.765713
56222	6.960772	1.227394	6.682811	0.006751	-0.007347	-0.002089	10.480049	-45.411370	115.764643
56223	6.952893	1.256067	6.728385	0.010413	-0.006937	-0.003517	10.482397	-45.411111	115.762526
56224	6.953275	1.256885	6.727838	0.009573	-0.005204	-0.000668	10.482529	-45.410059	115.762915
56225	6.953909	1.218018	6.712565	0.008736	-0.007386	-0.003875	10.484211	-45.409993	115.760428
56226	6.959904	1.238553	6.739656	0.010542	-0.007972	0.001496	10.483954	-45.410726	115.762143
56227	6.982246	1.242767	6.689183	0.007896	-0.005652	-0.001026	10.483373	-45.409960	115.762197
56228	6.969151	1.211879	6.692288	0.009174	-0.008907	-0.001004	10.483859	-45.410959	115.761767
56229	6.955624	1.260325	6.724766	0.008425	-0.006899	-0.001733	10.484160	-45.410818	115.761018
56230	6.975626	1.233064	6.718759	0.010320	-0.007211	0.000059	10.484517	-45.410972	115.761693
56231	6.951070	1.241885	6.695793	0.010320	-0.007211	0.000059	10.484882	-45.411223	115.762321
56232	6.976456	1.234528	6.717629	0.009130	-0.003683	-0.003543	10.486242	-45.409014	115.760630
56233	6.963051	1.243424	6.735506	0.009172	-0.008907	-0.001005	10.486697	-45.410088	115.760245
56234	6.958115	1.224244	6.707071	0.010539	-0.007971	0.001494	10.486439	-45.410820	115.761959
56235	6.963978	1.244718	6.734310	0.006924	-0.002884	-0.003193	10.486217	-45.408282	115.760699
56236	6.958813	1.225489	6.706119	0.006966	-0.008108	-0.000655	10.485154	-45.408867	115.760668
56237	6.953545	1.245955	6.692466	0.010098	-0.006450	-0.001379	10.486160	-45.408535	115.760229
56238	6.973315	1.258346	6.701145	0.008641	-0.007659	-0.000299	10.485807	-45.408904	115.760550
56239	6.946470	1.235550	6.722694	0.008641	-0.007659	-0.000300	10.485469	-45.409368	115.760818
56240	6.960787	1.228060	6.703600	0.007273	-0.008596	-0.002798	10.485859	-45.410005	115.758995
56241	6.986383	1.220721	6.725226	0.012521	-0.008009	-0.000295	10.487796	-45.410669	115.759185
56242	6.955991	1.249421	6.689278	0.007671	-0.004892	-0.002466	10.487832	-45.409254	115.758178
56243	6.967777	1.250137	6.729374	0.009917	-0.010914	-0.000278	10.488581	-45.411510	115.758030
56244	6.957157	1.250787	6.687810	0.009167	-0.008906	-0.001008	10.489066	-45.412509	115.757597
56245	6.949638	1.239798	6.718636	0.008418	-0.006899	-0.001737	10.489350	-45.412385	115.756832
56246	6.969464	1.252198	6.727243	0.009166	-0.008906	-0.001008	10.489835	-45.413383	115.756398
56247	6.945184	1.221309	6.689571	0.007270	-0.008596	-0.002800	10.490295	-45.414077	115.754516
56248	6.964863	1.233625	6.698342	0.008508	-0.002707	0.000736	10.488750	-45.411764	115.756403
56249	6.965234	1.234186	6.697853	0.010534	-0.007968	0.001489	10.488515	-45.412557	115.758109
56250	6.957624	1.223129	6.728811	0.009036	-0.003954	0.000029	10.487808	-45.410874	115.759244
56251	6.960295	1.255282	6.683701	0.010840	-0.008457	-0.000654	10.488957	-45.411736	115.759216
56252	6.958539	1.224550	6.727605	0.008415	-0.006899	-0.001739	10.489217	-45.411527	115.758494
56253	6.958979	1.225153	6.727041	0.008108	-0.006410	0.000403	10.488044	-45.411350	115.759529
56254	6.953728	1.245557	6.713337	0.009163	-0.008906	-0.001010	10.488528	-45.412348	115.759094
56255	6.965794	1.206726	6.738770	0.010617	-0.007698	-0.002092	10.490351	-45.412626	115.757957
56256	6.968562	1.238813	6.693536	0.005283	-0.008556	-0.001012	10.488576	-45.413427	115.757572
56257	6.955196	1.247614	6.711434	0.011016	-0.003994	-0.001762	10.490079	-45.411638	115.757235
56258	6.980554	1.240317	6.733316	0.007664	-0.004893	-0.002470	10.490114	-45.410223	115.756225
56259	6.955893	1.249033	6.710448	0.010530	-0.007967	0.001486	10.489964	-45.410999	115.757849
56260	6.956387	1.249592	6.709832	0.008106	-0.006410	0.000402	10.488771	-45.410738	115.758918
56261	6.976410	1.222232	6.703851	0.007264	-0.008597	-0.002801	10.489196	-45.411432	115.757084
56262	6.963198	1.231126	6.721583	0.010835	-0.008456	-0.000658	10.490389	-45.412213	115.756998
56263	6.938588	1.239876	6.698652	0.009780	-0.005960	0.000754	10.489891	-45.411844	115.758380
56264	6.969662	1.252317	6.748071	0.004838	-0.007040	-0.003885	10.489342	-45.411490	115.755915
56265	6.945267	1.221283	6.710574	0.010528	-0.007966	0.001484	10.489129	-45.412272	115.757609
56266	6.990233	1.225694	6.741394	0.012509	-0.008007	-0.000306	10.491032	-45.412837	115.757872
56267	6.946029	1.262440	6.723872	0.005986	-0.005343	-0.002825	10.490303	-45.411735	115.756541
56268	6.938421	1.251517	6.754884	0.010084	-0.006450	-0.001390	10.491272	-45.411309	115.756166
56269	6.966349	1.235940	6.717433	0.010084	-0.006450	-0.001390	10.492206	-45.410966	115.755830
56270	6.958915	1.225108	6.748258	0.009683	-0.010154	-0.001719	10.493525	-45.412592	115.754640
56271	6.967315	1.277097	6.730503	0.007481	-0.009355	-0.001366	10.493336	-45.413882	115.753802
56272	6.962216	1.257820	6.702245	0.009556	-0.005201	-0.000685	10.493467	-45.412827	115.754179
56273	6.954543	1.246999	6.733326	0.011009	-0.003994	-0.001769	10.494932	-45.411031	115.753899
56274	6.968634	1.239505	6.714405	0.008102	-0.006408	0.000399	10.493738	-45.410769	115.754966
56275	6.949778	1.228319	6.704616	0.008628	-0.007657	-0.000308	10.493440	-45.411183	115.755262
56276	6.969548	1.240749	6.713227	0.008184	-0.006142	-0.003181	10.494311	-45.410397	115.753495
56277	6.950613	1.229775	6.703483	0.010081	-0.006449	-0.001393	10.495257	-45.410048	115.753148
56278	6.964593	1.261980	6.698991	0.006730	-0.007349	-0.002097	10.494803	-45.410055	115.752072
56279	6.954959	1.219776	6.774537	0.010606	-0.007698	-0.002100	10.496623	-45.410331	115.750937
56280	6.965570	1.263435	6.697702	0.008626	-0.007656	-0.000309	10.496266	-45.410698	115.751250
56281	6.946711	1.252242	6.687925	0.008100	-0.006407	0.000397	10.495026	-45.410516	115.752366
56282	6.939215	1.241225	6.718899	0.006728	-0.007349	-0.002097	10.494571	-45.410524	115.751290
56283	6.972727	1.245465	6.709050	0.010078	-0.006449	-0.001395	10.495460	-45.410178	115.751007
56284	6.979000	1.226342	6.721542	0.006950	-0.008106	-0.000661	10.494392	-45.410761	115.750971
56285	6.954345	1.234997	6.698651	0.010077	-0.006449	-0.001395	10.495381	-45.410408	115.750572
56286	6.974069	1.247438	6.707289	0.007876	-0.005650	-0.001041	10.494800	-45.409568	115.750596
56287	6.966573	1.236479	6.738275	0.008624	-0.007656	-0.000310	10.494428	-45.410013	115.750920
56288	6.975147	1.209000	6.691639	0.008179	-0.006143	-0.003184	10.495298	-45.409228	115.749151
56289	6.978674	1.238147	6.778007	0.008580	-0.002438	-0.002858	10.495872	-45.406448	115.748163
56290	6.975579	1.250138	6.705216	0.005799	-0.009805	-0.001718	10.494928	-45.407878	115.747026
56291	6.968249	1.239144	6.736052	0.010520	-0.007962	0.001476	10.494671	-45.408690	115.748705
56292	6.943643	1.247828	6.713099	0.008925	-0.008148	-0.002454	10.495764	-45.409110	115.747223
56293	6.957798	1.240346	6.694076	0.009549	-0.005200	-0.000692	10.495878	-45.408154	115.747569
56294	6.958175	1.241075	6.693549	0.010074	-0.006449	-0.001398	10.496846	-45.407727	115.747188
56295	6.983584	1.273419	6.729703	0.008318	-0.007162	0.001831	10.495051	-45.408119	115.749270
56296	6.964864	1.222483	6.705541	0.009548	-0.005200	-0.000693	10.495181	-45.407062	115.749641
56297	6.970858	1.243198	6.732605	0.010073	-0.006449	-0.001399	10.496149	-45.406686	115.749304
56298	6.959760	1.243779	6.691398	0.010999	-0.003993	-0.001780	10.497605	-45.404836	115.748981
56299	6.971582	1.244707	6.731577	0.006945	-0.008105	-0.000662	10.496547	-45.405489	115.748946
56300	6.966255	1.264969	6.717850	0.008094	-0.006406	0.000393	10.495352	-45.405225	115.750009
56301	6.947424	1.253800	6.708072	0.009144	-0.008904	-0.001019	10.495804	-45.406323	115.749551
56302	6.948163	1.214701	6.692937	0.008618	-0.007655	-0.000313	10.495445	-45.406689	115.749861
56303	6.981466	1.258586	6.697504	0.007871	-0.005650	-0.001045	10.494795	-45.405966	115.749891
56304	6.954681	1.235941	6.719362	0.007245	-0.008599	-0.002806	10.495174	-45.406603	115.748061
56305	6.955145	1.236628	6.718756	0.011442	-0.005504	0.001090	10.495386	-45.406001	115.749799
56306	6.969246	1.229258	6.699747	0.012045	-0.006492	-0.003196	10.498515	-45.405411	115.747969
56307	6.967494	1.238578	6.758226	0.007467	-0.009354	-0.001369	10.498271	-45.406707	115.747177
56308	6.942822	1.247223	6.735333	0.008171	-0.006144	-0.003189	10.499139	-45.405921	115.745404
56309	6.956960	1.239718	6.716307	0.010290	-0.007204	0.000034	10.499478	-45.406152	115.746066
56310	6.957457	1.240363	6.715673	0.008616	-0.007654	-0.000315	10.499119	-45.406517	115.746375
56311	6.971709	1.232766	6.696539	0.009140	-0.008904	-0.001021	10.499624	-45.407567	115.745936
56312	6.952639	1.261424	6.701237	0.009542	-0.005199	-0.000698	10.499755	-45.406509	115.746302
56313	6.958914	1.242339	6.713798	0.010512	-0.007958	0.001470	10.499465	-45.407300	115.748050
56314	6.959388	1.243156	6.713155	0.012041	-0.006492	-0.003199	10.502593	-45.406709	115.746217
56315	6.951947	1.232405	6.744173	0.006415	-0.006855	0.000041	10.500663	-45.406766	115.746901
56316	6.946580	1.252820	6.730418	0.012263	-0.007247	-0.001763	10.503178	-45.406751	115.746108
56317	6.955118	1.225392	6.683758	0.008914	-0.008149	-0.002459	10.504239	-45.407234	115.744686
56318	6.980673	1.258030	6.719669	0.009437	-0.009398	-0.003166	10.506164	-45.408284	115.742447
56319	6.942533	1.235050	6.700794	0.006638	-0.007609	0.001478	10.503626	-45.408874	115.744248
56320	6.962376	1.247399	6.709268	0.011960	-0.006752	0.000378	10.504692	-45.408803	115.745247
56321	6.968619	1.228322	6.721887	0.004293	-0.005797	-0.003181	10.503294	-45.407880	115.743575
56322	6.969002	1.228964	6.721372	0.010062	-0.006448	-0.001408	10.504259	-45.407451	115.743186
56323	6.950141	1.218029	6.711625	0.011109	-0.008947	-0.002819	10.506942	-45.408344	115.741271
56324	6.969998	1.230638	6.720033	0.008387	-0.006899	-0.001756	10.507195	-45.408134	115.740536
56325	6.972474	1.262448	6.674646	0.008610	-0.007653	-0.000319	10.506862	-45.408597	115.740764
56326	6.951453	1.259858	6.724070	0.008610	-0.007653	-0.000319	10.506501	-45.408962	115.741069
56327	6.971481	1.232527	6.718148	0.010283	-0.007202	0.000028	10.506892	-45.409163	115.741709
56328	6.966157	1.252794	6.704337	0.005261	-0.008555	-0.001013	10.505105	-45.409963	115.741324
56329	6.972559	1.233895	6.716778	0.013079	-0.008992	-0.004618	10.509901	-45.410713	115.737980
56330	6.959379	1.242894	6.734577	0.006112	-0.006358	0.002182	10.506543	-45.410609	115.740485
56331	6.948324	1.243088	6.693301	0.010581	-0.007698	-0.002117	10.508393	-45.410894	115.739264
56332	6.993352	1.247673	6.723982	0.008084	-0.006403	0.000385	10.507197	-45.410628	115.740321
56333	6.941385	1.232985	6.723762	0.010057	-0.006448	-0.001412	10.508105	-45.410310	115.739928
56334	6.974883	1.237202	6.713757	0.008607	-0.007653	-0.000321	10.507744	-45.410674	115.740232
56335	6.942274	1.234318	6.722599	0.009533	-0.005198	-0.000707	10.480964	-45.423569	115.753718
56336	6.975759	1.238403	6.712625	0.005259	-0.008555	-0.001013	10.479153	-45.424381	115.753347
56337	6.943283	1.235389	6.721360	0.010503	-0.007954	0.001462	10.478886	-45.425187	115.754994
56338	6.949448	1.256297	6.748217	0.012027	-0.006493	-0.003210	10.481992	-45.424608	115.753166
56339	6.957809	1.228740	6.701720	0.007858	-0.005649	-0.001054	10.481471	-45.423829	115.753110
56340	6.963987	1.249348	6.728617	0.007155	-0.008857	0.000770	10.479759	-45.424997	115.754125
56341	6.978178	1.241619	6.709516	0.008380	-0.006899	-0.001760	10.480037	-45.424860	115.753382
56342	6.959256	1.230492	6.699897	0.008380	-0.006899	-0.001760	10.480266	-45.424661	115.752657
56343	6.965369	1.251366	6.726811	0.011727	-0.005996	-0.001070	10.481910	-45.424094	115.752572
56344	6.952347	1.220504	6.730356	0.005256	-0.008555	-0.001013	10.480098	-45.424906	115.752201
56345	6.960527	1.272343	6.712322	0.012472	-0.007999	-0.000339	10.482006	-45.425569	115.752418
56346	6.969126	1.244667	6.665580	0.008198	-0.011357	-0.000642	10.481963	-45.427998	115.751928
56347	6.948158	1.242080	6.715086	0.006811	-0.003148	0.000355	10.479763	-45.425952	115.753457
56348	6.940661	1.231206	6.746339	0.007855	-0.005649	-0.001056	10.479157	-45.425122	115.753484
56349	6.962545	1.234899	6.695668	0.008601	-0.007652	-0.000324	10.478813	-45.425576	115.753778
56350	6.955231	1.224070	6.726728	0.008079	-0.006401	0.000381	10.477593	-45.425320	115.754847
56351	6.963543	1.235797	6.694464	0.005181	-0.008810	0.002567	10.473765	-45.426722	115.757236
56352	6.956119	1.264729	6.739764	0.006775	-0.007097	-0.005687	10.475342	-45.426225	115.753329
56353	6.956747	1.225781	6.724848	0.012469	-0.007998	-0.000342	10.477274	-45.426867	115.753521
56354	6.970751	1.257885	6.720016	0.004731	-0.007305	-0.000308	10.474625	-45.427048	115.753901
56355	6.977080	1.238763	6.732644	0.010048	-0.006448	-0.001419	10.475603	-45.426698	115.753551
56356	6.971817	1.219235	6.704596	0.008302	-0.007153	0.001817	10.473769	-45.427015	115.755660
56357	6.952750	1.247822	6.709267	0.010047	-0.006448	-0.001420	10.474739	-45.426669	115.755225
56358	6.972546	1.260292	6.717703	0.008077	-0.006401	0.000379	10.473519	-45.426413	115.756291
56359	6.953595	1.249026	6.708167	0.009750	-0.005949	0.000723	10.473014	-45.426022	115.757699
56360	6.959851	1.229999	6.720866	0.009525	-0.005197	-0.000715	10.473121	-45.424973	115.758066
56361	6.940789	1.258674	6.725512	0.009118	-0.008902	-0.001032	10.473600	-45.426048	115.757658
56362	6.960756	1.231371	6.719677	0.007626	-0.004897	-0.002497	10.473608	-45.424645	115.756639
56363	6.963051	1.263036	6.674235	0.010494	-0.007951	0.001454	10.473297	-45.425441	115.758331
56364	6.961640	1.232619	6.718532	0.007850	-0.005649	-0.001060	10.472690	-45.424611	115.758354
56365	6.956229	1.252929	6.704707	0.009117	-0.008902	-0.001033	10.473165	-45.425686	115.757921
56366	6.962592	1.233905	6.717310	0.007849	-0.005649	-0.001060	10.472558	-45.424855	115.757944
56367	6.963177	1.194682	6.702526	0.008595	-0.007651	-0.000328	10.472088	-45.425331	115.758276
56368	6.963240	1.275060	6.730457	0.009072	-0.003694	-0.003593	10.473423	-45.423136	115.756556
56369	6.944387	1.224130	6.706745	0.010492	-0.007950	0.001452	10.473159	-45.423921	115.758261
56370	6.970021	1.256733	6.742505	0.006696	-0.007352	-0.002109	10.472671	-45.423942	115.757188
56371	6.953108	1.236699	6.673815	0.010267	-0.007199	0.000014	10.473066	-45.424155	115.757831
56372	6.951580	1.246143	6.732340	0.008073	-0.006400	0.000376	10.471845	-45.423897	115.758895
56373	6.965609	1.238369	6.713359	0.007847	-0.005649	-0.001062	10.471194	-45.423146	115.758897
56374	6.966119	1.238969	6.712720	0.009338	-0.009653	0.000403	10.471026	-45.424724	115.759500
56375	6.947268	1.227729	6.703103	0.009744	-0.005948	0.000718	10.470541	-45.424315	115.760872
56376	6.967167	1.240216	6.711402	0.011010	-0.009200	0.000745	10.471088	-45.425673	115.761817
56377	6.967697	1.240817	6.710740	0.008071	-0.006400	0.000375	10.469909	-45.425469	115.762845
56378	6.962179	1.261109	6.696993	0.006242	-0.005851	-0.004986	10.470647	-45.424344	115.759686
56379	6.941422	1.219075	6.732371	0.010784	-0.008449	-0.000694	10.471771	-45.425211	115.759595
56380	6.982697	1.234569	6.690452	0.010488	-0.007949	0.001449	10.471485	-45.425938	115.761290
56381	6.969503	1.243559	6.708356	0.007619	-0.004899	-0.002502	10.471512	-45.424611	115.760222
56382	6.931171	1.220462	6.689914	0.008815	-0.008401	0.001107	10.470510	-45.425557	115.761575
56383	6.976389	1.225070	6.720361	0.008589	-0.007651	-0.000331	10.470234	-45.425974	115.761819
56384	6.957235	1.253667	6.725097	0.007098	-0.003648	-0.001797	10.469407	-45.423939	115.761546
56385	6.965453	1.225842	6.678708	0.012454	-0.007997	-0.000355	10.471282	-45.424566	115.761802
56386	6.964065	1.235491	6.737113	0.010486	-0.007948	0.001447	10.470995	-45.425292	115.763496
56387	6.972277	1.247376	6.704765	0.006689	-0.007353	-0.002111	10.470485	-45.425386	115.762433
56388	6.933940	1.224353	6.686332	0.010034	-0.006448	-0.001430	10.471426	-45.424967	115.762040
56389	6.959520	1.257108	6.722090	0.009740	-0.005946	0.000713	10.470911	-45.424554	115.763423
56390	6.954075	1.237496	6.694243	0.008994	-0.003945	-0.000020	10.470185	-45.422872	115.764533
56391	6.979767	1.230403	6.715878	0.008880	-0.008152	-0.002476	10.471230	-45.423390	115.763049
56392	6.966600	1.239367	6.733779	0.007547	-0.005147	0.001077	10.469174	-45.422499	115.764862
56393	6.947598	1.228114	6.724353	0.010032	-0.006448	-0.001431	10.470113	-45.422161	115.764512
56394	6.967473	1.240662	6.732637	0.010483	-0.007947	0.001445	10.469826	-45.422886	115.766204
56395	6.948643	1.229401	6.723038	0.005533	-0.009058	-0.003157	10.469471	-45.423804	115.764051
56396	6.949136	1.230083	6.722404	0.010031	-0.006448	-0.001432	10.470411	-45.423385	115.763656
56397	6.968992	1.242632	6.730702	0.008584	-0.007650	-0.000334	10.470031	-45.423828	115.763965
56398	6.955983	1.211831	6.734453	0.010030	-0.006448	-0.001433	10.470971	-45.423409	115.763570
56399	6.969830	1.243969	6.729587	0.009217	-0.004694	0.001415	10.469603	-45.422356	115.765774
56400	6.950816	1.232661	6.720194	0.004786	-0.007057	-0.003890	10.469009	-45.422025	115.763315
56401	6.945381	1.252882	6.706317	0.010481	-0.007946	0.001443	10.468846	-45.422804	115.764905
56402	6.965242	1.265396	6.714604	0.011408	-0.005492	0.001049	10.469056	-45.422105	115.766643
56403	6.952149	1.234640	6.718452	0.008129	-0.006152	-0.003212	10.469906	-45.421406	115.764879
56404	6.966047	1.266856	6.713493	0.010254	-0.007197	0.000004	10.470232	-45.421558	115.765525
56405	6.972400	1.247883	6.726199	0.007836	-0.005649	-0.001069	10.469676	-45.420777	115.765526
56406	6.966978	1.228230	6.698336	0.009734	-0.005945	0.000708	10.469170	-45.420298	115.766924
56407	6.953815	1.237260	6.716246	0.008354	-0.006901	-0.001774	10.469399	-45.420177	115.766152
56408	6.954205	1.237947	6.715714	0.009507	-0.005196	-0.000731	10.469506	-45.419125	115.766506
56409	6.968262	1.230114	6.696654	0.007134	-0.008851	0.000763	10.467780	-45.420375	115.767509
56410	6.974577	1.251107	6.723343	0.011989	-0.006498	-0.003241	10.470881	-45.419796	115.765655
56411	6.955558	1.240049	6.713925	0.007834	-0.005649	-0.001070	10.470225	-45.419054	115.765710
56412	6.956034	1.240690	6.713314	0.009097	-0.008901	-0.001042	10.470666	-45.420058	115.765265
56413	6.969973	1.272817	6.708289	0.007834	-0.005649	-0.001071	10.470013	-45.419292	115.765305
56414	6.970475	1.233536	6.693721	0.009732	-0.005944	0.000706	10.469506	-45.418811	115.766701
56415	6.943865	1.250975	6.729975	0.007942	-0.010607	-0.002085	10.470048	-45.420731	115.765184
56416	6.971515	1.234817	6.692402	0.010885	-0.004238	0.001748	10.469426	-45.419398	115.767669
56417	6.964283	1.224258	6.723619	0.005298	-0.008312	-0.004595	10.469661	-45.419773	115.764436
56418	6.958800	1.244585	6.709726	0.010022	-0.006448	-0.001439	10.470600	-45.419353	115.764036
56419	6.965167	1.225628	6.722453	0.008058	-0.006397	0.000366	10.469449	-45.419156	115.765003
56420	6.959648	1.245873	6.708607	0.010021	-0.006448	-0.001440	10.470388	-45.418736	115.764603
56421	6.971852	1.247212	6.748654	0.008058	-0.006396	0.000366	10.469147	-45.418548	115.765677
56422	6.947071	1.215635	6.711908	0.010247	-0.007195	-0.000002	10.469472	-45.418699	115.766320
56423	6.966837	1.228212	6.720251	0.010656	-0.003490	0.000306	10.469554	-45.416838	115.767699
56424	6.941884	1.236478	6.697600	0.005231	-0.008556	-0.001014	10.467727	-45.417650	115.767327
56425	6.967759	1.229501	6.719059	0.015778	-0.007087	0.000304	10.471073	-45.417832	115.768240
56426	6.948893	1.218344	6.709530	0.007129	-0.008850	0.000762	10.469350	-45.418994	115.769250
56427	6.949368	1.218986	6.708921	0.009791	-0.005700	-0.002880	10.470963	-45.418070	115.767763
56428	6.963172	1.251323	6.703934	0.009790	-0.005700	-0.002881	10.472514	-45.417079	115.766316
56429	6.969590	1.232505	6.716609	0.009090	-0.008901	-0.001045	10.472990	-45.418149	115.765849
56430	6.950551	1.261157	6.721167	0.007828	-0.005649	-0.001075	10.472379	-45.417317	115.765860
56431	6.962925	1.222674	6.747169	0.010760	-0.008447	-0.000709	10.473539	-45.418177	115.765741
56432	6.978688	1.245588	6.682923	0.005228	-0.008556	-0.001014	10.471711	-45.418990	115.765369
56433	6.952121	1.263082	6.719182	0.012431	-0.007993	-0.000373	10.473499	-45.419644	115.765612
56434	6.939110	1.232288	6.723090	0.004256	-0.005809	-0.003187	10.472066	-45.418683	115.763904
56435	6.945480	1.253217	6.749739	0.012885	-0.009487	0.002503	10.472753	-45.420428	115.766237
56436	6.967241	1.216668	6.684853	0.007826	-0.005649	-0.001076	10.472142	-45.419596	115.766246
56437	6.966003	1.226454	6.743304	0.007415	-0.009355	-0.001383	10.471901	-45.420861	115.765447
56438	6.941188	1.234729	6.720498	0.008569	-0.007648	-0.000343	10.471508	-45.421232	115.765748
56439	6.974660	1.238793	6.710187	0.008569	-0.007648	-0.000343	10.471054	-45.421729	115.766034
56440	6.973475	1.248637	6.768587	0.007186	-0.008608	-0.002822	10.471387	-45.422383	115.764203
56441	6.936755	1.256010	6.705283	0.006091	-0.006343	0.002169	10.467928	-45.422364	115.766773
56442	6.976107	1.240544	6.708359	0.011972	-0.006500	-0.003255	10.471028	-45.421785	115.764907
56443	6.976559	1.241358	6.707738	0.008567	-0.007648	-0.000344	10.470631	-45.422207	115.765233
56444	6.950097	1.218965	6.730081	0.007184	-0.008608	-0.002823	10.470964	-45.422861	115.763402
56445	6.964146	1.251165	6.724791	0.009599	-0.010153	-0.001754	10.472223	-45.424584	115.762188
56446	6.970647	1.232237	6.737449	0.006151	-0.006103	-0.001414	10.470893	-45.423973	115.761859
56447	6.971014	1.232840	6.736959	0.009493	-0.005194	-0.000744	10.471009	-45.422984	115.762206
56448	6.946103	1.241184	6.714227	0.010981	-0.009192	0.000724	10.471550	-45.424336	115.763135
56449	6.985564	1.225681	6.717192	0.008049	-0.006394	0.000359	10.470250	-45.424164	115.764259
56450	6.953004	1.262839	6.740193	0.012423	-0.007992	-0.000381	10.472123	-45.424725	115.764479
56451	6.947578	1.243159	6.712336	0.006150	-0.006103	-0.001415	10.470793	-45.424183	115.764157
56452	6.953971	1.224112	6.725144	0.008048	-0.006394	0.000358	10.469568	-45.423921	115.765208
56453	6.967881	1.256060	6.720009	0.008276	-0.007140	0.001797	10.467769	-45.424313	115.767243
56454	6.954949	1.225186	6.723936	0.008851	-0.008155	-0.002490	10.468818	-45.424746	115.765746
56455	6.968797	1.257386	6.718810	0.007591	-0.004903	-0.002520	10.468868	-45.423398	115.764684
56456	6.955618	1.226557	6.722994	0.007075	-0.003650	-0.001816	10.468038	-45.421363	115.764396
56457	6.962065	1.247580	6.749548	0.010565	-0.012897	0.000418	10.468976	-45.424826	115.764497
56458	6.950747	1.247395	6.708267	0.008974	-0.003941	-0.000044	10.468252	-45.423139	115.765588
56459	6.963003	1.248830	6.748349	0.006663	-0.007356	-0.002120	10.467691	-45.423241	115.764580
56460	6.938042	1.257017	6.725688	0.008046	-0.006394	0.000357	10.466465	-45.422978	115.765629
56461	6.952000	1.249148	6.706643	0.008333	-0.006902	-0.001787	10.466724	-45.422841	115.764855
56462	6.944946	1.238711	6.737855	0.008561	-0.007647	-0.000348	10.466329	-45.423211	115.765152
56463	6.958941	1.230882	6.718764	0.008332	-0.006902	-0.001787	10.466523	-45.423090	115.764427
56464	6.986393	1.254433	6.695058	0.005218	-0.008556	-0.001015	10.464690	-45.423902	115.764054
56465	6.946409	1.240338	6.736048	0.009429	-0.005430	0.002832	10.462778	-45.423430	115.767184
56466	6.960357	1.232380	6.717022	0.006660	-0.007356	-0.002121	10.462277	-45.423451	115.766101
56467	6.954908	1.252564	6.702989	0.010973	-0.009190	0.000718	10.462798	-45.424882	115.767029
56468	6.928544	1.230171	6.725376	0.006888	-0.008101	-0.000682	10.461684	-45.425473	115.766991
56469	6.948465	1.242696	6.733492	0.008330	-0.006902	-0.001789	10.461878	-45.425362	115.766264
56470	6.968424	1.215231	6.727790	0.006372	-0.006848	0.000022	10.459933	-45.425320	115.766977
56471	6.956752	1.254868	6.700644	0.008742	-0.003196	-0.001487	10.459776	-45.423153	115.767028
56472	6.969165	1.216481	6.726797	0.010971	-0.009190	0.000717	10.460316	-45.424503	115.767952
56473	6.963616	1.236833	6.712824	0.009541	-0.004959	-0.004336	10.462394	-45.423042	115.765485
56474	6.958027	1.257140	6.698895	0.010456	-0.007936	0.001420	10.462104	-45.423759	115.767160
56475	6.964561	1.238206	6.711591	0.008556	-0.007646	-0.000351	10.461702	-45.424215	115.767426
56476	6.951534	1.247339	6.729464	0.008327	-0.006902	-0.001790	10.461919	-45.424015	115.766677
56477	6.952011	1.247981	6.728853	0.008555	-0.007646	-0.000352	10.461546	-45.424453	115.766938
56478	6.952558	1.208663	6.714412	0.008326	-0.006902	-0.001791	10.461762	-45.424253	115.766187
56479	6.973938	1.251932	6.677284	0.010511	-0.007701	-0.002164	10.463541	-45.424540	115.764989
56480	6.967008	1.241670	6.708410	0.010968	-0.009189	0.000714	10.464080	-45.425889	115.765911
56481	6.967564	1.242181	6.707738	0.004699	-0.007302	-0.000311	10.461495	-45.426124	115.766209
56482	6.935083	1.239296	6.716957	0.009995	-0.006447	-0.001461	10.462431	-45.425702	115.765791
56483	6.974503	1.223853	6.719924	0.006883	-0.008101	-0.000684	10.461384	-45.426314	115.765737
56484	6.949466	1.271914	6.711076	0.008039	-0.006392	0.000351	10.460158	-45.426050	115.766782
56485	6.956006	1.213025	6.710052	0.010223	-0.007191	-0.000022	10.460565	-45.426265	115.767292
56486	6.975955	1.225567	6.718104	0.006882	-0.008101	-0.000685	10.459448	-45.426855	115.767252
56487	6.950910	1.233656	6.695523	0.007295	-0.004394	-0.000385	10.457999	-45.425426	115.768052
56488	6.970723	1.246246	6.703701	0.011892	-0.006736	0.000307	10.459041	-45.425351	115.769011
56489	6.977281	1.227200	6.716429	0.005155	-0.008788	0.002567	10.455154	-45.426754	115.771436
56490	6.944874	1.224237	6.725614	0.009992	-0.006448	-0.001463	10.456090	-45.426332	115.771016
56491	6.939292	1.244611	6.711625	0.012175	-0.007247	-0.001837	10.458559	-45.426408	115.770164
56492	6.966692	1.228437	6.674036	0.009991	-0.006448	-0.001464	10.459494	-45.425986	115.769743
56493	6.946073	1.226644	6.723936	0.007064	-0.003651	-0.001826	10.458633	-45.424037	115.769449
56494	6.953860	1.238279	6.691605	0.008320	-0.006903	-0.001795	10.458848	-45.423837	115.768695
56495	6.966241	1.239926	6.731613	0.009476	-0.005193	-0.000761	10.458941	-45.422853	115.769035
56496	6.941221	1.248037	6.708993	0.005208	-0.008556	-0.001015	10.457102	-45.423666	115.768662
56497	6.973269	1.221617	6.743743	0.012402	-0.007989	-0.000400	10.458975	-45.424292	115.768862
56498	6.955808	1.240795	6.689114	0.007107	-0.008843	0.000754	10.457243	-45.425451	115.769867
56499	6.948873	1.230413	6.720354	0.009988	-0.006447	-0.001466	10.458183	-45.425101	115.769420
56500	6.968745	1.243014	6.728452	0.008034	-0.006391	0.000347	10.456956	-45.424836	115.770463
56501	6.963256	1.223125	6.700693	0.007160	-0.008612	-0.002830	10.457264	-45.425573	115.768629
56502	6.975795	1.224750	6.740562	0.008547	-0.007645	-0.000357	10.456866	-45.425941	115.768920
56503	6.958244	1.243988	6.685986	0.010499	-0.007702	-0.002172	10.458632	-45.426214	115.767721
56504	6.945191	1.253291	6.703903	0.009473	-0.005193	-0.000764	10.458738	-45.425158	115.768049
56505	6.951605	1.234524	6.716774	0.009986	-0.006447	-0.001468	10.459659	-45.424817	115.767636
56506	6.971496	1.247170	6.724831	0.006645	-0.007358	-0.002126	10.459152	-45.424839	115.766548
56507	6.997451	1.240149	6.746291	0.006362	-0.006846	0.000017	10.457248	-45.424845	115.767247
56508	6.952995	1.236230	6.715021	0.008545	-0.007645	-0.000358	10.456849	-45.425213	115.767537
56509	6.959508	1.257289	6.741503	0.006874	-0.008100	-0.000687	10.455758	-45.425859	115.767500
56510	6.946662	1.226430	6.745583	0.009056	-0.008899	-0.001063	10.456187	-45.426860	115.767038
56511	6.954538	1.238065	6.713084	0.009471	-0.005193	-0.000766	10.456328	-45.425858	115.767330
56512	6.941639	1.207207	6.717226	0.007616	-0.010097	0.000048	10.455424	-45.427649	115.767583
56513	6.975083	1.251054	6.720388	0.004691	-0.007301	-0.000312	10.452733	-45.427892	115.767989
56514	6.936625	1.227672	6.702576	0.009982	-0.006447	-0.001471	10.453668	-45.427469	115.767562
56515	6.968631	1.241400	6.751064	0.009054	-0.008899	-0.001064	10.454081	-45.428531	115.767117
56516	6.957138	1.240962	6.709854	0.006872	-0.008100	-0.000688	10.452961	-45.429121	115.767074
56517	6.951653	1.220993	6.682103	0.008541	-0.007644	-0.000361	10.452521	-45.429561	115.767424
56518	6.964188	1.222674	6.722011	0.008311	-0.006903	-0.001801	10.452735	-45.429360	115.766666
56519	6.945163	1.251351	6.726485	0.008541	-0.007644	-0.000361	10.452364	-45.429774	115.766955
56520	6.959117	1.243395	6.707351	0.008540	-0.007644	-0.000362	10.451964	-45.430141	115.767242
56521	6.959520	1.244036	6.706815	0.007567	-0.004907	-0.002537	10.451981	-45.428803	115.766178
56522	6.959902	1.244675	6.706299	0.006639	-0.007359	-0.002129	10.451474	-45.428825	115.765089
56523	6.979887	1.257289	6.714235	0.009051	-0.008899	-0.001066	10.451883	-45.429880	115.764661
56524	6.947612	1.214540	6.709725	0.009050	-0.008899	-0.001066	10.452311	-45.430881	115.764197
56525	6.967531	1.267261	6.731341	0.009978	-0.006447	-0.001475	10.453259	-45.430537	115.763731
56526	6.968033	1.227932	6.717065	0.008538	-0.007644	-0.000363	10.452859	-45.430903	115.764017
56527	6.949034	1.216636	6.707872	0.009977	-0.006447	-0.001476	10.453853	-45.430537	115.763533
56528	6.955581	1.237915	6.734285	0.010949	-0.009184	0.000699	10.454389	-45.431881	115.764444
56529	6.944016	1.237434	6.693120	0.008026	-0.006389	0.000340	10.453144	-45.431678	115.765524
56530	6.963928	1.249970	6.701133	0.006636	-0.007359	-0.002130	10.452635	-45.431701	115.764433
56531	6.951009	1.259224	6.718973	0.010717	-0.008443	-0.000742	10.453847	-45.432531	115.764233
56532	6.964913	1.251291	6.699863	0.006125	-0.006104	-0.001427	10.452510	-45.431920	115.763893
56533	6.925133	1.237547	6.741123	0.010436	-0.007928	0.001401	10.452183	-45.432713	115.765554
56534	6.965911	1.252446	6.698609	0.008535	-0.007644	-0.000365	10.451783	-45.433080	115.765838
56535	6.972563	1.233581	6.711327	0.009277	-0.009639	0.000371	10.476920	-45.432049	115.745761
56536	6.952235	1.231750	6.761209	0.005102	-0.003594	-0.000020	10.473948	-45.430167	115.746905
56537	6.966082	1.223853	6.742149	0.009604	-0.009929	-0.005357	10.477301	-45.431373	115.742735
56538	6.967852	1.254917	6.696127	0.009413	-0.005417	0.002807	10.475376	-45.430813	115.745877
56539	6.968267	1.255391	6.695607	0.008023	-0.006388	0.000338	10.474118	-45.430606	115.746944
56540	6.948005	1.213629	6.731833	0.008533	-0.007644	-0.000366	10.473738	-45.430969	115.747208
56541	6.969159	1.256589	6.694454	0.009460	-0.005192	-0.000777	10.473825	-45.429979	115.747583
56542	6.968286	1.226871	6.739321	0.008022	-0.006388	0.000337	10.472618	-45.429709	115.748598
56543	6.950476	1.245835	6.684852	0.008069	-0.006164	-0.003247	10.473451	-45.428988	115.746872
56544	6.962977	1.247568	6.724853	0.007511	-0.005133	0.001040	10.471416	-45.428084	115.748638
56545	6.969531	1.228675	6.737705	0.009042	-0.008899	-0.001071	10.471859	-45.429178	115.748088
56546	6.963958	1.248725	6.723623	0.008021	-0.006388	0.000336	10.470651	-45.428907	115.749102
56547	6.958317	1.228692	6.696041	0.009690	-0.005932	0.000661	10.470138	-45.428497	115.750442
56548	6.970888	1.230483	6.735972	0.008299	-0.006904	-0.001808	10.470371	-45.428294	115.749658
56549	6.959204	1.269972	6.708458	0.006861	-0.008100	-0.000693	10.469236	-45.428966	115.749609
56550	6.952431	1.259768	6.739722	0.010709	-0.008442	-0.000747	10.470406	-45.429740	115.749449
56551	6.985846	1.223805	6.715511	0.006629	-0.007360	-0.002133	10.469923	-45.429820	115.748334
56552	6.980244	1.243843	6.701442	0.008529	-0.007643	-0.000369	10.469542	-45.430183	115.748597
56553	6.934508	1.249689	6.729235	0.009038	-0.008899	-0.001073	10.469974	-45.431264	115.748096
56554	6.954436	1.222159	6.723643	0.006999	-0.003876	0.001742	10.467112	-45.429724	115.750611
56555	6.962112	1.273643	6.704743	0.010475	-0.007703	-0.002189	10.468873	-45.430007	115.749415
56556	6.941885	1.232058	6.741034	0.008018	-0.006387	0.000334	10.467665	-45.429735	115.750428
56557	6.949670	1.243313	6.708497	0.006580	-0.007583	0.001450	10.465110	-45.430326	115.752146
56558	6.942853	1.233002	6.739865	0.008295	-0.006904	-0.001810	10.465342	-45.430123	115.751360
56559	6.956627	1.225121	6.720837	0.011123	-0.004735	-0.000459	10.466219	-45.428863	115.752123
56560	6.970491	1.217238	6.701714	0.010936	-0.009181	0.000690	10.466775	-45.430202	115.753007
56561	6.944335	1.235066	6.737960	0.005697	-0.009812	-0.001721	10.465790	-45.431708	115.751813
56562	6.965611	1.238110	6.686716	0.012926	-0.009020	-0.004715	10.470561	-45.432394	115.748381
56563	6.958762	1.268173	6.731607	0.007507	-0.005131	0.001036	10.468551	-45.431539	115.750122
56564	6.966493	1.239434	6.685552	0.008524	-0.007643	-0.000371	10.468170	-45.431902	115.750382
56565	6.965776	1.249906	6.743917	0.008292	-0.006904	-0.001812	10.468374	-45.431748	115.749718
56566	6.973511	1.221328	6.697828	0.008292	-0.006904	-0.001812	10.468605	-45.431545	115.748931
56567	6.960514	1.230638	6.715803	0.009451	-0.005191	-0.000786	10.468707	-45.430565	115.749243
56568	6.960996	1.231326	6.715177	0.010933	-0.009180	0.000687	10.469262	-45.431905	115.750125
56569	6.955474	1.251392	6.700976	0.010423	-0.007924	0.001390	10.468997	-45.432655	115.751804
56570	6.955923	1.251945	6.700406	0.004212	-0.005824	-0.003195	10.467568	-45.431699	115.750067
56571	6.956386	1.252453	6.699831	0.008754	-0.008381	0.001067	10.466576	-45.432715	115.751294
56572	6.969112	1.254286	6.739656	0.008289	-0.006904	-0.001813	10.466806	-45.432512	115.750506
56573	6.976845	1.225682	6.693559	0.010190	-0.007185	-0.000051	10.467153	-45.432711	115.751095
56574	6.957806	1.254250	6.698020	0.007736	-0.005868	0.002473	10.464505	-45.432370	115.753902
56575	6.957079	1.224619	6.742951	0.009957	-0.006448	-0.001492	10.465417	-45.432030	115.753454
56576	6.945339	1.223968	6.701876	0.005183	-0.008556	-0.001018	10.463587	-45.432840	115.753060
56577	6.938628	1.253913	6.746678	0.012365	-0.007985	-0.000434	10.465478	-45.433430	115.753268
56578	6.965864	1.237188	6.709049	0.006067	-0.006324	0.002151	10.462106	-45.433313	115.755749
56579	6.966310	1.237657	6.708500	0.008286	-0.006905	-0.001815	10.462338	-45.433180	115.754954
56580	6.966737	1.238384	6.707922	0.009955	-0.006448	-0.001494	10.463292	-45.432753	115.754491
56581	6.967136	1.238941	6.707405	0.005834	-0.005586	0.000710	10.460527	-45.432148	115.755890
56582	6.967548	1.239453	6.706882	0.008285	-0.006905	-0.001816	10.460757	-45.431945	115.755100
56583	6.948412	1.228153	6.697924	0.009213	-0.004454	-0.002232	10.461453	-45.430376	115.754441
56584	6.955013	1.249473	6.724276	0.007590	-0.010093	0.000040	10.460559	-45.432162	115.754668
56585	6.955560	1.250113	6.723591	0.009953	-0.006448	-0.001495	10.461442	-45.431821	115.754243
56586	6.969346	1.242103	6.704523	0.008009	-0.006385	0.000327	10.460233	-45.431548	115.755250
56587	6.956455	1.211311	6.708964	0.008791	-0.008161	-0.002520	10.461296	-45.432060	115.753677
56588	6.950843	1.271480	6.708266	0.008516	-0.007642	-0.000377	10.460913	-45.432422	115.753934
56589	6.970755	1.244066	6.702695	0.009443	-0.005191	-0.000793	10.460993	-45.431446	115.754256
56590	6.971215	1.244750	6.702089	0.009023	-0.008898	-0.001080	10.461436	-45.432443	115.753761
56591	6.958280	1.214046	6.706577	0.009210	-0.004454	-0.002234	10.462156	-45.430863	115.753052
56592	6.971990	1.246157	6.701021	0.004712	-0.007083	-0.003899	10.461549	-45.430543	115.750563
56593	6.966326	1.226178	6.673449	0.012358	-0.007983	-0.000440	10.463456	-45.431136	115.750755
56594	6.953462	1.235399	6.691348	0.006065	-0.006322	0.002149	10.460084	-45.431017	115.753235
56595	6.946777	1.225099	6.722737	0.007353	-0.009356	-0.001401	10.459801	-45.432296	115.752456
56596	6.980175	1.229194	6.711946	0.010455	-0.007704	-0.002202	10.461580	-45.432503	115.751237
56597	6.961153	1.258021	6.716325	0.008280	-0.006905	-0.001819	10.461780	-45.432380	115.750447
56598	6.961614	1.258707	6.715718	0.010181	-0.007184	-0.000059	10.462120	-45.432517	115.751026
56599	6.948739	1.227966	6.720186	0.010180	-0.007184	-0.000059	10.462456	-45.432737	115.751574
56600	6.949091	1.228611	6.719704	0.007032	-0.003655	-0.001854	10.461646	-45.430698	115.751235
56601	6.976119	1.251920	6.695648	0.008005	-0.006384	0.000324	10.460422	-45.430497	115.752255
56602	6.963256	1.261285	6.713531	0.012354	-0.007983	-0.000444	10.462312	-45.431044	115.752406
56603	6.969745	1.242678	6.726547	0.006797	-0.002919	-0.003295	10.462108	-45.428516	115.751005
56604	6.944429	1.250652	6.704163	0.008511	-0.007641	-0.000380	10.461724	-45.428877	115.751259
56605	6.964425	1.223188	6.698532	0.008510	-0.007641	-0.000380	10.461367	-45.429302	115.751476
56606	6.951631	1.232510	6.716362	0.009017	-0.008898	-0.001083	10.461807	-45.430298	115.750978
56607	6.964481	1.234556	6.756115	0.010177	-0.007183	-0.000062	10.462074	-45.430501	115.751667
56608	6.978415	1.266582	6.750274	0.007581	-0.010091	0.000038	10.461176	-45.432286	115.751893
56609	6.947070	1.253888	6.700822	0.009476	-0.004976	-0.004385	10.463337	-45.430777	115.749381
56610	6.940230	1.203819	6.718979	0.008002	-0.006384	0.000322	10.462127	-45.430503	115.750385
56611	7.006343	1.251304	6.711544	0.009942	-0.006447	-0.001504	10.463037	-45.430145	115.749949
56612	6.941082	1.245269	6.731248	0.009669	-0.005926	0.000640	10.462552	-45.429646	115.751276
56613	6.954856	1.237221	6.712156	0.010175	-0.007183	-0.000063	10.462937	-45.429836	115.751841
56614	6.955318	1.237906	6.711551	0.008273	-0.006905	-0.001823	10.463164	-45.429632	115.751046
56615	6.981491	1.231196	6.732823	0.008741	-0.008376	0.001059	10.462114	-45.430640	115.752372
56616	6.968642	1.240538	6.750726	0.008039	-0.006170	-0.003264	10.462953	-45.429872	115.750528
56617	6.962876	1.260673	6.736640	0.009940	-0.006447	-0.001505	10.463906	-45.429508	115.750057
56618	6.957175	1.240599	6.709129	0.010407	-0.007918	0.001376	10.463633	-45.430207	115.751679
56619	6.950525	1.230542	6.740543	0.006604	-0.007363	-0.002141	10.463121	-45.430296	115.750563
56620	6.950956	1.231094	6.739997	0.006098	-0.006106	-0.001439	10.461797	-45.429682	115.750194
56621	6.958528	1.242343	6.707402	0.008271	-0.006905	-0.001824	10.462023	-45.429536	115.749437
56622	6.958965	1.242941	6.706839	0.007999	-0.006383	0.000319	10.460813	-45.429260	115.750439
56623	6.953124	1.222810	6.679482	0.009198	-0.004455	-0.002245	10.461552	-45.427690	115.749690
56624	6.972126	1.245737	6.746169	0.010911	-0.009174	0.000671	10.462104	-45.429025	115.750561
56625	6.954095	1.224133	6.678228	0.007998	-0.006383	0.000319	10.460834	-45.428834	115.751595
56626	6.954600	1.264951	6.690924	0.012343	-0.007982	-0.000453	10.462723	-45.429379	115.751739
56627	6.967391	1.226978	6.717418	0.007763	-0.005648	-0.001123	10.462091	-45.428607	115.751737
56628	6.948305	1.255603	6.721869	0.007997	-0.006383	0.000318	10.460880	-45.428331	115.752737
56629	6.935391	1.224829	6.726518	0.009935	-0.006448	-0.001509	10.461839	-45.427989	115.752200
56630	6.988151	1.240894	6.724128	0.007996	-0.006382	0.000318	10.460628	-45.427714	115.753201
56631	6.955824	1.238189	6.733673	0.010673	-0.008440	-0.000772	10.461809	-45.428570	115.752963
56632	6.963488	1.249493	6.700924	0.008501	-0.007640	-0.000385	10.461421	-45.428930	115.753212
56633	6.970135	1.230706	6.713888	0.007995	-0.006382	0.000317	10.460195	-45.428737	115.754183
56634	6.931550	1.247473	6.709946	0.011870	-0.006513	-0.003338	10.463308	-45.428155	115.752229
56635	6.951469	1.260188	6.717739	0.004156	-0.006041	0.000387	10.459844	-45.427748	115.753325
56636	6.938560	1.229240	6.722443	0.008265	-0.006906	-0.001827	10.460069	-45.427544	115.752525
56637	6.971806	1.233313	6.711674	0.009932	-0.006448	-0.001512	10.460951	-45.427194	115.752108
56638	6.972229	1.233956	6.711117	0.007994	-0.006382	0.000316	10.459739	-45.426918	115.753107
56639	6.939823	1.231301	6.720763	0.011598	-0.005989	-0.001197	10.461422	-45.426337	115.752941
56640	6.947334	1.242455	6.688167	0.004155	-0.006041	0.000387	10.457934	-45.425876	115.754047
56641	6.954109	1.263782	6.714330	0.011409	-0.010431	-0.000036	10.459327	-45.427924	115.754115
56642	6.967052	1.225760	6.740756	0.007993	-0.006382	0.000315	10.458115	-45.427648	115.755113
56643	6.955058	1.265061	6.713107	0.006126	-0.005898	-0.005026	10.458868	-45.426581	115.751908
56644	6.961669	1.246411	6.726112	0.008497	-0.007639	-0.000388	10.458480	-45.426940	115.752156
56645	6.962132	1.206983	6.712206	0.010433	-0.007706	-0.002217	10.460247	-45.427202	115.750952
56646	6.956475	1.267192	6.711236	0.008496	-0.007639	-0.000388	10.459859	-45.427562	115.751199
56647	6.943533	1.236382	6.715996	0.008919	-0.003931	-0.000110	10.459215	-45.425934	115.752133
56648	6.976710	1.240284	6.705291	0.009893	-0.006656	0.002070	10.458117	-45.425995	115.754499
56649	6.950567	1.218179	6.728498	0.006593	-0.007365	-0.002145	10.457616	-45.426075	115.753406
56650	6.964438	1.250265	6.722529	0.007601	-0.009881	-0.003550	10.458760	-45.427369	115.750782
56651	6.951677	1.219533	6.727105	0.008494	-0.007639	-0.000390	10.458367	-45.427813	115.750989
56652	6.953115	1.249929	6.680762	0.007062	-0.008831	0.000737	10.456640	-45.428960	115.751963
56653	6.959950	1.271324	6.706851	0.008997	-0.008897	-0.001093	10.457059	-45.430034	115.751447
56654	6.972839	1.233461	6.733363	0.011591	-0.005989	-0.001203	10.458736	-45.429378	115.751284
56655	6.953814	1.222095	6.724431	0.007330	-0.009356	-0.001407	10.458488	-45.430643	115.750433
56656	6.967669	1.254188	6.718449	0.011826	-0.006722	0.000237	10.459553	-45.430550	115.751318
56657	6.949394	1.232562	6.650678	0.009923	-0.006448	-0.001518	10.460497	-45.430184	115.750840
56658	6.974743	1.236167	6.730895	0.006054	-0.006313	0.002141	10.457122	-45.430060	115.753315
56659	6.955733	1.224541	6.722002	0.008995	-0.008897	-0.001094	10.457494	-45.431126	115.752887
56660	6.956242	1.225139	6.721366	0.007988	-0.006381	0.000311	10.456282	-45.430848	115.753882
56661	6.983306	1.248417	6.696911	0.008758	-0.008165	-0.002536	10.457339	-45.431346	115.752294
56662	6.943961	1.235229	6.738625	0.008490	-0.007639	-0.000392	10.456950	-45.431705	115.752538
56663	6.951512	1.246409	6.705881	0.010156	-0.007180	-0.000079	10.457340	-45.431900	115.753027
56664	6.971437	1.218801	6.700402	0.004150	-0.006040	0.000386	10.453850	-45.431438	115.754133
56665	6.971900	1.259490	6.713065	0.009920	-0.006448	-0.001521	10.454817	-45.431062	115.753651
56666	6.978614	1.240913	6.726006	0.008992	-0.008897	-0.001095	10.455250	-45.432056	115.753144
56667	6.959596	1.229493	6.717098	0.008253	-0.006907	-0.001835	10.455466	-45.431901	115.752375
56668	6.953781	1.249433	6.702965	0.007750	-0.005648	-0.001132	10.454865	-45.431061	115.752320
56669	6.967477	1.241251	6.683878	0.008488	-0.007639	-0.000394	10.454451	-45.431502	115.752572
56670	6.947600	1.240156	6.733968	0.009415	-0.005189	-0.000820	10.454577	-45.430436	115.752835
56671	6.947959	1.240850	6.733469	0.011317	-0.005462	0.000933	10.454864	-45.429765	115.754418
56672	6.975002	1.223883	6.695763	0.007559	-0.010088	0.000033	10.453956	-45.431547	115.754640
56673	6.949036	1.242092	6.732129	0.009917	-0.006448	-0.001524	10.454815	-45.431197	115.754205
56674	6.988550	1.226848	6.734792	0.008989	-0.008897	-0.001097	10.455247	-45.432192	115.753697
56675	6.950046	1.243418	6.730842	0.007983	-0.006380	0.000307	10.454004	-45.431983	115.754728
56676	6.944193	1.223033	6.703546	0.007983	-0.006380	0.000307	10.452791	-45.431705	115.755720
56677	6.964166	1.235741	6.711211	0.008249	-0.006907	-0.001837	10.453006	-45.431568	115.754913
56678	6.964654	1.236335	6.710595	0.006818	-0.008098	-0.000707	10.451887	-45.432152	115.754836
56679	6.971437	1.257921	6.736707	0.008514	-0.007435	-0.003981	10.453460	-45.432121	115.752250
56680	6.971781	1.218368	6.723035	0.007480	-0.005120	0.001009	10.451425	-45.431206	115.753992
56681	6.965943	1.238126	6.708927	0.007982	-0.006379	0.000306	10.450212	-45.430993	115.754984
56682	6.959288	1.228369	6.740564	0.009441	-0.004986	-0.004410	10.452385	-45.429439	115.752395
56683	6.959632	1.229144	6.740067	0.009647	-0.005920	0.000617	10.451862	-45.429027	115.753695
56684	6.986662	1.252430	6.715509	0.010651	-0.008438	-0.000788	10.453020	-45.429795	115.753503
56685	6.967569	1.241041	6.706700	0.009410	-0.005189	-0.000825	10.453166	-45.428787	115.753760
56686	6.960993	1.231295	6.738269	0.008747	-0.008166	-0.002541	10.454208	-45.429219	115.752201
56687	6.961579	1.231977	6.737539	0.009220	-0.009628	0.000342	10.454062	-45.430827	115.752718
56688	6.962832	1.262363	6.691136	0.009409	-0.005189	-0.000826	10.454189	-45.429760	115.752976
56689	6.969466	1.243856	6.704207	0.008510	-0.007436	-0.003983	10.455791	-45.429711	115.750383
56690	6.930943	1.260541	6.700262	0.010383	-0.007909	0.001354	10.455515	-45.430404	115.751989
56691	6.957161	1.253908	6.721538	0.005575	-0.004848	-0.000746	10.453326	-45.429214	115.752418
56692	6.970759	1.245693	6.702521	0.009909	-0.006448	-0.001530	10.454274	-45.428783	115.751925
56693	6.983825	1.247962	6.742227	0.007050	-0.008828	0.000733	10.452534	-45.430002	115.752869
56694	6.971749	1.246799	6.701286	0.007741	-0.005648	-0.001138	10.451932	-45.429162	115.752809
56695	6.951958	1.205549	6.738276	0.007314	-0.009357	-0.001411	10.451681	-45.430432	115.751947
56696	6.971905	1.258534	6.759075	0.007930	-0.001210	-0.002308	10.451388	-45.426969	115.751605
56697	6.933802	1.224331	6.683404	0.007050	-0.008827	0.000733	10.449671	-45.428151	115.752613
56698	6.979678	1.229832	6.712746	0.006575	-0.007367	-0.002151	10.449162	-45.428174	115.751485
56699	6.921606	1.234381	6.700640	0.012310	-0.007978	-0.000482	10.451098	-45.428775	115.751558
56700	6.974441	1.250547	6.697785	0.008477	-0.007637	-0.000400	10.450705	-45.429132	115.751796
56701	6.981203	1.231883	6.710784	0.008477	-0.007637	-0.000400	10.450240	-45.429569	115.752086
56702	6.942648	1.248392	6.706917	0.007976	-0.006378	0.000302	10.449026	-45.429289	115.753074
56703	6.962591	1.260998	6.714586	0.007475	-0.005118	0.001003	10.447005	-45.428460	115.754746
56704	6.969213	1.242341	6.727737	0.008002	-0.006178	-0.003284	10.447835	-45.427695	115.752885
56705	6.950219	1.231011	6.718852	0.009978	-0.011416	-0.002507	10.449850	-45.430051	115.750876
56706	6.976672	1.224619	6.739856	0.010378	-0.007907	0.001349	10.449574	-45.430742	115.752479
56707	6.938032	1.241173	6.736076	0.006999	-0.003659	-0.001881	10.448746	-45.428772	115.752137
56708	6.964791	1.224142	6.698555	0.008237	-0.006908	-0.001844	10.448964	-45.428568	115.751324
56709	6.965227	1.224739	6.697993	0.007974	-0.006377	0.000300	10.447808	-45.428312	115.752324
56710	6.965682	1.225338	6.697410	0.010139	-0.007177	-0.000093	10.448144	-45.428442	115.752877
56711	6.978765	1.227675	6.737132	0.009876	-0.006647	0.002050	10.447007	-45.428556	115.755273
56712	6.927021	1.253029	6.751788	0.008473	-0.007637	-0.000402	10.446614	-45.428912	115.755509
56713	6.980401	1.258439	6.690094	0.007972	-0.006377	0.000299	10.445359	-45.428742	115.756439
56714	6.947276	1.226053	6.745902	0.005094	-0.003391	-0.003633	10.444429	-45.426370	115.754710
56715	6.960815	1.217849	6.726910	0.010138	-0.007177	-0.000095	10.444795	-45.426550	115.755258
56716	6.955054	1.237689	6.712620	0.006807	-0.008097	-0.000711	10.443672	-45.427133	115.755178
56717	6.981388	1.231190	6.733772	0.010137	-0.007177	-0.000095	10.444013	-45.427351	115.755670
56718	6.975540	1.251075	6.719556	0.007734	-0.005648	-0.001144	10.443410	-45.426510	115.755605
56719	6.975809	1.211480	6.706072	0.009399	-0.005188	-0.000836	10.443570	-45.425511	115.755825
56720	6.956785	1.240124	6.710376	0.005140	-0.008557	-0.001019	10.441717	-45.426322	115.755429
56721	6.957273	1.240718	6.709760	0.009898	-0.006448	-0.001539	10.442683	-45.425930	115.754958
56722	6.944489	1.250347	6.727721	0.009898	-0.006448	-0.001539	10.443630	-45.425499	115.754458
56723	6.971365	1.233140	6.690061	0.004877	-0.008025	0.001124	10.440421	-45.426343	115.755691
56724	6.958685	1.242467	6.707971	0.010134	-0.007177	-0.000098	10.440756	-45.426472	115.756240
56725	6.945915	1.251971	6.725947	0.007731	-0.005648	-0.001145	10.440136	-45.425677	115.756215
56726	6.965824	1.224477	6.720519	0.008469	-0.007637	-0.000405	10.439741	-45.426034	115.756449
56727	6.960037	1.244348	6.706220	0.010133	-0.007177	-0.000098	10.440046	-45.426216	115.757041
56728	6.954208	1.264211	6.691961	0.004662	-0.007101	-0.003904	10.439414	-45.425907	115.754546
56729	6.947769	1.214405	6.710475	0.013296	-0.010497	-0.001898	10.442804	-45.427795	115.753315
56730	6.954651	1.236027	6.736476	0.003639	-0.004776	0.001086	10.438488	-45.426694	115.755169
56731	6.948787	1.255636	6.722296	0.008467	-0.007637	-0.000406	10.438043	-45.427147	115.755417
56732	6.962432	1.247449	6.703157	0.009894	-0.006448	-0.001542	10.438989	-45.426715	115.754914
56733	6.969157	1.228824	6.716269	0.006302	-0.006836	-0.000012	10.436946	-45.426737	115.755669
56734	6.963337	1.248600	6.702003	0.010131	-0.007176	-0.000101	10.437281	-45.426865	115.756215
56735	6.950564	1.258164	6.719985	0.009393	-0.005188	-0.000841	10.437414	-45.425869	115.756433
56736	6.950922	1.218459	6.706474	0.005135	-0.008557	-0.001020	10.435557	-45.426680	115.756038
56737	6.977916	1.241596	6.681662	0.012294	-0.007976	-0.000497	10.437430	-45.427278	115.756188
56738	6.932637	1.247915	6.709852	0.008035	-0.011345	-0.000675	10.437332	-45.429696	115.755657
56739	6.978575	1.213272	6.726039	0.006300	-0.006836	-0.000013	10.435400	-45.429695	115.756335
56740	6.953292	1.261094	6.716614	0.008464	-0.007636	-0.000409	10.435004	-45.430050	115.756566
56741	6.992837	1.245759	6.719197	0.008463	-0.007636	-0.000409	10.434546	-45.430517	115.756777
56742	6.941014	1.230824	6.720994	0.006299	-0.006836	-0.000013	10.432599	-45.430463	115.757444
56743	6.947897	1.252389	6.747007	0.008463	-0.007636	-0.000409	10.432262	-45.430857	115.757661
56744	6.974649	1.235385	6.709361	0.011315	-0.005261	-0.002683	10.434551	-45.429638	115.756417
56745	6.961961	1.244998	6.727267	0.005631	-0.009818	-0.001722	10.433433	-45.431168	115.755325
