// General information: 
//  MT Manager version: 2022.2.0 
//  XDA version: 2022.2.0 build 7381 rev 124627 built on 2023-07-19
// Device information: 
//  DeviceId: 00B4BA83
//  ProductCode: MTW2-3A7G6
//  Firmware Version: 4.6.0
//  Hardware Version: 2.0.0
// Device settings: 
//  Filter Profile: human(46.1)
//  Option Flags: Orientation Smoother Disabled, Position/Velocity Smoother Disabled, Continuous Zero Rotation Update Disabled, AHS Disabled, ICC Disabled
// Coordinate system: ENU
PacketCounter	Acc_X	Acc_Y	Acc_Z	Gyr_X	Gyr_Y	Gyr_Z	Roll	Pitch	Yaw
56798	9.671903	-0.136264	-0.073986	-0.000673	-0.000784	-0.007042	-138.237994	-88.853665	-112.029491
56799	9.753211	-0.134324	-0.115186	-0.003592	0.010048	-0.007153	-138.111935	-88.856228	-112.155920
56800	9.779183	-0.140004	-0.093054	-0.003780	-0.004408	-0.006343	-138.246967	-88.852274	-112.021355
56801	9.828262	-0.147009	-0.126105	-0.001842	0.009093	-0.010983	-138.220178	-88.855893	-112.047493
56802	9.689064	-0.097054	-0.109514	-0.002869	0.003398	-0.005114	-138.179282	-88.854788	-112.088353
56803	9.704198	-0.123577	-0.080521	-0.000950	0.002639	-0.007183	-138.193960	-88.854199	-112.072504
56804	9.817476	-0.165701	-0.118015	-0.003825	0.004531	-0.006819	-138.166814	-88.854268	-112.100140
56805	9.790083	-0.115618	-0.098044	-0.003036	0.003202	-0.006875	-138.165373	-88.853802	-112.101608
56806	9.727350	-0.122976	-0.134513	-0.004781	0.005663	-0.008524	-138.154020	-88.854993	-112.113999
56807	9.710519	-0.105167	-0.109315	-0.001628	0.000349	-0.008748	-138.246265	-88.854023	-112.020955
56808	9.770434	-0.091529	-0.149168	-0.003657	0.004726	-0.005059	-138.177421	-88.853502	-112.090184
56809	9.808452	-0.172716	-0.162901	-0.008954	0.006788	-0.007910	-138.132920	-88.854961	-112.138112
56810	9.731962	-0.114745	-0.109382	0.000070	0.006828	-0.007575	-138.075448	-88.856315	-112.193861
56811	9.716844	-0.086932	-0.137633	-0.004334	0.002436	-0.006625	-138.084131	-88.855426	-112.185947
56812	9.770249	-0.142000	-0.135066	-0.005123	0.003764	-0.006569	-138.067680	-88.855071	-112.203657
56813	9.793396	-0.142833	-0.189871	-0.006421	0.002998	-0.006318	-138.060252	-88.854304	-112.213054
56814	9.740011	-0.086384	-0.191787	-0.003992	0.004335	-0.008582	-138.076296	-88.854908	-112.197587
56815	9.733752	-0.101037	-0.161191	-0.005290	0.003568	-0.008331	-138.100235	-88.855155	-112.174962
56816	9.750628	-0.117318	-0.185831	-0.002080	0.002069	-0.005172	-138.083574	-88.853538	-112.191077
56817	9.781141	-0.117637	-0.140114	-0.002185	0.007195	-0.009030	-138.051165	-88.855598	-112.223032
56818	9.782889	-0.106585	-0.193353	-0.001626	0.000350	-0.008751	-138.144100	-88.854625	-112.129308
56819	9.722991	-0.118925	-0.152941	-0.003149	0.006820	-0.005256	-138.038967	-88.855082	-112.234553
56820	9.729280	-0.102913	-0.182621	-0.001571	0.004164	-0.005368	-137.986385	-88.854442	-112.286332
56821	9.793536	-0.137184	-0.186772	-0.001738	0.003968	-0.007130	-137.975016	-88.854399	-112.296987
56822	9.748985	-0.123504	-0.129679	-0.002360	0.005491	-0.005313	-137.895172	-88.854324	-112.376465
56823	9.749000	-0.122811	-0.129165	-0.002694	0.005100	-0.008836	-137.898876	-88.855418	-112.372591
56824	9.727598	-0.110480	-0.127230	0.000516	0.003602	-0.005676	-137.862249	-88.854664	-112.407218
56825	9.759640	-0.153656	-0.123140	-0.003537	0.002614	-0.012165	-137.985077	-88.855978	-112.284679
56826	9.798158	-0.128102	-0.161307	-0.000273	0.004930	-0.005620	-137.922926	-88.855750	-112.345295
56827	9.749057	-0.119761	-0.127720	-0.004333	0.002434	-0.006629	-137.931849	-88.854862	-112.337141
56828	9.733740	-0.145129	-0.143980	-0.003992	0.004333	-0.008586	-137.946630	-88.855519	-112.322949
56829	9.759887	-0.097436	-0.133803	-0.001738	0.003968	-0.007131	-137.935295	-88.855476	-112.333569
56830	9.759720	-0.149994	-0.121322	-0.005123	0.003762	-0.006574	-137.918739	-88.855096	-112.351329
56831	9.749113	-0.116753	-0.126280	-0.005456	0.003370	-0.010098	-137.984193	-88.855937	-112.287276
56832	9.744601	-0.121232	-0.149528	-0.002754	-0.000221	-0.006742	-138.045975	-88.853905	-112.225285
56833	9.775082	-0.121653	-0.103962	-0.004448	0.006051	-0.005008	-137.951080	-88.853935	-112.321035
56834	9.792001	-0.137791	-0.128467	-0.001281	0.002249	-0.010712	-138.048845	-88.854501	-112.222232
56835	9.749164	-0.113710	-0.125084	-0.002527	0.005295	-0.007077	-138.011362	-88.855004	-112.259458
56836	9.749177	-0.113026	-0.124673	-0.003035	0.003200	-0.006882	-138.010834	-88.854524	-112.260017
56837	9.749189	-0.112263	-0.124438	-0.002412	0.001677	-0.008700	-138.077179	-88.854107	-112.193328
56838	9.766115	-0.128404	-0.149046	-0.003825	0.004528	-0.006827	-138.049691	-88.854187	-112.221290
56839	9.760001	-0.090095	-0.130620	-0.002079	0.002068	-0.005176	-138.033290	-88.852586	-112.237174
56840	9.744711	-0.115618	-0.146800	-0.003318	0.006622	-0.007022	-137.970294	-88.853640	-112.300404
56841	9.734081	-0.082285	-0.151722	-0.006129	0.001079	-0.011669	-138.113439	-88.854105	-112.159030
56842	9.766175	-0.125472	-0.147595	-0.004449	0.006050	-0.005010	-138.018924	-88.854131	-112.254404
56843	9.757171	-0.135486	-0.193951	-0.003035	0.003200	-0.006884	-138.017771	-88.853667	-112.255584
56844	9.738494	-0.128144	-0.115140	-0.003035	0.003200	-0.006884	-138.016131	-88.853216	-112.257242
56845	9.766219	-0.123362	-0.146486	-0.004158	0.004136	-0.010354	-138.071589	-88.854480	-112.202443
56846	9.740293	-0.116217	-0.167992	-0.001738	0.003968	-0.007135	-138.060139	-88.854449	-112.213179
56847	9.772525	-0.106190	-0.175911	-0.001904	0.003772	-0.008898	-138.090304	-88.854999	-112.182387
56848	9.766267	-0.120933	-0.145342	-0.001738	0.003967	-0.007135	-138.080265	-88.854929	-112.191722
56849	9.738567	-0.124032	-0.113423	-0.003874	0.000714	-0.010216	-138.198223	-88.854678	-112.074247
56850	9.761794	-0.124630	-0.168195	-0.004450	0.006049	-0.005012	-138.103663	-88.854715	-112.169673
56851	9.770807	-0.113446	-0.121005	-0.002245	0.001873	-0.006941	-138.128627	-88.853706	-112.144278
56852	9.734106	-0.127310	-0.135839	-0.001738	0.003967	-0.007136	-138.117157	-88.853661	-112.155009
56853	9.738617	-0.121327	-0.112089	-0.003035	0.003199	-0.006886	-138.116028	-88.853198	-112.156165
56854	9.744904	-0.105020	-0.141876	-0.002694	0.005099	-0.008844	-138.119631	-88.854319	-112.152401
56855	9.781537	-0.142933	-0.114223	-0.003826	0.004526	-0.006831	-138.092410	-88.854400	-112.180107
56856	9.708225	-0.118153	-0.156201	-0.004332	0.002431	-0.006637	-138.101175	-88.853537	-112.172131
56857	9.755625	-0.135245	-0.135535	-0.003200	0.003004	-0.008650	-138.141480	-88.853665	-112.131939
56858	9.755641	-0.134397	-0.135246	-0.003200	0.003004	-0.008650	-138.181039	-88.853796	-112.092456
56859	9.766420	-0.112788	-0.141559	-0.003320	0.006620	-0.007027	-138.117667	-88.854846	-112.156030
56860	9.755675	-0.132859	-0.134316	-0.003200	0.003004	-0.008651	-138.157127	-88.854990	-112.116658
56861	9.766451	-0.111148	-0.140662	-0.001397	0.005867	-0.009096	-138.151208	-88.856509	-112.121665
56862	9.760194	-0.126002	-0.109965	-0.003660	0.004720	-0.005069	-138.082970	-88.855986	-112.190299
56863	9.787931	-0.121508	-0.141251	-0.002869	0.003394	-0.005125	-138.040469	-88.854931	-112.232740
56864	9.734279	-0.118659	-0.131206	-0.004331	0.002430	-0.006639	-138.050422	-88.854037	-112.223578
56865	9.777202	-0.141023	-0.133809	-0.004782	0.005656	-0.008542	-138.038541	-88.855254	-112.236489
56866	9.766518	-0.107778	-0.138666	-0.003200	0.003003	-0.008652	-138.080181	-88.855352	-112.194967
56867	9.751301	-0.133155	-0.154943	-0.003826	0.004525	-0.006834	-138.053016	-88.855433	-112.222617
56868	9.755794	-0.127105	-0.131171	-0.003199	0.003003	-0.008653	-138.094328	-88.855555	-112.181443
56869	9.755809	-0.126256	-0.130882	-0.003199	0.003003	-0.008653	-138.134788	-88.855684	-112.141096
56870	9.771046	-0.099342	-0.113900	-0.001738	0.003967	-0.007139	-138.123824	-88.855631	-112.151328
56871	9.746891	-0.135376	-0.176955	-0.003826	0.004524	-0.006835	-138.096686	-88.855713	-112.178951
56872	9.751379	-0.129423	-0.153211	-0.004331	0.002429	-0.006641	-138.105966	-88.854833	-112.170448
56873	9.766607	-0.102530	-0.136302	-0.003199	0.003003	-0.008654	-138.146427	-88.854962	-112.130099
56874	9.746938	-0.133111	-0.176074	-0.003199	0.003003	-0.008655	-138.187177	-88.855083	-112.089458
56875	9.783628	-0.117817	-0.160568	-0.001573	0.004162	-0.005376	-138.134548	-88.854453	-112.141286
56876	9.755904	-0.121247	-0.128548	-0.003034	0.003198	-0.006891	-138.134335	-88.853954	-112.141501
56877	9.781849	-0.126818	-0.106318	-0.003034	0.003198	-0.006891	-138.133344	-88.853492	-112.142519
56878	9.751465	-0.125185	-0.151216	-0.004618	0.005850	-0.006782	-138.080339	-88.854112	-112.196457
56879	9.747017	-0.129785	-0.174219	-0.000946	0.002641	-0.007196	-138.095308	-88.853529	-112.180315
56880	9.751494	-0.123798	-0.150485	-0.001738	0.003967	-0.007141	-138.084984	-88.853475	-112.189931
56881	9.772978	-0.134652	-0.151601	-0.005122	0.003754	-0.006588	-138.068122	-88.853134	-112.208019
56882	9.772993	-0.133901	-0.151276	-0.003199	0.003003	-0.008657	-138.109341	-88.853261	-112.166938
56883	9.730067	-0.110088	-0.147938	-0.003826	0.004523	-0.006838	-138.082341	-88.853343	-112.194424
56884	9.751553	-0.120927	-0.149015	-0.001738	0.003967	-0.007142	-138.071520	-88.853274	-112.204489
56885	9.751567	-0.120240	-0.148669	-0.003034	0.003197	-0.006893	-138.070602	-88.852812	-112.205432
56886	9.751581	-0.119465	-0.148332	-0.001902	0.003772	-0.008907	-138.101304	-88.853358	-112.174101
56887	9.751592	-0.118886	-0.148052	-0.005298	0.002047	-0.002867	-138.038003	-88.850864	-112.238739
56888	9.756059	-0.113092	-0.124142	-0.000729	0.008158	-0.007531	-137.953569	-88.852802	-112.321912
56889	9.745351	-0.132993	-0.117001	-0.001942	-0.000039	-0.012297	-138.128942	-88.853032	-112.145903
56890	9.768666	-0.133353	-0.171776	-0.004454	0.006043	-0.005020	-138.035652	-88.853038	-112.240055
56891	9.756099	-0.110698	-0.123114	-0.003538	0.001101	-0.006700	-138.070999	-88.851609	-112.205016
56892	9.751662	-0.115226	-0.146335	-0.003198	0.003002	-0.008659	-138.110523	-88.851760	-112.165581
56893	9.751676	-0.114463	-0.146036	-0.003034	0.003197	-0.006895	-138.109637	-88.851298	-112.166492
56894	9.747243	-0.119066	-0.169146	-0.003034	0.003197	-0.006895	-138.108239	-88.850882	-112.167951
56895	9.762417	-0.092322	-0.152086	-0.003662	0.004717	-0.005076	-138.040072	-88.850372	-112.236518
56896	9.773198	-0.123852	-0.146539	-0.002733	0.001287	-0.012245	-138.189449	-88.851135	-112.086957
56897	9.751731	-0.111402	-0.144739	-0.002530	0.005292	-0.007090	-138.152467	-88.851643	-112.123684
56898	9.758076	-0.148460	-0.162482	-0.002870	0.003391	-0.005131	-138.111717	-88.850565	-112.164399
56899	9.773241	-0.121624	-0.145491	-0.003197	0.003002	-0.008661	-138.152202	-88.850696	-112.124025
56900	9.745499	-0.124865	-0.113592	-0.001109	0.002447	-0.008965	-138.207219	-88.850728	-112.067884
56901	9.751782	-0.108486	-0.143474	-0.003034	0.003196	-0.006897	-138.206345	-88.850267	-112.068784
56902	9.768848	-0.124572	-0.167963	-0.002531	0.005292	-0.007091	-138.169145	-88.850772	-112.105701
56903	9.741106	-0.127914	-0.135865	-0.003990	0.004326	-0.008608	-138.183730	-88.851447	-112.091687
56904	9.751826	-0.106335	-0.142084	-0.001071	0.006257	-0.005574	-138.094651	-88.851805	-112.179674
56905	9.741138	-0.126347	-0.135052	-0.001938	-0.000038	-0.012303	-138.270003	-88.852028	-112.003685
56906	9.773346	-0.115999	-0.143007	-0.002531	0.005291	-0.007092	-138.232504	-88.852558	-112.040925
56907	9.741171	-0.124632	-0.134271	-0.004783	0.005651	-0.008555	-138.221212	-88.853779	-112.053248
56908	9.762680	-0.135355	-0.135385	-0.002240	0.001871	-0.006953	-138.247380	-88.852742	-112.026641
56909	9.741198	-0.123196	-0.133601	-0.003827	0.004520	-0.006844	-138.220591	-88.852827	-112.053915
56910	9.762709	-0.134004	-0.134641	-0.003827	0.004520	-0.006844	-138.193686	-88.852929	-112.081316
56911	9.777842	-0.107090	-0.117553	-0.005286	0.003554	-0.008362	-138.218534	-88.853180	-112.057780
56912	9.741239	-0.121113	-0.132508	-0.002077	0.002065	-0.005188	-138.201857	-88.851596	-112.073929
56913	9.773442	-0.111093	-0.140349	-0.002531	0.005291	-0.007093	-138.164956	-88.852105	-112.110575
56914	9.762766	-0.131264	-0.133165	0.001647	0.004184	-0.007698	-138.159405	-88.852382	-112.113463
56915	9.736864	-0.124180	-0.154777	-0.003359	0.002806	-0.010431	-138.241557	-88.853104	-112.031507
56916	9.751983	-0.097173	-0.137822	-0.004329	0.002424	-0.006652	-138.249976	-88.852226	-112.023810
56917	9.756411	-0.091147	-0.114136	-0.003196	0.003000	-0.008666	-138.290666	-88.852356	-111.983231
56918	9.753997	-0.138472	-0.178775	-0.002694	0.005096	-0.008860	-138.295400	-88.853478	-111.978355
56919	9.767255	-0.121891	-0.108199	-0.003535	0.001099	-0.006707	-138.330629	-88.852048	-111.943431
56920	9.758440	-0.131678	-0.154920	-0.002402	0.001676	-0.008721	-138.397056	-88.851639	-111.876652
56921	9.752187	-0.146633	-0.124407	-0.004458	0.006038	-0.005027	-138.303015	-88.851683	-111.971553
56922	9.741374	-0.113597	-0.129214	-0.003196	0.003000	-0.008668	-138.344018	-88.851800	-111.930644
56923	9.741386	-0.112921	-0.128906	-0.002870	0.003389	-0.005136	-138.301752	-88.850750	-111.972851
56924	9.762907	-0.123777	-0.130021	-0.001738	0.003966	-0.007150	-138.291889	-88.850669	-111.981966
56925	9.762920	-0.123101	-0.129648	-0.005123	0.003747	-0.006600	-138.275396	-88.850330	-111.999685
56926	9.762933	-0.122450	-0.129289	-0.005123	0.003747	-0.006600	-138.257720	-88.850038	-112.018590
56927	9.758543	-0.126868	-0.152428	-0.001269	0.002253	-0.010737	-138.355577	-88.850638	-111.919728
56928	9.730778	-0.130206	-0.120599	-0.004328	0.002422	-0.006655	-138.365076	-88.849752	-111.910990
56929	9.762974	-0.120071	-0.128403	-0.002532	0.005290	-0.007096	-138.328391	-88.850264	-111.947421
56930	9.762988	-0.119371	-0.128018	-0.000943	0.002642	-0.007205	-138.343930	-88.849687	-111.930728
56931	9.758601	-0.123874	-0.151148	-0.005285	0.003552	-0.008368	-138.368930	-88.849938	-111.907039
56932	9.737101	-0.111593	-0.149367	-0.003195	0.003000	-0.008670	-138.408565	-88.850097	-111.867497
56933	9.763030	-0.116908	-0.127077	-0.001900	0.003772	-0.008918	-138.439221	-88.850652	-111.836210
56934	9.758648	-0.121411	-0.150144	-0.005123	0.003746	-0.006603	-138.423055	-88.850305	-111.853589
56935	9.743606	-0.146919	-0.166439	-0.002532	0.005290	-0.007098	-138.386412	-88.850817	-111.889978
56936	9.773730	-0.093852	-0.132655	-0.000148	0.001319	-0.007260	-138.426711	-88.849717	-111.848053
56937	9.748031	-0.140250	-0.142368	-0.002532	0.005290	-0.007098	-138.390101	-88.850230	-111.884408
56938	9.769365	-0.097592	-0.155295	-0.009627	0.004459	-0.009535	-138.425943	-88.851305	-111.852370
56939	9.754332	-0.123049	-0.171655	-0.002871	0.003388	-0.005138	-138.383701	-88.850258	-111.894552
56940	9.748081	-0.138020	-0.141118	-0.002695	0.005096	-0.008866	-138.387828	-88.851383	-111.890243
56941	9.748098	-0.137236	-0.140679	-0.001738	0.003966	-0.007153	-138.377001	-88.851350	-111.900355
56942	9.758766	-0.115549	-0.147074	-0.004490	0.002226	-0.008426	-138.427833	-88.851049	-111.850345
56943	9.758780	-0.114711	-0.146759	-0.003990	0.004323	-0.008619	-138.442889	-88.851726	-111.835860
56944	9.754411	-0.119220	-0.169869	-0.004328	0.002421	-0.006659	-138.451784	-88.850855	-111.827714
56945	9.737281	-0.101840	-0.144524	0.000057	0.006835	-0.007594	-138.394932	-88.852219	-111.882832
56946	9.774088	-0.139552	-0.116845	-0.003194	0.002999	-0.008674	-138.435550	-88.852361	-111.842315
56947	9.731042	-0.115953	-0.113563	-0.003828	0.004517	-0.006853	-138.409052	-88.852449	-111.869298
56948	9.743833	-0.137118	-0.161493	-0.001899	0.003772	-0.008922	-138.440552	-88.853003	-111.837187
56949	9.758869	-0.110066	-0.144416	-0.003194	0.002999	-0.008675	-138.481509	-88.853133	-111.796339
56950	9.737601	-0.151156	-0.130647	-0.002533	0.005289	-0.007101	-138.445603	-88.853623	-111.831979
56951	9.758900	-0.108498	-0.143472	-0.001400	0.005868	-0.009116	-138.440483	-88.855151	-111.836189
56952	9.765436	-0.145344	-0.161488	-0.005326	-0.001773	-0.006276	-138.520800	-88.852339	-111.757158
56953	9.737385	-0.095776	-0.141616	-0.004462	0.006033	-0.005033	-138.426943	-88.852387	-111.851879
56954	9.748298	-0.127445	-0.135958	-0.003194	0.002998	-0.008676	-138.468535	-88.852538	-111.810445
56955	9.758948	-0.105733	-0.142300	-0.001738	0.003966	-0.007156	-138.457759	-88.852506	-111.820506
56956	9.752696	-0.120627	-0.111809	-0.001899	0.003772	-0.008924	-138.488224	-88.853091	-111.789421
56957	9.748343	-0.125122	-0.134885	-0.005123	0.003742	-0.006609	-138.471922	-88.852755	-111.806949
56958	9.758990	-0.103336	-0.141144	-0.002856	0.004901	-0.010638	-138.520134	-88.854412	-111.758655
56959	9.761193	-0.145227	-0.182381	-0.001899	0.003772	-0.008924	-138.551103	-88.854967	-111.727055
56960	9.748393	-0.122559	-0.133623	-0.005918	0.005064	-0.006556	-138.168193	-88.851775	-112.105064
56961	9.754674	-0.106298	-0.163199	-0.004463	0.006032	-0.005035	-138.074166	-88.851809	-112.199949
56962	9.769967	-0.132684	-0.134028	-0.000604	0.004546	-0.009172	-138.093179	-88.852832	-112.179556
56963	9.744080	-0.125757	-0.155705	-0.002236	0.001869	-0.006965	-138.118410	-88.851829	-112.153884
56964	9.769997	-0.131141	-0.133393	-0.006079	0.004870	-0.008326	-138.118178	-88.852635	-112.155789
56965	9.748465	-0.119003	-0.131554	-0.003032	0.003192	-0.006912	-138.117466	-88.852175	-112.156521
56966	9.744126	-0.123569	-0.154585	-0.002534	0.005289	-0.007104	-138.081630	-88.852674	-112.191975
56967	9.759113	-0.096583	-0.137370	-0.001898	0.003772	-0.008926	-138.112110	-88.853232	-112.160859
56968	9.744157	-0.121994	-0.153900	-0.000145	0.001320	-0.007266	-138.153662	-88.852072	-112.117495
56969	9.737904	-0.136991	-0.123473	-0.002534	0.005288	-0.007105	-138.116770	-88.852580	-112.154128
56970	9.770084	-0.126767	-0.131227	-0.007711	0.002192	-0.006121	-138.121816	-88.851372	-112.151569
56971	9.765751	-0.131278	-0.154321	-0.002694	0.005094	-0.008874	-138.126378	-88.852474	-112.146832
56972	9.748560	-0.113966	-0.128955	-0.003667	0.004708	-0.005091	-138.059562	-88.851935	-112.213941
56973	9.733618	-0.139572	-0.145257	-0.002534	0.005288	-0.007106	-138.022650	-88.852443	-112.250594
56974	9.748587	-0.112680	-0.128061	-0.003031	0.003191	-0.006914	-138.021163	-88.851998	-112.252092
56975	9.770154	-0.123460	-0.129190	-0.002871	0.003385	-0.005145	-137.979198	-88.850943	-112.293994
56976	9.770168	-0.122860	-0.128706	-0.003330	0.006610	-0.007053	-137.916819	-88.851988	-112.356691
56977	9.738017	-0.131773	-0.120234	-0.003529	0.001094	-0.006722	-137.952596	-88.850563	-112.321212
56978	9.761518	-0.131899	-0.174952	-0.000603	0.004546	-0.009175	-137.972214	-88.851555	-112.300121
56979	9.770210	-0.120682	-0.127534	-0.001079	0.006256	-0.005584	-137.883605	-88.851889	-112.387650
56980	9.748663	-0.108716	-0.125671	-0.004325	0.002416	-0.006669	-137.894515	-88.850989	-112.377618
56981	9.740008	-0.118445	-0.172265	-0.001897	0.003772	-0.008930	-137.924929	-88.851551	-112.346567
56982	9.765918	-0.123772	-0.149886	-0.001737	0.003966	-0.007161	-137.915581	-88.851510	-112.355273
56983	9.748701	-0.106401	-0.124699	-0.004485	0.002222	-0.008439	-137.966746	-88.851223	-112.304951
56984	9.759681	-0.137886	-0.119178	-0.003988	0.004319	-0.008632	-137.982044	-88.851905	-112.290251
56985	9.793795	-0.117048	-0.180420	-0.005122	0.003738	-0.006617	-137.965895	-88.851565	-112.307621
56986	9.748738	-0.104236	-0.123654	-0.002871	0.003384	-0.005147	-137.924813	-88.850525	-112.348664
56987	9.759721	-0.135890	-0.118181	-0.004485	0.002222	-0.008440	-137.975962	-88.850239	-112.298357
56988	9.761676	-0.124642	-0.171423	-0.001737	0.003966	-0.007162	-137.966142	-88.850209	-112.307427
56989	9.759750	-0.134337	-0.117508	-0.001897	0.003772	-0.008932	-137.996611	-88.850771	-112.276322
56990	9.766030	-0.117930	-0.147291	-0.004165	0.002609	-0.004902	-137.964946	-88.849292	-112.308706
56991	9.740151	-0.111246	-0.168959	-0.003828	0.004512	-0.006864	-137.938534	-88.849376	-112.335600
56992	9.766056	-0.116583	-0.146650	-0.002393	0.001675	-0.008740	-138.004570	-88.848978	-112.269271
56993	9.755486	-0.136784	-0.139547	-0.004129	0.007931	-0.007004	-137.915951	-88.850570	-112.358557
56994	9.759822	-0.130850	-0.115456	-0.002534	0.005287	-0.007110	-137.880350	-88.851053	-112.393885
56995	9.740213	-0.108238	-0.167284	-0.001595	0.000353	-0.008794	-137.973123	-88.850109	-112.300290
56996	9.770431	-0.108314	-0.121610	-0.001737	0.003965	-0.007164	-137.963945	-88.850051	-112.308855
56997	9.761817	-0.118008	-0.168072	-0.002694	0.005093	-0.008881	-137.968514	-88.851156	-112.304111
56998	9.733991	-0.121627	-0.136113	-0.001737	0.003965	-0.007164	-137.958051	-88.851126	-112.313892
56999	9.766160	-0.111292	-0.143770	-0.003828	0.004511	-0.006866	-137.931661	-88.851210	-112.340764
57000	9.755597	-0.131584	-0.136728	-0.001737	0.003965	-0.007165	-137.920034	-88.851177	-112.351595
57001	9.766189	-0.109903	-0.142910	-0.002535	0.005287	-0.007112	-137.883244	-88.851685	-112.388127
57002	9.761896	-0.114366	-0.165962	-0.003190	0.002996	-0.008690	-137.924169	-88.851811	-112.347266
57003	9.755643	-0.129331	-0.135607	-0.000939	0.002644	-0.007218	-137.939341	-88.851236	-112.330911
57004	9.751352	-0.133867	-0.158740	-0.001737	0.003965	-0.007166	-137.930060	-88.851165	-112.339419
57005	9.757635	-0.117419	-0.188437	-0.001737	0.003965	-0.007166	-137.919279	-88.851132	-112.349481
57006	9.755685	-0.127234	-0.134620	-0.002232	0.001868	-0.006974	-137.943950	-88.850182	-112.324340
57007	9.755694	-0.126648	-0.134470	-0.003367	0.001285	-0.004959	-137.938587	-88.848162	-112.329916
57008	9.766273	-0.104992	-0.140825	-0.003988	0.004317	-0.008638	-137.954725	-88.848812	-112.314421
57009	9.766741	-0.157609	-0.128636	-0.002871	0.003383	-0.005151	-137.913123	-88.847758	-112.355960
57010	9.761999	-0.108870	-0.163600	-0.003189	0.002995	-0.008692	-137.953979	-88.847902	-112.315205
57011	9.781633	-0.129925	-0.111095	-0.002535	0.005286	-0.007114	-137.917363	-88.848410	-112.351564
57012	9.745202	-0.144141	-0.126053	-0.001737	0.003965	-0.007167	-137.907130	-88.848365	-112.361069
57013	9.755778	-0.122372	-0.132337	-0.003189	0.002995	-0.008693	-137.948037	-88.848505	-112.320263
57014	9.747205	-0.132065	-0.178977	-0.000939	0.002644	-0.007220	-137.962779	-88.847950	-112.304349
57015	9.766364	-0.099823	-0.138282	-0.004786	0.005637	-0.008588	-137.951954	-88.849174	-112.316200
57016	9.751529	-0.125299	-0.154862	-0.002726	-0.000230	-0.006784	-138.013797	-88.847213	-112.254221
57017	9.755828	-0.119478	-0.131254	-0.002872	0.003382	-0.005153	-137.972240	-88.846160	-112.295715
57018	9.755841	-0.118798	-0.130947	-0.003189	0.002995	-0.008694	-138.013079	-88.846302	-112.255039
57019	9.740524	-0.090967	-0.159295	-0.003030	0.003188	-0.006924	-138.012744	-88.845846	-112.255394
57020	9.766912	-0.149640	-0.125115	-0.001737	0.003965	-0.007169	-138.001770	-88.845834	-112.265642
57021	9.755880	-0.116740	-0.129883	-0.003670	0.004702	-0.005101	-137.934497	-88.845322	-112.333315
57022	9.755893	-0.116062	-0.129512	-0.003189	0.002995	-0.008695	-137.975521	-88.845481	-112.292348
57023	9.730024	-0.109332	-0.151278	-0.004165	0.002605	-0.004909	-137.944455	-88.844003	-112.324090
57024	9.762180	-0.099029	-0.158994	-0.001737	0.003965	-0.007169	-137.933500	-88.843986	-112.334273
57025	9.736826	-0.145319	-0.168919	-0.003505	0.002607	-0.012237	-138.056662	-88.845319	-112.211377
57026	9.773263	-0.129614	-0.153296	-0.003208	0.001477	-0.003192	-138.011039	-88.842689	-112.257146
57027	9.730074	-0.106520	-0.150085	-0.001243	0.006062	-0.007361	-137.964340	-88.843623	-112.302850
57028	9.741148	-0.138212	-0.144483	-0.004165	0.002604	-0.004910	-137.931778	-88.842180	-112.336011
57029	9.777578	-0.122664	-0.128796	-0.000938	0.002644	-0.007223	-137.946893	-88.841606	-112.319713
57030	9.767055	-0.142883	-0.121817	-0.002694	0.005092	-0.008889	-137.951793	-88.842733	-112.314644
57031	9.751728	-0.115143	-0.150089	-0.004165	0.002604	-0.004911	-137.920884	-88.841255	-112.346228
57032	9.751744	-0.114381	-0.149663	-0.003651	0.006219	-0.010608	-137.939798	-88.843549	-112.327742
57033	9.741225	-0.134542	-0.142711	-0.003523	0.001090	-0.006735	-137.975657	-88.842127	-112.292177
57034	9.756039	-0.107540	-0.125781	-0.001589	0.000353	-0.008803	-138.068591	-88.841160	-112.198346
57035	9.767129	-0.139052	-0.120265	-0.003336	0.006605	-0.007066	-138.006682	-88.842213	-112.260463
57036	9.777676	-0.117340	-0.126286	-0.002536	0.005285	-0.007119	-137.971190	-88.842717	-112.295741
57037	9.751814	-0.110606	-0.147921	-0.003030	0.003187	-0.006928	-137.970977	-88.842261	-112.295973
57038	9.741300	-0.130945	-0.140954	-0.003829	0.004507	-0.006875	-137.945921	-88.842322	-112.321570
57039	9.751842	-0.109165	-0.147123	-0.003987	0.004314	-0.008647	-137.961074	-88.843005	-112.306981
57040	9.741332	-0.129409	-0.140130	-0.001737	0.003965	-0.007172	-137.950319	-88.842991	-112.317027
57041	9.773484	-0.118976	-0.147767	-0.005122	0.003729	-0.006632	-137.934794	-88.842652	-112.333773
57042	9.730267	-0.095690	-0.144740	-0.001588	0.000353	-0.008805	-138.027508	-88.841706	-112.240217
57043	9.762989	-0.138458	-0.140709	-0.002537	0.005285	-0.007121	-137.991286	-88.842217	-112.276182
57044	9.756164	-0.100259	-0.122072	-0.002230	0.001867	-0.006982	-138.017283	-88.841235	-112.249778
57045	9.763017	-0.137072	-0.140081	-0.001737	0.003964	-0.007173	-138.006753	-88.841205	-112.259588
57046	9.751933	-0.104014	-0.144854	-0.003987	0.004313	-0.008649	-138.023166	-88.841877	-112.243820
57047	9.751946	-0.103250	-0.144492	-0.003029	0.003186	-0.006930	-138.022993	-88.841422	-112.244011
57048	9.767317	-0.129516	-0.115542	0.000198	0.003229	-0.009242	-138.069062	-88.841891	-112.196176
57049	9.751973	-0.101759	-0.143732	-0.004472	0.006019	-0.005054	-137.976495	-88.841923	-112.289608
57050	9.763095	-0.133383	-0.138202	-0.005771	0.001437	-0.008215	-138.038115	-88.841252	-112.229620
57051	9.747748	-0.105571	-0.166582	-0.001737	0.003964	-0.007174	-138.027611	-88.841222	-112.239405
57052	9.754630	-0.142369	-0.184431	-0.002537	0.005284	-0.007122	-137.992247	-88.841715	-112.274511
57053	9.752024	-0.098959	-0.142255	-0.003029	0.003186	-0.006931	-137.992123	-88.841260	-112.274654
57054	9.763156	-0.130447	-0.136710	-0.000602	0.004549	-0.009191	-138.011270	-88.842245	-112.254129
57055	9.763170	-0.129653	-0.136463	-0.001429	0.000547	-0.007036	-138.062420	-88.840706	-112.202069
57056	9.747818	-0.101908	-0.164755	-0.003338	0.006603	-0.007071	-138.001163	-88.841755	-112.263537
57057	9.769461	-0.112471	-0.165664	-0.005122	0.003727	-0.006637	-137.985784	-88.841418	-112.280137
57058	9.763212	-0.127783	-0.135164	-0.002223	0.005670	-0.003579	-137.867740	-88.840750	-112.397789
57059	9.758988	-0.132386	-0.158239	-0.001093	0.002452	-0.009000	-137.923953	-88.840778	-112.340473
57060	9.741610	-0.115141	-0.133052	-0.001737	0.003964	-0.007176	-137.913958	-88.840769	-112.349797
57061	9.773754	-0.104559	-0.140631	-0.003986	0.004312	-0.008654	-137.929250	-88.841454	-112.335068
57062	9.759035	-0.130060	-0.157270	-0.003520	0.001087	-0.006742	-137.965325	-88.840053	-112.299313
57063	9.745882	-0.107875	-0.108557	-0.000932	0.006449	-0.003823	-137.836898	-88.839791	-112.426583
57064	9.763295	-0.123784	-0.132927	-0.001737	0.003964	-0.007177	-137.828325	-88.839716	-112.434422
57065	9.763308	-0.123105	-0.132556	-0.005122	0.003726	-0.006639	-137.813093	-88.839378	-112.450875
57066	9.741686	-0.111147	-0.130907	-0.005769	0.001434	-0.008221	-137.876027	-88.838691	-112.389555
57067	9.759107	-0.126823	-0.155422	-0.001245	0.006062	-0.007369	-137.829531	-88.839627	-112.435056
57068	9.731225	-0.130643	-0.123542	-0.003185	0.002992	-0.008707	-137.871778	-88.839733	-112.392879
57069	9.769629	-0.104125	-0.161156	-0.002694	0.005090	-0.008899	-137.876663	-88.840843	-112.387819
57070	9.763382	-0.119179	-0.130718	-0.003029	0.003185	-0.006935	-137.875196	-88.840462	-112.389333
57071	9.741756	-0.107260	-0.128932	-0.000445	0.004743	-0.007421	-137.854355	-88.840857	-112.408716
57072	9.748705	-0.143875	-0.146918	-0.004633	0.002019	-0.010239	-137.946402	-88.841170	-112.317536
57073	9.773905	-0.095703	-0.136343	-0.000936	0.002645	-0.007231	-137.961651	-88.840600	-112.301102
57074	9.763434	-0.116246	-0.129455	-0.004809	0.004110	-0.003096	-137.863722	-88.839113	-112.400102
57075	9.741803	-0.104444	-0.127675	-0.001893	0.003771	-0.008952	-137.894289	-88.839683	-112.368896
57076	9.752980	-0.136015	-0.122170	-0.002872	0.003377	-0.005164	-137.852983	-88.838638	-112.410109
57077	9.755041	-0.124698	-0.175269	-0.002694	0.005090	-0.008901	-137.857894	-88.839749	-112.405023
57078	9.759272	-0.118807	-0.151359	-0.004966	0.003917	-0.004870	-137.802062	-88.838839	-112.461992
57079	9.741854	-0.101640	-0.126035	-0.004943	0.005436	-0.010380	-137.832661	-88.840666	-112.432502
57080	9.748828	-0.138269	-0.144106	-0.002717	-0.000233	-0.006798	-137.896822	-88.838684	-112.368241
57081	9.748840	-0.137837	-0.143732	-0.001580	0.007960	-0.002000	-137.702084	-88.838357	-112.562208
57082	9.755120	-0.121389	-0.173214	-0.005433	0.003337	-0.010190	-137.768881	-88.839201	-112.496723
57083	9.733486	-0.109250	-0.171541	-0.001091	0.002452	-0.009006	-137.825111	-88.839233	-112.439389
57084	9.748889	-0.135506	-0.142597	-0.001736	0.003964	-0.007181	-137.815349	-88.839211	-112.448456
57085	9.763578	-0.108458	-0.125268	-0.003986	0.004310	-0.008661	-137.830749	-88.839898	-112.433619
57086	9.748921	-0.134038	-0.141853	-0.000779	0.002838	-0.005460	-137.807155	-88.838689	-112.455987
57087	9.776853	-0.128587	-0.172833	-0.003651	0.006215	-0.010625	-137.827361	-88.840942	-112.436151
57088	9.785272	-0.117312	-0.125586	-0.002716	-0.000233	-0.006800	-137.890141	-88.838964	-112.373182
57089	9.770617	-0.143170	-0.142351	-0.002561	0.003762	-0.001619	-137.767685	-88.836711	-112.495413
57090	9.748977	-0.131358	-0.140462	-0.000266	0.006457	-0.011163	-137.792557	-88.839313	-112.469033
57091	9.727338	-0.119225	-0.138691	-0.005766	0.001430	-0.008229	-137.854590	-88.838612	-112.408575
57092	9.753206	-0.124533	-0.116270	-0.002383	0.005475	-0.005357	-137.778553	-88.838517	-112.484307
57093	9.749024	-0.129051	-0.139342	-0.003183	0.002991	-0.008714	-137.819635	-88.838666	-112.443323
57094	9.733641	-0.101242	-0.167611	-0.003830	0.004502	-0.006889	-137.794171	-88.838742	-112.469199
57095	9.776973	-0.122849	-0.170235	-0.004161	-0.001207	-0.008333	-137.907371	-88.836960	-112.356643
57096	9.749063	-0.126777	-0.138695	-0.001737	0.003964	-0.007183	-137.897750	-88.836918	-112.365519
57097	9.781191	-0.116099	-0.146285	-0.003183	0.002990	-0.008715	-137.938817	-88.837065	-112.324550
57098	9.749094	-0.125300	-0.137847	-0.001895	0.007573	-0.005549	-137.827082	-88.837943	-112.435696
57099	9.759558	-0.103459	-0.144021	-0.005118	-0.000082	-0.010057	-137.955560	-88.837300	-112.308406
57100	9.744934	-0.128904	-0.160823	-0.003028	0.003183	-0.006942	-137.955872	-88.836859	-112.308111
57101	9.749135	-0.123032	-0.137009	-0.005122	0.003720	-0.006649	-137.940956	-88.836523	-112.324248
57102	9.753334	-0.117152	-0.113091	-0.002539	0.005282	-0.007133	-137.906879	-88.836998	-112.358062
57103	9.777089	-0.116961	-0.167669	-0.003516	0.001084	-0.006752	-137.943042	-88.835580	-112.322189
57104	9.744995	-0.126175	-0.159304	-0.000760	0.008161	-0.007566	-137.860953	-88.837496	-112.403040
57105	9.770863	-0.131437	-0.136630	-0.005121	0.003720	-0.006650	-137.846092	-88.837159	-112.419122
57106	9.753387	-0.114398	-0.111326	-0.002539	0.005281	-0.007134	-137.811574	-88.837647	-112.453395
57107	9.749224	-0.118736	-0.134420	-0.003337	0.002797	-0.010493	-137.893640	-88.838396	-112.371507
57108	9.749239	-0.117884	-0.134068	-0.003830	0.004500	-0.006893	-137.868666	-88.838491	-112.396962
57109	9.766752	-0.133560	-0.158503	-0.003830	0.004500	-0.006893	-137.843337	-88.838579	-112.422775
57110	9.755528	-0.100629	-0.163233	-0.001736	0.003964	-0.007186	-137.834895	-88.838542	-112.430536
57111	9.782196	-0.159235	-0.129201	-0.005609	0.001620	-0.006462	-137.856161	-88.837241	-112.410763
57112	9.749292	-0.115102	-0.132674	-0.003985	0.004307	-0.008668	-137.873131	-88.837916	-112.394389
57113	9.717200	-0.124244	-0.124359	0.001649	0.004209	-0.007721	-137.867542	-88.838199	-112.397317
57114	9.749322	-0.113426	-0.131894	-0.005430	0.003333	-0.010202	-137.932189	-88.839129	-112.334006
57115	9.777275	-0.107835	-0.162903	-0.003830	0.004499	-0.006895	-137.906894	-88.839219	-112.359783
57116	9.749350	-0.111909	-0.131083	-0.003830	0.004499	-0.006895	-137.881455	-88.839317	-112.385686
57117	9.766880	-0.127479	-0.155590	-0.003181	0.002989	-0.008721	-137.922741	-88.839466	-112.344497
57118	9.730627	-0.141937	-0.170840	-0.001582	0.004156	-0.005413	-137.872033	-88.838861	-112.394430
57119	9.777330	-0.105083	-0.161402	-0.003027	0.003182	-0.006947	-137.872358	-88.838410	-112.394122
57120	9.738979	-0.130272	-0.123242	-0.004318	0.002400	-0.006705	-137.885108	-88.837491	-112.382141
57121	9.771095	-0.119730	-0.130726	-0.004480	0.006009	-0.005070	-137.793422	-88.837519	-112.474695
57122	9.749424	-0.107918	-0.128914	-0.003181	0.002989	-0.008722	-137.835336	-88.837685	-112.432927
57123	9.766966	-0.123477	-0.153420	-0.003830	0.004499	-0.006896	-137.810118	-88.837774	-112.458628
57124	9.766982	-0.122698	-0.153020	-0.001890	0.003771	-0.008964	-137.842141	-88.838329	-112.425971
57125	9.766997	-0.121917	-0.152683	-0.003027	0.003182	-0.006948	-137.842513	-88.837879	-112.425617
57126	9.732805	-0.141831	-0.090978	-0.001890	0.003771	-0.008965	-137.872046	-88.838496	-112.395421
57127	9.767029	-0.120194	-0.152004	-0.005429	0.003332	-0.010207	-137.939297	-88.839361	-112.329550
57128	9.745353	-0.108214	-0.150405	-0.000129	0.001330	-0.007292	-137.980924	-88.838254	-112.286276
57129	9.767056	-0.118728	-0.151424	-0.004481	0.006007	-0.005072	-137.889242	-88.838286	-112.378828
57130	9.745377	-0.106926	-0.149743	-0.001573	0.000355	-0.008826	-137.981879	-88.837337	-112.285300
57131	9.771229	-0.111994	-0.127464	-0.003181	0.002989	-0.008725	-138.023202	-88.837486	-112.244074
57132	9.730854	-0.131590	-0.166112	-0.003344	0.006597	-0.007089	-137.963695	-88.838528	-112.303832
57133	9.782550	-0.142761	-0.121439	-0.004317	0.002399	-0.006709	-137.974552	-88.837653	-112.293730
57134	9.745430	-0.103945	-0.148353	-0.003831	0.004498	-0.006899	-137.950105	-88.837731	-112.318648
57135	9.735043	-0.124376	-0.141486	-0.003027	0.003181	-0.006950	-137.950494	-88.837281	-112.318275
57136	9.771296	-0.108497	-0.125386	-0.003345	0.006597	-0.007090	-137.889776	-88.838343	-112.379210
57137	9.746376	-0.154957	-0.135575	-0.001878	-0.000029	-0.012380	-138.064211	-88.838609	-112.204098
57138	9.741348	-0.105856	-0.170433	-0.002541	0.005280	-0.007141	-138.028342	-88.839139	-112.239681
57139	9.756807	-0.132110	-0.141416	-0.003180	0.002988	-0.008727	-138.069793	-88.839288	-112.198327
57140	9.739255	-0.115140	-0.116245	-0.002873	0.003373	-0.005176	-138.029800	-88.838231	-112.238250
57141	9.767225	-0.109716	-0.147220	-0.003831	0.004497	-0.006901	-138.004718	-88.838323	-112.263815
57142	9.778552	-0.141154	-0.141699	-0.001890	0.003771	-0.008969	-138.036956	-88.838854	-112.230890
57143	9.743426	-0.107719	-0.091707	-0.002375	0.001672	-0.008779	-138.103885	-88.838461	-112.163591
57144	9.756879	-0.128405	-0.139796	-0.001736	0.003963	-0.007193	-138.094031	-88.838456	-112.172734
57145	9.771411	-0.101396	-0.122337	-0.002541	0.005279	-0.007142	-138.058507	-88.838974	-112.208004
57146	9.756910	-0.127023	-0.138914	-0.005121	0.003713	-0.006662	-138.043358	-88.838661	-112.224343
57147	9.735219	-0.115257	-0.137050	-0.003346	0.006596	-0.007092	-137.982299	-88.839719	-112.285614
57148	9.752816	-0.130840	-0.161441	-0.003026	0.003180	-0.006953	-137.983188	-88.839258	-112.284712
57149	9.742450	-0.151284	-0.154590	-0.003831	0.004496	-0.006903	-137.958139	-88.839349	-112.310244
57150	9.756969	-0.124306	-0.137242	-0.004316	0.002397	-0.006714	-137.970159	-88.838475	-112.298996
57151	9.735270	-0.112638	-0.135601	-0.002873	0.003372	-0.005178	-137.929666	-88.837426	-112.339427
57152	9.778707	-0.133949	-0.137977	-0.004289	0.003920	-0.012233	-138.028759	-88.839327	-112.241101
57153	9.731182	-0.116018	-0.158306	-0.002541	0.005279	-0.007144	-137.993220	-88.839845	-112.276386
57154	9.750771	-0.137262	-0.105774	-0.002873	0.003372	-0.005178	-137.952834	-88.838806	-112.316701
57155	9.757040	-0.120630	-0.135444	-0.003179	0.002988	-0.008732	-137.994371	-88.838958	-112.275260
57156	9.778771	-0.130826	-0.136440	-0.000599	0.004555	-0.009212	-138.015329	-88.839971	-112.252931
57157	9.735355	-0.107887	-0.133342	-0.003026	0.003179	-0.006956	-138.015835	-88.839522	-112.252441
57158	9.752972	-0.123284	-0.157916	-0.003331	0.002795	-0.010509	-138.099037	-88.840278	-112.169422
57159	9.757099	-0.117259	-0.134166	-0.004316	0.002396	-0.006716	-138.110014	-88.839404	-112.159198
57160	9.731283	-0.110665	-0.155924	0.000843	0.005531	-0.007676	-138.483482	-88.858294	-111.787292
57161	9.757127	-0.115852	-0.133333	-0.005121	0.003711	-0.006666	-138.468980	-88.857978	-111.803017
57162	9.742672	-0.141467	-0.149855	0.000038	0.006846	-0.007626	-138.412789	-88.859364	-111.857515
57163	9.774773	-0.130590	-0.157267	-0.002372	0.001671	-0.008784	-138.481243	-88.858978	-111.788692
57164	9.746810	-0.134719	-0.125643	-0.003831	0.004494	-0.006907	-138.456498	-88.859100	-111.813990
57165	9.767543	-0.091759	-0.138141	-0.003831	0.004494	-0.006907	-138.431489	-88.859211	-111.839484
57166	9.774820	-0.128367	-0.156174	-0.003178	0.002987	-0.008735	-138.473795	-88.859393	-111.797234
57167	9.774836	-0.127586	-0.155774	-0.002542	0.005278	-0.007147	-138.438248	-88.859931	-111.832530
57168	9.764495	-0.148121	-0.148956	-0.002068	0.002055	-0.005231	-138.422934	-88.858354	-111.847265
57169	9.757236	-0.110040	-0.130238	-0.000598	0.004555	-0.009215	-138.444589	-88.859368	-111.824233
57170	9.742800	-0.135735	-0.146785	-0.002238	0.005662	-0.003593	-138.325361	-88.858724	-111.942917
57171	9.778991	-0.119861	-0.130612	-0.003983	0.004302	-0.008686	-138.342346	-88.859429	-111.926496
57172	9.753182	-0.113205	-0.152428	-0.000930	0.002647	-0.007249	-138.358548	-88.858875	-111.909127
57173	9.746939	-0.128471	-0.122143	-0.001736	0.003963	-0.007199	-138.348773	-88.858868	-111.918184
57174	9.753210	-0.111707	-0.151732	-0.001888	0.003771	-0.008977	-138.381154	-88.859462	-111.885179
57175	9.774956	-0.121969	-0.152746	-0.003025	0.003178	-0.006960	-138.381967	-88.859028	-111.884385
57176	9.764628	-0.142407	-0.145739	-0.000769	0.008162	-0.007578	-138.300023	-88.860965	-111.965121
57177	9.757343	-0.104362	-0.126840	-0.007699	0.002139	-0.006192	-138.306936	-88.859794	-111.960904
57178	9.768747	-0.135796	-0.121414	-0.000598	0.004555	-0.009217	-138.328495	-88.860817	-111.937975
57179	9.742942	-0.129228	-0.143188	-0.002874	0.003370	-0.005183	-138.287367	-88.859788	-111.979042
57180	9.742955	-0.128545	-0.142883	-0.003177	0.002986	-0.008739	-138.330068	-88.859958	-111.936288
57181	9.775045	-0.117641	-0.150409	-0.000929	0.002647	-0.007251	-138.346101	-88.859408	-111.919068
57182	9.749239	-0.111008	-0.172336	-0.004466	0.002201	-0.008500	-138.399621	-88.859159	-111.866393
57183	9.742997	-0.126234	-0.142121	-0.003025	0.003177	-0.006962	-138.400476	-88.858726	-111.865555
57184	9.768831	-0.131401	-0.119486	-0.003349	0.006592	-0.007101	-138.338605	-88.859838	-111.927809
57185	9.749286	-0.108857	-0.171030	-0.002542	0.005277	-0.007152	-138.303090	-88.860376	-111.963073
57186	9.764788	-0.134993	-0.142054	-0.001232	0.002264	-0.010808	-138.403676	-88.861018	-111.861548
57187	9.743060	-0.123110	-0.140486	-0.004314	0.002392	-0.006724	-138.415159	-88.860158	-111.850820
57188	9.753403	-0.101279	-0.146535	-0.004638	0.005807	-0.006863	-138.364820	-88.860811	-111.902103
57189	9.747163	-0.116509	-0.116095	-0.003983	0.004300	-0.008692	-138.382013	-88.861517	-111.885474
57190	9.743106	-0.120910	-0.139245	-0.003025	0.003177	-0.006964	-138.383087	-88.861084	-111.884379
57191	9.760795	-0.136501	-0.163720	-0.003681	0.004683	-0.005136	-138.316183	-88.860601	-111.951690
57192	9.739064	-0.124879	-0.161960	-0.001736	0.003962	-0.007203	-138.306921	-88.860589	-111.960183
57193	9.760829	-0.134938	-0.162985	-0.003477	0.002602	-0.012299	-138.434076	-88.861941	-111.833279
57194	9.747228	-0.112682	-0.114395	-0.007698	0.002135	-0.006198	-138.441534	-88.860768	-111.828597
57195	9.796993	-0.118040	-0.146670	-0.002543	0.005277	-0.007154	-138.406091	-88.861308	-111.863788
57196	9.743191	-0.116402	-0.137114	-0.001886	0.003771	-0.008982	-138.439328	-88.861886	-111.829901
57197	9.792964	-0.121529	-0.169375	-0.001886	0.003771	-0.008983	-138.471796	-88.862475	-111.796793
57198	9.743220	-0.114831	-0.136404	-0.002874	0.003368	-0.005187	-138.431352	-88.861449	-111.837124
57199	9.760926	-0.130292	-0.160936	0.000210	0.003242	-0.009271	-138.478948	-88.861922	-111.787683
57200	9.739187	-0.118508	-0.159325	-0.004313	0.002390	-0.006727	-138.490583	-88.861075	-111.776886
57201	9.750641	-0.150118	-0.154036	-0.005451	0.001796	-0.004710	-138.470616	-88.859194	-111.798266
57202	9.771274	-0.107102	-0.166666	-0.003175	0.002985	-0.008745	-138.513408	-88.859383	-111.755715
57203	9.728916	-0.137667	-0.152097	-0.000447	0.004748	-0.007444	-138.493181	-88.859807	-111.774487
57204	9.786808	-0.132547	-0.137325	-0.006560	0.002727	-0.008219	-138.531835	-88.859663	-111.737846
57205	9.743308	-0.109717	-0.134275	-0.002694	0.005085	-0.008935	-138.538658	-88.860798	-111.730850
57206	9.754779	-0.141099	-0.128748	-0.001736	0.003962	-0.007206	-138.529315	-88.860787	-111.739440
57207	9.761048	-0.124200	-0.158323	-0.002036	0.003579	-0.010764	-138.604063	-88.861968	-111.664129
57208	9.761064	-0.123341	-0.158035	-0.004313	0.002389	-0.006729	-138.616486	-88.861095	-111.652447
57209	9.743364	-0.106512	-0.132814	-0.002544	0.005276	-0.007157	-138.581201	-88.861638	-111.687482
57210	9.765140	-0.116816	-0.133715	-0.005121	0.003703	-0.006680	-138.567540	-88.861315	-111.702321
57211	9.735299	-0.115482	-0.179084	-0.003024	0.003176	-0.006968	-138.568510	-88.860883	-111.701368
57212	9.754870	-0.136646	-0.126659	-0.003024	0.003176	-0.006969	-138.570060	-88.860443	-111.699828
57213	9.765178	-0.114777	-0.132707	-0.003832	0.004489	-0.006919	-138.545391	-88.860557	-111.724984
57214	9.761150	-0.119242	-0.155816	-0.001736	0.003962	-0.007207	-138.535990	-88.860565	-111.733700
57215	9.750871	-0.139833	-0.149085	-0.004163	0.002580	-0.004952	-138.505485	-88.859113	-111.764882
57216	9.750885	-0.139083	-0.148868	-0.004612	0.002006	-0.010290	-138.601753	-88.859424	-111.669473
57217	9.775518	-0.090689	-0.137823	-0.002544	0.005276	-0.007158	-138.566551	-88.859967	-111.704425
57218	9.733187	-0.121399	-0.123156	-0.002544	0.005276	-0.007159	-138.531173	-88.860521	-111.739500
57219	9.765258	-0.110321	-0.130547	-0.004612	0.002006	-0.010292	-138.627142	-88.860847	-111.644440
57220	9.740669	-0.157004	-0.141024	-0.000927	0.002648	-0.007258	-138.644110	-88.860290	-111.626292
57221	9.739479	-0.102944	-0.152128	-0.002544	0.005276	-0.007159	-138.608927	-88.860834	-111.661224
57222	9.765300	-0.107888	-0.129483	-0.004132	0.004106	-0.010481	-138.669826	-88.862102	-111.600937
57223	9.755035	-0.128231	-0.122662	-0.003832	0.004488	-0.006922	-138.645207	-88.862218	-111.626042
57224	9.755049	-0.127538	-0.122253	-0.001736	0.003962	-0.007209	-138.636040	-88.862199	-111.634409
57225	9.729260	-0.120953	-0.144112	-0.003173	0.002983	-0.008752	-138.679354	-88.862359	-111.591189
57226	9.765355	-0.104624	-0.128019	-0.005420	0.003318	-0.010245	-138.748961	-88.863260	-111.522983
57227	9.751069	-0.130209	-0.144778	-0.001586	0.004153	-0.005430	-138.697057	-88.862668	-111.574090
57228	9.761354	-0.108473	-0.150840	-0.000778	0.002840	-0.005479	-138.670487	-88.861559	-111.599412
57229	9.765389	-0.102623	-0.127035	-0.003173	0.002983	-0.008753	-138.713810	-88.861720	-111.556184
57230	9.761381	-0.106918	-0.150206	-0.003982	0.004296	-0.008704	-138.731607	-88.862434	-111.538944
57231	9.755147	-0.122191	-0.119884	-0.001736	0.003962	-0.007211	-138.722074	-88.862433	-111.547758
57232	9.751141	-0.126658	-0.143102	-0.004312	0.002387	-0.006736	-138.733587	-88.861586	-111.536931
57233	9.761419	-0.104764	-0.149257	-0.000927	0.002649	-0.007260	-138.749634	-88.861038	-111.519697
57234	9.765448	-0.099007	-0.125313	-0.004493	0.005992	-0.005095	-138.657485	-88.861109	-111.612684
57235	9.751182	-0.124697	-0.141985	-0.005270	0.003508	-0.008468	-138.685826	-88.861388	-111.585642
57236	9.772983	-0.134880	-0.142923	-0.003833	0.004487	-0.006925	-138.662940	-88.861494	-111.609010
57237	9.744962	-0.139331	-0.111354	-0.004311	0.002386	-0.006737	-138.674628	-88.860635	-111.598075
57238	9.751224	-0.122508	-0.141014	-0.003172	0.002983	-0.008755	-138.718496	-88.860781	-111.554292
57239	9.769015	-0.137828	-0.165604	-0.004311	0.002386	-0.006738	-138.730150	-88.859923	-111.543391
57240	9.751252	-0.121066	-0.140323	-0.003354	0.006588	-0.007114	-138.669524	-88.861014	-111.604243
57241	9.751267	-0.120284	-0.139988	-0.001554	0.000357	-0.008854	-138.763986	-88.860082	-111.508938
57242	9.761534	-0.098384	-0.146068	-0.004493	0.005991	-0.005097	-138.672055	-88.860169	-111.601774
57243	9.741040	-0.140134	-0.132927	-0.002363	0.001670	-0.008806	-138.740946	-88.859784	-111.532508
57244	9.739765	-0.085913	-0.144153	-0.003172	0.002983	-0.008757	-138.784512	-88.859953	-111.489005
57245	9.751321	-0.117351	-0.138705	-0.000299	0.004941	-0.005670	-138.722230	-88.859792	-111.549756
57246	9.745087	-0.132809	-0.108337	-0.003833	0.004486	-0.006928	-138.697608	-88.859919	-111.574861
57247	9.769146	-0.131944	-0.162680	-0.004130	0.004104	-0.010490	-138.757752	-88.861218	-111.515357
57248	9.747366	-0.120177	-0.161051	-0.004311	0.002385	-0.006740	-138.769796	-88.860358	-111.504034
57249	9.769175	-0.130685	-0.161946	-0.004197	0.006372	-0.001536	-138.593202	-88.859247	-111.681353
57250	9.741144	-0.135241	-0.130304	-0.001223	0.002267	-0.010825	-138.693394	-88.859904	-111.580162
57251	9.751402	-0.113134	-0.136443	-0.000926	0.002649	-0.007264	-138.709491	-88.859357	-111.562877
57252	9.773215	-0.123276	-0.137462	-0.005269	0.003506	-0.008473	-138.738075	-88.859674	-111.535688
57253	9.751430	-0.111519	-0.135771	-0.003981	0.004295	-0.008711	-138.755993	-88.860383	-111.518332
57254	9.741206	-0.131976	-0.129037	-0.003023	0.003173	-0.006978	-138.757987	-88.859946	-111.516364
57255	9.757705	-0.093892	-0.164891	-0.004791	0.005607	-0.008662	-138.750418	-88.861202	-111.524966
57256	9.745226	-0.125315	-0.104700	-0.004310	0.002384	-0.006742	-138.762816	-88.860338	-111.513312
57257	9.747498	-0.113679	-0.157765	-0.002546	0.005274	-0.007167	-138.727884	-88.860886	-111.547994
57258	9.741266	-0.129170	-0.127319	-0.004495	0.005988	-0.005100	-138.636881	-88.860943	-111.639889
57259	9.729707	-0.096331	-0.131991	0.001024	0.001936	-0.009332	-138.710235	-88.860872	-111.564219
57260	9.745278	-0.122531	-0.103155	-0.003023	0.003173	-0.006980	-138.711299	-88.860462	-111.563146
57261	9.765381	-0.126915	-0.181023	-0.002546	0.005274	-0.007168	-138.676365	-88.861009	-111.597831
57262	9.777340	-0.110821	-0.109990	-0.005120	0.003696	-0.006695	-138.662940	-88.860701	-111.612489
57263	9.741336	-0.125701	-0.125470	-0.001588	0.004153	-0.005435	-138.611326	-88.860110	-111.663307
57264	9.783611	-0.093507	-0.138985	-0.003356	0.006586	-0.007120	-138.551878	-88.861204	-111.723019
57265	9.737389	-0.129543	-0.147989	-0.005120	0.003695	-0.006696	-138.538261	-88.860893	-111.737858
57266	9.765463	-0.123571	-0.178872	-0.003170	0.002982	-0.008763	-138.582109	-88.861071	-111.694113
57267	9.741395	-0.122872	-0.123672	-0.003356	0.006586	-0.007121	-138.521488	-88.862162	-111.754955
57268	9.769471	-0.116962	-0.154401	-0.003022	0.003172	-0.006982	-138.524172	-88.861702	-111.752277
57269	9.751642	-0.100258	-0.129189	-0.003833	0.004484	-0.006934	-138.499878	-88.861819	-111.777058
57270	9.763250	-0.131700	-0.123833	-0.002211	0.001861	-0.007031	-138.527445	-88.860846	-111.749037
57271	9.759295	-0.135970	-0.147145	-0.003317	0.002791	-0.010547	-138.613254	-88.861606	-111.663398
57272	9.737498	-0.124301	-0.145276	-0.002733	0.008877	-0.005528	-138.475674	-88.863053	-111.800878
57273	9.765579	-0.118462	-0.175989	-0.003498	0.001071	-0.006795	-138.513453	-88.861653	-111.763380
57274	9.759344	-0.133812	-0.145906	-0.003169	0.002981	-0.008765	-138.557632	-88.861825	-111.719321
57275	9.747753	-0.100896	-0.150515	-0.001259	0.006063	-0.007407	-138.511934	-88.862800	-111.764035
57276	9.759377	-0.132314	-0.145020	-0.003022	0.003172	-0.006984	-138.513247	-88.862374	-111.762705
57277	9.769601	-0.110292	-0.151072	-0.003169	0.002981	-0.008766	-138.556909	-88.862542	-111.719136
57278	9.769615	-0.109507	-0.150736	-0.001735	0.003962	-0.007220	-138.547051	-88.862555	-111.728250
57279	9.751766	-0.092705	-0.125418	-0.001407	0.005872	-0.009190	-138.543648	-88.864124	-111.730745
57280	9.737617	-0.118227	-0.142323	-0.004931	0.000090	-0.008344	-138.634120	-88.862911	-111.641375
57281	9.753207	-0.144477	-0.113561	-0.005120	0.003693	-0.006701	-138.620608	-88.862601	-111.656108
57282	9.747845	-0.095453	-0.148090	-0.000595	0.004561	-0.009239	-138.643106	-88.863625	-111.632218
57283	9.755533	-0.131904	-0.166211	-0.003022	0.003171	-0.006986	-138.644503	-88.863198	-111.630837
57284	9.745576	-0.104977	-0.093923	-0.003833	0.004483	-0.006937	-138.620411	-88.863329	-111.655416
57285	9.759514	-0.125395	-0.141957	-0.000924	0.002650	-0.007270	-138.636718	-88.862785	-111.637921
57286	9.759527	-0.124685	-0.141699	-0.000924	0.002650	-0.007270	-138.652658	-88.862256	-111.620771
57287	9.753293	-0.140205	-0.111527	-0.002875	0.003362	-0.005204	-138.611783	-88.861237	-111.661586
57288	9.741670	-0.107487	-0.116089	-0.003358	0.006584	-0.007126	-138.550823	-88.862352	-111.722767
57289	9.755621	-0.127830	-0.164211	-0.004118	-0.001223	-0.008395	-138.667099	-88.860571	-111.607114
57290	9.777467	-0.137994	-0.165202	-0.001925	0.007565	-0.005579	-138.554502	-88.861510	-111.719174
57291	9.759595	-0.121236	-0.139965	-0.003790	0.000688	-0.010366	-138.676787	-88.861296	-111.597321
57292	9.737775	-0.109527	-0.138446	-0.001735	0.003961	-0.007223	-138.669038	-88.861285	-111.604386
57293	9.749438	-0.140844	-0.133032	-0.001882	0.003771	-0.009006	-138.702119	-88.861880	-111.570661
57294	9.781474	-0.129639	-0.140324	-0.003022	0.003171	-0.006988	-138.704047	-88.861444	-111.568745
57295	9.759654	-0.118102	-0.138558	-0.003359	0.006583	-0.007128	-138.643723	-88.862539	-111.629290
57296	9.733896	-0.111583	-0.160331	0.000217	0.003251	-0.009291	-138.691753	-88.863026	-111.579420
57297	9.759683	-0.116412	-0.137905	-0.001544	0.000358	-0.008868	-138.786647	-88.862099	-111.483677
57298	9.803374	-0.137319	-0.140295	-0.005120	0.003690	-0.006706	-138.773433	-88.861810	-111.498139
57299	9.759708	-0.114963	-0.137342	-0.001735	0.003961	-0.007225	-138.764220	-88.861813	-111.506633
57300	9.759721	-0.114266	-0.136996	-0.003021	0.003170	-0.006989	-138.765017	-88.861420	-111.505872
57301	9.745627	-0.139974	-0.153908	-0.003021	0.003170	-0.006990	-138.766483	-88.860994	-111.504422
57302	9.759747	-0.112883	-0.136345	-0.001735	0.003961	-0.007225	-138.756663	-88.861037	-111.513540
57303	9.727745	-0.122468	-0.128443	-0.004600	0.001998	-0.010322	-138.853544	-88.861363	-111.417560
57304	9.749603	-0.132458	-0.129525	-0.004308	0.002379	-0.006755	-138.864740	-88.860531	-111.407096
57305	9.755859	-0.115619	-0.159026	-0.002548	0.005272	-0.007178	-138.830136	-88.861083	-111.441451
57306	9.781646	-0.120638	-0.136336	-0.005120	0.003689	-0.006708	-138.816375	-88.860801	-111.456427
57307	9.759813	-0.109143	-0.134653	-0.003834	0.004480	-0.006943	-138.792416	-88.860922	-111.480873
57308	9.749662	-0.129640	-0.127934	-0.001881	0.003771	-0.009010	-138.826227	-88.861511	-111.446433
57309	9.749676	-0.128855	-0.127662	-0.002209	0.001859	-0.007039	-138.853140	-88.860539	-111.419065
57310	9.759852	-0.106967	-0.133563	-0.003215	0.006772	-0.005347	-138.750077	-88.861052	-111.522236
57311	9.745787	-0.132575	-0.150292	-0.002027	0.003580	-0.010795	-138.825708	-88.862239	-111.446037
57312	9.749719	-0.126850	-0.126327	-0.003397	0.005051	-0.001593	-138.675714	-88.860571	-111.596295
57313	9.759893	-0.104862	-0.132194	-0.000886	0.004182	-0.012814	-138.782962	-88.862782	-111.487818
57314	9.763776	-0.146311	-0.173768	-0.004501	0.005980	-0.005113	-138.692010	-88.862851	-111.579671
57315	9.749766	-0.124586	-0.124955	-0.003166	0.002979	-0.008777	-138.735994	-88.863018	-111.535778
57316	9.749781	-0.123815	-0.124596	-0.003834	0.004479	-0.006946	-138.711021	-88.863169	-111.561233
57317	9.771649	-0.133923	-0.125534	-0.000922	0.002651	-0.007276	-138.727401	-88.862628	-111.543664
57318	9.767754	-0.138252	-0.148811	-0.003166	0.002979	-0.008778	-138.769669	-88.862882	-111.501528
57319	9.759971	-0.100272	-0.129992	-0.003021	0.003169	-0.006994	-138.771248	-88.862457	-111.499964
57320	9.749834	-0.120864	-0.123339	-0.001735	0.003961	-0.007229	-138.761595	-88.862489	-111.508901
57321	9.742037	-0.130388	-0.169993	-0.002548	0.005271	-0.007182	-138.726979	-88.863041	-111.543270
57322	9.767821	-0.135192	-0.147230	-0.002839	0.004890	-0.010751	-138.776982	-88.864800	-111.493178
57323	9.745977	-0.123525	-0.145625	-0.002207	0.001859	-0.007043	-138.804095	-88.863829	-111.465609
57324	9.767851	-0.133630	-0.146661	-0.003021	0.003168	-0.006995	-138.805680	-88.863419	-111.464050
57325	9.746003	-0.122075	-0.145127	-0.004451	0.002186	-0.008546	-138.860467	-88.863155	-111.410088
57326	9.735877	-0.142597	-0.138529	-0.001735	0.003961	-0.007230	-138.851876	-88.863185	-111.418015
57327	9.778033	-0.110195	-0.152031	-0.004975	0.003876	-0.004929	-138.796267	-88.862286	-111.474771
57328	9.771808	-0.125507	-0.121852	-0.000071	0.002873	-0.012867	-138.930558	-88.863918	-111.338752
57329	9.771822	-0.124800	-0.121403	-0.004213	0.006358	-0.001547	-138.753760	-88.862815	-111.516284
57330	9.746073	-0.118619	-0.143229	-0.003165	0.002978	-0.008781	-138.797327	-88.863033	-111.472867
57331	9.749982	-0.112650	-0.119326	-0.003979	0.004287	-0.008734	-138.815986	-88.863748	-111.454769
57332	9.767971	-0.127766	-0.143859	-0.002207	0.001858	-0.007045	-138.844468	-88.862787	-111.425912
57333	9.767985	-0.127066	-0.143577	-0.001735	0.003961	-0.007232	-138.835408	-88.862794	-111.434253
57334	9.764110	-0.131479	-0.166723	-0.003834	0.004477	-0.006950	-138.812430	-88.862902	-111.457705
57335	9.764128	-0.130706	-0.166300	-0.003979	0.004287	-0.008736	-138.831130	-88.863617	-111.439567
57336	9.746161	-0.113967	-0.141059	-0.003979	0.004287	-0.008736	-138.849520	-88.864346	-111.421718
57337	9.756298	-0.091897	-0.147092	-0.003492	0.001065	-0.006812	-138.887332	-88.862945	-111.384185
57338	9.732177	-0.138854	-0.157875	-0.003165	0.002978	-0.008784	-138.931328	-88.863156	-111.340341
57339	9.778196	-0.101203	-0.147761	-0.002405	0.005460	-0.005400	-138.854349	-88.863120	-111.416998
57340	9.757967	-0.143212	-0.134704	-0.003834	0.004477	-0.006952	-138.830641	-88.863275	-111.441232
57341	9.746225	-0.110464	-0.139391	-0.004305	0.002374	-0.006765	-138.843055	-88.862421	-111.429567
57342	9.768114	-0.120540	-0.140356	-0.001735	0.003961	-0.007233	-138.834492	-88.862414	-111.437390
57343	9.790006	-0.130614	-0.141257	-0.005120	0.003683	-0.006719	-138.821499	-88.862107	-111.451605
57344	9.736146	-0.129820	-0.132032	-0.003690	0.004667	-0.005167	-138.754890	-88.861688	-111.518673
57345	9.761915	-0.134869	-0.109263	-0.002549	0.005270	-0.007187	-138.720426	-88.862241	-111.552890
57346	9.768170	-0.118053	-0.138557	-0.004504	0.005975	-0.005121	-138.631043	-88.862294	-111.643200
57347	9.754198	-0.143784	-0.155468	-0.002350	0.001668	-0.008833	-138.700701	-88.861920	-111.573159
57348	9.750187	-0.100647	-0.113138	-0.003164	0.002977	-0.008786	-138.744086	-88.862114	-111.529847
57349	9.768210	-0.115737	-0.137707	-0.004305	0.002374	-0.006767	-138.756612	-88.861261	-111.518070
57350	9.764352	-0.120161	-0.161000	-0.003020	0.003167	-0.007001	-138.757160	-88.860893	-111.517550
57351	9.742480	-0.108722	-0.159492	-0.002205	0.001858	-0.007049	-138.784331	-88.859925	-111.489923
57352	9.758140	-0.134915	-0.130628	-0.003978	0.004286	-0.008740	-138.803810	-88.860629	-111.470982
57353	9.760531	-0.122936	-0.183545	-0.004793	0.005595	-0.008694	-138.797195	-88.861892	-111.478631
57354	9.736289	-0.122458	-0.128473	-0.003164	0.002977	-0.008788	-138.842344	-88.862053	-111.433580
57355	9.758192	-0.132419	-0.129277	-0.003364	0.006578	-0.007142	-138.782526	-88.863155	-111.493623
57356	9.736319	-0.121062	-0.127493	-0.001591	0.004150	-0.005450	-138.730364	-88.862597	-111.544994
57357	9.746431	-0.099128	-0.133408	-0.003019	0.003167	-0.007003	-138.732192	-88.862175	-111.543182
57358	9.754375	-0.135690	-0.151587	-0.003691	0.004665	-0.005170	-138.665501	-88.861751	-111.610321
57359	9.764487	-0.113677	-0.157485	-0.003163	0.002977	-0.008790	-138.709739	-88.861923	-111.566172
57360	9.764503	-0.112894	-0.157022	-0.003365	0.006578	-0.007143	-138.492441	-88.859267	-111.781212
57361	9.742627	-0.101379	-0.155299	-0.003163	0.002977	-0.008790	-138.536447	-88.859439	-111.737293
57362	9.754440	-0.132752	-0.149991	-0.002876	0.003356	-0.005218	-138.495110	-88.858444	-111.778465
57363	9.732560	-0.121337	-0.148363	-0.003978	0.004285	-0.008744	-138.513627	-88.859160	-111.760506
57364	9.790308	-0.115493	-0.133253	-0.001063	0.002463	-0.009071	-138.572129	-88.859253	-111.700881
57365	9.750637	-0.135502	-0.172526	-0.003834	0.004475	-0.006958	-138.548479	-88.859373	-111.725016
57366	9.758351	-0.124630	-0.124966	-0.003834	0.004475	-0.006958	-138.524059	-88.859555	-111.749930
57367	9.754514	-0.129208	-0.148270	-0.001102	0.000929	-0.003526	-138.492488	-88.856850	-111.780423
57368	9.764612	-0.107096	-0.154295	-0.004264	0.003906	-0.012318	-138.595892	-88.858780	-111.677693
57369	9.758391	-0.122358	-0.124077	0.001650	0.004241	-0.007752	-138.590671	-88.859101	-111.680253
57370	9.728815	-0.121139	-0.169646	-0.007688	0.002091	-0.006261	-138.599033	-88.857950	-111.674538
57371	9.780318	-0.131712	-0.124635	-0.001266	0.006063	-0.007425	-138.553784	-88.858930	-111.718806
57372	9.768511	-0.098939	-0.129208	-0.000919	0.002652	-0.007286	-138.569912	-88.858413	-111.701417
57373	9.728859	-0.119060	-0.168591	-0.004303	0.002371	-0.006774	-138.582594	-88.857560	-111.689482
57374	9.764693	-0.102663	-0.152202	-0.003835	0.004474	-0.006960	-138.559187	-88.857680	-111.713370
57375	9.736563	-0.107607	-0.120752	-0.002876	0.003355	-0.005220	-138.518914	-88.856660	-111.753583
57376	9.754644	-0.122797	-0.145092	-0.003366	0.006576	-0.007147	-138.458456	-88.857782	-111.814224
57377	9.758497	-0.116727	-0.121129	0.000753	0.001571	-0.012927	-138.616085	-88.858919	-111.654415
57378	9.750842	-0.126119	-0.167993	-0.004833	0.004057	-0.003155	-138.519166	-88.857430	-111.752407
57379	9.754688	-0.120530	-0.144014	-0.003835	0.004473	-0.006962	-138.495649	-88.857550	-111.776409
57380	9.758535	-0.114734	-0.119998	-0.000450	0.004755	-0.007474	-138.475277	-88.858025	-111.795367
57381	9.764786	-0.097667	-0.149460	-0.001061	0.002463	-0.009075	-138.533944	-88.858085	-111.735580
57382	9.762749	-0.155260	-0.161551	-0.001061	0.002463	-0.009075	-138.592432	-88.858137	-111.675917
57383	9.758572	-0.112360	-0.119205	-0.005445	0.001764	-0.004757	-138.573838	-88.856259	-111.695918
57384	9.752349	-0.127784	-0.089122	-0.004262	0.003904	-0.012325	-138.676385	-88.858198	-111.594043
57385	9.750946	-0.121008	-0.165704	-0.002591	0.003733	-0.001648	-138.551722	-88.855988	-111.718499
57386	9.780521	-0.121012	-0.119489	-0.003161	0.002976	-0.008797	-138.596100	-88.856147	-111.674197
57387	9.764857	-0.093271	-0.147651	-0.002551	0.005268	-0.007196	-138.561834	-88.856698	-111.708214
57388	9.754813	-0.113852	-0.140989	-0.005261	0.003487	-0.008519	-138.591476	-88.856990	-111.679820
57389	9.754826	-0.113089	-0.140669	-0.003018	0.003165	-0.007011	-138.593418	-88.856567	-111.677891
57390	9.754839	-0.112478	-0.140315	-0.001592	0.004150	-0.005456	-138.542775	-88.855981	-111.727794
57391	9.776770	-0.122374	-0.141226	-0.003303	0.002786	-0.010586	-138.629039	-88.856751	-111.641689
57392	9.732948	-0.100139	-0.138408	-0.001734	0.003960	-0.007244	-138.620498	-88.856782	-111.649597
57393	9.766748	-0.142244	-0.134312	-0.002876	0.003354	-0.005224	-138.580302	-88.855764	-111.689732
57394	9.751077	-0.114681	-0.162454	-0.002551	0.005267	-0.007198	-138.545923	-88.856332	-111.723836
57395	9.744857	-0.130184	-0.132292	-0.004444	0.002179	-0.008568	-138.600905	-88.856077	-111.669673
57396	9.776842	-0.118646	-0.139456	-0.003977	0.004282	-0.008754	-138.619644	-88.856821	-111.651520
57397	9.754932	-0.107287	-0.137843	-0.002876	0.003354	-0.005225	-138.579468	-88.855802	-111.691635
57398	9.763015	-0.143714	-0.156064	-0.003977	0.004282	-0.008754	-138.597616	-88.856548	-111.674013
57399	9.754961	-0.105730	-0.137021	-0.002693	0.005078	-0.008987	-138.605604	-88.857696	-111.665850
57400	9.795020	-0.131269	-0.162753	-0.002343	0.001668	-0.008848	-138.675672	-88.857332	-111.595393
57401	9.766874	-0.136122	-0.131456	-0.005119	0.003675	-0.006735	-138.663174	-88.857025	-111.609110
57402	9.755000	-0.103407	-0.136006	-0.002551	0.005267	-0.007199	-138.628759	-88.857614	-111.643259
57403	9.759298	-0.144906	-0.177807	-0.004302	0.002368	-0.006782	-138.641624	-88.856762	-111.631140
57404	9.748790	-0.118234	-0.105608	-0.001059	0.002464	-0.009080	-138.700396	-88.856864	-111.571301
57405	9.773165	-0.116903	-0.159924	-0.005119	0.003674	-0.006736	-138.687933	-88.856556	-111.584983
57406	9.769379	-0.121390	-0.183098	-0.003694	0.004660	-0.005180	-138.623121	-88.856082	-111.650203
57407	9.766958	-0.132006	-0.129413	-0.002201	0.001857	-0.007061	-138.650448	-88.855116	-111.622414
57408	9.741243	-0.125730	-0.151343	-0.003369	0.006574	-0.007154	-138.591147	-88.856216	-111.681914
57409	9.741258	-0.125044	-0.150975	-0.003484	0.001060	-0.006830	-138.629360	-88.854820	-111.643974
57410	9.767001	-0.129832	-0.128364	-0.000592	0.004568	-0.009267	-138.650963	-88.855891	-111.620945
57411	9.745079	-0.118561	-0.126733	-0.002735	0.003542	-0.003439	-138.568761	-88.854277	-111.703014
57412	9.773259	-0.112318	-0.157423	-0.005260	0.003484	-0.008527	-138.598584	-88.854576	-111.674464
57413	9.751337	-0.100907	-0.155866	-0.003018	0.003164	-0.007016	-138.600662	-88.854155	-111.672398
57414	9.773286	-0.110862	-0.156797	-0.003018	0.003163	-0.007016	-138.602893	-88.853744	-111.670189
57415	9.741341	-0.120822	-0.148992	-0.003977	0.004281	-0.008759	-138.621814	-88.854464	-111.651826
57416	9.763297	-0.130603	-0.149815	-0.003976	0.004281	-0.008760	-138.640468	-88.855184	-111.633672
57417	9.751391	-0.097796	-0.154452	-0.000917	0.002654	-0.007295	-138.656970	-88.854649	-111.615975
57418	9.767114	-0.123959	-0.125501	-0.004794	0.005587	-0.008714	-138.651569	-88.855911	-111.622412
57419	9.741404	-0.117709	-0.147416	-0.002877	0.003352	-0.005229	-138.611514	-88.854894	-111.662407
57420	9.745198	-0.112037	-0.123522	-0.003018	0.003163	-0.007018	-138.613266	-88.854491	-111.660643
57421	9.763372	-0.126964	-0.148039	-0.003158	0.002974	-0.008807	-138.657516	-88.854667	-111.616476
57422	9.763388	-0.126189	-0.147680	-0.003835	0.004469	-0.006972	-138.634028	-88.854824	-111.640418
57423	9.789125	-0.131048	-0.124986	-0.000916	0.002654	-0.007296	-138.650547	-88.854290	-111.622704
57424	9.741471	-0.113996	-0.145881	-0.004582	0.001988	-0.010366	-138.747654	-88.854649	-111.526473
57425	9.763433	-0.123760	-0.146763	-0.002552	0.005266	-0.007204	-138.713713	-88.855205	-111.560167
57426	9.763450	-0.123131	-0.146139	-0.001947	0.007559	-0.005601	-138.601125	-88.856182	-111.672185
57427	9.759693	-0.127502	-0.169251	-0.004441	0.002176	-0.008578	-138.656360	-88.855928	-111.617768
57428	9.767253	-0.116592	-0.121726	-0.002552	0.005266	-0.007205	-138.622314	-88.856503	-111.651579
57429	9.763496	-0.120950	-0.144861	-0.001734	0.003960	-0.007251	-138.613597	-88.856513	-111.659574
57430	9.757278	-0.136587	-0.114779	-0.004300	0.002365	-0.006789	-138.627121	-88.855673	-111.646793
57431	9.753519	-0.141071	-0.138191	-0.003341	0.001248	-0.005046	-138.623294	-88.853682	-111.650819
57432	9.735349	-0.124792	-0.113004	-0.003371	0.006572	-0.007160	-138.563641	-88.854814	-111.710702
57433	9.785503	-0.128729	-0.144790	-0.003438	0.002596	-0.012390	-138.692360	-88.856183	-111.582212
57434	9.763568	-0.117235	-0.143071	-0.001948	0.007558	-0.005602	-138.579883	-88.857129	-111.694083
57435	9.759819	-0.121699	-0.166214	-0.005583	0.001567	-0.006560	-138.603936	-88.855848	-111.671508
57436	9.763593	-0.115966	-0.142404	-0.003017	0.003162	-0.007022	-138.606208	-88.855440	-111.669231
57437	9.775570	-0.147282	-0.137137	-0.003017	0.003162	-0.007022	-138.608433	-88.855021	-111.667018
57438	9.775586	-0.146593	-0.136769	-0.003836	0.004468	-0.006977	-138.585906	-88.855164	-111.690058
57439	9.781835	-0.129479	-0.166054	-0.004794	0.005585	-0.008721	-138.579738	-88.856429	-111.697258
57440	9.731705	-0.123834	-0.133376	-0.001734	0.003960	-0.007253	-138.571366	-88.856438	-111.704887
57441	9.781866	-0.128098	-0.165316	-0.005442	0.001754	-0.004772	-138.553341	-88.854561	-111.724318
57442	9.741714	-0.101152	-0.138979	-0.000591	0.004570	-0.009274	-138.576371	-88.855624	-111.699953
57443	9.757460	-0.127290	-0.109893	-0.003372	0.006571	-0.007163	-138.517092	-88.856722	-111.759459
57444	9.789418	-0.115870	-0.116812	-0.002877	0.003351	-0.005234	-138.477202	-88.855707	-111.799269
57445	9.749985	-0.136198	-0.156275	-0.003016	0.003162	-0.007024	-138.479523	-88.855288	-111.796959
57446	9.741766	-0.098455	-0.137213	-0.004655	0.005773	-0.006933	-138.431436	-88.855956	-111.845990
57447	9.753767	-0.129660	-0.131755	-0.000591	0.004570	-0.009275	-138.453926	-88.856996	-111.822117
57448	9.760013	-0.112774	-0.161053	-0.003416	0.005033	-0.001609	-138.303774	-88.855355	-111.972527
57449	9.741804	-0.096695	-0.135747	-0.002553	0.005265	-0.007210	-138.269729	-88.855907	-112.006326
57450	9.753805	-0.127924	-0.130599	-0.004082	-0.001235	-0.008446	-138.385907	-88.854177	-111.890708
57451	9.753819	-0.127069	-0.130416	-0.002692	0.005077	-0.009000	-138.393981	-88.855331	-111.882459
57452	9.753834	-0.126294	-0.130057	-0.004299	0.002363	-0.006795	-138.407944	-88.854485	-111.869242
57453	9.760079	-0.109170	-0.159498	-0.003975	0.004278	-0.008771	-138.427054	-88.855209	-111.850690
57454	9.753862	-0.124753	-0.129443	-0.002197	0.001856	-0.007071	-138.454278	-88.854288	-111.823012
57455	9.763843	-0.102559	-0.135378	-0.003156	0.002973	-0.008817	-138.498725	-88.854469	-111.778647
57456	9.750153	-0.128241	-0.152467	-0.001734	0.003960	-0.007256	-138.490160	-88.854504	-111.786500
57457	9.750168	-0.127553	-0.152100	-0.005118	0.003667	-0.006751	-138.478235	-88.854199	-111.799643
57458	9.750183	-0.126866	-0.151669	-0.002553	0.005265	-0.007212	-138.443431	-88.854781	-111.834167
57459	9.785868	-0.110176	-0.135118	-0.002336	0.001668	-0.008863	-138.513206	-88.854420	-111.764000
57460	9.750214	-0.125292	-0.150999	-0.002553	0.005265	-0.007212	-138.479753	-88.855002	-111.797246
57461	9.760189	-0.103172	-0.156753	-0.003016	0.003161	-0.007028	-138.482168	-88.854584	-111.794841
57462	9.753974	-0.118757	-0.126601	-0.002693	0.005076	-0.009003	-138.491486	-88.855720	-111.785343
57463	9.772238	-0.133672	-0.150998	-0.002877	0.003349	-0.005237	-138.451817	-88.854703	-111.824952
57464	9.740316	-0.143941	-0.143355	-0.004298	0.002362	-0.006799	-138.466168	-88.853850	-111.811355
57465	9.782218	-0.110960	-0.156639	-0.000914	0.002655	-0.007303	-138.482889	-88.853320	-111.793438
57466	9.754023	-0.116165	-0.125261	-0.004517	0.005958	-0.005147	-138.392541	-88.853393	-111.884639
57467	9.772295	-0.131009	-0.149619	-0.005396	0.003289	-0.010337	-138.464791	-88.854288	-111.813750
57468	9.746609	-0.124647	-0.171695	-0.003016	0.003161	-0.007029	-138.467354	-88.853880	-111.811185
57469	9.762377	-0.150893	-0.142789	-0.003836	0.004465	-0.006984	-138.444548	-88.854005	-111.834478
57470	9.750360	-0.118115	-0.147295	-0.000590	0.004571	-0.009280	-138.467408	-88.855055	-111.810228
57471	9.746660	-0.122355	-0.170413	-0.002554	0.005264	-0.007215	-138.433574	-88.855610	-111.843816
57472	9.754105	-0.111571	-0.122980	-0.002657	-0.000248	-0.006891	-138.497306	-88.853702	-111.779875
57473	9.736742	-0.142326	-0.163893	-0.003154	0.002972	-0.008822	-138.541863	-88.853884	-111.735399
57474	9.754128	-0.109957	-0.122643	-0.005718	0.001372	-0.008363	-138.608147	-88.853232	-111.670669
57475	9.750425	-0.114323	-0.145975	-0.001595	0.004148	-0.005469	-138.557566	-88.852648	-111.720458
57476	9.750438	-0.113710	-0.145621	-0.003016	0.003160	-0.007031	-138.561426	-88.852224	-111.716644
57477	9.776151	-0.118428	-0.122934	-0.003154	0.002972	-0.008823	-138.605961	-88.852406	-111.672190
57478	9.762520	-0.144122	-0.139988	-0.002554	0.005264	-0.007216	-138.571580	-88.852979	-111.706277
57479	9.754188	-0.106492	-0.120913	-0.002877	0.003348	-0.005240	-138.532018	-88.851963	-111.745779
57480	9.740558	-0.132362	-0.138015	-0.001734	0.003960	-0.007261	-138.523445	-88.851985	-111.753601
57481	9.750503	-0.110231	-0.143915	-0.003476	0.001056	-0.006848	-138.562077	-88.850595	-111.715237
57482	9.768802	-0.125035	-0.168524	-0.003154	0.002972	-0.008824	-138.606977	-88.850794	-111.670434
57483	9.740600	-0.130053	-0.137210	-0.006077	0.004780	-0.008506	-138.612197	-88.851631	-111.666979
57484	9.782468	-0.096900	-0.150188	0.000830	0.005560	-0.007720	-138.582232	-88.852530	-111.694788
57485	9.744335	-0.123487	-0.112648	-0.001734	0.003960	-0.007262	-138.573788	-88.852544	-111.702510
57486	9.778796	-0.100506	-0.172913	-0.003836	0.004463	-0.006989	-138.551342	-88.852701	-111.725473
57487	9.758961	-0.142716	-0.160314	-0.004297	0.002359	-0.006805	-138.564860	-88.851855	-111.712698
57488	9.758980	-0.142008	-0.159804	-0.000812	0.008169	-0.007631	-138.484230	-88.853848	-111.792124
57489	9.794613	-0.125330	-0.143087	-0.003475	0.001055	-0.006850	-138.523029	-88.852459	-111.753591
57490	9.772628	-0.114043	-0.141570	-0.004795	0.005579	-0.008737	-138.517860	-88.853727	-111.759791
57491	9.768951	-0.118217	-0.164758	-0.003153	0.002971	-0.008827	-138.562548	-88.853911	-111.715184
57492	9.740739	-0.123259	-0.133582	-0.004434	0.002170	-0.008599	-138.617406	-88.853722	-111.661168
57493	9.768981	-0.116492	-0.164225	-0.001871	0.003772	-0.009056	-138.651157	-88.854335	-111.626765
57494	9.762772	-0.132108	-0.134119	-0.001734	0.003960	-0.007264	-138.643896	-88.854348	-111.633329
57495	9.762791	-0.131302	-0.133578	-0.002233	0.007180	-0.009197	-138.616316	-88.856479	-111.660477
57496	9.762808	-0.130338	-0.133261	-0.002929	-0.000625	-0.010482	-138.764199	-88.855759	-111.512493
57497	9.762820	-0.129745	-0.132987	-0.004245	0.006330	-0.001570	-138.589727	-88.854640	-111.687717
57498	9.750734	-0.097273	-0.137468	-0.003152	0.002971	-0.008829	-138.634422	-88.854849	-111.643113
57499	9.769075	-0.111926	-0.161773	-0.002233	0.007180	-0.009198	-138.606836	-88.856981	-111.670267
57500	9.730953	-0.138587	-0.124245	-0.000774	0.002844	-0.005518	-138.581871	-88.855860	-111.693962
57501	9.759201	-0.131884	-0.154868	-0.005392	0.003285	-0.010350	-138.654793	-88.856754	-111.622400
57502	9.737208	-0.120535	-0.153304	-0.003836	0.004462	-0.006993	-138.632477	-88.856881	-111.645179
57503	9.759235	-0.130253	-0.154138	-0.003152	0.002970	-0.008831	-138.677398	-88.857064	-111.600339
57504	9.759253	-0.129467	-0.153677	-0.003377	0.006566	-0.007178	-138.618899	-88.858177	-111.659066
57505	9.772841	-0.102285	-0.135693	-0.005117	0.003660	-0.006766	-138.607342	-88.857874	-111.671842
57506	9.727375	-0.138968	-0.145481	-0.000589	0.004573	-0.009288	-138.630241	-88.858935	-111.647553
57507	9.762973	-0.122172	-0.128844	-0.004295	0.002357	-0.006811	-138.643941	-88.858089	-111.634594
57508	9.769209	-0.104968	-0.158308	-0.003151	0.002970	-0.008832	-138.688473	-88.858315	-111.590160
57509	9.759332	-0.125557	-0.151869	-0.001870	0.003772	-0.009061	-138.722497	-88.858929	-111.555485
57510	9.759349	-0.124848	-0.151359	-0.003241	0.006753	-0.005386	-138.620750	-88.859465	-111.657381
57511	9.763031	-0.119120	-0.127281	-0.003151	0.002970	-0.008833	-138.665831	-88.859649	-111.612380
57512	9.769268	-0.101990	-0.156629	-0.003700	0.004649	-0.005203	-138.601092	-88.859177	-111.677502
57513	9.749506	-0.144340	-0.144013	-0.005117	0.003659	-0.006768	-138.589601	-88.858874	-111.690211
57514	9.755744	-0.127205	-0.173425	-0.000911	0.002657	-0.007313	-138.606152	-88.858369	-111.672441
57515	9.759421	-0.121386	-0.149544	-0.003151	0.002970	-0.008834	-138.651213	-88.858553	-111.627460
57516	9.759434	-0.120695	-0.149240	-0.002877	0.003345	-0.005248	-138.612837	-88.857515	-111.665765
57517	9.749565	-0.141632	-0.142733	-0.000316	0.004949	-0.005704	-138.551166	-88.857364	-111.725912
57518	9.737437	-0.108965	-0.147293	-0.001047	0.002469	-0.009107	-138.611106	-88.857427	-111.664830
57519	9.781498	-0.129109	-0.149449	-0.002191	0.001855	-0.007086	-138.639054	-88.856470	-111.636415
57520	9.749615	-0.139246	-0.141650	-0.005297	0.008795	-0.010681	-138.614652	-88.859892	-111.662181
57521	9.759513	-0.116889	-0.147070	-0.002556	0.005262	-0.007226	-138.581046	-88.860453	-111.695541
57522	9.763177	-0.111093	-0.123267	-0.004066	-0.001240	-0.008469	-138.698406	-88.858712	-111.578751
57523	9.755887	-0.120363	-0.170256	-0.001275	0.006064	-0.007454	-138.653822	-88.859705	-111.622358
57524	9.763203	-0.109592	-0.122547	-0.001733	0.003959	-0.007271	-138.645113	-88.859758	-111.630350
57525	9.759566	-0.114002	-0.145804	-0.002877	0.003345	-0.005250	-138.605519	-88.858745	-111.669884
57526	9.755933	-0.118336	-0.169048	-0.003973	0.004272	-0.008794	-138.625015	-88.859514	-111.650957
57527	9.785274	-0.117868	-0.122550	-0.002692	0.005074	-0.009022	-138.633878	-88.860674	-111.641918
57528	9.753387	-0.128218	-0.115014	-0.004616	0.000437	-0.004839	-138.641673	-88.858279	-111.635057
57529	9.755978	-0.116088	-0.167964	-0.002235	0.007179	-0.009206	-138.614206	-88.860414	-111.662093
57530	9.727742	-0.121220	-0.136592	-0.003150	0.002969	-0.008839	-138.659606	-88.860613	-111.616770
57531	9.759653	-0.109493	-0.143428	-0.004524	0.005949	-0.005163	-138.569445	-88.860688	-111.707825
57532	9.771842	-0.140737	-0.138084	-0.003149	0.002969	-0.008839	-138.614582	-88.860906	-111.662782
57533	9.759683	-0.108017	-0.142536	-0.003379	0.006564	-0.007185	-138.555691	-88.862010	-111.721905
57534	9.749839	-0.128809	-0.135979	-0.003013	0.003156	-0.007046	-138.559206	-88.861602	-111.718410
57535	9.781747	-0.117067	-0.142933	-0.003013	0.003156	-0.007046	-138.562086	-88.861190	-111.715540
57536	9.756087	-0.110964	-0.165110	-0.004294	0.002353	-0.006819	-138.575608	-88.860389	-111.702773
57537	9.759735	-0.105234	-0.141047	0.000004	0.006867	-0.007684	-138.519753	-88.861812	-111.756920
57538	9.768304	-0.141568	-0.159335	-0.005438	0.001738	-0.004798	-138.503500	-88.859936	-111.774589
57539	9.759761	-0.103932	-0.140199	-0.002235	0.007179	-0.009208	-138.475794	-88.862070	-111.801864
57540	9.749926	-0.124631	-0.133618	-0.003013	0.003156	-0.007047	-138.478486	-88.861668	-111.799148
57541	9.749940	-0.123852	-0.133323	-0.003148	0.002969	-0.008842	-138.523846	-88.861857	-111.753867
57542	9.768372	-0.138506	-0.157837	-0.000909	0.002657	-0.007318	-138.541267	-88.861339	-111.735236
57543	9.781859	-0.111368	-0.139840	-0.003245	0.006750	-0.005393	-138.439938	-88.861840	-111.836728
57544	9.727936	-0.111389	-0.131034	-0.000085	0.001355	-0.007362	-138.481676	-88.860811	-111.793298
57545	9.746374	-0.125943	-0.155516	-0.002827	0.004886	-0.010821	-138.532973	-88.862574	-111.741893
57546	9.772058	-0.130561	-0.132668	-0.002877	0.003343	-0.005254	-138.492675	-88.861607	-111.782134
57547	9.746404	-0.124552	-0.154743	-0.003837	0.004457	-0.007005	-138.470313	-88.861737	-111.804983
57548	9.750038	-0.118837	-0.130718	-0.001733	0.003959	-0.007276	-138.462818	-88.861744	-111.811736
57549	9.756273	-0.101559	-0.160074	-0.003148	0.002968	-0.008844	-138.508239	-88.861934	-111.766393
57550	9.768500	-0.132698	-0.154872	-0.003013	0.003155	-0.007050	-138.512524	-88.861502	-111.762113
57551	9.746466	-0.121406	-0.153382	-0.002003	0.003584	-0.010867	-138.589277	-88.862722	-111.684777
57552	9.746482	-0.120618	-0.152984	-0.003702	0.004644	-0.005212	-138.525075	-88.862236	-111.749363
57553	9.775771	-0.120309	-0.106668	-0.001499	0.000365	-0.008933	-138.621144	-88.861339	-111.652418
57554	9.724452	-0.108822	-0.151403	-0.002878	0.003342	-0.005255	-138.581890	-88.860339	-111.691604
57555	9.756348	-0.097119	-0.158256	-0.003837	0.004456	-0.007007	-138.559624	-88.860470	-111.714357
57556	9.736704	-0.139457	-0.145797	-0.004292	0.002351	-0.006824	-138.573989	-88.859642	-111.700733
57557	9.768601	-0.127748	-0.152648	-0.002422	0.005448	-0.005439	-138.498207	-88.859604	-111.776201
57558	9.740341	-0.133135	-0.121356	-0.001867	0.003772	-0.009074	-138.532450	-88.860242	-111.741298
57559	9.782059	-0.099919	-0.134368	-0.005302	0.001921	-0.003008	-138.473186	-88.857766	-111.801896
57560	9.736764	-0.136854	-0.144235	-0.001091	0.007795	-0.011236	-138.582641	-88.863500	-111.688806
57561	9.768667	-0.124601	-0.151032	-0.005976	0.000985	-0.011986	-138.735859	-88.864025	-111.537264
57562	9.740402	-0.129864	-0.119986	-0.002878	0.003342	-0.005257	-138.695903	-88.863042	-111.577168
57563	9.768695	-0.123138	-0.150409	-0.002557	0.005260	-0.007236	-138.662576	-88.863608	-111.610247
57564	9.768711	-0.122425	-0.149961	-0.001733	0.003959	-0.007279	-138.655434	-88.863624	-111.616629
57565	9.765128	-0.126729	-0.173240	-0.003012	0.003154	-0.007053	-138.658563	-88.863215	-111.613507
57566	9.750272	-0.105624	-0.124430	-0.002557	0.005260	-0.007237	-138.625230	-88.863788	-111.646570
57567	9.746693	-0.109835	-0.147552	-0.002692	0.005073	-0.009033	-138.634482	-88.864953	-111.637141
57568	9.740487	-0.125647	-0.117532	-0.002053	0.002040	-0.005301	-138.620693	-88.863406	-111.650358
57569	9.755383	-0.145174	-0.165712	-0.003415	0.002593	-0.012442	-138.751723	-88.864794	-111.519540
57570	9.743143	-0.112303	-0.170356	-0.000908	0.002658	-0.007324	-138.769124	-88.864290	-111.500954
57571	9.768814	-0.116974	-0.147542	-0.003837	0.004455	-0.007012	-138.747011	-88.864425	-111.523552
57572	9.765239	-0.121286	-0.170862	-0.002187	0.001853	-0.007098	-138.775763	-88.863489	-111.494329
57573	9.736967	-0.126726	-0.139691	-0.002558	0.005259	-0.007238	-138.742529	-88.864057	-111.527317
57574	9.768855	-0.114797	-0.146534	-0.004425	0.002162	-0.008626	-138.799386	-88.863838	-111.471280
57575	9.762652	-0.130549	-0.116607	-0.003012	0.003154	-0.007056	-138.802531	-88.863430	-111.468142
57576	9.778682	-0.091717	-0.151965	-0.003971	0.004267	-0.008809	-138.823438	-88.864181	-111.447830
57577	9.737027	-0.123539	-0.138375	-0.003146	0.002967	-0.008853	-138.869307	-88.864369	-111.402036
57578	9.768912	-0.111508	-0.145284	-0.003146	0.002966	-0.008853	-138.915688	-88.864561	-111.355729
57579	9.752917	-0.148779	-0.109175	-0.002558	0.005259	-0.007240	-138.882528	-88.865131	-111.388643
57580	9.733496	-0.126090	-0.160820	-0.002692	0.005072	-0.009036	-138.892121	-88.866321	-111.378892
57581	9.759166	-0.130662	-0.137945	-0.003012	0.003153	-0.007057	-138.895282	-88.865913	-111.375737
57582	9.740678	-0.114609	-0.112865	-0.003012	0.003153	-0.007058	-138.898133	-88.865520	-111.372885
57583	9.759194	-0.129278	-0.137275	-0.003837	0.004454	-0.007015	-138.876103	-88.865657	-111.395400
57584	9.749424	-0.150095	-0.130625	-0.000826	0.008170	-0.007650	-138.795602	-88.867645	-111.474658
57585	9.759230	-0.127751	-0.136121	-0.003145	0.002966	-0.008855	-138.841671	-88.867834	-111.428663
57586	9.759245	-0.126982	-0.135803	-0.005116	0.003648	-0.006790	-138.831154	-88.867538	-111.440379
57587	9.746961	-0.094479	-0.140276	-0.000320	0.004951	-0.005713	-138.769184	-88.867398	-111.500826
57588	9.755706	-0.130820	-0.158511	-0.002425	0.005446	-0.005445	-138.693638	-88.867374	-111.576063
57589	9.762853	-0.120123	-0.110845	-0.003145	0.002966	-0.008856	-138.739707	-88.867566	-111.530069
57590	9.759301	-0.124350	-0.134220	-0.004290	0.002347	-0.006834	-138.753926	-88.866752	-111.516596
57591	9.740792	-0.108325	-0.109183	-0.003011	0.003153	-0.007060	-138.757202	-88.866345	-111.513326
57592	9.749551	-0.144510	-0.127458	-0.003384	0.006559	-0.007200	-138.699482	-88.867476	-111.571334
57593	9.765561	-0.105710	-0.162572	-0.002558	0.005258	-0.007243	-138.666216	-88.868044	-111.604354
57594	9.765576	-0.105019	-0.162141	-0.005116	0.003647	-0.006793	-138.655160	-88.867771	-111.616627
57595	9.755818	-0.125707	-0.155744	-0.004103	0.004079	-0.010613	-138.718765	-88.869106	-111.553642
57596	9.720419	-0.141036	-0.171761	-0.002558	0.005258	-0.007244	-138.685877	-88.869677	-111.586264
57597	9.755851	-0.124139	-0.154926	-0.004290	0.002346	-0.006836	-138.700489	-88.868839	-111.572388
57598	9.759418	-0.118452	-0.130989	-0.001732	0.003959	-0.007287	-138.692250	-88.868882	-111.579898
57599	9.759434	-0.117676	-0.130506	-0.006902	0.006059	-0.008506	-138.673625	-88.870273	-111.600764
57600	9.755897	-0.121888	-0.153781	-0.000079	0.001359	-0.007372	-138.716978	-88.869215	-111.555717
57601	9.759459	-0.116179	-0.129952	-0.000906	0.002659	-0.007330	-138.734418	-88.868698	-111.537074
57602	9.752375	-0.125547	-0.176803	-0.004531	0.005938	-0.005180	-138.644329	-88.868798	-111.628074
57603	9.755938	-0.119864	-0.152803	-0.002317	0.001666	-0.008903	-138.715885	-88.868448	-111.556114
57604	9.749737	-0.135646	-0.122858	-0.003837	0.004452	-0.007021	-138.693846	-88.868619	-111.578677
57605	9.763056	-0.108500	-0.104800	-0.003705	0.004638	-0.005223	-138.629098	-88.868156	-111.643843
57606	9.778076	-0.128195	-0.152827	-0.003010	0.003152	-0.007063	-138.632687	-88.867769	-111.640273
57607	9.759536	-0.112105	-0.127763	-0.003143	0.002965	-0.008861	-138.678885	-88.867964	-111.594149
57608	9.724153	-0.127642	-0.143886	-0.003705	0.004638	-0.005224	-138.614120	-88.867513	-111.659320
57609	9.752481	-0.120696	-0.174300	-0.003143	0.002965	-0.008862	-138.660317	-88.867708	-111.613196
57610	9.749821	-0.131591	-0.120590	-0.004532	0.005937	-0.005182	-138.570860	-88.867810	-111.703596
57611	9.749833	-0.131087	-0.120182	-0.004156	0.002532	-0.005042	-138.542949	-88.866372	-111.732176
57612	9.742772	-0.140375	-0.167192	-0.003143	0.002965	-0.008863	-138.588775	-88.866599	-111.686441
57613	9.756073	-0.113057	-0.149307	-0.004289	0.002345	-0.006840	-138.603539	-88.865762	-111.672413
57614	9.746337	-0.133927	-0.142999	-0.001732	0.003959	-0.007290	-138.596312	-88.865794	-111.678927
57615	9.756102	-0.111564	-0.148565	-0.002691	0.005071	-0.009046	-138.605864	-88.866964	-111.669197
57616	9.752584	-0.115767	-0.171845	-0.004288	0.002345	-0.006841	-138.620373	-88.866150	-111.655421
57617	9.768488	-0.141956	-0.143094	-0.000905	0.002659	-0.007333	-138.637854	-88.865634	-111.636737
57618	9.772032	-0.136279	-0.119153	-0.005116	0.003644	-0.006799	-138.627792	-88.865335	-111.647990
57619	9.742884	-0.135342	-0.164799	-0.003254	0.006743	-0.005408	-138.526699	-88.865844	-111.749249
57620	9.756170	-0.108171	-0.146578	-0.002559	0.005258	-0.007249	-138.493710	-88.866429	-111.782001
57621	9.756182	-0.107555	-0.146224	-0.002051	0.002039	-0.005311	-138.479997	-88.864880	-111.795174
57622	9.746455	-0.128508	-0.139874	-0.002559	0.005258	-0.007249	-138.447348	-88.865457	-111.827587
57623	9.772105	-0.132946	-0.116910	-0.004101	0.004077	-0.010622	-138.510816	-88.866800	-111.764738
57624	9.778333	-0.115492	-0.146362	-0.002633	-0.000254	-0.006928	-138.577664	-88.864848	-111.697628
57625	9.742979	-0.131058	-0.162641	-0.002559	0.005257	-0.007250	-138.544586	-88.865418	-111.730461
57626	9.756248	-0.103894	-0.144452	-0.004533	0.005935	-0.005185	-138.455202	-88.865504	-111.820748
57627	9.758911	-0.156637	-0.133227	-0.002314	0.001666	-0.008909	-138.526738	-88.865162	-111.748806
57628	9.734158	-0.092055	-0.142841	-0.003592	0.000858	-0.008685	-138.610255	-88.864383	-111.665608
57629	9.774882	-0.116827	-0.168475	-0.003837	0.004450	-0.007027	-138.588547	-88.864521	-111.687801
57630	9.746572	-0.122278	-0.137310	-0.004101	0.004077	-0.010625	-138.652513	-88.865871	-111.624455
57631	9.746584	-0.121583	-0.137069	-0.001091	0.000926	-0.003556	-138.621236	-88.863180	-111.654644
57632	9.752811	-0.104436	-0.166130	-0.002487	0.010769	-0.007574	-138.489277	-88.866251	-111.786309
57633	9.800574	-0.119302	-0.144156	-0.003459	0.001044	-0.006888	-138.529585	-88.864874	-111.746258
57634	9.740414	-0.136183	-0.106191	-0.005697	0.001349	-0.008421	-138.599165	-88.864199	-111.678190
57635	9.746639	-0.118805	-0.135627	-0.000904	0.002660	-0.007336	-138.616684	-88.863685	-111.659467
57636	9.740440	-0.134709	-0.105720	-0.003010	0.003151	-0.007071	-138.619416	-88.863315	-111.656730
57637	9.778502	-0.106083	-0.142104	-0.001732	0.003959	-0.007295	-138.611706	-88.863343	-111.663716
57638	9.743173	-0.121589	-0.158352	-0.004418	0.002156	-0.008646	-138.669276	-88.863114	-111.606924
57639	9.724567	-0.105589	-0.133374	-0.004287	0.002342	-0.006847	-138.684140	-88.862278	-111.592794
57640	9.778539	-0.103763	-0.141274	-0.003969	0.004263	-0.008829	-138.705360	-88.863022	-111.572105
57641	9.765342	-0.129531	-0.158480	-0.002560	0.005257	-0.007254	-138.672486	-88.863593	-111.604734
57642	9.756442	-0.092095	-0.139277	-0.002878	0.003336	-0.005273	-138.633747	-88.862589	-111.643389
57643	9.733537	-0.139640	-0.150533	-0.004666	0.005747	-0.006989	-138.586959	-88.863270	-111.691142
57644	9.768886	-0.122560	-0.133559	-0.003140	0.002964	-0.008872	-138.633460	-88.863489	-111.644735
57645	9.752983	-0.094979	-0.161654	-0.002429	0.005443	-0.005455	-138.557945	-88.863458	-111.719938
57646	9.733586	-0.137547	-0.149295	-0.003009	0.003150	-0.007073	-138.561869	-88.863074	-111.716038
57647	9.746798	-0.110216	-0.131365	-0.004417	0.002156	-0.008649	-138.619452	-88.862841	-111.659256
57648	9.755746	-0.146247	-0.149863	-0.001732	0.003959	-0.007297	-138.611225	-88.862908	-111.666772
57649	9.768955	-0.118972	-0.131738	-0.002560	0.005257	-0.007255	-138.578352	-88.863479	-111.699401
57650	9.737137	-0.129703	-0.124241	-0.002878	0.003336	-0.005274	-138.540791	-88.862462	-111.736914
57651	9.765491	-0.122638	-0.154705	-0.004417	0.002155	-0.008651	-138.598382	-88.862230	-111.680124
57652	9.765506	-0.121866	-0.154388	-0.003838	0.004448	-0.007033	-138.577669	-88.862377	-111.701343
57653	9.769005	-0.116215	-0.130476	-0.003457	0.001043	-0.006893	-138.617863	-88.861000	-111.661403
57654	9.746882	-0.105287	-0.129163	-0.003009	0.003150	-0.007075	-138.622079	-88.860616	-111.657226
57655	9.765544	-0.119719	-0.153669	-0.004417	0.002155	-0.008652	-138.679593	-88.860383	-111.600514
57656	9.737217	-0.125239	-0.122558	-0.001414	0.005880	-0.009280	-138.678396	-88.862007	-111.600818
57657	9.765580	-0.117952	-0.152725	-0.004797	0.005559	-0.008793	-138.674409	-88.863291	-111.605836
57658	9.730289	-0.133413	-0.169020	-0.001481	0.000368	-0.008959	-138.771830	-88.862400	-111.507526
57659	9.737262	-0.122783	-0.121440	-0.002431	0.005442	-0.005457	-138.696452	-88.862373	-111.582593
57660	9.755937	-0.137284	-0.145834	-0.004416	0.002154	-0.008653	-138.754132	-88.862156	-111.525715
57661	9.765636	-0.114907	-0.151474	-0.003838	0.004447	-0.007035	-138.732716	-88.862297	-111.547616
57662	9.791268	-0.119471	-0.128461	-0.002561	0.005256	-0.007258	-138.699653	-88.862902	-111.580442
57663	9.743525	-0.103276	-0.149426	-0.003838	0.004447	-0.007036	-138.678231	-88.863042	-111.602349
57664	9.756000	-0.134426	-0.144254	-0.004286	0.002340	-0.006854	-138.693528	-88.862221	-111.587790
57665	9.765694	-0.112046	-0.149826	-0.004798	0.005558	-0.008795	-138.689629	-88.863506	-111.592720
57666	9.765709	-0.111410	-0.149329	0.001912	0.004652	-0.004187	-138.599511	-88.862671	-111.680050
57667	9.747047	-0.095527	-0.124227	-0.006652	0.002456	-0.010192	-138.686063	-88.863150	-111.595574
57668	9.746387	-0.153166	-0.136811	-0.002879	0.003335	-0.005278	-138.647257	-88.862142	-111.634274
57669	9.733929	-0.120744	-0.141257	-0.005945	0.004934	-0.006773	-138.612071	-88.862393	-111.671155
57670	9.752625	-0.135234	-0.165626	-0.003008	0.003149	-0.007079	-138.615697	-88.862021	-111.667549
57671	9.746436	-0.151012	-0.135703	-0.001991	0.003587	-0.010903	-138.693398	-88.863256	-111.589255
57672	9.756123	-0.128606	-0.141250	-0.003708	0.004632	-0.005237	-138.631028	-88.862763	-111.652034
57673	9.733985	-0.117800	-0.139875	-0.003455	0.001042	-0.006898	-138.671308	-88.861387	-111.612008
57674	9.765816	-0.105521	-0.146635	-0.002821	0.004885	-0.010863	-138.724866	-88.863145	-111.558312
57675	9.746504	-0.147856	-0.134346	0.000375	0.003472	-0.007566	-138.731126	-88.863067	-111.550118
57676	9.765844	-0.103902	-0.145906	-0.003008	0.003149	-0.007080	-138.734556	-88.862664	-111.546630
57677	9.756196	-0.124818	-0.139559	-0.002561	0.005256	-0.007262	-138.701911	-88.863239	-111.579031
57678	9.734058	-0.113826	-0.138062	-0.003138	0.002963	-0.008882	-138.748036	-88.863464	-111.532970
57679	9.781834	-0.128577	-0.116302	-0.002879	0.003334	-0.005280	-138.709166	-88.862463	-111.571779
57680	9.734082	-0.112517	-0.137406	-0.001731	0.003959	-0.007304	-138.702187	-88.862499	-111.578035
57681	9.756255	-0.121745	-0.138189	-0.003396	0.002592	-0.012485	-138.834163	-88.863898	-111.446261
57682	9.756272	-0.120778	-0.137810	-0.002562	0.005255	-0.007263	-138.801496	-88.864507	-111.478708
57683	9.756288	-0.120066	-0.137300	-0.002562	0.005255	-0.007263	-138.768873	-88.865083	-111.511088
57684	9.752854	-0.124401	-0.160541	-0.002879	0.003334	-0.005281	-138.730479	-88.864101	-111.549455
57685	9.775028	-0.133893	-0.161334	-0.003137	0.002962	-0.008884	-138.777086	-88.864301	-111.502917
57686	9.730724	-0.112739	-0.158723	-0.004669	0.005741	-0.007001	-138.730850	-88.865011	-111.550143
57687	9.775064	-0.132219	-0.160485	0.000118	0.003101	-0.011172	-138.822790	-88.866134	-111.456400
57688	9.724553	-0.127651	-0.128447	-0.004284	0.002337	-0.006861	-138.837998	-88.865327	-111.441941
57689	9.778535	-0.125945	-0.136066	-0.001729	0.007919	-0.002041	-138.640508	-88.865076	-111.638743
57690	9.759826	-0.110180	-0.110818	-0.001158	0.002291	-0.010950	-138.744615	-88.865776	-111.533586
57691	9.756401	-0.114168	-0.134263	-0.004413	0.002151	-0.008664	-138.802694	-88.865543	-111.476306
57692	9.752977	-0.118344	-0.157605	-0.003838	0.004444	-0.007043	-138.781982	-88.865678	-111.497479
57693	9.728059	-0.119206	-0.102865	-0.001731	0.003958	-0.007307	-138.774528	-88.865712	-111.504209
57694	9.746806	-0.133536	-0.127219	-0.003967	0.004258	-0.008846	-138.796862	-88.866440	-111.482398
57695	9.781397	-0.109439	-0.186981	-0.001415	0.005880	-0.009290	-138.795778	-88.868050	-111.482574
57696	9.728102	-0.116744	-0.101582	-0.004284	0.002336	-0.006864	-138.811992	-88.867188	-111.467048
57697	9.775224	-0.124736	-0.156729	-0.002879	0.003333	-0.005284	-138.773050	-88.866188	-111.505930
57698	9.740008	-0.140537	-0.172967	-0.002562	0.005254	-0.007267	-138.741031	-88.866763	-111.537696
57699	9.756512	-0.108207	-0.131063	-0.002691	0.005069	-0.009069	-138.751296	-88.867940	-111.527252
57700	9.746899	-0.128957	-0.124780	-0.001028	0.002477	-0.009151	-138.811940	-88.868038	-111.465440
57701	9.743488	-0.133197	-0.148099	-0.003710	0.004628	-0.005244	-138.747823	-88.867581	-111.529977
57702	9.778725	-0.116163	-0.131063	-0.003007	0.003147	-0.007087	-138.752597	-88.867175	-111.525201
57703	9.756564	-0.105312	-0.129548	-0.004670	0.005739	-0.007006	-138.706222	-88.867861	-111.572544
57704	9.746956	-0.126178	-0.123152	-0.003967	0.004257	-0.008849	-138.728386	-88.868603	-111.550910
57705	9.743550	-0.130347	-0.146562	-0.003452	0.001039	-0.006907	-138.768992	-88.867227	-111.510556
57706	9.775361	-0.118157	-0.153253	-0.002562	0.005254	-0.007269	-138.737892	-88.867794	-111.541437
57707	9.753198	-0.107223	-0.151812	-0.004411	0.002150	-0.008669	-138.796221	-88.867563	-111.483907
57708	9.743595	-0.128089	-0.145547	-0.002563	0.005254	-0.007269	-138.764499	-88.868127	-111.515367
57709	9.765791	-0.137533	-0.146161	-0.003838	0.004442	-0.007048	-138.743347	-88.868271	-111.537005
57710	9.747039	-0.121744	-0.121008	-0.001731	0.003958	-0.007310	-138.737233	-88.868282	-111.542382
57711	9.765822	-0.136133	-0.145388	-0.005114	0.003630	-0.006827	-138.727527	-88.867992	-111.553302
57712	9.747068	-0.120261	-0.120183	-0.001415	0.005881	-0.009294	-138.726286	-88.869629	-111.553638
57713	9.788038	-0.144686	-0.145674	-0.003451	0.001039	-0.006909	-138.766989	-88.868254	-111.513186
57714	9.740277	-0.128569	-0.166989	-0.003134	0.002961	-0.008893	-138.814129	-88.868493	-111.466160
57715	9.747109	-0.117905	-0.119198	-0.003395	0.006549	-0.007231	-138.756401	-88.869615	-111.524126
57716	9.743718	-0.122140	-0.142396	-0.003007	0.003146	-0.007091	-138.760192	-88.869234	-111.520320
57717	9.756314	-0.153146	-0.137281	-0.003134	0.002961	-0.008894	-138.807258	-88.869436	-111.473323
57718	9.747149	-0.115638	-0.118141	-0.003007	0.003146	-0.007091	-138.811900	-88.869033	-111.468671
57719	9.756345	-0.151677	-0.136664	-0.005114	0.003629	-0.006830	-138.802243	-88.868745	-111.479542
57720	9.747174	-0.114261	-0.117450	-0.001731	0.003958	-0.007313	-138.794606	-88.868798	-111.486438
57721	9.762577	-0.133462	-0.165526	-0.003134	0.002961	-0.008895	-138.841687	-88.869001	-111.439425
57722	9.743802	-0.117710	-0.140355	-0.004543	0.005922	-0.005208	-138.752511	-88.869090	-111.529473
57723	9.730824	-0.143612	-0.157703	-0.003134	0.002961	-0.008896	-138.799610	-88.869293	-111.482442
57724	9.766021	-0.126354	-0.140770	-0.002174	0.001851	-0.007133	-138.828820	-88.868372	-111.452754
57725	9.740446	-0.120478	-0.163164	-0.004282	0.002333	-0.006872	-138.844338	-88.867541	-111.437969
57726	9.766046	-0.124968	-0.140266	-0.001731	0.003958	-0.007314	-138.836482	-88.867614	-111.445107
57727	9.762669	-0.129173	-0.163510	-0.000455	0.004771	-0.007535	-138.817759	-88.868084	-111.462376
57728	9.766076	-0.123614	-0.139385	-0.003711	0.004626	-0.005250	-138.753593	-88.867637	-111.526932
57729	9.743894	-0.112905	-0.137916	-0.005114	0.003628	-0.006833	-138.744051	-88.867349	-111.537687
57730	9.756518	-0.143893	-0.132705	-0.000582	0.004586	-0.009339	-138.768874	-88.868433	-111.511501
57731	9.762736	-0.126163	-0.161862	-0.001985	0.003588	-0.010922	-138.847587	-88.869671	-111.432191
57732	9.756554	-0.142109	-0.131974	-0.002879	0.003330	-0.005291	-138.808725	-88.868683	-111.470976
57733	9.766151	-0.119732	-0.137513	-0.001858	0.003773	-0.009119	-138.844459	-88.869321	-111.434582
57734	9.766165	-0.118937	-0.137178	-0.003006	0.003145	-0.007095	-138.848787	-88.868937	-111.430258
57735	9.731019	-0.134731	-0.153431	-0.003396	0.006548	-0.007236	-138.791214	-88.870060	-111.488070
57736	9.766195	-0.117595	-0.136212	0.000504	0.003661	-0.005773	-138.754594	-88.869426	-111.522729
57737	9.766207	-0.116976	-0.135859	-0.005114	0.003626	-0.006835	-138.745118	-88.869138	-111.533419
57738	9.744021	-0.106009	-0.134382	-0.002817	0.004883	-0.010885	-138.799996	-88.870918	-111.478458
57739	9.756666	-0.136890	-0.129142	-0.001731	0.003958	-0.007317	-138.792742	-88.870955	-111.484987
57740	9.753307	-0.141112	-0.152409	-0.003839	0.004439	-0.007057	-138.771467	-88.871129	-111.506748
57741	9.762894	-0.118828	-0.157847	-0.003712	0.004624	-0.005253	-138.707470	-88.870672	-111.571167
57742	9.744075	-0.103106	-0.132704	-0.001857	0.003773	-0.009122	-138.744447	-88.871309	-111.533555
57743	9.762927	-0.117220	-0.156971	-0.001415	0.005881	-0.009302	-138.743541	-88.872924	-111.533554
57744	9.753375	-0.138126	-0.150783	-0.006830	0.000704	-0.006437	-138.782491	-88.871237	-111.496784
57745	9.744112	-0.100856	-0.131727	-0.002879	0.003329	-0.005293	-138.743715	-88.870238	-111.535498
57746	9.766332	-0.110324	-0.132373	-0.002564	0.005252	-0.007278	-138.710110	-88.870884	-111.568886
57747	9.756783	-0.131212	-0.126169	-0.002298	0.001665	-0.008943	-138.782648	-88.870547	-111.495932
57748	9.734589	-0.120249	-0.124784	-0.002690	0.005068	-0.009083	-138.793466	-88.871756	-111.484960
57749	9.775663	-0.144615	-0.150132	-0.001604	0.004143	-0.005514	-138.743171	-88.871192	-111.534466
57750	9.740812	-0.102156	-0.153527	-0.003005	0.003144	-0.007099	-138.747677	-88.870807	-111.529962
57751	9.763041	-0.111340	-0.154157	-0.001541	0.005696	-0.011109	-138.789951	-88.873026	-111.486844
57752	9.750141	-0.137064	-0.171706	-0.002613	-0.000258	-0.006959	-138.856477	-88.871101	-111.420054
57753	9.744210	-0.094763	-0.128920	-0.002564	0.005252	-0.007280	-138.824129	-88.871682	-111.452160
57754	9.756886	-0.125909	-0.123573	-0.004547	0.005917	-0.005216	-138.734738	-88.871798	-111.542461
57755	9.721779	-0.141670	-0.139914	-0.003257	0.002774	-0.010710	-138.825331	-88.872606	-111.451998
57756	9.756917	-0.124245	-0.122829	-0.001730	0.003958	-0.007321	-138.818249	-88.872644	-111.458324
57757	9.753578	-0.128458	-0.146163	-0.003005	0.003144	-0.007101	-138.822595	-88.872249	-111.453981
57758	9.766490	-0.101060	-0.128050	-0.003131	0.002959	-0.008906	-138.871316	-88.872447	-111.405348
57759	9.753608	-0.126799	-0.145584	-0.003131	0.002959	-0.008906	-138.918853	-88.872652	-111.357877
57760	9.721863	-0.137624	-0.138134	-0.000849	0.008174	-0.007682	-138.734580	-88.865733	-111.535855
57761	9.766532	-0.098658	-0.126775	-0.003445	0.001035	-0.006922	-138.775389	-88.864354	-111.495290
57762	9.728086	-0.119358	-0.167033	-0.003130	0.002959	-0.008907	-138.822559	-88.864587	-111.448147
57763	9.753669	-0.123800	-0.144041	-0.003713	0.004621	-0.005258	-138.758978	-88.864125	-111.512146
57764	9.744145	-0.144891	-0.137815	-0.003005	0.003143	-0.007103	-138.762026	-88.863770	-111.509101
57765	9.757040	-0.117580	-0.119622	-0.003839	0.004437	-0.007063	-138.741303	-88.863910	-111.530307
57766	9.744175	-0.143589	-0.137077	-0.002879	0.003328	-0.005298	-138.703307	-88.862900	-111.568203
57767	9.775950	-0.131240	-0.143611	-0.003964	0.004252	-0.008869	-138.725363	-88.863643	-111.546693
57768	9.731510	-0.110450	-0.141209	-0.002045	0.002034	-0.005338	-138.713246	-88.862095	-111.558341
57769	9.757089	-0.114886	-0.118213	-0.004799	0.005546	-0.008831	-138.710294	-88.863380	-111.562322
57770	9.734874	-0.103971	-0.116879	-0.001461	0.000371	-0.008988	-138.806965	-88.862518	-111.464757
57771	9.753779	-0.118140	-0.141377	-0.003839	0.004436	-0.007065	-138.786313	-88.862659	-111.485892
57772	9.753793	-0.117445	-0.140949	-0.003839	0.004436	-0.007065	-138.765566	-88.862807	-111.507091
57773	9.750473	-0.121661	-0.164265	-0.003004	0.003143	-0.007105	-138.769902	-88.862406	-111.502754
57774	9.753821	-0.115965	-0.140227	-0.003964	0.004252	-0.008872	-138.792471	-88.863177	-111.480792
57775	9.750506	-0.120171	-0.163440	-0.002440	0.005435	-0.005480	-138.717564	-88.863149	-111.555390
57776	9.776080	-0.124683	-0.140554	-0.002609	-0.000259	-0.006965	-138.782741	-88.861280	-111.489919
57777	9.728299	-0.108735	-0.161811	-0.002251	0.007175	-0.009272	-138.756982	-88.863434	-111.515251
57778	9.747686	-0.129866	-0.109131	-0.005113	0.003620	-0.006848	-138.747647	-88.863180	-111.525822
57779	9.753891	-0.112279	-0.138357	-0.001020	0.002480	-0.009171	-138.808319	-88.863273	-111.464001
57780	9.753903	-0.111581	-0.138054	-0.004988	0.003805	-0.005042	-138.756899	-88.862403	-111.516655
57781	9.750592	-0.115902	-0.161382	-0.005113	0.003620	-0.006849	-138.747806	-88.862110	-111.526959
57782	9.753928	-0.110298	-0.137332	-0.001730	0.003958	-0.007326	-138.740792	-88.862172	-111.533257
57783	9.744432	-0.131199	-0.131084	-0.000581	0.004589	-0.009352	-138.764980	-88.863242	-111.507675
57784	9.763467	-0.086972	-0.142413	-0.004278	0.002327	-0.006889	-138.780808	-88.862425	-111.492632
57785	9.776212	-0.117912	-0.137163	-0.002251	0.007175	-0.009274	-138.755069	-88.864580	-111.517944
57786	9.753989	-0.107027	-0.135586	-0.007347	0.003912	-0.008399	-138.774946	-88.865023	-111.500491
57787	9.741182	-0.132867	-0.153087	0.000379	0.003480	-0.007585	-138.781361	-88.864948	-111.492136
57788	9.757328	-0.100630	-0.111263	-0.004278	0.002326	-0.006890	-138.797247	-88.864137	-111.477014
57789	9.737898	-0.136365	-0.176191	-0.001730	0.003958	-0.007328	-138.790180	-88.864171	-111.483352
57790	9.744538	-0.125763	-0.128485	-0.003128	0.002958	-0.008916	-138.836585	-88.864388	-111.436979
57791	9.754050	-0.103432	-0.133998	-0.002755	0.003510	-0.003496	-138.755362	-88.862783	-111.518075
57792	9.744564	-0.124448	-0.127831	-0.001979	0.003589	-0.010942	-138.834540	-88.864014	-111.438155
57793	9.754075	-0.101772	-0.133418	-0.005675	0.001325	-0.008479	-138.904803	-88.863346	-111.369409
57794	9.766839	-0.132824	-0.128287	-0.004551	0.005911	-0.005225	-138.816951	-88.863452	-111.458095
57795	9.750792	-0.105311	-0.156433	-0.003566	0.000849	-0.008737	-138.900643	-88.862676	-111.374709
57796	9.741314	-0.126174	-0.150369	-0.003964	0.004250	-0.008878	-138.923431	-88.863434	-111.352500
57797	9.744633	-0.120569	-0.126276	-0.001606	0.004142	-0.005522	-138.873531	-88.862867	-111.401609
57798	9.750833	-0.103122	-0.155367	-0.003839	0.004434	-0.007072	-138.853920	-88.862994	-111.421688
57799	9.744662	-0.119061	-0.125434	-0.000705	0.004406	-0.011162	-138.921218	-88.864666	-111.353058
57800	9.741377	-0.123076	-0.148797	-0.004277	0.002325	-0.006893	-138.936879	-88.863861	-111.338110
57801	9.763645	-0.132347	-0.149510	0.001653	0.004298	-0.007806	-138.931838	-88.864222	-111.340483
57802	9.754187	-0.095091	-0.130105	-0.004552	0.005910	-0.005227	-138.844585	-88.864288	-111.428671
57803	9.728648	-0.089394	-0.152388	-0.002167	0.001849	-0.007151	-138.874015	-88.863346	-111.398756
57804	9.731953	-0.142063	-0.141503	-0.003963	0.004249	-0.008881	-138.896612	-88.864091	-111.376685
57805	9.773187	-0.107782	-0.153696	-0.002566	0.005250	-0.007292	-138.864698	-88.864669	-111.408354
57806	9.744759	-0.113847	-0.122706	-0.003963	0.004249	-0.008882	-138.888226	-88.865424	-111.385478
57807	9.747669	-0.101117	-0.175539	-0.003003	0.003141	-0.007113	-138.892751	-88.865024	-111.380951
57808	9.782726	-0.142023	-0.171433	-0.003963	0.004249	-0.008882	-138.916178	-88.865784	-111.358129
57809	9.741513	-0.116481	-0.145195	-0.004552	0.005909	-0.005229	-138.827835	-88.865869	-111.447376
57810	9.757599	-0.142623	-0.116505	-0.004000	-0.001261	-0.008563	-138.948126	-88.864142	-111.327671
57811	9.773267	-0.103345	-0.151605	-0.002443	0.005433	-0.005486	-138.873336	-88.864120	-111.402154
57812	9.763812	-0.124380	-0.145333	-0.003963	0.004249	-0.008884	-138.895387	-88.864884	-111.380554
57813	9.735381	-0.130479	-0.114332	-0.004676	0.005725	-0.007038	-138.850073	-88.865571	-111.426835
57814	9.738301	-0.117814	-0.167050	-0.001730	0.003958	-0.007333	-138.842295	-88.865644	-111.433904
57815	9.767140	-0.117303	-0.120262	-0.005949	0.004907	-0.006821	-138.808497	-88.865896	-111.469396
57816	9.767152	-0.116627	-0.119914	-0.004276	0.002323	-0.006898	-138.825658	-88.865076	-111.453026
57817	9.763888	-0.120819	-0.143243	-0.002566	0.005250	-0.007295	-138.793744	-88.865654	-111.484696
57818	9.763903	-0.120122	-0.142814	-0.005112	0.003615	-0.006860	-138.784133	-88.865391	-111.495498
57819	9.744925	-0.104658	-0.117619	-0.001170	0.006251	-0.005705	-138.697699	-88.865799	-111.580898
57820	9.763932	-0.118875	-0.141881	-0.003003	0.003140	-0.007117	-138.701249	-88.865442	-111.577312
57821	9.757401	-0.127950	-0.188968	-0.003002	0.003140	-0.007117	-138.705922	-88.865044	-111.572638
57822	9.763959	-0.117289	-0.141314	-0.001138	0.002299	-0.010989	-138.809547	-88.865779	-111.467986
57823	9.773428	-0.094662	-0.146819	-0.005112	0.003614	-0.006861	-138.800800	-88.865489	-111.477942
57824	9.728996	-0.132384	-0.157469	0.000816	0.005593	-0.007770	-138.770956	-88.866408	-111.505567
57825	9.786277	-0.124908	-0.141073	-0.002567	0.005249	-0.007297	-138.739029	-88.866987	-111.537249
57826	9.751303	-0.140822	-0.157647	-0.005671	0.001321	-0.008491	-138.810363	-88.866360	-111.467485
57827	9.741759	-0.103551	-0.138332	-0.003281	0.006724	-0.005451	-138.710485	-88.866877	-111.567541
57828	9.754599	-0.134545	-0.133097	-0.003125	0.002956	-0.008927	-138.756961	-88.867145	-111.521141
57829	9.764062	-0.111993	-0.138484	-0.002567	0.005249	-0.007298	-138.725028	-88.867724	-111.552830
57830	9.745060	-0.096453	-0.113323	-0.001729	0.003958	-0.007337	-138.719740	-88.867704	-111.557329
57831	9.751387	-0.137287	-0.155559	-0.001607	0.004141	-0.005528	-138.669897	-88.867136	-111.606380
57832	9.757918	-0.126894	-0.107646	-0.003404	0.006540	-0.007261	-138.612844	-88.868276	-111.663688
57833	9.738585	-0.104170	-0.159350	-0.003124	0.002956	-0.008929	-138.660599	-88.868484	-111.615992
57834	9.754691	-0.130285	-0.130583	-0.002880	0.003323	-0.005312	-138.624480	-88.867468	-111.652083
57835	9.773731	-0.144399	-0.154992	-0.003124	0.002956	-0.008929	-138.672217	-88.867676	-111.604405
57836	9.729187	-0.123751	-0.152611	-0.003839	0.004431	-0.007083	-138.652006	-88.867859	-111.625112
57837	9.760919	-0.111141	-0.159084	-0.004397	0.002138	-0.008713	-138.711432	-88.867633	-111.566473
57838	9.780281	-0.132208	-0.106615	-0.003962	0.004247	-0.008892	-138.734480	-88.868383	-111.543969
57839	9.751517	-0.131166	-0.152657	-0.003124	0.002956	-0.008930	-138.782305	-88.868591	-111.496203
57840	9.773817	-0.140291	-0.153333	-0.001729	0.003958	-0.007339	-138.775753	-88.868646	-111.502019
57841	9.741937	-0.093182	-0.133032	-0.002880	0.003323	-0.005313	-138.737533	-88.867645	-111.540175
57842	9.773847	-0.138891	-0.152665	-0.005356	0.003245	-0.010485	-138.816143	-88.868526	-111.462817
57843	9.764247	-0.101629	-0.133297	-0.002323	0.005615	-0.003683	-138.698228	-88.867898	-111.580365
57844	9.754834	-0.122869	-0.127041	-0.003839	0.004430	-0.007085	-138.678663	-88.868042	-111.600403
57845	9.754847	-0.122172	-0.126676	-0.003001	0.003139	-0.007123	-138.683514	-88.867646	-111.595550
57846	9.764283	-0.099702	-0.132140	-0.003001	0.003139	-0.007123	-138.689542	-88.867211	-111.589512
57847	9.742214	-0.147344	-0.143996	-0.005234	0.003428	-0.008678	-138.724002	-88.867527	-111.556323
57848	9.751654	-0.124689	-0.149311	-0.001417	0.005884	-0.009329	-138.724168	-88.869145	-111.555207
57849	9.757851	-0.107089	-0.178412	-0.005424	0.001685	-0.004881	-138.709373	-88.867275	-111.571391
57850	9.773971	-0.133217	-0.149731	-0.003123	0.002956	-0.008934	-138.757684	-88.867472	-111.523117
57851	9.767805	-0.149332	-0.119974	-0.003001	0.003139	-0.007124	-138.762542	-88.867076	-111.518257
57852	9.751708	-0.121903	-0.148080	-0.001608	0.004141	-0.005532	-138.712856	-88.866522	-111.567117
57853	9.751721	-0.121273	-0.147687	-0.001729	0.003958	-0.007342	-138.706074	-88.866561	-111.573170
57854	9.761390	-0.157026	-0.166240	-0.003961	0.004246	-0.008897	-138.729311	-88.867317	-111.550548
57855	9.754984	-0.114635	-0.123145	-0.002810	0.004882	-0.010924	-138.783589	-88.869107	-111.496148
57856	9.751772	-0.118630	-0.146502	-0.004273	0.002319	-0.006909	-138.800388	-88.868299	-111.480076
57857	9.780533	-0.118085	-0.099854	-0.000891	0.002667	-0.007380	-138.818607	-88.867796	-111.460643
57858	9.723319	-0.124332	-0.115388	-0.004557	0.005902	-0.005241	-138.730348	-88.867893	-111.549763
57859	9.751813	-0.116615	-0.145358	-0.003961	0.004246	-0.008899	-138.753285	-88.868645	-111.527371
57860	9.748606	-0.120696	-0.168708	-0.003001	0.003138	-0.007127	-138.758475	-88.868244	-111.522171
57861	9.751843	-0.115032	-0.144605	-0.002689	0.005065	-0.009116	-138.769773	-88.869430	-111.510690
57862	9.764759	-0.145917	-0.139499	-0.004273	0.002319	-0.006911	-138.786417	-88.868636	-111.494766
57863	9.742475	-0.135237	-0.138105	-0.001417	0.005884	-0.009333	-138.786075	-88.870257	-111.494198
57864	9.774191	-0.122615	-0.144341	-0.003719	0.004611	-0.005280	-138.723624	-88.869794	-111.557062
57865	9.742509	-0.133648	-0.137251	-0.003364	0.002589	-0.012559	-138.858027	-88.871212	-111.422839
57866	9.768045	-0.137788	-0.114131	-0.004558	0.005901	-0.005243	-138.770222	-88.871266	-111.511504
57867	9.748719	-0.115328	-0.165912	-0.002041	0.002031	-0.005356	-138.757114	-88.869725	-111.524062
57868	9.745763	-0.126769	-0.112463	-0.001729	0.003958	-0.007345	-138.751015	-88.869790	-111.529437
57869	9.755167	-0.104182	-0.117809	-0.003960	0.004245	-0.008902	-138.774091	-88.870542	-111.506905
57870	9.774278	-0.118140	-0.142196	-0.004272	0.002318	-0.006913	-138.791776	-88.869731	-111.489988
57871	9.742593	-0.129559	-0.135223	-0.004031	0.002684	-0.003293	-138.722341	-88.867692	-111.560024
57872	9.726479	-0.101962	-0.163281	-0.001658	0.005519	-0.012956	-138.809279	-88.870515	-111.472297
57873	9.771113	-0.120821	-0.164921	-0.005423	0.001680	-0.004888	-138.794545	-88.868646	-111.488420
57874	9.742639	-0.127114	-0.134166	-0.002809	0.004882	-0.010930	-138.849934	-88.870437	-111.432872
57875	9.764967	-0.136081	-0.134793	-0.000889	0.002668	-0.007384	-138.868233	-88.869935	-111.413357
57876	9.739467	-0.130380	-0.157209	-0.005111	0.003607	-0.006878	-138.860483	-88.869641	-111.422288
57877	9.774375	-0.112794	-0.139869	-0.001849	0.003775	-0.009158	-138.896991	-88.870286	-111.385111
57878	9.730125	-0.150599	-0.150726	-0.003840	0.004427	-0.007094	-138.877887	-88.870435	-111.404740
57879	9.748893	-0.106291	-0.161660	-0.003408	0.006537	-0.007273	-138.821207	-88.871561	-111.461662
57880	9.748906	-0.105591	-0.161358	-0.002592	-0.000262	-0.006991	-138.888671	-88.869652	-111.393934
57881	9.771233	-0.114742	-0.162107	-0.002569	0.005247	-0.007311	-138.857047	-88.870236	-111.425314
57882	9.733388	-0.142748	-0.125458	-0.002809	0.004881	-0.010933	-138.912412	-88.872019	-111.369828
57883	9.771269	-0.112959	-0.161226	-0.003000	0.003137	-0.007133	-138.917453	-88.871625	-111.364784
57884	9.742787	-0.119439	-0.130448	-0.001609	0.004140	-0.005537	-138.867482	-88.871080	-111.413957
57885	9.761931	-0.133423	-0.154701	-0.002689	0.005064	-0.009123	-138.879093	-88.872268	-111.402163
57886	9.761948	-0.132625	-0.154304	-0.003000	0.003137	-0.007134	-138.885393	-88.871862	-111.395874
57887	9.774514	-0.105172	-0.136021	-0.003120	0.002954	-0.008945	-138.933749	-88.872072	-111.347575
57888	9.739657	-0.121117	-0.152804	-0.002280	0.001665	-0.008982	-139.009250	-88.871725	-111.271729
57889	9.765177	-0.125320	-0.129948	-0.003431	0.001027	-0.006956	-139.050845	-88.870352	-111.230370
57890	9.762006	-0.129553	-0.153247	-0.002018	0.007539	-0.005680	-138.939733	-88.871317	-111.340913
57891	9.762024	-0.128826	-0.152697	-0.001849	0.003775	-0.009162	-138.976430	-88.871962	-111.303547
57892	9.762042	-0.128018	-0.152260	-0.002569	0.005246	-0.007313	-138.945013	-88.872578	-111.334719
57893	9.733557	-0.134439	-0.121439	-0.003000	0.003136	-0.007135	-138.950116	-88.872184	-111.329613
57894	9.749099	-0.094965	-0.156225	-0.003840	0.004425	-0.007099	-138.930203	-88.872326	-111.349952
57895	9.752738	-0.147707	-0.145264	-0.001298	0.006067	-0.007529	-138.886890	-88.873346	-111.392295
57896	9.742953	-0.110405	-0.125910	-0.002279	0.001665	-0.008985	-138.961515	-88.872990	-111.317245
57897	9.762120	-0.124203	-0.150383	-0.003119	0.002953	-0.008948	-139.010015	-88.873200	-111.268801
57898	9.730459	-0.135242	-0.143518	-0.003669	0.000661	-0.010582	-139.139769	-88.873020	-111.139408
57899	9.758979	-0.127297	-0.173530	-0.002020	0.007539	-0.005682	-139.028240	-88.873987	-111.250394
57900	9.752825	-0.143549	-0.143594	-0.003119	0.002953	-0.008949	-139.077889	-88.874206	-111.200847
57901	9.762183	-0.120940	-0.148949	-0.003840	0.004424	-0.007101	-139.058071	-88.874357	-111.221149
57902	9.765366	-0.115312	-0.124917	-0.004390	0.002132	-0.008735	-139.118435	-88.874100	-111.161507
57903	9.739879	-0.109638	-0.147252	-0.001180	0.006250	-0.005719	-139.031780	-88.874523	-111.247133
57904	9.733720	-0.125995	-0.117414	-0.004270	0.002314	-0.006923	-139.047387	-88.873749	-111.232224
57905	9.781411	-0.132787	-0.172142	-0.002570	0.005246	-0.007317	-139.015893	-88.874336	-111.263475
57906	9.730585	-0.129270	-0.140484	-0.003667	0.000660	-0.010585	-139.144229	-88.874191	-111.135483
57907	9.762269	-0.116462	-0.146871	-0.002451	0.005428	-0.005505	-139.069289	-88.874179	-111.210120
57908	9.756114	-0.132735	-0.116981	-0.003959	0.004241	-0.008915	-139.093029	-88.874955	-111.186911
57909	9.736800	-0.110085	-0.168805	-0.000769	0.002851	-0.005579	-139.067954	-88.873854	-111.210709
57910	9.784651	-0.124132	-0.146688	-0.003959	0.004241	-0.008916	-139.091507	-88.874639	-111.187713
57911	9.749840	-0.140305	-0.163432	-0.002039	0.002029	-0.005364	-139.078137	-88.873101	-111.200532
57912	9.753011	-0.134818	-0.139341	0.000812	0.005601	-0.007784	-139.049955	-88.873999	-111.226527
57913	9.759198	-0.117013	-0.168345	-0.003118	0.002953	-0.008953	-139.098639	-88.874209	-111.177899
57914	9.756197	-0.128458	-0.114779	-0.004563	0.005894	-0.005255	-139.010533	-88.874300	-111.266868
57915	9.753058	-0.132712	-0.138084	-0.006381	0.002779	-0.006675	-139.014275	-88.873579	-111.265061
57916	9.753071	-0.132032	-0.137802	-0.002999	0.003135	-0.007141	-139.019559	-88.873217	-111.259799
57917	9.753085	-0.131342	-0.137478	-0.005111	0.003601	-0.006891	-139.011595	-88.872932	-111.268972
57918	9.753100	-0.130564	-0.137164	-0.003117	0.002953	-0.008954	-139.060844	-88.873109	-111.219717
57919	9.736939	-0.102984	-0.165214	-0.002570	0.005245	-0.007320	-139.029456	-88.873698	-111.250863
57920	9.753129	-0.129145	-0.136416	-0.002039	0.002029	-0.005366	-139.017940	-88.872144	-111.261891
57921	9.765602	-0.101588	-0.118163	-0.003354	0.002588	-0.012581	-139.153505	-88.873556	-111.126501
57922	9.753161	-0.127391	-0.135786	-0.004564	0.005893	-0.005257	-139.068640	-88.873607	-111.212339
57923	9.762487	-0.104842	-0.141006	-0.001847	0.003775	-0.009170	-139.105675	-88.874254	-111.174634
57924	9.727700	-0.120954	-0.157783	-0.004269	0.002312	-0.006929	-139.123859	-88.873397	-111.157134
57925	9.737020	-0.098422	-0.163208	-0.002999	0.003135	-0.007143	-139.129117	-88.873005	-111.151872
57926	9.775569	-0.134266	-0.135386	-0.001728	0.003957	-0.007358	-139.123269	-88.873070	-111.157003
57927	9.730878	-0.114098	-0.133106	-0.002880	0.003317	-0.005331	-139.085100	-88.872078	-111.195108
57928	9.775596	-0.133019	-0.134682	-0.001728	0.003957	-0.007358	-139.081840	-88.872063	-111.197665
57929	9.750121	-0.127384	-0.157078	-0.005111	0.003599	-0.006894	-139.073984	-88.871779	-111.206730
57930	9.756406	-0.116938	-0.109190	-0.004801	0.005527	-0.008886	-139.073824	-88.873088	-111.207958
57931	9.750157	-0.125801	-0.156140	-0.000458	0.004780	-0.007573	-139.055687	-88.873570	-111.224640
57932	9.750172	-0.125080	-0.155757	-0.002998	0.003134	-0.007145	-139.061430	-88.873196	-111.218905
57933	9.765743	-0.092864	-0.113619	-0.003840	0.004422	-0.007109	-139.041873	-88.873348	-111.238945
57934	9.750203	-0.123681	-0.154966	-0.003840	0.004422	-0.007110	-139.023516	-88.873476	-111.257759
57935	9.740924	-0.144822	-0.148886	-0.001728	0.003957	-0.007360	-139.017125	-88.873522	-111.263420
57936	9.772589	-0.132025	-0.155342	-0.002583	-0.000264	-0.007005	-139.084868	-88.871599	-111.195430
57937	9.753368	-0.116733	-0.130418	-0.002571	0.005245	-0.007324	-139.053645	-88.872189	-111.226410
57938	9.769495	-0.135451	-0.178402	-0.005110	0.003598	-0.006897	-139.046575	-88.871928	-111.234727
57939	9.744108	-0.137102	-0.123902	-0.002688	0.005063	-0.009138	-139.058761	-88.873120	-111.222358
57940	9.753411	-0.114450	-0.129177	-0.002998	0.003134	-0.007147	-139.063945	-88.872746	-111.217140
57941	9.785072	-0.101642	-0.135500	-0.002998	0.003134	-0.007148	-139.069326	-88.872356	-111.211755
57942	9.763398	-0.149393	-0.147534	-0.003958	0.004239	-0.008926	-139.093034	-88.873133	-111.188582
57943	9.775817	-0.121920	-0.128994	-0.004683	0.005708	-0.007076	-139.048673	-88.873831	-111.233914
57944	9.747233	-0.121218	-0.175122	-0.002038	0.002028	-0.005370	-139.036625	-88.872297	-111.245457
57945	9.747311	-0.127974	-0.097919	-0.002571	0.005244	-0.007326	-139.005404	-88.872887	-111.276436
57946	9.772744	-0.124791	-0.151486	-0.002571	0.005244	-0.007326	-138.973946	-88.873503	-111.307648
57947	9.734888	-0.145861	-0.192088	-0.002582	-0.000264	-0.007007	-139.040923	-88.871591	-111.240416
57948	9.763493	-0.145164	-0.145456	-0.003115	0.002952	-0.008963	-139.089877	-88.871789	-111.191468
57949	9.747306	-0.117522	-0.173589	-0.005227	0.003415	-0.008715	-139.125639	-88.872108	-111.156974
57950	9.750430	-0.111908	-0.149504	-0.001728	0.003957	-0.007363	-139.118509	-88.872200	-111.163378
57951	9.741172	-0.133081	-0.143522	-0.006380	0.002772	-0.006688	-139.122573	-88.871481	-111.161247
57952	9.772827	-0.120256	-0.149808	-0.001728	0.003957	-0.007363	-139.116412	-88.871550	-111.166699
57953	9.747366	-0.114629	-0.172142	-0.002571	0.005244	-0.007328	-139.085298	-88.872142	-111.197571
57954	9.741217	-0.130873	-0.142483	-0.001428	0.000378	-0.009037	-139.183922	-88.871288	-111.098047
57955	9.744333	-0.125348	-0.118513	-0.003724	0.004602	-0.005301	-139.121148	-88.870842	-111.161245
57956	9.775986	-0.112494	-0.124711	-0.001845	0.003776	-0.009179	-139.157701	-88.871521	-111.124003
57957	9.750523	-0.106793	-0.147160	-0.002998	0.003133	-0.007151	-139.163145	-88.871132	-111.118554
57958	9.760551	-0.142503	-0.165884	-0.002997	0.003133	-0.007152	-139.169862	-88.870722	-111.111831
57959	9.763665	-0.136900	-0.141901	-0.004384	0.002127	-0.008754	-139.230442	-88.870496	-111.052029
57960	9.712766	-0.133731	-0.110207	-0.003415	0.006530	-0.007294	-138.721586	-88.864456	-111.549341
57961	9.772958	-0.113420	-0.146592	-0.000576	0.004600	-0.009393	-138.746128	-88.865540	-111.523394
57962	9.760624	-0.139393	-0.164167	-0.004568	0.005887	-0.005267	-138.658726	-88.865640	-111.611660
57963	9.766827	-0.128977	-0.116325	-0.004500	0.001945	-0.010570	-138.761814	-88.866027	-111.509401
57964	9.741368	-0.123304	-0.138862	-0.002881	0.003314	-0.005338	-138.724058	-88.865046	-111.547031
57965	9.738290	-0.127429	-0.162335	-0.004383	0.002126	-0.008756	-138.784103	-88.864824	-111.487757
57966	9.763778	-0.131530	-0.139190	-0.002572	0.005244	-0.007331	-138.754091	-88.865441	-111.517858
57967	9.763792	-0.130818	-0.138847	-0.002153	0.001846	-0.007190	-138.784132	-88.864507	-111.487315
57968	9.766892	-0.125388	-0.114802	-0.003725	0.004600	-0.005303	-138.722445	-88.864035	-111.549604
57969	9.741437	-0.119803	-0.137106	-0.004801	0.005523	-0.008899	-138.721037	-88.865330	-111.552035
57970	9.738365	-0.123917	-0.160539	-0.001193	0.000742	-0.005410	-138.734223	-88.863275	-111.537948
57971	9.763847	-0.128167	-0.137415	-0.001303	0.006068	-0.007545	-138.691017	-88.864293	-111.580179
57972	9.763865	-0.127428	-0.136886	-0.000459	0.004782	-0.007580	-138.673887	-88.864761	-111.596017
57973	9.741495	-0.116915	-0.135469	-0.002688	0.005062	-0.009148	-138.685455	-88.865952	-111.584257
57974	9.763898	-0.125809	-0.136011	-0.002997	0.003132	-0.007156	-138.692054	-88.865519	-111.577756
57975	9.754672	-0.147180	-0.130035	-0.004878	0.003956	-0.003277	-138.598540	-88.864011	-111.672354
57976	9.738457	-0.119874	-0.158006	0.000810	0.005608	-0.007794	-138.569344	-88.864907	-111.699521
57977	9.773173	-0.102144	-0.140393	-0.005110	0.003592	-0.006909	-138.561744	-88.864618	-111.708322
57978	9.738486	-0.118373	-0.157371	-0.001424	0.000379	-0.009043	-138.659418	-88.863793	-111.609637
57979	9.741572	-0.112759	-0.133424	-0.001728	0.003957	-0.007369	-138.652895	-88.863835	-111.615422
57980	9.763978	-0.121733	-0.133955	-0.003841	0.004417	-0.007122	-138.634346	-88.863977	-111.634614
57981	9.738529	-0.116161	-0.156331	-0.003841	0.004417	-0.007122	-138.614883	-88.864123	-111.654553
57982	9.786401	-0.130001	-0.134056	-0.001728	0.003957	-0.007370	-138.608801	-88.864166	-111.659920
57983	9.738556	-0.114828	-0.155638	-0.002036	0.002027	-0.005377	-138.596155	-88.862625	-111.672006
57984	9.760965	-0.123883	-0.156157	-0.003417	0.006528	-0.007300	-138.540786	-88.863722	-111.727521
57985	9.754826	-0.139991	-0.126351	-0.003343	0.002587	-0.012607	-138.674933	-88.865160	-111.593534
57986	9.741666	-0.107644	-0.130731	-0.004878	0.003954	-0.003279	-138.581274	-88.863674	-111.688211
57987	9.761014	-0.121501	-0.154987	-0.000575	0.004602	-0.009399	-138.605770	-88.864763	-111.662310
57988	9.761030	-0.120701	-0.154591	-0.005109	0.003591	-0.006912	-138.598716	-88.864497	-111.670698
57989	9.764105	-0.115182	-0.130446	-0.000459	0.004783	-0.007584	-138.580313	-88.864976	-111.687639
57990	9.761061	-0.119268	-0.153739	-0.003841	0.004417	-0.007125	-138.561329	-88.865129	-111.706999
57991	9.751861	-0.140375	-0.147764	-0.003111	0.002950	-0.008977	-138.609726	-88.865348	-111.658647
57992	9.758035	-0.122481	-0.176790	-0.001728	0.003957	-0.007372	-138.603483	-88.865399	-111.664291
57993	9.764160	-0.112146	-0.128987	-0.000883	0.002672	-0.007408	-138.621878	-88.864903	-111.644669
57994	9.751906	-0.138147	-0.146932	-0.003419	0.001019	-0.006984	-138.664216	-88.863569	-111.602521
57995	9.741778	-0.101259	-0.127500	-0.003187	0.006890	-0.003670	-138.522369	-88.863470	-111.744493
57996	9.751936	-0.137003	-0.146014	-0.003956	0.004235	-0.008943	-138.546690	-88.864256	-111.720705
57997	9.735647	-0.116951	-0.097251	-0.002996	0.003131	-0.007162	-138.552196	-88.863865	-111.715186
57998	9.761173	-0.113507	-0.150939	-0.001842	0.003776	-0.009190	-138.588586	-88.864550	-111.678118
57999	9.761187	-0.112794	-0.150596	-0.002881	0.003312	-0.005346	-138.551211	-88.863548	-111.715422
58000	9.758091	-0.124474	-0.097023	-0.003418	0.006527	-0.007304	-138.496248	-88.864640	-111.770803
58001	9.752014	-0.133376	-0.144145	-0.003418	0.001019	-0.006986	-138.538616	-88.863275	-111.728656
58002	9.752029	-0.132416	-0.143973	-0.003340	0.002587	-0.012613	-138.672626	-88.864754	-111.594785
58003	9.752047	-0.131437	-0.143657	-0.001728	0.003957	-0.007375	-138.666220	-88.864798	-111.600453
