// General information: 
//  MT Manager version: 2022.2.0 
//  XDA version: 2022.2.0 build 7381 rev 124627 built on 2023-07-19
// Device information: 
//  DeviceId: 00B4BB4D
//  ProductCode: MTW2-3A7G6
//  Firmware Version: 4.6.0
//  Hardware Version: 2.0.0
// Device settings: 
//  Filter Profile: human(46.1)
//  Option Flags: Orientation Smoother Disabled, Position/Velocity Smoother Disabled, Continuous Zero Rotation Update Disabled, AHS Disabled, ICC Disabled
// Coordinate system: ENU
PacketCounter	Acc_X	Acc_Y	Acc_Z	Gyr_X	Gyr_Y	Gyr_Z	Roll	Pitch	Yaw
07197	9.650490	0.067888	-0.313401	0.006120	-0.006794	-0.003688	-176.342715	-88.504756	-99.470562
07198	9.740747	0.074548	-0.326503	0.007307	-0.008928	-0.001620	-176.360939	-88.504117	-99.452967
07199	9.807399	0.097339	-0.359088	0.005180	-0.011871	0.000033	-176.346730	-88.501573	-99.469051
07200	9.826321	0.054847	-0.388236	0.006332	-0.003235	-0.002583	-176.378643	-88.504224	-99.438322
07201	9.704344	0.053905	-0.363654	0.003056	-0.003719	0.002816	-176.293288	-88.506238	-99.526795
07202	9.700995	0.020041	-0.358068	0.010279	-0.013940	-0.001111	-176.305786	-88.502715	-99.513225
07203	9.773736	0.012571	-0.361993	0.008668	-0.007827	-0.004261	-176.377963	-88.502638	-99.440897
07204	9.811495	-0.023201	-0.346561	0.009387	-0.006952	0.000231	-176.351714	-88.503061	-99.466597
07205	9.770374	-0.020823	-0.356832	0.012111	-0.004754	-0.005050	-176.435004	-88.504768	-99.381179
07206	9.717871	-0.062989	-0.328763	0.008835	-0.005237	0.000350	-176.404087	-88.506168	-99.411866
07207	9.765064	-0.095525	-0.290988	0.015166	-0.008471	-0.002235	-176.429149	-88.505647	-99.382945
07208	9.810900	-0.120656	-0.307440	0.011255	-0.008534	0.000979	-176.387599	-88.505140	-99.422882
07209	9.769774	-0.118492	-0.317814	0.012064	-0.005721	-0.001544	-176.395465	-88.506167	-99.412939
07210	9.753629	-0.140149	-0.254751	0.010787	-0.005524	0.003403	-176.296781	-88.507290	-99.510298
07211	9.739430	-0.120539	-0.252331	0.009982	-0.007695	-0.003396	-176.349179	-88.507257	-99.457001
07212	9.788576	-0.111771	-0.275243	0.008621	-0.008792	-0.000755	-176.347500	-88.506664	-99.458563
07213	9.783809	-0.088738	-0.250612	0.007518	-0.005365	-0.000518	-176.334849	-88.507858	-99.471749
07214	9.731814	-0.033108	-0.264256	0.006201	-0.005495	-0.001384	-176.343742	-88.509173	-99.464123
07215	9.741234	-0.029733	-0.242628	0.007389	-0.007627	0.000684	-176.307916	-88.509029	-99.500567
07216	9.785628	0.002010	-0.240276	0.003353	-0.009314	-0.004219	-176.386074	-88.508264	-99.425283
07217	9.788914	0.035869	-0.247513	0.008154	-0.005782	0.001668	-176.325624	-88.509142	-99.485920
07218	9.770019	0.029212	-0.292498	0.010874	-0.003586	-0.003615	-176.378254	-88.511629	-99.431863
07219	9.724148	0.054567	-0.277546	0.009172	-0.010503	-0.000874	-176.379665	-88.509899	-99.430035
07220	9.769972	0.029451	-0.294051	0.008068	-0.007076	-0.000637	-176.373318	-88.510283	-99.436583
07221	9.751055	0.022753	-0.339345	0.008620	-0.008788	-0.000756	-176.370096	-88.509530	-99.439705
07222	9.784110	0.009895	-0.298567	0.007517	-0.005362	-0.000519	-176.359072	-88.510889	-99.451248
07223	9.716049	-0.005402	-0.321440	0.007516	-0.005362	-0.000519	-176.346497	-88.512086	-99.464360
07224	9.761871	-0.030446	-0.337790	0.005985	-0.009050	-0.002487	-176.384808	-88.511409	-99.427429
07225	9.761840	-0.030331	-0.338692	0.006622	-0.009467	-0.000301	-176.373685	-88.510250	-99.439601
07226	9.766539	-0.053328	-0.364795	0.008067	-0.007073	-0.000638	-176.367359	-88.510635	-99.446129
07227	9.744312	-0.044254	-0.330561	0.009427	-0.005976	-0.003281	-176.415347	-88.511580	-99.397563
07228	9.740994	-0.077830	-0.324745	0.008619	-0.008785	-0.000757	-176.413681	-88.510991	-99.399113
07229	9.772625	-0.083319	-0.338212	0.008618	-0.008785	-0.000757	-176.410466	-88.510237	-99.402229
07230	9.758415	-0.063616	-0.335988	0.010615	-0.008104	-0.001214	-176.416765	-88.510053	-99.394667
07231	9.759843	-0.070773	-0.282624	0.007429	-0.006655	-0.002826	-176.456787	-88.510592	-99.355215
07232	9.723419	-0.091595	-0.318269	0.011252	-0.008520	0.000972	-176.415216	-88.510093	-99.395174
07233	9.759801	-0.070601	-0.284107	0.011973	-0.007006	-0.003858	-176.475784	-88.510465	-99.332563
07234	9.794726	-0.042209	-0.303966	0.008066	-0.007070	-0.000640	-176.469505	-88.510852	-99.339044
07235	9.736111	-0.054087	-0.304686	0.006749	-0.007202	-0.001505	-176.481597	-88.511032	-99.327922
07236	9.772502	-0.033104	-0.270483	0.008066	-0.007069	-0.000640	-176.475325	-88.511420	-99.334397
07237	9.780477	-0.022362	-0.303094	0.008617	-0.008781	-0.000758	-176.472042	-88.510670	-99.337580
07238	9.744094	0.006309	-0.265963	0.006749	-0.007201	-0.001505	-176.485730	-88.511013	-99.324843
07239	9.775722	0.000839	-0.279412	0.006621	-0.009461	-0.000301	-176.474460	-88.509857	-99.337160
07240	9.764805	0.054274	-0.283604	0.011506	-0.003995	-0.001438	-176.479618	-88.512031	-99.330229
07241	9.758221	-0.013036	-0.271017	0.005431	-0.007332	-0.002370	-176.511706	-88.512165	-99.299858
07242	9.793135	0.015300	-0.290818	0.009510	-0.004674	-0.000981	-176.508903	-88.513935	-99.302034
07243	9.751989	0.017376	-0.301009	0.008704	-0.007482	0.001545	-176.453080	-88.513846	-99.357729
07244	9.748686	-0.016320	-0.295118	0.007426	-0.006651	-0.002828	-176.494826	-88.514550	-99.316537
07245	9.740687	-0.026782	-0.263992	0.009294	-0.008230	-0.002082	-176.519634	-88.514160	-99.291234
07246	9.735874	-0.053103	-0.312323	0.007298	-0.008910	-0.001623	-176.537941	-88.513529	-99.273561
07247	9.791164	-0.074692	-0.306559	0.005430	-0.007331	-0.002370	-176.570090	-88.513663	-99.243129
07248	9.750014	-0.072536	-0.316741	0.010148	-0.005087	0.001203	-176.519336	-88.515121	-99.292907
07249	9.745301	-0.049415	-0.292129	0.007976	-0.008361	-0.002946	-176.564116	-88.514686	-99.248379
07250	9.759463	-0.068903	-0.295905	0.008064	-0.007064	-0.000642	-176.557894	-88.515077	-99.254805
07251	9.749945	-0.072244	-0.318909	0.007298	-0.008908	-0.001624	-176.574607	-88.514283	-99.238744
07252	9.759418	-0.068620	-0.297434	0.007425	-0.006649	-0.002829	-176.616450	-88.514986	-99.197455
07253	9.749903	-0.071843	-0.320298	0.008742	-0.006515	-0.001966	-176.636732	-88.515573	-99.176997
07254	9.731012	-0.028960	-0.292731	0.009293	-0.008226	-0.002084	-176.663135	-88.515348	-99.150083
07255	9.786315	-0.050635	-0.286814	0.010825	-0.004536	-0.000122	-176.638939	-88.517004	-99.172919
07256	9.745154	-0.048610	-0.297121	0.009805	-0.010898	0.001308	-176.593672	-88.515136	-99.217406
07257	9.757902	-0.011284	-0.282350	0.006784	-0.006234	-0.005016	-176.682012	-88.515985	-99.129986
07258	9.780007	-0.020016	-0.318058	0.009165	-0.010483	-0.000879	-176.684777	-88.514429	-99.126792
07259	9.751610	0.019380	-0.312925	0.009292	-0.008224	-0.002085	-176.709522	-88.514038	-99.101551
07260	9.772012	-0.030428	-0.287927	0.008614	-0.008770	-0.000762	-176.707822	-88.513458	-99.103139
07261	9.735684	-0.001733	-0.250862	0.008613	-0.008770	-0.000762	-176.704506	-88.512714	-99.106361
07262	9.771964	-0.030378	-0.289545	0.009380	-0.006924	0.000218	-176.678432	-88.513157	-99.131891
07263	9.781463	-0.026805	-0.267872	0.008866	-0.004253	-0.003174	-176.722430	-88.515075	-99.087638
07264	9.775188	0.003617	-0.297483	0.007169	-0.011161	-0.000419	-176.717013	-88.513116	-99.093771
07265	9.735610	-0.001294	-0.253754	0.009417	-0.005963	-0.003292	-176.765505	-88.514061	-99.044711
07266	9.754440	-0.043753	-0.282702	0.007972	-0.008355	-0.002949	-176.811851	-88.513788	-98.998604
07267	9.771864	-0.029548	-0.292997	0.010824	-0.004530	-0.000127	-176.787983	-88.515445	-99.021119
07268	9.754406	-0.043619	-0.283887	0.008062	-0.007056	-0.000646	-176.781875	-88.515841	-99.027431
07269	9.786008	-0.049134	-0.297348	0.008612	-0.008766	-0.000763	-176.778474	-88.515099	-99.030727
07270	9.736920	-0.057604	-0.275828	0.008612	-0.008766	-0.000763	-176.776769	-88.514521	-99.032320
07271	9.762249	-0.032896	-0.318124	0.011374	-0.006239	-0.000245	-176.757229	-88.515207	-99.050180
07272	9.768506	-0.063134	-0.289809	0.007510	-0.005344	-0.000529	-176.746712	-88.516579	-99.061219
07273	9.744765	-0.047026	-0.309873	0.010353	-0.012597	0.001189	-176.704160	-88.513584	-99.102691
07274	9.762169	-0.032892	-0.320579	0.007970	-0.008352	-0.002950	-176.750522	-88.513314	-99.056569
07275	9.768429	-0.062917	-0.292417	0.008737	-0.006507	-0.001971	-176.770945	-88.513903	-99.035977
07276	9.762124	-0.032578	-0.321960	0.008060	-0.007053	-0.000647	-176.764868	-88.514301	-99.042260
07277	9.754207	-0.043025	-0.290727	0.007419	-0.006641	-0.002833	-176.805233	-88.514842	-99.002471
07278	9.771620	-0.028803	-0.301091	0.008060	-0.007052	-0.000647	-176.799168	-88.515240	-99.008742
07279	9.762056	-0.032202	-0.324068	0.007292	-0.008897	-0.001626	-176.815704	-88.514451	-98.992853
07280	9.774818	0.005221	-0.309369	0.009963	-0.007669	-0.003413	-176.870327	-88.514584	-98.937325
07281	9.747824	-0.012197	-0.322530	0.005515	-0.006023	-0.000068	-176.850017	-88.515387	-98.959316
07282	9.776435	-0.001784	-0.256728	0.011796	-0.010199	0.000841	-176.812819	-88.513938	-98.994589
07283	9.768258	-0.062014	-0.298254	0.006099	-0.006775	-0.003696	-176.873175	-88.514429	-98.935563
07284	9.757298	-0.008404	-0.302597	0.008735	-0.006503	-0.001973	-176.895338	-88.515183	-98.913210
07285	9.736610	-0.056017	-0.286888	0.009286	-0.008213	-0.002090	-176.920105	-88.514801	-98.887943
07286	9.776358	-0.001016	-0.259651	0.007417	-0.006638	-0.002835	-176.962235	-88.515503	-98.846370
07287	9.760309	-0.071724	-0.269138	0.009285	-0.008212	-0.002090	-176.987053	-88.515124	-98.821061
07288	9.722363	-0.035855	-0.286091	0.006065	-0.007730	-0.000186	-176.972776	-88.515121	-98.836690
07289	9.763505	-0.037901	-0.277348	0.008059	-0.007047	-0.000649	-176.965068	-88.515353	-98.844616
07290	9.773043	-0.034239	-0.255907	0.007967	-0.008347	-0.002952	-177.011481	-88.515081	-98.798445
07291	9.763462	-0.037658	-0.278872	0.007382	-0.007592	0.000675	-176.975650	-88.514967	-98.834904
07292	9.768065	-0.060879	-0.304767	0.009376	-0.006910	0.000211	-176.949763	-88.515421	-98.860250
07293	9.753856	-0.041237	-0.302524	0.008608	-0.008755	-0.000767	-176.946342	-88.514682	-98.863575
07294	9.753834	-0.041129	-0.303264	0.008733	-0.006500	-0.001975	-176.968594	-88.515437	-98.841133
07295	9.744243	-0.044603	-0.326216	0.007932	-0.009300	0.000558	-176.936943	-88.514348	-98.873081
07296	9.780769	-0.023388	-0.292416	0.009959	-0.007663	-0.003417	-176.991662	-88.514482	-98.817460
07297	9.755495	-0.047744	-0.251305	0.004320	-0.003899	-0.002139	-177.015269	-88.516562	-98.796191
07298	9.753747	-0.040685	-0.306100	0.011794	-0.010189	0.000837	-176.977964	-88.515121	-98.831572
07299	9.749112	-0.017428	-0.281703	0.009408	-0.005952	-0.003302	-177.026818	-88.516056	-98.782155
07300	9.777461	-0.056541	-0.288415	0.008607	-0.008752	-0.000768	-177.025102	-88.515486	-98.783762
07301	9.756902	-0.006546	-0.315152	0.009958	-0.007661	-0.003419	-177.078379	-88.515467	-98.729632
07302	9.771063	-0.026083	-0.318892	0.007381	-0.007587	0.000674	-177.044206	-88.515521	-98.764409
07303	9.749023	-0.016962	-0.284794	0.005295	-0.009570	-0.001163	-177.052287	-88.514338	-98.758121
07304	9.748999	-0.016848	-0.285619	0.012594	-0.007385	-0.001699	-177.067286	-88.514577	-98.740722
07305	9.739395	-0.020214	-0.308508	0.005419	-0.007315	-0.002372	-177.099553	-88.514730	-98.710187
07306	9.780549	-0.022131	-0.299797	0.008056	-0.007041	-0.000653	-177.093669	-88.515136	-98.716278
07307	9.753538	-0.039609	-0.312824	0.010724	-0.005812	-0.002444	-177.122673	-88.516127	-98.685949
07308	9.763109	-0.035815	-0.291223	0.009406	-0.005949	-0.003304	-177.173422	-88.517233	-98.634616
07309	9.731500	-0.030013	-0.279174	0.007287	-0.008885	-0.001629	-177.189834	-88.516449	-98.618858
07310	9.772657	-0.031897	-0.270523	0.008730	-0.006494	-0.001979	-177.212311	-88.517206	-98.596194
07311	9.763049	-0.035391	-0.293259	0.008824	-0.005192	0.000322	-177.180750	-88.518483	-98.627553
07312	9.755221	-0.045784	-0.262049	0.008511	-0.010047	-0.003071	-177.231354	-88.517237	-98.576877
07313	9.767593	-0.058235	-0.320002	0.005418	-0.007313	-0.002372	-177.263580	-88.517355	-98.546381
07314	9.755182	-0.045495	-0.263576	0.010692	-0.006761	0.001065	-177.217934	-88.517874	-98.590737
07315	9.762962	-0.035045	-0.296200	0.008055	-0.007037	-0.000654	-177.210398	-88.518122	-98.598506
07316	9.762940	-0.034936	-0.296940	0.009279	-0.008200	-0.002096	-177.237011	-88.517905	-98.571390
07317	9.762915	-0.034779	-0.297771	0.007286	-0.008882	-0.001629	-177.253378	-88.517123	-98.555676
07318	9.786683	-0.050749	-0.279339	0.010048	-0.006353	-0.001122	-177.256030	-88.517936	-98.552088
07319	9.758293	-0.011380	-0.273982	0.010047	-0.006352	-0.001122	-177.256959	-88.518581	-98.550247
07320	9.780244	-0.020388	-0.309680	0.005967	-0.009019	-0.002488	-177.295008	-88.517905	-98.513589
07321	9.789824	-0.016763	-0.288459	0.011791	-0.010173	0.000831	-177.255874	-88.516330	-98.550832
07322	9.753185	-0.037884	-0.323866	0.007959	-0.008335	-0.002956	-177.302348	-88.516058	-98.504603
07323	9.745387	-0.048192	-0.292528	0.009497	-0.004643	-0.001008	-177.299208	-88.517672	-98.507137
07324	9.758184	-0.010862	-0.277853	0.008603	-0.008741	-0.000771	-177.297451	-88.517108	-98.508787
07325	9.758161	-0.010834	-0.278665	0.011915	-0.007918	-0.000381	-177.282752	-88.516859	-98.521529
07326	9.789713	-0.016366	-0.292202	0.006734	-0.007171	-0.001514	-177.296857	-88.517214	-98.508384
07327	9.735680	-0.051668	-0.317607	0.006705	-0.008121	0.001998	-177.232527	-88.516775	-98.573715
07328	9.762660	-0.034210	-0.306084	0.011240	-0.008461	0.000945	-177.191069	-88.516324	-98.613568
07329	9.762635	-0.034141	-0.306901	0.007957	-0.008333	-0.002957	-177.235858	-88.515887	-98.569052
07330	9.772238	-0.030272	-0.285447	0.009400	-0.005942	-0.003310	-177.286815	-88.516995	-98.517514
07331	9.735583	-0.051326	-0.320622	0.008602	-0.008737	-0.000772	-177.283209	-88.516282	-98.521004
07332	9.754813	-0.044094	-0.277094	0.008052	-0.007030	-0.000657	-177.277456	-88.516695	-98.526968
07333	9.776732	-0.053252	-0.312737	0.008052	-0.007029	-0.000657	-177.269826	-88.516931	-98.534813
07334	9.754774	-0.043942	-0.278515	0.009275	-0.008192	-0.002100	-177.296483	-88.516718	-98.507654
07335	9.754756	-0.043860	-0.279129	0.010814	-0.004499	-0.000153	-177.273794	-88.518410	-98.529028
07336	9.757932	-0.009942	-0.286601	0.007310	-0.007926	-0.005143	-177.368665	-88.518430	-98.434759
07337	9.772094	-0.029429	-0.290408	0.009247	-0.009139	0.001412	-177.316889	-88.517425	-98.486096
07338	9.730869	-0.027441	-0.300609	0.013135	-0.009074	-0.001828	-177.336228	-88.516699	-98.464045
07339	9.762409	-0.032965	-0.314133	0.007502	-0.005320	-0.000543	-177.324780	-88.517920	-98.476049
07340	9.745012	-0.047007	-0.304953	0.009920	-0.008593	0.000084	-177.303190	-88.517418	-98.496785
07341	9.764271	-0.039710	-0.261494	0.009273	-0.008189	-0.002101	-177.327953	-88.517022	-98.471524
07342	9.768791	-0.062812	-0.287430	0.007281	-0.008872	-0.001631	-177.346080	-88.516406	-98.454041
07343	9.738468	-0.016591	-0.336682	0.006388	-0.012969	-0.001391	-177.361598	-88.513281	-98.439662
07344	9.779638	-0.018464	-0.328376	0.012584	-0.007364	-0.001715	-177.376965	-88.513530	-98.421900
07345	9.757713	-0.009284	-0.293993	0.005606	-0.004699	0.002226	-177.304730	-88.515025	-98.495773
07346	9.744858	-0.046634	-0.309891	0.013133	-0.009069	-0.001831	-177.324106	-88.514302	-98.473688
07347	9.757667	-0.009128	-0.295511	0.007952	-0.008327	-0.002959	-177.368720	-88.513873	-98.429329
07348	9.737097	-0.056685	-0.279472	0.008050	-0.007023	-0.000660	-177.363057	-88.514290	-98.435204
07349	9.754443	-0.042588	-0.290081	0.010591	-0.008045	-0.001246	-177.367973	-88.513983	-98.429026
07350	9.754421	-0.042566	-0.290804	0.009369	-0.006882	0.000197	-177.342507	-88.514458	-98.453955
07351	9.754402	-0.042505	-0.291452	0.008722	-0.006479	-0.001988	-177.363288	-88.515070	-98.432978
07352	9.762085	-0.031876	-0.324149	0.009943	-0.007641	-0.003431	-177.418365	-88.515205	-98.377007
07353	9.781380	-0.024458	-0.280850	0.005164	-0.011801	0.000053	-177.401513	-88.512700	-98.395732
07354	9.763994	-0.038346	-0.271822	0.009393	-0.005934	-0.003317	-177.452632	-88.513808	-98.344035
07355	9.730459	-0.025858	-0.313723	0.009368	-0.006879	0.000195	-177.425503	-88.514125	-98.370660
07356	9.754286	-0.041812	-0.295412	0.007827	-0.010573	-0.001747	-177.447472	-88.512538	-98.349020
07357	9.749748	-0.018408	-0.271069	0.009491	-0.004629	-0.001019	-177.444727	-88.514174	-98.351160
07358	9.771605	-0.027558	-0.306591	0.008720	-0.006476	-0.001990	-177.467527	-88.514938	-98.328178
07359	9.754225	-0.041538	-0.297452	0.007925	-0.009267	0.000552	-177.435228	-88.513883	-98.360716
07360	9.749682	-0.018241	-0.273416	0.009695	-0.012135	-0.001006	-177.441316	-88.511382	-98.353892
07361	9.771526	-0.027346	-0.309115	0.008293	-0.002521	-0.003090	-177.482898	-88.514250	-98.312393
07362	9.766999	-0.003960	-0.284659	0.011785	-0.010145	0.000821	-177.445518	-88.512842	-98.347855
07363	9.754128	-0.041238	-0.300664	0.005408	-0.007300	-0.002374	-177.477366	-88.512980	-98.317684
07364	9.771458	-0.027089	-0.311279	0.008047	-0.007017	-0.000663	-177.471794	-88.513400	-98.323470
07365	9.771434	-0.027045	-0.312045	0.008596	-0.008721	-0.000777	-177.468420	-88.512678	-98.326787
07366	9.754062	-0.040893	-0.302835	0.009390	-0.005931	-0.003321	-177.519660	-88.513787	-98.274972
07367	9.773418	-0.033374	-0.259129	0.009489	-0.004626	-0.001022	-177.517282	-88.515435	-98.276780
07368	9.771375	-0.026631	-0.313922	0.008596	-0.008720	-0.000778	-177.515567	-88.514884	-98.278392
07369	9.749505	-0.017259	-0.279746	0.010587	-0.008035	-0.001251	-177.520415	-88.514579	-98.272263
07370	9.746325	-0.050617	-0.273508	0.009289	-0.007234	-0.005621	-177.623821	-88.514996	-98.168322
07371	9.763651	-0.036469	-0.284146	0.010015	-0.007271	0.002376	-177.548295	-88.515039	-98.242945
07372	9.771278	-0.026237	-0.316966	0.008595	-0.008718	-0.000778	-177.546579	-88.514489	-98.244559
07373	9.753908	-0.040183	-0.307840	0.010586	-0.008033	-0.001252	-177.551323	-88.514191	-98.238512
07374	9.753883	-0.040070	-0.308660	0.007275	-0.008860	-0.001633	-177.569367	-88.513581	-98.221115
07375	9.763560	-0.036169	-0.287278	0.009388	-0.005927	-0.003323	-177.619004	-88.514554	-98.170921
07376	9.763536	-0.036010	-0.288107	0.007153	-0.011106	-0.000418	-177.612347	-88.512628	-98.178304
07377	9.763509	-0.035954	-0.289038	0.010585	-0.008031	-0.001254	-177.617604	-88.512315	-98.171844
07378	9.749303	-0.016110	-0.286767	0.009387	-0.005926	-0.003324	-177.669014	-88.513423	-98.119861
07379	9.753762	-0.039430	-0.312534	0.010563	-0.008971	0.002260	-177.597418	-88.512474	-98.190256
07380	9.755813	-0.046125	-0.259293	0.011133	-0.009734	-0.001368	-177.608176	-88.511357	-98.177937
07381	9.763416	-0.035804	-0.292189	0.007374	-0.007551	0.000664	-177.572262	-88.511241	-98.214461
07382	9.758920	-0.012476	-0.267860	0.008045	-0.007009	-0.000666	-177.566784	-88.511667	-98.220153
07383	9.731855	-0.030122	-0.280631	0.010035	-0.006324	-0.001141	-177.568621	-88.512378	-98.217464
07384	9.739454	-0.019537	-0.313382	0.007294	-0.007915	-0.005149	-177.663232	-88.512391	-98.123464
07385	9.751244	-0.022243	-0.238020	0.011782	-0.010129	0.000815	-177.623406	-88.510815	-98.161296
07386	9.749118	-0.015598	-0.293019	0.005404	-0.007294	-0.002375	-177.657363	-88.511118	-98.129053
07387	9.763281	-0.035159	-0.296733	0.009913	-0.008567	0.000074	-177.633827	-88.510463	-98.151711
07388	9.731741	-0.029506	-0.284649	0.008592	-0.008711	-0.000781	-177.632136	-88.509917	-98.153301
07389	9.745905	-0.049110	-0.288353	0.008043	-0.007006	-0.000667	-177.625251	-88.510165	-98.160500
07390	9.772937	-0.031392	-0.276929	0.009363	-0.006862	0.000187	-177.600133	-88.510654	-98.185083
07391	9.769774	-0.064929	-0.270700	0.008490	-0.010015	-0.003079	-177.648470	-88.509272	-98.136704
07392	9.748982	-0.015174	-0.297521	0.008936	-0.002912	-0.000917	-177.644328	-88.512048	-98.140550
07393	9.772885	-0.031010	-0.278794	0.012023	-0.005634	-0.001621	-177.654746	-88.513112	-98.128120
07394	9.766271	-0.001016	-0.308664	0.006601	-0.009393	-0.000304	-177.644305	-88.512164	-98.139605
07395	9.745786	-0.048552	-0.292425	0.011251	-0.007481	-0.002589	-177.678281	-88.512223	-98.104056
07396	9.780409	-0.020468	-0.313124	0.009363	-0.006859	0.000185	-177.653170	-88.512714	-98.128632
07397	9.745744	-0.048355	-0.293854	0.007940	-0.008310	-0.002966	-177.697478	-88.512253	-98.084564
07398	9.748856	-0.014532	-0.301636	0.010032	-0.006317	-0.001146	-177.700862	-88.513085	-98.080253
07399	9.777211	-0.053754	-0.308116	0.010032	-0.006316	-0.001146	-177.702463	-88.513758	-98.077756
07400	9.777186	-0.053729	-0.308913	0.004611	-0.010076	0.000173	-177.683206	-88.512408	-98.099201
07401	9.748782	-0.014499	-0.304031	0.011779	-0.010119	0.000811	-177.644081	-88.510853	-98.136445
07402	9.772685	-0.030334	-0.285790	0.007939	-0.008308	-0.002967	-177.690522	-88.510588	-98.090262
07403	9.762921	-0.033820	-0.308502	0.006842	-0.004901	-0.002740	-177.727585	-88.512125	-98.054069
07404	9.758462	-0.010318	-0.284158	0.009910	-0.008558	0.000070	-177.706221	-88.511647	-98.074584
07405	9.780191	-0.019657	-0.319912	0.008710	-0.006459	-0.002001	-177.728078	-88.512276	-98.052669
07406	9.753105	-0.037227	-0.332663	0.009258	-0.008161	-0.002114	-177.754879	-88.512074	-98.025376
07407	9.762831	-0.033344	-0.311375	0.004731	-0.007830	-0.001044	-177.758350	-88.511914	-98.023982
07408	9.758375	-0.009829	-0.287120	0.012568	-0.007330	-0.001741	-177.774298	-88.512180	-98.005649
07409	9.759663	-0.066767	-0.305749	0.010578	-0.008015	-0.001262	-177.779437	-88.511876	-97.999270
07410	9.755211	-0.043204	-0.281502	0.005399	-0.007288	-0.002376	-177.813460	-88.512180	-97.966965
07411	9.741002	-0.023266	-0.279341	0.006616	-0.008450	-0.003820	-177.877565	-88.511716	-97.903849
07412	9.755166	-0.042802	-0.283085	0.011230	-0.008409	0.000921	-177.836539	-88.511306	-97.943275
07413	9.768022	-0.005432	-0.268978	0.008588	-0.008699	-0.000784	-177.833235	-88.510635	-97.946537
07414	9.772419	-0.028793	-0.294892	0.009136	-0.010401	-0.000897	-177.835135	-88.509124	-97.944223
07415	9.731135	-0.026796	-0.304910	0.007267	-0.008844	-0.001637	-177.851535	-88.508378	-97.928549
07416	9.737764	-0.056529	-0.276509	0.012566	-0.007325	-0.001744	-177.867532	-88.508645	-97.910168
07417	9.755045	-0.042343	-0.287321	0.007935	-0.008302	-0.002969	-177.911655	-88.508278	-97.866226
07418	9.745248	-0.045979	-0.310233	0.006598	-0.009383	-0.000305	-177.901100	-88.507337	-97.877826
07419	9.754998	-0.042114	-0.288950	0.008707	-0.006453	-0.002004	-177.922548	-88.507944	-97.856248
07420	9.748315	-0.012129	-0.318762	0.010028	-0.006307	-0.001153	-177.926194	-88.508782	-97.851676
07421	9.754959	-0.041812	-0.290277	0.007934	-0.008301	-0.002969	-177.970441	-88.508301	-97.807700
07422	9.759349	-0.065073	-0.315954	0.010028	-0.006306	-0.001153	-177.974127	-88.509139	-97.803089
07423	9.750510	-0.018153	-0.266706	0.011896	-0.007862	-0.000415	-177.959968	-88.508958	-97.815286
07424	9.754891	-0.041579	-0.292592	0.007146	-0.011082	-0.000418	-177.952877	-88.507047	-97.823107
07425	9.757968	-0.007803	-0.300694	0.007933	-0.008299	-0.002970	-177.997084	-88.506690	-97.779104
07426	9.764627	-0.037490	-0.272233	0.008038	-0.006991	-0.000674	-177.991909	-88.507127	-97.784497
07427	9.776514	-0.050643	-0.329971	0.008706	-0.006450	-0.002006	-178.013023	-88.507747	-97.763176
07428	9.750404	-0.017664	-0.270616	0.009359	-0.006843	0.000177	-177.988267	-88.508251	-97.787399
07429	9.744992	-0.044844	-0.318341	0.009253	-0.008152	-0.002119	-178.013463	-88.507814	-97.761838
07430	9.781838	-0.023090	-0.285144	0.009253	-0.008151	-0.002119	-178.040253	-88.507615	-97.734559
07431	9.754735	-0.040644	-0.297891	0.007932	-0.008297	-0.002971	-178.085050	-88.507259	-97.690073
07432	9.740524	-0.020705	-0.295750	0.009920	-0.007610	-0.003453	-178.140343	-88.507394	-97.633899
07433	9.754684	-0.040302	-0.299590	0.007798	-0.011470	0.001765	-178.083299	-88.505068	-97.691374
07434	9.764454	-0.036545	-0.278502	0.010573	-0.008002	-0.001270	-178.090522	-88.504937	-97.682912
07435	9.757728	-0.006552	-0.308437	0.007383	-0.006594	-0.002859	-178.130835	-88.505509	-97.643067
07436	9.764417	-0.036196	-0.279838	0.010025	-0.006300	-0.001158	-178.134696	-88.506350	-97.638283
07437	9.786059	-0.045619	-0.315700	0.009132	-0.010389	-0.000901	-178.134406	-88.504712	-97.638169
07438	9.764368	-0.036065	-0.281577	0.008584	-0.008687	-0.000788	-178.132693	-88.504180	-97.639786
07439	9.754537	-0.039811	-0.304417	0.010572	-0.008000	-0.001271	-178.138082	-88.503952	-97.633161
07440	9.744702	-0.043561	-0.327255	0.008584	-0.008686	-0.000789	-178.136375	-88.503421	-97.634772
07441	9.778489	-0.055636	-0.286806	0.008142	-0.005675	0.001619	-178.077942	-88.504451	-97.693366
07442	9.771746	-0.025668	-0.316672	0.009263	-0.007215	-0.005639	-178.181185	-88.504852	-97.589603
07443	9.764258	-0.035625	-0.285399	0.009785	-0.010777	0.001282	-178.132994	-88.502946	-97.637052
07444	9.754416	-0.039510	-0.308286	0.008035	-0.006983	-0.000677	-178.127942	-88.503387	-97.642324
07445	9.771665	-0.025454	-0.319185	0.007262	-0.008832	-0.001640	-178.143570	-88.502660	-97.627317
07446	9.746917	-0.049400	-0.277642	0.008702	-0.006443	-0.002011	-178.166990	-88.503435	-97.603725
07447	9.791262	-0.017525	-0.276543	0.008035	-0.006982	-0.000678	-178.160636	-88.503706	-97.610446
07448	9.764145	-0.035382	-0.289291	0.009785	-0.010774	0.001281	-178.114378	-88.501940	-97.655934
07449	9.764124	-0.035446	-0.289989	0.006939	-0.003580	-0.000454	-178.101150	-88.504191	-97.670113
07450	9.764109	-0.035172	-0.290513	0.009260	-0.007213	-0.005641	-178.204424	-88.504592	-97.566320
07451	9.754260	-0.038815	-0.313287	0.011225	-0.008384	0.000909	-178.161654	-88.504073	-97.607478
07452	9.754236	-0.038856	-0.314032	0.008034	-0.006980	-0.000679	-178.156633	-88.504516	-97.612719
07453	9.788064	-0.050754	-0.273549	0.010022	-0.006292	-0.001163	-178.158674	-88.505210	-97.609781
07454	9.732573	-0.029188	-0.280255	0.008034	-0.006979	-0.000679	-178.153653	-88.505654	-97.615022
07455	9.764004	-0.034836	-0.294069	0.008581	-0.008679	-0.000791	-178.149653	-88.504947	-97.618901
07456	9.759626	-0.011275	-0.270004	0.008581	-0.008679	-0.000791	-178.147987	-88.504419	-97.620474
07457	9.760882	-0.068351	-0.288412	0.008033	-0.006978	-0.000679	-178.141766	-88.504777	-97.627034
07458	9.749752	-0.014808	-0.293301	0.008162	-0.003811	-0.005419	-178.238557	-88.507120	-97.530356
07459	9.773764	-0.030347	-0.274756	0.011890	-0.007841	-0.000427	-178.225051	-88.506912	-97.542009
07460	9.749711	-0.014523	-0.294672	0.008580	-0.008677	-0.000791	-178.223364	-88.506385	-97.543604
07461	9.754038	-0.037937	-0.320224	0.008151	-0.004738	-0.001902	-178.242263	-88.508031	-97.524947
07462	9.763862	-0.033901	-0.298844	0.009246	-0.008138	-0.002126	-178.269160	-88.507836	-97.497566
07463	9.753989	-0.037693	-0.321741	0.010449	-0.010226	-0.000055	-178.249209	-88.506276	-97.516356
07464	9.746552	-0.047765	-0.290479	0.008580	-0.008675	-0.000792	-178.247526	-88.505751	-97.517945
07465	9.766849	0.000085	-0.308719	0.009255	-0.007209	-0.005644	-178.348798	-88.505966	-97.416154
07466	9.763765	-0.033354	-0.302055	0.008141	-0.005663	0.001614	-178.292553	-88.507125	-97.472576
07467	9.787788	-0.049138	-0.283534	0.008698	-0.006436	-0.002015	-178.314558	-88.507672	-97.450533
07468	9.732284	-0.027587	-0.290292	0.009901	-0.008524	0.000056	-178.293360	-88.507219	-97.470888
07469	9.742115	-0.023653	-0.269138	0.007257	-0.008822	-0.001641	-178.309387	-88.506478	-97.455591
07470	9.780923	-0.019132	-0.315233	0.009244	-0.008134	-0.002128	-178.336283	-88.506284	-97.428211
07471	9.753791	-0.036770	-0.327783	0.005388	-0.007272	-0.002378	-178.367740	-88.506428	-97.398404
07472	9.773489	-0.028822	-0.284504	0.012552	-0.007296	-0.001767	-178.384282	-88.506709	-97.379485
07473	9.756223	-0.042593	-0.275012	0.005388	-0.007271	-0.002378	-178.416264	-88.506804	-97.349268
07474	9.746341	-0.046200	-0.297691	0.011895	-0.006907	-0.003950	-178.480958	-88.507340	-97.282558
07475	9.766050	-0.038167	-0.254473	0.007257	-0.008820	-0.001642	-178.496730	-88.506657	-97.267441
07476	9.746296	-0.045866	-0.299219	0.008031	-0.006970	-0.000683	-178.491882	-88.507106	-97.272511
07477	9.756145	-0.041861	-0.277881	0.008696	-0.006432	-0.002018	-178.514226	-88.507799	-97.250073
07478	9.763500	-0.031686	-0.310697	0.010017	-0.006281	-0.001170	-178.518575	-88.508650	-97.244805
07479	9.759161	-0.007937	-0.286420	0.009360	-0.005894	-0.003353	-178.569254	-88.509603	-97.193622
07480	9.732025	-0.025712	-0.298998	0.009782	-0.010754	0.001278	-178.522401	-88.507857	-97.239708
07481	9.773302	-0.027487	-0.290992	0.005386	-0.007269	-0.002378	-178.554234	-88.507986	-97.209597
07482	9.746175	-0.045064	-0.303276	0.010799	-0.003505	-0.003731	-178.613024	-88.510464	-97.149422
07483	9.773270	-0.027020	-0.292108	0.008577	-0.008666	-0.000795	-178.609260	-88.509783	-97.153137
07484	9.753488	-0.034793	-0.336914	0.008577	-0.008666	-0.000795	-178.607501	-88.509263	-97.154805
07485	9.783104	-0.022983	-0.271701	0.010016	-0.006278	-0.001172	-178.610108	-88.509971	-97.151346
07486	9.755971	-0.040818	-0.284085	0.009352	-0.006815	0.000163	-178.585813	-88.510497	-97.175113
07487	9.755951	-0.040774	-0.284761	0.006708	-0.007117	-0.001531	-178.598406	-88.510811	-97.163454
07488	9.755929	-0.040768	-0.285512	0.011220	-0.008362	0.000899	-178.557665	-88.510441	-97.202602
07489	9.770097	-0.060438	-0.289180	0.010562	-0.007975	-0.001284	-178.563172	-88.510168	-97.195894
07490	9.763227	-0.030700	-0.319247	0.008029	-0.006965	-0.000685	-178.558376	-88.510621	-97.200913
07491	9.755858	-0.040611	-0.287962	0.008347	-0.012211	-0.001864	-178.580946	-88.507995	-97.178485
07492	9.738604	-0.054338	-0.278626	0.007370	-0.006578	-0.002868	-178.624361	-88.508700	-97.135654
07493	9.782931	-0.022290	-0.277919	0.011772	-0.009134	-0.002732	-178.661295	-88.507786	-97.096766
07494	9.741596	-0.020362	-0.287547	0.008028	-0.006963	-0.000686	-178.656556	-88.508240	-97.101729
07495	9.755765	-0.039971	-0.291178	0.008575	-0.008661	-0.000796	-178.653652	-88.507588	-97.104719
07496	9.772964	-0.026072	-0.302264	0.011219	-0.008357	0.000896	-178.613036	-88.507222	-97.143741
07497	9.728594	-0.057829	-0.304466	0.005383	-0.007265	-0.002379	-178.644309	-88.507391	-97.114072
07498	9.772923	-0.025879	-0.303601	0.009467	-0.004574	-0.001066	-178.645856	-88.509218	-97.111922
07499	9.734174	-0.030011	-0.258853	0.009238	-0.008122	-0.002133	-178.672058	-88.508926	-97.085458
07500	9.755660	-0.039501	-0.294741	0.009238	-0.008122	-0.002133	-178.699074	-88.508736	-97.057962
07501	9.768572	-0.001810	-0.280924	0.006705	-0.007112	-0.001533	-178.711125	-88.509026	-97.046768
07502	9.728486	-0.057129	-0.308016	0.009121	-0.010355	-0.000908	-178.712345	-88.507539	-97.045144
07503	9.782718	-0.021364	-0.285399	0.008803	-0.005109	0.000269	-178.682360	-88.508846	-97.074836
07504	9.755570	-0.039159	-0.297764	0.005929	-0.008961	-0.002490	-178.719519	-88.508179	-97.039090
07505	9.751266	-0.015445	-0.273798	0.015736	-0.008671	-0.000198	-178.698307	-88.507474	-97.056135
07506	9.772733	-0.025014	-0.309727	0.007914	-0.008272	-0.002980	-178.744742	-88.507208	-97.009972
07507	9.762393	-0.068407	-0.270803	0.008026	-0.006957	-0.000688	-178.737332	-88.507513	-97.017518
07508	9.755476	-0.038566	-0.300895	0.008577	-0.007735	-0.004317	-178.812527	-88.507570	-96.942206
07509	9.768391	-0.000795	-0.287169	0.008573	-0.008654	-0.000799	-178.809192	-88.506951	-96.945543
07510	9.765352	-0.034220	-0.280480	0.007367	-0.006573	-0.002871	-178.852748	-88.507654	-96.902573
07511	9.765332	-0.033999	-0.281194	0.009235	-0.008117	-0.002136	-178.878100	-88.507358	-96.876813
07512	9.786784	-0.043587	-0.317120	0.008573	-0.008653	-0.000799	-178.876340	-88.506845	-96.878484
07513	9.765287	-0.033831	-0.282769	0.008026	-0.006955	-0.000689	-178.870015	-88.507185	-96.885100
07514	9.738132	-0.051572	-0.295151	0.007912	-0.008269	-0.002982	-178.916437	-88.506917	-96.838951
07515	9.748036	-0.047473	-0.274100	0.010441	-0.010195	-0.000065	-178.896290	-88.505383	-96.858010
07516	9.765214	-0.033537	-0.285325	0.008572	-0.008651	-0.000800	-178.894543	-88.504871	-96.859668
07517	9.782395	-0.019504	-0.296372	0.008688	-0.006417	-0.002027	-178.917110	-88.505481	-96.837076
07518	9.747971	-0.047165	-0.276448	0.009234	-0.008114	-0.002137	-178.944118	-88.505291	-96.809590
07519	9.745273	-0.041118	-0.331503	0.012425	-0.009503	-0.000558	-178.933306	-88.504143	-96.818184
07520	9.769381	-0.056765	-0.313134	0.007478	-0.005255	-0.000580	-178.925967	-88.505574	-96.826063
07521	9.765108	-0.032967	-0.288996	0.007911	-0.008266	-0.002983	-178.969401	-88.505139	-96.782786
07522	9.747888	-0.046701	-0.279458	0.010556	-0.007958	-0.001294	-178.977056	-88.505030	-96.773902
07523	9.765064	-0.032672	-0.290518	0.006702	-0.007105	-0.001535	-178.989517	-88.505261	-96.762406
07524	9.779238	-0.052178	-0.294029	0.008686	-0.006415	-0.002029	-179.013797	-88.506043	-96.737963
07525	9.782218	-0.018493	-0.302242	0.008570	-0.008647	-0.000801	-179.009849	-88.505395	-96.741848
07526	9.723666	-0.030550	-0.301385	0.008686	-0.006414	-0.002029	-179.034151	-88.506177	-96.717383
07527	9.772229	-0.022215	-0.325452	0.008139	-0.004717	-0.001920	-179.053551	-88.507788	-96.698151
07528	9.764963	-0.032120	-0.293932	0.009777	-0.010723	0.001271	-179.006324	-88.506069	-96.744614
07529	9.782128	-0.018264	-0.305136	0.008023	-0.006948	-0.000692	-178.999931	-88.506463	-96.751250
07530	9.754961	-0.036028	-0.317461	0.007908	-0.008263	-0.002984	-179.046353	-88.506195	-96.705102
07531	9.779088	-0.051544	-0.299079	0.011331	-0.006103	-0.000342	-179.029748	-88.506986	-96.720062
07532	9.747688	-0.045665	-0.286495	0.007362	-0.006566	-0.002874	-179.073486	-88.507688	-96.676914
07533	9.750665	-0.011817	-0.294604	0.009346	-0.005876	-0.003369	-179.124330	-88.508613	-96.625524
07534	9.779036	-0.050984	-0.300879	0.011330	-0.006102	-0.000343	-179.110003	-88.509558	-96.638186
07535	9.747637	-0.045211	-0.288308	0.008023	-0.006946	-0.000693	-179.103096	-88.509863	-96.645317
07536	9.757581	-0.041123	-0.267025	0.010007	-0.006256	-0.001187	-179.108160	-88.510727	-96.639339
07537	9.764780	-0.031277	-0.300051	0.009230	-0.009022	0.001380	-179.056059	-88.509834	-96.691046
07538	9.757535	-0.041292	-0.268691	0.011760	-0.010027	0.000775	-179.018273	-88.508519	-96.726929
07539	9.774698	-0.027252	-0.279757	0.007475	-0.004334	-0.004104	-179.085358	-88.510351	-96.660267
07540	9.778906	-0.050703	-0.305114	0.010552	-0.007950	-0.001298	-179.093125	-88.510245	-96.651272
07541	9.774660	-0.026872	-0.281137	0.009229	-0.008104	-0.002141	-179.116904	-88.509888	-96.626851
07542	9.764666	-0.030793	-0.303786	0.008022	-0.006943	-0.000694	-179.112470	-88.510354	-96.631512
07543	9.767412	-0.036568	-0.250418	0.009114	-0.010334	-0.000912	-179.110962	-88.508778	-96.632579
07544	9.747443	-0.044491	-0.294902	0.006267	-0.003172	-0.002657	-179.149531	-88.511422	-96.595229
07545	9.757404	-0.040170	-0.273592	0.010435	-0.009264	-0.003590	-179.206339	-88.510462	-96.537305
07546	9.750383	-0.010470	-0.303840	0.008021	-0.006942	-0.000694	-179.201946	-88.510929	-96.541926
07547	9.747382	-0.044046	-0.296996	0.013197	-0.007635	0.000386	-179.168064	-88.510834	-96.572988
07548	9.767321	-0.035892	-0.254022	0.009773	-0.009797	-0.002252	-179.197864	-88.509678	-96.542400
07549	9.771512	-0.059417	-0.279552	0.008681	-0.006406	-0.002034	-179.221075	-88.510354	-96.519190
07550	9.764485	-0.029739	-0.309644	0.008681	-0.006405	-0.002034	-179.245675	-88.511138	-96.494431
07551	9.774452	-0.025620	-0.288379	0.009344	-0.006784	0.000147	-179.219392	-88.511558	-96.520156
07552	9.764440	-0.029645	-0.311084	0.011096	-0.009639	-0.001410	-179.229813	-88.510485	-96.508195
07553	9.743041	-0.019660	-0.276766	0.005374	-0.007251	-0.002380	-179.262003	-88.510662	-96.477764
07554	9.754400	-0.033417	-0.334499	0.008020	-0.006938	-0.000696	-179.257655	-88.511131	-96.482340
07555	9.743002	-0.019458	-0.278179	0.010549	-0.007942	-0.001302	-179.263587	-88.510854	-96.475294
07556	9.740010	-0.052913	-0.271368	0.010549	-0.007942	-0.001302	-179.271435	-88.510752	-96.466220
07557	9.762951	-0.011085	-0.235933	0.009225	-0.008098	-0.002144	-179.296734	-88.510407	-96.440551
07558	9.757130	-0.038719	-0.283379	0.007242	-0.008788	-0.001647	-179.314302	-88.509823	-96.423650
07559	9.764272	-0.028765	-0.316393	0.011986	-0.005555	-0.001692	-179.326516	-88.510873	-96.409380
07560	9.757090	-0.038405	-0.284779	0.005918	-0.008944	-0.002489	-179.363423	-88.510205	-96.373892
07561	9.757064	-0.038346	-0.285701	0.011757	-0.010011	0.000769	-179.323654	-88.508854	-96.411793
07562	9.788394	-0.044151	-0.299778	0.008019	-0.006935	-0.000697	-179.319362	-88.509326	-96.416314
07563	9.762837	-0.010442	-0.240645	0.009224	-0.008095	-0.002146	-179.344970	-88.508986	-96.390390
07564	9.767007	-0.034003	-0.266066	0.008678	-0.006400	-0.002037	-179.369684	-88.509772	-96.365517
07565	9.746971	-0.041996	-0.310468	0.008678	-0.006400	-0.002038	-179.391658	-88.510416	-96.343326
07566	9.742764	-0.018073	-0.286460	0.009224	-0.008094	-0.002146	-179.418887	-88.510232	-96.315625
07567	9.746926	-0.041661	-0.311914	0.012530	-0.007245	-0.001803	-179.434171	-88.510368	-96.298014
07568	9.781132	-0.052968	-0.271582	0.004825	-0.005553	-0.002272	-179.466170	-88.511640	-96.268062
07569	9.739751	-0.051130	-0.280857	0.010547	-0.007935	-0.001305	-179.471390	-88.511323	-96.261636
07570	9.766896	-0.033028	-0.270237	0.013075	-0.008938	-0.001913	-179.491440	-88.510653	-96.238909
07571	9.774006	-0.023081	-0.303317	0.008677	-0.006397	-0.002039	-179.513205	-88.511280	-96.216891
07572	9.766856	-0.032749	-0.271713	0.008563	-0.008625	-0.000807	-179.511391	-88.510784	-96.218621
07573	9.760987	-0.060564	-0.319048	0.008017	-0.006930	-0.000699	-179.503815	-88.510971	-96.226377
07574	9.746767	-0.040748	-0.316968	0.007898	-0.008248	-0.002989	-179.550389	-88.510701	-96.180084
07575	9.756767	-0.036440	-0.295916	0.007239	-0.008781	-0.001648	-179.565498	-88.509926	-96.165701
07576	9.742552	-0.016589	-0.293681	0.006261	-0.003166	-0.002664	-179.605052	-88.512565	-96.127368
07577	9.766760	-0.032100	-0.275211	0.009227	-0.008998	0.001373	-179.552450	-88.511700	-96.179549
07578	9.729536	-0.054103	-0.309264	0.011862	-0.006864	-0.003989	-179.618617	-88.512226	-96.111384
07579	9.756688	-0.036022	-0.298545	0.008682	-0.007303	0.001481	-179.564704	-88.512436	-96.165296
07580	9.766698	-0.031899	-0.277419	0.009221	-0.008088	-0.002149	-179.592004	-88.512253	-96.137526
07581	9.756643	-0.035860	-0.300030	0.006693	-0.007085	-0.001541	-179.605313	-88.512498	-96.125315
07582	9.770821	-0.055369	-0.303496	0.008675	-0.006394	-0.002041	-179.630306	-88.513285	-96.100165
07583	9.787937	-0.041339	-0.314713	0.007238	-0.008778	-0.001649	-179.644973	-88.512571	-96.086103
07584	9.766620	-0.031186	-0.280230	0.011315	-0.005168	-0.003883	-179.709002	-88.514066	-96.020392
07585	9.749462	-0.045067	-0.270533	0.010438	-0.011061	0.003446	-179.610465	-88.512016	-96.117886
07586	9.752377	-0.011590	-0.278986	0.006805	-0.004857	-0.002774	-179.652497	-88.513685	-96.076763
07587	9.773647	-0.021358	-0.314806	0.008561	-0.008618	-0.000809	-179.648274	-88.513110	-96.080880
07588	9.769493	-0.036696	-0.228976	0.009339	-0.006766	0.000139	-179.624835	-88.513676	-96.103798
07589	9.739339	-0.049096	-0.295149	0.007470	-0.005231	-0.000594	-179.615443	-88.514913	-96.113715
07590	9.766499	-0.031004	-0.284463	0.007237	-0.008776	-0.001649	-179.632980	-88.514333	-96.096848
07591	9.759392	-0.040632	-0.253030	0.009106	-0.010310	-0.000918	-179.631351	-88.512769	-96.098124
07592	9.756392	-0.034983	-0.308174	0.008560	-0.008616	-0.000810	-179.629562	-88.512278	-96.099832
07593	9.766423	-0.030793	-0.287070	0.008015	-0.006923	-0.000702	-179.622837	-88.512611	-96.106778
07594	9.766404	-0.030506	-0.287756	0.009209	-0.007176	-0.005674	-179.727821	-88.512961	-96.001304
07595	9.739201	-0.048275	-0.299779	0.009338	-0.006762	0.000137	-179.702592	-88.513369	-96.026149
07596	9.766362	-0.030212	-0.289190	0.007236	-0.008774	-0.001650	-179.720093	-88.512789	-96.009320
07597	9.749214	-0.043915	-0.279494	0.009217	-0.008081	-0.002152	-179.743855	-88.512388	-95.984973
07598	9.756257	-0.034157	-0.312537	0.006811	-0.005760	0.000746	-179.708394	-88.513529	-96.021366
07599	9.745043	-0.020076	-0.256127	0.008014	-0.006920	-0.000703	-179.701046	-88.513845	-96.028834
07600	9.780472	-0.049659	-0.294974	0.007123	-0.010997	-0.000416	-179.691646	-88.511988	-96.038978
07601	9.766249	-0.029808	-0.293043	0.011855	-0.006855	-0.003998	-179.754516	-88.512341	-95.973967
07602	9.749110	-0.043384	-0.283200	0.005365	-0.007238	-0.002382	-179.789075	-88.512643	-95.941145
07603	9.766209	-0.029434	-0.294410	0.009337	-0.006759	0.000135	-179.764446	-88.513159	-95.965406
07604	9.766190	-0.029367	-0.295049	0.008670	-0.006386	-0.002046	-179.789649	-88.513949	-95.940050
07605	9.749052	-0.043091	-0.285209	0.010540	-0.007918	-0.001315	-179.795579	-88.513685	-95.932997
07606	9.773303	-0.058509	-0.266963	0.008558	-0.008610	-0.000812	-179.793780	-88.513197	-95.934715
07607	9.766119	-0.029016	-0.297403	0.005909	-0.008930	-0.002490	-179.828593	-88.512310	-95.901507
07608	9.766094	-0.028876	-0.298257	0.008558	-0.008609	-0.000813	-179.826796	-88.511823	-95.903223
07609	9.759034	-0.038501	-0.266792	0.009103	-0.010301	-0.000920	-179.826004	-88.510220	-95.903879
07610	9.766044	-0.028747	-0.299900	0.009448	-0.004531	-0.001102	-179.829812	-88.512069	-95.899479
07611	9.766025	-0.028573	-0.300521	0.007890	-0.008236	-0.002994	-179.874497	-88.511739	-95.855122
07612	9.744780	-0.018514	-0.266058	0.010661	-0.006594	0.000971	-179.832040	-88.512403	-95.896308
07613	9.765983	-0.028543	-0.301899	0.008012	-0.006915	-0.000706	-179.825458	-88.512797	-95.903084
07614	9.758943	-0.038103	-0.270153	0.008668	-0.006383	-0.002049	-179.850739	-88.513587	-95.877649
07615	9.776027	-0.024087	-0.281532	0.007777	-0.010458	-0.001759	-179.868080	-88.511954	-95.860691
07616	9.751882	-0.047500	-0.239502	0.008556	-0.008605	-0.000814	-179.866299	-88.511469	-95.862392
07617	9.775978	-0.023821	-0.283283	0.007888	-0.008234	-0.002995	-179.909758	-88.511109	-95.819086
07618	9.773052	-0.057150	-0.276292	0.010537	-0.007912	-0.001319	-179.917940	-88.511022	-95.809686
07619	9.765838	-0.027715	-0.306630	0.006687	-0.007073	-0.001545	-179.930845	-88.511276	-95.797802
07620	9.748713	-0.041473	-0.296820	0.008556	-0.008603	-0.000815	-179.929060	-88.510792	-95.799508
07621	9.790088	-0.042971	-0.289167	0.009212	-0.008072	-0.002158	-179.954429	-88.510521	-95.773741
07622	9.758767	-0.036928	-0.276594	0.007887	-0.008232	-0.002995	179.998940	-88.510250	-95.727398
07623	9.779936	-0.046779	-0.312689	0.009100	-0.010293	-0.000922	-179.997801	-88.508579	-95.730182
07624	9.775813	-0.022854	-0.288998	0.008555	-0.008602	-0.000815	-179.996017	-88.508096	-95.731888
07625	9.758697	-0.036520	-0.279115	0.009322	-0.005847	-0.003395	179.952571	-88.509035	-95.679865
07626	9.748566	-0.040544	-0.301720	0.009100	-0.010292	-0.000923	179.952357	-88.507584	-95.679259
07627	9.758652	-0.036215	-0.280710	0.008666	-0.006378	-0.002052	179.931480	-88.508097	-95.658020
07628	9.741544	-0.049819	-0.270708	0.009321	-0.005846	-0.003396	179.876855	-88.509190	-95.602858
07629	9.765594	-0.026165	-0.314419	0.008555	-0.008599	-0.000816	179.881406	-88.508501	-95.607382
07630	9.744393	-0.015989	-0.279997	0.011191	-0.007375	-0.002666	179.843961	-88.508718	-95.568334
07631	9.748457	-0.039623	-0.305353	0.007885	-0.008229	-0.002997	179.799564	-88.508335	-95.524293
07632	9.748432	-0.039547	-0.306154	0.011204	-0.008274	0.000857	179.839702	-88.508043	-95.562847
07633	9.772735	-0.054946	-0.287710	0.004270	-0.003849	-0.002170	179.811165	-88.510182	-95.536727
07634	9.758516	-0.035022	-0.285564	0.010410	-0.009226	-0.003611	179.752583	-88.509335	-95.476982
07635	9.768614	-0.030605	-0.264620	0.008554	-0.008596	-0.000817	179.756936	-88.508739	-95.481272
07636	9.744266	-0.015093	-0.284453	0.010534	-0.007903	-0.001324	179.748674	-88.508655	-95.471794
07637	9.758447	-0.034641	-0.287960	0.006684	-0.007067	-0.001547	179.736580	-88.508926	-95.460560
07638	9.768552	-0.030313	-0.266914	0.008553	-0.008595	-0.000818	179.738407	-88.508447	-95.462309
07639	9.789684	-0.040302	-0.302917	0.004704	-0.007760	-0.001040	179.736019	-88.508283	-95.462022
07640	9.758378	-0.034490	-0.290296	0.011203	-0.008269	0.000855	179.776114	-88.507995	-95.500533
07641	9.761233	-0.000785	-0.298896	0.009193	-0.007164	-0.005686	179.672545	-88.508135	-95.396749
07642	9.741256	-0.047850	-0.281216	0.006573	-0.009286	-0.000310	179.684492	-88.507261	-95.409757
07643	9.772516	-0.053631	-0.295292	0.009443	-0.004519	-0.001113	179.683736	-88.508960	-95.408222
07644	9.789573	-0.039729	-0.306562	0.008552	-0.008592	-0.000819	179.685558	-88.508483	-95.409966
07645	9.758270	-0.033760	-0.294005	0.005902	-0.008918	-0.002491	179.650957	-88.507725	-95.376911
07646	9.772450	-0.053180	-0.297531	0.007337	-0.006534	-0.002893	179.606179	-88.508420	-95.332737
07647	9.768371	-0.029113	-0.273613	0.008008	-0.006901	-0.000713	179.612849	-88.508796	-95.339569
07648	9.775282	-0.019249	-0.306654	0.008646	-0.005472	-0.005581	179.509367	-88.510085	-95.235921
07649	9.758196	-0.032910	-0.296547	0.008133	-0.005577	0.001573	179.565614	-88.511167	-95.292445
07650	9.751252	-0.042524	-0.264759	0.010531	-0.007896	-0.001328	179.557263	-88.511087	-95.282879
07651	9.758155	-0.032813	-0.297894	0.008661	-0.006369	-0.002058	179.534818	-88.511695	-95.260225
07652	9.755273	-0.066131	-0.290629	0.008661	-0.006369	-0.002058	179.509014	-88.512486	-95.234272
07653	9.758118	-0.032464	-0.299131	0.008661	-0.006368	-0.002058	179.486263	-88.513099	-95.211360
07654	9.768249	-0.028018	-0.278042	0.009206	-0.008058	-0.002164	179.458722	-88.512920	-95.183358
07655	9.765363	-0.061384	-0.271042	0.009096	-0.010277	-0.000926	179.462677	-88.511173	-95.186901
07656	9.751131	-0.041762	-0.269291	0.009766	-0.010643	0.001254	179.511317	-88.509531	-95.234784
07657	9.758010	-0.032147	-0.302659	0.007879	-0.008220	-0.003000	179.467877	-88.509004	-95.191672
07658	9.768149	-0.027501	-0.281574	0.006664	-0.006164	-0.005074	179.374460	-88.509893	-95.099228
07659	9.747806	-0.035872	-0.325920	0.005917	-0.009809	0.001034	179.419095	-88.508554	-95.145277
07660	9.772139	-0.051310	-0.307914	0.007116	-0.010968	-0.000417	179.429526	-88.506717	-95.156457
07661	9.757907	-0.031615	-0.306017	0.008006	-0.006895	-0.000716	179.435772	-88.507085	-95.162941
07662	9.782256	-0.046840	-0.287737	0.007878	-0.008218	-0.003001	179.389228	-88.506809	-95.116689
07663	9.757860	-0.031339	-0.307561	0.009875	-0.008420	0.000013	179.413071	-88.506216	-95.139757
07664	9.761119	-0.036496	-0.254165	0.005899	-0.008912	-0.002491	179.376794	-88.505545	-95.104911
07665	9.772011	-0.050718	-0.312033	0.013052	-0.008884	-0.001950	179.358507	-88.504834	-95.084043
07666	9.747605	-0.035264	-0.331927	0.006570	-0.009276	-0.000312	179.370580	-88.503968	-95.097178
07667	9.784982	-0.012707	-0.299805	0.009312	-0.005834	-0.003407	179.318058	-88.504823	-95.044249
07668	9.740687	-0.044421	-0.300819	0.006679	-0.007057	-0.001551	179.302434	-88.505220	-95.029615
07669	9.763867	-0.002261	-0.265886	0.008005	-0.006892	-0.000717	179.310787	-88.505579	-95.037840
07670	9.740643	-0.044240	-0.302254	0.007223	-0.008745	-0.001657	179.293593	-88.505008	-95.021324
07671	9.756958	-0.011562	-0.234990	0.010527	-0.007886	-0.001335	179.287778	-88.504751	-95.014374
07672	9.750774	-0.039847	-0.282189	0.009765	-0.010633	0.001250	179.336331	-88.503119	-95.062170
07673	9.767793	-0.025970	-0.293811	0.007876	-0.008215	-0.003003	179.292985	-88.502686	-95.019096
07674	9.781979	-0.045372	-0.297207	0.006787	-0.004837	-0.002792	179.249599	-88.504346	-94.976629
07675	9.767755	-0.025555	-0.295100	0.008548	-0.008578	-0.000824	179.254637	-88.503630	-94.981626
07676	9.740499	-0.043558	-0.306959	0.009201	-0.008049	-0.002170	179.227174	-88.503454	-94.953705
07677	9.781909	-0.044974	-0.299560	0.009092	-0.010266	-0.000930	179.230561	-88.501923	-94.956627
07678	9.774520	-0.015682	-0.330257	0.009744	-0.009736	-0.002276	179.201633	-88.500779	-94.926929
07679	9.760806	-0.034555	-0.266187	0.008547	-0.008576	-0.000825	179.206403	-88.500214	-94.931568
07680	9.750585	-0.038814	-0.288779	0.008547	-0.008576	-0.000825	179.208218	-88.499746	-94.933309
07681	9.767600	-0.024711	-0.300270	0.009179	-0.007154	-0.005697	179.107228	-88.499946	-94.831656
07682	9.760747	-0.034024	-0.268403	0.008132	-0.005562	0.001565	179.160145	-88.501225	-94.884753
07683	9.770931	-0.029610	-0.247326	0.006548	-0.008377	-0.003838	179.097667	-88.500756	-94.823284
07684	9.764710	-0.057649	-0.294388	0.009199	-0.008045	-0.002172	179.070233	-88.500580	-94.795392
07685	9.777719	-0.019734	-0.281343	0.008003	-0.006885	-0.000721	179.076610	-88.501064	-94.801858
07686	9.750464	-0.037759	-0.293000	0.008655	-0.006356	-0.002067	179.050548	-88.501856	-94.775650
07687	9.777683	-0.019551	-0.282626	0.009328	-0.006719	0.000112	179.076219	-88.502322	-94.800718
07688	9.726006	-0.022266	-0.313391	0.005894	-0.008904	-0.002492	179.040167	-88.501651	-94.766099
07689	9.760606	-0.033117	-0.273577	0.009090	-0.010260	-0.000932	179.043834	-88.499966	-94.769446
07690	9.774787	-0.052826	-0.277261	0.009220	-0.008934	0.001352	179.093834	-88.499313	-94.819002
07691	9.777584	-0.019327	-0.286048	0.005350	-0.007216	-0.002387	179.062264	-88.499474	-94.789152
07692	9.750318	-0.037308	-0.297856	0.011067	-0.009564	-0.001447	179.052340	-88.498434	-94.777705
07693	9.791744	-0.038683	-0.290393	0.008653	-0.006354	-0.002069	179.029207	-88.499066	-94.754478
07694	9.736668	-0.055961	-0.234431	0.009089	-0.010257	-0.000933	179.029658	-88.497634	-94.754544
07695	9.753058	-0.003563	-0.308356	0.009871	-0.008403	0.000004	179.053705	-88.497111	-94.777714
07696	9.777462	-0.018867	-0.290192	0.008545	-0.008569	-0.000828	179.055501	-88.496647	-94.779436
07697	9.774627	-0.052279	-0.282925	0.008001	-0.006881	-0.000723	179.060340	-88.497113	-94.784648
07698	9.767193	-0.022879	-0.313367	0.009173	-0.007150	-0.005701	178.955557	-88.497414	-94.679395
07699	9.750152	-0.036430	-0.303351	0.009871	-0.008401	0.000004	178.979911	-88.496813	-94.702893
07700	9.781346	-0.042236	-0.317787	0.007762	-0.010421	-0.001766	178.961548	-88.495278	-94.684899
07701	9.774537	-0.051466	-0.286183	0.007869	-0.008205	-0.003008	178.918624	-88.494826	-94.642215
07702	9.750071	-0.035957	-0.305994	0.007218	-0.008733	-0.001661	178.901613	-88.494259	-94.625885
07703	9.750049	-0.035799	-0.306726	0.008651	-0.006350	-0.002072	178.878655	-88.494895	-94.602789
07704	9.760266	-0.031190	-0.285669	0.009846	-0.007509	-0.003524	178.822016	-88.495008	-94.545310
07705	9.787492	-0.012948	-0.275528	0.009219	-0.008925	0.001349	178.875359	-88.494288	-94.598067
07706	9.746010	-0.011364	-0.284607	0.010389	-0.009195	-0.003630	178.817512	-88.493433	-94.539070
07707	9.774403	-0.050371	-0.290902	0.009845	-0.007507	-0.003525	178.764229	-88.493357	-94.484940
07708	9.739683	-0.039271	-0.332391	0.008543	-0.008563	-0.000830	178.766062	-88.492896	-94.486700
07709	9.764108	-0.054570	-0.314265	0.007892	-0.009090	0.000517	178.799919	-88.491999	-94.520936
07710	9.760124	-0.030478	-0.290552	0.008650	-0.006348	-0.002073	178.773727	-88.492792	-94.494601
07711	9.749854	-0.034634	-0.312981	0.007867	-0.008201	-0.003010	178.730927	-88.492398	-94.452014
07712	9.749830	-0.034584	-0.313730	0.008675	-0.007235	0.001453	178.781901	-88.492727	-94.502858
07713	9.770314	-0.025878	-0.270978	0.007999	-0.006874	-0.000726	178.788998	-88.493059	-94.510044
07714	9.766785	-0.020700	-0.325959	0.007866	-0.008201	-0.003010	178.742814	-88.492779	-94.464160
07715	9.728805	-0.024102	-0.280767	0.010412	-0.010078	-0.000105	178.764189	-88.491388	-94.484546
07716	9.776986	-0.016177	-0.305961	0.007998	-0.006873	-0.000727	178.767162	-88.491897	-94.487760
07717	9.767438	-0.059041	-0.266040	0.007348	-0.007400	0.000621	178.802830	-88.491941	-94.524007
07718	9.759942	-0.029883	-0.296679	0.008409	-0.009886	-0.003115	178.755493	-88.490694	-94.476658
07719	9.759914	-0.029689	-0.297624	0.011062	-0.009549	-0.001454	178.748804	-88.489485	-94.468464
07720	9.759896	-0.029597	-0.298224	0.008887	-0.002804	-0.001036	178.743620	-88.492321	-94.463008
07721	9.749612	-0.033955	-0.320519	0.006564	-0.009253	-0.000315	178.758216	-88.491236	-94.478880
07722	9.753128	-0.038880	-0.267103	0.010517	-0.007861	-0.001350	178.749537	-88.491171	-94.468993
07723	9.774034	-0.049039	-0.303264	0.007757	-0.010411	-0.001768	178.735112	-88.489522	-94.454810
07724	9.735319	-0.014124	-0.320363	0.008674	-0.007229	0.001450	178.785930	-88.489854	-94.505498
07725	9.753060	-0.038747	-0.269588	0.009190	-0.008028	-0.002182	178.762067	-88.489559	-94.481061
07726	9.776738	-0.015448	-0.313830	0.011060	-0.009545	-0.001456	178.752210	-88.488528	-94.469685
07727	9.756948	-0.062572	-0.295635	0.009973	-0.006173	-0.001248	178.747521	-88.489290	-94.464134
07728	9.752997	-0.038333	-0.271935	0.005886	-0.008892	-0.002493	178.711881	-88.488620	-94.429931
07729	9.752974	-0.038141	-0.272796	0.013036	-0.008848	-0.001976	178.693862	-88.487916	-94.409320
07730	9.752949	-0.038056	-0.273675	0.006563	-0.009249	-0.000315	178.706088	-88.487070	-94.422612
07731	9.759624	-0.028600	-0.307067	0.009189	-0.008026	-0.002183	178.682057	-88.486724	-94.398134
07732	9.769886	-0.023993	-0.286153	0.009188	-0.008025	-0.002183	178.654677	-88.486553	-94.370303
07733	9.742599	-0.042010	-0.297685	0.008645	-0.006340	-0.002079	178.630833	-88.487328	-94.346333
07734	9.752868	-0.037428	-0.276640	0.006669	-0.007035	-0.001560	178.615004	-88.487733	-94.331500
07735	9.784028	-0.043238	-0.291188	0.007649	-0.012617	-0.000524	178.627742	-88.484901	-94.344683
07736	9.742525	-0.041586	-0.300147	0.011269	-0.005116	-0.003949	178.561784	-88.486371	-94.277067
07737	9.769774	-0.023199	-0.290026	0.006562	-0.009246	-0.000316	178.576269	-88.485448	-94.292744
07738	9.752775	-0.036914	-0.279985	0.010514	-0.007853	-0.001356	178.567520	-88.485386	-94.282791
07739	9.769724	-0.022994	-0.291714	0.009730	-0.009708	-0.002289	178.541299	-88.484230	-94.255882
07740	9.742427	-0.040971	-0.303392	0.007860	-0.008192	-0.003014	178.495330	-88.483949	-94.210216
07741	9.769673	-0.022527	-0.293459	0.009730	-0.009706	-0.002290	178.470119	-88.482763	-94.184151
07742	9.752680	-0.036025	-0.283372	0.005989	-0.006676	-0.003739	178.406547	-88.483338	-94.121948
07743	9.738451	-0.016205	-0.281300	0.009322	-0.006692	0.000096	178.430041	-88.483831	-94.145100
07744	9.762948	-0.031281	-0.263029	0.009835	-0.007494	-0.003536	178.373530	-88.483939	-94.087756
07745	9.783800	-0.041528	-0.299002	0.010648	-0.006521	0.000924	178.417624	-88.484431	-94.130507
07746	9.752604	-0.035667	-0.286039	0.007994	-0.006861	-0.000733	178.420331	-88.484947	-94.133457
07747	9.752582	-0.035614	-0.286787	0.008537	-0.008545	-0.000837	178.425790	-88.484345	-94.138760
07748	9.748664	-0.011421	-0.263025	0.009426	-0.004479	-0.001151	178.418853	-88.486219	-94.131242
07749	9.762857	-0.030902	-0.266441	0.008401	-0.009873	-0.003119	178.374118	-88.484880	-94.086628
07750	9.738310	-0.015466	-0.286187	0.008642	-0.006333	-0.002083	178.347603	-88.485676	-94.059974
07751	9.777029	-0.050151	-0.270642	0.009185	-0.008017	-0.002187	178.323260	-88.485291	-94.035268
07752	9.755227	-0.001426	-0.298551	0.006018	-0.007555	-0.000212	178.336521	-88.485418	-94.049909
07753	9.742139	-0.039209	-0.312744	0.005339	-0.007200	-0.002390	178.304362	-88.485628	-94.019595
07754	9.752433	-0.034602	-0.291921	0.009079	-0.010226	-0.000942	178.305283	-88.484213	-94.020137
07755	9.762729	-0.030113	-0.271157	0.009863	-0.008371	-0.000010	178.328880	-88.483754	-94.042895
07756	9.759016	-0.025220	-0.326125	0.008641	-0.006331	-0.002085	178.302324	-88.484551	-94.016202
07757	9.759946	-0.063364	-0.264420	0.006560	-0.009237	-0.000316	178.317793	-88.483462	-94.032869
07758	9.779618	-0.016038	-0.284402	0.007856	-0.008186	-0.003017	178.271828	-88.483180	-93.987209
07759	9.742955	-0.076821	-0.254987	0.007449	-0.005172	-0.000632	178.278647	-88.484538	-93.994539
07760	9.752298	-0.033984	-0.296474	0.005880	-0.008882	-0.002495	178.243292	-88.483866	-93.960625
07761	9.776815	-0.049108	-0.278436	0.011733	-0.009881	0.000712	178.284535	-88.482596	-93.999928
07762	9.752242	-0.033970	-0.298315	0.006560	-0.009235	-0.000317	178.296897	-88.481759	-94.013358
07763	9.769166	-0.019943	-0.310047	0.009149	-0.007133	-0.005719	178.197262	-88.481898	-93.913006
07764	9.762535	-0.028853	-0.278188	0.009182	-0.008012	-0.002191	178.169858	-88.481729	-93.885153
07765	9.766389	-0.052781	-0.303260	0.007311	-0.006500	-0.002915	178.126684	-88.482329	-93.842772
07766	9.748285	-0.008806	-0.276835	0.007992	-0.006853	-0.000737	178.129195	-88.482850	-93.845528
07767	9.766348	-0.052509	-0.304629	0.009181	-0.008011	-0.002191	178.107127	-88.482508	-93.822657
07768	9.752114	-0.032620	-0.302626	0.007311	-0.006499	-0.002915	178.061887	-88.483190	-93.778036
07769	9.745494	-0.041712	-0.270836	0.009077	-0.010219	-0.000944	178.066617	-88.481611	-93.782347
07770	9.762407	-0.028005	-0.282717	0.009215	-0.008888	0.001336	178.116065	-88.481006	-93.831355
07771	9.772735	-0.023408	-0.261825	0.005982	-0.006670	-0.003742	178.055799	-88.481475	-93.772389
07772	9.745431	-0.041488	-0.273126	0.005473	-0.005865	-0.000111	178.069656	-88.482574	-93.787937
07773	9.766212	-0.051884	-0.309056	0.007991	-0.006851	-0.000738	178.075193	-88.482941	-93.793773
07774	9.751975	-0.032167	-0.307098	0.008533	-0.008533	-0.000842	178.076951	-88.482497	-93.795465
07775	9.776521	-0.047208	-0.288879	0.008637	-0.006325	-0.002090	178.053776	-88.483231	-93.772012
07776	9.751927	-0.031952	-0.308657	0.007101	-0.010913	-0.000421	178.065559	-88.481433	-93.784553
07777	9.720757	-0.025898	-0.295748	0.006766	-0.004813	-0.002814	178.023654	-88.482982	-93.743613
07778	9.745312	-0.040872	-0.277422	0.010507	-0.007835	-0.001367	178.014676	-88.482928	-93.733434
07779	9.766074	-0.051168	-0.313503	0.003360	-0.007890	-0.001867	177.994558	-88.482680	-93.716176
07780	9.747984	-0.007123	-0.287274	0.005877	-0.008876	-0.002496	177.959346	-88.482007	-93.682408
07781	9.786755	-0.041732	-0.271782	0.008636	-0.006323	-0.002091	177.935234	-88.482600	-93.658348
07782	9.755594	-0.035692	-0.258822	0.008532	-0.008530	-0.000843	177.936997	-88.482158	-93.660045
07783	9.745208	-0.040093	-0.281179	0.008636	-0.006322	-0.002092	177.914049	-88.482749	-93.636923
07784	9.745183	-0.039966	-0.282063	0.009617	-0.011895	-0.001050	177.914623	-88.480376	-93.636810
07785	9.762082	-0.026031	-0.293910	0.009281	-0.005797	-0.003444	177.860754	-88.481385	-93.582543
07786	9.751691	-0.030295	-0.316175	0.005333	-0.007191	-0.002393	177.826160	-88.481677	-93.549704
07787	9.755493	-0.034949	-0.262700	0.009214	-0.008879	0.001333	177.879219	-88.480973	-93.602260
07788	9.762014	-0.025810	-0.296207	0.006557	-0.009225	-0.000319	177.891746	-88.480145	-93.615858
07789	9.765826	-0.049978	-0.321317	0.007989	-0.006845	-0.000742	177.897980	-88.480467	-93.622315
07790	9.786563	-0.040834	-0.278774	0.010505	-0.007829	-0.001371	177.888936	-88.480416	-93.612071
07791	9.730812	-0.019697	-0.284797	0.008531	-0.008526	-0.000845	177.893551	-88.479861	-93.616695
07792	9.765768	-0.030226	-0.245073	0.008531	-0.008526	-0.000845	177.895279	-88.479422	-93.618358
07793	9.744980	-0.039251	-0.289068	0.007988	-0.006843	-0.000743	177.900719	-88.479867	-93.624048
07794	9.759179	-0.058764	-0.292329	0.006763	-0.004810	-0.002817	177.855905	-88.481514	-93.580166
07795	9.751468	-0.029813	-0.323022	0.008427	-0.010731	0.000403	177.889199	-88.479743	-93.613514
07796	9.755305	-0.034395	-0.269676	0.009176	-0.008000	-0.002198	177.861699	-88.479576	-93.585568
07797	9.776018	-0.044708	-0.305820	0.007202	-0.008697	-0.001671	177.848265	-88.478844	-93.572893
07798	9.744868	-0.038570	-0.292926	0.007847	-0.008173	-0.003024	177.802372	-88.478560	-93.527311
07799	9.761755	-0.024742	-0.304703	0.007342	-0.007365	0.000608	177.838770	-88.478701	-93.564011
07800	9.744821	-0.038375	-0.294516	0.008389	-0.009854	-0.003127	177.792368	-88.477452	-93.517608
07801	9.786316	-0.039561	-0.287482	0.010503	-0.007824	-0.001375	177.784940	-88.477438	-93.509089
07802	9.727864	-0.051857	-0.285169	0.006556	-0.009219	-0.000320	177.797462	-88.476614	-93.522683
07803	9.730534	-0.018393	-0.294215	0.006116	-0.005331	-0.001467	177.784492	-88.477900	-93.511092
07804	9.769348	-0.053006	-0.278635	0.009174	-0.007997	-0.002200	177.756991	-88.477734	-93.483146
07805	9.747397	-0.004367	-0.306586	0.009960	-0.006141	-0.001273	177.753114	-88.478522	-93.478121
07806	9.771995	-0.019414	-0.288417	0.006555	-0.009218	-0.000320	177.765660	-88.477698	-93.491738
07807	9.744666	-0.037683	-0.299682	0.007444	-0.005156	-0.000643	177.772274	-88.479013	-93.498848
07808	9.788853	-0.005499	-0.300894	0.008387	-0.009851	-0.003128	177.725892	-88.477764	-93.452466
07809	9.758829	-0.056989	-0.304121	0.011586	-0.011183	-0.001582	177.718606	-88.475692	-93.443392
07810	9.771902	-0.018864	-0.291607	0.004244	-0.003823	-0.002189	177.684937	-88.477915	-93.412102
07811	9.747252	-0.003617	-0.311170	0.011043	-0.009501	-0.001480	177.678415	-88.476805	-93.404088
07812	9.761440	-0.023199	-0.314736	0.008528	-0.008517	-0.000849	177.680114	-88.476371	-93.405724
07813	9.754935	-0.032241	-0.282998	0.007741	-0.010372	-0.001776	177.666849	-88.474704	-93.392780
07814	9.754907	-0.032159	-0.283951	0.006555	-0.009214	-0.000320	177.679390	-88.473883	-93.406392
07815	9.769097	-0.051720	-0.287557	0.009714	-0.009673	-0.002306	177.655025	-88.472694	-93.381184
07816	9.771749	-0.018101	-0.296721	0.007301	-0.006486	-0.002924	177.609660	-88.473374	-93.336442
07817	9.765265	-0.027163	-0.264690	0.010642	-0.006484	0.000899	177.650163	-88.474065	-93.375887
07818	9.740602	-0.011980	-0.284359	0.010357	-0.009149	-0.003659	177.593117	-88.473202	-93.317708
07819	9.762549	-0.060376	-0.257972	0.007239	-0.009560	0.001856	177.656976	-88.472135	-93.382156
07820	9.740553	-0.011886	-0.286050	0.007300	-0.006485	-0.002925	177.611612	-88.472815	-93.337416
07821	9.768962	-0.051094	-0.292220	0.010397	-0.010019	-0.000130	177.635146	-88.471444	-93.359694
07822	9.740506	-0.011681	-0.287647	0.008628	-0.006309	-0.002102	177.608056	-88.472244	-93.332472
07823	9.754700	-0.031251	-0.291084	0.006554	-0.009211	-0.000321	177.625302	-88.471276	-93.350557
07824	9.771559	-0.017454	-0.302964	0.012471	-0.007115	-0.001913	177.605208	-88.471619	-93.328132
07825	9.744217	-0.035647	-0.314186	0.010498	-0.007813	-0.001382	177.600090	-88.471342	-93.321818
07826	9.771511	-0.017271	-0.304522	0.006553	-0.009209	-0.000321	177.612622	-88.470524	-93.335422
07827	9.744167	-0.035523	-0.315718	0.006113	-0.005325	-0.001470	177.600527	-88.471773	-93.324554
07828	9.754588	-0.030797	-0.294856	0.011039	-0.009492	-0.001485	177.590918	-88.470765	-93.313439
07829	9.762347	-0.059436	-0.265740	0.007196	-0.008685	-0.001675	177.578151	-88.470024	-93.301400
07830	9.760966	-0.021407	-0.329231	0.009168	-0.007986	-0.002206	177.550674	-88.469861	-93.273482
07831	9.775417	-0.021177	-0.253991	0.010742	-0.004274	-0.000358	177.564379	-88.471665	-93.285819
07832	9.750731	-0.006197	-0.273613	0.009752	-0.010535	0.001222	177.613033	-88.470126	-93.333725
07833	9.764923	-0.025827	-0.277152	0.005325	-0.007180	-0.002396	177.582577	-88.470182	-93.305036
07834	9.785540	-0.036114	-0.313191	0.011782	-0.006764	-0.004093	177.515026	-88.470672	-93.235531
07835	9.764883	-0.025428	-0.278590	0.009210	-0.008853	0.001323	177.568469	-88.469988	-93.288353
07836	9.768623	-0.049666	-0.303581	0.007296	-0.006480	-0.002928	177.523069	-88.470668	-93.243580
07837	9.758433	-0.034250	-0.247304	0.006653	-0.007002	-0.001574	177.509659	-88.471091	-93.231088
07838	9.764826	-0.025056	-0.280632	0.009954	-0.006127	-0.001284	177.500660	-88.472014	-93.221205
07839	9.747937	-0.038771	-0.270280	0.005909	-0.009726	0.001033	177.546338	-88.470776	-93.268264
07840	9.754315	-0.029813	-0.303841	0.011181	-0.008152	0.000790	177.584393	-88.470591	-93.304748
07841	9.764762	-0.024975	-0.282854	0.008039	-0.003755	-0.005536	177.486108	-88.472457	-93.206507
07842	9.751631	-0.062605	-0.296653	0.006407	-0.010537	-0.002600	177.451019	-88.470822	-93.172557
07843	9.733639	-0.018490	-0.270592	0.007981	-0.006824	-0.000753	177.456385	-88.471198	-93.178154
07844	9.785635	-0.015117	-0.242019	0.008523	-0.008503	-0.000855	177.458013	-88.470772	-93.179722
07845	9.754203	-0.028961	-0.307496	0.010494	-0.007804	-0.001388	177.452412	-88.470549	-93.172938
07846	9.762010	-0.057536	-0.278231	0.009165	-0.007980	-0.002210	177.424865	-88.470387	-93.144953
07847	9.754157	-0.028740	-0.308974	0.009310	-0.006645	0.000068	177.447454	-88.470984	-93.167142
07848	9.747752	-0.037693	-0.277025	0.005864	-0.008856	-0.002498	177.412677	-88.470313	-93.133816
07849	9.785182	-0.034365	-0.324371	0.007835	-0.008156	-0.003032	177.371826	-88.469875	-93.093079
07850	9.754080	-0.028228	-0.311447	0.009064	-0.010180	-0.000957	177.373234	-88.468486	-93.094117
07851	9.761899	-0.056879	-0.282233	0.007980	-0.006821	-0.000755	177.379473	-88.468924	-93.100394
07852	9.761878	-0.056823	-0.282976	0.008522	-0.008500	-0.000856	177.381086	-88.468500	-93.101947
07853	9.774970	-0.018632	-0.270810	0.008376	-0.009834	-0.003134	177.338422	-88.467119	-93.059365
07854	9.761828	-0.056524	-0.284747	0.009851	-0.008321	-0.000036	177.358171	-88.466819	-93.078298
07855	9.737099	-0.041438	-0.304421	0.009163	-0.007977	-0.002212	177.333871	-88.466480	-93.053681
07856	9.778631	-0.042708	-0.297486	0.011180	-0.008142	0.000784	177.371730	-88.466303	-93.089970
07857	9.753899	-0.027654	-0.317114	0.005320	-0.007174	-0.002397	177.341250	-88.466535	-93.061092
07858	9.747524	-0.036302	-0.285092	0.009116	-0.007110	-0.005744	177.237321	-88.466773	-92.956724
07859	9.751227	-0.060451	-0.310071	0.009209	-0.008840	0.001318	177.289616	-88.466124	-93.008606
07860	9.764322	-0.022405	-0.297860	0.009162	-0.007975	-0.002213	177.262089	-88.465963	-92.980642
07861	9.761678	-0.055577	-0.290035	0.008620	-0.006295	-0.002112	177.239151	-88.466613	-92.957438
07862	9.761656	-0.055564	-0.290769	0.009208	-0.008838	0.001318	177.288006	-88.466055	-93.005856
07863	9.747414	-0.035949	-0.288869	0.007979	-0.006816	-0.000757	177.294157	-88.466424	-93.012169
07864	9.757897	-0.031082	-0.268025	0.009802	-0.007452	-0.003570	177.237462	-88.466525	-92.954658
07865	9.761590	-0.055265	-0.293027	0.006549	-0.009193	-0.000323	177.253870	-88.465699	-92.971989
07866	9.733123	-0.016104	-0.288686	0.010438	-0.010857	0.003391	177.349686	-88.464040	-93.066681
07867	9.747317	-0.035755	-0.292160	0.007930	-0.005951	-0.004289	177.279501	-88.464891	-92.996557
07868	9.747297	-0.035570	-0.292852	0.009849	-0.008314	-0.000039	177.299156	-88.464595	-93.015398
07869	9.747275	-0.035557	-0.293586	0.007978	-0.006814	-0.000758	177.305648	-88.464963	-93.021989
07870	9.764087	-0.021756	-0.305506	0.009160	-0.007971	-0.002215	177.278093	-88.464804	-92.993997
07871	9.761451	-0.055028	-0.297666	0.009307	-0.006634	0.000061	177.300274	-88.465300	-93.015933
07872	9.771947	-0.050187	-0.276821	0.009800	-0.007449	-0.003572	177.243573	-88.465402	-92.958417
07873	9.730358	-0.048731	-0.285293	0.006548	-0.009190	-0.000323	177.259138	-88.464494	-92.975145
07874	9.736642	-0.039741	-0.318921	0.006548	-0.009190	-0.000323	177.271729	-88.463689	-92.988812
07875	9.785004	-0.011892	-0.266472	0.011030	-0.009468	-0.001498	177.264660	-88.462542	-92.980368
07876	9.736585	-0.039597	-0.320696	0.008518	-0.008489	-0.000861	177.266197	-88.462124	-92.981847
07877	9.763911	-0.021160	-0.311137	0.007976	-0.006811	-0.000760	177.273424	-88.462363	-92.989198
07878	9.761282	-0.054428	-0.303276	0.010488	-0.007789	-0.001398	177.263915	-88.462330	-92.978498
07879	9.774392	-0.016161	-0.291072	0.009798	-0.007447	-0.003574	177.211397	-88.462313	-92.925046
07880	9.757552	-0.029653	-0.280458	0.007435	-0.005132	-0.000659	177.213133	-88.463821	-92.927345
07881	9.774354	-0.015793	-0.292381	0.010339	-0.009124	-0.003675	177.159447	-88.462904	-92.872591
07882	9.746975	-0.034097	-0.303538	0.009207	-0.008827	0.001314	177.208124	-88.462353	-92.920833
07883	9.746953	-0.034136	-0.304259	0.004135	-0.006010	-0.000941	177.206699	-88.463102	-92.921954
07884	9.770601	0.008715	-0.270529	0.008517	-0.008486	-0.000862	177.208225	-88.462686	-92.923422
07885	9.771663	-0.048931	-0.286888	0.010486	-0.007785	-0.001400	177.202589	-88.462510	-92.916619
07886	9.757425	-0.029187	-0.284869	0.007434	-0.005130	-0.000661	177.204289	-88.464019	-92.918881
07887	9.740588	-0.042893	-0.274347	0.005906	-0.009705	0.001033	177.250388	-88.462693	-92.966523
07888	9.757380	-0.029123	-0.286426	0.009796	-0.007444	-0.003576	177.193680	-88.462797	-92.909004
07889	9.767903	-0.024206	-0.265612	0.007975	-0.006806	-0.000762	177.198035	-88.463217	-92.913789
07890	9.757336	-0.028877	-0.287944	0.009057	-0.010161	-0.000963	177.199454	-88.461839	-92.914841
07891	9.746765	-0.033468	-0.310290	0.005314	-0.007166	-0.002399	177.167776	-88.461975	-92.885123
07892	9.726259	-0.022591	-0.275649	0.008515	-0.008482	-0.000863	177.169275	-88.461560	-92.886567
07893	9.771484	-0.048204	-0.293016	0.008515	-0.008482	-0.000864	177.175429	-88.460945	-92.892558
07894	9.750989	-0.037301	-0.258257	0.006742	-0.004788	-0.002838	177.129927	-88.462588	-92.847999
07895	9.757224	-0.028238	-0.291780	0.007086	-0.010858	-0.000425	177.147037	-88.460707	-92.865725
07896	9.750950	-0.036967	-0.259791	0.011222	-0.005064	-0.004018	177.079229	-88.462156	-92.796284
07897	9.771401	-0.047531	-0.295887	0.006545	-0.009181	-0.000325	177.095534	-88.461299	-92.813667
07898	9.754574	-0.061244	-0.285375	0.010634	-0.006442	0.000871	177.133035	-88.462102	-92.849910
07899	9.767697	-0.023020	-0.273196	0.008462	-0.007621	-0.004397	177.063593	-88.461942	-92.780136
07900	9.757113	-0.027511	-0.295520	0.011025	-0.009455	-0.001505	177.053957	-88.460951	-92.769002
07901	9.757086	-0.027489	-0.296418	0.007875	-0.008998	0.000493	177.088520	-88.460156	-92.803818
07902	9.757063	-0.027499	-0.297186	0.007973	-0.006802	-0.000765	177.090011	-88.460705	-92.805564
07903	9.740245	-0.041082	-0.286530	0.009942	-0.006101	-0.001305	177.085380	-88.461515	-92.799849
07904	9.765007	-0.055821	-0.268566	0.006934	-0.012192	-0.002700	177.050946	-88.458923	-92.766251
07905	9.764985	-0.055624	-0.269419	0.011911	-0.005399	-0.001847	177.033491	-88.460113	-92.746817
07906	9.750739	-0.035996	-0.267705	0.006348	-0.013568	0.002190	177.104242	-88.456877	-92.818779
07907	9.773727	-0.013435	-0.312752	0.007280	-0.006462	-0.002941	177.063284	-88.457411	-92.778306
07908	9.754341	-0.060255	-0.293440	0.007972	-0.006799	-0.000766	177.064733	-88.457962	-92.780009
07909	9.754319	-0.060199	-0.294180	0.008513	-0.008475	-0.000866	177.070255	-88.457430	-92.785452
07910	9.763803	0.002325	-0.258020	0.007333	-0.007318	0.000591	177.100757	-88.457724	-92.816586
07911	9.754273	-0.060154	-0.295685	0.009151	-0.007955	-0.002225	177.076963	-88.457448	-92.792364
07912	9.781622	-0.041715	-0.286245	0.008664	-0.007135	0.001408	177.125385	-88.457869	-92.840661
07913	9.750595	-0.035535	-0.272950	0.006587	-0.006123	-0.005116	177.036134	-88.458484	-92.752580
07914	9.770997	-0.046059	-0.309158	0.009053	-0.010149	-0.000967	177.037601	-88.457112	-92.753683
07915	9.750550	-0.035129	-0.274620	0.009150	-0.007954	-0.002226	177.012412	-88.456785	-92.728346
07916	9.770945	-0.045808	-0.310837	0.008512	-0.008472	-0.000868	177.013847	-88.456375	-92.729727
07917	9.773487	-0.012441	-0.320186	0.007430	-0.005120	-0.000668	177.019473	-88.457733	-92.735855
07918	9.756683	-0.026037	-0.309528	0.008511	-0.008471	-0.000868	177.020901	-88.457324	-92.737229
07919	9.750471	-0.034909	-0.277422	0.006792	-0.005638	0.000690	177.056076	-88.458434	-92.773209
07920	9.767235	-0.021230	-0.289364	0.012448	-0.007069	-0.001953	177.035140	-88.458795	-92.749954
07921	9.760246	-0.050299	-0.335618	0.005309	-0.007159	-0.002400	177.004289	-88.458849	-92.721098
07922	9.754030	-0.059083	-0.303807	0.012794	-0.013132	0.000464	177.041613	-88.455813	-92.755926
07923	9.744201	-0.043477	-0.247885	0.007970	-0.006794	-0.000769	177.045267	-88.456134	-92.760239
07924	9.767133	-0.020865	-0.292817	0.009688	-0.009626	-0.002328	177.017661	-88.455021	-92.731893
07925	9.764554	-0.054009	-0.284912	0.006639	-0.006975	-0.001585	177.005437	-88.455451	-92.720468
07926	9.750316	-0.034220	-0.282921	0.009938	-0.006092	-0.001313	176.995597	-88.456390	-92.709752
07927	9.781288	-0.040144	-0.297642	0.011019	-0.009442	-0.001513	176.991021	-88.455215	-92.703512
07928	9.760873	-0.029236	-0.263204	0.007082	-0.010843	-0.000426	177.003649	-88.453462	-92.716909
07929	9.722860	-0.052370	-0.295643	0.005307	-0.007157	-0.002401	176.973380	-88.453608	-92.688362
07930	9.750225	-0.033768	-0.286098	0.009397	-0.004415	-0.001215	176.963421	-88.455510	-92.677838
07931	9.781196	-0.039550	-0.300738	0.008993	-0.009288	-0.004503	176.892939	-88.454484	-92.606914
07932	9.750184	-0.033324	-0.287535	0.009300	-0.006607	0.000044	176.912060	-88.455170	-92.625536
07933	9.750162	-0.033310	-0.288266	0.008509	-0.008465	-0.000871	176.918699	-88.454537	-92.632023
07934	9.760758	-0.028369	-0.267532	0.008606	-0.006272	-0.002130	176.890912	-88.455347	-92.604117
07935	9.739503	-0.037846	-0.311156	0.007178	-0.008647	-0.001686	176.878656	-88.454781	-92.592433
07936	9.750100	-0.032820	-0.290441	0.007274	-0.006454	-0.002946	176.832994	-88.455461	-92.547409
07937	9.788081	-0.009454	-0.259704	0.011711	-0.009771	0.000659	176.871988	-88.454324	-92.584862
07938	9.764281	-0.052307	-0.294436	0.008161	-0.002403	-0.003292	176.814721	-88.457310	-92.527720
07939	9.766803	-0.018893	-0.303744	0.007872	-0.008980	0.000488	176.849615	-88.456556	-92.562826
07940	9.758107	-0.060933	-0.262991	0.009145	-0.007944	-0.002231	176.821899	-88.456405	-92.534682
07941	9.760622	-0.027422	-0.272567	0.005846	-0.008829	-0.002501	176.791180	-88.455691	-92.505403
07942	9.760600	-0.027211	-0.273383	0.009144	-0.007943	-0.002232	176.763472	-88.455540	-92.477268
07943	9.764167	-0.051629	-0.298308	0.010379	-0.009951	-0.000157	176.785682	-88.454299	-92.498394
07944	9.747394	-0.065139	-0.287555	0.006192	-0.003103	-0.002749	176.739509	-88.456900	-92.453479
07945	9.777295	-0.013084	-0.286870	0.010321	-0.009099	-0.003691	176.686710	-88.455832	-92.399675
07946	9.764103	-0.051266	-0.300451	0.007930	-0.009828	0.004021	176.793233	-88.454806	-92.506515
07947	9.771133	-0.021920	-0.255654	0.007368	-0.004259	-0.004208	176.721517	-88.456664	-92.435364
07948	9.749842	-0.031278	-0.299125	0.007812	-0.008125	-0.003047	176.675954	-88.456382	-92.390131
07949	9.785321	-0.041084	-0.259677	0.008507	-0.008458	-0.000873	176.680681	-88.455806	-92.395009
07950	9.733044	-0.044633	-0.289362	0.007176	-0.008642	-0.001687	176.664269	-88.455272	-92.379302
07951	9.774633	-0.045751	-0.282808	0.006539	-0.009159	-0.000327	176.683186	-88.454276	-92.398994
07952	9.766495	-0.017263	-0.313609	0.008853	-0.002733	-0.001123	176.672431	-88.457141	-92.387984
07953	9.774601	-0.045494	-0.283960	0.010318	-0.009096	-0.003693	176.620032	-88.456213	-92.334326
07954	9.760355	-0.025548	-0.282142	0.005304	-0.007151	-0.002402	176.585513	-88.456507	-92.301579
07955	9.743592	-0.039097	-0.271434	0.007330	-0.007299	0.000585	176.621617	-88.456557	-92.338137
07956	9.770964	-0.020641	-0.262145	0.011805	-0.007569	-0.000608	176.629438	-88.456672	-92.344018
07957	9.743552	-0.038947	-0.272881	0.009777	-0.007421	-0.003595	176.575493	-88.456527	-92.289605
07958	9.763840	-0.049562	-0.309162	0.008350	-0.009796	-0.003147	176.530290	-88.455282	-92.244424
07959	9.760246	-0.024857	-0.285942	0.007966	-0.006780	-0.000776	176.536252	-88.455850	-92.250342
07960	9.760227	-0.024697	-0.286586	0.007270	-0.006448	-0.002950	176.490317	-88.456525	-92.205047
07961	9.749546	-0.029401	-0.308810	0.009046	-0.010127	-0.000974	176.498109	-88.454966	-92.212161
07962	9.743442	-0.038186	-0.276884	0.009201	-0.008784	0.001298	176.546399	-88.454454	-92.260018
07963	9.774379	-0.044208	-0.291693	0.005302	-0.007149	-0.002403	176.516721	-88.454629	-92.231966
07964	9.791090	-0.030454	-0.303885	0.008505	-0.008452	-0.000876	176.518094	-88.454231	-92.233288
07965	9.743376	-0.037950	-0.279235	0.008505	-0.008451	-0.000876	176.521714	-88.453730	-92.237117
07966	9.763645	-0.048725	-0.315410	0.007268	-0.006446	-0.002951	176.475807	-88.454406	-92.191851
07967	9.763623	-0.048456	-0.316118	0.007808	-0.008119	-0.003050	176.434025	-88.453901	-92.150569
07968	9.760042	-0.023735	-0.292912	0.008504	-0.008450	-0.000877	176.435400	-88.453504	-92.151893
07969	9.749348	-0.028565	-0.315061	0.007964	-0.006776	-0.000778	176.440564	-88.453997	-92.157219
07970	9.774219	-0.043176	-0.297142	0.008887	-0.011464	-0.003248	176.395949	-88.451791	-92.112318
07971	9.743241	-0.036958	-0.284016	0.011802	-0.007561	-0.000614	176.407901	-88.451731	-92.122311
07972	9.757445	-0.056542	-0.287401	0.007172	-0.008634	-0.001690	176.391567	-88.451200	-92.106683
07973	9.757422	-0.056374	-0.288205	0.009138	-0.007931	-0.002239	176.367666	-88.450898	-92.082451
07974	9.759894	-0.022971	-0.297859	0.008504	-0.008447	-0.000878	176.369027	-88.450502	-92.083763
07975	9.753830	-0.031547	-0.265877	0.009678	-0.009603	-0.002338	176.346595	-88.449404	-92.060308
07976	9.749155	-0.027743	-0.321065	0.007234	-0.009479	0.001845	176.406095	-88.448517	-92.120508
07977	9.792926	-0.065933	-0.251179	0.008152	-0.002395	-0.003306	176.351481	-88.451516	-92.065868
07978	9.749120	-0.027413	-0.322152	0.007805	-0.008116	-0.003052	176.306024	-88.451231	-92.020745
07979	9.753757	-0.031082	-0.268606	0.009295	-0.006586	0.000032	176.330485	-88.451700	-92.044516
07980	9.767964	-0.050669	-0.271906	0.009137	-0.007929	-0.002240	176.302697	-88.451551	-92.016305
07981	9.759739	-0.022073	-0.302959	0.007805	-0.008115	-0.003052	176.261558	-88.451205	-91.975388
07982	9.773944	-0.041580	-0.306277	0.007963	-0.006771	-0.000781	176.262377	-88.451771	-91.976468
07983	9.756163	0.002862	-0.280391	0.009770	-0.007411	-0.003603	176.211115	-88.451763	-91.924011
07984	9.767882	-0.049905	-0.274982	0.007076	-0.010818	-0.000427	176.224535	-88.450030	-91.938204
07985	9.742936	-0.035013	-0.294535	0.006725	-0.004769	-0.002856	176.181395	-88.451580	-91.896039
07986	9.753615	-0.030039	-0.273806	0.009200	-0.008771	0.001293	176.229568	-88.451082	-91.943780
07987	9.736889	-0.043554	-0.263021	0.009230	-0.005738	-0.003506	176.177287	-88.451926	-91.890928
07988	9.770285	-0.016174	-0.286610	0.007962	-0.006769	-0.000782	176.178052	-88.452493	-91.891954
07989	9.753563	-0.029586	-0.275726	0.009229	-0.005737	-0.003506	176.125541	-88.453365	-91.838791
07990	9.764248	-0.024508	-0.255023	0.009834	-0.008254	-0.000069	176.144573	-88.453111	-91.857017
07991	9.759515	-0.020707	-0.310187	0.007709	-0.010299	-0.001790	176.132870	-88.451509	-91.845689
07992	9.742788	-0.034094	-0.299500	0.007263	-0.006439	-0.002956	176.086757	-88.452181	-91.800220
07993	9.767703	-0.048689	-0.281467	0.006536	-0.009142	-0.000329	176.105189	-88.451291	-91.819516
07994	9.770156	-0.015372	-0.291043	0.009387	-0.004392	-0.001236	176.093697	-88.453199	-91.807463
07995	9.756952	-0.053450	-0.304212	0.007708	-0.010298	-0.001790	176.081643	-88.451444	-91.796113
07996	9.764125	-0.023687	-0.259772	0.007802	-0.008110	-0.003055	176.036178	-88.451155	-91.750983
07997	9.736690	-0.042046	-0.270518	0.009040	-0.010109	-0.000980	176.043440	-88.449706	-91.757637
07998	9.753360	-0.028388	-0.282934	0.008500	-0.008437	-0.000882	176.044786	-88.449316	-91.758935
07999	9.784261	-0.034369	-0.297787	0.006628	-0.006953	-0.001595	176.031989	-88.449575	-91.747172
08000	9.742596	-0.033220	-0.305781	0.011165	-0.008061	0.000738	176.068527	-88.449464	-91.782148
08001	9.750833	-0.061473	-0.276211	0.005296	-0.007140	-0.002405	176.039238	-88.449585	-91.754418
08002	9.742547	-0.033105	-0.307338	0.011704	-0.009731	0.000640	176.076423	-88.448515	-91.789732
08003	9.778202	-0.042737	-0.268066	0.006468	-0.008296	-0.003866	176.019616	-88.447956	-91.733685
08004	9.753222	-0.027918	-0.287678	0.009199	-0.008762	0.001290	176.067643	-88.447466	-91.781280
08005	9.778156	-0.042635	-0.269743	0.007167	-0.008622	-0.001693	176.056220	-88.446885	-91.770351
08006	9.763904	-0.022967	-0.268008	0.009199	-0.008761	0.001289	176.104191	-88.446395	-91.817890
08007	9.756643	-0.052496	-0.314129	0.007799	-0.008107	-0.003057	176.061919	-88.445976	-91.776221
08008	9.753120	-0.027771	-0.291137	0.012242	-0.011399	0.000540	176.099605	-88.443948	-91.811727
08009	9.747146	-0.036452	-0.259188	0.004029	-0.008167	0.000321	176.128292	-88.443555	-91.842925
08010	9.756557	-0.052441	-0.316798	0.010463	-0.007729	-0.001438	176.118029	-88.443548	-91.831485
08011	9.742308	-0.032625	-0.314895	0.008591	-0.006246	-0.002150	176.095020	-88.444172	-91.808226
08012	9.777998	-0.042233	-0.275480	0.008498	-0.008431	-0.000885	176.096284	-88.443786	-91.809443
08013	9.777978	-0.042108	-0.276194	0.008591	-0.006245	-0.002151	176.072559	-88.444420	-91.785609
08014	9.747052	-0.035890	-0.262774	0.008498	-0.008430	-0.000885	176.073822	-88.444033	-91.786826
08015	9.752960	-0.027226	-0.296501	0.008498	-0.008430	-0.000885	176.079133	-88.443594	-91.792069
08016	9.747015	-0.035557	-0.264217	0.006018	-0.004436	-0.005035	175.985801	-88.445326	-91.700078
08017	9.780345	-0.008215	-0.288032	0.011702	-0.009722	0.000635	176.027513	-88.444297	-91.739566
08018	9.767131	-0.046389	-0.301047	0.004214	-0.003794	-0.002211	175.991607	-88.446507	-91.706055
08019	9.770586	-0.070973	-0.325667	0.008405	-0.010614	0.000380	176.026400	-88.444895	-91.740869
08020	9.763608	-0.021625	-0.278684	0.006625	-0.006946	-0.001597	176.009431	-88.445328	-91.724920
08021	9.771901	-0.049752	-0.249138	0.011000	-0.009395	-0.001539	176.004305	-88.444195	-91.718316
08022	9.736138	-0.039905	-0.290005	0.008589	-0.006242	-0.002153	175.975731	-88.445009	-91.689632
08023	9.763546	-0.021182	-0.280883	0.006625	-0.006945	-0.001598	175.961893	-88.445378	-91.676922
08024	9.750331	-0.059297	-0.293846	0.009922	-0.006053	-0.001345	175.950783	-88.446332	-91.664944
08025	9.763506	-0.021057	-0.282283	0.011701	-0.009718	0.000633	175.991764	-88.445092	-91.704187
08026	9.746818	-0.034563	-0.271519	0.005291	-0.007134	-0.002406	175.957261	-88.445386	-91.671462
08027	9.761031	-0.054100	-0.274682	0.007418	-0.005085	-0.000693	175.958486	-88.446959	-91.673546
08028	9.752680	-0.025767	-0.305700	0.007163	-0.008614	-0.001696	175.942209	-88.446434	-91.657981
08029	9.766885	-0.045229	-0.309083	0.007794	-0.008100	-0.003060	175.902732	-88.446008	-91.618581
08030	9.757511	-0.028991	-0.252970	0.009289	-0.006564	0.000018	175.920704	-88.446725	-91.636059
08031	9.735954	-0.038965	-0.296242	0.009920	-0.006050	-0.001347	175.916364	-88.447488	-91.630513
08032	9.752586	-0.025471	-0.308709	0.005808	-0.011825	0.002299	175.988288	-88.445291	-91.703959
08033	9.757450	-0.028895	-0.255325	0.006552	-0.006105	-0.005136	175.900472	-88.446025	-91.616874
08034	9.746659	-0.033477	-0.277273	0.011721	-0.006691	-0.004174	175.831706	-88.446496	-91.546188
08035	9.766746	-0.044554	-0.313544	0.008566	-0.009259	0.002648	175.914155	-88.445521	-91.628509
08036	9.766719	-0.044601	-0.314378	0.009125	-0.007908	-0.002253	175.886228	-88.445378	-91.600164
08037	9.746593	-0.033309	-0.279601	0.006622	-0.006941	-0.001599	175.874767	-88.445554	-91.589706
08038	9.777456	-0.039254	-0.294500	0.009125	-0.007907	-0.002254	175.846833	-88.445410	-91.561354
08039	9.763206	-0.019328	-0.292600	0.009217	-0.005723	-0.003521	175.791712	-88.446544	-91.505851
08040	9.771552	-0.047343	-0.262914	0.008494	-0.008420	-0.000889	175.792944	-88.446164	-91.507039
08041	9.746511	-0.032659	-0.282522	0.006530	-0.009123	-0.000332	175.811890	-88.445313	-91.526694
08042	9.746484	-0.032617	-0.283456	0.009033	-0.010088	-0.000987	175.813942	-88.443975	-91.528393
08043	9.760692	-0.052049	-0.286876	0.008421	-0.007582	-0.004427	175.744089	-88.443906	-91.458319
08044	9.757230	-0.027110	-0.263778	0.008494	-0.008418	-0.000890	175.745309	-88.443527	-91.459494
08045	9.746417	-0.032084	-0.285828	0.007955	-0.006748	-0.000794	175.748920	-88.443845	-91.463746
08046	9.773838	-0.013376	-0.276699	0.008046	-0.004565	-0.002062	175.719189	-88.445617	-91.434216
08047	9.757179	-0.026809	-0.265697	0.008493	-0.008417	-0.000891	175.724370	-88.445119	-91.439453
08048	9.746358	-0.031757	-0.287871	0.010995	-0.009382	-0.001546	175.714750	-88.444161	-91.428351
08049	9.762974	-0.018118	-0.300295	0.007954	-0.006747	-0.000794	175.719654	-88.444694	-91.433397
08050	9.760543	-0.051361	-0.292009	0.011698	-0.009703	0.000625	175.756610	-88.443645	-91.468485
08051	9.760515	-0.051226	-0.292964	0.006995	-0.009953	-0.003967	175.700486	-88.442065	-91.412995
08052	9.735455	-0.036352	-0.312531	0.006620	-0.006937	-0.001601	175.683361	-88.442501	-91.396893
08053	9.773681	-0.012649	-0.282232	0.009287	-0.006554	0.000011	175.705986	-88.443007	-91.419122
08054	9.760454	-0.050800	-0.295068	0.007250	-0.006423	-0.002967	175.659686	-88.443678	-91.373472
08055	9.760437	-0.050573	-0.295682	0.008583	-0.006232	-0.002161	175.634240	-88.444479	-91.347991
08056	9.760418	-0.050318	-0.296342	0.009751	-0.007387	-0.003623	175.577059	-88.444568	-91.290024
08057	9.756968	-0.025411	-0.273455	0.007606	-0.012454	-0.000526	175.599344	-88.441771	-91.312208
08058	9.756947	-0.025134	-0.274243	0.007969	-0.003728	-0.005602	175.493628	-88.443861	-91.206709
08059	9.746114	-0.029940	-0.296199	0.010364	-0.009889	-0.000183	175.518481	-88.442559	-91.230404
08060	9.760321	-0.049545	-0.299649	0.007158	-0.008603	-0.001699	175.502316	-88.442037	-91.214954
08061	9.760292	-0.049503	-0.300582	0.008401	-0.010592	0.000376	175.538693	-88.440316	-91.251217
08062	9.756851	-0.024723	-0.277674	0.007158	-0.008602	-0.001699	175.522534	-88.439796	-91.235773
08063	9.762625	-0.016142	-0.311548	0.009030	-0.010078	-0.000991	175.530229	-88.438383	-91.242827
08064	9.754415	-0.057656	-0.270258	0.007248	-0.006420	-0.002969	175.483943	-88.439051	-91.197193
08065	9.745956	-0.029216	-0.301425	0.010287	-0.009052	-0.003723	175.434026	-88.438181	-91.145766
08066	9.765202	-0.052052	-0.250534	0.010453	-0.007704	-0.001455	175.423425	-88.438184	-91.133992
08067	9.756736	-0.023789	-0.281747	0.007157	-0.008600	-0.001700	175.412663	-88.437601	-91.123757
08068	9.770947	-0.043314	-0.285133	0.007157	-0.008600	-0.001700	175.396554	-88.437081	-91.108363
08069	9.756693	-0.023547	-0.283249	0.007413	-0.005071	-0.000702	175.399806	-88.438555	-91.112158
08070	9.773290	-0.009929	-0.295563	0.010452	-0.007702	-0.001456	175.389176	-88.438559	-91.100356
08071	9.754277	-0.056590	-0.275423	0.007951	-0.006738	-0.000799	175.392980	-88.438968	-91.104763
08072	9.770872	-0.042891	-0.287758	0.007246	-0.006418	-0.002970	175.346588	-88.439635	-91.059023
08073	9.750845	-0.031504	-0.252876	0.007951	-0.006738	-0.000799	175.351170	-88.440009	-91.063966
08074	9.745759	-0.027985	-0.307849	0.007784	-0.008086	-0.003067	175.305884	-88.439718	-91.019025
08075	9.754198	-0.056071	-0.278303	0.011067	-0.010199	0.001984	175.377249	-88.438326	-91.088793
08076	9.756546	-0.022923	-0.288334	0.010451	-0.007700	-0.001458	175.366581	-88.438330	-91.076954
08077	9.729071	-0.041425	-0.298688	0.007155	-0.008597	-0.001701	175.355912	-88.437564	-91.067066
08078	9.781581	-0.037195	-0.271203	0.009117	-0.007892	-0.002263	175.327955	-88.437421	-91.038698
08079	9.764954	-0.050607	-0.260318	0.012323	-0.009173	-0.000750	175.341068	-88.436455	-91.049457
08080	9.745601	-0.027350	-0.312851	0.007077	-0.007765	-0.005239	175.249496	-88.436244	-90.958618
08081	9.775764	-0.044979	-0.240695	0.006527	-0.009107	-0.000335	175.268473	-88.435364	-90.978486
08082	9.756407	-0.021938	-0.293061	0.009373	-0.004362	-0.001268	175.255397	-88.437283	-90.964857
08083	9.739787	-0.035383	-0.282037	0.009027	-0.010069	-0.000993	175.262569	-88.435785	-90.971679
08084	9.767216	-0.016676	-0.273400	0.008488	-0.008401	-0.000898	175.263729	-88.435415	-90.972797
08085	9.775692	-0.044631	-0.243660	0.008577	-0.006221	-0.002169	175.241007	-88.436107	-90.949677
08086	9.739723	-0.035028	-0.284280	0.006615	-0.006926	-0.001606	175.223715	-88.436545	-90.933410
08087	9.781397	-0.035934	-0.277922	0.009911	-0.006027	-0.001365	175.217026	-88.437355	-90.925852
08088	9.781372	-0.036001	-0.278791	0.005809	-0.011794	0.002303	175.289503	-88.435199	-90.999849
08089	9.739654	-0.034854	-0.286642	0.006536	-0.006096	-0.005145	175.201070	-88.435886	-90.912407
08090	9.753872	-0.054227	-0.289847	0.010449	-0.007693	-0.001462	175.190323	-88.435893	-90.900491
08091	9.777935	-0.010691	-0.257412	0.009026	-0.010065	-0.000995	175.196868	-88.434496	-90.906722
08092	9.753824	-0.054007	-0.291497	0.008576	-0.006219	-0.002171	175.167658	-88.435310	-90.877409
08093	9.770394	-0.040337	-0.303920	0.010448	-0.007692	-0.001463	175.161964	-88.435327	-90.870364
08094	9.736179	-0.009255	-0.266644	0.007153	-0.008591	-0.001703	175.145898	-88.434810	-90.855015
08095	9.753756	-0.053514	-0.293850	0.008318	-0.009746	-0.003166	175.106866	-88.433375	-90.816039
08096	9.764610	-0.048183	-0.273368	0.009909	-0.006024	-0.001368	175.094798	-88.434339	-90.803110
08097	9.750355	-0.028513	-0.271435	0.010617	-0.006340	0.000802	175.133600	-88.435226	-90.840559
08098	9.764572	-0.048230	-0.274717	0.006525	-0.009100	-0.000335	175.146656	-88.434484	-90.854703
08099	9.772600	-0.006544	-0.317667	0.010536	-0.005512	-0.002737	175.110920	-88.435382	-90.817803
08100	9.764534	-0.047952	-0.276100	0.008486	-0.008394	-0.000900	175.112053	-88.435016	-90.818895
08101	9.739391	-0.033322	-0.295636	0.007151	-0.008588	-0.001703	175.100826	-88.434411	-90.808397
08102	9.766830	-0.014491	-0.286969	0.009112	-0.007882	-0.002269	175.072827	-88.434269	-90.779987
08103	9.753580	-0.052626	-0.299809	0.009650	-0.009548	-0.002364	175.050449	-88.433196	-90.756783
08104	9.742670	-0.057543	-0.321819	0.007239	-0.006410	-0.002976	175.003953	-88.433859	-90.710942
08105	9.750185	-0.027425	-0.277574	0.006524	-0.009097	-0.000336	175.021481	-88.433033	-90.729626
08106	9.750159	-0.027464	-0.278487	0.011692	-0.009668	0.000608	175.058234	-88.432014	-90.764514
08107	9.764372	-0.047148	-0.281890	0.008485	-0.008391	-0.000902	175.064427	-88.431489	-90.770702
08108	9.775243	-0.041854	-0.261531	0.009649	-0.009546	-0.002366	175.037781	-88.430393	-90.743339
08109	9.739188	-0.032372	-0.302337	0.008484	-0.008390	-0.000902	175.042785	-88.429988	-90.748406
08110	9.769971	-0.038367	-0.317453	0.007776	-0.008074	-0.003073	174.997708	-88.429696	-90.703678
08111	9.750037	-0.026823	-0.282800	0.007688	-0.010250	-0.001800	174.988597	-88.428078	-90.694877
08112	9.744347	-0.035133	-0.250664	0.011153	-0.007998	0.000701	175.023869	-88.428018	-90.728593
08113	9.764235	-0.046283	-0.286732	0.005453	-0.002761	-0.004958	174.934324	-88.430396	-90.640664
08114	9.764218	-0.046013	-0.287354	0.009022	-0.010054	-0.000998	174.936823	-88.429077	-90.642817
08115	9.749954	-0.026209	-0.285704	0.009110	-0.007877	-0.002272	174.914173	-88.428774	-90.619697
08116	9.764171	-0.045791	-0.289006	0.009818	-0.008191	-0.000102	174.932352	-88.428564	-90.637079
08117	9.780711	-0.032163	-0.301524	0.007237	-0.006407	-0.002979	174.890434	-88.429131	-90.595810
08118	9.753216	-0.050634	-0.311741	0.007687	-0.010248	-0.001801	174.875885	-88.427661	-90.581673
08119	9.775018	-0.040129	-0.270062	0.006073	-0.005250	-0.001515	174.861241	-88.429000	-90.568343
08120	9.749846	-0.025626	-0.289401	0.011152	-0.007994	0.000699	174.896481	-88.428944	-90.602027
08121	9.764067	-0.045105	-0.292604	0.006527	-0.006091	-0.005150	174.809672	-88.429638	-90.515881
08122	9.764042	-0.044960	-0.293439	0.007770	-0.011070	0.001738	174.870372	-88.427880	-90.576974
08123	9.738859	-0.030333	-0.312966	0.006526	-0.006091	-0.005150	174.783149	-88.428313	-90.490834
08124	9.763999	-0.044475	-0.294951	0.009108	-0.007874	-0.002274	174.755163	-88.428172	-90.462441
08125	9.758346	-0.052649	-0.262704	0.008483	-0.008383	-0.000905	174.761320	-88.427809	-90.468403
08126	9.747403	-0.057782	-0.284644	0.007944	-0.006718	-0.000810	174.760901	-88.428404	-90.468254
08127	9.780480	-0.030797	-0.309067	0.007857	-0.008892	0.000464	174.793456	-88.427730	-90.501538
08128	9.744047	-0.032686	-0.262371	0.008485	-0.005384	-0.005719	174.688712	-88.428828	-90.396715
08129	9.760575	-0.018887	-0.274958	0.009020	-0.010047	-0.001001	174.697355	-88.427370	-90.404807
08130	9.774791	-0.038595	-0.278385	0.009192	-0.008694	0.001264	174.744531	-88.426946	-90.451555
08131	9.772464	-0.071652	-0.269882	0.006437	-0.008264	-0.003877	174.686517	-88.426380	-90.394880
08132	9.749571	-0.023748	-0.298682	0.009106	-0.007871	-0.002276	174.658528	-88.426240	-90.366485
08133	9.747251	-0.056718	-0.290031	0.008568	-0.006206	-0.002181	174.635299	-88.426762	-90.343106
08134	9.760465	-0.018221	-0.278879	0.008481	-0.008379	-0.000907	174.636379	-88.426403	-90.344147
08135	9.758143	-0.051246	-0.270410	0.009644	-0.009534	-0.002371	174.615699	-88.425340	-90.322352
08136	9.763723	-0.042762	-0.304186	0.004735	-0.005443	-0.002318	174.579578	-88.426581	-90.288326
08137	9.760401	-0.017632	-0.281139	0.007771	-0.008066	-0.003077	174.538912	-88.426202	-90.248080
08138	9.749433	-0.022835	-0.303216	0.005273	-0.010103	0.002401	174.610215	-88.425040	-90.321211
08139	9.730578	-0.069467	-0.282887	0.007770	-0.008065	-0.003078	174.572515	-88.424538	-90.283559
08140	9.760331	-0.017410	-0.283595	0.009902	-0.006006	-0.001383	174.559862	-88.425508	-90.270048
08141	9.752435	-0.058676	-0.241858	0.009105	-0.007867	-0.002278	174.536218	-88.425379	-90.246041
08142	9.760289	-0.017021	-0.285047	0.007769	-0.008064	-0.003078	174.491243	-88.425081	-90.201419
08143	9.732786	-0.035496	-0.295136	0.009104	-0.007867	-0.002279	174.467608	-88.424867	-90.177410
08144	9.785444	-0.031100	-0.267775	0.007405	-0.005047	-0.000719	174.465301	-88.426420	-90.175681
08145	9.763519	-0.041529	-0.310830	0.006521	-0.009081	-0.000339	174.483079	-88.425589	-90.194570
08146	9.763490	-0.041570	-0.311740	0.011688	-0.009644	0.000595	174.519714	-88.424592	-90.229343
08147	9.774424	-0.036251	-0.291258	0.006693	-0.004735	-0.002890	174.475795	-88.426124	-90.186442
08148	9.757884	-0.049548	-0.279897	0.009901	-0.006003	-0.001385	174.463014	-88.427095	-90.172804
08149	9.763429	-0.041069	-0.313733	0.006970	-0.009924	-0.003973	174.406543	-88.425695	-90.117112
08150	9.774362	-0.035547	-0.293422	0.009103	-0.007864	-0.002280	174.378497	-88.425554	-90.088661
08151	9.788588	-0.055065	-0.296600	0.009901	-0.006002	-0.001386	174.371274	-88.426393	-90.080527
08152	9.760079	-0.015510	-0.292243	0.009726	-0.007354	-0.003651	174.314078	-88.426464	-90.022558
08153	9.741262	-0.061963	-0.271754	0.006520	-0.009078	-0.000339	174.332848	-88.425584	-90.042478
08154	9.754478	-0.023421	-0.260810	0.007767	-0.008061	-0.003080	174.287863	-88.425284	-89.997847
08155	9.788493	-0.054393	-0.299835	0.010889	-0.011500	-0.000301	174.312854	-88.423123	-90.021653
08156	9.774220	-0.034657	-0.298230	0.006606	-0.006905	-0.001615	174.295213	-88.423565	-90.005042
08157	9.754407	-0.023103	-0.263481	0.009016	-0.010033	-0.001006	174.303396	-88.422178	-90.012787
08158	9.763194	-0.039783	-0.321107	0.009814	-0.008171	-0.000113	174.321322	-88.421984	-90.029918
08159	9.757628	-0.048038	-0.288941	0.008392	-0.010541	0.000365	174.356523	-88.420404	-90.065389
08160	9.763136	-0.039693	-0.322887	0.009724	-0.007352	-0.003654	174.299483	-88.420476	-90.007578
08161	9.774095	-0.034108	-0.302358	0.009186	-0.005688	-0.003559	174.247080	-88.421340	-89.954474
08162	9.754301	-0.022345	-0.267450	0.007765	-0.008058	-0.003081	174.202197	-88.421039	-89.909946
08163	9.755282	-0.080243	-0.282562	0.009015	-0.010030	-0.001007	174.212967	-88.419452	-89.920185
08164	9.759778	-0.013878	-0.302192	0.009898	-0.005996	-0.001391	174.199955	-88.420424	-89.906319
08165	9.754235	-0.021985	-0.269890	0.009015	-0.010029	-0.001007	174.207806	-88.419109	-89.913759
08166	9.759729	-0.013726	-0.303788	0.007940	-0.006703	-0.000819	174.206982	-88.419712	-89.913208
08167	9.757451	-0.046695	-0.295070	0.007764	-0.008056	-0.003082	174.165742	-88.419422	-89.872398
08168	9.757428	-0.046524	-0.295868	0.008477	-0.008365	-0.000913	174.166767	-88.419072	-89.873387
08169	9.757404	-0.046353	-0.296665	0.007764	-0.008056	-0.003083	174.125294	-88.418790	-89.832381
08170	9.768370	-0.041029	-0.276444	0.007769	-0.011043	0.001735	174.186221	-88.417068	-89.893701
08171	9.757351	-0.046313	-0.298430	0.008561	-0.006193	-0.002191	174.162394	-88.417748	-89.869649
08172	9.754083	-0.021170	-0.275391	0.008561	-0.006193	-0.002192	174.132492	-88.418561	-89.839652
08173	9.751814	-0.054239	-0.266670	0.007854	-0.008871	0.000457	174.168517	-88.417903	-89.875852
08174	9.762790	-0.048920	-0.246408	0.010971	-0.009318	-0.001582	174.159175	-88.416971	-89.865041
08175	9.743013	-0.026239	-0.298941	0.006603	-0.006899	-0.001618	174.147941	-88.417333	-89.854610
08176	9.757241	-0.045704	-0.302077	0.007225	-0.006391	-0.002990	174.101221	-88.417986	-89.808555
08177	9.784715	-0.026890	-0.293623	0.009189	-0.008669	0.001254	174.153042	-88.417541	-89.859890
08178	9.757196	-0.045530	-0.303550	0.011677	-0.006638	-0.004233	174.083742	-88.417980	-89.788693
08179	9.740685	-0.058792	-0.292351	0.006518	-0.009068	-0.000341	174.103945	-88.417091	-89.809739
08180	9.753908	-0.020216	-0.281601	0.008298	-0.009715	-0.003178	174.061078	-88.415838	-89.766921
08181	9.751648	-0.053102	-0.272896	0.008559	-0.006190	-0.002194	174.034589	-88.416697	-89.740322
08182	9.770350	-0.006394	-0.295051	0.008475	-0.008359	-0.000916	174.035577	-88.416351	-89.741276
08183	9.751610	-0.052982	-0.274275	0.006779	-0.005542	0.000644	174.068100	-88.417533	-89.774592
08184	9.768071	-0.039557	-0.287037	0.007054	-0.010728	-0.000435	174.083255	-88.415864	-89.790532
08185	9.776832	-0.067196	-0.257217	0.009180	-0.005681	-0.003567	174.029880	-88.416716	-89.736614
08186	9.731738	-0.030116	-0.328416	0.011506	-0.010974	-0.001680	174.022511	-88.414833	-89.727471
08187	9.767997	-0.039020	-0.289595	0.007138	-0.008557	-0.001713	174.012959	-88.414242	-89.718286
08188	9.767972	-0.038980	-0.290443	0.007853	-0.008864	0.000455	174.042896	-88.413689	-89.748557
08189	9.784427	-0.025576	-0.303176	0.009273	-0.006494	-0.000027	174.064576	-88.414336	-89.769654
08190	9.737204	-0.032745	-0.277450	0.007138	-0.008557	-0.001714	174.048794	-88.413829	-89.754598
08191	9.751424	-0.052218	-0.280936	0.006876	-0.012081	-0.002698	174.025983	-88.411165	-89.732412
08192	9.767873	-0.038512	-0.293826	0.007221	-0.006387	-0.002993	173.979320	-88.411818	-89.686415
08193	9.737132	-0.032017	-0.280050	0.007758	-0.008048	-0.003087	173.941189	-88.411488	-89.648128
08194	9.753581	-0.018372	-0.292809	0.010430	-0.007646	-0.001495	173.929867	-88.411512	-89.635646
08195	9.793089	-0.052326	-0.277506	0.010346	-0.009814	-0.000216	173.956017	-88.410029	-89.660647
08196	9.756742	-0.043292	-0.318138	0.008473	-0.008353	-0.000919	173.956950	-88.409685	-89.661546
08197	9.753505	-0.018227	-0.295356	0.008473	-0.008353	-0.000919	173.964704	-88.409294	-89.668744
08198	9.762302	-0.045827	-0.265596	0.008294	-0.009708	-0.003181	173.922086	-88.408041	-89.626179
08199	9.767702	-0.037479	-0.299570	0.009093	-0.007845	-0.002292	173.899004	-88.407764	-89.602939
08200	9.753425	-0.017702	-0.297994	0.007053	-0.010721	-0.000436	173.914205	-88.406100	-89.618926
08201	9.762239	-0.045224	-0.268006	0.005429	-0.002756	-0.004977	173.823593	-88.408694	-89.529753
08202	9.742341	-0.022529	-0.320378	0.009009	-0.010012	-0.001014	173.826600	-88.407400	-89.532420
08203	9.767613	-0.036789	-0.302563	0.007935	-0.006689	-0.000827	173.830140	-88.407995	-89.536090
08204	9.762181	-0.044780	-0.270178	0.007135	-0.008551	-0.001716	173.814444	-88.407489	-89.521122
08205	9.736854	-0.030375	-0.289740	0.007052	-0.010719	-0.000436	173.835782	-88.405703	-89.543244
08206	9.751074	-0.049955	-0.293234	0.007672	-0.010212	-0.001810	173.822171	-88.404245	-89.530054
08207	9.767504	-0.036358	-0.306096	0.012384	-0.006932	-0.002078	173.802999	-88.404469	-89.508820
08208	9.764290	-0.011279	-0.283172	0.003484	-0.006442	0.000422	173.824291	-88.405297	-89.532946
08209	9.767459	-0.036373	-0.307527	0.011681	-0.009605	0.000575	173.864407	-88.404361	-89.571173
08210	9.750981	-0.049715	-0.296348	0.007754	-0.008043	-0.003090	173.819871	-88.404060	-89.526999
08211	9.756344	-0.041507	-0.330348	0.010344	-0.009806	-0.000221	173.842693	-88.403051	-89.548672
08212	9.761996	-0.044128	-0.276896	0.008553	-0.006180	-0.002203	173.812659	-88.403866	-89.518547
08213	9.761976	-0.043999	-0.277601	0.008470	-0.008346	-0.000922	173.819346	-88.403500	-89.525033
08214	9.767334	-0.035868	-0.311549	0.008470	-0.008346	-0.000923	173.820213	-88.403160	-89.525868
08215	9.747679	-0.024061	-0.276782	0.010246	-0.008994	-0.003763	173.771512	-88.402202	-89.475911
08216	9.761905	-0.043578	-0.280166	0.004558	-0.009761	0.000236	173.796935	-88.401128	-89.503555
08217	9.789396	-0.024736	-0.271982	0.010426	-0.007636	-0.001503	173.793743	-88.400913	-89.498773
08218	9.745415	-0.056870	-0.269811	0.009006	-0.010004	-0.001017	173.796684	-88.399622	-89.501375
08219	9.747582	-0.023666	-0.280219	0.006596	-0.006886	-0.001625	173.784233	-88.399850	-89.490157
08220	9.772891	-0.037858	-0.262268	0.007933	-0.006683	-0.000831	173.782978	-88.400463	-89.489177
08221	9.761791	-0.043129	-0.284170	0.007669	-0.010206	-0.001811	173.776359	-88.398885	-89.482722
08222	9.747518	-0.023328	-0.282486	0.009888	-0.005974	-0.001412	173.762809	-88.399865	-89.468322
08223	9.778189	-0.029355	-0.297590	0.009170	-0.005671	-0.003580	173.709216	-88.400726	-89.414366
08224	9.750647	-0.047964	-0.307438	0.009542	-0.011662	-0.001111	173.714341	-88.398486	-89.418847
08225	9.761700	-0.042611	-0.287349	0.009187	-0.008644	0.001243	173.765102	-88.398178	-89.469088
08226	9.767024	-0.034381	-0.321262	0.008988	-0.007027	-0.005841	173.663156	-88.398281	-89.366774
08227	9.747405	-0.022506	-0.286415	0.007850	-0.008846	0.000449	173.696016	-88.397620	-89.400263
08228	9.763811	-0.008979	-0.299319	0.007750	-0.008037	-0.003093	173.651624	-88.397319	-89.356235
08229	9.756272	-0.049849	-0.257400	0.009624	-0.009494	-0.002393	173.629507	-88.396265	-89.333486
08230	9.761587	-0.041627	-0.291315	0.008550	-0.006174	-0.002208	173.599382	-88.397080	-89.303271
08231	9.761566	-0.041458	-0.292030	0.007131	-0.008542	-0.001719	173.588622	-88.396493	-89.293293
08232	9.747289	-0.021684	-0.290387	0.008468	-0.008338	-0.000926	173.589446	-88.396157	-89.294087
08233	9.775776	-0.060825	-0.295994	0.009168	-0.005667	-0.003583	173.537945	-88.397034	-89.241765
08234	9.761503	-0.040827	-0.294242	0.010241	-0.008986	-0.003769	173.483498	-88.396145	-89.186250
08235	9.772577	-0.035349	-0.274072	0.007231	-0.009347	0.001823	173.545884	-88.395609	-89.249193
08236	9.741878	-0.029228	-0.260393	0.007849	-0.008841	0.000448	173.575440	-88.395075	-89.279084
08237	9.758274	-0.015771	-0.273343	0.007130	-0.008540	-0.001720	173.564598	-88.394569	-89.268979
08238	9.750291	-0.046129	-0.318786	0.010959	-0.009286	-0.001602	173.555300	-88.393650	-89.258218
08239	9.772481	-0.035098	-0.277516	0.007748	-0.008034	-0.003095	173.516944	-88.393306	-89.220015
08240	9.747098	-0.020571	-0.296811	0.007211	-0.006374	-0.003003	173.470371	-88.393954	-89.174114
08241	9.744916	-0.053588	-0.287885	0.009186	-0.008635	0.001239	173.519742	-88.393572	-89.223288
08242	9.772417	-0.034661	-0.279805	0.010239	-0.008983	-0.003771	173.465369	-88.392685	-89.167848
08243	9.744875	-0.053126	-0.289377	0.007292	-0.004210	-0.004286	173.393685	-88.394468	-89.096476
08244	9.777676	-0.026073	-0.314309	0.009003	-0.009992	-0.001021	173.396823	-88.393185	-89.099277
08245	9.772356	-0.033959	-0.281995	0.010421	-0.007623	-0.001512	173.390419	-88.393147	-89.091649
08246	9.744806	-0.052701	-0.291771	0.009002	-0.009991	-0.001021	173.393548	-88.391864	-89.094442
08247	9.741647	-0.027495	-0.269088	0.006592	-0.006877	-0.001629	173.382061	-88.392006	-89.084187
08248	9.744757	-0.052595	-0.293420	0.009722	-0.010290	0.001145	173.430207	-88.390696	-89.131602
08249	9.755862	-0.047075	-0.272990	0.008091	-0.002345	-0.003403	173.372067	-88.393707	-89.073339
08250	9.772245	-0.033471	-0.285886	0.010075	-0.013307	-0.001207	173.379874	-88.390525	-89.080197
08251	9.725159	-0.040429	-0.260111	0.007209	-0.006371	-0.003005	173.339556	-88.391082	-89.040358
08252	9.772196	-0.033186	-0.287585	0.007848	-0.008834	0.000445	173.369037	-88.390555	-89.070175
08253	9.775298	-0.058231	-0.311886	0.009082	-0.007825	-0.002306	173.348137	-88.390277	-89.048601
08254	9.746762	-0.018765	-0.307766	0.008465	-0.008329	-0.000931	173.348907	-88.389947	-89.049342
08255	9.760994	-0.038397	-0.310982	0.005974	-0.007379	-0.000254	173.363634	-88.390140	-89.065649
08256	9.760971	-0.038230	-0.311696	0.009698	-0.007320	-0.003683	173.307001	-88.390201	-89.008257
08257	9.772087	-0.032585	-0.291344	0.007928	-0.006669	-0.000839	173.310167	-88.390727	-89.011804
08258	9.750411	-0.053801	-0.246903	0.013982	-0.011884	-0.002377	173.293278	-88.388277	-88.991717
08259	9.760896	-0.037754	-0.314107	0.006054	-0.005215	-0.001538	173.280054	-88.389570	-88.979563
08260	9.746619	-0.017989	-0.312317	0.008464	-0.008326	-0.000932	173.280811	-88.389241	-88.980292
08261	9.755604	-0.045354	-0.282346	0.008359	-0.007523	-0.004475	173.214384	-88.388946	-88.913690
08262	9.771970	-0.031650	-0.295338	0.009617	-0.009480	-0.002400	173.188902	-88.387861	-88.887509
08263	9.755559	-0.044816	-0.283976	0.011034	-0.007111	-0.002894	173.154455	-88.387962	-88.851563
08264	9.760776	-0.036649	-0.317939	0.005788	-0.008735	-0.002514	173.122730	-88.387292	-88.821331
08265	9.774025	0.002079	-0.307489	0.012908	-0.008563	-0.002196	173.106335	-88.386632	-88.802414
08266	9.771878	-0.030892	-0.298454	0.005437	-0.005717	-0.000163	173.114552	-88.387840	-88.812341
08267	9.755472	-0.044247	-0.287039	0.009000	-0.009981	-0.001025	173.122718	-88.386493	-88.820183
08268	9.741192	-0.024487	-0.285369	0.009881	-0.005955	-0.001427	173.108530	-88.387478	-88.805149
08269	9.769689	-0.063666	-0.290923	0.009079	-0.007819	-0.002310	173.086630	-88.387287	-88.782692
08270	9.741151	-0.024134	-0.286797	0.009079	-0.007818	-0.002310	173.058696	-88.387152	-88.754366
08271	9.763443	-0.013064	-0.245592	0.006509	-0.009031	-0.000347	173.079202	-88.386198	-88.775863
08272	9.755359	-0.043623	-0.290946	0.010952	-0.009269	-0.001612	173.070007	-88.385286	-88.765209
08273	9.746288	-0.015905	-0.322574	0.012906	-0.008559	-0.002199	173.053173	-88.384600	-88.746165
08274	9.771683	-0.029991	-0.304862	0.006509	-0.009030	-0.000347	173.066366	-88.383911	-88.760455
08275	9.766453	-0.037783	-0.272396	0.008542	-0.006159	-0.002219	173.041210	-88.384657	-88.735241
08276	9.769526	-0.062810	-0.296543	0.008462	-0.008319	-0.000935	173.041943	-88.384331	-88.735947
08277	9.752153	-0.017811	-0.271456	0.007739	-0.008022	-0.003101	173.002553	-88.383894	-88.697143
08278	9.766390	-0.037302	-0.274690	0.008462	-0.008318	-0.000935	173.003283	-88.383569	-88.697847
08279	9.764257	-0.070238	-0.265818	0.007660	-0.010182	-0.001816	172.996193	-88.382082	-88.690882
08280	9.766339	-0.037292	-0.276519	0.009907	-0.008910	0.003398	173.086426	-88.381721	-88.780296
08281	9.752057	-0.017693	-0.274860	0.005249	-0.007074	-0.002423	173.057139	-88.381897	-88.753011
08282	9.760309	-0.034926	-0.332154	0.010601	-0.006246	0.000734	173.087634	-88.382866	-88.782264
08283	9.761093	-0.045123	-0.245412	0.009076	-0.007814	-0.002313	173.067164	-88.382633	-88.761092
08284	9.755081	-0.042560	-0.300300	0.008540	-0.006156	-0.002222	173.036696	-88.383449	-88.730540
08285	9.766241	-0.036856	-0.279985	0.009076	-0.007813	-0.002313	173.015601	-88.383178	-88.708840
08286	9.743853	-0.047674	-0.322807	0.009611	-0.009469	-0.002405	172.990227	-88.382096	-88.682770
08287	9.777378	-0.031001	-0.260701	0.008460	-0.008315	-0.000937	172.996397	-88.381587	-88.689115
08288	9.754988	-0.041940	-0.303372	0.009877	-0.005947	-0.001434	172.982030	-88.382575	-88.673904
08289	9.791600	-0.050562	-0.264581	0.011672	-0.009556	0.000549	173.021795	-88.381614	-88.712011
08290	9.735511	-0.030151	-0.269372	0.006507	-0.009024	-0.000348	173.034946	-88.380928	-88.726261
08291	9.775200	-0.063789	-0.254041	0.009689	-0.007308	-0.003693	172.985786	-88.380992	-88.675715
08292	9.751824	-0.016409	-0.283084	0.007924	-0.006656	-0.000846	172.983888	-88.381619	-88.674098
08293	9.746645	-0.024189	-0.250587	0.008459	-0.008312	-0.000938	172.991216	-88.381108	-88.681344
08294	9.766042	-0.035949	-0.286970	0.007923	-0.006655	-0.000846	172.989312	-88.381735	-88.679720
08295	9.724217	-0.035092	-0.293884	0.009876	-0.005945	-0.001436	172.979653	-88.382762	-88.669173
08296	9.751744	-0.016026	-0.285868	0.005782	-0.008727	-0.002515	172.948068	-88.382094	-88.639085
08297	9.777180	-0.029956	-0.268159	0.012900	-0.008547	-0.002209	172.932389	-88.381541	-88.620639
08298	9.763869	-0.068424	-0.280159	0.006506	-0.009020	-0.000349	172.945566	-88.380858	-88.634915
08299	9.765931	-0.035204	-0.290830	0.006396	-0.008224	-0.003893	172.890257	-88.380380	-88.580707
08300	9.746510	-0.023152	-0.255895	0.007923	-0.006653	-0.000848	172.888284	-88.381008	-88.579015
08301	9.771028	-0.027112	-0.325435	0.007922	-0.006653	-0.000848	172.893426	-88.381435	-88.584302
08302	9.782212	-0.021442	-0.305169	0.009072	-0.007807	-0.002317	172.865440	-88.381302	-88.555928
08303	9.760717	-0.042518	-0.260405	0.005970	-0.007362	-0.000258	172.885478	-88.381420	-88.576754
08304	9.751566	-0.014864	-0.291932	0.009686	-0.007304	-0.003696	172.828840	-88.381475	-88.519365
08305	9.765808	-0.034335	-0.295033	0.007922	-0.006651	-0.000849	172.833270	-88.381925	-88.524148
08306	9.754575	-0.039744	-0.316666	0.005245	-0.007068	-0.002424	172.799066	-88.382204	-88.491747
08307	9.746382	-0.022298	-0.260802	0.009182	-0.008600	0.001226	172.851536	-88.381848	-88.543389
08308	9.776955	-0.028574	-0.276380	0.009607	-0.009461	-0.002410	172.826188	-88.380769	-88.517348
08309	9.765712	-0.033990	-0.298207	0.008457	-0.008306	-0.000940	172.833594	-88.380413	-88.524428
08310	9.760574	-0.041652	-0.265827	0.009606	-0.009460	-0.002410	172.808269	-88.379334	-88.498410
08311	9.762621	-0.008384	-0.276544	0.007732	-0.008012	-0.003107	172.772597	-88.378955	-88.462620
08312	9.749304	-0.046895	-0.288520	0.009718	-0.010253	0.001134	172.820548	-88.377679	-88.509842
08313	9.754385	-0.039011	-0.322538	0.009148	-0.005645	-0.003608	172.768525	-88.378498	-88.457388
08314	9.765593	-0.033013	-0.302198	0.008958	-0.007008	-0.005865	172.667274	-88.378560	-88.355785
08315	9.749245	-0.046059	-0.290646	0.008457	-0.008303	-0.000942	172.673717	-88.378041	-88.362406
08316	9.765546	-0.032681	-0.303741	0.009795	-0.008094	-0.000155	172.690366	-88.377901	-88.378270
08317	9.760430	-0.040504	-0.271231	0.007308	-0.007148	0.000528	172.723523	-88.378398	-88.411666
08318	9.734917	-0.026389	-0.290398	0.009872	-0.005936	-0.001444	172.708807	-88.379390	-88.396108
08319	9.790981	-0.046576	-0.287229	0.009682	-0.007299	-0.003700	172.659617	-88.379126	-88.346079
08320	9.737905	-0.051212	-0.315156	0.008456	-0.008301	-0.000942	172.660240	-88.378810	-88.346678
08321	9.746085	-0.020450	-0.271789	0.007766	-0.010959	0.001725	172.725582	-88.377119	-88.412563
08322	9.763347	-0.065399	-0.298459	0.010407	-0.007590	-0.001536	172.713586	-88.377165	-88.399420
08323	9.760303	-0.039989	-0.275851	0.009068	-0.007799	-0.002322	172.691191	-88.376957	-88.376635
08324	9.776598	-0.026484	-0.288918	0.010407	-0.007589	-0.001536	172.679183	-88.377003	-88.363479
08325	9.765333	-0.031912	-0.310605	0.009068	-0.007798	-0.002323	172.656297	-88.376830	-88.340294
08326	9.776554	-0.026189	-0.290452	0.008455	-0.008299	-0.000943	172.656891	-88.376516	-88.340865
08327	9.776533	-0.026206	-0.291159	0.010597	-0.006223	0.000719	172.695266	-88.377331	-88.377710
08328	9.760200	-0.039562	-0.279537	0.008455	-0.008298	-0.000944	172.695848	-88.377016	-88.378269
08329	9.750973	-0.012191	-0.311214	0.009181	-0.008588	0.001222	172.747034	-88.376692	-88.428959
08330	9.760150	-0.039635	-0.281259	0.008990	-0.009952	-0.001034	172.750312	-88.375432	-88.431908
08331	9.760128	-0.039420	-0.282061	0.005853	-0.006562	-0.003805	172.693184	-88.375664	-88.376462
08332	9.765160	-0.031474	-0.316052	0.008454	-0.008296	-0.000945	172.693746	-88.375351	-88.377001
08333	9.774348	-0.058808	-0.285996	0.008454	-0.008296	-0.000945	172.700740	-88.374971	-88.383961
08334	9.745795	-0.019401	-0.282072	0.008989	-0.009950	-0.001035	172.704031	-88.373711	-88.386923
08335	9.785562	-0.052887	-0.266726	0.007803	-0.005850	-0.004400	172.634097	-88.374514	-88.317265
08336	9.745754	-0.018922	-0.283528	0.008453	-0.008295	-0.000945	172.634650	-88.374202	-88.317796
08337	9.774258	-0.058215	-0.289178	0.006502	-0.009005	-0.000351	172.655267	-88.373316	-88.339341
08338	9.750740	-0.011013	-0.318471	0.007726	-0.008004	-0.003111	172.611325	-88.373010	-88.295774
08339	9.759949	-0.038198	-0.288358	0.010404	-0.007582	-0.001541	172.606345	-88.372932	-88.289619
08340	9.787494	-0.019093	-0.280466	0.008529	-0.006138	-0.002236	172.575519	-88.373750	-88.258714
08341	9.759914	-0.037781	-0.289595	0.009141	-0.005638	-0.003616	172.521059	-88.374605	-88.203906
08342	9.743599	-0.050913	-0.277908	0.008453	-0.008292	-0.000946	172.521611	-88.374294	-88.204436
08343	9.764892	-0.029771	-0.324368	0.007113	-0.008503	-0.001731	172.513501	-88.373646	-88.196788
08344	9.761878	-0.004381	-0.301711	0.007382	-0.004983	-0.000767	172.508333	-88.375228	-88.192209
08345	9.729275	-0.030869	-0.277605	0.007725	-0.008002	-0.003112	172.471226	-88.374884	-88.155150
08346	9.759807	-0.037030	-0.293247	0.008988	-0.009945	-0.001037	172.474648	-88.373627	-88.158245
08347	9.771059	-0.031328	-0.273226	0.008452	-0.008290	-0.000947	172.482207	-88.373128	-88.165842
08348	9.774023	-0.056558	-0.297338	0.008452	-0.008290	-0.000948	172.482738	-88.372818	-88.166351
08349	9.745472	-0.017098	-0.293163	0.007992	-0.004482	-0.002148	172.458350	-88.374306	-88.141821
08350	9.768018	-0.005618	-0.251996	0.005773	-0.008712	-0.002516	172.427085	-88.373638	-88.112057
08351	9.759695	-0.036313	-0.297050	0.011548	-0.008731	-0.003015	172.395361	-88.372985	-88.078236
08352	9.759668	-0.036202	-0.297947	0.004551	-0.009711	0.000245	172.421292	-88.371958	-88.106391
08353	9.759641	-0.036131	-0.298833	0.012887	-0.008519	-0.002232	172.405748	-88.371303	-88.088166
08354	9.770908	-0.030286	-0.278691	0.005237	-0.007057	-0.002427	172.371619	-88.371581	-88.055843
08355	9.787165	-0.016887	-0.291858	0.007840	-0.008787	0.000432	172.407633	-88.371077	-88.091876
08356	9.743290	-0.049101	-0.288850	0.009597	-0.009441	-0.002420	172.382513	-88.370002	-88.066068
08357	9.728998	-0.029297	-0.287315	0.008451	-0.008286	-0.000949	172.391352	-88.369485	-88.074582
08358	9.770814	-0.029899	-0.281987	0.010401	-0.007574	-0.001547	172.379157	-88.369536	-88.061244
08359	9.754518	-0.043120	-0.270354	0.008450	-0.008285	-0.000950	172.385949	-88.369080	-88.067971
08360	9.770776	-0.029690	-0.283334	0.011280	-0.003555	-0.001965	172.355153	-88.371382	-88.035519
08361	9.770762	-0.029498	-0.283850	0.005236	-0.007056	-0.002427	172.328291	-88.371412	-88.010449
08362	9.759437	-0.035009	-0.305566	0.008985	-0.009938	-0.001040	172.331754	-88.370159	-88.013585
08363	9.759411	-0.034806	-0.306403	0.009670	-0.007285	-0.003713	172.284113	-88.370042	-87.964913
08364	9.775660	-0.021338	-0.319485	0.009254	-0.006418	-0.000078	172.297456	-88.370862	-87.977779
08365	9.754407	-0.042165	-0.274467	0.007720	-0.007996	-0.003115	172.258516	-88.370454	-87.939373
08366	9.756384	-0.008946	-0.285266	0.009060	-0.007783	-0.002332	172.230444	-88.370324	-87.910920
08367	9.770632	-0.028450	-0.288401	0.010399	-0.007570	-0.001549	172.221410	-88.370470	-87.900963
08368	9.749390	-0.049464	-0.243445	0.004745	-0.008339	0.002500	172.288801	-88.370399	-87.970484
08369	9.770586	-0.028537	-0.289927	0.005235	-0.007054	-0.002428	172.260803	-88.370463	-87.944473
08370	9.728721	-0.027682	-0.296700	0.010399	-0.007569	-0.001550	172.248520	-88.370515	-87.931046
08371	9.770544	-0.028244	-0.291375	0.010398	-0.007569	-0.001551	172.241238	-88.370720	-87.922517
08372	9.742945	-0.047094	-0.300597	0.007109	-0.008493	-0.001735	172.225906	-88.370234	-87.907927
08373	9.723709	-0.034914	-0.265761	0.010933	-0.009221	-0.001641	172.224397	-88.369114	-87.904872
08374	9.779802	-0.055118	-0.262956	0.007109	-0.008492	-0.001735	172.209079	-88.368628	-87.890295
08375	9.754194	-0.040897	-0.282128	0.009132	-0.005629	-0.003627	172.157221	-88.369609	-87.837521
08376	9.770427	-0.027499	-0.295342	0.009714	-0.010217	0.001122	172.205084	-88.368366	-87.884657
08377	9.754147	-0.040729	-0.283782	0.007718	-0.007993	-0.003117	172.166725	-88.368102	-87.846527
08378	9.754125	-0.040447	-0.284558	0.007717	-0.007992	-0.003117	172.122873	-88.367791	-87.803056
08379	9.759029	-0.032668	-0.318585	0.007913	-0.006625	-0.000864	172.127011	-88.368239	-87.807516
08380	9.751145	-0.014853	-0.262667	0.007913	-0.006625	-0.000864	172.124389	-88.368880	-87.805179
08381	9.754065	-0.040078	-0.286691	0.009592	-0.009430	-0.002425	172.106135	-88.367724	-87.786087
08382	9.754042	-0.039903	-0.287481	0.006573	-0.006837	-0.001647	172.087740	-88.368183	-87.768739
08383	9.765353	-0.034124	-0.267391	0.006498	-0.008988	-0.000354	172.106206	-88.367476	-87.788233
08384	9.753997	-0.039729	-0.289019	0.012345	-0.006851	-0.002155	172.081029	-88.367887	-87.760792
08385	9.758885	-0.031991	-0.323040	0.010396	-0.007563	-0.001555	172.074326	-88.367835	-87.753065
08386	9.749051	-0.046966	-0.257148	0.007716	-0.007990	-0.003118	172.030472	-88.367523	-87.709592
08387	9.784446	-0.045575	-0.306110	0.008447	-0.008274	-0.000955	172.035132	-88.367356	-87.714243
08388	9.770150	-0.025736	-0.304526	0.007715	-0.007989	-0.003119	171.991288	-88.367044	-87.670781
08389	9.753887	-0.038854	-0.292842	0.008447	-0.008273	-0.000955	172.002233	-88.366557	-87.680981
08390	9.748973	-0.046299	-0.260213	0.008520	-0.006123	-0.002249	171.970949	-88.367372	-87.649623
08391	9.753846	-0.038688	-0.294219	0.005354	-0.007831	0.001118	172.016335	-88.367388	-87.696623
08392	9.758707	-0.031004	-0.328443	0.010733	-0.010580	-0.003899	171.965977	-88.365543	-87.644915
08393	9.753795	-0.038371	-0.295949	0.007911	-0.006620	-0.000867	171.969549	-88.365943	-87.648852
08394	9.753769	-0.038516	-0.296780	0.010444	-0.010490	0.003283	172.061575	-88.364721	-87.739750
08395	9.760217	-0.040353	-0.243432	0.005839	-0.006550	-0.003812	172.003585	-88.365296	-87.683021
08396	9.767995	-0.057928	-0.300711	0.007105	-0.008485	-0.001737	171.988303	-88.364812	-87.668481
08397	9.755659	-0.005141	-0.309170	0.008519	-0.006121	-0.002251	171.965640	-88.365562	-87.645405
08398	9.765038	-0.032125	-0.278894	0.007713	-0.007987	-0.003121	171.921820	-88.365249	-87.601968
08399	9.779290	-0.051546	-0.282032	0.009053	-0.007771	-0.002340	171.899984	-88.364976	-87.579695
08400	9.753639	-0.037375	-0.301183	0.007178	-0.006334	-0.003032	171.852946	-88.365606	-87.533345
08401	9.764975	-0.031629	-0.281141	0.005281	-0.009976	0.002411	171.929809	-88.364505	-87.611948
08402	9.760092	-0.039026	-0.248628	0.008928	-0.006990	-0.005888	171.828927	-88.364532	-87.510729
08403	9.766879	0.001711	-0.292873	0.007837	-0.008765	0.000425	171.863357	-88.364015	-87.545413
08404	9.737321	-0.050189	-0.291858	0.009052	-0.007770	-0.002341	171.835220	-88.363887	-87.516897
08405	9.779160	-0.050588	-0.286674	0.007712	-0.007984	-0.003122	171.801861	-88.363328	-87.483400
08406	9.761961	-0.005342	-0.261820	0.007910	-0.006615	-0.000870	171.798991	-88.363974	-87.480818
08407	9.764847	-0.030795	-0.285673	0.008643	-0.006897	0.001294	171.846691	-88.364571	-87.528362
08408	9.764825	-0.030836	-0.286411	0.008444	-0.008266	-0.000959	171.847075	-88.364273	-87.528728
08409	9.781014	-0.017406	-0.299840	0.006298	-0.010347	-0.002608	171.826348	-88.362488	-87.509400
08410	9.748561	-0.043811	-0.275618	0.007909	-0.006614	-0.000871	171.823470	-88.363135	-87.506809
08411	9.764752	-0.030438	-0.288912	0.010926	-0.009203	-0.001652	171.820416	-88.362155	-87.502186
08412	9.764730	-0.030342	-0.289682	0.007909	-0.006613	-0.000871	171.817527	-88.362802	-87.499584
08413	9.780920	-0.016935	-0.302914	0.009051	-0.007767	-0.002343	171.795305	-88.362679	-87.476910
08414	9.764687	-0.030114	-0.291151	0.009784	-0.008048	-0.000180	171.811286	-88.362568	-87.492112
08415	9.764668	-0.030092	-0.291783	0.007374	-0.004962	-0.000783	171.810917	-88.364030	-87.492615
08416	9.776031	-0.024125	-0.271725	0.010726	-0.010570	-0.003905	171.760760	-88.362185	-87.441111
08417	9.751300	-0.068377	-0.304167	0.008978	-0.009913	-0.001049	171.770054	-88.360890	-87.450208
08418	9.754960	-0.044611	-0.227628	0.007908	-0.006611	-0.000872	171.767118	-88.361538	-87.447560
08419	9.780772	-0.016310	-0.307681	0.010318	-0.009696	-0.000270	171.793492	-88.360477	-87.472588
08420	9.748338	-0.042810	-0.283537	0.008977	-0.009911	-0.001049	171.797096	-88.359239	-87.475870
08421	9.764513	-0.029430	-0.296983	0.007102	-0.008477	-0.001740	171.787540	-88.358622	-87.467095
08422	9.759687	-0.036815	-0.264357	0.007908	-0.006610	-0.000873	171.784592	-88.359270	-87.464436
08423	9.748273	-0.042528	-0.285803	0.007908	-0.006609	-0.000873	171.787355	-88.359911	-87.467433
08424	9.775847	-0.023388	-0.278327	0.010924	-0.009197	-0.001656	171.778040	-88.359029	-87.456674
08425	9.764428	-0.028969	-0.299805	0.006638	-0.004678	-0.002949	171.736175	-88.360376	-87.415598
