// General information: 
//  MT Manager version: 2022.2.0 
//  XDA version: 2022.2.0 build 7381 rev 124627 built on 2023-07-19
// Device information: 
//  DeviceId: 00B4BB4E
//  ProductCode: MTW2-3A7G6
//  Firmware Version: 4.6.0
//  Hardware Version: 2.0.0
// Device settings: 
//  Filter Profile: human(46.1)
//  Option Flags: Orientation Smoother Disabled, Position/Velocity Smoother Disabled, Continuous Zero Rotation Update Disabled, AHS Disabled, ICC Disabled
// Coordinate system: ENU
PacketCounter	Acc_X	Acc_Y	Acc_Z	Gyr_X	Gyr_Y	Gyr_Z	Roll	Pitch	Yaw
63401	9.639925	1.685914	0.519534	0.082919	0.095165	-0.107713	71.383648	-78.864602	121.987625
63402	9.611596	1.717442	0.462477	0.054107	0.100329	-0.111864	71.245708	-78.789316	122.160061
63403	9.588595	1.727477	0.515450	0.055391	0.100429	-0.116013	71.112088	-78.711634	122.328882
63404	9.585999	1.739131	0.524462	0.051441	0.106892	-0.121319	70.967734	-78.629865	122.506657
63405	9.552190	1.722482	0.491763	0.046684	0.109990	-0.125704	70.816844	-78.544979	122.688104
63406	9.508140	1.803235	0.457199	0.037733	0.112856	-0.131029	70.662635	-78.456618	122.868177
63407	9.532316	1.867819	0.454541	0.048772	0.117938	-0.135211	70.505841	-78.364889	123.056985
63408	9.595960	1.988074	0.526598	0.035410	0.122761	-0.139323	70.337337	-78.269973	123.250324
63409	9.621950	2.126673	0.501808	-0.005424	0.130435	-0.138544	70.126032	-78.173794	123.463224
63410	9.579215	1.987229	0.465529	-0.034277	0.144321	-0.145058	69.874355	-78.071272	123.700727
63411	9.514013	1.872615	0.528395	-0.028626	0.152464	-0.151544	69.613643	-77.963369	123.950706
63412	9.505115	1.738733	0.536283	-0.028141	0.150331	-0.153666	69.366995	-77.854579	124.187031
63413	9.558612	1.735338	0.550958	-0.006152	0.158360	-0.155310	69.116980	-77.743009	124.439444
63414	9.543758	1.748232	0.533754	0.015982	0.165313	-0.158014	68.871584	-77.628420	124.700522
63415	9.569608	1.791300	0.537264	0.043595	0.169296	-0.158338	68.635424	-77.512513	124.968153
63416	9.587644	1.809476	0.562998	0.075715	0.168037	-0.154280	68.423255	-77.398905	125.230391
63417	9.577850	1.873653	0.576787	0.098401	0.179544	-0.163463	68.207938	-77.277662	125.509086
63418	9.578637	1.940774	0.624038	0.088555	0.190094	-0.167986	67.973162	-77.151614	125.802524
63419	9.625356	1.990125	0.694685	0.067129	0.198773	-0.171895	67.713223	-77.021242	126.108895
63420	9.567666	1.899794	0.629486	0.058126	0.221591	-0.179580	67.411075	-76.881576	126.453687
63421	9.493412	1.856009	0.531143	0.076957	0.225184	-0.188505	67.125016	-76.735898	126.793014
63422	9.487130	1.801485	0.575640	0.093918	0.237569	-0.197861	66.838708	-76.582250	127.142998
63423	9.546824	1.830794	0.629138	0.127037	0.238885	-0.202247	66.577953	-76.425487	127.486239
63424	9.571090	1.956006	0.723106	0.124667	0.244416	-0.201748	66.312146	-76.267489	127.833772
63425	9.417094	2.008465	0.807213	0.126215	0.254658	-0.220346	66.048291	-76.096857	128.180189
63426	9.423559	2.010483	0.916494	0.131681	0.246319	-0.214603	65.808629	-75.930964	128.505434
63427	9.551645	2.098164	0.871483	0.123462	0.248061	-0.225558	65.575847	-75.758469	128.818688
63428	9.595032	2.227951	0.922415	0.111389	0.249528	-0.226333	65.342128	-75.585064	129.126266
63429	9.540096	2.270010	0.975264	0.090514	0.253627	-0.232637	65.098959	-75.406925	129.431237
63430	9.522239	2.586579	0.974557	0.053239	0.247535	-0.227379	64.849898	-75.232827	129.720717
63431	9.309554	3.204589	0.663933	-0.129834	0.251005	-0.219377	64.487072	-75.061470	130.019353
63432	9.225201	3.856474	0.730815	-0.315321	0.179374	-0.224287	64.169134	-74.905054	130.162023
63433	9.726477	4.410148	1.717280	-0.359806	0.120218	-0.208682	63.926322	-74.771182	130.200233
63434	10.485583	4.656016	2.999702	-0.451941	0.119536	-0.106949	63.542176	-74.689798	130.330629
63435	10.353752	4.295966	2.042990	-0.926298	0.126825	0.006404	62.767386	-74.664031	130.583915
63436	10.438557	2.903333	0.968533	-1.049602	0.060476	0.098151	61.958762	-74.701579	130.799472
63437	10.497583	2.102309	1.586455	-0.842212	0.068991	0.189708	61.157230	-74.782087	131.130337
63438	10.096244	1.411399	1.504591	-0.788875	0.044900	0.259573	60.353841	-74.903079	131.495076
63439	10.430352	1.126235	1.339686	-0.603127	-0.005204	0.309141	59.685790	-75.061738	131.829194
63440	10.897692	1.201222	1.190240	-0.520665	0.013019	0.381863	58.941197	-75.249897	132.291493
63441	10.800721	1.877182	0.905283	-0.598227	0.022163	0.494938	57.986154	-75.488679	132.924524
63442	10.166492	2.956406	-0.045762	-1.011460	-0.100058	0.577332	56.898523	-75.802159	133.449578
63443	10.410022	3.756388	-0.451454	-1.386588	-0.184656	0.577289	55.718721	-76.139748	133.846995
63444	10.486049	4.431819	0.382682	-1.821651	-0.079461	0.570747	54.054885	-76.437227	134.485930
63445	10.038294	3.953974	0.831405	-2.484214	0.018235	0.675593	51.611311	-76.743013	135.534966
63446	9.453328	2.922451	-0.281142	-3.247344	-0.101203	0.868070	48.562430	-77.165386	136.755460
63447	9.973632	1.881701	-2.204086	-3.863649	-0.265709	1.073583	44.948084	-77.721264	138.190604
63448	10.611282	1.077844	-2.388941	-4.062936	-0.261704	1.249714	40.618240	-78.321265	140.237831
63449	10.408732	0.387229	-1.223981	-4.239414	-0.192015	1.395403	35.387739	-78.903577	143.095709
63450	9.697396	-0.646738	-0.932258	-4.578016	-0.182077	1.544812	29.128744	-79.467787	146.798027
63451	9.423966	-2.064458	-1.592645	-4.819801	-0.277054	1.687725	21.904401	-80.030698	151.333244
63452	9.370059	-3.019860	-2.462532	-4.866423	-0.362622	1.813513	13.689475	-80.549503	156.839124
63453	9.183241	-3.693897	-3.050445	-4.726103	-0.404061	1.892870	4.609117	-80.952974	163.295481
63454	8.960243	-3.877285	-2.607884	-4.310701	-0.437806	1.940077	-4.971300	-81.202824	170.493168
63455	8.879682	-3.718432	-2.344422	-4.038356	-0.452379	1.970629	-14.816405	-81.264969	178.113363
63456	8.683461	-3.696710	-2.161843	-3.756786	-0.447915	1.974093	-24.434154	-81.127433	-174.332600
63457	8.188044	-3.800867	-1.442270	-3.430449	-0.436378	1.974855	-33.414300	-80.797824	-167.229881
63458	7.571612	-4.274887	-0.736912	-3.223841	-0.474304	1.966141	-41.658606	-80.325958	-160.745350
63459	7.280377	-5.081840	-0.481350	-3.012664	-0.553340	1.916038	-49.086230	-79.765075	-154.956759
63460	7.228087	-6.150751	-0.063740	-2.579066	-0.603563	1.836289	-55.511905	-79.142200	-149.924352
63461	7.369730	-6.696210	0.548519	-2.064423	-0.682843	1.740962	-61.047921	-78.496592	-145.486908
63462	7.546073	-6.952678	0.746142	-1.662701	-0.746519	1.664757	-65.878150	-77.831792	-141.525888
63463	7.666745	-6.837377	1.146150	-1.178939	-0.795850	1.589103	-70.012259	-77.156020	-137.983109
63464	7.785641	-6.136070	1.445043	-0.809604	-0.800727	1.495083	-73.496417	-76.483061	-134.882055
63465	7.964680	-5.414795	1.560537	-0.507433	-0.808294	1.388645	-76.448459	-75.831427	-132.140997
63466	8.324005	-4.479400	1.637864	-0.323483	-0.788246	1.279057	-78.958627	-75.208188	-129.740944
63467	8.623246	-4.001579	1.659384	-0.212581	-0.749369	1.175074	-81.088597	-74.616101	-127.660893
63468	8.868200	-3.674417	1.877218	-0.087538	-0.712193	1.082932	-82.897675	-74.054908	-125.835193
63469	8.893477	-3.546971	1.927737	-0.047737	-0.666864	0.996187	-84.453327	-73.526248	-124.243418
63470	8.781219	-3.465086	1.839097	-0.081158	-0.628669	0.894681	-85.847465	-73.042165	-122.837371
63471	8.680718	-3.475152	1.898389	-0.079774	-0.603730	0.766567	-87.102878	-72.621547	-121.571032
63472	8.764215	-3.308079	2.265991	-0.047788	-0.570519	0.638665	-88.216893	-72.265403	-120.432328
63473	8.879296	-3.072764	2.076648	-0.120930	-0.548282	0.524914	-89.283947	-71.968021	-119.383679
63474	8.942674	-2.764864	1.919499	-0.120840	-0.544032	0.416225	-90.312621	-71.726689	-118.374948
63475	9.060170	-2.454884	1.896638	-0.140055	-0.517934	0.307947	-91.282847	-71.542542	-117.436975
63476	9.088657	-2.336891	2.021251	-0.162712	-0.479146	0.186243	-92.191162	-71.423561	-116.578262
63477	9.054885	-2.537097	1.966513	-0.202334	-0.434056	0.042249	-93.045379	-71.384394	-115.799073
63478	8.893256	-2.701887	1.768390	-0.230424	-0.399050	-0.109736	-93.871947	-71.429336	-115.067059
63479	8.782457	-2.821388	1.591791	-0.202314	-0.392520	-0.284019	-94.697372	-71.571156	-114.318658
63480	8.679755	-2.693192	1.696915	-0.133930	-0.396329	-0.470851	-95.534842	-71.815556	-113.518072
63481	8.649212	-2.416182	1.666572	-0.160610	-0.406622	-0.651668	-96.462076	-72.158867	-112.639588
63482	8.742582	-2.350119	1.477003	-0.135478	-0.412708	-0.839699	-97.466452	-72.603686	-111.667845
63483	9.191091	-2.711761	1.437271	-0.013564	-0.425273	-1.020957	-98.523787	-73.145382	-110.569371
63484	9.419856	-1.611547	0.839874	0.104147	-0.481248	-1.171059	-99.742408	-73.759999	-109.236404
63485	10.473825	-1.496546	-1.090697	-0.138829	-0.495871	-1.303087	-101.282816	-74.438554	-107.717224
63486	10.978405	-1.927909	1.200637	0.840728	-0.300412	-1.473701	-102.056152	-75.226580	-106.417376
63487	11.165190	-1.247418	2.818616	0.936610	-0.134958	-1.558887	-102.561142	-76.079009	-105.342008
63488	11.504338	-2.122401	1.411302	0.715415	-0.130280	-1.391001	-103.193656	-76.835257	-104.270123
63489	11.248024	-2.629652	-0.304669	0.731723	-0.125744	-1.144076	-103.752311	-77.452185	-103.266862
63490	11.235341	-1.788142	0.909231	1.262127	-0.141204	-0.963389	-103.999906	-77.964582	-102.273628
63491	10.792730	0.613414	2.839517	1.372172	-0.028269	-0.892033	-103.880600	-78.452949	-101.592138
63492	10.039978	2.453321	3.584967	0.990059	-0.018940	-0.850340	-103.954268	-78.919231	-100.938655
63493	9.543761	3.415142	2.785141	0.247872	-0.123768	-0.859554	-104.810409	-79.374905	-99.922097
63494	9.684539	3.300422	1.269021	-0.501251	-0.241276	-0.853152	-106.542788	-79.804371	-98.452622
63495	9.911504	2.043132	-0.399393	-1.082774	-0.311450	-0.767094	-108.883680	-80.164995	-96.705281
63496	10.036169	0.269139	-1.486779	-1.307903	-0.325292	-0.658135	-111.418477	-80.451101	-94.893721
63497	10.042938	-1.109716	-2.153173	-1.217841	-0.284331	-0.577203	-113.786030	-80.690028	-93.200854
63498	10.096889	-2.128109	-2.299334	-0.964047	-0.177165	-0.584197	-115.775406	-80.947703	-91.744889
63499	10.012064	-2.851732	-2.355159	-0.580387	-0.100747	-0.648900	-117.498819	-81.250399	-90.336844
63500	9.775921	-2.758327	-1.842647	-0.089479	-0.068347	-0.692346	-119.019899	-81.577556	-88.850152
63501	9.687078	-2.195377	-1.391389	0.206280	-0.082004	-0.700621	-120.551333	-81.898895	-87.183014
63502	9.797600	-1.734484	-0.968213	0.423047	-0.080484	-0.663984	-122.000834	-82.196373	-85.474539
63503	9.709661	-1.177114	-0.443764	0.496670	-0.094927	-0.613540	-123.460533	-82.459002	-83.714296
63504	9.796743	-0.588019	-0.103716	0.469865	-0.120160	-0.565086	-125.019154	-82.684212	-81.870841
63505	9.708561	0.171399	0.075435	0.343368	-0.129719	-0.544360	-126.734246	-82.889746	-79.943546
63506	9.640259	0.729526	0.091842	0.132572	-0.153852	-0.547170	-128.776549	-83.080022	-77.809112
63507	9.737749	0.807603	0.013838	-0.081179	-0.153601	-0.553651	-131.076085	-83.263262	-75.539777
63508	9.723277	0.306926	-0.420761	-0.252881	-0.169576	-0.526321	-133.564379	-83.417350	-73.180181
63509	9.795111	-0.218819	-0.774513	-0.274308	-0.169619	-0.487404	-136.032892	-83.543603	-70.853574
63510	9.708476	-0.757518	-0.829643	-0.197852	-0.143296	-0.469481	-138.390829	-83.662741	-68.594627
63511	9.629949	-0.945187	-1.046801	-0.071593	-0.172596	-0.450486	-140.778292	-83.751495	-66.233742
63512	9.693798	-0.664606	-1.058908	0.012295	-0.173077	-0.438513	-143.134093	-83.825025	-63.856640
63513	9.651521	-0.156751	-1.047573	0.048136	-0.171119	-0.415235	-145.411603	-83.881218	-61.538002
63514	9.462792	-0.143541	-0.939232	0.040738	-0.160074	-0.396160	-147.615501	-83.926896	-59.297793
63515	9.454166	-0.121192	-0.776931	0.058489	-0.152732	-0.377198	-149.728608	-83.961544	-57.138908
63516	9.488684	-0.037988	-0.742888	-0.012638	-0.163374	-0.369504	-151.896630	-83.980164	-54.965790
63517	9.617731	0.327074	-0.849679	-0.019885	-0.183613	-0.364437	-154.100278	-83.978442	-52.761157
63518	9.752122	0.411692	-0.965210	-0.080562	-0.169190	-0.360601	-156.285937	-83.974418	-50.609437
63519	9.700854	0.149647	-0.992909	-0.132285	-0.161934	-0.353275	-158.441571	-83.964103	-48.517802
63520	9.715148	0.210992	-0.888779	-0.128619	-0.180559	-0.340457	-160.555732	-83.933000	-46.465536
63521	9.665167	0.261266	-1.069924	-0.112796	-0.155372	-0.335569	-162.569056	-83.906981	-44.505596
63522	9.747594	0.105607	-1.031414	-0.067130	-0.171000	-0.334961	-164.558801	-83.864986	-42.542769
63523	9.863345	0.027090	-0.861732	-0.069778	-0.160194	-0.324587	-166.451635	-83.820503	-40.678944
63524	9.761371	0.026876	-0.970531	-0.097870	-0.165614	-0.290510	-168.165186	-83.762368	-39.011295
63525	9.759335	-0.399632	-1.289859	-0.170749	-0.188204	-0.273534	-169.819180	-83.684468	-37.445528
63526	10.128086	-0.800873	-1.422425	-0.099837	-0.179819	-0.267764	-171.359390	-83.605945	-35.952957
63527	10.103141	-1.212029	-1.520095	-0.072521	-0.154902	-0.269772	-172.838138	-83.537488	-34.506447
63528	9.986376	-1.098871	-1.609831	0.076822	-0.130447	-0.286396	-174.273090	-83.479816	-33.017578
63529	9.904298	-0.523318	-1.847477	0.183260	-0.134026	-0.285440	-175.615259	-83.416110	-31.560674
63530	9.876108	-0.159629	-1.840238	0.219528	-0.116603	-0.282123	-176.890265	-83.358314	-30.150183
63531	9.827465	0.252906	-1.771491	0.228450	-0.097844	-0.279251	-178.117579	-83.307806	-28.782509
63532	9.767116	0.742749	-1.837338	0.216274	-0.071891	-0.266012	-179.268070	-83.268525	-27.498995
63533	9.692244	1.006525	-1.537099	0.201731	-0.049062	-0.252980	179.651669	-83.239575	-26.294591
63534	9.719999	1.014970	-1.416080	0.163905	-0.040907	-0.225652	178.688395	-83.212792	-25.229644
63535	9.794747	0.924400	-1.659388	0.137717	-0.005451	-0.187877	177.895030	-83.205256	-24.350987
63536	9.759343	0.889067	-1.708401	0.138503	0.007550	-0.164985	177.208558	-83.204144	-23.579386
63537	9.807298	0.943324	-1.411719	0.088229	0.024970	-0.140611	176.607861	-83.212968	-22.923312
63538	9.789402	0.610359	-1.445990	0.032297	0.010004	-0.117331	176.087903	-83.213062	-22.380675
63539	9.730728	0.405635	-1.275952	0.030872	0.021253	-0.102226	175.638034	-83.219932	-21.909598
63540	9.744348	0.191969	-1.273193	0.046270	0.019815	-0.079115	175.305135	-83.226368	-21.547275
63541	9.750957	0.212115	-1.290207	0.047261	0.025208	-0.064549	175.042580	-83.236642	-21.255386
63542	9.728997	0.394696	-1.510840	0.078460	0.025745	-0.059725	174.817444	-83.247035	-20.983020
63543	9.752145	0.599369	-1.450058	0.043671	0.033995	-0.044770	174.642655	-83.263096	-20.781594
63544	9.665889	0.527111	-1.529791	0.020690	0.050962	-0.039405	174.469028	-83.288752	-20.594437
63545	9.643890	0.470259	-1.481460	0.015376	0.070332	-0.037015	174.295940	-83.325824	-20.411068
63546	9.622751	0.370484	-1.337701	-0.009126	0.068182	-0.022083	174.178111	-83.362154	-20.297306
63547	9.630725	0.343846	-1.255730	-0.019687	0.066874	-0.014505	174.093830	-83.398480	-20.223592
63548	9.797635	0.220388	-1.407125	-0.015293	0.062144	-0.001776	174.073660	-83.432524	-20.211708
63549	9.643124	0.244540	-1.155644	-0.034027	0.073680	-0.002362	174.036672	-83.473438	-20.193878
63550	9.615032	0.055320	-1.139237	-0.049234	0.065408	0.000060	174.004012	-83.509443	-20.188997
63551	9.652507	0.033930	-1.073735	-0.028219	0.057015	0.007719	174.029301	-83.541460	-20.230497
63552	9.639542	0.096868	-1.027152	-0.023961	0.051602	0.015609	174.097025	-83.570519	-20.312070
63553	9.576186	0.244535	-0.999789	-0.036848	0.036798	0.019552	174.188814	-83.591695	-20.425461
63554	9.536163	0.360822	-1.018754	-0.051259	0.033247	0.028221	174.315811	-83.610985	-20.582407
63555	9.509613	0.461346	-0.981417	-0.082408	0.032681	0.040564	174.492298	-83.630929	-20.807281
63556	9.530385	0.383772	-1.087016	-0.112605	0.037515	0.050218	174.696616	-83.653737	-21.077369
63557	9.707778	0.221615	-1.198162	-0.100194	0.059278	0.056651	174.936359	-83.689510	-21.376118
63558	9.715572	0.096851	-1.119910	-0.086035	0.071138	0.057675	175.184003	-83.731630	-21.674439
63559	9.763387	-0.170526	-1.068533	-0.107598	0.065842	0.056852	175.424329	-83.770880	-21.977997
63560	9.770899	-0.343680	-1.089362	-0.104494	0.053675	0.057736	175.675851	-83.802746	-22.290819
63561	9.844961	-0.511869	-1.210208	-0.116090	0.056032	0.044507	175.856262	-83.835600	-22.538966
63562	9.802202	-0.640343	-1.155554	-0.123603	0.061983	0.029510	175.949276	-83.870848	-22.703356
63563	9.740231	-0.746529	-1.281453	-0.121852	0.061796	0.019287	175.993509	-83.905885	-22.817834
63564	9.594375	-0.855178	-1.187376	-0.042216	0.063900	0.002876	175.992145	-83.941131	-22.840425
63565	9.541112	-0.783866	-1.021722	0.039301	0.067084	-0.007158	175.985321	-83.978127	-22.810697
63566	9.628685	-0.439896	-1.108934	0.120474	0.068215	-0.010979	176.000850	-84.015283	-22.756574
63567	9.742217	0.213717	-1.116787	0.140451	0.073739	-0.013635	176.013743	-84.055825	-22.688404
63568	9.895791	0.724986	-1.153029	0.063624	0.067846	-0.007498	176.015518	-84.092906	-22.653216
63569	9.895323	1.047499	-1.037223	-0.048285	0.058565	-0.006739	175.963395	-84.125049	-22.628406
63570	9.952680	0.948983	-1.430250	-0.199357	0.061617	0.001543	175.865962	-84.158927	-22.644936
63571	9.984945	0.729503	-1.542691	-0.253490	0.085810	-0.007103	175.681427	-84.206613	-22.605214
63572	9.970552	0.459752	-1.265277	-0.264417	0.110817	-0.002158	175.502369	-84.268422	-22.577152
63573	9.873848	0.155489	-1.359881	-0.316823	0.124397	-0.003794	175.278642	-84.338269	-22.534519
63574	9.824251	0.043056	-1.231664	-0.327626	0.119793	-0.010090	175.007312	-84.404782	-22.450135
63575	9.674493	-0.537042	-0.824830	-0.276578	0.125207	-0.015797	174.728266	-84.474434	-22.328764
63576	9.825983	-1.087880	-0.828474	-0.185711	0.133313	-0.019151	174.468270	-84.548088	-22.174113
63577	9.882460	-1.008152	-1.539150	-0.079966	0.129529	-0.013217	174.305435	-84.620248	-22.056348
63578	9.598634	-0.308312	-1.194479	0.076771	0.142329	-0.021742	174.165706	-84.698793	-21.871519
63579	9.584821	0.046299	-0.756113	0.158960	0.130986	-0.029347	174.031771	-84.770776	-21.645331
63580	9.640742	0.184112	-0.843316	0.169970	0.125189	-0.019551	173.961801	-84.839609	-21.476983
63581	9.876821	0.727500	-0.841726	0.166639	0.126122	-0.001110	174.007115	-84.910476	-21.426395
63582	9.857782	1.403831	-0.451249	0.104032	0.131867	0.016118	174.120811	-84.985244	-21.480381
63583	9.647409	1.755872	-0.251015	-0.044467	0.109405	0.039190	174.321639	-85.048923	-21.707323
63584	9.670454	1.886675	-0.447844	-0.177032	0.099824	0.073308	174.680837	-85.108532	-22.169283
63585	9.650685	2.110232	-0.361466	-0.379139	0.093804	0.106658	175.166615	-85.166483	-22.874608
63586	9.611231	2.044535	-0.499848	-0.539158	0.070963	0.138391	175.797153	-85.211870	-23.816937
63587	9.748157	1.991102	-0.269261	-0.672101	0.005564	0.177174	176.663788	-85.220649	-25.072809
63588	10.434214	1.361646	-0.989937	-0.785920	0.032511	0.204885	177.645191	-85.243616	-26.508967
63589	10.351158	0.469436	-0.957580	-0.769086	0.116734	0.208799	178.670143	-85.313118	-27.979340
63590	9.819954	-0.353240	-0.595778	-0.796448	0.117372	0.214016	179.745604	-85.380489	-29.515657
63591	9.513157	-0.718943	-0.803737	-0.762360	0.109193	0.213532	-179.118122	-85.441054	-31.093568
63592	9.575879	-0.250315	-0.902034	-0.680308	0.104324	0.210033	-177.933384	-85.496038	-32.672507
63593	9.822294	0.313420	-0.803419	-0.724528	0.097302	0.210046	-176.735947	-85.544658	-34.289786
63594	10.043399	0.525373	-0.568615	-0.777524	0.123441	0.196962	-175.628302	-85.605927	-35.847040
63595	10.011840	0.268671	-0.504070	-0.895754	0.160538	0.180699	-174.638449	-85.687189	-37.354248
63596	9.828881	-0.499855	-0.380090	-1.024331	0.192657	0.163657	-173.787353	-85.785698	-38.795692
63597	9.802059	-1.465668	-0.204092	-0.979780	0.219281	0.143273	-172.980854	-85.899333	-40.166950
63598	10.005927	-1.279993	0.615347	-0.598773	0.302188	0.137198	-171.851094	-86.058672	-41.642890
63599	9.689558	-0.622670	0.235986	-1.247370	0.222042	0.110143	-171.322681	-86.173475	-42.888633
63600	10.096649	-0.471636	0.676623	-0.880326	0.310297	0.036154	-171.055406	-86.344065	-43.661421
63601	9.869134	1.003659	1.410434	-1.096795	0.321646	0.014790	-171.035804	-86.522938	-44.310475
63602	9.543438	0.634222	0.165929	-1.587446	0.311951	-0.000415	-171.443303	-86.697785	-44.812816
63603	9.134304	0.011118	-0.428711	-1.736086	0.315343	0.006895	-171.841029	-86.874152	-45.410512
63604	9.112854	-0.401412	-0.718802	-1.754644	0.282395	-0.010791	-172.495260	-87.033530	-45.761511
63605	9.144825	-1.002684	-1.344807	-1.735884	0.254625	-0.040383	-173.525843	-87.179410	-45.725248
63606	9.076701	-1.723451	-2.178651	-1.633025	0.221545	-0.068037	-174.943073	-87.307960	-45.242545
63607	9.074193	-2.506633	-2.947507	-1.424624	0.171429	-0.096546	-176.725079	-87.408373	-44.275539
63608	9.094746	-3.272250	-3.679505	-1.028254	0.111723	-0.120544	-178.733789	-87.473508	-42.854105
63609	8.975423	-3.745352	-4.126584	-0.491968	0.051170	-0.136785	179.282703	-87.501873	-41.150616
63610	9.170219	-4.142986	-4.305159	0.122053	0.019215	-0.171116	177.171314	-87.508348	-38.966972
63611	9.757809	-3.751184	-3.245725	0.886946	0.038322	-0.208272	174.986113	-87.521030	-36.270831
63612	10.194120	-2.089281	-1.252740	1.545881	0.165267	-0.229876	172.643335	-87.599639	-33.039350
63613	9.735905	-0.435028	-0.004128	1.782476	0.193330	-0.205468	170.528547	-87.691246	-29.900408
63614	9.799537	1.162212	0.534754	1.674687	0.179506	-0.172508	168.659017	-87.773476	-27.069128
63615	9.871391	2.776278	0.763205	1.418922	0.184023	-0.152338	166.746419	-87.857403	-24.341345
63616	9.593851	3.654317	1.273516	1.058306	0.180458	-0.122387	164.912252	-87.939675	-21.899076
63617	9.522840	3.806408	1.443250	0.552351	0.114560	-0.079557	163.599694	-87.990191	-20.268794
63618	9.813146	3.100867	1.089403	0.031447	0.081626	-0.057293	162.426382	-88.024707	-19.076492
63619	9.902686	1.931218	0.456789	-0.324127	0.098784	-0.039632	161.201123	-88.071258	-18.036119
63620	9.783424	0.697040	-0.127121	-0.471878	0.115091	-0.030543	159.877341	-88.127148	-16.981769
63621	9.647434	-0.493618	-0.688656	-0.411628	0.089924	-0.027812	158.735022	-88.169748	-16.074600
63622	9.725461	-1.237386	-0.890222	-0.182449	0.066042	-0.025443	157.873031	-88.199195	-15.316413
63623	9.728092	-1.547301	-1.037182	0.081694	0.053136	-0.024854	157.248417	-88.222046	-14.644443
63624	9.733810	-1.321754	-0.931831	0.340403	0.054927	-0.023148	156.765844	-88.245592	-13.966223
63625	9.722364	-0.712249	-0.604628	0.505100	0.063935	-0.035940	156.077733	-88.271152	-12.988037
63626	9.672468	-0.067751	-0.305237	0.551895	0.071018	-0.042256	155.219885	-88.298082	-11.813209
63627	9.723601	0.294610	-0.228315	0.517842	0.070543	-0.055904	154.077835	-88.321235	-10.373609
63628	9.694334	0.548953	-0.048658	0.437862	0.065775	-0.064162	152.749023	-88.338468	-8.793008
63629	9.622813	0.616384	0.170961	0.309385	0.051941	-0.071965	151.316163	-88.345928	-7.181987
63630	9.629492	0.534838	0.121615	0.164460	0.040771	-0.076411	149.819481	-88.344926	-5.590149
63631	9.642563	0.453936	0.037778	0.066168	0.020996	-0.084637	148.339583	-88.331033	-4.071479
63632	9.732763	0.368441	-0.050534	-0.007572	0.008910	-0.086919	146.931262	-88.309040	-2.666609
63633	9.787835	0.282589	-0.233465	-0.057194	0.008736	-0.098210	145.358507	-88.282743	-1.125721
63634	9.805013	0.236496	-0.283570	-0.060974	-0.012514	-0.103284	143.986539	-88.243211	0.212218
63635	9.786166	0.237960	-0.341125	-0.067161	-0.018785	-0.100989	142.776407	-88.201129	1.384655
63636	9.677547	0.137373	-0.364163	-0.070634	-0.019697	-0.100716	141.631041	-88.157533	2.490401
63637	9.704753	0.124141	-0.414023	-0.056169	-0.021615	-0.094557	140.652089	-88.115112	3.437894
63638	9.736678	0.305923	-0.442243	-0.022664	-0.010266	-0.088058	139.692832	-88.079090	4.384974
63639	9.764750	0.567391	-0.311291	-0.004109	-0.007897	-0.081802	138.833373	-88.046408	5.242791
63640	9.759925	0.583693	-0.417293	-0.008233	0.006757	-0.075996	137.907930	-88.021284	6.164350
63641	9.722323	0.580744	-0.371015	-0.007090	0.004267	-0.073325	137.067083	-87.996138	7.001862
63642	9.745905	0.538558	-0.296916	-0.018646	-0.000568	-0.048504	136.585035	-87.977871	7.473817
63643	9.742225	0.510309	-0.332909	-0.013117	0.003994	-0.038490	136.180901	-87.965825	7.870906
63644	9.829679	0.500961	-0.264237	-0.009636	-0.001557	-0.021271	136.043095	-87.957749	8.003581
63645	9.773900	0.483745	-0.274183	-0.035856	0.010576	-0.015127	135.827516	-87.957613	8.198962
63646	9.754567	0.418889	-0.278108	-0.031228	0.000358	-0.009351	135.794461	-87.955050	8.214448
63647	9.805088	0.390161	-0.321938	-0.028268	-0.001521	-0.008533	135.794682	-87.952562	8.198243
63648	9.744104	0.330106	-0.228519	-0.033737	0.005298	-0.006360	135.739254	-87.953214	8.234680
63649	9.680815	0.188815	-0.259714	-0.043131	0.000834	0.003410	135.841973	-87.956465	8.107390
63650	9.639609	0.081180	-0.356808	-0.033330	0.000510	0.007143	135.996158	-87.960531	7.934315
63651	9.635105	0.095896	-0.304806	-0.000941	-0.003152	0.012822	136.277955	-87.965845	7.652023
63652	9.702166	0.162993	-0.274158	0.018633	-0.005161	0.012507	136.589825	-87.969622	7.350949
63653	9.696731	0.218844	-0.292163	0.012333	-0.003909	0.008518	136.839547	-87.972827	7.108363
63654	9.718036	0.194927	-0.306738	0.015385	-0.006042	0.004452	137.065806	-87.972988	6.891091
63655	9.721469	0.226940	-0.271028	0.012158	-0.005565	0.004174	137.283057	-87.973736	6.680896
63656	9.661266	0.223313	-0.229940	0.005857	-0.004312	0.000184	137.434189	-87.972914	6.533333
63657	9.670902	0.256412	-0.228395	-0.015514	-0.012375	-0.000616	137.652650	-87.968883	6.306062
63658	9.693894	0.249685	-0.225440	-0.025313	-0.012048	-0.004345	137.815059	-87.963002	6.129344
63659	9.677029	0.257577	-0.264800	-0.042947	-0.016976	0.000390	138.077399	-87.957343	5.842438
63660	9.739864	0.236200	-0.220308	-0.060061	-0.020454	-0.003725	138.314595	-87.948057	5.570962
63661	9.740059	0.131225	-0.259257	-0.068448	-0.021215	-0.005324	138.535323	-87.938324	5.311070
63662	9.740954	0.084052	-0.350008	-0.061029	-0.026317	-0.006453	138.796056	-87.925407	5.015483
63663	9.780748	0.070275	-0.310535	-0.051192	-0.027445	-0.009058	139.041429	-87.911497	4.740820
63664	9.755870	0.062105	-0.335644	-0.033773	-0.032023	-0.008459	139.345317	-87.895259	4.417662
63665	9.723070	0.036968	-0.345370	-0.016087	-0.035197	-0.008401	139.688631	-87.878111	4.065113
63666	9.730194	-0.002856	-0.313501	-0.002015	-0.040397	-0.010981	140.053738	-87.857138	3.698887
63667	9.730067	-0.001988	-0.317426	0.014505	-0.040278	-0.007256	140.465167	-87.838005	3.295707
63668	9.729935	-0.001135	-0.321448	0.017555	-0.042403	-0.011328	140.842481	-87.815839	2.928468
63669	9.720163	-0.032784	-0.327952	0.032847	-0.041682	-0.019492	141.121212	-87.791478	2.668588
63670	9.754745	-0.093787	-0.344017	0.035343	-0.029294	-0.029200	141.169068	-87.768625	2.641234
63671	9.717188	-0.107434	-0.458631	0.059106	-0.019392	-0.044018	140.972495	-87.745353	2.872071
63672	9.735910	-0.094271	-0.404347	0.072614	-0.020083	-0.056662	140.652947	-87.716663	3.233767
63673	9.668077	-0.109182	-0.348279	0.082120	-0.014499	-0.063547	140.221945	-87.688327	3.712427
63674	9.637217	-0.112926	-0.337944	0.083192	-0.018896	-0.070099	139.772390	-87.655016	4.210307
63675	9.591378	-0.034984	-0.399471	0.097248	-0.024629	-0.074117	139.353487	-87.618044	4.685555
63676	9.646392	0.097176	-0.354921	0.107411	-0.025147	-0.083587	138.862616	-87.576666	5.238691
63677	9.645732	0.268097	-0.372628	0.093876	-0.027185	-0.086467	138.370302	-87.533599	5.785511
63678	9.690931	0.425746	-0.383016	0.098202	-0.032059	-0.092732	137.881289	-87.485384	6.331539
63679	9.729802	0.583579	-0.359933	0.078403	-0.032335	-0.098137	137.351060	-87.435229	6.907478
63680	9.749583	0.675449	-0.341630	0.036748	-0.042200	-0.095410	136.928919	-87.381300	7.351366
63681	9.781399	0.653831	-0.287314	0.005967	-0.028342	-0.095039	136.391766	-87.333609	7.892736
63682	9.709644	0.667070	-0.319795	-0.011484	-0.023850	-0.095614	135.821699	-87.286808	8.457095
63683	9.673188	0.616665	-0.364298	-0.030675	-0.027252	-0.083179	135.392749	-87.243867	8.869161
63684	9.661651	0.575011	-0.386917	-0.054367	-0.028839	-0.076563	135.031947	-87.202307	9.199462
63685	9.635013	0.499004	-0.377832	-0.058391	-0.031772	-0.068877	134.764853	-87.163103	9.433604
63686	9.609344	0.553211	-0.454512	-0.052512	-0.035227	-0.062375	134.588680	-87.124593	9.580138
63687	9.657761	0.513859	-0.520181	-0.055087	-0.040059	-0.058891	134.480953	-87.086065	9.656622
63688	9.658913	0.535870	-0.505587	-0.059954	-0.038563	-0.052963	134.407700	-87.050025	9.695843
63689	9.665460	0.426910	-0.439866	-0.063829	-0.041214	-0.048709	134.386490	-87.015193	9.680683
63690	9.650967	0.349685	-0.500281	-0.066141	-0.044646	-0.045767	134.413610	-86.979648	9.615847
63691	9.664602	0.314281	-0.503006	-0.058951	-0.050286	-0.040053	134.529357	-86.944713	9.466336
63692	9.719721	0.338166	-0.497824	-0.044278	-0.051209	-0.035980	134.688474	-86.910503	9.281848
63693	9.802988	0.403956	-0.434390	-0.038854	-0.048522	-0.035219	134.831937	-86.878207	9.116103
63694	9.816706	0.367820	-0.437301	-0.053390	-0.046496	-0.036382	134.941145	-86.845689	8.976357
63695	9.769981	0.384893	-0.449313	-0.043484	-0.046990	-0.037586	135.047660	-86.813017	8.844948
63696	9.797825	0.430529	-0.395294	-0.041324	-0.043052	-0.030767	135.174627	-86.784137	8.694330
63697	9.738677	0.502904	-0.390245	-0.049843	-0.044190	-0.028881	135.315297	-86.756084	8.525055
63698	9.768988	0.515927	-0.406473	-0.065351	-0.046448	-0.020108	135.523578	-86.730056	8.279196
63699	9.889434	0.543728	-0.477355	-0.070493	-0.047732	-0.021391	135.724639	-86.703492	8.037571
63700	9.838710	0.452837	-0.492022	-0.070807	-0.039134	-0.016436	135.898433	-86.681834	7.823115
63701	9.725190	0.324480	-0.500105	-0.055139	-0.034423	-0.014554	136.059554	-86.663390	7.630299
63702	9.727278	0.294523	-0.573883	-0.042401	-0.037069	-0.011560	136.265375	-86.644442	7.400054
63703	9.766095	0.265467	-0.554247	-0.026184	-0.038757	-0.008857	136.508047	-86.626373	7.142157
63704	9.833818	0.352081	-0.509005	-0.001510	-0.030084	-0.009953	136.697374	-86.610861	6.951889
63705	9.750970	0.354716	-0.473262	0.002897	-0.033019	-0.007058	136.926761	-86.595782	6.723983
63706	9.730983	0.394471	-0.443546	0.001973	-0.029124	-0.010239	137.106278	-86.580480	6.545534
63707	9.727402	0.484674	-0.427029	-0.017851	-0.028709	-0.009211	137.276970	-86.566286	6.364511
63708	9.713052	0.525439	-0.431163	-0.031767	-0.032550	-0.008054	137.471407	-86.550319	6.151743
63709	9.730930	0.471408	-0.485246	-0.050335	-0.034863	-0.009248	137.659410	-86.533437	5.934727
63710	9.791369	0.419411	-0.479778	-0.063322	-0.032841	-0.005358	137.852647	-86.518296	5.705043
63711	9.795046	0.404976	-0.535069	-0.063502	-0.033700	-0.003371	138.062998	-86.504076	5.458071
63712	9.757023	0.377903	-0.509878	-0.051080	-0.028539	-0.001761	138.257917	-86.492044	5.233721
63713	9.695801	0.357185	-0.488135	-0.056354	-0.030138	0.000393	138.473131	-86.480675	4.985975
63714	9.733473	0.385711	-0.518601	-0.071856	-0.025549	-0.011641	138.566162	-86.466092	4.851771
63715	9.805444	0.410261	-0.613363	-0.050305	-0.025090	-0.009682	138.681227	-86.453009	4.707831
63716	9.785145	0.376318	-0.549806	-0.051231	-0.021187	-0.012851	138.749376	-86.439814	4.610390
63717	9.782890	0.287516	-0.537156	-0.053782	-0.016290	-0.009818	138.806621	-86.430448	4.522383
63718	9.739715	0.212730	-0.565733	-0.046199	-0.020222	-0.008145	138.903318	-86.419428	4.399221
63719	9.732309	0.196887	-0.551774	-0.024218	-0.018256	-0.015036	138.952425	-86.407234	4.336338
63720	9.748155	0.174751	-0.534173	-0.004169	-0.017249	-0.016642	138.996037	-86.394291	4.290484
63721	9.706818	0.237693	-0.487922	0.012711	-0.015252	-0.017043	139.033943	-86.382637	4.260022
63722	9.687464	0.305205	-0.578075	0.020359	-0.019406	-0.020250	139.079286	-86.367408	4.226507
63723	9.726789	0.350974	-0.589689	0.022162	-0.018764	-0.022110	139.108337	-86.352329	4.210344
63724	9.787375	0.421201	-0.526951	0.026003	-0.015303	-0.020044	139.133809	-86.338950	4.199975
63725	9.726241	0.401748	-0.503982	0.027924	-0.013572	-0.019011	139.156425	-86.327282	4.193568
63726	9.718854	0.386408	-0.489750	0.027563	-0.016070	-0.021368	139.178120	-86.313073	4.187879
63727	9.704414	0.428114	-0.492521	0.027321	-0.017478	-0.020832	139.210605	-86.299028	4.171236
63728	9.734713	0.440489	-0.506731	0.028509	-0.019971	-0.018195	139.276286	-86.284312	4.122011
63729	9.695239	0.472243	-0.531497	0.025645	-0.017029	-0.016076	139.336455	-86.272237	4.076662
63730	9.664594	0.463067	-0.521166	0.020010	-0.021135	-0.016272	139.415856	-86.257722	4.008807
63731	9.737880	0.429591	-0.565358	0.010650	-0.026842	-0.009316	139.567177	-86.243879	3.863500
63732	9.750309	0.448811	-0.617885	0.009162	-0.026304	-0.012861	139.690674	-86.228350	3.745222
63733	9.687431	0.412388	-0.614098	0.015804	-0.025551	-0.008048	139.843986	-86.215496	3.600874
63734	9.705094	0.405277	-0.579169	0.026990	-0.027413	-0.003789	140.041854	-86.202778	3.418292
63735	9.694235	0.429924	-0.635544	0.031229	-0.031207	0.001068	140.293260	-86.190714	3.184487
63736	9.726208	0.503725	-0.543902	0.038182	-0.029275	0.000470	140.533257	-86.178626	2.966103
63737	9.709950	0.452643	-0.533441	0.028125	-0.028895	0.010046	140.826869	-86.170708	2.688209
63738	9.716993	0.468955	-0.552229	0.031603	-0.028707	0.003427	141.076848	-86.159801	2.456039
63739	9.724031	0.485381	-0.570882	0.032032	-0.025659	0.007227	141.334234	-86.152146	2.216689
63740	9.731093	0.501383	-0.589377	0.030359	-0.025204	0.011984	141.619421	-86.145717	1.948514
63741	9.693413	0.472381	-0.563699	0.015331	-0.026030	0.012003	141.899127	-86.139434	1.677199
63742	9.714784	0.448281	-0.581079	0.016830	-0.026564	0.015550	142.205656	-86.133460	1.379859
63743	9.721852	0.390051	-0.566218	0.020327	-0.016074	0.009916	142.421000	-86.130785	1.175920
63744	9.752222	0.399784	-0.580181	0.009132	-0.014214	0.005667	142.591806	-86.126818	1.010189
63745	9.692972	0.346717	-0.627286	0.010687	-0.014982	0.004340	142.757884	-86.122616	0.850091
63746	9.718010	0.355709	-0.607011	0.020996	-0.012400	0.006855	142.933620	-86.119820	0.686229
63747	9.744896	0.380763	-0.568530	0.020693	-0.014355	0.005949	143.112448	-86.116394	0.519096
63748	9.701986	0.425443	-0.540342	0.021241	-0.010993	0.006316	143.277123	-86.113990	0.366457
63749	9.678677	0.431219	-0.545076	0.012431	-0.014107	0.007350	143.458903	-86.111089	0.191619
63750	9.689228	0.432362	-0.614715	0.002427	-0.014734	0.005745	143.627173	-86.106703	0.024573
63751	9.716146	0.457506	-0.576214	-0.003914	-0.012751	0.008167	143.797810	-86.104634	-0.148484
63752	9.739365	0.450327	-0.574169	-0.014467	-0.016739	0.006197	143.968733	-86.099402	-0.327894
63753	9.760722	0.427006	-0.590352	-0.017331	-0.013793	0.008315	144.137306	-86.096829	-0.506589
63754	9.746384	0.392132	-0.559862	-0.027514	-0.015276	0.008697	144.309799	-86.093039	-0.695066
63755	9.712195	0.348542	-0.585024	-0.025348	-0.012136	0.009180	144.471096	-86.091455	-0.871073
63756	9.676111	0.288947	-0.628474	-0.026020	-0.016593	0.005924	144.631327	-86.086055	-1.046404
63757	9.692184	0.338803	-0.643571	-0.024339	-0.016268	0.007486	144.801095	-86.081910	-1.230324
63758	9.692111	0.338263	-0.644957	-0.020620	-0.013897	0.006640	144.955592	-86.077939	-1.396813
63759	9.717185	0.347564	-0.624679	-0.022426	-0.015317	0.002190	145.084930	-86.072435	-1.539112
63760	9.713749	0.362477	-0.573567	-0.018517	-0.011305	0.005679	145.221108	-86.069312	-1.686035
63761	9.711783	0.346158	-0.593214	-0.021420	-0.019447	0.000493	145.358256	-86.061262	-1.835586
63762	9.742069	0.356914	-0.607526	-0.033036	-0.019845	-0.001217	145.478501	-86.051822	-1.974881
63763	9.745749	0.389415	-0.572681	-0.040743	-0.016234	0.000564	145.588850	-86.045270	-2.108670
63764	9.741847	0.357581	-0.610694	-0.046021	-0.018613	-0.003576	145.678718	-86.035613	-2.224977
63765	9.736499	0.357298	-0.578159	-0.049071	-0.017307	-0.005785	145.745086	-86.026474	-2.319465
63766	9.743504	0.301231	-0.563003	-0.051228	-0.020445	-0.006267	145.821216	-86.015061	-2.424994
63767	9.798427	0.275219	-0.644665	-0.054582	-0.021091	-0.009383	145.876585	-86.002956	-2.511625
63768	9.753685	0.231420	-0.602080	-0.048573	-0.014490	-0.006850	145.922098	-85.994168	-2.584944
63769	9.758765	0.233919	-0.637527	-0.038542	-0.014865	-0.016455	145.909652	-85.982739	-2.594381
63770	9.740536	0.243244	-0.676488	-0.024178	-0.017727	-0.013456	145.939017	-85.970296	-2.637507
63771	9.711921	0.250234	-0.647261	-0.013829	-0.015377	-0.015834	145.947108	-85.958823	-2.653339
63772	9.692312	0.290653	-0.615497	-0.007256	-0.015944	-0.018811	145.941981	-85.945509	-2.652173
63773	9.672133	0.284202	-0.672770	-0.007319	-0.016487	-0.020257	145.929173	-85.932090	-2.643314
63774	9.736499	0.339824	-0.662892	-0.005896	-0.018340	-0.024482	145.898078	-85.915818	-2.615337
63775	9.720072	0.365949	-0.683820	-0.002664	-0.018783	-0.024257	145.871956	-85.900024	-2.590456
63776	9.714721	0.367214	-0.651190	0.003444	-0.011859	-0.025155	145.813294	-85.886603	-2.529478
63777	9.748921	0.338381	-0.595922	0.003078	-0.014355	-0.027510	145.749840	-85.871856	-2.463868
63778	9.709447	0.297099	-0.587193	0.013249	-0.012861	-0.027911	145.684109	-85.857062	-2.390169
63779	9.675141	0.256923	-0.612539	0.008167	-0.013609	-0.027709	145.619875	-85.842592	-2.320851
63780	9.694170	0.295218	-0.679949	0.005645	-0.019246	-0.030548	145.562150	-85.823919	-2.259548
63781	9.733202	0.342180	-0.691930	0.009053	-0.018821	-0.032306	145.492865	-85.805486	-2.184654
63782	9.718570	0.385103	-0.694572	0.014314	-0.017207	-0.034489	145.407065	-85.786483	-2.090220
63783	9.691801	0.409672	-0.647015	0.018152	-0.013740	-0.032448	145.321025	-85.770383	-1.993295
63784	9.696668	0.413988	-0.682749	0.015873	-0.017971	-0.035820	145.232643	-85.750562	-1.895373
63785	9.732268	0.355021	-0.698572	0.021262	-0.015265	-0.035114	145.139751	-85.732850	-1.789784
63786	9.699845	0.331499	-0.705837	0.029519	-0.015494	-0.036540	145.045574	-85.713932	-1.678209
63787	9.724830	0.344371	-0.685783	0.029887	-0.012995	-0.034186	144.955145	-85.697565	-1.570130
63788	9.701295	0.353953	-0.690461	0.039762	-0.013439	-0.035501	144.866127	-85.679925	-1.457839
63789	9.708030	0.374366	-0.707829	0.041321	-0.014202	-0.036832	144.772687	-85.662094	-1.340167
63790	9.753835	0.438963	-0.735593	0.037795	-0.015721	-0.037958	144.679140	-85.642545	-1.224462
63791	9.727013	0.463919	-0.688231	0.039355	-0.016484	-0.039289	144.581261	-85.622804	-1.103461
63792	9.700216	0.488920	-0.640428	0.032640	-0.006719	-0.038200	144.446214	-85.607337	-0.949091
63793	9.687284	0.548339	-0.624029	0.020792	-0.008568	-0.039340	144.305129	-85.591225	-0.795418
63794	9.710344	0.545756	-0.621771	0.002240	-0.010964	-0.040383	144.160026	-85.572992	-0.648423
63795	9.726508	0.525889	-0.603590	-0.017615	-0.010415	-0.034316	144.037186	-85.557654	-0.535114
63796	9.752819	0.508144	-0.653343	-0.014951	-0.004681	-0.039786	143.860717	-85.542474	-0.366529
63797	9.740185	0.446417	-0.692342	-0.011121	-0.001201	-0.037754	143.683133	-85.530181	-0.194573
63798	9.758315	0.442345	-0.655169	0.003219	-0.003766	-0.029907	143.573395	-85.518705	-0.082473
63799	9.711485	0.457684	-0.661746	0.010871	0.003196	-0.025844	143.460765	-85.512435	0.036973
63800	9.678435	0.507154	-0.699869	0.007405	0.002216	-0.025525	143.354050	-85.505173	0.148447
63801	9.707148	0.551501	-0.641843	0.000361	-0.000061	-0.021463	143.275802	-85.498874	0.227367
63802	9.727662	0.605360	-0.689120	-0.004711	0.009248	-0.025136	143.134374	-85.494936	0.366702
63803	9.670362	0.570686	-0.715519	0.006037	0.004618	-0.019859	143.048743	-85.491308	0.456291
63804	9.717009	0.559559	-0.708758	0.006971	0.000955	-0.011819	143.027846	-85.488122	0.481439
63805	9.728391	0.536012	-0.655429	0.006800	0.000093	-0.009836	143.020710	-85.485868	0.492727
63806	9.714623	0.502519	-0.623490	0.002241	0.002689	-0.009263	143.004372	-85.484350	0.510585
63807	9.684374	0.492390	-0.610639	-0.017976	0.000706	-0.005547	143.005232	-85.483856	0.499613
63808	9.689413	0.493917	-0.644688	-0.019935	-0.000805	-0.001693	143.035275	-85.483348	0.458200
63809	9.690849	0.463158	-0.715118	-0.024383	0.002106	-0.004545	143.032166	-85.483839	0.447529
63810	9.701314	0.513182	-0.694227	-0.029404	0.001883	-0.002893	143.038117	-85.484145	0.424840
63811	9.719600	0.506423	-0.656612	-0.038075	-0.000961	-0.005256	143.036418	-85.482987	0.404884
63812	9.731496	0.525650	-0.706246	-0.047077	0.004547	-0.007530	142.993749	-85.482910	0.420810
63813	9.766316	0.495934	-0.648567	-0.043831	0.014199	-0.011180	142.888195	-85.486640	0.501724
63814	9.722412	0.451727	-0.602749	-0.032681	0.011842	-0.008426	142.816572	-85.489578	0.554968
63815	9.720640	0.436503	-0.620046	-0.027141	0.005352	-0.005836	142.790144	-85.491107	0.566102
63816	9.697270	0.443556	-0.622892	-0.036211	0.000234	-0.005684	142.783299	-85.489696	0.552339
63817	9.707720	0.493462	-0.601636	-0.051777	0.007041	0.001346	142.776888	-85.494484	0.529234
63818	9.632591	0.511746	-0.576295	-0.046529	0.007911	-0.007153	142.721847	-85.496067	0.557886
63819	9.661009	0.507544	-0.606677	-0.063218	-0.003404	-0.004763	142.719490	-85.493974	0.524139
63820	9.732548	0.458632	-0.667771	-0.078449	-0.005717	-0.004141	142.723520	-85.490388	0.475193
63821	9.827720	0.450581	-0.636734	-0.066845	-0.006015	-0.008775	142.707344	-85.485713	0.453224
63822	9.783758	0.406329	-0.592137	-0.054474	0.009307	-0.011103	142.618800	-85.486556	0.510918
63823	9.679902	0.383404	-0.624831	-0.047886	0.009539	-0.007773	142.550784	-85.489313	0.551847
63824	9.652964	0.358911	-0.664253	-0.049804	-0.003044	-0.011263	142.518534	-85.484478	0.555755
63825	9.744583	0.319173	-0.669874	-0.045014	-0.004223	-0.012379	142.486415	-85.479367	0.562325
63826	9.753134	0.353799	-0.667734	-0.027417	-0.007435	-0.009199	142.498365	-85.473259	0.534758
63827	9.785033	0.381922	-0.662647	-0.017786	-0.009252	-0.009991	142.517695	-85.466695	0.505368
63828	9.856826	0.379885	-0.635456	-0.017837	-0.009042	-0.005121	142.565523	-85.461279	0.447313
63829	9.764371	0.331388	-0.616597	-0.028095	-0.000827	-0.005120	142.569761	-85.460241	0.427136
63830	9.781302	0.352177	-0.700724	-0.023540	-0.003417	-0.005707	142.586265	-85.457184	0.397223
63831	9.731670	0.423791	-0.757774	-0.021633	-0.001678	-0.004684	142.600402	-85.455911	0.370830
63832	9.771293	0.347864	-0.824744	-0.022665	0.002437	-0.002964	142.607555	-85.456471	0.350798
63833	9.742904	0.353410	-0.793033	-0.021047	0.012318	-0.006688	142.549213	-85.460869	0.397449
63834	9.737661	0.306409	-0.846964	-0.004558	0.011937	-0.009558	142.487420	-85.463449	0.456980
63835	9.650455	0.259726	-0.860210	0.023757	0.023526	-0.015116	142.356854	-85.469981	0.601833
63836	9.630115	0.209003	-0.810568	0.069259	0.028879	-0.021299	142.195104	-85.476100	0.804052
63837	9.645991	0.354463	-0.643326	0.110213	0.015889	-0.025531	142.087775	-85.475459	0.975283
63838	9.691886	0.511672	-0.489446	0.087504	0.017774	-0.029948	141.936392	-85.473443	1.177583
63839	9.647890	0.676755	-0.593170	0.059938	0.020289	-0.034702	141.728591	-85.471464	1.420707
63840	9.601632	0.829327	-0.523444	0.023417	0.008663	-0.032586	141.566750	-85.464315	1.596670
63841	9.638426	0.860802	-0.551223	-0.027128	0.002294	-0.031090	141.411135	-85.455442	1.737405
63842	9.651309	0.808337	-0.568240	-0.076856	0.001234	-0.028302	141.250233	-85.446415	1.854807
63843	9.665922	0.725191	-0.656036	-0.098705	-0.001132	-0.026149	141.097871	-85.437727	1.951142
63844	9.688652	0.585036	-0.727552	-0.100127	0.000702	-0.021914	140.962500	-85.430705	2.029566
63845	9.733177	0.468968	-0.724859	-0.089327	0.006708	-0.019039	140.820415	-85.428034	2.120984
63846	9.732757	0.334550	-0.799138	-0.058298	0.015300	-0.018421	140.662763	-85.428718	2.245803
63847	9.692419	0.276483	-0.806245	-0.018914	0.013212	-0.025145	140.497853	-85.426665	2.400590
63848	9.735820	0.281116	-0.745562	0.018673	0.021305	-0.027509	140.306944	-85.426621	2.603008
63849	9.784449	0.240716	-0.808020	0.043297	0.020446	-0.028368	140.126985	-85.426493	2.808651
63850	9.775958	0.256522	-0.719220	0.084129	0.027386	-0.036816	139.894806	-85.425586	3.090086
63851	9.705701	0.324628	-0.637471	0.073767	0.024405	-0.035878	139.673034	-85.424288	3.355189
63852	9.688901	0.397921	-0.565530	0.074310	0.016928	-0.037971	139.478031	-85.418228	3.593683
63853	9.687693	0.429060	-0.685613	0.074332	0.016177	-0.044278	139.250077	-85.410063	3.865317
63854	9.752843	0.503513	-0.654289	0.097721	0.017289	-0.049177	139.007919	-85.399814	4.164578
63855	9.822588	0.536107	-0.553927	0.099874	0.020448	-0.048678	138.752991	-85.391651	4.477963
63856	9.777252	0.568558	-0.540673	0.056888	0.020404	-0.044582	138.499540	-85.384273	4.765091
63857	9.669929	0.562745	-0.520822	0.019975	0.015721	-0.050157	138.215345	-85.373295	5.061917
63858	9.678069	0.600948	-0.516908	0.003359	0.014961	-0.050212	137.929439	-85.361221	5.350847
63859	9.591925	0.553899	-0.722370	0.011218	0.021843	-0.059275	137.566570	-85.349072	5.721583
63860	9.601064	0.565921	-0.597314	0.019890	0.002488	-0.063246	137.285492	-85.326419	6.015186
63861	9.731382	0.485952	-0.597985	-0.007004	-0.000204	-0.059490	137.020613	-85.304614	6.277148
63862	9.739357	0.525202	-0.595428	0.003158	0.001393	-0.059878	136.757619	-85.282601	6.543006
63863	9.729064	0.571445	-0.630500	-0.009361	-0.004017	-0.053129	136.546295	-85.261522	6.749893
63864	9.726946	0.650478	-0.663707	0.002547	-0.011614	-0.046665	136.415119	-85.239163	6.883144
63865	9.729337	0.777001	-0.642226	0.006319	-0.007346	-0.038310	136.305285	-85.222478	6.997215
63866	9.710433	0.744872	-0.576998	-0.019548	-0.004103	-0.040113	136.160377	-85.205767	7.131553
63867	9.707126	0.716446	-0.613760	-0.026034	-0.002530	-0.034253	136.030834	-85.192638	7.246807
63868	9.681123	0.646852	-0.742520	-0.031770	0.003058	-0.034861	135.872372	-85.180907	7.387729
63869	9.689254	0.550092	-0.622471	-0.034183	-0.001302	-0.029949	135.754636	-85.169954	7.486451
63870	9.719191	0.564473	-0.634937	-0.044454	-0.003242	-0.026134	135.662270	-85.159078	7.553753
63871	9.737273	0.560212	-0.597607	-0.041142	-0.003860	-0.030772	135.549597	-85.146717	7.643396
63872	9.735615	0.547537	-0.615645	-0.056350	0.004345	-0.032579	135.384447	-85.136327	7.776906
63873	9.752992	0.481056	-0.685097	-0.056666	0.001849	-0.034931	135.217178	-85.124575	7.912420
63874	9.754879	0.410871	-0.652233	-0.069236	0.005199	-0.039775	135.007853	-85.111554	8.082859
63875	9.683746	0.369999	-0.768975	-0.061171	0.004948	-0.032903	134.834474	-85.101803	8.221918
63876	9.693191	0.423392	-0.747315	-0.034661	0.004692	-0.040459	134.646100	-85.088211	8.391213
63877	9.689325	0.441871	-0.694344	-0.000230	0.003859	-0.037729	134.491649	-85.075980	8.546325
63878	9.700139	0.510835	-0.654573	0.027960	0.005244	-0.035976	134.359257	-85.064369	8.695445
63879	9.699796	0.667302	-0.560330	0.041641	0.007681	-0.041536	134.194524	-85.052037	8.884963
63880	9.664953	0.764482	-0.508794	0.019968	0.006029	-0.041396	134.030391	-85.038440	9.061352
63881	9.699925	0.781171	-0.555021	-0.015607	0.000519	-0.035165	133.897766	-85.025798	9.185724
63882	9.736295	0.814026	-0.582838	-0.051696	0.000976	-0.039453	133.727021	-85.010917	9.327548
63883	9.695141	0.740773	-0.609207	-0.078193	0.001196	-0.031896	133.571583	-84.999839	9.438828
63884	9.693059	0.665832	-0.734947	-0.086023	-0.007034	-0.030599	133.460532	-84.985407	9.500996
63885	9.722405	0.574399	-0.752320	-0.056346	-0.006147	-0.025313	133.382980	-84.974138	9.546661
63886	9.737690	0.493941	-0.649044	-0.034454	-0.003059	-0.025981	133.304151	-84.963171	9.606144
63887	9.687822	0.476280	-0.692559	-0.024443	-0.001752	-0.022952	133.235129	-84.954602	9.661596
63888	9.683932	0.536941	-0.742942	-0.006184	-0.000554	-0.021342	133.181865	-84.946549	9.711673
63889	9.699707	0.562048	-0.634643	0.008750	-0.000037	-0.022843	133.124621	-84.938688	9.774396
63890	9.681636	0.633888	-0.564265	-0.002731	0.000465	-0.021648	133.067595	-84.930898	9.830235
63891	9.716696	0.649852	-0.610241	-0.012721	0.009051	-0.033351	132.909361	-84.922167	9.981997
63892	9.713772	0.621419	-0.646281	-0.011463	0.005825	-0.037044	132.755194	-84.909975	10.130340
63893	9.768198	0.540769	-0.641334	-0.006706	0.004160	-0.039598	132.597532	-84.896641	10.284993
63894	9.756318	0.525328	-0.590915	-0.009530	0.008120	-0.034570	132.445852	-84.886313	10.431955
63895	9.713048	0.526070	-0.649116	-0.005902	0.010020	-0.036848	132.274296	-84.876330	10.601026
63896	9.705179	0.602171	-0.646036	0.001872	0.007829	-0.030900	132.147525	-84.867384	10.729542
63897	9.677616	0.669340	-0.699213	0.020947	0.002997	-0.031922	132.046748	-84.856728	10.842998
63898	9.695812	0.770831	-0.656722	0.025801	0.003690	-0.023836	131.984178	-84.849161	10.920822
63899	9.704820	0.822491	-0.635365	0.020957	0.004274	-0.024170	131.910963	-84.842272	11.006614
63900	9.683837	0.862133	-0.601399	0.006422	0.007302	-0.017424	131.847726	-84.838798	11.073963
63901	9.675902	0.830276	-0.603466	-0.026941	0.004651	-0.015569	131.781969	-84.835707	11.124712
63902	9.729313	0.837915	-0.611679	-0.038158	0.007087	-0.013461	131.710994	-84.833822	11.174189
63903	9.662689	0.736049	-0.678034	-0.056317	0.006929	-0.012186	131.631994	-84.833035	11.221336
63904	9.716205	0.637196	-0.691014	-0.051377	0.007424	-0.008960	131.570802	-84.833188	11.253388
63905	9.673203	0.591300	-0.646189	-0.037707	0.011193	-0.006760	131.505053	-84.836339	11.297936
63906	9.681118	0.518951	-0.647470	-0.025487	0.006130	0.002022	131.511024	-84.840708	11.277445
63907	9.694171	0.554291	-0.678073	0.001053	0.006540	-0.004081	131.500787	-84.843239	11.288553
63908	9.686326	0.627113	-0.675306	0.013665	0.003769	0.002201	131.541296	-84.846793	11.255903
63909	9.687672	0.642654	-0.656581	0.016939	0.003919	0.003870	131.586169	-84.851737	11.220816
63910	9.704655	0.725077	-0.632223	0.015368	0.004650	0.005203	131.636317	-84.856907	11.179468
63911	9.695612	0.674944	-0.653135	0.011963	0.004160	0.006952	131.690412	-84.863257	11.132260
63912	9.686577	0.624666	-0.673982	0.015457	0.005725	0.008093	131.747968	-84.870063	11.083527
63913	9.698440	0.536407	-0.728433	0.028246	0.003832	0.012406	131.836462	-84.878608	11.011149
63914	9.665922	0.491135	-0.752769	0.064662	0.005222	0.012761	131.945027	-84.887200	10.939506
63915	9.686915	0.451023	-0.786383	0.108290	0.001256	0.023548	132.140176	-84.899469	10.806096
63916	9.685738	0.494018	-0.697653	0.152429	-0.000619	0.026984	132.389438	-84.911803	10.643681
63917	9.674224	0.640184	-0.536240	0.116429	0.001578	0.031882	132.625827	-84.927620	10.473555
63918	9.725475	0.823195	-0.573621	0.091456	-0.000826	0.028901	132.851659	-84.940566	10.299596
63919	9.793780	1.046319	-0.484825	0.076477	-0.003194	0.021202	133.042875	-84.949925	10.151845
63920	9.796369	0.863831	-0.456801	0.003259	0.013379	0.014771	133.089571	-84.962416	10.107002
63921	9.732328	0.684773	-0.490411	-0.027569	0.004825	0.010681	133.137244	-84.970477	10.043510
63922	9.690377	0.484439	-0.539048	-0.069599	0.009898	0.007732	133.127553	-84.978657	10.013372
63923	9.701990	0.334427	-0.699858	-0.073356	0.005085	-0.002064	133.091115	-84.981489	10.007981
63924	9.711200	0.384849	-0.678315	-0.035735	0.002131	-0.008267	133.066609	-84.979948	10.012189
63925	9.711190	0.385797	-0.677924	-0.005758	0.004274	-0.008350	133.044743	-84.979831	10.031050
63926	9.661715	0.472301	-0.716605	0.016647	0.000128	-0.006234	133.069020	-84.978367	10.016410
63927	9.717967	0.617031	-0.684503	0.042906	-0.000706	-0.006926	133.105099	-84.976899	10.005092
63928	9.682822	0.710198	-0.633633	0.043398	0.003955	0.001206	133.159739	-84.980045	9.975355
63929	9.692027	0.759681	-0.612463	0.035627	0.006133	-0.004753	133.168788	-84.982163	9.986986
63930	9.678916	0.725035	-0.580696	0.012112	0.003207	-0.004217	133.184846	-84.982743	9.977988
63931	9.753301	0.693384	-0.622416	-0.006711	0.009998	-0.002314	133.162123	-84.987396	9.997161
63932	9.750730	0.661844	-0.657739	-0.005472	0.017396	-0.008390	133.081738	-84.991785	10.074865
63933	9.693218	0.564931	-0.599217	-0.011162	0.012867	-0.005162	133.029888	-84.996365	10.120715
63934	9.711530	0.495603	-0.667985	-0.009589	0.012131	-0.006491	132.980607	-84.999480	10.164827
63935	9.671152	0.525384	-0.689498	0.009677	0.008170	-0.009453	132.943919	-85.000419	10.207445
63936	9.681620	0.591520	-0.649521	0.027591	0.007654	-0.003868	132.949153	-85.002887	10.218214
63937	9.716926	0.605091	-0.695493	0.034106	0.006123	-0.009715	132.935087	-85.002916	10.252172
63938	9.671263	0.632836	-0.683686	0.036719	0.003332	0.001301	132.989431	-85.005863	10.218893
63939	9.722135	0.669137	-0.621823	0.038338	0.003138	0.001417	133.041881	-85.009392	10.188517
63940	9.696006	0.705260	-0.554405	0.025006	0.002409	0.003008	133.101715	-85.012685	10.142990
63941	9.726089	0.716598	-0.566467	0.000795	0.005868	0.002732	133.125583	-85.017830	10.119712
63942	9.718206	0.576744	-0.572548	-0.011785	0.009165	-0.002136	133.108828	-85.021612	10.129910
63943	9.760117	0.607453	-0.633991	-0.007376	0.005755	-0.000727	133.113038	-85.025265	10.121664
63944	9.748310	0.589031	-0.583277	-0.018117	0.010271	-0.006013	133.069875	-85.027860	10.154727
63945	9.679330	0.560123	-0.681351	-0.012779	0.013057	-0.005289	133.015274	-85.032460	10.202407
63946	9.726340	0.549266	-0.673290	0.006980	0.012466	-0.007861	132.967530	-85.035136	10.254502
63947	9.704178	0.571710	-0.657271	0.003347	0.010571	-0.005583	132.932702	-85.038635	10.291608
63948	9.705486	0.588331	-0.637974	0.013227	0.010276	-0.006868	132.903555	-85.040869	10.328626
63949	9.714627	0.638444	-0.616124	0.013270	0.010819	-0.005424	132.873841	-85.044528	10.366306
63950	9.691166	0.644676	-0.618745	0.006095	0.006812	-0.005732	132.862444	-85.045886	10.381405
63951	9.719953	0.640844	-0.648728	0.006317	0.008226	-0.006264	132.837476	-85.048179	10.410323
63952	9.684630	0.628146	-0.601534	-0.008772	0.007360	-0.001378	132.834470	-85.051578	10.408450
63953	9.704079	0.637638	-0.544951	-0.025332	0.005716	-0.007773	132.796723	-85.052259	10.431992
63954	9.710633	0.655849	-0.560059	-0.042300	0.003088	-0.003913	132.783802	-85.052931	10.420791
63955	9.714669	0.641961	-0.611799	-0.050200	0.004929	-0.006463	132.741505	-85.053854	10.434598
63956	9.691165	0.648662	-0.614575	-0.050681	0.001560	-0.006842	132.718011	-85.052700	10.429190
63957	9.713367	0.627839	-0.628867	-0.051806	0.005124	-0.006574	132.673340	-85.053651	10.444457
63958	9.713365	0.628673	-0.628065	-0.038609	0.005528	-0.004738	132.646901	-85.054924	10.448948
63959	9.727796	0.574115	-0.644643	-0.042747	0.010893	-0.005228	132.585304	-85.058679	10.486414
63960	9.742234	0.519789	-0.661111	-0.038022	0.008690	-0.009213	132.523697	-85.059287	10.526542
63961	9.700609	0.533810	-0.700934	-0.022992	0.010314	-0.007792	132.464651	-85.061728	10.572809
63962	9.686269	0.483521	-0.686875	-0.004954	0.010136	-0.005610	132.431091	-85.064414	10.603798
63963	9.720091	0.543888	-0.642836	0.012090	0.013856	-0.006575	132.380130	-85.068732	10.662125
63964	9.679734	0.573560	-0.664209	0.011785	0.011361	-0.008933	132.335286	-85.070485	10.714065
63965	9.682225	0.606278	-0.626487	0.008153	0.009460	-0.006661	132.303144	-85.073063	10.751238
63966	9.713516	0.634728	-0.619568	0.004658	0.007893	-0.007807	132.276293	-85.073951	10.781018
63967	9.753899	0.606534	-0.596425	-0.005743	0.004270	-0.008356	132.254101	-85.073807	10.800213
63968	9.721404	0.563599	-0.619967	-0.002493	0.015058	-0.009058	132.182255	-85.076920	10.871042
63969	9.673253	0.559719	-0.644057	0.004742	0.008974	-0.004918	132.158217	-85.080043	10.898119
63970	9.691403	0.553277	-0.605591	0.011927	0.011697	-0.012347	132.096466	-85.080460	10.967110
63971	9.697964	0.571805	-0.620463	0.016111	0.006874	-0.010411	132.064744	-85.080437	11.008436
63972	9.733373	0.585962	-0.665952	0.028572	0.013135	-0.010802	132.012337	-85.082057	11.077618
63973	9.686423	0.598157	-0.671941	0.036212	0.009341	-0.009160	131.985477	-85.083508	11.125624
63974	9.682272	0.613367	-0.618823	0.037831	0.009148	-0.009043	131.965958	-85.084342	11.167119
63975	9.706943	0.624304	-0.596625	0.041977	0.003786	-0.008545	131.972632	-85.083924	11.184783
63976	9.691208	0.664022	-0.597247	0.037212	0.005448	-0.006007	131.984627	-85.084635	11.194291
63977	9.709302	0.657295	-0.559623	0.024972	0.000599	-0.006144	132.008039	-85.084018	11.185376
63978	9.685988	0.557229	-0.567306	0.025860	0.006255	-0.008267	131.999435	-85.084076	11.209036
63979	9.705273	0.566996	-0.511023	0.019092	0.004526	-0.011090	131.977998	-85.082859	11.241754
63980	9.696669	0.561774	-0.634814	0.020488	0.002920	-0.010441	131.973152	-85.080718	11.258550
63981	9.705554	0.612359	-0.613876	0.025038	-0.000155	-0.012444	131.972290	-85.077129	11.274037
63982	9.689753	0.652416	-0.614918	0.024938	0.000059	-0.007583	131.996907	-85.075112	11.263821
63983	9.693259	0.701226	-0.560218	0.016190	-0.003221	-0.006574	132.032224	-85.072847	11.237907
63984	9.729803	0.731054	-0.588483	-0.001556	-0.000566	-0.006420	132.049858	-85.071082	11.219465
63985	9.699708	0.719947	-0.576224	-0.011479	-0.000828	-0.006591	132.057403	-85.069727	11.205513
63986	9.685356	0.669753	-0.563048	-0.023058	-0.001441	-0.008322	132.058485	-85.066813	11.191317
63987	9.714181	0.665945	-0.593631	-0.029948	-0.001658	0.001462	132.095356	-85.068563	11.137309
63988	9.711793	0.634083	-0.630310	-0.034916	-0.002710	-0.003218	132.118551	-85.067329	11.094102
63989	9.732879	0.596752	-0.663573	-0.019922	-0.001609	-0.003227	132.140060	-85.067102	11.061279
63990	9.690898	0.566441	-0.601484	-0.023115	-0.000683	-0.002017	132.165395	-85.067154	11.022718
63991	9.717373	0.530508	-0.668618	-0.016024	0.002249	-0.004585	132.164098	-85.067832	11.015027
63992	9.700425	0.554226	-0.687512	0.007231	0.003263	-0.005985	132.169782	-85.067720	11.013634
63993	9.714352	0.562210	-0.597228	0.005654	0.003997	-0.004658	132.171979	-85.069038	11.014904
63994	9.722079	0.596198	-0.594218	0.002421	0.004381	-0.004892	132.174341	-85.069822	11.014074
63995	9.706304	0.635923	-0.594754	0.003777	0.002233	-0.005688	132.179558	-85.070025	11.011232
63996	9.698555	0.602953	-0.597154	-0.007760	0.002161	-0.005975	132.182188	-85.069496	11.004280
63997	9.715476	0.580471	-0.577625	-0.017459	0.003311	-0.006677	132.165522	-85.069694	11.011190
63998	9.696147	0.572311	-0.633370	-0.008280	-0.001751	-0.007801	132.178973	-85.066890	10.993084
63999	9.696114	0.572927	-0.633320	-0.002870	0.002128	-0.004181	132.187613	-85.067692	10.982983
64000	9.718408	0.551704	-0.648151	0.001679	-0.000944	-0.006186	132.210015	-85.065884	10.961617
64001	9.718372	0.552389	-0.648102	0.013839	0.002831	-0.008933	132.203591	-85.064940	10.976247
64002	9.691817	0.589286	-0.580728	0.019943	0.000320	-0.004518	132.237741	-85.064328	10.953589
64003	9.750706	0.597232	-0.623435	0.010725	0.004839	-0.004837	132.237931	-85.065896	10.959788
64004	9.728373	0.619691	-0.607940	0.009874	0.009060	-0.011406	132.192656	-85.065729	11.011059
64005	9.701799	0.657136	-0.539947	0.012848	0.006722	-0.012084	132.152495	-85.064943	11.058981
64006	9.699442	0.626086	-0.576035	-0.003721	0.006347	-0.010752	132.115690	-85.064006	11.093935
64007	9.735984	0.656607	-0.603213	-0.001481	0.009856	-0.013669	132.044869	-85.063743	11.164390
64008	9.734800	0.641949	-0.620568	-0.019705	0.009127	-0.013898	131.971241	-85.062527	11.227115
64009	9.663572	0.537927	-0.652873	-0.013458	0.006950	-0.012898	131.911346	-85.061465	11.279717
64010	9.719345	0.577647	-0.624400	-0.010743	0.002656	-0.014488	131.872294	-85.057512	11.312882
64011	9.695795	0.584709	-0.627412	-0.000343	0.006298	-0.013932	131.818643	-85.055751	11.366759
64012	9.695763	0.585847	-0.626845	0.011050	0.006048	-0.010223	131.794293	-85.054912	11.397699
64013	9.682178	0.658024	-0.590637	0.013843	0.002839	-0.008927	131.787973	-85.053964	11.412227
64014	9.665176	0.681916	-0.609577	0.007415	0.004142	-0.007954	131.781020	-85.053370	11.423615
64015	9.706743	0.669866	-0.568282	-0.009594	0.000929	-0.005565	131.785531	-85.053129	11.413793
64016	9.706710	0.670403	-0.568212	-0.028220	-0.002093	-0.003293	131.809381	-85.052140	11.373794
64017	9.710940	0.656481	-0.620454	-0.017494	0.002754	-0.008125	131.789070	-85.051503	11.384343
64018	9.720224	0.600742	-0.603361	-0.020286	0.005963	-0.009420	131.750742	-85.050974	11.411295
64019	9.683655	0.572302	-0.574755	-0.022083	0.005280	-0.007564	131.717807	-85.051539	11.431876
64020	9.717938	0.570500	-0.638856	-0.015655	0.003979	-0.008537	131.695784	-85.050629	11.445136
64021	9.694408	0.577054	-0.641986	-0.004378	0.002107	-0.009158	131.681656	-85.049302	11.457021
64022	9.718994	0.588152	-0.620044	0.001723	-0.000399	-0.004742	131.707980	-85.048350	11.431749
64023	9.704223	0.643923	-0.602515	0.003522	0.000285	-0.006597	131.718642	-85.047424	11.423295
64024	9.727711	0.638806	-0.598676	0.004515	0.007567	-0.004386	131.708827	-85.049663	11.435901
64025	9.709617	0.646546	-0.635559	-0.000447	0.006512	-0.009069	131.675585	-85.050052	11.469233
64026	9.696551	0.612360	-0.603628	-0.004119	0.004062	-0.008244	131.661186	-85.049304	11.481453
64027	9.726550	0.625142	-0.615311	-0.008748	0.006046	-0.009127	131.625236	-85.049489	11.512729
64028	9.679519	0.637226	-0.621878	-0.006175	0.001423	-0.007303	131.626844	-85.048140	11.507718
64029	9.725394	0.610581	-0.632934	-0.002428	0.004956	-0.005240	131.616986	-85.049574	11.516439
64030	9.726482	0.627108	-0.614379	-0.001728	-0.001434	-0.004447	131.647790	-85.048360	11.484710
64031	9.702952	0.633100	-0.617931	0.001762	0.000143	-0.003298	131.672659	-85.048793	11.460984
64032	9.705786	0.559274	-0.585445	0.002641	0.005802	-0.005416	131.665935	-85.049917	11.469429
64033	9.713402	0.593257	-0.582457	0.005214	0.001179	-0.003592	131.686380	-85.050618	11.452129
64034	9.717703	0.578906	-0.634865	0.006648	0.000116	-0.001502	131.727331	-85.051256	11.415006
64035	9.718799	0.595190	-0.616360	0.008887	0.003630	-0.004416	131.734162	-85.052537	11.413483
64036	9.730731	0.614565	-0.665789	0.012340	0.004666	-0.004710	131.741826	-85.053536	11.413023
64037	9.694199	0.585512	-0.637460	0.015793	0.005702	-0.005003	131.739789	-85.055357	11.424373
64038	9.718809	0.596368	-0.615072	0.016013	0.007117	-0.005533	131.733878	-85.056942	11.439660
64039	9.718831	0.596645	-0.614452	0.019321	0.007822	-0.002410	131.734806	-85.060680	11.450062
64040	9.679445	0.641688	-0.618438	0.016935	0.002142	-0.005267	131.755212	-85.060483	11.439464
64041	9.698600	0.651047	-0.562375	0.015356	0.002873	-0.003942	131.771596	-85.061678	11.432072
64042	9.709438	0.654200	-0.630437	0.011683	0.000422	-0.003118	131.806919	-85.061744	11.403535
64043	9.667458	0.623725	-0.568323	0.007236	0.003276	-0.005977	131.807680	-85.062224	11.407156
64044	9.690933	0.618595	-0.564773	0.001506	-0.001815	-0.004210	131.843446	-85.060965	11.372260
64045	9.713316	0.597264	-0.579799	-0.003527	-0.002121	-0.002592	131.879670	-85.060825	11.334095
64046	9.697369	0.636758	-0.581104	0.002427	-0.006790	-0.003944	131.941609	-85.057775	11.273481
64047	9.704924	0.670520	-0.579066	-0.005766	-0.005634	0.000324	132.006745	-85.057525	11.205009
64048	9.709215	0.656030	-0.631970	-0.018956	-0.006079	-0.001534	132.063513	-85.055762	11.137268
64049	9.679150	0.644491	-0.620127	-0.016936	-0.003981	-0.003919	132.095257	-85.054332	11.095888
64050	9.696103	0.621538	-0.601440	-0.019539	-0.009240	0.002943	132.186982	-85.053244	10.992749
64051	9.736567	0.592743	-0.579449	-0.014287	-0.007519	0.000794	132.258487	-85.052443	10.912983
64052	9.720628	0.631957	-0.580852	-0.015683	-0.005915	0.000146	132.323650	-85.051431	10.838709
64053	9.695995	0.621499	-0.603209	-0.017482	-0.006599	0.002001	132.394171	-85.051479	10.758094
64054	9.712964	0.598437	-0.584466	-0.030449	-0.005629	-0.000382	132.447059	-85.050343	10.687660
64055	9.701321	0.623222	-0.638293	-0.037790	-0.010533	0.001266	132.521815	-85.048543	10.591114
64056	9.705582	0.609052	-0.691011	-0.027769	0.000716	-0.004353	132.527440	-85.048174	10.569679
64057	9.731964	0.529801	-0.655185	-0.031219	-0.000321	-0.004058	132.532357	-85.048075	10.547012
64058	9.723240	0.480657	-0.676255	-0.023320	-0.002140	-0.001498	132.567300	-85.047804	10.498696
64059	9.693214	0.469039	-0.664072	-0.001471	0.000524	-0.003533	132.587496	-85.048252	10.477801
64060	9.702988	0.534962	-0.624725	0.011201	-0.002943	-0.003510	132.637228	-85.046822	10.434480
64061	9.718140	0.602402	-0.619741	0.017629	-0.004239	-0.004484	132.687255	-85.045018	10.394627
64062	9.721383	0.650828	-0.565119	0.010946	-0.004899	-0.004424	132.742230	-85.042441	10.345888
64063	9.709718	0.675824	-0.618812	0.004518	-0.003603	-0.003449	132.786232	-85.041313	10.304542
64064	9.672090	0.630549	-0.609484	-0.003269	-0.000163	-0.001678	132.822340	-85.041728	10.266557
64065	9.717986	0.603562	-0.621034	-0.008593	-0.002967	-0.002414	132.860379	-85.041278	10.223655
64066	9.709258	0.554186	-0.642438	0.001104	-0.004100	-0.001712	132.917817	-85.040139	10.166824
64067	9.732744	0.548751	-0.639180	-0.001653	-0.000352	-0.001560	132.951013	-85.041062	10.132775
64068	9.724037	0.499342	-0.660327	0.008226	-0.000609	-0.002830	132.990675	-85.040813	10.097868
64069	9.739213	0.566789	-0.654791	0.012334	0.004673	-0.004712	132.993437	-85.042375	10.102412
64070	9.692190	0.578345	-0.661479	0.023611	0.002812	-0.005335	133.014230	-85.042416	10.095256
64071	9.724370	0.622718	-0.636823	0.025229	0.002624	-0.005217	133.032010	-85.042966	10.092141
64072	9.730842	0.640495	-0.652584	0.014693	-0.001364	-0.002360	133.081268	-85.042615	10.051278
64073	9.700835	0.628702	-0.640306	0.017222	0.004648	-0.002917	133.095080	-85.044919	10.047541
64074	9.695446	0.627164	-0.606163	0.006284	-0.001627	0.002442	133.162561	-85.046475	9.983579
64075	9.706240	0.629906	-0.674515	0.012932	-0.001508	0.000939	133.221093	-85.047975	9.932488
64076	9.710281	0.571502	-0.624062	0.014805	0.000260	0.001970	133.282299	-85.050061	9.879727
64077	9.710291	0.571161	-0.624231	0.019436	-0.001720	0.002853	133.354345	-85.052265	9.818812
64078	9.709203	0.554719	-0.642812	0.021273	-0.000494	0.002440	133.425096	-85.054241	9.760216
64079	9.718999	0.620055	-0.603553	0.028179	0.001582	0.001851	133.481829	-85.057318	9.719699
64080	9.693313	0.593249	-0.643757	0.024909	0.001417	0.000173	133.535298	-85.059091	9.680459
64081	9.690121	0.623822	-0.572908	0.021896	0.003208	-0.000592	133.569558	-85.061790	9.658885
64082	9.721225	0.651691	-0.566846	0.014553	-0.001696	0.001060	133.636120	-85.062702	9.600610
64083	9.696628	0.641014	-0.588745	0.011794	0.002052	0.001205	133.678449	-85.065685	9.565129
64084	9.690153	0.623383	-0.572843	-0.001361	0.002145	0.000794	133.716303	-85.067999	9.526484
64085	9.714748	0.633947	-0.551103	-0.007199	-0.004574	-0.001764	133.765980	-85.067123	9.472705
64086	9.719016	0.619459	-0.603901	-0.013849	-0.004693	-0.000261	133.824515	-85.066287	9.406175
64087	9.703812	0.552507	-0.609341	-0.024948	-0.001959	-0.001616	133.852155	-85.066502	9.364308
64088	9.718948	0.620030	-0.604410	-0.024061	-0.007475	-0.002791	133.906507	-85.063511	9.296089
64089	9.703720	0.553427	-0.609970	-0.033103	-0.002101	-0.005087	133.914157	-85.062233	9.269595
64090	9.677982	0.527714	-0.649968	-0.020727	0.003112	-0.008358	133.894178	-85.061149	9.277880
64091	9.748480	0.512026	-0.639197	-0.017567	0.001652	-0.011009	133.865582	-85.058917	9.296703
64092	9.723835	0.502650	-0.660789	-0.014296	0.001817	-0.009331	133.851155	-85.056921	9.303070
64093	9.689503	0.506246	-0.595864	-0.007611	0.002479	-0.009391	133.831768	-85.055685	9.318376
64094	9.707817	0.543839	-0.661182	0.000399	0.000455	-0.011690	133.821393	-85.052185	9.329255
64095	9.709929	0.577047	-0.624435	0.003632	0.000079	-0.011455	133.810471	-85.049142	9.342530
64096	9.715274	0.579549	-0.658343	-0.002542	0.003329	-0.009568	133.794545	-85.047654	9.357196
64097	9.661722	0.574131	-0.649411	-0.004632	0.000146	-0.010069	133.784940	-85.045210	9.364396
64098	9.707612	0.547907	-0.660831	0.001835	-0.000606	-0.009600	133.790181	-85.042150	9.360319
64099	9.700007	0.515150	-0.663563	0.005104	-0.000440	-0.007922	133.798764	-85.040362	9.354862
64100	9.701047	0.531930	-0.645197	0.013624	0.001452	-0.008394	133.806463	-85.038625	9.355203
64101	9.702080	0.548755	-0.626861	0.013370	-0.000505	-0.009307	133.813754	-85.036239	9.355797
64102	9.700075	0.639900	-0.640727	0.012190	0.002513	-0.010484	133.806092	-85.034062	9.370708
64103	9.694619	0.639379	-0.606627	0.016787	-0.000006	-0.011044	133.805045	-85.031156	9.381637
64104	9.694561	0.640229	-0.606654	0.013626	0.001452	-0.008393	133.812843	-85.029408	9.381671
64105	9.723431	0.636786	-0.637253	0.008376	-0.000274	-0.006243	133.830147	-85.028380	9.369341
64106	9.699881	0.642875	-0.640682	0.003780	0.002244	-0.005683	133.840771	-85.028074	9.361032
64107	9.746880	0.632250	-0.633817	0.011174	-0.003477	-0.004947	133.880790	-85.026309	9.327511
64108	9.717930	0.636688	-0.603450	0.003380	-0.000043	-0.003180	133.913466	-85.026135	9.296898
64109	9.717908	0.636983	-0.603501	-0.001689	-0.000897	-0.003003	133.942730	-85.026195	9.266775
64110	9.709291	0.587551	-0.624572	-0.005105	-0.001396	-0.001265	133.985743	-85.026265	9.220811
64111	9.708197	0.571662	-0.643150	-0.002125	-0.003726	-0.001942	134.033005	-85.025632	9.172370
64112	9.731701	0.566191	-0.639841	0.008303	0.000480	0.000057	134.080862	-85.026983	9.129193
64113	9.724186	0.532614	-0.642264	0.008956	0.004724	-0.001533	134.096383	-85.029881	9.118988
64114	9.724213	0.532690	-0.641796	0.019095	0.006432	-0.001888	134.113441	-85.032807	9.112939
64115	9.685796	0.593655	-0.627141	0.014644	0.009280	-0.004745	134.095931	-85.036200	9.139160
64116	9.710395	0.604538	-0.604711	0.020641	0.005161	-0.004654	134.107217	-85.037496	9.139937
64117	9.711456	0.620922	-0.586064	0.020424	0.003746	-0.004123	134.122080	-85.038938	9.136986
64118	9.712518	0.637238	-0.567437	0.017226	0.004662	-0.002917	134.141761	-85.040742	9.127261
64119	9.733940	0.599589	-0.600220	0.010611	0.005080	0.000027	134.163789	-85.044422	9.111476
64120	9.715844	0.606526	-0.637522	0.001835	0.001228	-0.000413	134.202384	-85.045888	9.073986
64121	9.695405	0.537921	-0.608515	0.008523	0.001895	-0.000471	134.236073	-85.048089	9.045295
64122	9.731856	0.567458	-0.636356	0.013557	0.002207	-0.002090	134.269040	-85.049256	9.020171
64123	9.683751	0.562555	-0.661729	0.014703	-0.001352	-0.002352	134.313005	-85.049384	8.984720
64124	9.684787	0.578655	-0.643700	0.019373	-0.002783	-0.000023	134.382508	-85.049400	8.926317
64125	9.693346	0.628063	-0.623329	0.030514	-0.004961	0.002778	134.476342	-85.050172	8.849902
64126	9.709332	0.588440	-0.623097	0.035369	-0.005520	0.003134	134.582723	-85.050365	8.763608
64127	9.710389	0.603953	-0.605395	0.025737	-0.003313	0.005309	134.677884	-85.052809	8.683114
64128	9.679336	0.575304	-0.612172	0.016705	-0.009124	0.003962	134.794171	-85.051858	8.576276
64129	9.733892	0.597300	-0.603272	0.024339	-0.001712	0.004658	134.878109	-85.054659	8.506245
64130	9.738223	0.582188	-0.656010	0.012689	-0.003452	0.000037	134.947349	-85.054381	8.444159
64131	9.701765	0.552721	-0.628248	0.014743	-0.000811	-0.000909	134.995608	-85.055277	8.404421
64132	9.697411	0.567539	-0.576212	0.007582	-0.004850	-0.001226	135.062433	-85.053905	8.341841
64133	9.724161	0.531092	-0.643902	0.004164	-0.005346	0.000511	135.132502	-85.053526	8.274127
64134	9.714591	0.587726	-0.661161	0.002728	-0.004290	-0.001581	135.192315	-85.052237	8.215748
64135	9.714550	0.587815	-0.661690	0.005746	-0.006077	-0.000812	135.260443	-85.051014	8.150892
64136	9.709134	0.586395	-0.628089	0.011108	-0.002720	0.001360	135.331474	-85.051542	8.086188
64137	9.730511	0.548094	-0.661678	0.008727	-0.006555	0.007698	135.443603	-85.053534	7.978881
64138	9.678073	0.557356	-0.635175	0.015927	-0.003825	0.000273	135.517549	-85.053154	7.913917
64139	9.731548	0.563350	-0.644657	0.025055	-0.008097	0.005465	135.635713	-85.053588	7.809943
64140	9.676953	0.540157	-0.655056	0.036785	-0.007121	0.003785	135.753414	-85.053235	7.713000
64141	9.715528	0.601113	-0.647383	0.037078	-0.004617	0.006135	135.865628	-85.055330	7.621913
64142	9.714457	0.584030	-0.666391	0.031826	-0.006338	0.008290	135.998378	-85.057070	7.507109
64143	9.722010	0.616430	-0.664790	0.034920	-0.007033	0.011944	136.148384	-85.060441	7.376848
64144	9.698510	0.620670	-0.669216	0.026574	-0.008058	0.010447	136.296495	-85.062273	7.243637
64145	9.692070	0.601841	-0.654403	0.032907	-0.009126	0.014337	136.466766	-85.065660	7.091878
64146	9.705868	0.528635	-0.691082	0.038949	-0.012700	0.015881	136.669829	-85.067631	6.910455
64147	9.714542	0.576530	-0.671653	0.042919	-0.007742	0.017395	136.854786	-85.072710	6.749716
64148	9.672920	0.586609	-0.713880	0.049039	-0.010222	0.021823	137.081684	-85.077954	6.550441
64149	9.697604	0.594682	-0.693471	0.057179	-0.010610	0.023857	137.320157	-85.084237	6.344191
64150	9.704166	0.609021	-0.710638	0.068893	-0.008318	0.029915	137.590532	-85.093259	6.112688
64151	9.706544	0.638080	-0.675281	0.067759	-0.004757	0.030168	137.841343	-85.104296	5.900145
64152	9.760222	0.640586	-0.685140	0.065645	-0.006610	0.037425	138.141804	-85.116725	5.636296
64153	9.739202	0.674567	-0.652928	0.063588	0.001925	0.037384	138.398911	-85.133195	5.415043
64154	9.725349	0.619781	-0.639249	0.056116	0.006552	0.033739	138.619193	-85.149691	5.226607
64155	9.695614	0.603833	-0.626822	0.049958	0.000539	0.045794	138.920709	-85.168575	4.952960
64156	9.685406	0.639253	-0.662438	0.041683	0.000623	0.047180	139.231551	-85.187369	4.665037
64157	9.678048	0.600730	-0.664764	0.030204	0.001639	0.049767	139.542040	-85.207964	4.371044
64158	9.671832	0.578457	-0.648822	0.020267	0.001366	0.049593	139.854594	-85.227709	4.069160
64159	9.700980	0.568883	-0.679358	0.005284	0.000806	0.051040	140.166357	-85.248138	3.759578
64160	9.747085	0.536235	-0.690330	0.017116	0.002846	0.052238	140.489805	-85.269213	3.444812
64161	9.783655	0.517845	-0.614611	0.003019	0.007937	0.051526	140.776984	-85.292696	3.158613
64162	9.726855	0.458277	-0.658975	-0.002208	0.016062	0.044932	140.997300	-85.316768	2.936404
64163	9.725953	0.437722	-0.675649	0.004197	0.014194	0.042533	141.213789	-85.339612	2.721829
64164	9.702773	0.439361	-0.677487	0.005314	0.021246	0.039836	141.392080	-85.364029	2.545868
64165	9.709710	0.452487	-0.691169	0.007548	0.026081	0.044637	141.573885	-85.392836	2.368031
64166	9.664325	0.475876	-0.678015	0.009777	0.018400	0.042719	141.787378	-85.416914	2.159491
64167	9.714023	0.492923	-0.632787	0.005144	0.020390	0.041820	141.981604	-85.442058	1.967824
64168	9.765484	0.462265	-0.675757	-0.010872	0.023181	0.038637	142.143178	-85.466762	1.799663
64169	9.717655	0.453744	-0.698944	0.001787	0.019120	0.037263	142.319006	-85.489640	1.624535
64170	9.743884	0.476929	-0.656918	0.002772	0.025863	0.037986	142.476341	-85.515251	1.468451
64171	9.720787	0.479051	-0.657759	0.000211	0.030482	0.036127	142.597567	-85.542826	1.347198
64172	9.691035	0.464016	-0.642509	-0.000010	0.029073	0.036668	142.734620	-85.569383	1.209857
64173	9.693837	0.492962	-0.603480	-0.005276	0.027389	0.038824	142.885695	-85.596435	1.055523
64174	9.677143	0.405761	-0.623404	-0.003837	0.026336	0.040928	143.061641	-85.623154	0.877073
64175	9.684177	0.418984	-0.636760	-0.002170	0.026692	0.042492	143.243710	-85.651075	0.693450
64176	9.694922	0.481102	-0.595575	-0.000133	0.028765	0.040097	143.410276	-85.678537	0.526446
64177	9.666345	0.481971	-0.562559	0.002429	0.024143	0.041961	143.607896	-85.705016	0.329884
64178	9.673404	0.494959	-0.576519	-0.010458	0.016202	0.046320	143.868400	-85.728699	0.062796
64179	9.689681	0.557667	-0.570525	-0.022288	0.014209	0.045101	144.121561	-85.751505	-0.203650
64180	9.690006	0.553400	-0.569157	-0.031066	0.010966	0.046107	144.398159	-85.772497	-0.498707
64181	9.701470	0.525048	-0.514340	-0.027821	0.010571	0.046355	144.678128	-85.793833	-0.795197
64182	9.721516	0.440109	-0.442245	-0.049323	0.010327	0.045839	144.951084	-85.814225	-1.097113
64183	9.702606	0.426673	-0.496705	-0.066935	0.013370	0.042513	145.176979	-85.835414	-1.361840
64184	9.705819	0.391536	-0.566028	-0.065005	0.003723	0.039686	145.435812	-85.850511	-1.658542
64185	9.743484	0.326401	-0.578744	-0.053622	0.002879	0.041990	145.717608	-85.866399	-1.971657
64186	9.746193	0.354956	-0.541942	-0.052181	0.001818	0.044095	146.025483	-85.881799	-2.310163
64187	9.729756	0.374003	-0.561276	-0.064607	-0.003284	0.047368	146.368641	-85.896221	-2.691097
64188	9.727309	0.337380	-0.598078	-0.077116	-0.009480	0.047756	146.741257	-85.907091	-3.108802
64189	9.741380	0.277622	-0.615776	-0.062125	-0.009014	0.046346	147.108779	-85.918095	-3.512724
64190	9.718047	0.279243	-0.620243	-0.046126	-0.011889	0.049546	147.525942	-85.927964	-3.957274
64191	9.701545	0.297674	-0.640951	-0.015576	-0.016586	0.053838	148.007953	-85.937163	-4.449226
64192	9.712466	0.358103	-0.603487	-0.008734	-0.014343	0.058120	148.520299	-85.947900	-4.967719
64193	9.664185	0.502063	-0.538128	-0.009977	-0.022489	0.057912	149.063019	-85.954790	-5.517305
64194	9.682219	0.515801	-0.624364	-0.022310	-0.026480	0.064073	149.663923	-85.960577	-6.132362
64195	9.730568	0.513534	-0.601132	-0.044890	-0.021759	0.071580	150.283676	-85.970946	-6.779216
64196	9.711520	0.498185	-0.658555	-0.065243	-0.015417	0.066971	150.840564	-85.982158	-7.374787
64197	9.711648	0.401821	-0.645448	-0.075575	-0.017873	0.069304	151.417486	-85.992928	-7.996313
64198	9.737660	0.267980	-0.699778	-0.079341	-0.020057	0.075007	152.048499	-86.003118	-8.674271
64199	9.759453	0.148620	-0.701721	-0.065079	-0.013017	0.077639	152.680338	-86.017628	-9.344800
64200	9.689077	0.070066	-0.699228	-0.064603	-0.011503	0.068825	153.249823	-86.029555	-9.952599
64201	9.701098	-0.007643	-0.735811	-0.039099	-0.007778	0.063088	153.777923	-86.042095	-10.504200
64202	9.727345	0.012693	-0.696395	-0.012504	-0.007634	0.057087	154.282703	-86.052289	-11.017203
64203	9.676609	0.034867	-0.651698	0.011174	-0.005888	0.045445	154.706428	-86.060798	-11.435293
64204	9.690978	0.128135	-0.576789	0.013318	-0.013579	0.043480	155.148864	-86.064055	-11.870969
64205	9.706358	0.174729	-0.591477	0.006238	-0.017195	0.039736	155.568460	-86.064878	-12.287752
64206	9.706319	0.171088	-0.593190	-0.000373	-0.017987	0.034927	155.954088	-86.063394	-12.674345
64207	9.673470	0.214603	-0.633926	0.003013	-0.027624	0.037036	156.386057	-86.057720	-13.105386
64208	9.681867	0.244551	-0.634049	-0.003548	-0.027870	0.033673	156.791640	-86.050376	-13.513811
64209	9.705113	0.235377	-0.633241	-0.015008	-0.028028	0.028512	157.146820	-86.042166	-13.878236
64210	9.733119	0.137412	-0.652231	-0.006169	-0.024305	0.028949	157.500497	-86.035306	-14.236144
64211	9.709633	0.141164	-0.658301	-0.001820	-0.029064	0.022610	157.818486	-86.024959	-14.555721
64212	9.764013	0.069528	-0.637443	0.003317	-0.027743	0.023876	158.146729	-86.014904	-14.882693
64213	9.726567	0.038950	-0.612183	0.026246	-0.029508	0.020118	158.459764	-86.003545	-15.181192
64214	9.743493	0.103696	-0.610037	0.042716	-0.030430	0.015889	158.754398	-85.990150	-15.451855
64215	9.663018	0.235416	-0.690792	0.043118	-0.027388	0.019693	159.064097	-85.979617	-15.737328
64216	9.689291	0.423531	-0.700645	0.040223	-0.035316	0.019359	159.394096	-85.964110	-16.044884
64217	9.728785	0.556175	-0.727906	0.006820	-0.027506	0.017286	159.661553	-85.952817	-16.308869
64218	9.748314	0.562861	-0.674910	-0.030390	-0.031949	0.024780	159.978431	-85.939963	-16.643837
64219	9.743379	0.512098	-0.732482	-0.049678	-0.027550	0.032593	160.326509	-85.931421	-17.021106
64220	9.726994	0.368410	-0.707019	-0.061486	-0.018579	0.033869	160.654779	-85.927244	-17.385364
64221	9.690872	0.216103	-0.737205	-0.063562	-0.021186	0.034825	160.992602	-85.922254	-17.760333
64222	9.718547	0.117599	-0.755939	-0.050990	-0.024624	0.039709	161.385206	-85.915559	-18.183063
64223	9.799804	0.023603	-0.783588	-0.033239	-0.017426	0.035683	161.735479	-85.912426	-18.553100
64224	9.732092	-0.019031	-0.744657	-0.006396	-0.014660	0.036834	162.105076	-85.910264	-18.927154
64225	9.740634	0.010865	-0.743587	0.014902	-0.016246	0.032922	162.457918	-85.906962	-19.272115
64226	9.739865	0.081634	-0.776967	0.038196	-0.004710	0.033951	162.806744	-85.909420	-19.599734
64227	9.723324	0.148572	-0.707621	0.044604	-0.006110	0.032966	163.152727	-85.911379	-19.920756
64228	9.708695	0.184902	-0.709141	0.038033	-0.006337	0.029618	163.472691	-85.911954	-20.219533
64229	9.708707	0.181740	-0.709784	0.026552	-0.005699	0.030797	163.791193	-85.913528	-20.523372
64230	9.725047	0.155042	-0.691206	0.023266	-0.005812	0.029123	164.097959	-85.914080	-20.817398
64231	9.744344	0.187511	-0.757467	0.019976	-0.005161	0.033766	164.434853	-85.916172	-21.143453
64232	9.694180	0.211955	-0.712284	0.008791	-0.003329	0.029539	164.731561	-85.917926	-21.435709
64233	9.692471	0.193017	-0.731051	0.003413	-0.006044	0.028819	165.023016	-85.918542	-21.725723
64234	9.700033	0.133298	-0.714838	0.007121	-0.003657	0.027980	165.307704	-85.919674	-22.006887
64235	9.677236	0.062779	-0.686032	0.008975	-0.002464	0.027560	165.585581	-85.921889	-22.280092
64236	9.671966	0.058956	-0.652119	0.017470	-0.001271	0.025619	165.853540	-85.923822	-22.538538
64237	9.682503	0.058663	-0.720687	0.016699	-0.006043	0.025779	166.129396	-85.923615	-22.805280
64238	9.698293	0.106773	-0.734696	0.016522	-0.007675	0.021444	166.376750	-85.921248	-23.043614
64239	9.696057	0.162471	-0.786265	0.019874	-0.007021	0.024565	166.646533	-85.920163	-23.302445
64240	9.696044	0.159733	-0.786984	0.028074	-0.007018	0.028030	166.950338	-85.918861	-23.590738
64241	9.721117	0.166773	-0.766015	0.013356	-0.006695	0.022663	167.200596	-85.917533	-23.833739
64242	9.783601	0.202174	-0.773132	0.010603	-0.003442	0.021362	167.435545	-85.917203	-24.063039
64243	9.787572	0.158204	-0.704229	-0.013870	-0.001584	0.020179	167.641695	-85.918287	-24.277459
64244	9.759398	0.087554	-0.640901	-0.006690	0.001771	0.019030	167.839591	-85.920472	-24.479543
64245	9.711358	0.008541	-0.633437	-0.020690	-0.003209	0.017366	168.022702	-85.920204	-24.674782
64246	9.718388	0.024366	-0.649670	-0.034211	-0.005370	0.014631	168.182312	-85.917782	-24.854293
64247	9.712613	0.049352	-0.737816	-0.036545	-0.010146	0.009806	168.308026	-85.912664	-25.001097
64248	9.771468	0.054196	-0.781838	-0.042764	-0.007862	0.008815	168.420661	-85.908117	-25.138427
64249	9.773062	0.022562	-0.853218	-0.035939	-0.006240	0.011629	168.554181	-85.905356	-25.292711
64250	9.724614	0.018502	-0.878724	-0.020624	-0.003437	0.012498	168.701017	-85.903662	-25.451613
64251	9.729868	0.018341	-0.912827	0.015147	0.003462	0.015485	168.878720	-85.906726	-25.620848
64252	9.708595	0.085952	-0.808582	0.046374	0.002664	0.018028	169.098196	-85.908989	-25.814091
64253	9.699685	0.171364	-0.754141	0.063557	0.007419	0.024796	169.371654	-85.915182	-26.051516
64254	9.748132	0.292640	-0.672178	0.064826	0.005471	0.028877	169.684016	-85.920025	-26.327281
64255	9.855591	0.419205	-0.633161	0.041444	0.014077	0.028446	169.965881	-85.930168	-26.585833
64256	9.811059	0.324341	-0.676262	-0.003370	0.022498	0.022718	170.168273	-85.943829	-26.790514
64257	9.816753	0.249080	-0.675329	-0.037586	0.025931	0.025717	170.369680	-85.960259	-27.013792
64258	9.782941	0.082777	-0.753120	-0.058757	0.027927	0.026207	170.563782	-85.977220	-27.241967
64259	9.731277	-0.028845	-0.779396	-0.046838	0.030292	0.028837	170.782842	-85.996294	-27.488245
64260	9.695557	-0.015920	-0.851461	-0.023624	0.030343	0.025955	170.995852	-86.014479	-27.715186
64261	9.683358	-0.036608	-0.798652	-0.003822	0.029969	0.024826	171.211646	-86.032884	-27.933473
64262	9.658506	-0.048601	-0.817366	0.022983	0.032069	0.024538	171.441860	-86.051798	-28.150882
64263	9.632063	0.017026	-0.676203	0.051350	0.034167	0.029247	171.724929	-86.072826	-28.404908
64264	9.687834	0.107994	-0.696274	0.059011	0.030788	0.032349	172.046999	-86.091498	-28.693688
64265	9.732932	0.196759	-0.648494	0.060452	0.028933	0.028131	172.337718	-86.109281	-28.950143
64266	9.738658	0.268555	-0.712385	0.032581	0.031203	0.034982	172.671855	-86.128174	-29.266181
64267	9.708527	0.254114	-0.697058	0.007631	0.031082	0.041151	173.045235	-86.147902	-29.635807
64268	9.696200	0.184625	-0.733095	-0.010799	0.029849	0.042912	173.429605	-86.166283	-30.027089
64269	9.683837	0.115216	-0.769153	-0.025572	0.030445	0.042389	173.802646	-86.185397	-30.415425
64270	9.733947	0.008893	-0.779042	-0.011033	0.028438	0.043455	174.200175	-86.202652	-30.820012
64271	9.793061	-0.017424	-0.697494	0.019142	0.031139	0.046338	174.640018	-86.222016	-31.249605
64272	9.780949	0.033666	-0.676841	0.030251	0.038471	0.048715	175.107245	-86.244853	-31.700318
64273	9.747489	0.107383	-0.641023	0.027276	0.040327	0.047945	175.569053	-86.269082	-32.147230
64274	9.739131	0.143374	-0.672378	0.023562	0.037962	0.048782	176.044667	-86.291148	-32.610165
64275	9.743121	0.170294	-0.631895	0.001151	0.043522	0.057771	176.588708	-86.317064	-33.154457
64276	9.748982	0.165665	-0.661815	-0.005793	0.041609	0.058367	177.143522	-86.340960	-33.713582
64277	9.779904	0.170220	-0.670013	-0.010938	0.041109	0.063422	177.747545	-86.364942	-34.324889
64278	9.749725	0.153705	-0.653707	-0.015769	0.041788	0.063064	178.353959	-86.388288	-34.941415
64279	9.734277	0.171172	-0.668791	-0.006939	0.045650	0.068392	179.020916	-86.414089	-35.613452
64280	9.768954	0.206719	-0.640003	-0.013821	0.045065	0.076755	179.770743	-86.438475	-36.372518
64281	9.751784	0.206893	-0.673240	-0.013931	0.044749	0.080191	-179.437476	-86.462642	-37.173597
64282	9.746678	0.197578	-0.634665	-0.020372	0.047211	0.092362	-178.524797	-86.486749	-38.099545
64283	9.707219	0.145171	-0.620412	-0.023767	0.046809	0.094109	-177.584900	-86.510275	-39.054621
64284	9.686327	0.158663	-0.601330	-0.024505	0.043360	0.102049	-176.560703	-86.529988	-40.094621
64285	9.673635	0.083404	-0.636394	-0.030145	0.040061	0.108173	-175.471738	-86.547007	-41.202658
64286	9.731544	0.108099	-0.604577	-0.029460	0.035517	0.118221	-174.282296	-86.558986	-42.411010
64287	9.730012	0.080432	-0.619086	-0.025115	0.041993	0.124124	-173.017328	-86.573318	-43.692448
64288	9.690160	0.025071	-0.605577	-0.025465	0.040269	0.128105	-171.709111	-86.584049	-45.017463
64289	9.669221	0.035361	-0.587115	-0.030971	0.038068	0.137129	-170.312132	-86.591446	-46.434478
64290	9.682820	0.040026	-0.633444	-0.030415	0.032432	0.144286	-168.855082	-86.592239	-47.911412
64291	9.685045	0.042131	-0.611624	-0.027522	0.039452	0.146649	-167.356781	-86.595004	-49.427940
64292	9.677616	0.010737	-0.592380	-0.035285	0.033599	0.153718	-165.812677	-86.590602	-50.994879
64293	9.720135	0.007868	-0.669089	-0.028327	0.035677	0.158060	-164.220635	-86.584726	-52.605786
64294	9.687812	0.013118	-0.582549	-0.025525	0.043132	0.170203	-162.505355	-86.577628	-54.338624
64295	9.714850	-0.025853	-0.627393	-0.026970	0.036005	0.181211	-160.718539	-86.562061	-56.143906
64296	9.753743	-0.016987	-0.651300	-0.022930	0.040720	0.191124	-158.848215	-86.543088	-58.030631
64297	9.740661	-0.006972	-0.508585	-0.033034	0.040147	0.197807	-156.945335	-86.519175	-59.955744
64298	9.760405	-0.007337	-0.588455	-0.043398	0.038179	0.205024	-155.028573	-86.488167	-61.900844
64299	9.727523	-0.052849	-0.591231	-0.056776	0.037582	0.210007	-153.111148	-86.452153	-63.854283
64300	9.664572	-0.050127	-0.632896	-0.053913	0.035574	0.219164	-151.174642	-86.408162	-65.825357
64301	9.642679	-0.106432	-0.564387	-0.062772	0.033058	0.229954	-149.214562	-86.356169	-67.825166
64302	9.648466	-0.127875	-0.595364	-0.059941	0.031253	0.244016	-147.221198	-86.294281	-69.856906
64303	9.600342	-0.063464	-0.598257	-0.042982	0.025192	0.258302	-145.208137	-86.220874	-71.898726
64304	9.655949	-0.028838	-0.654366	-0.017969	0.026711	0.274825	-143.147223	-86.137528	-73.974406
64305	9.610923	0.048653	-0.638158	0.006564	0.042216	0.284361	-141.012863	-86.053220	-76.109739
64306	9.657801	0.093742	-0.606452	-0.016206	0.037205	0.307538	-138.875646	-85.952440	-78.261335
64307	9.648690	-0.000230	-0.676103	-0.014511	0.046692	0.328955	-136.662804	-85.842160	-80.487973
64308	9.590458	0.096412	-0.677892	0.014327	0.050756	0.354561	-134.399206	-85.716817	-82.749357
64309	9.507791	0.182089	-0.702406	0.017947	0.037901	0.401184	-132.096648	-85.560718	-85.048063
64310	9.568144	0.440205	-0.575553	0.041616	0.024673	0.440002	-129.843074	-85.375790	-87.284650
64311	9.777392	0.854952	-0.347141	-0.056183	0.059186	0.473836	-127.486114	-85.181328	-89.681708
64312	9.777005	0.858302	-0.671834	-0.122423	0.091176	0.482585	-125.158234	-84.985659	-92.088452
64313	9.974390	0.918961	-0.780333	-0.047264	0.138507	0.490801	-122.683963	-84.792840	-94.599559
64314	9.938743	0.600621	-0.499260	-0.103966	0.146012	0.535777	-120.255073	-84.570901	-97.098642
64315	9.808758	0.078387	-0.292627	-0.189641	0.149719	0.580282	-117.924791	-84.318240	-99.548859
64316	9.674785	-0.279899	-0.487000	-0.176052	0.142426	0.630307	-115.717976	-84.029061	-101.868394
64317	9.690166	-0.412103	-0.577613	-0.119081	0.149197	0.663904	-113.581814	-83.715124	-104.085218
64318	9.795016	-0.277716	-0.554444	-0.061901	0.170685	0.688638	-111.485983	-83.384520	-106.229965
64319	9.832360	0.010712	-0.520920	-0.074241	0.171551	0.705461	-109.564564	-83.036575	-108.207556
64320	9.985265	0.070594	-0.893123	-0.088287	0.178435	0.701678	-107.820029	-82.684983	-110.016580
64321	10.183594	0.046972	-0.659613	-0.080383	0.186374	0.701062	-106.197883	-82.328262	-111.698918
64322	10.387468	-0.457013	-0.579842	-0.178843	0.128272	0.727754	-104.984310	-81.942994	-113.027345
64323	10.800986	-1.374973	-0.913801	-0.163047	0.093867	0.766628	-103.965839	-81.527319	-114.150673
64324	11.159182	-1.980702	-1.250352	-0.083609	0.099873	0.804202	-102.956101	-81.089208	-115.220504
64325	11.270157	-1.510770	-1.654389	0.122848	0.163270	0.849502	-101.675522	-80.629830	-116.446025
64326	10.937551	0.780027	-0.514959	0.437460	0.303817	0.900097	-99.854233	-80.152401	-118.038935
64327	10.127592	0.235518	-0.113472	0.511023	0.294939	0.945731	-98.152883	-79.639879	-119.469436
64328	10.188604	0.336037	1.051901	0.595224	0.186254	0.945576	-96.878719	-79.113661	-120.418758
64329	10.972573	0.268114	0.072476	0.216947	0.227386	0.969705	-95.791493	-78.572108	-121.399993
64330	10.852516	-0.022955	-0.172264	0.178562	0.282669	1.019028	-94.662980	-78.002575	-122.447931
64331	10.563227	-0.007527	-0.313247	0.231451	0.241292	1.060777	-93.699204	-77.402810	-123.298373
64332	10.876958	-0.055771	-0.256686	0.192278	0.215597	1.074124	-92.903943	-76.792862	-124.001129
64333	11.369738	-0.688582	-0.541028	0.107213	0.190775	1.088764	-92.275693	-76.170980	-124.583864
64334	11.644251	-1.647591	-0.349115	0.184604	0.196276	1.141664	-91.643199	-75.518599	-125.127008
64335	11.812256	-2.285000	-0.177156	0.360000	0.207359	1.162099	-90.935683	-74.851995	-125.645255
64336	12.240045	-2.574595	0.126994	0.526165	0.240481	1.120849	-90.122142	-74.208713	-126.176510
64337	12.171253	-2.877532	0.262446	0.804116	0.265489	1.119201	-89.153386	-73.562935	-126.705074
64338	11.714024	-2.689494	0.792635	1.015184	0.280519	1.139487	-88.097256	-72.904103	-127.200547
64339	11.281850	-2.527147	0.918471	1.015387	0.276785	1.164227	-87.104327	-72.227475	-127.631252
64340	10.725337	-2.657095	0.675025	1.065987	0.257519	1.164641	-86.169371	-71.550503	-127.972265
64341	10.212815	-2.620807	0.744735	1.149686	0.212513	1.153812	-85.302627	-70.878728	-128.191747
64342	10.034091	-2.626706	0.406573	1.102428	0.115608	1.100129	-84.646615	-70.242938	-128.217509
64343	10.574250	-2.728491	0.596725	1.018814	0.051580	0.962873	-84.134465	-69.687577	-128.141072
64344	11.269528	-2.857706	1.005092	0.883940	0.108515	0.864236	-83.610029	-69.186594	-128.160199
64345	10.721271	-3.110161	0.658631	0.780282	0.189701	0.833463	-83.031135	-68.696257	-128.301218
64346	9.607528	-3.417957	0.440749	0.752012	0.173545	0.836126	-82.508825	-68.206573	-128.399445
64347	8.951885	-3.349040	0.575760	0.687222	0.128880	0.803350	-82.090862	-67.737177	-128.425324
64348	8.477063	-3.399445	0.550002	0.472910	0.115509	0.758229	-81.814034	-67.295876	-128.431602
64349	7.880904	-3.849091	0.684150	0.297169	0.089694	0.718620	-81.667487	-66.877676	-128.405611
64350	7.243373	-4.413903	1.242260	0.224466	0.071125	0.665098	-81.579459	-66.492837	-128.361354
64351	6.597247	-4.762453	1.632533	0.184011	0.022884	0.607480	-81.564741	-66.143270	-128.262058
64352	5.971097	-5.069120	1.438575	0.111939	-0.060671	0.546423	-81.685219	-65.836593	-128.059879
64353	4.955758	-4.891772	0.785488	0.127585	-0.179427	0.451571	-81.923197	-65.591807	-127.718357
64354	3.894080	-4.924020	0.050743	0.073364	-0.316438	0.252864	-82.324278	-65.470961	-127.231445
64355	4.016392	-5.097117	0.130981	0.467761	-0.365666	-0.080769	-82.502404	-65.541124	-126.740948
64356	4.946446	-3.417823	0.668814	0.667613	-0.298506	-0.468167	-82.422187	-65.827104	-126.409185
64357	5.706783	-2.440620	0.032570	0.421656	-0.274232	-0.770480	-82.403873	-66.282067	-126.164640
64358	6.315905	-2.054735	0.272956	0.628952	-0.245634	-0.990737	-82.195011	-66.861041	-125.999486
64359	6.830027	-1.649502	1.234515	0.842838	-0.196588	-1.172061	-81.758549	-67.538372	-125.948855
64360	7.260880	-1.784367	1.957982	0.835033	-0.146857	-1.293811	-81.220404	-68.281612	-126.013215
64361	7.401900	-2.741472	1.971302	0.714206	-0.185069	-1.369036	-80.769540	-69.069615	-126.057685
64362	7.109219	-3.280095	1.590439	0.590928	-0.292197	-1.451373	-80.517034	-69.915043	-125.965660
64363	6.861517	-3.228499	0.730798	0.394335	-0.345847	-1.552906	-80.431271	-70.822009	-125.816599
64364	6.806028	-2.637256	0.041534	0.453752	-0.338448	-1.665545	-80.270017	-71.792952	-125.712225
64365	6.584140	-1.700180	0.399548	0.650698	-0.330269	-1.799209	-79.931833	-72.837710	-125.675627
64366	6.563955	-0.895858	1.198006	0.781491	-0.392751	-1.986156	-79.554716	-73.995243	-125.601750
64367	7.234122	-0.404025	1.608518	0.616553	-0.432826	-2.181391	-79.259323	-75.266103	-125.541497
64368	7.995584	-0.215984	1.368761	0.152732	-0.374212	-2.347316	-79.008947	-76.625071	-125.709178
64369	8.413705	-0.593272	0.586925	-0.174717	-0.321567	-2.464597	-78.707904	-78.042925	-126.120080
64370	8.714404	-0.979711	0.649173	-0.134423	-0.346040	-2.525923	-78.323117	-79.498532	-126.590637
64371	8.947028	-0.962781	1.234505	-0.104386	-0.401650	-2.541416	-77.964945	-80.967655	-127.014509
64372	9.303190	-0.880826	1.356830	-0.225663	-0.469283	-2.541527	-77.816975	-82.445747	-127.294440
64373	9.658504	-0.959149	1.015190	-0.343005	-0.512307	-2.533684	-77.873985	-83.923485	-127.434727
64374	9.965476	-1.046317	0.551317	-0.403147	-0.482533	-2.552788	-77.708828	-85.409421	-127.832308
64375	10.038805	-1.102628	0.101539	-0.418172	-0.397755	-2.589815	-76.322155	-86.903503	-129.461895
64376	10.074378	-1.058264	-0.097623	-0.367715	-0.318423	-2.623234	-70.338284	-88.395904	-135.660875
64377	10.100473	-0.921695	-0.162951	-0.293565	-0.258355	-2.645403	0.025131	-89.611892	153.802598
64378	10.189005	-0.640928	-0.049320	-0.209774	-0.226483	-2.649617	80.322523	-88.463106	73.380146
64379	10.325279	-0.275153	-0.073904	-0.165453	-0.208593	-2.631473	87.318575	-86.977863	66.284506
64380	10.316733	0.124162	-0.059855	-0.161083	-0.173052	-2.605062	89.404543	-85.491112	64.101990
64381	10.235120	0.467673	0.057628	-0.191550	-0.144743	-2.575528	90.259950	-84.019221	63.133071
64382	10.185317	0.672247	0.150854	-0.273441	-0.118092	-2.537256	90.600043	-82.567641	62.633206
64383	10.200327	0.748751	0.134098	-0.355312	-0.096256	-2.495982	90.679940	-81.140580	62.347076
64384	10.298521	0.689203	0.063136	-0.398264	-0.070294	-2.456804	90.606880	-79.735246	62.190059
64385	10.318655	0.739148	-0.036741	-0.416351	-0.027541	-2.408032	90.394795	-78.359026	62.163317
64386	10.303628	0.872053	-0.168343	-0.437648	-0.013911	-2.348524	90.158356	-77.016155	62.148961
64387	10.428034	1.160050	-0.149065	-0.468838	-0.020232	-2.269983	89.938698	-75.719118	62.098795
64388	10.479481	1.418901	0.035290	-0.521042	-0.009749	-2.173689	89.682773	-74.476564	62.055009
64389	10.388864	1.456068	0.196073	-0.597478	-0.010583	-2.061131	89.398914	-73.299299	61.994369
64390	10.316786	1.401884	0.218840	-0.662009	-0.033000	-1.940034	89.131545	-72.191028	61.877475
64391	10.294560	1.277461	0.089593	-0.728095	-0.051569	-1.803204	88.862241	-71.162145	61.721941
64392	10.157789	1.127632	-0.147082	-0.730200	-0.063999	-1.654007	88.612574	-70.218585	61.543498
64393	10.125832	1.007677	-0.186978	-0.657454	-0.096561	-1.469276	88.448466	-69.382057	61.317216
64394	10.096744	1.074500	-0.302261	-0.605140	-0.112760	-1.259670	88.327237	-68.665654	61.076048
64395	9.855576	0.938080	-0.389136	-0.491024	-0.124514	-1.029654	88.273215	-68.081696	60.831761
64396	9.729514	0.894134	-0.271575	-0.358238	-0.153214	-0.811672	88.321378	-67.622851	60.558487
64397	9.770756	0.795209	-0.383218	-0.303564	-0.139091	-0.583058	88.365817	-67.294840	60.322296
64398	9.655882	0.617529	-0.535022	-0.167886	-0.087691	-0.350639	88.406373	-67.099003	60.174289
64399	9.392923	0.586087	-0.483614	-0.033680	-0.059166	-0.120850	88.474757	-67.034321	60.079323
64400	9.270029	0.587097	-0.609555	0.023062	-0.086105	0.111148	88.604610	-67.102996	59.953011
64401	10.173363	2.039317	-1.394853	0.071417	-0.198058	0.301259	88.909617	-67.281631	59.666763
64402	9.941669	4.180744	-3.322510	-0.014997	-0.430090	0.277065	89.490833	-67.447697	59.028082
64403	9.542059	6.171883	-2.679003	0.648163	-0.497573	0.071013	90.552917	-67.491853	58.280537
64404	10.108634	8.035059	0.852255	1.135772	-0.247867	-0.206136	91.545130	-67.374946	57.911178
64405	10.467495	8.023175	3.694959	1.132697	0.100011	-0.378459	92.044858	-67.163540	58.073247
64406	9.960586	7.036884	3.419031	0.724464	0.331426	-0.199095	92.005562	-67.059799	58.566840
64407	8.772035	6.293321	0.738128	0.187674	0.204695	0.168467	91.846786	-67.163741	58.856145
64408	7.923133	6.039995	-1.464788	0.067880	-0.270001	0.388950	92.278304	-67.384286	58.430805
64409	9.412846	6.582209	-1.119385	0.392215	-0.569184	0.442794	93.323392	-67.625263	57.543124
64410	10.372877	7.516022	0.786960	0.035341	-0.249805	0.463194	93.737705	-67.884545	57.117726
64411	9.411143	7.113783	0.848676	-0.828238	0.085996	0.473393	93.185920	-68.161748	57.201256
64412	8.633216	5.592474	-0.351357	-1.106747	-0.045307	0.491834	92.657721	-68.444900	57.087586
64413	9.262568	4.623849	-0.799123	-1.020011	-0.206115	0.540695	92.413313	-68.752682	56.722629
64414	9.643839	3.350937	-1.300006	-1.121857	-0.182855	0.577164	92.080449	-69.081982	56.390813
64415	9.700467	1.924573	-1.388604	-0.946147	-0.165198	0.586628	91.822292	-69.418206	56.087409
64416	9.457144	1.520363	-1.121964	-0.770457	-0.164364	0.589314	91.666406	-69.755877	55.783066
64417	9.193178	1.401666	-1.350802	-0.594367	-0.199571	0.569622	91.668639	-70.082318	55.418336
64418	9.661004	1.423821	-0.536618	-0.106807	-0.230974	0.545956	92.008918	-70.393870	54.992091
64419	9.792641	1.998555	0.260459	0.092446	-0.162914	0.557098	92.364942	-70.712794	54.670937
64420	9.357985	2.196356	-0.087740	0.029148	-0.144556	0.568590	92.667171	-71.037850	54.369074
64421	9.441424	2.546087	-0.090190	0.132649	-0.179367	0.561714	93.096819	-71.357621	53.995728
64422	9.446026	2.970522	0.151561	0.203767	-0.200885	0.550558	93.618492	-71.669036	53.569110
64423	9.318144	3.068540	0.770214	0.246399	-0.232802	0.541755	94.234657	-71.973056	53.069403
64424	9.667065	3.407043	1.106206	-0.001662	-0.274851	0.574905	94.807523	-72.292237	52.466828
64425	10.131843	3.693040	0.446734	-0.408810	-0.298947	0.648279	95.221728	-72.650733	51.787052
64426	10.073032	3.431801	-0.223919	-0.591583	-0.299600	0.689885	95.563038	-73.031303	51.075401
64427	10.077963	2.653435	-0.179328	-0.529503	-0.279303	0.668767	95.920456	-73.399978	50.385430
64428	9.962688	1.977186	0.284183	-0.508165	-0.205675	0.655480	96.168068	-73.764196	49.824049
64429	9.490459	1.216482	-0.258850	-0.514691	-0.176399	0.661675	96.372449	-74.133414	49.304750
64430	9.129053	0.840419	-0.289762	-0.382287	-0.221431	0.649330	96.760895	-74.491709	48.674047
64431	9.068947	0.764187	0.027333	-0.220320	-0.305020	0.634487	97.437458	-74.834251	47.841838
64432	9.363148	1.297696	-0.054097	-0.093162	-0.327423	0.626983	98.268714	-75.167750	46.926279
64433	9.408678	1.954281	-0.493549	-0.046414	-0.296113	0.606165	99.090211	-75.488821	46.049837
64434	9.524642	2.628425	-0.599446	-0.071701	-0.238636	0.577173	99.796549	-75.795855	45.278593
64435	9.281558	2.978592	-0.921737	-0.192018	-0.186503	0.543912	100.332136	-76.087318	44.613284
64436	9.068301	2.857568	-1.067169	-0.251609	-0.234217	0.531069	100.964559	-76.364739	43.813977
64437	9.335969	2.475418	-0.773591	-0.289085	-0.222704	0.504128	101.563501	-76.626349	43.027891
64438	9.970166	2.396550	0.483905	-0.072582	-0.054593	0.498314	101.908996	-76.902627	42.630517
64439	8.566857	2.671452	-0.713951	-0.642705	-0.223848	0.515633	102.364345	-77.167719	41.785610
64440	9.523472	1.617368	-1.381729	-0.595277	-0.347466	0.480679	103.163654	-77.395380	40.616812
64441	9.345734	2.496904	-0.403152	-0.434179	-0.263610	0.485648	103.881783	-77.633779	39.626727
64442	9.180483	2.479014	-0.393914	-0.634493	-0.362281	0.475892	104.765745	-77.849589	38.350385
64443	9.595262	1.797152	-1.081244	-0.647158	-0.355779	0.472918	105.660715	-78.060679	37.056357
64444	9.587232	1.506212	-0.831276	-0.456120	-0.365570	0.475697	106.734218	-78.266865	35.692781
64445	9.668592	1.314212	-0.632648	-0.372856	-0.350976	0.477241	107.859954	-78.471180	34.325565
64446	9.618060	1.286431	-0.614142	-0.414727	-0.317918	0.497313	108.936428	-78.686868	32.985185
64447	9.379098	1.022040	-1.171855	-0.433719	-0.347852	0.495776	110.127370	-78.890889	31.517968
64448	9.501449	1.270761	-0.610631	-0.214479	-0.333044	0.472809	111.429313	-79.079197	30.066657
64449	9.524388	1.397513	-0.460601	-0.222611	-0.301072	0.469351	112.679434	-79.266495	28.664250
64450	9.563549	1.152195	-0.728827	-0.221717	-0.284782	0.455656	113.914800	-79.444365	27.278254
64451	9.559587	1.043117	-0.761162	-0.196489	-0.274447	0.430534	115.144746	-79.606208	25.913204
64452	9.432720	0.855650	-0.889908	-0.228268	-0.303294	0.410228	116.451127	-79.744714	24.452640
64453	9.564158	0.775744	-0.817513	-0.178870	-0.330791	0.389500	117.868256	-79.859344	22.908862
64454	9.609111	0.670077	-0.884163	-0.144519	-0.322525	0.370170	119.285487	-79.959603	21.385520
64455	9.568611	0.487915	-0.952628	-0.052043	-0.314197	0.356023	120.735937	-80.048640	19.882663
64456	9.466784	0.463903	-0.958948	0.082785	-0.303589	0.340643	122.234717	-80.126509	18.409584
64457	9.478283	0.547553	-0.956954	0.211530	-0.302274	0.339398	123.822387	-80.197425	16.921453
64458	9.658222	0.864829	-1.051659	0.276727	-0.302857	0.344853	125.482822	-80.263429	15.397737
64459	9.706640	1.360488	-1.041533	0.285874	-0.277182	0.350791	127.110177	-80.333507	13.913169
64460	9.636898	1.592771	-1.193894	0.233559	-0.268958	0.346685	128.700535	-80.397506	12.436061
64461	9.685276	1.488451	-1.293332	0.190184	-0.253283	0.333698	130.214018	-80.454822	11.011934
64462	9.675568	1.286503	-1.213316	0.134446	-0.226618	0.334454	131.647643	-80.516263	9.636683
64463	9.575390	1.076327	-1.245480	0.093892	-0.213429	0.324124	133.015798	-80.572952	8.304448
64464	9.544521	0.968940	-1.329883	0.025865	-0.233059	0.305585	134.366132	-80.608858	6.950984
64465	9.541298	0.565568	-1.455629	-0.054797	-0.247652	0.288399	135.670433	-80.626885	5.597403
64466	9.558818	0.447514	-1.311127	0.044530	-0.251187	0.283062	137.033018	-80.636060	4.242523
64467	9.651982	0.855997	-1.288424	0.114223	-0.256997	0.286133	138.456690	-80.638733	2.866185
64468	9.656819	1.186774	-1.230370	0.097301	-0.249637	0.288256	139.862036	-80.639723	1.498642
64469	9.607959	1.306255	-1.247796	0.051569	-0.253373	0.287617	141.244846	-80.633565	0.127332
64470	9.636904	1.109276	-1.388793	-0.062380	-0.270302	0.289673	142.603263	-80.614995	-1.285435
64471	9.706188	0.507515	-1.421636	-0.098752	-0.278150	0.289122	143.946922	-80.587385	-2.704502
64472	9.776284	-0.187895	-1.411272	-0.026202	-0.273305	0.282850	145.298094	-80.554333	-4.089130
64473	9.793043	-0.224011	-1.400212	0.192811	-0.239916	0.281099	146.694143	-80.531343	-5.392194
64474	9.426638	0.198766	-1.417713	0.320160	-0.257713	0.282821	148.195397	-80.494719	-6.728006
64475	9.473318	0.603513	-1.301558	0.397407	-0.272619	0.273618	149.725352	-80.442422	-8.048267
64476	9.497182	0.458804	-1.301186	0.425910	-0.271375	0.276520	151.264300	-80.385559	-9.361241
64477	9.695175	0.120322	-1.505009	0.542855	-0.209786	0.269787	152.734702	-80.352503	-10.536958
64478	9.700422	0.021041	-1.857065	0.662335	-0.173004	0.258920	154.179359	-80.330354	-11.617156
64479	9.660100	0.377473	-1.594655	0.743638	-0.158788	0.246784	155.604836	-80.308282	-12.630771
64480	9.541227	0.860892	-1.631620	0.705300	-0.159334	0.242702	156.993181	-80.280619	-13.629009
64481	9.446816	1.294276	-1.796054	0.633363	-0.150927	0.251889	158.348506	-80.255586	-14.635709
64482	9.418740	1.693972	-1.909264	0.476116	-0.165272	0.257531	159.644137	-80.219888	-15.673288
64483	9.412072	1.874681	-1.891175	0.210188	-0.188077	0.259494	160.807346	-80.168737	-16.731303
64484	9.639364	1.425124	-2.617236	-0.052659	-0.180938	0.258207	161.799219	-80.117563	-17.768388
64485	9.686160	0.584233	-2.653700	-0.381080	-0.169829	0.246736	162.544050	-80.068040	-18.745917
64486	9.777179	-0.208225	-2.012867	-0.175266	-0.145714	0.236013	163.343822	-80.027302	-19.659596
64487	9.679981	0.023784	-2.042221	-0.183284	-0.159058	0.233174	164.132913	-79.976947	-20.567263
64488	9.917515	-0.125210	-1.943480	-0.049752	-0.143032	0.209830	164.905595	-79.929348	-21.380657
64489	9.806268	0.262856	-1.444889	-0.140137	-0.098278	0.190837	165.522162	-79.902434	-22.088226
64490	9.443802	0.306651	-2.009973	-0.390683	-0.125901	0.176881	165.971722	-79.856678	-22.772000
64491	9.503138	0.742913	-1.670470	-0.296610	-0.150266	0.156452	166.422624	-79.794014	-23.402540
64492	9.528924	0.932360	-1.826947	-0.427805	-0.146496	0.141532	166.745292	-79.730317	-23.979236
64493	9.635284	0.490268	-2.060532	-0.445542	-0.132950	0.136905	167.026650	-79.673441	-24.524431
64494	9.648038	0.232103	-2.049115	-0.426538	-0.117294	0.145425	167.331544	-79.625471	-25.082531
64495	9.518738	0.136293	-1.897648	-0.263636	-0.107136	0.160531	167.763081	-79.584835	-25.674617
64496	9.426932	0.601392	-1.813569	-0.190395	-0.104393	0.178960	168.288664	-79.546594	-26.319689
64497	9.399548	0.954671	-2.129872	-0.220412	-0.114134	0.199909	168.860328	-79.504588	-27.029243
64498	9.494442	1.034580	-2.040587	-0.267973	-0.105932	0.214680	169.441421	-79.467026	-27.776154
64499	9.641258	0.906515	-1.977486	-0.229369	-0.063642	0.222460	170.039425	-79.453173	-28.517869
64500	9.810382	0.569849	-1.837112	-0.247876	-0.002333	0.213445	170.568431	-79.471247	-29.200156
64501	9.808573	0.173929	-1.551755	-0.271110	-0.004110	0.205059	171.060022	-79.486935	-29.857918
64502	9.723390	-0.095294	-1.677262	-0.248973	0.026642	0.202933	171.546911	-79.518336	-30.497922
64503	9.672854	-0.321004	-1.780658	-0.210832	0.017783	0.196834	172.042747	-79.543709	-31.124769
64504	9.723231	-0.332912	-1.759549	-0.149127	0.016802	0.180499	172.528024	-79.565803	-31.704852
64505	9.716606	-0.265214	-1.664861	-0.095722	0.026694	0.168621	173.004277	-79.592271	-32.244632
64506	9.761561	-0.408340	-1.757035	0.015580	0.029528	0.154115	173.502361	-79.618060	-32.741690
64507	9.817681	-0.392559	-1.660545	0.053716	0.061150	0.138068	173.962792	-79.660590	-33.178241
64508	9.806897	-0.760475	-1.874569	0.151422	0.034557	0.128186	174.461790	-79.686254	-33.597000
64509	10.018341	-0.867216	-1.291444	0.403352	0.066864	0.126164	175.090629	-79.729987	-34.001015
64510	9.798480	-0.811482	-1.684021	0.533456	0.091688	0.126074	175.794220	-79.786590	-34.405122
64511	9.815430	-0.597154	-1.775303	0.721625	0.083651	0.116744	176.581912	-79.837769	-34.785123
64512	9.705036	-0.172154	-1.637490	0.795778	0.109430	0.129825	177.458224	-79.902649	-35.211855
64513	9.562324	0.253062	-1.922536	0.842224	0.113632	0.132237	178.374702	-79.969266	-35.652331
64514	9.443881	0.706109	-1.953411	0.799006	0.098655	0.146370	179.324334	-80.025740	-36.151470
64515	9.440806	0.763769	-1.860774	0.714853	0.088651	0.158088	-179.730110	-80.075535	-36.695405
64516	9.343253	0.488343	-1.714900	0.612527	0.068830	0.175742	-178.777163	-80.111794	-37.306235
64517	9.279846	0.407899	-1.717346	0.528499	0.041533	0.189177	-177.827630	-80.130933	-37.962469
64518	9.480139	0.273249	-1.722167	0.463065	0.053864	0.196236	-176.885605	-80.154586	-38.649049
64519	9.454216	-0.015929	-1.636143	0.377293	0.055291	0.193215	-176.000316	-80.177785	-39.327919
64520	9.487082	-0.224788	-1.769543	0.323155	0.035846	0.191051	-175.153507	-80.187716	-39.999144
64521	9.561317	-0.610231	-1.746428	0.250095	0.012494	0.192655	-174.350909	-80.183096	-40.668015
64522	9.719992	-0.859340	-1.665705	0.303091	-0.000357	0.184861	-173.547573	-80.169513	-41.306799
64523	9.659331	-0.755598	-1.770703	0.343772	-0.005319	0.167542	-172.783313	-80.153316	-41.882335
64524	9.662151	-0.564743	-1.665470	0.376056	-0.002455	0.162247	-172.017155	-80.137312	-42.441006
64525	9.656429	-0.351243	-1.717544	0.405668	0.004194	0.157135	-171.251253	-80.124753	-42.982265
64526	9.594369	-0.049693	-1.671860	0.382688	0.004878	0.154295	-170.507392	-80.111088	-43.514490
64527	9.553297	0.211353	-1.729791	0.314780	0.016973	0.157945	-169.787118	-80.103260	-44.062333
64528	9.533915	0.413308	-1.596097	0.232799	0.014301	0.164800	-169.092933	-80.091514	-44.631349
64529	9.530650	0.395977	-1.526611	0.127428	0.013046	0.170027	-168.446148	-80.077870	-45.213599
64530	9.517176	0.256486	-1.472409	0.040617	0.002082	0.178832	-167.829047	-80.055415	-45.816210
64531	9.594229	0.178351	-1.743974	-0.007443	-0.017903	0.188687	-167.226485	-80.019978	-46.432101
64532	9.834710	0.052512	-1.624526	-0.057808	-0.009518	0.193350	-166.635173	-79.986994	-47.065914
64533	9.821594	-0.358600	-1.686350	-0.101729	-0.002637	0.196814	-166.057691	-79.956768	-47.711320
64534	9.718786	-0.652872	-1.808303	-0.033680	-0.007074	0.196661	-165.448339	-79.922428	-48.349544
64535	9.670468	-0.801628	-1.705293	-0.016324	-0.005249	0.203767	-164.810509	-79.887353	-49.006680
64536	9.726973	-0.948097	-1.630086	0.079295	-0.004850	0.202324	-164.125865	-79.850873	-49.655770
64537	9.651996	-0.801601	-1.672452	0.101094	-0.004266	0.196399	-163.451917	-79.814833	-50.281398
64538	9.681875	-0.795553	-1.636432	0.128240	-0.011196	0.186765	-162.802016	-79.774796	-50.866840
64539	9.706975	-0.661994	-1.690555	0.145727	-0.008623	0.191865	-162.129927	-79.734617	-51.464745
64540	9.658568	-0.542436	-1.852933	0.143347	-0.012900	0.188772	-161.476903	-79.690908	-52.044713
64541	9.712393	-0.688880	-1.742223	0.150263	-0.003018	0.191105	-160.808887	-79.651465	-52.635996
64542	9.664601	-0.767875	-1.707253	0.189204	0.006507	0.197562	-160.093592	-79.614112	-53.252707
64543	9.712527	-0.571745	-1.761004	0.227338	0.010449	0.206434	-159.331865	-79.576227	-53.894511
64544	9.700228	-0.391988	-1.748982	0.249873	0.014199	0.200786	-158.573805	-79.539432	-54.519511
64545	9.890474	-0.585159	-1.590182	0.237800	0.020006	0.205518	-157.807911	-79.503761	-55.159609
64546	9.811407	-0.621026	-1.625019	0.256979	0.030368	0.213958	-156.998933	-79.469578	-55.832403
64547	9.561130	-0.689664	-1.581428	0.262694	0.031120	0.221966	-156.168663	-79.432754	-56.523620
64548	9.511801	-0.553089	-1.587302	0.243227	0.024560	0.222216	-155.362093	-79.390106	-57.202148
64549	9.587211	-0.679605	-1.677848	0.209142	0.029793	0.227955	-154.558869	-79.347571	-57.897252
64550	9.691478	-0.820549	-1.868741	0.244533	0.036212	0.234148	-153.715647	-79.304429	-58.612508
64551	9.896406	-0.679115	-1.772879	0.267803	0.040363	0.241770	-152.839615	-79.259996	-59.347704
64552	10.082740	-0.637061	-1.533676	0.289465	0.054686	0.244980	-151.928971	-79.219320	-60.105592
64553	9.884162	-0.654443	-1.590435	0.279093	0.068549	0.252892	-150.990017	-79.181714	-60.898459
64554	9.713527	-0.589213	-1.632327	0.261591	0.080974	0.258290	-150.034645	-79.145810	-61.718344
64555	9.628093	-0.644264	-1.644039	0.251407	0.078340	0.263344	-149.082306	-79.105098	-62.541191
64556	9.516453	-0.733032	-1.794118	0.229459	0.075397	0.274043	-148.127016	-79.056664	-63.379977
64557	9.530923	-0.859996	-1.760457	0.250539	0.067390	0.280427	-147.164617	-79.000256	-64.213847
64558	9.664611	-0.739921	-1.771415	0.268863	0.069953	0.294082	-146.163856	-78.937550	-65.076283
64559	9.729501	-0.670037	-1.783142	0.281299	0.077924	0.302122	-145.133935	-78.873614	-65.961349
64560	9.724258	-0.577525	-1.506216	0.253610	0.081194	0.308597	-144.110669	-78.805509	-66.856022
64561	9.824567	-0.732430	-1.653850	0.217490	0.084478	0.318765	-143.090306	-78.732890	-67.769033
64562	9.858610	-0.822534	-1.411307	0.184194	0.086155	0.322742	-142.090263	-78.656039	-68.681042
64563	9.745573	-0.916959	-1.559625	0.196447	0.091830	0.336940	-141.054204	-78.574000	-69.622856
64564	9.666855	-0.708735	-1.679715	0.205778	0.092746	0.343190	-140.012759	-78.486268	-70.565025
64565	9.909624	-0.883910	-1.744383	0.193385	0.093751	0.362161	-138.951043	-78.388949	-71.535409
64566	9.829331	-0.729296	-1.512012	0.168614	0.125663	0.379343	-137.827136	-78.294625	-72.584164
64567	9.625440	-0.840610	-1.836151	0.145804	0.127631	0.388020	-136.711898	-78.194075	-73.637737
64568	9.817148	-0.586170	-1.542354	0.137258	0.114878	0.404719	-135.613123	-78.077078	-74.679970
64569	9.866990	-0.469562	-1.645839	0.017025	0.132502	0.423444	-134.533750	-77.956018	-75.773189
64570	9.812118	-0.501087	-1.811566	-0.010588	0.135462	0.435322	-133.466038	-77.826632	-76.871248
64571	10.042506	-0.594103	-1.671725	-0.090103	0.146211	0.435248	-132.444536	-77.697669	-77.969099
64572	10.245097	-1.224107	-1.863364	-0.203147	0.167977	0.434835	-131.469676	-77.572853	-79.086135
64573	10.440937	-2.021309	-1.725969	-0.171788	0.190458	0.432144	-130.456717	-77.453841	-80.224217
64574	10.460557	-2.682634	-1.455422	-0.037892	0.219609	0.420756	-129.350608	-77.345698	-81.379745
64575	10.166099	-2.769466	-1.432032	0.137146	0.227913	0.396791	-128.183336	-77.246575	-82.495530
64576	9.996970	-2.274329	-1.225024	0.298439	0.219656	0.379338	-126.986582	-77.147104	-83.547311
64577	9.719882	-1.528020	-1.175055	0.389098	0.229683	0.373422	-125.742397	-77.049167	-84.594781
64578	9.814486	-0.754390	-1.364021	0.402044	0.219459	0.395359	-124.500008	-76.932196	-85.633342
64579	10.050100	-0.311475	-1.249933	0.325173	0.229607	0.421416	-123.264630	-76.801367	-86.710355
64580	10.015400	-0.316300	-1.407420	0.186633	0.248840	0.452245	-122.054078	-76.656170	-87.844142
64581	9.963424	-0.855740	-1.644599	0.116581	0.253053	0.475577	-120.869954	-76.495663	-88.992624
64582	9.984011	-1.342272	-1.670655	0.147790	0.247188	0.498424	-119.683173	-76.316506	-90.126403
64583	10.013875	-1.749788	-1.527924	0.216727	0.260372	0.516277	-118.438727	-76.126622	-91.279633
64584	9.929530	-2.048976	-1.386916	0.337112	0.276591	0.536279	-117.106745	-75.924670	-92.453123
64585	9.724851	-2.052207	-1.150866	0.457148	0.271090	0.547704	-115.740056	-75.708954	-93.592388
64586	9.643730	-1.807917	-0.934218	0.532047	0.270777	0.560135	-114.359727	-75.479977	-94.702720
64587	9.508140	-1.548780	-0.674513	0.548036	0.284093	0.568105	-112.973641	-75.243370	-95.810538
64588	9.373830	-1.364062	-0.635118	0.460708	0.289228	0.583289	-111.656646	-74.993246	-96.900053
64589	9.257759	-1.389471	-0.671096	0.377418	0.297941	0.592996	-110.400274	-74.733538	-97.977329
64590	9.150614	-1.643244	-0.795779	0.264343	0.295786	0.598280	-109.249969	-74.464744	-99.013330
64591	9.126578	-1.941252	-0.905070	0.210708	0.287925	0.600962	-108.178840	-74.187727	-100.000202
64592	9.106275	-2.345612	-1.049848	0.197451	0.280099	0.605914	-107.164677	-73.901922	-100.937296
64593	9.037558	-2.706311	-0.994333	0.227557	0.282698	0.604467	-106.161421	-73.612758	-101.846225
64594	8.855339	-3.003284	-0.924558	0.301024	0.275601	0.613633	-105.160038	-73.313130	-102.710869
64595	8.802093	-3.025860	-0.759642	0.384754	0.262201	0.609852	-104.168156	-73.009318	-103.516625
64596	8.762859	-2.940783	-0.645479	0.456586	0.260149	0.615064	-103.170305	-72.698401	-104.287087
64597	8.718779	-2.818800	-0.414708	0.476145	0.261022	0.611562	-102.190385	-72.385587	-105.028104
64598	8.717136	-2.737851	-0.348912	0.461338	0.264610	0.616563	-101.242535	-72.066774	-105.745859
64599	8.807311	-2.596166	-0.514985	0.410847	0.268585	0.616982	-100.343616	-71.744571	-106.443664
64600	9.347566	-2.217351	-0.620810	0.286113	0.259424	0.613492	-99.561147	-71.420389	-107.095570
64601	9.772020	-1.800828	-0.487782	0.128603	0.260974	0.605265	-98.890515	-71.098306	-107.725701
64602	9.746244	-2.026562	-0.572385	-0.062809	0.259467	0.585116	-98.359202	-70.785584	-108.325890
64603	9.365040	-2.537373	-0.667723	-0.164122	0.253939	0.577108	-97.912523	-70.475109	-108.898809
64604	9.089490	-3.065017	-0.677469	-0.111340	0.242066	0.585991	-97.470259	-70.157462	-109.436277
64605	8.968057	-3.099207	-0.550983	-0.004590	0.240914	0.596810	-96.980804	-69.831871	-109.959722
64606	8.950659	-2.773272	-0.497734	0.077348	0.245265	0.609136	-96.453580	-69.498244	-110.474740
64607	9.098640	-2.353198	-0.476242	0.082274	0.244226	0.628291	-95.937116	-69.151759	-110.976132
64608	9.338478	-1.971932	-0.417493	0.028213	0.259332	0.644609	-95.444898	-68.795597	-111.486171
64609	9.191418	-1.915439	-0.383445	-0.089557	0.261675	0.671243	-95.027780	-68.422604	-111.989016
64610	9.102506	-2.376052	-0.415904	-0.171992	0.262240	0.694302	-94.671128	-68.035655	-112.479219
64611	9.012353	-2.971761	-0.263339	-0.212695	0.263814	0.710320	-94.346866	-67.638139	-112.960697
64612	9.061577	-3.467227	-0.379281	-0.167807	0.261787	0.732770	-94.013241	-67.227147	-113.426162
64613	9.029319	-3.681997	-0.383283	-0.038447	0.268731	0.744286	-93.608547	-66.808217	-113.889431
64614	8.972063	-3.632521	-0.280375	0.072693	0.260165	0.762432	-93.167290	-66.377786	-114.324937
64615	8.913141	-3.477048	-0.214806	0.178904	0.252100	0.782369	-92.688963	-65.933842	-114.735585
64616	8.987470	-3.316185	-0.147712	0.236688	0.244499	0.805684	-92.203399	-65.475501	-115.119613
64617	8.969117	-3.158582	-0.183585	0.276925	0.233866	0.824031	-91.721717	-65.004609	-115.475081
64618	9.040857	-2.913686	-0.174030	0.278217	0.216080	0.851206	-91.276395	-64.517263	-115.791255
64619	9.220478	-2.809664	-0.228475	0.265578	0.200828	0.868590	-90.868600	-64.018236	-116.074776
64620	9.246878	-2.724351	-0.143922	0.237125	0.191231	0.891097	-90.501705	-63.506077	-116.332448
64621	9.213095	-2.694442	-0.201340	0.273291	0.172939	0.921387	-90.145089	-62.975143	-116.556220
64622	9.299389	-2.424617	-0.012531	0.293318	0.158347	0.963530	-89.805298	-62.420217	-116.749605
64623	9.363315	-2.112560	0.176385	0.286295	0.147953	1.015989	-89.490084	-61.834019	-116.920370
64624	9.434740	-1.904795	0.117335	0.292059	0.132307	1.069256	-89.199351	-61.217883	-117.060889
64625	9.564376	-1.725050	0.319879	0.274100	0.113138	1.120264	-88.946805	-60.571498	-117.169932
64626	9.813854	-1.626856	0.213240	0.264780	0.091722	1.174438	-88.730372	-59.895188	-117.244661
64627	10.124385	-1.549982	0.114263	0.312559	0.060269	1.260024	-88.524193	-59.169082	-117.275838
64628	10.221067	-1.551575	0.141995	0.344112	0.021062	1.342024	-88.344924	-58.397861	-117.255112
64629	10.352460	-1.927416	0.342029	0.414989	0.003778	1.416765	-88.145539	-57.582894	-117.209579
64630	10.505008	-2.439321	0.420975	0.507415	-0.014305	1.489787	-87.915908	-56.728078	-117.137088
64631	10.854089	-2.839046	0.659174	0.586315	-0.029450	1.574473	-87.659378	-55.823773	-117.041346
64632	10.983861	-3.157857	0.503537	0.534645	-0.003987	1.636184	-87.417403	-54.885479	-116.963376
64633	11.118515	-3.615288	0.514307	0.447964	-0.030422	1.691582	-87.249903	-53.914622	-116.853440
64634	11.323267	-4.262870	0.571563	0.427778	-0.023018	1.745752	-87.091669	-52.914673	-116.745547
64635	10.678319	-4.879947	0.150974	0.419198	0.013183	1.762045	-86.912024	-51.902581	-116.668864
64636	10.403886	-5.531556	-0.113949	0.595935	-0.046435	1.721118	-86.675437	-50.918087	-116.535032
64637	10.548518	-5.552878	-0.326628	0.800308	-0.054882	1.649701	-86.326388	-49.973072	-116.392725
64638	10.108723	-5.256362	-0.855695	0.887023	0.026293	1.528476	-85.872788	-49.097075	-116.321311
64639	9.286482	-5.117128	-1.079154	0.932923	0.087044	1.332599	-85.349766	-48.328512	-116.305696
64640	8.553887	-5.204009	-1.296598	0.816055	0.102493	1.084412	-84.878473	-47.703362	-116.311216
64641	8.182944	-5.552883	-1.308058	0.710375	0.100305	0.864757	-84.460846	-47.201260	-116.325316
64642	7.958187	-6.467825	-0.713378	0.813019	0.007931	0.708289	-84.036401	-46.796063	-116.269372
64643	8.601468	-7.843393	1.215112	1.089636	-0.152804	0.615745	-83.546171	-46.451394	-116.084594
64644	9.814100	-8.325886	2.147510	0.657060	-0.287660	0.731945	-83.393264	-46.052555	-115.775819
64645	11.182265	-9.444312	-0.382366	-0.298256	-0.412029	1.056664	-83.875595	-45.473627	-115.340823
64646	12.067625	-10.237338	-2.527203	-0.142676	-0.330515	1.363903	-84.230154	-44.715075	-114.956424
64647	11.239117	-9.366913	-2.548052	0.488992	-0.140144	1.484179	-84.113595	-43.873829	-114.721820
64648	10.087352	-7.918246	-1.131639	0.828535	0.053297	1.365246	-83.691678	-43.091949	-114.646155
64649	9.276582	-6.378591	0.909467	0.646663	0.269955	1.049792	-83.243658	-42.473370	-114.759938
64650	8.859415	-5.476979	2.523546	0.369829	0.605974	0.624900	-82.760935	-42.075015	-115.163712
64651	8.219362	-5.667413	3.755252	0.021963	0.926468	0.189722	-82.288814	-41.894803	-115.850343
64652	7.438253	-7.139522	2.993762	-0.546960	0.951451	-0.105273	-82.113006	-41.880085	-116.583990
64653	7.123415	-9.124086	1.208166	-0.886916	0.663858	-0.181865	-82.271704	-41.928287	-117.106902
64654	7.838155	-10.268990	0.338738	-0.851755	0.352684	-0.119065	-82.573984	-41.968752	-117.385593
64655	8.491036	-10.019524	0.066684	-0.626474	0.271835	-0.042072	-82.792599	-41.969448	-117.595106
64656	7.960295	-8.469126	0.271504	-0.668631	0.417982	-0.077394	-82.959366	-41.983175	-117.919427
