// General information: 
//  MT Manager version: 2022.2.0 
//  XDA version: 2022.2.0 build 7381 rev 124627 built on 2023-07-19
// Device information: 
//  DeviceId: 00B4BAF3
//  ProductCode: MTW2-3A7G6
//  Firmware Version: 4.6.0
//  Hardware Version: 2.0.0
// Device settings: 
//  Filter Profile: human(46.1)
//  Option Flags: Orientation Smoother Disabled, Position/Velocity Smoother Disabled, Continuous Zero Rotation Update Disabled, AHS Disabled, ICC Disabled
// Coordinate system: ENU
PacketCounter	Acc_X	Acc_Y	Acc_Z	Gyr_X	Gyr_Y	Gyr_Z	Roll	Pitch	Yaw
04506	9.219261	0.608552	1.958046	-0.381042	-0.161330	-0.426200	35.016476	-75.263165	-126.242132
04507	9.167398	0.663234	2.075833	-0.369407	-0.159292	-0.404844	35.734208	-75.204664	-127.201882
04508	9.050407	0.719328	2.080225	-0.352269	-0.156666	-0.368091	36.382698	-75.155256	-128.080399
04509	8.998849	0.804881	2.133474	-0.341721	-0.144958	-0.308471	36.919314	-75.117691	-128.836789
04510	8.915086	0.710286	2.246147	-0.384329	-0.126157	-0.254815	37.307097	-75.089377	-129.464852
04511	8.853528	0.221870	1.722072	-0.293625	-0.171173	-0.200896	37.717480	-75.098336	-130.062247
04512	8.941829	0.547234	1.974702	-0.293439	-0.144694	-0.115505	37.943683	-75.125348	-130.469209
04513	8.919519	-0.081968	1.900048	-0.370450	-0.168822	-0.043454	38.041380	-75.187492	-130.788498
04514	9.132758	0.103066	1.983415	-0.346366	-0.165902	0.040773	38.001770	-75.278881	-130.951699
04515	9.068771	-0.212892	2.138682	-0.413860	-0.117042	0.138664	37.693371	-75.381839	-130.876675
04516	8.973874	-0.896270	1.974797	-0.358062	-0.142661	0.225820	37.290850	-75.527575	-130.671708
04517	8.955455	-1.266286	2.007522	-0.295005	-0.168899	0.332991	36.766042	-75.721042	-130.303090
04518	9.372831	-2.233444	1.836353	-0.198609	-0.172810	0.410784	36.141940	-75.942687	-129.775709
04519	9.308300	-1.708352	1.873949	0.198527	-0.307663	0.411578	35.915460	-76.225361	-129.423884
04520	9.147685	0.353503	1.669578	0.204593	-0.314506	0.384478	35.737896	-76.502581	-129.119485
04521	9.820913	0.799361	0.987008	0.362450	-0.318280	0.267783	35.882230	-76.741696	-129.053095
04522	9.620802	0.941147	1.455973	0.667998	-0.316332	0.170398	36.391859	-76.947810	-129.182349
04523	9.284075	1.292050	1.420189	0.629606	-0.338936	0.195387	36.877656	-77.171901	-129.309404
04524	9.125204	2.043330	0.779253	0.647662	-0.391646	0.225301	37.400630	-77.430861	-129.464045
04525	9.850294	2.492436	1.058695	0.391352	-0.292494	0.294161	37.492730	-77.667826	-129.327491
04526	9.869937	2.639265	1.805893	0.363088	-0.325581	0.298778	37.606565	-77.922183	-129.230059
04527	10.011936	2.918950	2.160855	0.157777	-0.320004	0.292451	37.611657	-78.171102	-129.141626
04528	9.897225	2.121671	1.724903	0.063510	-0.321387	0.286418	37.570554	-78.419250	-129.061435
04529	9.900561	1.612708	2.070692	0.066381	-0.323010	0.292548	37.523240	-78.669511	-128.973116
04530	9.748343	1.105274	2.143512	0.091854	-0.344191	0.317944	37.460301	-78.938991	-128.854255
04531	9.674829	0.636192	2.046512	0.219007	-0.373139	0.331346	37.493625	-79.225526	-128.759160
04532	9.570350	0.201590	1.763215	0.402445	-0.391536	0.354391	37.603486	-79.529262	-128.635282
04533	9.659411	0.228923	1.536913	0.580070	-0.427885	0.369624	37.855037	-79.854108	-128.551920
04534	9.792434	0.496772	1.175868	0.719913	-0.451092	0.370205	38.232649	-80.190487	-128.515468
04535	9.862208	0.954131	1.220145	0.768319	-0.471481	0.372139	38.695615	-80.535977	-128.537332
04536	9.670604	0.844656	1.198052	0.773777	-0.509368	0.363085	39.283225	-80.895801	-128.682467
04537	9.776743	0.589797	1.193927	0.801661	-0.596210	0.359324	40.142674	-81.291429	-129.086283
04538	10.047306	0.258066	0.745977	0.785119	-0.571034	0.343128	41.028122	-81.669857	-129.525704
04539	10.072557	0.500005	0.853639	0.802613	-0.552622	0.322588	42.007039	-82.030701	-130.048880
04540	10.068150	0.901075	0.936270	0.786207	-0.527731	0.302717	43.028962	-82.372785	-130.624629
04541	10.141229	1.254659	0.837984	0.730155	-0.511240	0.294421	44.076875	-82.702486	-131.258420
04542	10.003902	1.339779	0.901642	0.642314	-0.504715	0.290098	45.136319	-83.027032	-131.954198
04543	10.020295	1.478634	0.860981	0.596946	-0.514047	0.290862	46.294283	-83.353058	-132.774798
04544	9.860269	1.540126	0.966049	0.519054	-0.520976	0.299190	47.495435	-83.684069	-133.683325
04545	9.732349	1.319616	0.851857	0.436353	-0.488697	0.304899	48.621716	-84.002101	-134.563552
04546	9.660642	1.122213	0.835523	0.384554	-0.491649	0.306876	49.824140	-84.321035	-135.549722
04547	9.545649	0.925086	0.654941	0.342844	-0.479453	0.307602	51.082355	-84.632654	-136.615338
04548	9.524696	0.751058	0.505927	0.330875	-0.485119	0.311550	52.477600	-84.946589	-137.824967
04549	9.389492	0.862752	0.440403	0.320114	-0.476274	0.307673	54.016903	-85.251783	-139.184732
04550	9.209031	1.051302	0.602903	0.268312	-0.463552	0.300841	55.661476	-85.547284	-140.679352
04551	9.207988	1.173711	0.720143	0.198047	-0.451720	0.294723	57.446913	-85.831317	-142.354969
04552	9.197441	0.721601	0.434931	0.157591	-0.428845	0.294464	59.280594	-86.105356	-144.101643
04553	9.449949	0.481995	0.127992	0.227682	-0.443319	0.301878	61.521854	-86.381479	-146.215913
04554	9.634676	0.662491	-0.239509	0.280306	-0.448429	0.317241	64.114134	-86.661919	-148.651036
04555	9.765267	0.826612	-0.108607	0.304323	-0.436588	0.318987	67.066267	-86.931748	-151.432089
04556	10.140289	1.051083	0.017140	0.357015	-0.485024	0.266150	71.311697	-87.174238	-155.477269
04557	10.359863	1.589330	0.649679	0.243201	-0.429514	0.272963	75.550903	-87.393958	-159.580698
04558	9.645445	0.715256	0.298857	0.118868	-0.402729	0.274796	80.074716	-87.597421	-164.039622
04559	9.677145	0.859219	0.752067	0.122058	-0.428643	0.251916	85.809111	-87.770002	-169.707673
04560	9.890475	0.058837	0.136441	0.032367	-0.377646	0.252146	91.559345	-87.919809	-175.442376
04561	9.927710	-0.564950	-0.462927	0.150459	-0.373882	0.255484	98.138570	-88.046105	178.061616
04562	10.136458	-0.335920	-0.880868	0.183169	-0.363301	0.235512	105.261582	-88.135834	171.040698
04563	10.192049	-0.018447	-0.851185	0.172024	-0.328175	0.215935	112.227381	-88.190426	164.170932
04564	10.263259	-0.094121	-0.924639	0.063138	-0.299057	0.186256	118.731389	-88.212128	157.700950
04565	10.224587	-0.600052	-1.168919	0.018937	-0.287672	0.163718	124.856038	-88.202294	151.585124
04566	10.212053	-0.365375	-1.053556	0.027624	-0.261139	0.144336	130.286938	-88.175141	146.168381
04567	10.070226	-0.128326	-0.908459	-0.002311	-0.220721	0.119531	134.660505	-88.137238	141.792154
04568	9.994543	-0.105187	-0.777197	-0.042055	-0.196528	0.109715	138.439143	-88.096949	137.988399
04569	9.876477	0.105905	-0.523184	-0.037524	-0.187679	0.095856	141.745131	-88.046524	134.659934
04570	9.796157	0.219606	-0.442221	-0.064291	-0.165756	0.087571	144.570279	-87.998634	131.797276
04571	9.866885	0.333184	-0.575938	-0.061309	-0.148483	0.088630	147.092677	-87.953516	129.239050
04572	9.799882	0.180772	-0.837477	-0.058007	-0.116705	0.086541	149.250616	-87.920752	127.047486
04573	9.912533	0.426497	-0.856505	-0.016837	-0.120742	0.090117	151.409137	-87.882899	124.878745
04574	9.824597	0.602041	-0.875405	-0.054850	-0.088667	0.094905	153.345113	-87.860896	122.911016
04575	9.756378	0.513990	-0.729831	-0.087263	-0.079734	0.080712	154.935847	-87.836612	121.269990
04576	9.661988	0.347691	-0.554665	-0.096986	-0.072142	0.080963	156.474919	-87.815749	119.675232
04577	9.583049	0.276123	-0.458573	-0.118312	-0.059607	0.067182	157.677168	-87.795922	118.405118
04578	9.676461	0.169088	-0.386353	-0.105793	-0.062299	0.065169	158.884436	-87.774253	117.137318
04579	9.601530	-0.411443	-0.652303	-0.105343	-0.041343	0.062752	159.895147	-87.761374	116.066286
04580	9.858159	-0.045330	-0.494976	0.007643	-0.042266	0.067998	161.069561	-87.749199	114.896384
04581	9.843081	-0.004882	-0.842490	0.021480	-0.040243	0.065892	162.165998	-87.735864	113.812254
04582	9.783300	0.595417	-0.371488	0.037547	-0.028558	0.058728	163.145842	-87.727874	112.854203
04583	9.863217	0.374044	-0.584101	-0.049351	-0.023700	0.051062	163.908066	-87.719784	112.063913
04584	9.784222	0.147749	-0.518132	-0.014064	0.004305	0.058368	164.715827	-87.728774	111.248482
04585	9.825524	0.143339	-0.643512	0.005909	-0.015696	0.061109	165.615029	-87.725682	110.352790
04586	9.842004	0.350667	-0.560004	0.033504	0.003019	0.067344	166.589157	-87.734176	109.398140
04587	9.943104	0.377867	-0.559909	0.019533	-0.004350	0.065824	167.525816	-87.736836	108.472773
04588	9.924578	0.391387	-0.479687	0.010453	0.011124	0.067236	168.472727	-87.748603	107.532152
04589	9.819780	0.397687	-0.312825	-0.001026	0.007829	0.061944	169.315934	-87.756494	106.688528
04590	9.769384	0.400625	-0.147555	-0.006304	0.001552	0.060085	170.190639	-87.760996	105.810570
04591	9.815817	0.328449	-0.328555	-0.026843	0.000083	0.061279	171.036611	-87.763450	104.949385
04592	9.696635	0.221050	-0.449980	-0.011023	0.002568	0.060869	171.923525	-87.767558	104.056506
04593	9.647598	0.328671	-0.579755	0.008117	-0.002315	0.064211	172.840054	-87.767829	103.144759
04594	9.570069	0.326442	-0.643636	0.001993	0.002302	0.056315	173.672653	-87.770397	102.313701
04595	9.664455	0.323239	-0.860635	0.007042	0.001038	0.060489	174.529535	-87.771276	101.461025
04596	9.679310	0.468078	-0.701364	0.022529	0.006938	0.064745	175.495034	-87.775918	100.508745
04597	9.775979	0.525921	-0.515311	-0.004915	0.011631	0.063713	176.384216	-87.781891	99.616884
04598	9.755256	0.493237	-0.377785	-0.030763	0.016529	0.060933	177.263675	-87.790726	98.720160
04599	9.729704	0.403987	-0.256146	-0.056193	0.019625	0.049019	177.909803	-87.799919	98.042139
04600	9.625068	-0.070393	-0.397673	-0.068151	0.027026	0.042632	178.502938	-87.813599	97.410524
04601	9.643694	-0.219106	-0.548073	-0.030392	0.024090	0.040108	179.040156	-87.824699	96.856298
04602	9.821315	-0.276142	-0.773203	-0.007459	0.039973	0.039024	179.626323	-87.845295	96.266465
04603	9.879544	-0.039100	-1.010388	0.041042	0.042847	0.044524	-179.712491	-87.866687	95.629150
04604	9.993448	0.150796	-1.028718	0.056500	0.044977	0.040674	-179.038936	-87.889633	94.988557
04605	9.918293	-0.236102	-1.122722	0.108386	0.074180	0.059049	-178.068092	-87.928095	94.079996
04606	10.079218	0.919423	-0.391354	0.156792	0.048102	0.060712	-176.976595	-87.951554	93.078717
04607	10.078613	0.626580	-0.401914	0.024189	0.080213	0.061332	-175.944627	-87.992121	92.060751
04608	10.119110	0.422335	-0.333078	0.055903	0.093076	0.075357	-174.543569	-88.039116	90.691931
04609	9.893147	0.291662	-0.151239	0.027839	0.105807	0.080611	-173.034629	-88.091346	89.198873
04610	9.754021	0.292461	0.017924	0.038931	0.109254	0.081035	-171.358469	-88.144499	87.545157
04611	9.511062	0.381290	0.094304	0.012509	0.103194	0.067395	-169.928476	-88.193652	86.122397
04612	9.350380	0.395115	0.269157	-0.050228	0.090203	0.045550	-168.837407	-88.237088	85.003036
04613	9.338337	0.011551	0.119237	-0.110232	0.087717	0.020589	-168.269796	-88.281211	84.372783
04614	9.518508	-0.055957	0.083988	-0.092559	0.097808	0.016245	-167.631066	-88.331528	83.681748
04615	9.442759	-0.135599	-0.262894	-0.157563	0.120981	0.007878	-167.122005	-88.395464	83.082986
04616	9.713140	0.096931	-0.455085	-0.127707	0.103336	0.000800	-166.706438	-88.450492	82.595093
04617	9.810256	0.321873	-0.313962	-0.175265	0.096703	0.000278	-166.410241	-88.501661	82.199158
04618	9.788268	0.447661	-0.295965	-0.242677	0.094462	-0.010611	-166.298854	-88.553155	81.949673
04619	9.693303	0.360314	-0.272149	-0.289388	0.087955	-0.021252	-166.566963	-88.602334	82.052832
04620	9.773545	0.653913	-0.103607	-0.396638	0.110975	-0.024620	-166.772263	-88.664919	82.031899
04621	9.645013	0.431873	-0.068678	-0.463680	0.089296	-0.042730	-167.699024	-88.717551	82.693994
04622	9.757363	0.069362	0.118532	-0.571614	0.134619	-0.042260	-168.398190	-88.795477	83.066766
04623	9.597070	-0.002802	0.018102	-0.509893	0.093257	-0.072600	-170.321219	-88.852946	84.698834
04624	9.716096	0.116401	0.138423	-0.570999	0.142099	-0.067199	-171.982512	-88.936758	86.034245
04625	9.674171	-0.248654	-0.281606	-0.516491	0.161700	-0.039490	-172.990135	-89.028747	86.746907
04626	9.698011	-0.226575	-0.547440	-0.341812	0.153953	-0.031859	-173.680920	-89.115908	87.242942
04627	9.770808	0.259911	-0.483875	-0.244035	0.130644	0.000860	-173.370977	-89.187363	86.793984
04628	9.765615	0.588863	-0.600307	-0.203146	0.124509	0.026004	-171.733521	-89.253606	85.041001
04629	9.847870	0.914138	-0.544654	-0.172678	0.120293	0.040794	-169.273342	-89.314990	82.482537
04630	9.905158	1.066410	-0.414464	-0.174973	0.130998	0.062345	-164.885386	-89.377665	77.995067
04631	9.941453	1.094993	-0.264129	-0.171242	0.127483	0.081155	-158.826926	-89.430326	71.839010
04632	9.885314	0.926336	-0.201926	-0.164375	0.145248	0.108326	-149.353608	-89.475838	62.272107
04633	9.739307	0.620037	0.027892	-0.142582	0.158938	0.122564	-137.358059	-89.505903	50.195244
04634	9.684603	0.356337	0.137965	-0.094636	0.138227	0.136311	-124.834525	-89.497241	37.618044
04635	9.721993	0.278985	0.261803	-0.044496	0.107638	0.147601	-114.813005	-89.454702	27.571474
04636	9.712556	0.151749	0.232432	-0.036217	0.099322	0.153909	-106.674047	-89.391168	19.412382
04637	9.685876	-0.046875	0.167220	-0.017855	0.091469	0.156284	-100.600908	-89.317798	13.329500
04638	9.665030	-0.166227	0.176080	-0.012504	0.081503	0.151889	-96.135621	-89.237900	8.857723
04639	9.599426	-0.316743	0.014882	-0.025675	0.073574	0.142776	-92.912430	-89.161594	5.620384
04640	9.575188	-0.365398	-0.082507	-0.041066	0.052978	0.128622	-90.953288	-89.088705	3.638512
04641	9.586078	-0.276709	-0.184128	-0.072676	0.047724	0.113287	-89.505485	-89.026085	2.149746
04642	9.594772	-0.311596	-0.202294	-0.125051	0.046455	0.102688	-88.269169	-88.966628	0.842609
04643	9.768346	-0.344712	-0.236054	-0.141345	0.039857	0.092578	-87.387367	-88.915068	-0.119466
04644	9.795448	-0.164520	-0.084069	-0.143221	0.040589	0.087920	-86.541052	-88.863505	-1.046987
04645	9.789779	-0.108973	-0.019454	-0.177499	0.053198	0.085215	-85.455182	-88.815082	-2.233927
04646	9.887822	-0.326756	0.067695	-0.158481	0.053607	0.087585	-84.428968	-88.762450	-3.350166
04647	9.818215	-0.269603	0.026363	-0.115797	0.058407	0.091899	-83.369697	-88.709061	-4.475182
04648	9.855836	-0.213067	0.134066	-0.074421	0.070538	0.095928	-82.085650	-88.649585	-5.801193
04649	9.921807	-0.035453	-0.011259	-0.049097	0.061515	0.104227	-81.141924	-88.588006	-6.772453
04650	9.813177	-0.153387	-0.086543	-0.080243	0.098579	0.094333	-79.440599	-88.525473	-8.519279
04651	9.893890	-0.241026	-0.144330	-0.034047	0.085264	0.073797	-78.043213	-88.477256	-9.935777
04652	10.002593	-0.232653	-0.004738	-0.045481	0.092784	0.075985	-76.598315	-88.423515	-11.406243
04653	9.959129	-0.453518	-0.070735	-0.018270	0.092546	0.074163	-75.227396	-88.372319	-12.787288
04654	9.937976	-0.276580	0.283934	0.021713	0.089451	0.070348	-73.960698	-88.320370	-14.041039
04655	9.829136	-0.152083	0.371326	0.035619	0.084874	0.067577	-72.823532	-88.272400	-15.157404
04656	9.734075	-0.299656	0.470586	0.017732	0.100063	0.068209	-71.503082	-88.218266	-16.467281
04657	9.519855	-0.524712	0.581933	0.064196	0.094486	0.069893	-70.328771	-88.165854	-17.604479
04658	9.473585	-0.667919	0.484629	0.120450	0.056793	0.047297	-69.676154	-88.129988	-18.187358
04659	9.385432	-0.050858	0.596175	0.113792	0.014865	0.025065	-69.583136	-88.116721	-18.214283
04660	9.306605	-0.503775	0.427682	-0.039846	0.055939	0.008592	-68.824888	-88.101501	-18.994758
04661	9.334066	-0.555035	0.417908	0.015302	-0.008181	-0.019755	-68.885583	-88.116934	-18.924337
04662	9.414685	-0.562789	0.248477	0.004617	-0.000535	-0.034775	-68.745636	-88.136401	-19.060683
04663	9.271424	-0.356905	0.287343	0.017870	-0.008264	-0.033651	-68.717102	-88.159259	-19.078061
04664	9.380501	-0.513458	0.079510	0.028577	-0.025762	-0.027881	-69.027300	-88.180256	-18.750295
04665	9.496613	-0.542658	0.130379	0.035645	-0.034046	-0.012909	-69.565124	-88.197217	-18.190842
04666	9.439731	-0.242305	0.200169	0.001685	-0.064859	-0.030546	-70.570466	-88.227064	-17.183016
04667	9.505123	0.148576	0.166005	-0.099093	-0.065831	-0.048806	-71.566182	-88.268830	-16.242711
04668	9.420910	-0.164514	-0.053828	-0.103148	-0.047413	-0.061416	-72.206280	-88.311367	-15.660426
04669	9.516098	-0.179495	0.000859	-0.003191	-0.068832	-0.062804	-73.211750	-88.360485	-14.655437
04670	9.737801	-0.071601	-0.083996	0.020983	-0.087631	-0.055004	-74.688414	-88.405212	-13.165129
04671	9.913839	0.016866	-0.193802	0.063473	-0.084726	-0.046161	-76.205226	-88.445956	-11.610446
04672	9.893999	-0.342738	-0.076040	0.025485	-0.054111	-0.027571	-77.269997	-88.468877	-10.529653
04673	9.743764	-0.584628	0.073686	0.109601	-0.056211	-0.014927	-78.417828	-88.486874	-9.317687
04674	9.682527	-0.565916	0.451532	0.131017	-0.033636	-0.022298	-79.063566	-88.503510	-8.595605
04675	9.699300	-0.063150	0.622082	0.166186	-0.047105	-0.026661	-79.983751	-88.526197	-7.578949
04676	9.587524	0.124666	0.609245	0.135233	-0.057998	-0.032581	-81.170707	-88.550316	-6.313071
04677	9.446257	0.376367	0.751819	0.095712	-0.091576	-0.043888	-83.163896	-88.585036	-4.263478
04678	9.492225	0.457583	0.515078	0.068327	-0.125903	-0.049401	-86.064825	-88.620077	-1.321500
04679	9.455054	0.722372	0.439810	0.043611	-0.139416	-0.053324	-89.467984	-88.656162	2.108546
04680	9.275008	0.633320	0.113998	-0.013507	-0.146225	-0.059183	-93.233774	-88.687881	5.868633
04681	9.454849	0.617948	-0.338166	-0.032591	-0.162739	-0.068077	-97.658963	-88.719971	10.277205
04682	9.640152	0.482630	-0.602658	-0.079679	-0.176561	-0.072235	-102.643275	-88.742289	15.218102
04683	9.681291	0.458105	-0.779140	-0.171832	-0.165770	-0.063118	-107.530548	-88.754070	20.008977
04684	9.631938	0.304493	-0.953139	-0.226817	-0.164658	-0.068984	-112.474712	-88.757910	24.825345
04685	9.816443	-0.005904	-0.812092	-0.280900	-0.134279	-0.059316	-116.689091	-88.757806	28.880619
04686	9.764381	-0.057090	-0.650228	-0.269251	-0.147261	-0.056829	-121.053087	-88.744186	33.092373
04687	9.784832	-0.604261	-0.583608	-0.260143	-0.112196	-0.044519	-124.459919	-88.731293	36.351812
04688	9.981931	0.077485	-0.225796	-0.232902	-0.101912	-0.038733	-127.385709	-88.713360	39.145881
04689	9.689630	-0.431306	-0.216201	-0.227346	-0.074955	-0.020939	-129.507836	-88.696094	41.139115
04690	9.980596	-0.034094	-0.014940	-0.159306	-0.090103	-0.015264	-131.629885	-88.667360	43.171453
04691	9.967479	-0.499925	-0.001481	-0.157312	-0.052390	0.003896	-132.771536	-88.645335	44.224114
04692	10.118801	-0.412232	0.058593	-0.037778	-0.078467	0.004266	-134.157803	-88.610742	45.590154
04693	10.224739	-0.230047	0.104505	0.014275	-0.068442	0.018165	-135.145978	-88.575400	46.587663
04694	10.048723	0.095113	0.128757	0.054819	-0.053309	0.019644	-135.714383	-88.543793	47.188695
04695	9.967857	0.386431	-0.008629	0.087809	-0.062574	0.014887	-136.542158	-88.511578	48.067928
04696	9.860654	0.522340	-0.095122	0.052484	-0.042444	0.015829	-136.957574	-88.485664	48.514595
04697	9.742632	0.221066	-0.266963	0.049383	-0.036543	0.020271	-137.290622	-88.461930	48.876923
04698	9.721638	0.228788	-0.263280	0.055858	-0.044179	0.021718	-137.610729	-88.432861	49.230191
04699	9.687708	0.107906	-0.284169	0.044308	-0.042507	0.021621	-137.987543	-88.405978	49.633397
04700	9.755912	-0.084156	-0.399112	0.049634	-0.040992	0.018406	-138.293645	-88.379422	49.969097
04701	9.766080	-0.202958	-0.378982	0.055064	-0.034269	0.019078	-138.570259	-88.356916	50.278231
04702	9.781946	-0.265719	-0.337663	0.059566	-0.034890	0.013320	-138.847963	-88.334817	50.591222
04703	9.819306	-0.223432	-0.295380	0.071706	-0.037431	0.002724	-139.381249	-88.316958	51.166680
04704	9.819022	-0.121843	-0.199252	0.072411	-0.029063	0.002734	-139.716741	-88.301205	51.544851
04705	9.778769	-0.085354	-0.203941	0.086454	-0.027768	0.002170	-140.111142	-88.287550	51.989823
04706	9.766196	-0.100241	-0.221651	0.090499	-0.025740	0.002705	-140.383410	-88.273136	52.315117
04707	9.760965	-0.042487	-0.236233	0.107601	-0.026340	0.004545	-140.701852	-88.259104	52.696223
04708	9.694645	0.061923	-0.245345	0.102306	-0.027253	0.006318	-140.922602	-88.242615	52.976748
04709	9.707709	0.189750	-0.224769	0.088679	-0.027184	0.007441	-141.209468	-88.227064	53.315420
04710	9.733333	0.229354	-0.287984	0.068202	-0.027668	0.010587	-141.383508	-88.208788	53.529667
04711	9.689293	0.117190	-0.265686	0.046367	-0.025427	0.008107	-141.655780	-88.193720	53.829487
04712	9.703145	-0.075216	-0.213254	0.023942	-0.018914	0.004006	-141.842480	-88.181665	54.031032
04713	9.670604	-0.177498	-0.248530	0.013505	-0.030996	0.003277	-142.255105	-88.165705	54.452441
04714	9.710696	-0.214239	-0.249977	0.017652	-0.043283	-0.007261	-142.859525	-88.146400	55.068320
04715	9.723165	-0.198951	-0.239104	0.015672	-0.043707	-0.008989	-143.559903	-88.128546	55.778883
04716	9.711661	-0.207067	-0.185111	0.030311	-0.039276	-0.013468	-144.178137	-88.112744	56.415852
04717	9.737360	-0.062520	-0.151059	0.050149	-0.041943	-0.012722	-144.868731	-88.096430	57.136403
04718	9.782121	-0.047860	-0.205959	0.066749	-0.044498	-0.009956	-145.445661	-88.076557	57.752948
04719	9.702555	0.020659	-0.050604	0.090755	-0.039900	-0.004842	-145.959126	-88.058187	58.319562
04720	9.685973	0.070084	-0.009247	0.089638	-0.045001	0.000020	-146.365480	-88.034534	58.778568
04721	9.723963	0.125052	-0.060026	0.097921	-0.057446	-0.000595	-146.953643	-88.006132	59.424050
04722	9.697393	0.089658	-0.168332	0.110741	-0.050970	0.007893	-147.269081	-87.976901	59.804199
04723	9.693056	0.060059	-0.302053	0.148214	-0.058502	0.012094	-147.635816	-87.943790	60.256969
04724	9.732516	-0.082179	-0.403205	0.137397	-0.055847	0.017507	-147.827842	-87.909112	60.528923
04725	9.708969	0.218556	-0.327542	0.148862	-0.068424	0.014923	-148.214937	-87.870157	61.002454
04726	9.656715	0.152091	-0.465823	0.077170	-0.048828	0.009876	-148.465656	-87.841095	61.298622
04727	9.684779	0.203421	-0.386628	0.069858	-0.065705	0.001928	-149.017883	-87.807121	61.892121
04728	9.724572	0.176484	-0.481607	0.044300	-0.065880	0.003941	-149.471732	-87.771231	62.372736
04729	9.756126	0.173931	-0.553700	0.029676	-0.059396	0.011182	-149.852077	-87.737346	62.771201
04730	9.782880	0.208195	-0.456988	0.033622	-0.058532	0.014637	-150.099689	-87.701801	63.039316
04731	9.771042	0.295444	-0.379809	0.004755	-0.048852	0.024335	-150.239744	-87.669272	63.183016
04732	9.711246	0.144246	-0.427083	-0.001789	-0.038880	0.034035	-150.125003	-87.637930	63.068180
04733	9.690701	0.140553	-0.332561	0.024233	-0.044151	0.036615	-150.072560	-87.604247	63.030387
04734	9.647617	0.140260	-0.303495	0.014080	-0.045722	0.043663	-149.887836	-87.566735	62.854600
04735	9.694293	-0.030152	-0.425929	0.053053	-0.054228	0.049002	-149.748989	-87.524500	62.746846
04736	9.722902	0.016586	-0.346489	0.066842	-0.051790	0.062546	-149.372827	-87.478456	62.409687
04737	9.739561	-0.147792	-0.329638	0.084487	-0.045787	0.068660	-148.957411	-87.434552	62.043108
04738	9.708360	-0.028424	-0.352625	0.101071	-0.047790	0.069931	-148.482077	-87.388059	61.626283
04739	9.758821	0.032959	-0.389136	0.085971	-0.043214	0.078169	-147.976813	-87.342283	61.170583
04740	9.721638	-0.002373	-0.454858	0.079186	-0.035784	0.073181	-147.433492	-87.300283	60.673114
04741	9.717938	-0.033109	-0.513248	0.064487	-0.033921	0.075154	-146.942640	-87.259547	60.219482
04742	9.687005	-0.109940	-0.582663	0.063836	-0.030245	0.074987	-146.384696	-87.219214	59.698535
04743	9.729593	-0.121793	-0.618905	0.065167	-0.026137	0.076538	-145.858031	-87.181338	59.209401
04744	9.766533	-0.101900	-0.559842	0.057024	-0.030176	0.075605	-145.327356	-87.140376	58.711813
04745	9.805014	-0.065787	-0.518740	0.053919	-0.025343	0.082937	-144.770351	-87.100322	58.185808
04746	9.730001	0.111811	-0.356502	0.042343	-0.024751	0.085844	-144.149004	-87.057999	57.588971
04747	9.752657	0.207181	-0.361020	0.015089	-0.019357	0.088526	-143.556447	-87.018292	57.005047
04748	9.781091	0.162626	-0.393243	0.011705	-0.020939	0.095025	-142.881555	-86.973920	56.336968
04749	9.734607	0.133831	-0.416303	0.017754	-0.014968	0.105486	-142.148574	-86.929625	55.613900
04750	9.722432	0.026990	-0.473417	0.009922	-0.009024	0.113646	-141.282642	-86.883097	54.753425
04751	9.755089	-0.078080	-0.491241	0.003579	-0.014344	0.118902	-140.490251	-86.833173	53.962654
04752	9.692636	0.023366	-0.427684	0.000450	-0.013036	0.117988	-139.672757	-86.781981	53.145175
04753	9.729843	-0.032644	-0.498908	-0.019266	0.000127	0.121438	-138.828439	-86.736184	52.289205
04754	9.802599	0.003325	-0.448941	-0.031732	-0.008179	0.125995	-137.988299	-86.682721	51.430494
04755	9.763093	0.028541	-0.451894	-0.039308	-0.006117	0.130881	-137.178307	-86.629261	50.597313
04756	9.754891	0.050117	-0.521547	-0.035509	-0.019438	0.144117	-136.342312	-86.562589	49.740486
04757	9.725280	0.055050	-0.475436	-0.027676	-0.024569	0.155178	-135.539028	-86.490501	48.920586
04758	9.735636	-0.069768	-0.377454	-0.043942	-0.012465	0.163089	-134.604504	-86.417509	47.960071
04759	9.720560	-0.116566	-0.375463	-0.044583	-0.015000	0.165597	-133.751803	-86.343491	47.080815
04760	9.722898	-0.261873	-0.495554	-0.042422	-0.006073	0.158764	-132.874559	-86.273027	46.178418
04761	9.701561	-0.439013	-0.480928	-0.016104	-0.010349	0.161856	-132.065308	-86.200783	45.358912
04762	9.720503	-0.546676	-0.531416	-0.000510	-0.009095	0.159448	-131.244199	-86.127223	44.536694
04763	9.729239	-0.580464	-0.482024	0.021632	-0.013270	0.152623	-130.542381	-86.056423	43.846400
04764	9.756738	-0.549727	-0.472204	0.036197	-0.018869	0.142388	-129.908676	-85.985362	43.232981
04765	9.732180	-0.494215	-0.479225	0.021026	-0.015471	0.132958	-129.368204	-85.921411	42.703970
04766	9.719511	-0.595764	-0.463890	0.006437	-0.015753	0.123708	-128.865028	-85.858970	42.204222
04767	9.682953	-0.682381	-0.604623	0.004322	-0.020260	0.115210	-128.481169	-85.800619	41.822559
04768	9.710064	-0.739659	-0.545691	0.001991	-0.011714	0.117137	-128.014404	-85.742031	41.356691
04769	9.663227	-0.842659	-0.536264	0.021777	-0.005307	0.102728	-127.610372	-85.694151	40.964769
04770	9.712555	-0.892530	-0.502003	0.031972	-0.006900	0.085841	-127.263185	-85.650997	40.635989
04771	9.703009	-0.891573	-0.461678	0.039744	-0.001101	0.073834	-126.969556	-85.617393	40.365070
04772	9.684096	-0.870587	-0.471401	0.032301	0.001364	0.056502	-126.714988	-85.590276	40.129341
04773	9.683452	-0.810545	-0.411506	0.025201	0.004036	0.042658	-126.543775	-85.572563	39.972828
04774	9.699840	-0.757579	-0.523334	0.021603	0.000503	0.032922	-126.408335	-85.555901	39.850424
04775	9.712214	-0.671378	-0.539967	0.026403	0.002593	0.019643	-126.347428	-85.548244	39.805236
04776	9.736159	-0.586470	-0.524213	0.013159	-0.000333	0.016047	-126.296407	-85.539063	39.762649
04777	9.723559	-0.446130	-0.529023	0.015022	-0.004046	0.010974	-126.319256	-85.533141	39.794930
04778	9.710987	-0.305840	-0.534018	-0.002966	-0.002846	0.017993	-126.284063	-85.522208	39.758953
04779	9.660619	-0.136636	-0.450185	-0.015817	0.000648	0.015226	-126.278606	-85.515923	39.745114
04780	9.719280	-0.122853	-0.396468	-0.039336	0.001452	0.019074	-126.234536	-85.505944	39.679330
04781	9.716457	-0.066464	-0.409733	-0.063890	0.004587	0.022224	-126.203723	-85.497789	39.612427
04782	9.736425	-0.310373	-0.395760	-0.057492	0.007125	0.027921	-126.099357	-85.485626	39.475721
04783	9.695919	-0.356010	-0.438995	-0.043909	0.004609	0.036190	-125.998223	-85.471025	39.349760
04784	9.705393	-0.507926	-0.507305	-0.017048	0.002061	0.038265	-125.857984	-85.452318	39.200309
04785	9.631688	-0.632447	-0.526279	-0.017003	-0.000055	0.047733	-125.722023	-85.430753	39.054868
04786	9.684680	-0.570331	-0.559234	0.004882	-0.006697	0.046820	-125.586989	-85.405083	38.923234
04787	9.722216	-0.474000	-0.529472	0.010621	-0.004573	0.045521	-125.473247	-85.382985	38.815950
04788	9.739641	-0.366193	-0.491536	-0.005711	-0.000475	0.039823	-125.339735	-85.362602	38.679746
04789	9.752849	-0.485478	-0.595994	-0.017537	0.000710	0.037767	-125.245482	-85.345852	38.575821
04790	9.721562	-0.550154	-0.588879	-0.023690	0.009075	0.034733	-125.090070	-85.330959	38.407302
04791	9.714585	-0.593100	-0.625274	-0.013994	0.006336	0.038053	-124.962130	-85.315884	38.271608
04792	9.684028	-0.602889	-0.466929	-0.005792	0.021473	0.036663	-124.719760	-85.304063	38.026121
04793	9.643609	-0.519302	-0.389725	-0.000124	0.017377	0.038022	-124.522772	-85.292514	37.829114
04794	9.661198	-0.475413	-0.409531	-0.000571	0.013081	0.027713	-124.362877	-85.282064	37.669376
04795	9.692182	-0.481949	-0.474562	-0.002368	0.011735	0.032472	-124.222875	-85.271237	37.528253
04796	9.705987	-0.545696	-0.427525	0.004804	0.012297	0.033880	-124.041915	-85.257539	37.350464
04797	9.637028	-0.600219	-0.681283	0.027151	0.001336	0.034648	-123.937575	-85.242291	37.262092
04798	9.769166	-0.514919	-0.316553	-0.025302	0.029335	0.041320	-123.650084	-85.230393	36.960087
04799	9.820848	-0.347475	-0.651796	0.045103	-0.009073	0.020489	-123.650297	-85.218551	36.986950
04800	9.576146	-0.714975	-0.682276	-0.098749	0.034270	0.028175	-123.428346	-85.214382	36.708475
04801	9.826632	-0.488039	-0.440185	-0.004386	0.013465	0.021283	-123.325982	-85.209270	36.603946
04802	9.693555	-0.549558	-0.542733	-0.066301	0.026148	0.013846	-123.186258	-85.209299	36.426639
04803	9.680795	-0.370402	-0.376215	-0.060633	0.027677	0.014049	-123.062090	-85.212077	36.267890
04804	9.707623	-0.547398	-0.433476	-0.033827	0.010260	0.010145	-123.008591	-85.208864	36.195781
04805	9.694063	-0.562833	-0.446783	-0.051658	0.021813	0.021345	-122.885799	-85.206280	36.043575
04806	9.698286	-0.671102	-0.509407	-0.015191	0.017958	0.018776	-122.745757	-85.201279	35.895333
04807	9.698358	-0.533599	-0.478992	-0.005562	0.020249	0.022436	-122.601909	-85.197622	35.748500
04808	9.689150	-0.516602	-0.527810	-0.001579	0.012454	0.017246	-122.491864	-85.191605	35.638187
04809	9.713953	-0.431900	-0.510220	-0.014717	0.019318	0.019295	-122.370621	-85.189132	35.508772
04810	9.727777	-0.354701	-0.433806	-0.042535	0.024890	0.015017	-122.221051	-85.187960	35.335243
04811	9.738921	-0.423201	-0.458930	-0.061932	0.022650	0.019000	-122.109064	-85.186612	35.187968
04812	9.734532	-0.457738	-0.421256	-0.063439	0.023627	0.017794	-121.968917	-85.183643	35.011876
04813	9.727668	-0.573383	-0.425529	-0.071326	0.025607	0.019197	-121.844768	-85.183055	34.846994
04814	9.716325	-0.647441	-0.425065	-0.059031	0.025735	0.021794	-121.675936	-85.178701	34.644648
04815	9.691456	-0.660649	-0.470176	-0.040671	0.024673	0.018280	-121.543027	-85.178211	34.488603
04816	9.687035	-0.620402	-0.463313	-0.032797	0.022690	0.016889	-121.394631	-85.175257	34.321849
04817	9.727500	-0.569554	-0.507789	-0.030348	0.024422	0.019145	-121.254330	-85.174200	34.164322
04818	9.705186	-0.501443	-0.510650	-0.029015	0.024423	0.013874	-121.104581	-85.173167	33.998384
04819	9.716627	-0.430612	-0.506529	-0.033030	0.026570	0.020229	-120.949748	-85.172146	33.824730
04820	9.703141	-0.446415	-0.518814	-0.042972	0.027593	0.021385	-120.763615	-85.168271	33.614253
04821	9.694256	-0.439522	-0.475906	-0.058442	0.028265	0.019354	-120.616855	-85.168103	33.434087
04822	9.727829	-0.513307	-0.436075	-0.064617	0.025385	0.018632	-120.465908	-85.164846	33.246474
04823	9.709524	-0.626402	-0.473243	-0.066907	0.028302	0.021735	-120.315833	-85.163444	33.058114
04824	9.722825	-0.689162	-0.425365	-0.053801	0.032120	0.018901	-120.118740	-85.161907	32.830409
04825	9.670959	-0.740558	-0.409171	-0.040649	0.025247	0.016837	-119.988254	-85.161961	32.676807
04826	9.704759	-0.728414	-0.490750	-0.035361	0.025999	0.015037	-119.829715	-85.160491	32.498396
04827	9.716180	-0.668106	-0.395359	-0.020105	0.031364	0.010958	-119.671147	-85.165129	32.328427
04828	9.714224	-0.610613	-0.405101	-0.014814	0.032116	0.009158	-119.484355	-85.168231	32.133479
04829	9.752358	-0.650427	-0.400174	-0.013634	0.030952	0.006866	-119.337458	-85.174710	31.978948
04830	9.687496	-0.575520	-0.368805	-0.015070	0.026886	0.005293	-119.194029	-85.178190	31.827372
04831	9.752869	-0.576282	-0.425360	-0.022258	0.026353	0.003868	-119.088561	-85.184826	31.709464
04832	9.703505	-0.545753	-0.366518	-0.023984	0.031211	0.006004	-118.921636	-85.189093	31.529185
04833	9.696789	-0.585049	-0.401476	-0.024236	0.025983	0.002135	-118.824547	-85.196455	31.418552
04834	9.647388	-0.554348	-0.342993	-0.029536	0.025230	0.003935	-118.702721	-85.200048	31.280342
04835	9.712416	-0.630095	-0.369211	-0.023370	0.028102	0.004682	-118.583457	-85.206679	31.147959
04836	9.648852	-0.880814	-0.477120	0.042889	0.003603	0.003589	-118.550659	-85.204481	31.140733
04837	9.752376	-0.177818	-0.303747	-0.014423	0.038515	0.010071	-118.345692	-85.211188	30.927493
04838	9.641655	-0.445452	-0.433011	0.009402	0.006126	0.007045	-118.305794	-85.207930	30.893888
04839	9.695631	-0.390587	-0.372178	-0.051043	0.022047	0.007606	-118.228730	-85.211381	30.787946
04840	9.670629	-0.477491	-0.387683	-0.038755	0.016510	0.011346	-118.140044	-85.208755	30.677693
04841	9.706723	-0.459228	-0.397037	-0.036247	0.013180	0.013245	-118.089755	-85.206954	30.607127
04842	9.704309	-0.477194	-0.378106	-0.033324	0.016255	0.016042	-117.984632	-85.201860	30.483501
04843	9.733173	-0.509419	-0.334063	-0.040186	0.021540	0.017001	-117.874381	-85.200395	30.350497
04844	9.663297	-0.596976	-0.389558	-0.042442	0.013760	0.020848	-117.774670	-85.192160	30.227059
04845	9.705520	-0.679759	-0.391565	-0.033115	0.015833	0.021048	-117.682276	-85.187089	30.116039
04846	9.680938	-0.628625	-0.377427	-0.036131	0.012169	0.019742	-117.592681	-85.178959	30.006379
04847	9.671675	-0.685667	-0.396678	-0.033672	0.010441	0.013663	-117.556647	-85.176181	29.951599
04848	9.696132	-0.739548	-0.408857	-0.038548	0.012648	0.008016	-117.502706	-85.174119	29.876328
04849	9.662462	-0.742474	-0.414838	-0.037728	0.016369	0.002594	-117.467958	-85.178519	29.820508
04850	9.687048	-0.731365	-0.366246	-0.038279	0.010983	-0.004798	-117.464009	-85.182523	29.795561
04851	9.662614	-0.741460	-0.413100	-0.033932	0.009030	-0.007650	-117.503326	-85.190179	29.816254
04852	9.660877	-0.681926	-0.424837	-0.034239	0.008862	-0.011155	-117.529865	-85.196855	29.824226
04853	9.708168	-0.664090	-0.402148	-0.034937	0.007935	-0.016679	-117.605046	-85.208794	29.880331
04854	9.705875	-0.679006	-0.384008	-0.033273	0.008131	-0.018443	-117.658786	-85.218973	29.916156
04855	9.685821	-0.665825	-0.375506	-0.029550	0.009284	-0.019955	-117.733657	-85.232918	29.975046
04856	9.706153	-0.611196	-0.322153	-0.034624	0.004665	-0.021521	-117.819625	-85.243724	30.042432
04857	9.688537	-0.580710	-0.331416	-0.038940	0.008825	-0.028118	-117.929763	-85.261663	30.131311
04858	9.683872	-0.611293	-0.295744	-0.034591	0.006878	-0.030971	-118.033803	-85.277826	30.216847
04859	9.700058	-0.641369	-0.358945	-0.027898	0.000409	-0.028967	-118.193382	-85.293895	30.361681
04860	9.696018	-0.660383	-0.414378	-0.009699	0.003218	-0.029096	-118.300928	-85.308085	30.465041
04861	9.734117	-0.633105	-0.351522	0.010540	0.001343	-0.027874	-118.430832	-85.323799	30.602193
04862	9.705456	-0.599442	-0.393432	0.013158	0.004249	-0.028574	-118.518533	-85.337974	30.698776
04863	9.719072	-0.582816	-0.378177	0.018055	-0.001390	-0.031285	-118.674136	-85.354605	30.866028
04864	9.715022	-0.602080	-0.433772	0.014548	-0.002980	-0.024778	-118.794296	-85.364847	30.995972
04865	9.665456	-0.569219	-0.377352	0.025564	0.004951	-0.027440	-118.894997	-85.381237	31.112453
04866	9.674607	-0.510996	-0.356725	0.029987	-0.002040	-0.030680	-119.022059	-85.394657	31.258191
04867	9.708420	-0.505593	-0.349685	0.029814	-0.003229	-0.027703	-119.173774	-85.408859	31.428290
04868	9.674576	-0.580889	-0.327068	0.035115	-0.002464	-0.029491	-119.298070	-85.421509	31.574194
04869	9.699472	-0.630968	-0.340420	0.044041	-0.006775	-0.030202	-119.474412	-85.435893	31.777170
04870	9.675494	-0.703017	-0.449249	0.054852	-0.011312	-0.027683	-119.637982	-85.445076	31.973813
04871	9.682183	-0.661554	-0.412357	0.066629	-0.016577	-0.032448	-119.872814	-85.457672	32.248441
04872	9.686720	-0.561278	-0.387998	0.064096	-0.013253	-0.034327	-120.069036	-85.469484	32.483144
04873	9.675834	-0.554977	-0.421455	0.058809	-0.011825	-0.041981	-120.316179	-85.487994	32.765617
04874	9.725415	-0.517875	-0.417845	0.047177	-0.011022	-0.039073	-120.528410	-85.502651	33.006645
04875	9.739353	-0.564284	-0.464202	0.059180	-0.011063	-0.039949	-120.766956	-85.520201	33.280695
04876	9.716451	-0.577333	-0.348755	0.066046	-0.010689	-0.042008	-120.980563	-85.536249	33.533937
04877	9.759976	-0.642989	-0.443118	0.078040	-0.010727	-0.042879	-121.221204	-85.555158	33.820913
04878	9.710864	-0.672650	-0.447693	0.089949	-0.005714	-0.043376	-121.398594	-85.573206	34.051554
04879	9.708791	-0.610491	-0.460408	0.094586	-0.007483	-0.042700	-121.612680	-85.592822	34.321391
04880	9.697932	-0.604489	-0.492790	0.115944	-0.001353	-0.036516	-121.724096	-85.608725	34.500789
04881	9.735885	-0.501038	-0.459912	0.127825	0.009301	-0.038129	-121.797869	-85.631066	34.648989
04882	9.675047	-0.389781	-0.466051	0.130869	0.002287	-0.036032	-121.877790	-85.647792	34.805367
04883	9.724494	-0.353182	-0.461082	0.124678	0.005019	-0.037885	-121.982157	-85.668678	34.982434
04884	9.722375	-0.366889	-0.442325	0.126923	0.005584	-0.032618	-122.031440	-85.684712	35.105812
04885	9.684948	-0.465205	-0.472528	0.120809	0.006753	-0.026511	-122.083153	-85.700574	35.227844
04886	9.701089	-0.582351	-0.412695	0.138835	-0.002227	-0.022822	-122.137559	-85.709458	35.363199
04887	9.724224	-0.565396	-0.528395	0.159515	-0.002081	-0.022472	-122.208978	-85.720635	35.527228
04888	9.690249	-0.577214	-0.443777	0.159137	0.001221	-0.017621	-122.208969	-85.728033	35.619677
04889	9.692875	-0.634461	-0.428909	0.169858	0.007992	-0.017308	-122.188758	-85.739756	35.697761
04890	9.705647	-0.553881	-0.353481	0.176594	-0.001381	-0.024962	-122.226280	-85.749918	35.837871
04891	9.693478	-0.705907	-0.394690	0.180774	0.001698	-0.027398	-122.283093	-85.764582	35.999461
04892	9.688170	-0.596717	-0.329904	0.199116	0.001241	-0.032236	-122.321783	-85.779053	36.153678
04893	9.708377	-0.530874	-0.368314	0.192520	-0.002470	-0.034922	-122.432114	-85.796031	36.375674
04894	9.659016	-0.487493	-0.403076	0.179160	-0.000349	-0.038243	-122.519703	-85.812881	36.567451
04895	9.680970	-0.413690	-0.369303	0.171090	-0.003101	-0.042165	-122.679924	-85.833085	36.827150
04896	9.686944	-0.295765	-0.364636	0.148958	-0.001750	-0.045209	-122.826713	-85.852790	37.060922
04897	9.727780	-0.314160	-0.379875	0.121774	-0.011267	-0.047092	-123.095060	-85.872699	37.400688
04898	9.743366	-0.279726	-0.383922	0.110880	-0.003807	-0.039938	-123.258591	-85.889105	37.629361
04899	9.711613	-0.271584	-0.318534	0.089843	-0.010415	-0.041095	-123.518285	-85.906238	37.942093
04900	9.725887	-0.319113	-0.363480	0.074072	-0.016272	-0.044029	-123.808050	-85.920497	38.276170
04901	9.673758	-0.299419	-0.291676	0.059942	-0.018365	-0.040453	-124.139853	-85.934561	38.644006
04902	9.709632	-0.276374	-0.304332	0.052932	-0.014240	-0.036628	-124.398847	-85.945718	38.935080
04903	9.685300	-0.286373	-0.352688	0.063365	-0.015317	-0.029199	-124.660733	-85.955219	39.234780
04904	9.698585	-0.269444	-0.339557	0.067200	-0.015062	-0.024218	-124.862267	-85.960088	39.476440
04905	9.727254	-0.222170	-0.330318	0.055194	-0.015620	-0.021895	-125.098895	-85.965905	39.746121
04906	9.690325	-0.322007	-0.360425	0.054107	-0.019482	-0.019908	-125.318148	-85.967164	39.998022
04907	9.682058	-0.376910	-0.380015	0.054881	-0.017874	-0.015903	-125.542694	-85.969297	40.255408
04908	9.711678	-0.396396	-0.429320	0.056619	-0.022761	-0.017931	-125.773076	-85.968401	40.519906
04909	9.710524	-0.477325	-0.471007	0.058497	-0.022910	-0.014690	-126.023188	-85.968131	40.804998
04910	9.737995	-0.513208	-0.502246	0.068295	-0.024454	-0.014249	-126.240090	-85.964805	41.062691
04911	9.679851	-0.529052	-0.558172	0.080048	-0.025583	-0.012068	-126.482351	-85.962240	41.352291
04912	9.717757	-0.343969	-0.492659	0.081285	-0.026225	-0.015811	-126.710128	-85.958881	41.628348
04913	9.695221	-0.347698	-0.468887	0.057818	-0.019793	-0.013393	-126.933437	-85.958735	41.886179
04914	9.731877	-0.393495	-0.539967	0.051785	-0.022166	-0.015605	-127.150266	-85.956531	42.134318
04915	9.710475	-0.314555	-0.476580	0.032642	-0.017719	-0.015972	-127.387267	-85.958134	42.391413
04916	9.693045	-0.359677	-0.455723	0.012574	-0.016010	-0.017341	-127.595325	-85.958729	42.608237
04917	9.677701	-0.388727	-0.453211	-0.002933	-0.016595	-0.016498	-127.848499	-85.960822	42.861110
04918	9.698071	-0.398326	-0.462435	-0.010671	-0.019696	-0.015457	-128.084193	-85.959141	43.092286
04919	9.724588	-0.367579	-0.435490	-0.004822	-0.012823	-0.011483	-128.289462	-85.960165	43.296050
04920	9.726618	-0.357956	-0.364302	-0.002830	-0.018020	-0.008513	-128.474760	-85.955842	43.481208
04921	9.724512	-0.366004	-0.438517	0.002485	-0.013075	-0.003543	-128.637112	-85.953131	43.646147
04922	9.769319	-0.356139	-0.491403	0.007582	-0.013438	-0.002329	-128.755525	-85.947612	43.770235
04923	9.774323	-0.398075	-0.496144	0.019201	-0.015672	0.002831	-128.891782	-85.941069	43.918610
04924	9.773148	-0.480845	-0.536828	0.018167	-0.013353	0.002095	-128.980445	-85.933573	44.018957
04925	9.717001	-0.489147	-0.518999	0.019554	-0.012879	-0.004651	-129.136203	-85.931314	44.187088
04926	9.699566	-0.691457	-0.503406	0.023831	-0.009247	-0.008666	-129.250125	-85.930051	44.316011
04927	9.680132	-0.745901	-0.554439	0.047878	-0.013185	-0.013575	-129.436757	-85.931556	44.531368
04928	9.727136	-0.726556	-0.533815	0.069436	-0.004046	-0.014948	-129.524382	-85.934920	44.660123
04929	9.713961	-0.583829	-0.542399	0.086734	-0.007792	-0.019301	-129.684931	-85.940816	44.871654
04930	9.716167	-0.417271	-0.464142	0.088717	-0.001202	-0.020295	-129.771996	-85.947538	45.010921
04931	9.750837	-0.322273	-0.509181	0.071460	-0.000550	-0.025663	-129.930392	-85.958810	45.211514
04932	9.739656	-0.318878	-0.541657	0.059232	-0.000816	-0.028323	-130.074996	-85.969151	45.391522
04933	9.694820	-0.318946	-0.580860	0.047866	0.001104	-0.028496	-130.253610	-85.982193	45.598823
04934	9.710179	-0.285554	-0.584862	0.034149	0.001780	-0.032401	-130.419953	-85.995203	45.786213
04935	9.708302	-0.298457	-0.565962	0.033574	0.005466	-0.032646	-130.604419	-86.011584	45.991164
04936	9.756421	-0.343988	-0.601470	0.023463	0.010386	-0.028344	-130.703831	-86.025970	46.105317
04937	9.751497	-0.306666	-0.506161	0.022473	0.010748	-0.019604	-130.793887	-86.038599	46.209242
04938	9.740373	-0.303583	-0.537528	0.019616	0.013743	-0.025078	-130.858150	-86.052802	46.285949
04939	9.702996	-0.343294	-0.414995	0.010396	0.011578	-0.025270	-130.982167	-86.068172	46.416983
04940	9.656243	-0.359465	-0.434944	0.002673	0.008468	-0.024224	-131.085984	-86.080004	46.523603
04941	9.676786	-0.368326	-0.441626	-0.001454	0.005950	-0.023199	-131.242596	-86.092321	46.680505
04942	9.666937	-0.438577	-0.439970	-0.002378	0.003207	-0.024188	-131.383772	-86.102111	46.821667
04943	9.664538	-0.295694	-0.416176	0.001353	0.004907	-0.027203	-131.569482	-86.115688	47.009334
04944	9.693018	-0.247449	-0.406047	-0.018649	0.000955	-0.027335	-131.753612	-86.125909	47.184202
04945	9.684456	-0.384144	-0.462006	-0.018190	0.002326	-0.026838	-131.967187	-86.138267	47.388578
04946	9.717533	-0.460560	-0.493822	-0.000817	0.002821	-0.024441	-132.114862	-86.147893	47.537143
04947	9.714337	-0.400468	-0.508676	0.014088	0.007128	-0.025524	-132.274245	-86.161452	47.705733
04948	9.716425	-0.382039	-0.526597	0.015906	0.002789	-0.029020	-132.440655	-86.172950	47.882673
04949	9.714609	-0.395249	-0.507567	0.014152	0.007681	-0.027019	-132.607438	-86.187279	48.058712
04950	9.700135	-0.333893	-0.554986	0.007677	0.003908	-0.029721	-132.777798	-86.199438	48.234881
04951	9.702274	-0.321672	-0.481866	0.001151	0.005746	-0.033676	-133.006098	-86.215723	48.465109
04952	9.715060	-0.386277	-0.505838	-0.013413	0.007858	-0.031853	-133.178815	-86.230237	48.631524
04953	9.718662	-0.440755	-0.489668	-0.018048	0.009572	-0.032576	-133.390824	-86.247457	48.834385
04954	9.726229	-0.469965	-0.419158	-0.012688	0.011445	-0.037342	-133.576412	-86.265592	49.014108
04955	9.718699	-0.522934	-0.435492	-0.000154	0.008353	-0.039397	-133.831099	-86.285047	49.270014
04956	9.696901	-0.434291	-0.461027	0.003637	0.010615	-0.043904	-134.057045	-86.305464	49.499544
04957	9.724994	-0.466900	-0.488827	0.010495	0.011551	-0.047426	-134.340338	-86.329337	49.790211
04958	9.699587	-0.320192	-0.529623	0.021786	0.009118	-0.045733	-134.582580	-86.349766	50.046479
04959	9.681454	-0.206058	-0.500942	0.016821	0.010560	-0.049942	-134.891539	-86.374076	50.366487
04960	9.666800	-0.149512	-0.457010	-0.004414	0.007203	-0.046341	-135.171314	-86.393811	50.645310
04961	9.715352	-0.192917	-0.492329	-0.013234	0.011988	-0.047295	-135.479106	-86.417431	50.946882
04962	9.659339	-0.279975	-0.511131	-0.015461	0.009337	-0.043042	-135.736409	-86.436540	51.196833
04963	9.687553	-0.230186	-0.500421	-0.010503	0.007899	-0.038826	-136.019905	-86.454915	51.475617
04964	9.717536	-0.254089	-0.455830	-0.009984	0.009825	-0.039824	-136.254880	-86.472804	51.706332
04965	9.712064	-0.291182	-0.490737	-0.005414	0.007569	-0.037600	-136.534831	-86.490400	51.984478
04966	9.691678	-0.276404	-0.482600	-0.006855	0.009058	-0.040332	-136.781382	-86.508039	52.228579
04967	9.684345	-0.246541	-0.460215	-0.012018	0.008831	-0.040055	-137.079397	-86.526960	52.521017
04968	9.740501	-0.233841	-0.478075	-0.018562	0.014307	-0.035790	-137.272570	-86.544899	52.704912
04969	9.703266	-0.176757	-0.498806	-0.019289	0.016882	-0.033045	-137.479325	-86.564356	52.901746
04970	9.712565	-0.107798	-0.407388	-0.031831	0.013767	-0.028251	-137.634287	-86.579078	53.039737
04971	9.744647	-0.192300	-0.510730	-0.045491	0.014910	-0.033664	-137.877358	-86.597865	53.257905
04972	9.724010	-0.095852	-0.462793	-0.046297	0.020585	-0.021203	-137.948846	-86.612728	53.303969
04973	9.707152	-0.057663	-0.399480	-0.044527	0.015702	-0.023200	-138.114394	-86.627786	53.445027
04974	9.733514	-0.108141	-0.408435	-0.069112	0.017546	-0.017354	-138.192226	-86.639868	53.484349
04975	9.696574	-0.224744	-0.416427	-0.063283	0.008483	-0.016136	-138.366114	-86.649125	53.622993
04976	9.696816	-0.312694	-0.363566	-0.054806	0.013274	-0.013175	-138.434047	-86.657777	53.660609
04977	9.700751	-0.369287	-0.347779	-0.028572	0.002925	-0.007084	-138.558668	-86.661185	53.769823
04978	9.719354	-0.305773	-0.388153	-0.016431	0.008888	-0.005635	-138.578130	-86.665088	53.780910
04979	9.724960	-0.257387	-0.442561	-0.006685	0.006871	-0.003692	-138.639554	-86.668892	53.839383
04980	9.740174	-0.308563	-0.485306	-0.003999	0.004739	-0.004704	-138.672117	-86.670657	53.870729
04981	9.723507	-0.354830	-0.462516	-0.010005	0.002314	-0.006922	-138.789083	-86.673707	53.982933
04982	9.686089	-0.300231	-0.484231	0.000517	0.004457	-0.011946	-138.874821	-86.678077	54.070134
04983	9.719718	-0.294950	-0.477045	-0.010719	0.001239	-0.012398	-139.040279	-86.682687	54.230503
04984	9.691575	-0.256906	-0.447867	-0.012161	0.002732	-0.015127	-139.168844	-86.687478	54.353327
04985	9.706460	-0.224890	-0.451485	-0.010153	0.007369	-0.006661	-139.251952	-86.692554	54.431533
04986	9.706504	-0.224059	-0.450950	-0.013019	0.004185	-0.009393	-139.329098	-86.695810	54.502358
04987	9.749184	-0.146691	-0.444306	-0.006754	0.006312	-0.002196	-139.383774	-86.698747	54.554032
04988	9.729023	-0.218122	-0.475478	-0.004277	0.008680	-0.001455	-139.367173	-86.700991	54.535971
04989	9.725357	-0.250024	-0.438030	0.001876	0.006050	0.000503	-139.398296	-86.702806	54.569009
04990	9.714253	-0.249123	-0.470134	-0.004924	0.005634	0.002525	-139.371735	-86.702241	54.540600
04991	9.714280	-0.249130	-0.469553	-0.015060	0.006832	-0.001411	-139.421874	-86.705106	54.582967
04992	9.688368	-0.278536	-0.497581	-0.024080	0.006278	-0.006102	-139.467334	-86.708037	54.615706
04993	9.684287	-0.227421	-0.421031	-0.025717	0.006099	-0.004351	-139.550675	-86.711666	54.685211
04994	9.671354	-0.241677	-0.434797	-0.035920	0.006739	-0.006792	-139.605372	-86.715049	54.720406
04995	9.718358	-0.304421	-0.452572	-0.025572	0.001042	-0.004613	-139.723457	-86.716557	54.824798
04996	9.714453	-0.246178	-0.467532	-0.022043	0.001100	-0.003134	-139.778907	-86.716114	54.868711
04997	9.729294	-0.214881	-0.471405	-0.023162	0.002851	-0.002375	-139.866825	-86.717565	54.944281
04998	9.721682	-0.188719	-0.449476	-0.026694	0.002793	-0.003852	-139.919540	-86.718123	54.982785
04999	9.736965	-0.239777	-0.492713	-0.033499	0.002373	-0.001829	-140.012326	-86.719151	55.057281
05000	9.719869	-0.203821	-0.430623	-0.034426	0.005801	-0.005546	-140.063188	-86.721648	55.089492
05001	9.707400	-0.300569	-0.483787	-0.041446	0.009875	-0.001761	-140.111882	-86.725939	55.115254
05002	9.679188	-0.264066	-0.454017	-0.025214	0.005483	0.005617	-140.073855	-86.724190	55.063718
05003	9.708861	-0.202406	-0.461223	-0.035960	0.010367	0.001456	-140.091355	-86.727510	55.061412
05004	9.673927	-0.304727	-0.488798	-0.032605	0.005117	-0.000821	-140.109369	-86.727967	55.061766
05005	9.683188	-0.321862	-0.437467	-0.027567	0.004235	0.001892	-140.158030	-86.728424	55.095479
05006	9.711444	-0.358358	-0.466437	-0.021732	0.001352	0.000358	-140.184914	-86.726792	55.110957
05007	9.707525	-0.300522	-0.481300	-0.020679	-0.000959	0.001090	-140.268817	-86.725246	55.183924
05008	9.716770	-0.317512	-0.430371	-0.021992	0.001663	-0.004617	-140.332120	-86.725569	55.235732
05009	9.746420	-0.255320	-0.438314	-0.016416	-0.003464	-0.000187	-140.439056	-86.723364	55.334220
05010	9.701756	-0.257757	-0.478132	-0.017211	0.001092	-0.006882	-140.520737	-86.724251	55.407179
05011	9.711267	-0.266750	-0.518395	-0.021910	-0.003954	-0.003399	-140.658507	-86.722976	55.533418
05012	9.722371	-0.267531	-0.485920	-0.015317	0.000964	-0.003654	-140.714959	-86.722620	55.582195
05013	9.737211	-0.236333	-0.489501	-0.013571	0.005890	-0.000151	-140.760202	-86.724507	55.620550
05014	9.750201	-0.221392	-0.474524	-0.003230	0.006371	-0.000697	-140.752577	-86.725475	55.612081
05015	9.710879	-0.183828	-0.477292	-0.002455	0.007991	0.003291	-140.751410	-86.727040	55.610271
05016	9.697478	-0.116876	-0.451057	-0.003188	0.010550	0.006047	-140.664926	-86.727413	55.522838
05017	9.725766	-0.153806	-0.479511	-0.011742	0.005199	0.004566	-140.676917	-86.727280	55.528918
05018	9.714882	-0.243048	-0.460202	-0.006786	0.009932	0.006062	-140.596296	-86.727368	55.445293
05019	9.694779	-0.315039	-0.491651	-0.010385	0.009314	0.006076	-140.569546	-86.728505	55.413334
05020	9.700583	-0.357414	-0.494268	-0.004827	0.010364	0.007799	-140.471585	-86.728141	55.313465
05021	9.691086	-0.348436	-0.453124	0.007219	0.011591	0.004015	-140.435886	-86.731020	55.282647
05022	9.720785	-0.286895	-0.459898	0.007434	0.007098	0.002246	-140.394634	-86.731231	55.246616
05023	9.698319	-0.292410	-0.433614	0.001810	0.005487	0.002014	-140.416239	-86.732135	55.270110
05024	9.687276	-0.291254	-0.465616	0.007565	0.008222	-0.000735	-140.390763	-86.733931	55.249955
05025	9.722754	-0.271131	-0.476153	0.001876	0.006049	0.000523	-140.420089	-86.735620	55.281202
05026	9.704057	-0.244513	-0.486328	-0.000497	0.008423	0.005029	-140.353316	-86.735399	55.215057
05027	9.691140	-0.259492	-0.500004	-0.003164	0.006933	-0.002188	-140.400764	-86.738463	55.261574
05028	9.696950	-0.300971	-0.502978	-0.007215	0.004945	-0.002679	-140.419792	-86.739522	55.277514
05029	9.698985	-0.374629	-0.469447	-0.008335	0.006694	-0.001918	-140.469652	-86.742369	55.323460
05030	9.706193	-0.317779	-0.450909	0.003128	0.005424	-0.003220	-140.483921	-86.743836	55.340569
05031	9.730626	-0.296144	-0.494145	0.010777	0.008030	-0.002740	-140.520478	-86.747562	55.384209
05032	9.763729	-0.209580	-0.446480	0.007696	0.009346	-0.003715	-140.510877	-86.750942	55.380031
05033	9.700440	-0.185303	-0.496296	0.007112	0.006851	-0.001236	-140.545381	-86.753589	55.419460
05034	9.698594	-0.201122	-0.477218	-0.004153	0.009806	-0.004409	-140.545064	-86.757426	55.417780
05035	9.739866	-0.222512	-0.491248	-0.000151	0.005054	0.000278	-140.583498	-86.758723	55.457016
05036	9.709708	-0.202160	-0.443161	-0.005925	0.008497	0.000321	-140.555659	-86.760259	55.426753
05037	9.732260	-0.196796	-0.467990	-0.009457	0.008442	-0.001158	-140.588866	-86.763573	55.455369
05038	9.689696	-0.273445	-0.473991	-0.014695	0.007640	0.000601	-140.569338	-86.764628	55.428399
05039	9.695502	-0.315248	-0.477054	-0.012586	0.003018	0.002060	-140.613990	-86.764368	55.466731
05040	9.697428	-0.299030	-0.494864	-0.006697	0.006878	-0.003667	-140.628232	-86.766638	55.478174
05041	9.728589	-0.228732	-0.428824	-0.004571	0.012612	0.001836	-140.608058	-86.770696	55.456166
05042	9.694529	-0.150563	-0.395287	-0.007282	0.004382	-0.001190	-140.619291	-86.770961	55.464260
05043	9.717080	-0.145196	-0.420327	-0.016271	0.008016	0.000859	-140.643039	-86.773344	55.479545
05044	9.704179	-0.160040	-0.434096	-0.028641	0.006542	0.001149	-140.634223	-86.773715	55.455301
05045	9.691268	-0.174885	-0.448134	-0.034785	0.002995	0.001899	-140.692707	-86.773495	55.494674
05046	9.702844	-0.258562	-0.455056	-0.036043	0.003617	0.005645	-140.671633	-86.770938	55.453905
05047	9.713869	-0.260258	-0.422034	-0.028846	0.004851	0.005626	-140.685326	-86.770189	55.451936
05048	9.734481	-0.271531	-0.429310	-0.033937	-0.001007	0.007102	-140.681388	-86.765054	55.429538
05049	9.732525	-0.198169	-0.461870	-0.032735	0.008160	0.008906	-140.650168	-86.764576	55.380293
05050	9.689385	-0.193507	-0.428229	-0.034830	0.006602	0.010150	-140.574110	-86.761700	55.285147
05051	9.730625	-0.215854	-0.442601	-0.039338	0.003243	0.009150	-140.576308	-86.758953	55.265580
05052	9.706672	-0.230264	-0.489485	-0.026714	0.004393	0.013839	-140.481279	-86.753749	55.156089
05053	9.708067	-0.223452	-0.416286	-0.031439	0.005523	0.014616	-140.421835	-86.750014	55.079334
05054	9.709981	-0.208642	-0.434062	-0.029934	0.004581	0.015849	-140.312405	-86.744140	54.953571
05055	9.741589	-0.222239	-0.408365	-0.031511	0.004958	0.016110	-140.245374	-86.739594	54.869210
05056	9.731959	-0.214420	-0.367945	-0.028499	0.003072	0.018574	-140.124569	-86.732034	54.732875
05057	9.722853	-0.198600	-0.418842	-0.029995	-0.002170	0.020033	-140.072770	-86.722905	54.664609
05058	9.687316	-0.220654	-0.407845	-0.035391	0.002079	0.022087	-139.936547	-86.713591	54.508873
05059	9.687266	-0.222643	-0.407933	-0.031644	-0.002360	0.021785	-139.874280	-86.703721	54.429118
05060	9.702510	-0.275707	-0.452118	-0.038399	-0.002220	0.022317	-139.767048	-86.692412	54.300692
05061	9.708124	-0.319448	-0.456375	-0.034200	-0.005290	0.022523	-139.720260	-86.680972	54.235103
05062	9.712293	-0.371116	-0.533619	-0.029093	-0.005622	0.023744	-139.620110	-86.667628	54.119108
05063	9.728529	-0.334501	-0.464852	-0.012583	-0.001610	0.022461	-139.538887	-86.657793	54.031359
05064	9.732360	-0.304146	-0.501521	-0.017096	-0.004962	0.021456	-139.446199	-86.645567	53.929723
05065	9.698720	-0.310067	-0.508925	-0.023997	0.000235	0.022286	-139.361952	-86.636579	53.832342
05066	9.717256	-0.338966	-0.498704	-0.023573	-0.008737	0.018712	-139.318361	-86.623721	53.776167
05067	9.694615	-0.345935	-0.473790	-0.027185	-0.003160	0.016045	-139.304014	-86.615559	53.746959
05068	9.700185	-0.388931	-0.478028	-0.023899	-0.002782	0.012546	-139.268764	-86.607588	53.698953
05069	9.692524	-0.364516	-0.456419	-0.020750	-0.003540	0.012026	-139.282646	-86.600755	53.701592
05070	9.692477	-0.365369	-0.456735	-0.015363	-0.001602	0.007285	-139.273726	-86.595263	53.684860
05071	9.720610	-0.402248	-0.486573	-0.013122	-0.005097	0.005745	-139.338344	-86.590098	53.742985
05072	9.705598	-0.433727	-0.483563	-0.008011	-0.005433	0.006961	-139.351499	-86.583062	53.752587
05073	9.743066	-0.397681	-0.513283	-0.001888	-0.006043	-0.000550	-139.460790	-86.579812	53.861734
05074	9.688904	-0.390776	-0.513228	-0.003220	0.000189	0.002012	-139.471964	-86.577067	53.872102
05075	9.688676	-0.308736	-0.473163	-0.006266	-0.008254	-0.004536	-139.626058	-86.574302	54.023752
05076	9.703617	-0.277218	-0.477472	-0.007703	-0.006738	-0.007253	-139.750086	-86.571962	54.144602
05077	9.696011	-0.251128	-0.456214	-0.011447	-0.008487	-0.004262	-139.905695	-86.568948	54.294997
05078	9.699645	-0.308573	-0.442812	-0.012954	-0.007539	-0.005489	-140.024358	-86.565571	54.407459
05079	9.699624	-0.308028	-0.443659	-0.008297	-0.009244	-0.004784	-140.186315	-86.562373	54.565800
05080	9.688565	-0.305946	-0.477239	-0.003116	-0.009011	-0.005059	-140.304652	-86.558157	54.683583
05081	9.714514	-0.276095	-0.449210	0.000631	-0.013453	-0.005374	-140.490401	-86.553254	54.870895
05082	9.680910	-0.279490	-0.457290	-0.005813	-0.006886	-0.004025	-140.589188	-86.549565	54.967547
05083	9.735032	-0.285857	-0.458576	-0.010715	-0.011034	-0.007029	-140.777949	-86.546282	55.151481
05084	9.694064	-0.345437	-0.485286	-0.002452	-0.012127	-0.006340	-140.922682	-86.541071	55.296092
05085	9.680806	-0.277641	-0.460609	0.005357	-0.014587	-0.006160	-141.115851	-86.535813	55.493475
05086	9.727329	-0.258552	-0.440316	0.005811	-0.013219	-0.005650	-141.256281	-86.529816	55.638520
05087	9.721645	-0.216306	-0.437680	0.000630	-0.013453	-0.005373	-141.438784	-86.524727	55.822600
05088	9.706652	-0.246797	-0.435644	-0.004023	-0.017941	-0.003398	-141.594832	-86.515758	55.977648
05089	9.691648	-0.277350	-0.433895	-0.004479	-0.019310	-0.003907	-141.801795	-86.507439	56.183165
05090	9.699146	-0.302455	-0.457724	-0.000418	-0.017329	-0.003413	-141.950656	-86.498692	56.333085
05091	9.678693	-0.373295	-0.492602	-0.003040	-0.020826	-0.001189	-142.143491	-86.488658	56.525348
05092	9.676687	-0.389245	-0.476460	0.012182	-0.020353	-0.005514	-142.316205	-86.479223	56.706402
05093	9.639008	-0.343204	-0.408878	0.005633	-0.024695	-0.006761	-142.564521	-86.469287	56.959321
05094	9.659503	-0.353211	-0.418751	0.003734	-0.024548	-0.009984	-142.796410	-86.459406	57.194817
05095	9.704552	-0.423269	-0.512929	0.018753	-0.025781	-0.009845	-143.063016	-86.449901	57.473494
05096	9.721491	-0.366932	-0.627694	0.044768	-0.019889	-0.005974	-143.213478	-86.440662	57.650968
05097	9.741949	-0.287044	-0.687779	0.059921	-0.026176	-0.006131	-143.428456	-86.429567	57.901550
05098	9.780862	-0.152302	-0.697155	0.048502	-0.024332	-0.006280	-143.601224	-86.418313	58.103521
05099	9.777141	-0.175773	-0.753520	0.023041	-0.011761	-0.009727	-143.783391	-86.414982	58.300119
05100	9.769568	-0.149604	-0.732104	0.011217	-0.000944	-0.006312	-143.850028	-86.414489	58.374347
05101	9.754543	-0.188533	-0.637243	-0.003614	0.005575	-0.002666	-143.901814	-86.416741	58.424912
05102	9.750636	-0.138588	-0.560219	-0.018422	0.002319	-0.004586	-143.955124	-86.417167	58.468773
05103	9.722579	-0.192301	-0.479898	-0.030031	0.002459	-0.000271	-144.021137	-86.417147	58.518421
05104	9.687321	-0.294225	-0.508818	-0.014039	0.004536	-0.000610	-144.030584	-86.417258	58.520849
05105	9.651868	-0.314211	-0.497493	-0.007144	-0.000660	-0.001451	-144.108933	-86.416195	58.596214
05106	9.720918	-0.290443	-0.501583	0.009889	0.002686	0.007180	-144.056910	-86.412829	58.550788
05107	9.730314	-0.300394	-0.541855	0.010692	-0.005485	0.005606	-144.098331	-86.407146	58.599227
05108	9.724617	-0.259259	-0.538310	0.010095	-0.001800	0.005394	-144.083487	-86.402299	58.591172
05109	9.734028	-0.268860	-0.578482	0.000456	0.001369	0.000507	-144.131492	-86.401504	58.640459
05110	9.745178	-0.270343	-0.545747	-0.013441	0.000853	-0.000398	-144.158683	-86.399833	58.661008
05111	9.717271	-0.315691	-0.556367	-0.015937	0.004682	-0.003833	-144.230406	-86.402017	58.724542
05112	9.685615	-0.393464	-0.530569	-0.010890	0.003781	-0.001136	-144.245960	-86.401953	58.734897
05113	9.756574	-0.352871	-0.552725	-0.007012	0.000477	-0.004431	-144.339139	-86.402361	58.825057
05114	9.708123	-0.387062	-0.555836	0.002425	0.004400	-0.008694	-144.399781	-86.405106	58.888232
05115	9.698543	-0.295390	-0.474781	0.001499	0.005244	-0.001456	-144.440656	-86.406727	58.930989
05116	9.677809	-0.202293	-0.426355	-0.002364	0.004965	-0.006414	-144.484257	-86.408970	58.974340
05117	9.722559	-0.199331	-0.386343	-0.009640	0.003169	-0.004887	-144.567958	-86.410757	59.053410
05118	9.681829	-0.250890	-0.502385	0.002552	0.002929	-0.000737	-144.577374	-86.410158	59.065331
05119	9.754859	-0.276519	-0.583034	0.012647	0.001129	0.004657	-144.587948	-86.407822	59.083855
05120	9.685581	-0.219270	-0.538486	0.016783	-0.002509	0.006340	-144.565345	-86.402334	59.071864
05121	9.739899	-0.218209	-0.630049	-0.001251	0.000611	0.003750	-144.593174	-86.400062	59.099988
05122	9.685776	-0.301923	-0.578703	-0.005321	0.004818	0.000578	-144.587336	-86.399909	59.092105
05123	9.678452	-0.358363	-0.596665	-0.002172	0.004062	0.000052	-144.624750	-86.400455	59.129158
05124	9.702627	-0.345099	-0.549100	-0.002106	0.004630	-0.001438	-144.633029	-86.400883	59.137266
05125	9.687760	-0.375792	-0.545024	0.001109	0.004443	-0.003454	-144.692438	-86.402755	59.198213
05126	9.698921	-0.377048	-0.511983	0.002618	0.003497	-0.002227	-144.709863	-86.402913	59.218197
05127	9.700839	-0.360432	-0.529800	0.010623	0.002744	-0.006521	-144.795527	-86.404990	59.310984
05128	9.682173	-0.332997	-0.540343	0.016267	-0.001840	-0.003611	-144.843492	-86.403104	59.369405
05129	9.708211	-0.303207	-0.511273	0.024063	0.001893	-0.006119	-144.922731	-86.404634	59.463560
05130	9.697113	-0.301345	-0.543611	0.022877	0.003073	-0.003858	-144.942968	-86.405125	59.497991
05131	9.713697	-0.262309	-0.474415	0.022563	-0.003351	-0.004659	-145.039521	-86.403683	59.608534
05132	9.732601	-0.280421	-0.554787	0.018492	0.000853	-0.007833	-145.103581	-86.404431	59.684358
05133	9.712258	-0.260835	-0.637956	0.018151	0.004206	-0.003069	-145.151177	-86.406014	59.743462
05134	9.715861	-0.236592	-0.582671	0.015977	0.008268	-0.003020	-145.142054	-86.408665	59.744515
05135	9.730784	-0.205514	-0.585820	0.005699	0.002173	-0.001263	-145.193880	-86.408678	59.800528
05136	9.723249	-0.179779	-0.563301	-0.002639	0.008880	-0.003146	-145.193214	-86.411658	59.799367
05137	9.680518	-0.256088	-0.569752	-0.015545	0.005477	-0.001848	-145.244288	-86.413411	59.842599
05138	9.678684	-0.271949	-0.550876	-0.017653	0.010106	-0.003289	-145.246951	-86.417016	59.836154
05139	9.702852	-0.258304	-0.502956	-0.018629	0.006799	-0.002813	-145.300259	-86.419704	59.879651
05140	9.669321	-0.262035	-0.509162	-0.018906	0.010718	0.000461	-145.272232	-86.422373	59.841737
05141	9.710527	-0.283461	-0.523374	-0.011944	0.006092	-0.001864	-145.318325	-86.424416	59.881783
05142	9.718153	-0.308858	-0.544672	-0.007496	0.008878	0.000624	-145.292111	-86.426166	59.852236
05143	9.662138	-0.318250	-0.525419	-0.010502	0.004579	0.000853	-145.324412	-86.426595	59.879288
05144	9.695742	-0.314296	-0.517898	-0.009981	0.006516	-0.000128	-145.317625	-86.427478	59.867780
05145	9.727730	-0.318016	-0.583218	-0.004137	0.003637	-0.001685	-145.370327	-86.428286	59.919181
05146	9.707181	-0.307007	-0.575275	-0.005191	0.005952	-0.002404	-145.380943	-86.429644	59.927860
05147	9.724019	-0.259513	-0.596253	-0.008874	0.010958	-0.003581	-145.412345	-86.434506	59.954710
05148	9.737080	-0.244385	-0.580728	-0.012478	0.010343	-0.003564	-145.413020	-86.438312	59.949244
05149	9.716570	-0.233059	-0.572175	-0.015496	0.012233	-0.006018	-145.460097	-86.444552	59.988104
05150	9.697965	-0.205394	-0.581658	-0.023827	0.012750	-0.005215	-145.467277	-86.450031	59.982641
05151	9.699615	-0.196976	-0.507803	-0.029917	0.009772	-0.005953	-145.535132	-86.455111	60.034502
05152	9.664198	-0.216580	-0.495906	-0.041988	0.008535	-0.002156	-145.551544	-86.457607	60.027863
05153	9.677227	-0.201614	-0.480472	-0.045876	0.011835	0.001141	-145.563755	-86.461347	60.014722
05154	9.709659	-0.286797	-0.585758	-0.041408	0.011042	-0.004619	-145.585542	-86.465826	60.013802
05155	9.722685	-0.271614	-0.570570	-0.034708	0.004142	-0.000993	-145.647658	-86.466613	60.056986
05156	9.728444	-0.312872	-0.574013	-0.040360	0.008726	-0.003896	-145.675545	-86.469763	60.062778
05157	9.728505	-0.312252	-0.573326	-0.043969	0.008110	-0.003878	-145.744365	-86.473354	60.107374
05158	9.689285	-0.364179	-0.525459	-0.045804	0.008827	-0.008588	-145.811047	-86.478063	60.148911
05159	9.698888	-0.372317	-0.565122	-0.048426	0.005324	-0.006366	-145.916128	-86.481111	60.227217
05160	9.715351	-0.332878	-0.495086	-0.036501	0.011622	-0.009851	-145.972965	-86.487545	60.264229
05161	9.689109	-0.279317	-0.482476	-0.032896	0.012238	-0.009863	-146.060536	-86.494966	60.333735
05162	9.691088	-0.262120	-0.499650	-0.023705	0.007697	-0.005490	-146.097052	-86.498133	60.357732
05163	9.672441	-0.234372	-0.509622	-0.019429	0.005202	-0.006791	-146.189820	-86.501225	60.440398
05164	9.738120	-0.233350	-0.567674	-0.011441	0.008029	-0.002820	-146.196929	-86.503697	60.441975
05165	9.749213	-0.234958	-0.534163	-0.000365	0.009533	0.002111	-146.186867	-86.506007	60.432636
05166	9.745432	-0.177339	-0.547129	0.000409	0.011126	0.006111	-146.101354	-86.507102	60.348219
05167	9.769929	-0.155981	-0.589546	-0.007410	0.013576	0.005939	-146.044084	-86.510110	60.287648
05168	9.754696	-0.105863	-0.543792	-0.023182	0.017333	0.008570	-145.920110	-86.513349	60.151158
05169	9.678521	-0.187040	-0.557151	-0.034008	0.015482	0.008613	-145.846941	-86.516372	60.058907
05170	9.702556	-0.174742	-0.508467	-0.041228	0.014248	0.008643	-145.748683	-86.518099	59.937823
05171	9.712140	-0.275280	-0.497141	-0.039485	0.019146	0.012185	-145.631072	-86.521710	59.798312
05172	9.647027	-0.267840	-0.527737	-0.027674	0.018106	0.014347	-145.459815	-86.523379	59.611875
05173	9.708894	-0.301555	-0.548634	-0.020730	0.017045	0.020272	-145.279242	-86.523310	59.420096
05174	9.729535	-0.314032	-0.554566	-0.009166	0.016354	0.017458	-145.082520	-86.523065	59.218772
05175	9.712880	-0.272345	-0.581459	-0.011937	0.017900	0.019986	-144.894451	-86.523396	59.024301
05176	9.712939	-0.273991	-0.579704	-0.015342	0.019005	0.015538	-144.701626	-86.524945	58.823336
05177	9.699669	-0.208481	-0.551355	-0.027515	0.023382	0.018158	-144.506262	-86.528364	58.612939
05178	9.727616	-0.164441	-0.538045	-0.029333	0.017912	0.016101	-144.322701	-86.529133	58.413224
05179	9.665885	-0.133751	-0.513617	-0.044665	0.023043	0.019249	-144.130042	-86.531943	58.195544
05180	9.710467	-0.133537	-0.471769	-0.052555	0.018723	0.023220	-143.900608	-86.530608	57.936542
05181	9.689920	-0.125173	-0.462446	-0.056671	0.020286	0.030993	-143.640514	-86.528058	57.644327
05182	9.706550	-0.171663	-0.432249	-0.058924	0.017569	0.035207	-143.330985	-86.521960	57.301425
05183	9.708575	-0.158725	-0.448636	-0.053571	0.016868	0.041404	-143.011120	-86.514099	56.951118
05184	9.705288	-0.186006	-0.502107	-0.052144	0.015337	0.044121	-142.646421	-86.503658	56.556830
05185	9.703501	-0.288140	-0.524148	-0.043562	0.014451	0.048305	-142.286952	-86.492030	56.172451
05186	9.698078	-0.332639	-0.559981	-0.033472	0.012609	0.053710	-141.861674	-86.476663	55.728178
05187	9.723927	-0.308517	-0.529149	-0.029195	0.016313	0.049766	-141.478111	-86.465029	55.328234
05188	9.732692	-0.331611	-0.477064	-0.032817	0.015703	0.049781	-141.069666	-86.452075	54.901190
05189	9.706647	-0.364942	-0.505271	-0.031937	0.014326	0.044026	-140.745396	-86.441294	54.558940
05190	9.714149	-0.394145	-0.526279	-0.035412	0.014873	0.041067	-140.410470	-86.430824	54.204057
05191	9.707764	-0.447294	-0.471332	-0.034294	0.013128	0.040288	-140.124574	-86.420633	53.898657
05192	9.713113	-0.492528	-0.474733	-0.031905	0.010796	0.035753	-139.852627	-86.410105	53.608882
05193	9.694564	-0.468273	-0.484101	-0.024837	0.012955	0.029275	-139.641957	-86.403742	53.384491
05194	9.689047	-0.429362	-0.478533	-0.019719	0.012600	0.030491	-139.391446	-86.395809	53.123185
05195	9.696548	-0.375971	-0.458278	-0.017400	0.009691	0.027438	-139.209922	-86.388592	52.932221
05196	9.719177	-0.372887	-0.482822	-0.015823	0.009310	0.027176	-139.001450	-86.380360	52.715270
05197	9.706119	-0.389767	-0.496807	-0.019367	0.009286	0.025699	-138.836697	-86.373538	52.539971
05198	9.693047	-0.406547	-0.511016	-0.015618	0.004838	0.025352	-138.668852	-86.363984	52.363842
05199	9.722217	-0.438418	-0.467548	-0.010498	0.004480	0.026569	-138.523020	-86.354697	52.212588
05200	9.683196	-0.402838	-0.469846	-0.004388	0.007427	0.027341	-138.321716	-86.345432	52.009377
05201	9.718985	-0.303908	-0.437881	-0.017184	0.011429	0.022989	-138.163506	-86.340414	51.841857
05202	9.677733	-0.365524	-0.463830	-0.023090	0.004012	0.020390	-138.041191	-86.332280	51.707057
05203	9.690692	-0.353176	-0.448668	-0.009231	0.003891	0.022815	-137.925502	-86.324072	51.586749
05204	9.692632	-0.420257	-0.507777	-0.008393	0.006037	0.025346	-137.751145	-86.314853	51.408233
05205	9.733803	-0.363077	-0.480820	0.000093	0.000442	0.024204	-137.642684	-86.304602	51.300487
05206	9.689326	-0.366788	-0.520583	0.001543	0.005110	0.024284	-137.476759	-86.295345	51.136123
05207	9.735854	-0.351284	-0.497955	0.013060	0.003798	0.022957	-137.350102	-86.286954	51.017610
05208	9.715259	-0.342861	-0.490048	0.016522	0.003237	0.025925	-137.177726	-86.276216	50.855378
05209	9.709898	-0.303719	-0.485268	0.016062	0.001874	0.025405	-137.046309	-86.266017	50.733804
05210	9.687101	-0.312178	-0.459490	0.012463	0.005371	0.032223	-136.825042	-86.253648	50.520242
05211	9.688914	-0.380160	-0.518668	0.024562	0.000365	0.031080	-136.663385	-86.240540	50.373243
05212	9.729825	-0.405443	-0.533303	0.034975	0.004886	0.037354	-136.402558	-86.225850	50.132955
05213	9.696505	-0.331384	-0.498346	0.040625	0.006460	0.037610	-136.156858	-86.212593	49.910958
05214	9.707923	-0.408918	-0.597345	0.029767	0.004675	0.037631	-135.902295	-86.197567	49.673950
05215	9.681003	-0.369809	-0.494018	0.033379	0.005268	0.037630	-135.671118	-86.183676	49.462327
05216	9.734953	-0.381381	-0.493425	0.030977	0.007605	0.042177	-135.374277	-86.167886	49.183633
05217	9.721273	-0.481277	-0.548868	0.035787	0.007027	0.039905	-135.120859	-86.153656	48.951103
05218	9.722764	-0.397290	-0.433708	0.035622	0.005870	0.042886	-134.831994	-86.136699	48.683060
05219	9.711806	-0.399412	-0.465804	0.039971	0.003927	0.040094	-134.597452	-86.120989	48.471842
05220	9.690613	-0.473827	-0.499089	0.028616	0.006421	0.038438	-134.339974	-86.105913	48.231226
05221	9.675078	-0.508218	-0.495520	0.036321	-0.000772	0.033299	-134.178978	-86.090992	48.091628
05222	9.677698	-0.569841	-0.481789	0.043007	-0.001535	0.034264	-133.988749	-86.074353	47.926673
05223	9.646887	-0.478561	-0.465736	0.035551	-0.002346	0.029290	-133.862976	-86.060391	47.821927
05224	9.687213	-0.428888	-0.512402	0.028016	-0.003731	0.025803	-133.745545	-86.046325	47.721328
05225	9.713296	-0.402985	-0.483160	0.021080	-0.004695	0.029311	-133.643437	-86.031387	47.631990
05226	9.679583	-0.408828	-0.491084	0.012326	-0.009015	0.021287	-133.593610	-86.017083	47.590144
05227	9.697612	-0.438246	-0.481323	0.004139	-0.007286	0.019098	-133.575418	-86.005345	47.575201
05228	9.704827	-0.465443	-0.504237	-0.006167	-0.007105	0.018141	-133.543074	-85.993099	47.540257
05229	9.689272	-0.497676	-0.501892	-0.008967	-0.009652	0.013867	-133.575885	-85.982591	47.568910
05230	9.694172	-0.540541	-0.507201	-0.002958	-0.011418	0.009322	-133.616781	-85.972302	47.609230
05231	9.658158	-0.561239	-0.497741	-0.009892	-0.012377	0.012830	-133.671414	-85.961132	47.659221
05232	9.698275	-0.437719	-0.413497	0.001311	-0.013947	0.008017	-133.731506	-85.950377	47.721238
05233	9.677741	-0.427135	-0.407593	-0.012259	-0.017671	0.002270	-133.876566	-85.941458	47.860541
05234	9.676418	-0.434530	-0.482144	0.004003	-0.016088	0.006973	-133.952525	-85.930267	47.940011
05235	9.693181	-0.469913	-0.546221	0.005255	-0.018780	0.012670	-134.034577	-85.916586	48.026198
05236	9.697623	-0.438284	-0.584035	0.011181	-0.021123	0.009611	-134.119740	-85.902286	48.119023
05237	9.733368	-0.419586	-0.596468	0.005958	-0.015691	0.008721	-134.204458	-85.891435	48.208296
05238	9.710507	-0.425806	-0.572469	-0.000350	-0.014134	0.009773	-134.254376	-85.879844	48.259162
05239	9.744991	-0.414101	-0.657242	-0.002498	-0.010055	0.009846	-134.304838	-85.870763	48.309240
05240	9.731740	-0.429311	-0.672699	0.004246	-0.004623	0.008151	-134.306692	-85.863639	48.314559
05241	9.722133	-0.421160	-0.632597	0.001448	0.002570	0.009524	-134.284946	-85.859729	48.294499
05242	9.704330	-0.469343	-0.611155	-0.005022	0.002977	0.013557	-134.219301	-85.853425	48.226820
05243	9.686176	-0.442840	-0.621377	-0.007201	0.002945	0.006823	-134.215378	-85.850759	48.219659
05244	9.706600	-0.454395	-0.628576	-0.019003	0.004100	0.004647	-134.200619	-85.848560	48.194967
05245	9.702960	-0.405857	-0.551053	-0.030807	0.005255	0.002473	-134.221090	-85.848593	48.198707
05246	9.748791	-0.469811	-0.569861	-0.035459	0.007000	0.001774	-134.215173	-85.848732	48.173426
05247	9.731049	-0.516773	-0.548069	-0.037991	0.010293	-0.000157	-134.225645	-85.851853	48.163027
05248	9.715618	-0.547286	-0.544232	-0.042156	0.007771	0.000823	-134.224417	-85.852691	48.138600
05249	9.709793	-0.586530	-0.580363	-0.038323	0.015713	-0.004807	-134.229858	-85.859878	48.122963
05250	9.720753	-0.587881	-0.546544	-0.032942	0.011432	-0.006899	-134.245187	-85.865349	48.120430
05251	9.677695	-0.581166	-0.512499	-0.031774	0.015888	-0.010324	-134.276250	-85.874856	48.134258
05252	9.705566	-0.616095	-0.541067	-0.031344	0.013147	-0.016615	-134.334964	-85.884998	48.176140
05253	9.706978	-0.607360	-0.467130	-0.025334	0.011386	-0.021167	-134.448637	-85.897123	48.276480
05254	9.696326	-0.602986	-0.498987	-0.022643	0.009247	-0.022214	-134.556719	-85.907976	48.372855
05255	9.660624	-0.620118	-0.487670	-0.009774	0.007874	-0.028789	-134.725538	-85.921752	48.537428
05256	9.714473	-0.550525	-0.518637	0.003151	0.004973	-0.027399	-134.874023	-85.932951	48.689120
05257	9.701901	-0.406056	-0.522860	0.011122	0.003611	-0.030204	-135.065147	-85.945494	48.888052
05258	9.728296	-0.374862	-0.492596	0.009649	0.008676	-0.024614	-135.174563	-85.957010	49.004305
05259	9.712557	-0.328525	-0.520268	0.011419	0.003816	-0.026703	-135.346141	-85.968149	49.183802
05260	9.728079	-0.295302	-0.522855	0.001947	0.006140	-0.025121	-135.478880	-85.978793	49.319009
05261	9.728175	-0.293111	-0.522287	-0.003032	0.005567	-0.019865	-135.610622	-85.987846	49.450284
05262	9.692390	-0.310954	-0.511274	-0.003574	0.003626	-0.018897	-135.725765	-85.994926	49.564677
05263	9.695259	-0.367535	-0.497251	-0.005510	0.007330	-0.013830	-135.814426	-86.002255	49.651335
05264	9.691889	-0.389354	-0.551739	0.000263	0.003842	-0.013916	-135.897529	-86.007409	49.735813
05265	9.668566	-0.474923	-0.567434	0.005839	0.004828	-0.012174	-135.984726	-86.013027	49.827498
05266	9.689125	-0.484971	-0.574299	0.016993	0.006800	-0.008692	-136.010842	-86.017306	49.864458
05267	9.697183	-0.428295	-0.554624	0.020566	0.001182	-0.006058	-136.074372	-86.018963	49.940885
05268	9.725697	-0.382603	-0.542678	0.008755	0.002319	-0.008235	-136.128240	-86.021205	50.000933
05269	9.709831	-0.337939	-0.570707	0.005678	0.003670	-0.009197	-136.204861	-86.025118	50.081888
05270	9.740593	-0.431594	-0.586293	-0.002793	0.009291	-0.008067	-136.224723	-86.030170	50.101215
05271	9.728725	-0.438219	-0.527400	-0.003634	0.007144	-0.010597	-136.295507	-86.036065	50.171069
05272	9.700353	-0.482234	-0.538508	-0.004095	0.005781	-0.011117	-136.354609	-86.040867	50.228983
05273	9.713533	-0.466919	-0.522844	0.001363	0.011820	-0.009038	-136.386587	-86.048064	50.262793
05274	9.685748	-0.429685	-0.491891	0.006639	0.012602	-0.010792	-136.398810	-86.055563	50.279879
05275	9.693790	-0.372664	-0.471656	0.013912	0.008154	-0.009649	-136.448366	-86.061469	50.338441
05276	9.705839	-0.364430	-0.528870	0.017827	0.008951	-0.006155	-136.447294	-86.065619	50.348627
05277	9.711038	-0.405819	-0.532326	0.022862	0.008001	-0.003443	-136.455317	-86.069017	50.370845
05278	9.713378	-0.389192	-0.549361	0.021282	0.008386	-0.003180	-136.437551	-86.071758	50.366281
05279	9.726520	-0.374676	-0.533373	0.024777	0.014028	-0.002847	-136.406058	-86.077412	50.349911
05280	9.710178	-0.412092	-0.601900	0.015046	0.010507	-0.003620	-136.382252	-86.081207	50.335711
05281	9.698252	-0.419112	-0.542827	0.010671	0.008345	-0.007635	-136.420554	-86.086390	50.381211
05282	9.727314	-0.448000	-0.498656	0.006314	0.010288	-0.004841	-136.410415	-86.090577	50.375695
05283	9.686393	-0.425430	-0.482814	-0.004374	0.009669	-0.007811	-136.450750	-86.096359	50.414510
05284	9.693915	-0.449962	-0.504185	0.000361	0.008512	-0.008595	-136.477203	-86.101289	50.442254
05285	9.684251	-0.440199	-0.463395	0.004099	0.004052	-0.008931	-136.552168	-86.105174	50.520637
05286	9.706061	-0.440913	-0.561357	0.008674	0.001741	-0.006738	-136.601873	-86.106552	50.576458
05287	9.719590	-0.344607	-0.504898	0.011089	0.003504	-0.004469	-136.648806	-86.108434	50.630775
05288	9.713431	-0.309156	-0.573275	0.003100	0.000749	-0.008483	-136.718226	-86.110077	50.703156
05289	9.757793	-0.307323	-0.532689	-0.004239	0.008724	-0.001339	-136.724516	-86.112915	50.708211
05290	9.713527	-0.308534	-0.571985	-0.017786	0.009083	-0.000292	-136.707515	-86.114814	50.681978
05291	9.699262	-0.332112	-0.495036	-0.025898	0.011378	-0.003972	-136.727018	-86.119779	50.687601
05292	9.689163	-0.404309	-0.495222	-0.033955	0.012151	0.000311	-136.697742	-86.122720	50.639779
05293	9.679063	-0.476579	-0.495459	-0.020786	0.011007	-0.002743	-136.708889	-86.127049	50.639956
05294	9.642302	-0.502714	-0.557009	-0.021624	0.008859	-0.005272	-136.725982	-86.130811	50.645691
05295	9.709478	-0.495381	-0.541427	-0.011313	0.008695	-0.004307	-136.754723	-86.134780	50.669071
05296	9.692299	-0.460728	-0.478163	-0.007697	0.009287	-0.004307	-136.755436	-86.138341	50.666387
05297	9.725333	-0.382012	-0.501373	-0.009951	0.008680	-0.009552	-136.815685	-86.144350	50.721927
05298	9.694168	-0.368078	-0.525694	-0.015353	0.012945	-0.007464	-136.819120	-86.150677	50.717574
05299	9.707278	-0.353000	-0.509870	-0.013272	0.008295	-0.006054	-136.862273	-86.155142	50.754017
05300	9.709307	-0.417252	-0.568384	-0.015893	0.011005	-0.006497	-136.871388	-86.160280	50.755046
05301	9.734519	-0.394596	-0.610561	-0.012277	0.011597	-0.006497	-136.897267	-86.166308	50.774990
05302	9.691270	-0.388464	-0.576712	-0.015437	0.012367	-0.005974	-136.894931	-86.171811	50.764805
05303	9.709598	-0.415062	-0.565015	-0.018436	0.014293	-0.008426	-136.920943	-86.179710	50.781217
05304	9.686883	-0.419771	-0.538327	-0.021220	0.015845	-0.005894	-136.900991	-86.186636	50.750056
05305	9.712725	-0.471801	-0.548780	-0.016563	0.014113	-0.005188	-136.906549	-86.193175	50.747059
05306	9.687096	-0.418417	-0.535529	-0.009166	0.016457	-0.008159	-136.890206	-86.201244	50.726437
05307	9.723652	-0.472592	-0.513112	-0.010991	0.015105	-0.003437	-136.875363	-86.207520	50.706327
05308	9.746610	-0.466395	-0.536842	-0.013827	0.018189	-0.008862	-136.855735	-86.216588	50.679737
05309	9.702525	-0.466694	-0.575454	-0.012705	0.016442	-0.009645	-136.872902	-86.225837	50.690729
05310	9.726357	-0.453292	-0.526127	-0.010425	0.019157	-0.013841	-136.877065	-86.237260	50.689936
05311	9.705981	-0.440989	-0.516853	-0.008389	0.020135	-0.013577	-136.894763	-86.249573	50.703878
05312	9.734434	-0.394521	-0.502904	-0.004316	0.022092	-0.013049	-136.872826	-86.261913	50.680436
05313	9.701069	-0.396534	-0.508365	-0.006730	0.020330	-0.015322	-136.899509	-86.274989	50.704220
05314	9.737082	-0.375164	-0.516639	-0.005819	0.023054	-0.014273	-136.880368	-86.288211	50.682718
05315	9.691505	-0.384931	-0.463830	-0.013725	0.024971	-0.012972	-136.868084	-86.302308	50.663526
05316	9.683345	-0.364986	-0.512293	-0.011558	0.020901	-0.013053	-136.857149	-86.314152	50.646953
05317	9.707100	-0.351365	-0.462494	-0.017720	0.023592	-0.014985	-136.868151	-86.328441	50.648590
05318	9.738384	-0.444250	-0.476720	-0.013598	0.019921	-0.013315	-136.865980	-86.339977	50.639629
05319	9.727912	-0.440898	-0.507583	-0.001328	0.020168	-0.010584	-136.859759	-86.351126	50.633586
05320	9.720452	-0.414329	-0.483239	0.002160	0.021720	-0.017045	-136.861907	-86.364876	50.637999
05321	9.732915	-0.404958	-0.539275	-0.000414	0.018799	-0.016349	-136.901507	-86.377682	50.678367
05322	9.694912	-0.439787	-0.509344	0.002748	0.018033	-0.016866	-136.925197	-86.389819	50.704703
05323	9.677436	-0.404118	-0.445348	0.002964	0.013564	-0.018699	-137.011542	-86.401370	50.793746
05324	9.720469	-0.414238	-0.549386	0.002290	0.016671	-0.017389	-137.048031	-86.413137	50.832643
05325	9.695303	-0.353327	-0.462937	0.004407	0.018230	-0.018607	-137.104762	-86.426564	50.892653
05326	9.703124	-0.376820	-0.483526	0.002288	0.016670	-0.017387	-137.141828	-86.438326	50.932125
05327	9.680214	-0.299473	-0.415079	-0.006529	0.015854	-0.017146	-137.210002	-86.450191	50.997231
05328	9.707926	-0.259162	-0.474299	-0.012322	0.019323	-0.017072	-137.237225	-86.462941	51.018454
05329	9.720948	-0.243189	-0.457659	-0.009777	0.016038	-0.015142	-137.293463	-86.474099	51.070266
05330	9.713541	-0.297861	-0.475479	-0.024551	0.017529	-0.011859	-137.303761	-86.484067	51.067510
05331	9.711329	-0.313139	-0.455911	-0.027264	0.019654	-0.010816	-137.318006	-86.495073	51.066891
05332	9.703948	-0.368163	-0.473567	-0.022231	0.018712	-0.008092	-137.293530	-86.504074	51.030629
05333	9.709454	-0.408930	-0.476390	-0.014321	0.016806	-0.009380	-137.308193	-86.513300	51.038109
05334	9.701835	-0.382952	-0.452421	-0.006799	0.018209	-0.005862	-137.262428	-86.521222	50.989377
05335	9.701948	-0.382200	-0.450639	-0.005053	0.018988	-0.009088	-137.255722	-86.531261	50.981053
05336	9.681451	-0.370416	-0.441566	0.002859	0.017084	-0.010376	-137.242677	-86.540464	50.970646
05337	9.684197	-0.434173	-0.499653	0.000289	0.014159	-0.009686	-137.267993	-86.548727	50.997475
05338	9.697170	-0.418866	-0.483323	0.003454	0.013398	-0.010201	-137.277184	-86.556311	51.009685
05339	9.707381	-0.426619	-0.522202	0.006536	0.012056	-0.009230	-137.309081	-86.563472	51.046306
05340	9.733202	-0.396916	-0.490939	0.003535	0.013978	-0.011685	-137.325042	-86.571876	51.065345
05341	9.692064	-0.374011	-0.475083	-0.000904	0.011231	-0.014235	-137.402531	-86.580616	51.143374
05342	9.720219	-0.327274	-0.461738	-0.005488	0.013533	-0.016432	-137.460514	-86.590670	51.199330
05343	9.692309	-0.370926	-0.472501	-0.001421	0.015498	-0.015891	-137.522782	-86.601843	51.261795
05344	9.699455	-0.320025	-0.524810	0.005261	0.008551	-0.012291	-137.578244	-86.608182	51.321395
05345	9.696788	-0.254392	-0.463949	0.003136	0.017286	-0.006875	-137.561980	-86.616601	51.307872
05346	9.738155	-0.275096	-0.477103	0.004662	0.012236	-0.012464	-137.595228	-86.624564	51.344875
05347	9.725415	-0.288453	-0.490891	-0.001835	0.012595	-0.008469	-137.624071	-86.631649	51.373839
05348	9.725505	-0.287780	-0.489501	-0.007349	0.016259	-0.004906	-137.583596	-86.638393	51.330097
05349	9.725599	-0.287176	-0.487981	-0.014501	0.015633	-0.006419	-137.585368	-86.645959	51.324607
05350	9.723331	-0.303118	-0.468804	-0.015117	0.013109	-0.003977	-137.563197	-86.651011	51.294742
05351	9.708240	-0.333628	-0.464590	-0.018968	0.016973	-0.002153	-137.527355	-86.657485	51.248850
05352	9.713798	-0.374976	-0.467614	-0.021453	0.014627	-0.002951	-137.491118	-86.662779	51.201259
05353	9.695584	-0.347324	-0.476843	-0.019954	0.013667	-0.001723	-137.474362	-86.667676	51.173869
05354	9.682852	-0.361132	-0.490716	-0.022640	0.011701	-0.007501	-137.491116	-86.673495	51.178677
05355	9.685535	-0.337590	-0.434282	-0.022591	0.016368	-0.002164	-137.460709	-86.679715	51.136312
05356	9.739727	-0.344217	-0.432418	-0.023693	0.014024	-0.008198	-137.467606	-86.686785	51.130643
05357	9.693554	-0.361478	-0.453921	-0.019877	0.014246	-0.003202	-137.457406	-86.692459	51.109533
05358	9.747744	-0.368239	-0.452085	-0.021379	0.015206	-0.004428	-137.427416	-86.698567	51.068243
05359	9.673062	-0.349689	-0.443880	-0.007808	0.014899	-0.005417	-137.421377	-86.705411	51.058607
05360	9.713886	-0.289616	-0.415150	-0.018296	0.013866	-0.003456	-137.391306	-86.710575	51.019007
05361	9.716897	-0.353976	-0.473730	-0.013794	0.010983	0.000226	-137.373835	-86.713571	50.994370
05362	9.706698	-0.345357	-0.432620	-0.010626	0.010226	-0.000285	-137.340542	-86.715968	50.955945
05363	9.729777	-0.339545	-0.456796	-0.005957	0.008507	0.000431	-137.333653	-86.717830	50.946418
05364	9.688492	-0.318031	-0.441369	-0.005508	0.009869	0.000961	-137.290615	-86.719591	50.901169
05365	9.698794	-0.326559	-0.480594	-0.012661	0.009242	-0.000558	-137.289933	-86.722161	50.894242
05366	9.704477	-0.361721	-0.411367	-0.014612	0.008841	-0.002315	-137.283098	-86.724762	50.880031
05367	9.691609	-0.382122	-0.498668	-0.011527	0.007501	-0.001343	-137.299222	-86.726882	50.890519
05368	9.740985	-0.422196	-0.462148	-0.009706	0.002658	-0.003444	-137.339905	-86.727317	50.926719
05369	9.684541	-0.430950	-0.444408	-0.004854	0.008316	-0.008297	-137.397353	-86.732471	50.982620
05370	9.715663	-0.443263	-0.418133	-0.001852	0.006394	-0.005842	-137.425963	-86.735408	51.011234
05371	9.735763	-0.372259	-0.382554	0.004416	0.010509	-0.007984	-137.461422	-86.741398	51.050561
05372	9.723058	-0.385751	-0.396779	0.008272	0.006650	-0.009810	-137.512103	-86.745978	51.107091
05373	9.725500	-0.368276	-0.414012	0.012493	0.003570	-0.009624	-137.602341	-86.749638	51.205813
05374	9.753469	-0.322304	-0.401020	0.017373	0.007679	-0.006531	-137.616663	-86.753380	51.231148
05375	9.709701	-0.322959	-0.440991	0.023346	0.005385	-0.009564	-137.688228	-86.757729	51.317062
05376	9.732796	-0.316472	-0.465734	0.016546	-0.000675	-0.006469	-137.759581	-86.757902	51.399045
05377	9.694641	-0.352381	-0.437577	0.017173	0.008062	-0.011508	-137.831315	-86.764167	51.482201
05378	9.681947	-0.365894	-0.451903	0.025292	0.005788	-0.007804	-137.863925	-86.767589	51.530398
05379	9.715428	-0.361647	-0.443638	0.029063	0.001346	-0.008143	-137.949733	-86.769667	51.633873
05380	9.705089	-0.358708	-0.476299	0.028697	0.000565	-0.010154	-138.033845	-86.771759	51.735607
05381	9.717885	-0.343405	-0.461088	0.025162	0.000540	-0.011656	-138.153818	-86.774853	51.871412
05382	9.684497	-0.346056	-0.468635	0.026056	0.003265	-0.010597	-138.224801	-86.778247	51.958481
05383	9.686929	-0.328558	-0.485972	0.029754	0.004452	-0.012058	-138.319132	-86.783053	52.070290
05384	9.725224	-0.284626	-0.440279	0.026782	0.004829	-0.006570	-138.348786	-86.785572	52.116381
05385	9.702196	-0.289784	-0.414891	0.025437	0.000740	-0.008155	-138.441047	-86.787322	52.224282
05386	9.712539	-0.297867	-0.454746	0.021048	0.002656	-0.005381	-138.479756	-86.788451	52.276151
05387	9.712568	-0.297342	-0.454464	0.020683	0.001873	-0.007392	-138.561855	-86.790424	52.371485
05388	9.710226	-0.313212	-0.436445	0.018651	0.000888	-0.007666	-138.631503	-86.791652	52.452966
05389	9.743688	-0.308939	-0.428399	0.017513	0.002629	-0.006884	-138.706012	-86.793694	52.538528
05390	9.712656	-0.295451	-0.453823	0.018649	0.000888	-0.007664	-138.775791	-86.794910	52.620139
05391	9.699937	-0.309352	-0.468769	0.018482	-0.000272	-0.004697	-138.853136	-86.794872	52.708947
05392	9.687221	-0.323400	-0.483593	0.011093	0.003561	-0.004386	-138.884061	-86.795995	52.747307
05393	9.699983	-0.308760	-0.468206	0.014541	0.003010	-0.001398	-138.916119	-86.796141	52.788802
05394	9.700826	-0.389667	-0.509508	0.010812	0.003355	-0.007880	-138.975619	-86.798487	52.855619
05395	9.720729	-0.318654	-0.474931	0.014783	-0.001458	-0.003232	-139.051184	-86.797342	52.940313
05396	9.739079	-0.345530	-0.464097	0.016372	0.004369	-0.006100	-139.087031	-86.799452	52.986632
05397	9.720790	-0.317758	-0.474283	0.011174	0.004139	-0.005869	-139.148207	-86.801733	53.055124
05398	9.705738	-0.348010	-0.470994	0.007726	0.004689	-0.008858	-139.208418	-86.805009	53.120883
05399	9.695430	-0.345041	-0.503402	0.012559	0.004134	-0.011099	-139.309748	-86.809208	53.230478
05400	9.728918	-0.340507	-0.494965	0.007035	0.007794	-0.007550	-139.339659	-86.813335	53.265493
05401	9.741707	-0.325481	-0.479074	0.009429	0.009565	-0.005265	-139.359795	-86.817688	53.291766
05402	9.723458	-0.297392	-0.488513	0.000425	0.015302	-0.012652	-139.383176	-86.826981	53.316448
05403	9.738639	-0.265423	-0.490027	-0.005468	0.011971	-0.008498	-139.421884	-86.833647	53.353737
05404	9.707676	-0.251789	-0.514359	-0.016025	0.016556	-0.007689	-139.407391	-86.841636	53.331047
05405	9.728459	-0.255219	-0.447026	-0.015746	0.016762	-0.004193	-139.385308	-86.848717	53.300411
05406	9.695124	-0.258523	-0.453284	-0.018998	0.016938	-0.002205	-139.326335	-86.854824	53.231467
05407	9.734252	-0.296275	-0.448252	-0.017499	0.015981	-0.000973	-139.284705	-86.860369	53.180340
05408	9.698528	-0.316327	-0.436866	-0.011247	0.013893	-0.000497	-139.228105	-86.864509	53.118221
05409	9.685891	-0.330689	-0.450573	-0.021198	0.014793	0.000487	-139.184943	-86.869001	53.063963
05410	9.714604	-0.359693	-0.405911	-0.019647	0.009742	-0.005095	-139.197811	-86.873058	53.066596
05411	9.691570	-0.364761	-0.379964	-0.027848	0.011423	-0.007329	-139.244092	-86.879021	53.098111
05412	9.694020	-0.347379	-0.396916	-0.028742	0.008695	-0.008384	-139.295681	-86.883853	53.134305
05413	9.655024	-0.308299	-0.399818	-0.021628	0.004664	-0.012184	-139.422983	-86.888664	53.250389
05414	9.711583	-0.297766	-0.416606	-0.016681	0.003157	-0.007962	-139.502632	-86.890921	53.321604
05415	9.678211	-0.300724	-0.424166	-0.012705	0.004550	-0.005925	-139.575852	-86.893324	53.388594
05416	9.698969	-0.311035	-0.430836	-0.015151	0.006870	-0.001397	-139.576611	-86.894753	53.381681
05417	9.703889	-0.284389	-0.538698	-0.012760	0.008639	0.000892	-139.567471	-86.896426	53.366184
05418	9.698152	-0.236071	-0.460532	-0.016653	0.007826	-0.002627	-139.572416	-86.898729	53.362601
05419	9.698182	-0.235928	-0.459963	-0.017351	0.004722	0.001291	-139.588835	-86.898542	53.370202
05420	9.731617	-0.232292	-0.451430	-0.021132	0.009158	0.001626	-139.552978	-86.899846	53.323187
05421	9.708531	-0.238269	-0.425782	-0.016991	0.005504	0.003304	-139.547631	-86.899286	53.309490
05422	9.708543	-0.238696	-0.425262	-0.018299	0.006081	0.007051	-139.487626	-86.897229	53.239918
05423	9.693483	-0.270410	-0.421835	-0.018633	0.009966	0.010377	-139.395990	-86.895985	53.139283
05424	9.693473	-0.271473	-0.421380	-0.012826	0.000306	0.012924	-139.325748	-86.889216	53.062598
05425	9.699079	-0.314435	-0.425869	-0.017667	0.000855	0.015163	-139.257539	-86.882122	52.984663
05426	9.694394	-0.355059	-0.463270	-0.013104	0.000106	0.009430	-139.217233	-86.876564	52.937798
05427	9.699005	-0.316574	-0.425963	-0.020061	-0.000913	0.012874	-139.181745	-86.869604	52.891866
05428	9.681462	-0.365085	-0.405845	-0.021314	-0.004420	0.009801	-139.174474	-86.861942	52.873374
05429	9.725252	-0.370773	-0.438470	-0.022817	-0.003461	0.008572	-139.192147	-86.855455	52.878653
05430	9.704490	-0.360664	-0.431762	-0.020008	-0.004996	0.006054	-139.217610	-86.848946	52.893694
05431	9.729831	-0.332516	-0.402096	-0.021679	-0.005201	0.007790	-139.252333	-86.841999	52.917178
05432	9.721905	-0.314234	-0.453294	-0.018340	-0.004790	0.004321	-139.288884	-86.836226	52.944281
05433	9.711439	-0.306183	-0.413852	-0.018956	-0.007318	0.006754	-139.343395	-86.828759	52.989250
05434	9.680372	-0.293931	-0.440416	-0.026361	-0.009700	0.009669	-139.375365	-86.818854	53.007162
05435	9.747130	-0.287328	-0.425657	-0.030258	-0.010505	0.006151	-139.462393	-86.810215	53.078233
05436	9.690526	-0.297455	-0.409928	-0.038197	-0.014834	0.010018	-139.532095	-86.797941	53.127145
05437	9.680924	-0.370559	-0.413649	-0.042906	-0.017779	0.003957	-139.690919	-86.786930	53.262775
05438	9.701464	-0.375226	-0.349824	-0.043273	-0.018557	0.001946	-139.849440	-86.776001	53.397735
05439	9.709376	-0.400363	-0.374199	-0.036570	-0.019288	0.002945	-140.020067	-86.764623	53.548588
05440	9.704607	-0.445789	-0.486921	-0.022661	-0.023457	-0.001362	-140.222107	-86.752709	53.738969
05441	9.753048	-0.411202	-0.483479	-0.009120	-0.013462	0.001900	-140.345462	-86.744264	53.858332
05442	9.709228	-0.412271	-0.525619	-0.006507	-0.014601	-0.005601	-140.512208	-86.737751	54.022635
05443	9.745006	-0.391258	-0.536614	-0.010036	-0.008410	-0.009695	-140.692085	-86.735685	54.198080
05444	9.732273	-0.404672	-0.552577	-0.009673	-0.007633	-0.007681	-140.831557	-86.732964	54.333248
05445	9.727526	-0.442960	-0.590899	-0.009870	-0.007241	-0.012657	-141.026584	-86.732453	54.524056
05446	9.737048	-0.362987	-0.516160	-0.004294	-0.000016	-0.013468	-141.159861	-86.735165	54.656106
05447	9.688570	-0.390213	-0.448530	-0.002791	-0.000977	-0.012242	-141.307675	-86.737178	54.802982
05448	9.739503	-0.337797	-0.460886	-0.001814	0.002331	-0.012659	-141.418865	-86.740616	54.914331
05449	9.729205	-0.334195	-0.493622	0.000911	0.000217	-0.013702	-141.569556	-86.743729	55.067706
05450	9.744331	-0.302097	-0.496083	0.015223	0.001487	-0.010656	-141.660924	-86.746047	55.168978
05451	9.698237	-0.318997	-0.518945	0.008067	0.000851	-0.012179	-141.792472	-86.748856	55.306724
05452	9.722786	-0.214439	-0.519353	0.014692	-0.000459	-0.009706	-141.889043	-86.749939	55.412903
05453	9.707730	-0.244721	-0.516743	0.005008	0.000626	-0.005210	-141.967314	-86.750111	55.495111
05454	9.695036	-0.258569	-0.531826	-0.000198	0.000392	-0.004976	-142.029588	-86.749893	55.558393
05455	9.736459	-0.273266	-0.473416	-0.010973	-0.000856	-0.006520	-142.136770	-86.749864	55.660662
05456	9.703055	-0.276465	-0.481204	-0.007766	0.003047	-0.001684	-142.160701	-86.749681	55.681196
05457	9.716729	-0.342717	-0.508113	-0.001701	0.001352	-0.006201	-142.246325	-86.750498	55.766864
05458	9.704973	-0.431433	-0.492539	0.007651	-0.002071	-0.004772	-142.317654	-86.749074	55.843719
05459	9.727108	-0.344145	-0.475248	0.015783	0.001875	-0.003666	-142.370382	-86.749274	55.907338
05460	9.693710	-0.347513	-0.482902	0.010577	0.001640	-0.003431	-142.406412	-86.749057	55.950516
05461	9.706437	-0.332707	-0.467630	0.008263	0.000460	-0.007202	-142.500054	-86.749806	56.050300
05462	9.729540	-0.325952	-0.492527	0.004809	0.001017	-0.010185	-142.597332	-86.751653	56.151515
05463	9.704186	-0.353648	-0.522521	0.005784	0.004326	-0.010602	-142.695407	-86.755279	56.253713
05464	9.704233	-0.352623	-0.522341	0.007535	-0.001096	-0.011227	-142.812714	-86.756503	56.376552
05465	9.719308	-0.320761	-0.525036	0.010988	-0.001652	-0.008243	-142.926039	-86.756567	56.497053
05466	9.711298	-0.295063	-0.502815	0.005700	-0.002473	-0.006528	-143.014947	-86.755513	56.590395
05467	9.749413	-0.251309	-0.457295	0.000941	0.004867	-0.008355	-143.095449	-86.758619	56.673085
05468	9.705694	-0.252001	-0.497493	0.013300	0.005744	-0.007064	-143.134498	-86.761502	56.720849
05469	9.693043	-0.265887	-0.512073	0.011549	0.004951	-0.003847	-143.171398	-86.763055	56.765425
05470	9.728843	-0.245197	-0.521411	0.013217	0.005159	-0.005583	-143.202143	-86.765157	56.804825
05471	9.719534	-0.317450	-0.522861	0.005203	0.006451	-0.002827	-143.226065	-86.767067	56.832980
05472	9.711541	-0.292304	-0.499717	0.004426	0.008967	-0.000027	-143.193632	-86.769010	56.804056
05473	9.729961	-0.319490	-0.488434	0.002031	0.007201	-0.002317	-143.210512	-86.771073	56.823330
05474	9.717324	-0.333364	-0.502926	-0.003817	0.005990	-0.007591	-143.262455	-86.774244	56.874185
05475	9.702354	-0.363561	-0.499611	-0.008048	0.009061	-0.007776	-143.317825	-86.779007	56.925835
05476	9.684056	-0.335333	-0.509208	-0.006297	0.009853	-0.010993	-143.375751	-86.785112	56.981260
05477	9.715203	-0.347274	-0.482539	0.001302	0.011858	-0.008934	-143.418845	-86.791588	57.026521
05478	9.692204	-0.352345	-0.456439	0.004474	0.011108	-0.009443	-143.450601	-86.797736	57.061914
05479	9.712021	-0.287193	-0.493313	0.011792	0.012918	-0.010877	-143.497081	-86.805289	57.116050
05480	9.701687	-0.278037	-0.451866	0.019224	0.013756	-0.005855	-143.474816	-86.811431	57.105802
05481	9.716889	-0.252831	-0.526319	0.017722	0.008501	-0.004487	-143.493041	-86.814807	57.135432
05482	9.734199	-0.198967	-0.472577	0.016163	0.013534	0.001110	-143.416165	-86.818471	57.068732
05483	9.721583	-0.213664	-0.486647	0.014579	0.007696	0.003958	-143.371391	-86.818612	57.033482
05484	9.737627	-0.258046	-0.457654	0.010879	0.006500	0.005415	-143.305073	-86.817563	56.974325
05485	9.715677	-0.345509	-0.474178	0.013689	0.004970	0.002896	-143.286006	-86.816778	56.963997
05486	9.700669	-0.376858	-0.470960	0.014133	0.006333	0.003428	-143.235312	-86.816328	56.922356
05487	9.728530	-0.337892	-0.530795	0.011906	0.005731	-0.001825	-143.250996	-86.817503	56.945499
05488	9.699741	-0.302034	-0.500665	0.020281	0.005219	-0.002559	-143.253071	-86.818594	56.960236
05489	9.679041	-0.291325	-0.492668	0.004864	0.010331	0.000504	-143.225178	-86.821101	56.936350
05490	9.691726	-0.276994	-0.476946	0.012436	0.001465	-0.000177	-143.235252	-86.819652	56.954596
05491	9.710124	-0.304140	-0.465975	0.011988	0.006313	-0.003305	-143.259181	-86.821652	56.986753
05492	9.697502	-0.318296	-0.480596	0.009430	0.003379	-0.002633	-143.279464	-86.821923	57.013498
05493	9.699897	-0.301639	-0.497881	0.008649	0.005898	0.000163	-143.279801	-86.822526	57.020424
05494	9.718304	-0.328988	-0.486610	0.012710	0.007874	0.000721	-143.242719	-86.823712	56.991599
05495	9.743638	-0.300369	-0.455635	0.017384	0.006167	0.001445	-143.225264	-86.823950	56.985046
05496	9.707883	-0.320661	-0.445501	0.013215	-0.001055	-0.002970	-143.273561	-86.822302	57.042021
05497	9.734560	-0.379026	-0.530020	0.017885	0.003449	-0.004844	-143.325163	-86.823482	57.105415
05498	9.718400	-0.328586	-0.484963	0.016660	0.004605	-0.002579	-143.333326	-86.824297	57.124171
05499	9.733454	-0.297368	-0.487116	0.011541	0.004948	-0.003835	-143.370977	-86.825802	57.169468
05500	9.720844	-0.311364	-0.501752	0.011180	0.004166	-0.005847	-143.412119	-86.827530	57.218108
05501	9.687493	-0.314525	-0.509203	0.009677	0.005123	-0.007076	-143.476983	-86.830225	57.289738
05502	9.695449	-0.332457	-0.457928	0.008257	0.006661	-0.009787	-143.537387	-86.834439	57.355994
05503	9.695735	-0.337815	-0.530129	0.005252	0.008573	-0.012245	-143.626253	-86.840458	57.448991
05504	9.700331	-0.297140	-0.492099	0.002251	0.004276	-0.012104	-143.724593	-86.844347	57.549794
05505	9.715392	-0.265096	-0.494292	0.007812	0.005298	-0.010316	-143.816533	-86.848185	57.647696
05506	9.728078	-0.249706	-0.478646	0.007812	0.005297	-0.010316	-143.890848	-86.851925	57.727627
05507	9.725754	-0.265431	-0.460397	0.009231	0.003761	-0.007604	-143.969302	-86.854088	57.812496
05508	9.730525	-0.231725	-0.495545	0.009591	0.004543	-0.005592	-144.007666	-86.855877	57.857442
05509	9.730558	-0.231300	-0.495109	0.009508	0.003962	-0.004110	-144.055347	-86.856998	57.911831
05510	9.705331	-0.259905	-0.524914	0.006253	0.004130	-0.002126	-144.068946	-86.857427	57.930059
05511	9.723755	-0.286873	-0.513854	0.001136	0.004470	-0.003384	-144.112322	-86.858557	57.975639
05512	9.708806	-0.317435	-0.510579	-0.001426	0.007744	-0.005314	-144.135201	-86.861733	57.998755
05513	9.698348	-0.308409	-0.469849	0.003247	0.006040	-0.004586	-144.177762	-86.864026	58.045316
05514	9.731777	-0.304332	-0.461173	0.009250	0.008428	-0.002267	-144.164580	-86.866496	58.038443
05515	9.703191	-0.274728	-0.503711	0.013474	0.011568	-0.004670	-144.168180	-86.871316	58.051248
05516	9.726125	-0.262021	-0.454487	0.015502	0.012557	-0.004391	-144.144079	-86.876417	58.037027
05517	9.726465	-0.268412	-0.526329	0.011554	0.009620	0.001507	-144.108540	-86.878242	58.009495
05518	9.739134	-0.253963	-0.510171	0.005018	0.011495	-0.002465	-144.080473	-86.882201	57.985286
05519	9.706841	-0.332316	-0.485939	0.002906	0.009924	-0.001263	-144.070724	-86.885117	57.978416
05520	9.717440	-0.340739	-0.524894	0.008631	0.012110	-0.002435	-144.036421	-86.889351	57.950036
05521	9.704588	-0.348518	-0.465809	0.012244	0.012725	-0.002405	-144.014022	-86.893946	57.936409
05522	9.714875	-0.350514	-0.431595	0.014188	0.013134	-0.000643	-143.954681	-86.898049	57.886143
05523	9.715261	-0.357118	-0.503369	0.023534	0.009728	0.000821	-143.916535	-86.900127	57.862181
05524	9.763677	-0.322496	-0.496960	0.024059	0.011671	-0.000129	-143.856053	-86.903375	57.816435
05525	9.735138	-0.293557	-0.539249	0.028387	0.013855	0.003926	-143.762471	-86.906316	57.740104
05526	9.757004	-0.207083	-0.521003	0.028743	0.014639	0.005939	-143.628521	-86.908868	57.623472
05527	9.742095	-0.238667	-0.516490	0.028733	0.020844	0.003334	-143.494860	-86.915185	57.507289
05528	9.708835	-0.243051	-0.522134	0.016931	0.026569	0.006387	-143.287433	-86.923037	57.310297
05529	9.735511	-0.295743	-0.531263	-0.000619	0.020765	-0.000058	-143.198948	-86.930386	57.221856
05530	9.668468	-0.296451	-0.472383	-0.009619	0.020283	-0.004849	-143.141709	-86.939173	57.160037
05531	9.683524	-0.437543	-0.465652	-0.012434	0.021817	-0.002340	-143.071947	-86.947886	57.084455
05532	9.721369	-0.393716	-0.418502	0.006150	0.015957	-0.005849	-143.041570	-86.955030	57.058585
05533	9.657161	-0.384225	-0.450657	0.020684	0.018996	-0.007194	-143.012894	-86.964108	57.043561
05534	9.736572	-0.361462	-0.417461	0.037945	0.019922	-0.009563	-142.970263	-86.974346	57.023663
05535	9.698030	-0.329512	-0.492014	0.034770	0.020671	-0.009065	-142.938560	-86.984848	57.013363
05536	9.723293	-0.299671	-0.459648	0.029740	0.021586	-0.011814	-142.908900	-86.996622	57.001746
05537	9.715182	-0.273417	-0.435523	0.014852	0.017759	-0.012485	-142.936445	-87.006885	57.038830
05538	9.725981	-0.280723	-0.473532	0.005678	0.022318	-0.016930	-142.960586	-87.020760	57.067282
05539	9.710585	-0.303357	-0.395978	-0.002951	0.016413	-0.017109	-143.047902	-87.031954	57.152912
05540	9.744048	-0.298044	-0.386194	0.008151	0.018471	-0.013505	-143.066652	-87.042885	57.177384
05541	9.738308	-0.255377	-0.380154	0.024983	0.016512	-0.008451	-143.062806	-87.051268	57.189478
05542	9.730721	-0.236133	-0.429259	0.025066	0.017090	-0.009931	-143.049442	-87.060336	57.191498
05543	9.749186	-0.262606	-0.416846	0.024369	0.013992	-0.006014	-143.040252	-87.066731	57.198610
05544	9.711685	-0.305568	-0.460624	0.026563	0.016137	-0.008692	-143.021296	-87.074937	57.195890
05545	9.724953	-0.296972	-0.516744	0.019951	0.017422	-0.011202	-143.038391	-87.084749	57.226771
05546	9.720203	-0.328662	-0.479478	0.018364	0.013116	-0.016282	-143.113076	-87.094183	57.313109
05547	9.672148	-0.257268	-0.387062	0.011229	0.012458	-0.017841	-143.228089	-87.103851	57.435246
05548	9.709020	-0.309827	-0.364086	0.006033	0.012213	-0.017635	-143.329500	-87.113319	57.541269
05549	9.665025	-0.303353	-0.331252	0.013351	0.007826	-0.016424	-143.462930	-87.120344	57.682898
05550	9.669959	-0.269056	-0.366198	0.015203	0.007665	-0.013175	-143.550339	-87.126176	57.780160
05551	9.673148	-0.153410	-0.360013	0.017058	0.002822	-0.015251	-143.706125	-87.130495	57.946863
05552	9.709631	-0.138696	-0.442336	0.007375	0.003908	-0.010821	-143.802506	-87.133772	58.048617
05553	9.690581	-0.208463	-0.476336	0.000595	0.004035	-0.010372	-143.915545	-87.136974	58.163357
05554	9.696530	-0.249264	-0.480196	0.000425	0.002882	-0.007408	-143.991638	-87.138608	58.240811
05555	9.690640	-0.206840	-0.475854	-0.007230	0.000278	-0.008018	-144.112202	-87.139256	58.358403
05556	9.711493	-0.216676	-0.482834	-0.019204	0.000157	-0.007366	-144.217603	-87.139595	58.453941
05557	9.731651	-0.219454	-0.416850	-0.024144	0.001640	-0.011606	-144.373176	-87.142110	58.597820
05558	9.733476	-0.299659	-0.458095	-0.030489	0.003131	-0.010627	-144.495809	-87.144899	58.704136
05559	9.703714	-0.360348	-0.452439	-0.034368	0.002299	-0.014157	-144.677462	-87.148424	58.866923
05560	9.740626	-0.413056	-0.430468	-0.018347	0.004408	-0.014239	-144.819188	-87.152977	58.999321
05561	9.719868	-0.400673	-0.423224	-0.014211	0.002293	-0.020476	-145.049521	-87.158602	59.223187
05562	9.717533	-0.415286	-0.405331	-0.002927	-0.000680	-0.017215	-145.245280	-87.161691	59.418529
05563	9.712373	-0.378505	-0.473934	0.006131	0.001924	-0.021822	-145.481491	-87.167513	59.660100
05564	9.708179	-0.311522	-0.414349	0.023301	0.002302	-0.022678	-145.696138	-87.173705	59.889398
05565	9.697024	-0.233049	-0.478358	0.020917	0.005199	-0.019647	-145.881924	-87.180178	60.087843
05566	9.739287	-0.154575	-0.468213	0.024087	0.004456	-0.020135	-146.059410	-87.186502	60.280383
05567	9.689500	-0.211147	-0.528118	0.014485	0.006107	-0.017187	-146.221493	-87.192594	60.451802
05568	9.732945	-0.207477	-0.486345	0.018092	0.006730	-0.017145	-146.360128	-87.198998	60.602004
05569	9.713376	-0.269932	-0.447029	0.012184	0.009581	-0.015638	-146.486320	-87.206211	60.736051
05570	9.728299	-0.237437	-0.448969	0.016421	0.006525	-0.015418	-146.611614	-87.211939	60.871935
05571	9.709904	-0.208990	-0.458947	0.007860	0.012059	-0.014377	-146.713587	-87.219920	60.979285
05572	9.705193	-0.240675	-0.422105	0.010863	0.010165	-0.011901	-146.784855	-87.226264	61.057890
05573	9.726127	-0.250149	-0.428237	0.019858	0.005997	-0.012410	-146.900949	-87.230725	61.186781
05574	9.711362	-0.280065	-0.424669	0.020812	0.009305	-0.012832	-146.982074	-87.236935	61.280961
05575	9.700596	-0.270164	-0.383953	0.028220	0.005509	-0.013096	-147.104813	-87.241344	61.421223
05576	9.726300	-0.246681	-0.426319	0.023222	0.000208	-0.013242	-147.248125	-87.243282	61.579043
05577	9.723960	-0.261690	-0.408141	0.020819	0.004619	-0.018151	-147.431590	-87.248741	61.775742
05578	9.701567	-0.272980	-0.455528	0.020453	0.008513	-0.014840	-147.540058	-87.255142	61.897089
05579	9.716449	-0.240502	-0.457598	0.027945	0.005294	-0.016581	-147.701959	-87.260460	62.076816
05580	9.718084	-0.215650	-0.401916	0.018430	0.007516	-0.015124	-147.822001	-87.266436	62.208588
05581	9.764683	-0.202418	-0.450923	0.019228	0.004987	-0.017903	-148.004456	-87.271993	62.403778
05582	9.737543	-0.246631	-0.462470	0.018861	0.008883	-0.014594	-148.111352	-87.278441	62.522635
05583	9.711967	-0.267443	-0.418930	0.018074	0.006723	-0.017130	-148.276954	-87.284552	62.700349
05584	9.714417	-0.249403	-0.436204	0.024415	0.005243	-0.018097	-148.441071	-87.290249	62.879676
05585	9.746258	-0.267321	-0.482191	0.024480	0.010507	-0.014262	-148.550347	-87.297260	63.004202
05586	9.723212	-0.173726	-0.433403	0.023978	0.003875	-0.018621	-148.730221	-87.302401	63.199052
05587	9.725631	-0.155585	-0.450992	0.018353	0.002249	-0.018950	-148.944707	-87.306700	63.425361
05588	9.723306	-0.170396	-0.432613	0.016398	0.006516	-0.015403	-149.080110	-87.312129	63.571341
05589	9.708599	-0.200214	-0.429097	0.018250	0.006367	-0.012154	-149.198484	-87.316425	63.701526
05590	9.755197	-0.187499	-0.478120	0.024941	0.005683	-0.011110	-149.290023	-87.320158	63.808492
05591	9.725752	-0.248794	-0.471537	0.029842	0.010415	-0.009483	-149.349531	-87.325632	63.886415
05592	9.707293	-0.220929	-0.481414	0.040382	0.012081	-0.012835	-149.411060	-87.333012	63.972195
05593	9.732120	-0.190563	-0.450235	0.032574	0.008308	-0.010487	-149.492996	-87.337728	64.074137
05594	9.711276	-0.179068	-0.442271	0.016887	0.013145	-0.011045	-149.543061	-87.345103	64.134964
05595	9.755547	-0.182655	-0.472844	0.010484	0.009353	-0.013910	-149.668397	-87.351328	64.267595
05596	9.690495	-0.165956	-0.433435	-0.000242	0.008035	-0.015530	-149.809155	-87.357459	64.409387
05597	9.699103	-0.189825	-0.454731	-0.004443	0.004891	-0.013139	-149.963972	-87.361202	64.562965
05598	9.696788	-0.204949	-0.436213	-0.007181	0.006997	-0.012132	-150.079688	-87.365812	64.675707
05599	9.717760	-0.214524	-0.442409	0.004963	0.006803	-0.007789	-150.160122	-87.368959	64.760241
05600	9.705406	-0.130558	-0.433691	0.000639	0.009277	-0.006542	-150.197290	-87.373095	64.798836
05601	9.705454	-0.129916	-0.432823	-0.002964	0.008646	-0.006589	-150.257978	-87.376811	64.859012
05602	9.711702	-0.170834	-0.436120	-0.000657	0.005172	-0.008121	-150.338791	-87.379349	64.940554
05603	9.724090	-0.155558	-0.420398	-0.007885	0.008606	-0.002907	-150.363202	-87.381981	64.961699
05604	9.708014	-0.209901	-0.471717	-0.005147	0.006501	-0.003913	-150.392724	-87.383984	64.989322
05605	9.710421	-0.193223	-0.488989	-0.006383	0.007665	-0.001665	-150.408082	-87.385807	65.002230
05606	9.710376	-0.095130	-0.465221	-0.011223	0.008198	0.000535	-150.382071	-87.387395	64.970777
05607	9.725132	-0.063898	-0.467234	-0.019416	0.009817	-0.001755	-150.392683	-87.390304	64.971447
05608	9.699490	-0.086216	-0.423776	-0.032226	0.005426	0.005748	-150.338936	-87.389035	64.900183
05609	9.732791	-0.082486	-0.414808	-0.039211	0.010577	0.006522	-150.265706	-87.389980	64.805537
05610	9.703383	-0.145166	-0.408312	-0.031800	0.006793	0.006279	-150.197465	-87.389232	64.720008
05611	9.699637	-0.185938	-0.444833	-0.023425	0.004818	0.013539	-150.074864	-87.385299	64.584973
05612	9.715794	-0.230807	-0.415264	-0.013588	0.008093	0.019422	-149.845659	-87.381408	64.348757
05613	9.699630	-0.189219	-0.443614	-0.007677	0.005251	0.017935	-149.664579	-87.376383	64.164216
05614	9.707181	-0.208975	-0.392211	-0.009612	0.004826	0.016167	-149.490242	-87.371750	63.985206
05615	9.696202	-0.299605	-0.375182	-0.006873	0.002721	0.015159	-149.355859	-87.366235	63.847919
05616	9.662888	-0.305200	-0.383321	-0.002631	-0.000327	0.015392	-149.219831	-87.359249	63.711260
05617	9.688576	-0.284106	-0.425933	0.004481	0.001861	0.009037	-149.150586	-87.355088	63.645698
05618	9.708082	-0.319132	-0.487768	0.003448	-0.002022	0.010942	-149.070189	-87.348558	63.568214
05619	9.735155	-0.274256	-0.475725	0.007941	-0.003349	0.006732	-149.056746	-87.342498	63.560420
05620	9.725179	-0.273024	-0.508913	0.003436	-0.000519	0.003010	-149.051204	-87.339040	63.557865
05621	9.752302	-0.227415	-0.496458	-0.002223	0.004048	0.000056	-149.067268	-87.338568	63.573755
05622	9.741358	-0.218534	-0.456132	-0.005311	0.005360	-0.000945	-149.071291	-87.339165	63.575758
05623	9.726621	-0.249482	-0.452879	-0.012519	0.004102	-0.001042	-149.104462	-87.339045	63.602927
05624	9.715678	-0.240271	-0.412618	-0.012699	0.004457	-0.006012	-149.172085	-87.340687	63.664362
05625	9.709507	-0.296224	-0.431487	-0.006260	0.002051	-0.000521	-149.208992	-87.339396	63.698842
05626	9.720540	-0.206792	-0.447644	0.002149	0.008341	-0.005289	-149.236003	-87.342734	63.728137
05627	9.724352	-0.166538	-0.410023	-0.000986	0.002885	-0.002193	-149.282602	-87.342349	63.775437
05628	9.716840	-0.148064	-0.460515	-0.010334	0.006248	-0.003715	-149.313363	-87.344193	63.801326
05629	9.715510	-0.171127	-0.514911	-0.017111	0.006357	-0.003283	-149.358556	-87.345839	63.837943
05630	9.725493	-0.172347	-0.481215	-0.020116	0.008244	-0.005764	-149.404263	-87.349263	63.873183
05631	9.710783	-0.202829	-0.477783	-0.032601	0.006149	-0.004189	-149.469675	-87.351055	63.921119
05632	9.714602	-0.260078	-0.463278	-0.038613	0.009923	-0.009149	-149.551821	-87.356289	63.982227
05633	9.726997	-0.244621	-0.447422	-0.029001	0.006777	-0.004137	-149.610754	-87.358384	64.025858
05634	9.712298	-0.274846	-0.444111	-0.029530	0.006345	-0.011116	-149.731728	-87.362409	64.131046
05635	9.713683	-0.250302	-0.388638	-0.023268	0.004295	-0.010595	-149.872678	-87.365103	64.259924
05636	9.724733	-0.257911	-0.428155	-0.031636	0.004769	-0.009922	-149.992471	-87.367982	64.362721
05637	9.729585	-0.224005	-0.463612	-0.027046	0.002512	-0.007683	-150.115965	-87.368949	64.472202
05638	9.740565	-0.133734	-0.479730	-0.035163	0.004714	-0.011448	-150.255069	-87.372214	64.592306
05639	9.698721	-0.111622	-0.465730	-0.047824	0.001459	-0.006914	-150.388008	-87.372393	64.698937
05640	9.738218	-0.148167	-0.461284	-0.047954	0.007080	-0.008036	-150.483249	-87.375849	64.767796
05641	9.732052	-0.105465	-0.456462	-0.056676	0.006762	-0.009368	-150.615496	-87.379363	64.868696
05642	9.714959	-0.152437	-0.435328	-0.052286	0.008026	0.001155	-150.607527	-87.380697	64.831751
05643	9.750658	-0.131695	-0.444146	-0.052292	0.008025	0.001159	-150.615148	-87.381898	64.810644
05644	9.738375	-0.146101	-0.458609	-0.052214	0.008603	-0.000316	-150.619615	-87.383933	64.786190
05645	9.766861	-0.175167	-0.413610	-0.049884	0.015062	0.007320	-150.514635	-87.386880	64.653584
05646	9.699121	-0.207005	-0.483929	-0.044260	0.016692	0.007665	-150.377011	-87.390688	64.491454
05647	9.736227	-0.261552	-0.460711	-0.036321	0.014855	0.006459	-150.274103	-87.393732	64.368263
05648	9.733762	-0.181098	-0.417452	-0.019689	0.018005	0.011921	-150.066858	-87.396945	64.150533
05649	9.712874	-0.171610	-0.408858	-0.028414	0.017690	0.010586	-149.896389	-87.400193	63.964681
05650	9.746181	-0.168645	-0.398763	-0.027724	0.019260	0.014612	-149.655401	-87.403182	63.708565
05651	9.704423	-0.246663	-0.407131	-0.020853	0.019736	0.012703	-149.443314	-87.406786	63.485574
05652	9.746342	-0.268940	-0.419256	-0.009987	0.015423	0.015447	-149.206800	-87.407550	63.244110
05653	9.713122	-0.274443	-0.425966	-0.003840	0.018996	0.014849	-148.965733	-87.410068	63.001929
05654	9.711940	-0.298765	-0.479385	-0.001008	0.017476	0.012354	-148.743638	-87.412665	62.780051
05655	9.769856	-0.266758	-0.438747	-0.000923	0.018057	0.010877	-148.548690	-87.415793	62.585308
05656	9.756418	-0.305314	-0.506951	0.001923	0.027989	0.009654	-148.282972	-87.424255	62.321445
05657	9.724474	-0.287364	-0.457431	0.013822	0.027563	0.010516	-148.018176	-87.432063	62.065669
05658	9.728228	-0.248972	-0.417241	0.012575	0.028715	0.012772	-147.704172	-87.439811	61.759585
05659	9.749271	-0.260608	-0.421096	0.003297	0.032665	0.009783	-147.414134	-87.450172	61.472286
05660	9.716138	-0.265429	-0.426569	0.001659	0.027784	0.006165	-147.180568	-87.459381	61.240463
05661	9.696444	-0.330307	-0.385914	0.004749	0.026467	0.007164	-146.957505	-87.467479	61.020988
05662	9.747064	-0.376925	-0.419516	0.014152	0.018429	0.003343	-146.810793	-87.473008	60.883271
05663	9.702706	-0.275054	-0.362261	0.024118	0.017584	0.002442	-146.689230	-87.478284	60.776715
05664	9.706386	-0.235619	-0.323072	0.020683	0.018115	-0.000570	-146.582433	-87.484869	60.682698
05665	9.734970	-0.294072	-0.405471	0.016388	0.015916	-0.004653	-146.552904	-87.491558	60.663555
05666	9.735055	-0.293870	-0.403573	0.033613	0.021577	-0.001576	-146.423735	-87.500105	60.554561
05667	9.748867	-0.285727	-0.459154	0.027641	0.019166	-0.003942	-146.355664	-87.508123	60.503457
05668	9.715688	-0.191624	-0.441854	0.027297	0.018379	-0.005954	-146.300270	-87.516522	60.464687
05669	9.707087	-0.166055	-0.418027	0.014881	0.016862	-0.005891	-146.278188	-87.524071	60.452519
05670	9.716901	-0.167490	-0.383349	0.006075	0.015973	-0.005770	-146.250200	-87.531263	60.429011
05671	9.687398	-0.229103	-0.376664	0.006592	0.017917	-0.006713	-146.233662	-87.539542	60.417426
05672	9.697194	-0.230376	-0.342187	0.002767	0.010879	-0.007672	-146.266274	-87.544913	60.452677
05673	9.735537	-0.192539	-0.368002	-0.001054	0.015294	-0.007367	-146.280756	-87.552152	60.467628
05674	9.712108	-0.197706	-0.342032	0.003373	0.013402	-0.010092	-146.321568	-87.559493	60.511433
05675	9.724414	-0.182402	-0.325476	-0.001662	0.012770	-0.004945	-146.328712	-87.564755	60.518770
05676	9.717289	-0.163406	-0.375188	-0.000502	0.011037	-0.005718	-146.340633	-87.569577	60.531435
05677	9.705105	-0.177600	-0.389146	0.013107	0.016075	-0.002688	-146.288340	-87.575721	60.487826
05678	9.725179	-0.211161	-0.449369	0.022250	0.017752	-0.000788	-146.180968	-87.582174	60.394139
05679	9.685853	-0.173601	-0.451973	0.024999	0.015650	-0.001795	-146.114612	-87.587837	60.343288
05680	9.688487	-0.157087	-0.467889	0.010050	0.022641	0.000164	-145.965237	-87.596295	60.200566
05681	9.704460	-0.200511	-0.437083	-0.003557	0.017602	-0.002870	-145.911192	-87.603189	60.145372
05682	9.682116	-0.280953	-0.379238	0.001333	0.022328	-0.001201	-145.783103	-87.611917	60.018958
05683	9.721583	-0.318382	-0.373354	0.002837	0.009929	-0.001222	-145.765597	-87.614651	60.004211
05684	9.701552	-0.284556	-0.310568	0.007605	0.008825	-0.001930	-145.746000	-87.617210	59.989980
05685	9.757419	-0.297589	-0.380747	0.014728	0.009506	-0.000324	-145.714462	-87.619486	59.968155
05686	9.712934	-0.293178	-0.348459	0.028636	0.010080	0.000874	-145.641007	-87.621733	59.912081
05687	9.712067	-0.316587	-0.402658	0.034474	0.006664	0.000877	-145.605157	-87.622152	59.896300
05688	9.760090	-0.281539	-0.395433	0.048858	0.015380	-0.001458	-145.505062	-87.627654	59.825158
05689	9.732959	-0.229546	-0.383077	0.051424	0.012122	0.000498	-145.422533	-87.630860	59.773386
05690	9.696184	-0.175429	-0.403914	0.046673	0.014744	-0.006721	-145.388152	-87.637766	59.766762
05691	9.708471	-0.160248	-0.386984	0.030533	0.018214	-0.007865	-145.363644	-87.646577	59.760890
05692	9.714761	-0.201262	-0.389405	0.026409	0.015642	-0.006985	-145.336571	-87.653992	59.749959
05693	9.721649	-0.121115	-0.313745	0.024519	0.009024	-0.006162	-145.369415	-87.657856	59.797876
05694	9.727076	-0.185582	-0.371778	0.015503	0.013176	-0.005704	-145.353451	-87.663691	59.791810
05695	9.727117	-0.185448	-0.370768	0.027671	0.006775	0.001301	-145.316989	-87.664053	59.772208
05696	9.705327	-0.198359	-0.418433	0.027422	0.006559	-0.002189	-145.306373	-87.665625	59.778329
05697	9.738554	-0.194234	-0.408924	0.025524	0.011396	-0.000121	-145.249760	-87.668673	59.737273
05698	9.757015	-0.221298	-0.396561	0.025522	0.011395	-0.000120	-145.177382	-87.671844	59.680492
05699	9.709912	-0.233224	-0.346241	0.029550	0.013392	0.000483	-145.094959	-87.675646	59.616316
05700	9.717955	-0.282111	-0.421946	0.033706	0.009770	0.002211	-145.003692	-87.677282	59.545324
05701	9.733552	-0.228037	-0.368646	0.031508	0.007622	0.004871	-144.917101	-87.676901	59.478359
05702	9.703770	-0.192590	-0.339366	0.037703	0.006503	-0.001028	-144.887381	-87.678065	59.471257
05703	9.689807	-0.200220	-0.281036	0.025732	0.006349	-0.000467	-144.874898	-87.678800	59.474393
05704	9.706663	-0.274216	-0.379064	0.032508	0.006241	-0.000861	-144.848327	-87.679786	59.467464
05705	9.703836	-0.192642	-0.337445	0.035256	0.004136	-0.001855	-144.865462	-87.680009	59.506466
05706	9.724083	-0.226407	-0.398454	0.022062	0.006645	-0.006983	-144.912481	-87.683202	59.567197
05707	9.705716	-0.198668	-0.409160	0.017789	0.004426	-0.011075	-145.043231	-87.686621	59.709658
05708	9.712004	-0.239182	-0.412337	0.005784	0.010463	-0.013131	-145.140657	-87.693615	59.811501
05709	9.736744	-0.306319	-0.403784	-0.000297	0.013656	-0.016644	-145.273620	-87.703146	59.945779
05710	9.731673	-0.337326	-0.366790	0.003705	0.010388	-0.019881	-145.453944	-87.712283	60.129393
05711	9.739534	-0.286310	-0.419523	0.003614	0.009815	-0.018400	-145.638399	-87.720474	60.316864
05712	9.702009	-0.297761	-0.336565	0.009204	0.006179	-0.021867	-145.876309	-87.728208	60.561262
05713	9.719433	-0.247863	-0.356285	0.012092	0.011411	-0.028430	-146.165861	-87.740303	60.858873
05714	9.711094	-0.318120	-0.356387	0.013832	0.010692	-0.023689	-146.390782	-87.750679	61.092921
05715	9.734344	-0.211941	-0.357164	0.018393	0.003177	-0.025258	-146.711844	-87.757780	61.426408
05716	9.751707	-0.161878	-0.377256	0.015910	0.006997	-0.028702	-147.031316	-87.767856	61.756268
05717	9.742222	-0.157599	-0.409449	0.014004	0.011836	-0.026645	-147.307585	-87.779374	62.042176
05718	9.716149	-0.177274	-0.365714	0.018115	0.014410	-0.027519	-147.557875	-87.792539	62.304062
05719	9.739850	-0.168865	-0.388815	0.018023	0.013838	-0.026038	-147.813795	-87.804732	62.571874
05720	9.695294	-0.161947	-0.356559	0.015317	0.009751	-0.022432	-148.043942	-87.813998	62.811994
05721	9.707481	-0.144697	-0.340468	0.014404	0.007933	-0.029942	-148.406071	-87.824443	63.184550
05722	9.677561	-0.106415	-0.311374	0.007693	0.007111	-0.023106	-148.674800	-87.832522	63.458904
05723	9.695561	-0.276276	-0.432317	0.021137	0.001077	-0.026232	-149.042135	-87.838334	63.840086
05724	9.748936	0.061322	-0.251456	-0.008293	0.004929	-0.023165	-149.341903	-87.845238	64.136334
05725	9.656158	-0.234391	-0.436557	-0.000955	0.000587	-0.021884	-149.672811	-87.849381	64.468402
05726	9.761920	-0.139460	-0.336319	0.002655	0.006494	-0.017977	-149.889126	-87.855449	64.687413
05727	9.718696	-0.164142	-0.432530	0.006908	0.003457	-0.017717	-150.140048	-87.859720	64.943666
05728	9.742916	-0.133032	-0.401578	0.006496	0.007357	-0.014415	-150.302382	-87.865140	65.110860
05729	9.730884	-0.146259	-0.416105	0.009427	0.006401	-0.018361	-150.539647	-87.870976	65.354665
05730	9.716327	-0.175666	-0.412560	0.001997	0.010167	-0.018164	-150.735774	-87.878807	65.553094
05731	9.736628	-0.086557	-0.395331	0.000142	0.008818	-0.013498	-150.897717	-87.884407	65.716304
05732	9.667849	-0.110136	-0.394070	-0.003044	0.004277	-0.016872	-151.125988	-87.888879	65.944007
05733	9.722620	-0.091058	-0.336666	0.000376	0.003774	-0.013840	-151.331473	-87.891973	66.150694
05734	9.701576	-0.079403	-0.329624	-0.000459	0.006306	-0.011070	-151.465378	-87.895817	66.285449
05735	9.692582	-0.053361	-0.307603	-0.007351	-0.000935	-0.005115	-151.592857	-87.894179	66.410335
05736	9.713667	-0.063514	-0.313863	0.000273	0.006985	-0.000604	-151.578227	-87.895496	66.396873
05737	9.730816	-0.016018	-0.334000	0.002852	0.003743	0.001365	-151.575355	-87.894416	66.396809
05738	9.748474	0.054841	-0.299478	-0.002600	0.001753	0.005956	-151.511367	-87.891306	66.332309
05739	9.781480	-0.086659	-0.423177	-0.018727	0.005173	0.004754	-151.464558	-87.890058	66.276229
05740	9.735166	-0.197083	-0.396198	-0.004240	0.013574	0.007405	-151.293902	-87.892490	66.104049
05741	9.679090	-0.141169	-0.484350	0.002083	0.005357	0.010582	-151.153804	-87.889719	65.966547
05742	9.688629	-0.143625	-0.450461	-0.010358	0.009990	0.007975	-151.005614	-87.890162	65.813340
05743	9.716705	-0.172550	-0.404891	-0.023641	0.011885	0.004305	-150.917015	-87.892375	65.712591
05744	9.702119	-0.204176	-0.401349	-0.019987	0.006337	0.006992	-150.815202	-87.891243	65.600272
05745	9.702628	-0.181081	-0.345798	-0.021487	0.007273	0.005743	-150.740668	-87.890698	65.514594
05746	9.720669	-0.231834	-0.388746	-0.025329	0.006410	0.002180	-150.706793	-87.890939	65.467195
05747	9.723241	-0.215586	-0.406221	-0.022664	0.003739	0.002670	-150.700782	-87.889472	65.449186
