// General information: 
//  MT Manager version: 2022.2.0 
//  XDA version: 2022.2.0 build 7381 rev 124627 built on 2023-07-19
// Device information: 
//  DeviceId: 00B4BB4F
//  ProductCode: MTW2-3A7G6
//  Firmware Version: 4.6.0
//  Hardware Version: 2.0.0
// Device settings: 
//  Filter Profile: human(46.1)
//  Option Flags: Orientation Smoother Disabled, Position/Velocity Smoother Disabled, Continuous Zero Rotation Update Disabled, AHS Disabled, ICC Disabled
// Coordinate system: ENU
PacketCounter	Acc_X	Acc_Y	Acc_Z	Gyr_X	Gyr_Y	Gyr_Z	Roll	Pitch	Yaw
63401	9.783136	0.660124	0.052378	0.001948	0.000147	0.000702	84.806522	-86.130963	-72.417476
63402	9.749380	0.653572	0.055738	-0.003731	-0.000467	0.003251	84.813735	-86.132677	-72.426759
63403	9.779755	0.659684	0.018005	0.002840	0.000307	-0.001274	84.821323	-86.131775	-72.431250
63404	9.749393	0.653400	0.055511	0.002036	-0.004533	0.002847	84.866493	-86.133468	-72.475266
63405	9.769073	0.632353	0.035631	0.001958	-0.009043	0.000337	84.953886	-86.134058	-72.563228
63406	9.749417	0.653181	0.053943	0.003907	-0.008895	0.001039	85.038396	-86.134929	-72.645599
63407	9.764607	0.656183	0.034346	0.000291	-0.005768	0.001024	85.094391	-86.135613	-72.700833
63408	9.768038	0.656062	0.068240	-0.002954	-0.003900	0.004542	85.130289	-86.138228	-72.738420
63409	9.798424	0.661862	0.029868	0.004965	-0.008907	0.003717	85.215300	-86.140659	-72.821700
63410	9.749504	0.652068	0.051660	-0.003730	-0.000466	0.003252	85.222713	-86.142369	-72.831184
63411	9.787779	0.634014	0.047804	0.001631	-0.002358	0.005090	85.247860	-86.145185	-72.854438
63412	9.749568	0.651110	0.051506	-0.002187	0.001856	0.006197	85.234414	-86.148465	-72.842129
63413	9.779959	0.656756	0.013742	0.001632	-0.002358	0.005091	85.259735	-86.151248	-72.865955
63414	9.749650	0.649905	0.051232	-0.002098	-0.002824	0.008343	85.284584	-86.155976	-72.891977
63415	9.772765	0.628434	0.066284	-0.004823	0.000463	0.006351	85.282982	-86.159542	-72.893595
63416	9.763861	0.675855	0.066601	-0.000026	-0.008273	0.005412	85.357546	-86.162850	-72.968253
63417	9.768373	0.651323	0.065624	0.003096	-0.004545	0.005526	85.402435	-86.166236	-73.009702
63418	9.765004	0.650427	0.030674	-0.003957	-0.007650	0.009787	85.466707	-86.172003	-73.076301
63419	9.768487	0.649747	0.064149	-0.001400	-0.010765	0.007123	85.560419	-86.176420	-73.169031
63420	9.803352	0.631152	0.024891	-0.002774	-0.013258	0.008834	85.674408	-86.181874	-73.284779
63421	9.765189	0.647793	0.027518	-0.003379	-0.009995	0.012200	85.759338	-86.189193	-73.371470
63422	9.735952	0.616365	0.029731	-0.008740	-0.008100	0.010363	85.825313	-86.195281	-73.442520
63423	9.799097	0.652114	0.022484	-0.005699	-0.008882	0.007965	85.904138	-86.200078	-73.526920
63424	9.769833	0.621013	0.025038	-0.012928	-0.002625	0.007938	85.922447	-86.204546	-73.552604
63425	9.751267	0.617140	0.009229	-0.010372	-0.005740	0.005274	85.971981	-86.207634	-73.608835
63426	9.807129	0.626272	0.055029	-0.015643	-0.008524	0.005583	86.041200	-86.210989	-73.687099
63427	9.784096	0.646666	0.039186	-0.018650	-0.008656	0.002204	86.111849	-86.212507	-73.766991
63428	9.784097	0.646696	0.038573	-0.027018	-0.006890	-0.003009	86.165621	-86.210875	-73.836306
63429	9.750300	0.640777	0.041701	-0.040570	-0.003399	-0.005399	86.182886	-86.207747	-73.875911
63430	9.773302	0.621056	0.055892	-0.042148	-0.020319	-0.017004	86.351336	-86.198604	-74.068845
63431	9.869171	0.568275	0.026874	-0.075396	-0.029836	-0.053404	86.600949	-86.169179	-74.360903
63432	9.901756	0.484095	0.003662	-0.122254	-0.034591	-0.122069	86.890358	-86.100293	-74.721089
63433	9.917660	0.578346	-0.036425	-0.156179	-0.053882	-0.198257	87.336400	-85.988339	-75.255310
63434	10.069895	0.657112	-0.160129	-0.161893	-0.045287	-0.245967	87.699828	-85.848475	-75.712567
63435	10.179503	0.733508	-0.190929	-0.185525	-0.020508	-0.329249	87.857462	-85.660169	-75.976947
63436	10.222070	0.986571	-0.367048	-0.240409	0.010634	-0.457888	87.776391	-85.397585	-76.033703
63437	10.431987	1.019217	-0.730546	-0.348770	0.043089	-0.566412	87.449530	-85.072369	-75.903721
63438	10.176141	0.926517	-1.426680	-0.589314	0.033601	-0.546924	87.070067	-84.758255	-75.861656
63439	11.347283	0.450380	-2.195910	-0.643139	-0.398850	-0.568371	89.235678	-84.440102	-78.405744
63440	10.835353	0.991170	-2.821427	-1.173503	-0.530522	-0.788202	91.537928	-83.986087	-81.395484
63441	10.070577	0.332132	-3.035910	-1.733369	-0.542437	-0.811728	93.210111	-83.508576	-84.074251
63442	9.923071	0.223046	-2.333716	-2.145534	-0.566485	-0.732382	94.497417	-83.067741	-86.608120
63443	10.693852	-2.390897	-0.591447	-2.981998	-0.168058	-0.591020	93.378969	-82.723132	-87.202601
63444	12.307588	-5.285212	-0.407317	-3.393586	0.060683	-0.374352	91.105702	-82.509946	-86.870880
63445	13.809624	-5.474888	1.529963	-3.210055	0.414534	-0.307251	87.503582	-82.331002	-85.092272
63446	13.549174	-4.494141	1.391259	-3.809576	1.106717	-0.179283	80.767622	-82.163746	-80.497020
63447	10.835018	-5.644576	0.714384	-4.433152	1.608221	0.042512	71.765380	-81.968643	-73.972316
63448	8.395006	-6.849727	-0.476065	-4.544342	1.431774	0.344022	63.305453	-81.837168	-68.057201
63449	7.758999	-6.832164	-0.549752	-4.232448	0.898334	0.413314	56.962242	-81.786822	-64.098456
63450	8.882106	-5.868579	-0.783964	-4.005750	0.395511	0.521855	52.173393	-81.899217	-61.579173
63451	9.582475	-5.188244	-0.532479	-4.190152	0.294021	0.539515	47.451257	-82.027556	-59.234529
63452	9.755789	-5.107458	-0.312578	-4.228238	0.144329	0.543548	43.026612	-82.190681	-57.213271
63453	9.730052	-4.806082	-0.192244	-4.180032	-0.028625	0.556439	38.932419	-82.413220	-55.498315
63454	9.551892	-4.818176	0.064697	-4.197774	-0.117930	0.630071	34.629675	-82.683793	-53.584484
63455	9.562509	-4.799251	0.385116	-4.064102	-0.266995	0.732785	30.124335	-83.039077	-51.390401
63456	9.630584	-4.484490	0.808431	-3.939426	-0.346886	0.841579	25.041986	-83.438961	-48.545344
63457	9.550381	-4.299152	0.976063	-3.811203	-0.331750	0.949267	18.977210	-83.820524	-44.639835
63458	9.187447	-4.410384	0.972682	-3.607242	-0.285050	1.080064	11.660405	-84.142292	-39.360723
63459	8.539573	-4.489857	0.890502	-3.269540	-0.335100	1.173250	3.372693	-84.422290	-32.914015
63460	7.772948	-4.177187	1.034315	-2.831141	-0.534609	1.221003	-5.673783	-84.715615	-25.456237
63461	7.909302	-3.660602	1.504586	-2.267707	-0.880503	1.228052	-15.790448	-85.082409	-16.603676
63462	8.685416	-2.830009	2.109464	-1.688355	-1.149984	1.188946	-27.344598	-85.446866	-5.980815
63463	9.527879	-1.899968	2.883637	-1.239663	-1.207444	1.132677	-39.978592	-85.664700	5.978921
63464	10.066436	-1.221056	3.493216	-0.867753	-1.113700	1.039136	-52.029450	-85.680207	17.565482
63465	10.343262	-0.479400	3.919974	-0.520047	-0.988857	0.927507	-62.314347	-85.540172	27.581993
63466	10.606333	0.249990	4.052342	-0.180816	-0.895216	0.789977	-70.583977	-85.330054	35.773996
63467	10.833317	1.126517	3.842876	0.096632	-0.803484	0.616754	-77.019273	-85.118261	42.287562
63468	10.891745	1.846207	3.424532	0.238206	-0.649916	0.427249	-81.621440	-84.946866	47.044140
63469	10.371985	2.107159	2.912250	0.257364	-0.427124	0.267826	-84.409155	-84.823579	49.991378
63470	9.781852	2.031942	2.273404	0.314689	-0.312259	0.169066	-86.273300	-84.741800	52.044419
63471	9.484777	2.358361	1.770053	0.399896	-0.301552	0.074091	-87.947090	-84.707403	53.955744
63472	9.315844	2.708656	1.528190	0.399234	-0.303946	-0.030002	-89.603098	-84.728535	55.848622
63473	9.283317	2.991772	1.499921	0.381443	-0.305027	-0.114934	-91.305979	-84.792325	57.778417
63474	9.023338	3.277669	1.458343	0.308293	-0.275985	-0.161923	-92.921395	-84.879405	59.577863
63475	8.790766	3.393334	1.316423	0.242131	-0.249057	-0.175304	-94.468361	-84.969815	61.270478
63476	8.647258	3.705495	1.028331	0.198324	-0.252521	-0.181620	-96.122549	-85.060250	63.045097
63477	8.782743	4.185146	0.871216	0.138135	-0.235075	-0.190313	-97.767977	-85.151640	64.776241
63478	8.968916	4.400336	0.639491	0.025316	-0.186939	-0.224074	-99.249786	-85.262904	66.277893
63479	9.053745	4.538560	0.590090	-0.054949	-0.101155	-0.273764	-100.317030	-85.407149	67.317332
63480	8.981821	4.424784	0.449851	-0.103414	0.022852	-0.334389	-100.662851	-85.598033	67.604875
63481	8.686451	4.062851	0.375004	-0.075036	0.095694	-0.390801	-100.546658	-85.827845	67.445451
63482	9.300452	3.617442	0.424671	0.064456	0.090322	-0.454227	-100.468843	-86.093283	67.404554
63483	20.957944	7.865399	3.882986	2.068060	0.115348	-1.839060	-101.613048	-87.140076	69.737859
63484	8.507738	7.268480	3.863670	-1.355652	1.923081	-1.389700	-76.196702	-87.936050	43.522081
63485	7.029703	-0.098030	-0.520466	-0.098968	1.934012	-1.459953	-36.190922	-88.020140	3.436767
63486	8.423025	-1.803782	0.531508	1.285654	0.145714	-1.067012	-17.596468	-88.225255	-14.430373
63487	9.673567	-0.192905	1.126604	1.819593	-0.188559	-1.167309	5.832175	-88.405396	-36.825720
63488	10.641580	0.849855	3.203631	0.743558	0.035136	-0.953295	24.196074	-88.242908	-54.771033
63489	11.295154	2.281930	2.874586	1.219559	-0.390879	-0.870303	42.153771	-88.157030	-72.038222
63490	10.745172	3.233589	1.408269	0.592343	-0.136692	-0.741004	52.543648	-87.897025	-82.094525
63491	10.114709	2.237779	0.952173	0.135550	-0.083761	-0.699343	59.346021	-87.591616	-88.824296
63492	9.930587	2.045523	0.657648	0.190002	-0.277887	-0.555251	66.020018	-87.381731	-95.395637
63493	10.003351	0.611033	0.252899	-0.055375	-0.198442	-0.442240	70.219025	-87.188882	-99.631007
63494	9.727344	0.360518	0.224034	0.041058	-0.276905	-0.409088	74.638711	-87.013151	-104.032702
63495	10.034242	0.543800	-0.036149	0.167668	-0.388700	-0.367821	79.677954	-86.856973	-108.982839
63496	10.162500	0.468947	-0.098547	0.028826	-0.255272	-0.369241	82.829686	-86.669915	-112.122967
63497	9.987118	0.332912	-0.195443	0.013042	-0.186548	-0.362003	84.989384	-86.474853	-114.278937
63498	10.107903	0.768642	-0.256844	0.153866	-0.236138	-0.301233	87.409254	-86.311400	-116.615183
63499	10.306271	0.691478	-0.406804	0.120304	-0.134668	-0.220953	88.728919	-86.187300	-117.868491
63500	10.133048	0.762692	-0.219588	0.055621	0.007696	-0.190480	88.738962	-86.077896	-117.846527
63501	9.958589	0.608333	-0.147822	0.025059	0.046584	-0.159183	88.410273	-85.985880	-117.502542
63502	9.810855	0.567721	-0.047410	0.053322	0.041267	-0.152332	88.151985	-85.897738	-117.212888
63503	9.934252	0.807761	0.035102	0.059107	0.021525	-0.141259	88.061190	-85.816273	-117.087785
63504	9.866803	0.727466	-0.099450	0.024888	0.028662	-0.096294	87.886202	-85.760365	-116.897936
63505	9.641401	0.707635	0.132796	-0.004457	0.042290	-0.087624	87.593939	-85.709081	-116.607307
63506	9.615740	0.671996	0.100995	0.032895	-0.020699	-0.071000	87.798648	-85.668724	-116.793606
63507	9.765283	0.721634	-0.057398	0.046951	-0.053161	-0.051179	88.247652	-85.640303	-117.216811
63508	9.789571	0.696750	-0.023149	0.020753	-0.031740	-0.046704	88.513998	-85.613875	-117.471921
63509	9.692782	0.659140	-0.042991	0.016777	-0.031935	-0.037103	88.776163	-85.592884	-117.725103
63510	9.699199	0.707958	0.014608	0.032931	-0.050399	-0.024205	89.179029	-85.579335	-118.110154
63511	9.773726	0.694938	-0.065505	0.043758	-0.061084	-0.008718	89.665229	-85.574516	-118.572544
63512	9.849291	0.676455	-0.103565	0.033696	-0.048058	-0.009332	90.046963	-85.569032	-118.935968
63513	9.782001	0.661703	-0.107428	0.021204	-0.025406	-0.017881	90.254406	-85.558566	-119.131732
63514	9.736324	0.631213	-0.012359	0.008408	-0.009282	-0.025592	90.333250	-85.543666	-119.205893
63515	9.655188	0.674925	-0.007458	0.027455	-0.026421	-0.016044	90.550080	-85.534174	-119.407485
63516	9.763208	0.669422	-0.085904	0.057390	-0.048636	-0.007168	90.945449	-85.529490	-119.770988
63517	9.826022	0.704084	-0.073659	0.034967	-0.026431	-0.010852	91.165485	-85.522808	-119.971482
63518	9.715340	0.648232	-0.079145	0.023624	-0.014424	-0.014831	91.288666	-85.513917	-120.081376
63519	9.758667	0.690395	-0.078136	0.042935	-0.028325	-0.010003	91.526054	-85.507601	-120.294700
63520	9.767277	0.728809	-0.118912	0.036114	-0.008669	-0.009120	91.614598	-85.502021	-120.362671
63521	9.712289	0.736572	-0.031954	0.032687	0.003639	0.005943	91.615986	-85.505295	-120.345158
63522	9.796499	0.680063	-0.097082	0.061726	0.000806	0.027599	91.657747	-85.520893	-120.351483
63523	9.760042	0.682497	-0.037836	0.035709	0.025400	0.027308	91.505696	-85.536749	-120.178326
63524	9.696181	0.650358	-0.093995	0.038896	0.020417	0.030069	91.390042	-85.554048	-120.039879
63525	9.775699	0.687371	-0.005403	0.050850	0.013677	0.030329	91.331639	-85.571425	-119.951957
63526	9.774780	0.688941	-0.045957	0.030946	0.022325	0.029225	91.195348	-85.588229	-119.797387
63527	9.731515	0.644988	-0.047790	0.030203	0.009920	0.032388	91.151962	-85.606723	-119.736396
63528	9.793188	0.607363	-0.067479	0.041600	-0.009330	0.027206	91.256449	-85.621977	-119.817195
63529	9.830408	0.672255	-0.133572	0.042311	-0.013031	0.027147	91.391310	-85.637180	-119.928015
63530	9.851141	0.658320	-0.078949	0.017408	0.010452	0.020560	91.333113	-85.648879	-119.859558
63531	9.817691	0.648346	-0.077630	0.010806	0.017215	0.019766	91.221197	-85.660250	-119.740988
63532	9.839275	0.630400	-0.163429	0.028548	0.016362	0.017202	91.123342	-85.670079	-119.626360
63533	9.812676	0.666862	-0.098972	0.008804	0.047755	0.020717	90.777599	-85.682237	-119.274448
63534	9.728362	0.647247	-0.022523	-0.008675	0.059614	0.020572	90.327987	-85.694140	-118.828455
63535	9.803117	0.629534	-0.092033	0.020709	0.040475	0.028173	90.040511	-85.710204	-118.528146
63536	9.847926	0.663163	-0.042051	0.009794	0.057842	0.029005	89.609711	-85.726516	-118.090424
63537	9.784150	0.631218	-0.094364	0.001946	0.063598	0.024855	89.128986	-85.740214	-117.607121
63538	9.836423	0.633752	-0.116663	0.007517	0.074084	0.028805	88.565044	-85.755664	-117.037215
63539	9.767090	0.624286	-0.008656	-0.012407	0.087244	0.025809	87.886274	-85.768771	-116.363588
63540	9.714267	0.621080	-0.013634	-0.002376	0.078700	0.024664	87.274146	-85.780801	-115.751068
63541	9.748047	0.626452	-0.006636	0.002888	0.062594	0.027261	86.787447	-85.794434	-115.261266
63542	9.786087	0.613923	-0.016783	0.001675	0.057103	0.025754	86.338757	-85.807026	-114.810317
63543	9.811351	0.654824	0.021294	-0.000182	0.058636	0.028187	85.874726	-85.820763	-114.345023
63544	9.771370	0.597891	-0.034284	-0.007263	0.064010	0.027838	85.359926	-85.833696	-113.832939
63545	9.830234	0.646788	0.004811	-0.000074	0.066970	0.023070	84.828009	-85.843504	-113.299532
63546	9.757382	0.578210	-0.007722	-0.021681	0.081048	0.021014	84.170439	-85.850881	-112.652597
63547	9.730302	0.614805	0.060980	-0.011360	0.071215	0.016991	83.599185	-85.856151	-112.086244
63548	9.806199	0.593288	0.035846	-0.010174	0.061120	0.014437	83.107224	-85.860168	-111.598751
63549	9.768320	0.602016	0.058051	-0.019702	0.067787	0.011239	82.561561	-85.861665	-111.062852
63550	9.749068	0.608243	0.051257	-0.014375	0.059992	0.008705	82.080762	-85.861878	-110.588966
63551	9.730402	0.610240	0.085781	-0.017669	0.053347	0.007174	81.653652	-85.861590	-110.170762
63552	9.720354	0.576833	0.087197	-0.014778	0.042353	0.003633	81.316802	-85.859927	-109.841432
63553	9.726585	0.622904	0.151971	-0.014146	0.023042	-0.000524	81.138386	-85.857595	-109.670548
63554	9.686665	0.569334	0.091615	-0.014785	0.007199	-0.009885	81.093257	-85.851236	-109.633705
63555	9.739477	0.570996	0.105465	-0.003079	-0.002269	-0.011994	81.133042	-85.844630	-109.675236
63556	9.748879	0.609794	0.066464	-0.004017	-0.004555	-0.018251	81.195743	-85.834572	-109.740322
63557	9.733865	0.600881	0.036825	-0.000541	-0.003025	-0.016320	81.247694	-85.825581	-109.792594
63558	9.797207	0.631537	0.095512	-0.002099	-0.002767	-0.016789	81.295351	-85.816186	-109.841494
63559	9.748575	0.614723	0.065561	-0.011073	-0.003662	-0.016779	81.346311	-85.806987	-109.898825
63560	9.753375	0.594231	0.090497	-0.003862	-0.017473	-0.019909	81.509530	-85.797071	-110.064613
63561	9.777627	0.644074	0.079092	-0.004196	-0.024001	-0.019063	81.722850	-85.788258	-110.280791
63562	9.757522	0.580462	0.069627	-0.015997	-0.033454	-0.024930	82.005754	-85.776699	-110.573565
63563	9.767357	0.616236	0.069681	-0.009206	-0.035850	-0.034559	82.321072	-85.759869	-110.894906
63564	9.685603	0.589074	0.078180	-0.015326	-0.038769	-0.041760	82.657947	-85.738912	-111.241425
63565	9.752595	0.609091	0.074289	-0.000501	-0.056528	-0.044986	83.139602	-85.717319	-111.724581
63566	9.757290	0.668814	0.045957	-0.003113	-0.062397	-0.048417	83.660383	-85.693724	-112.248528
63567	9.784332	0.635075	-0.021523	0.001963	-0.065598	-0.044180	84.200997	-85.672498	-112.789422
63568	9.818876	0.715632	0.008346	-0.005581	-0.058324	-0.040187	84.672801	-85.652664	-113.265699
63569	9.789371	0.693411	-0.012957	-0.017058	-0.042889	-0.031732	85.014710	-85.636728	-113.618269
63570	9.907790	0.721687	-0.087436	0.004167	-0.043920	-0.019420	85.364596	-85.627588	-113.966690
63571	9.856244	0.713551	-0.018742	-0.042126	-0.000915	-0.014614	85.365008	-85.619244	-113.991179
63572	9.807119	0.623171	-0.041732	-0.036700	-0.002075	-0.009401	85.372066	-85.613807	-114.019258
63573	9.874678	0.712941	-0.047759	-0.026132	-0.005901	-0.007132	85.414186	-85.609967	-114.076386
63574	9.788442	0.627327	-0.011586	-0.065216	0.027798	-0.007279	85.181580	-85.604341	-113.880481
63575	9.656748	0.655355	0.109786	-0.048801	0.017603	-0.008024	85.036991	-85.598869	-113.763376
63576	9.713255	0.643347	0.064849	-0.022347	-0.022938	0.000664	85.200868	-85.600205	-113.940489
63577	9.817610	0.654177	0.004528	-0.017831	-0.038654	-0.000601	85.486865	-85.601628	-114.237446
63578	9.783999	0.646556	0.002202	-0.044051	-0.007712	-0.007055	85.529912	-85.597779	-114.305845
63579	9.693841	0.651861	0.046682	-0.051571	-0.003208	-0.014097	85.541229	-85.589840	-114.346698
63580	9.727340	0.661238	0.045799	-0.033568	-0.025938	-0.014627	85.729130	-85.582448	-114.554359
63581	9.807847	0.698369	-0.011492	-0.029511	-0.039758	-0.011561	86.021223	-85.577450	-114.864149
63582	9.759977	0.676141	-0.002061	-0.049842	-0.029195	-0.008357	86.219409	-85.573633	-115.091480
63583	9.793509	0.684880	-0.004379	-0.050495	-0.029971	-0.006450	86.423765	-85.571015	-115.325332
63584	9.732677	0.715484	0.054478	-0.050881	-0.027520	-0.009264	86.608707	-85.566500	-115.539980
63585	9.726263	0.669964	-0.009663	-0.055533	-0.028496	0.002232	86.795135	-85.568681	-115.758746
63586	9.696535	0.721394	-0.076519	-0.038337	-0.028016	0.011205	86.982492	-85.575784	-115.968606
63587	9.766010	0.798381	-0.000368	-0.037739	-0.026814	0.040399	87.153362	-85.599650	-116.161537
63588	9.708312	0.664248	0.012436	-0.046724	-0.022251	0.062566	87.276915	-85.635893	-116.312212
63589	9.732902	0.705676	0.000019	-0.016975	-0.048390	0.074726	87.616003	-85.679860	-116.661895
63590	9.738639	0.675408	0.021122	-0.024718	-0.048846	0.085316	87.956045	-85.729601	-117.017008
63591	9.683528	0.751960	0.055643	-0.037139	-0.056302	0.092461	88.355706	-85.783541	-117.438970
63592	9.763864	0.782774	-0.047123	-0.030218	-0.078921	0.110142	88.943085	-85.847503	-118.045190
63593	9.687263	1.481013	0.141493	-0.044125	-0.112951	0.136406	89.815596	-85.926293	-118.945167
63594	9.794351	1.167457	0.083442	-0.231120	-0.057254	0.158608	90.156011	-86.016971	-119.419086
63595	9.711747	1.132928	0.149010	-0.272616	-0.112234	0.173310	90.959014	-86.115543	-120.380420
63596	9.580673	2.245309	0.025140	-0.289699	-0.162426	0.139488	92.217453	-86.192639	-121.807969
63597	10.010155	3.473588	0.108801	-0.527442	-0.135774	0.090253	93.137199	-86.240500	-123.032460
63598	10.163862	3.344826	0.254475	-1.139200	0.027843	0.115330	92.295677	-86.307030	-122.843163
63599	9.460753	4.191561	0.317782	-1.365666	0.024101	0.092261	91.334487	-86.360049	-122.663960
63600	9.968418	2.252269	0.076103	-1.865510	0.129664	0.096488	89.100321	-86.415408	-121.496245
63601	9.242249	1.694021	0.177949	-1.982711	0.112448	0.090382	86.911388	-86.464614	-120.441182
63602	9.669264	1.230312	-0.149509	-1.931408	-0.062951	0.048534	86.372130	-86.494311	-121.009522
63603	9.697103	0.637619	-0.263379	-2.102498	-0.024622	0.040205	85.382180	-86.517980	-121.224512
63604	9.568946	-0.616358	-0.355083	-2.136478	0.027247	0.044593	83.871107	-86.541798	-120.936935
63605	9.665917	-1.761477	-0.534962	-1.875350	-0.044085	0.022035	83.201056	-86.556909	-121.342008
63606	9.713732	-2.614253	-0.644620	-1.533741	-0.085730	0.007703	83.134298	-86.566991	-122.155395
63607	9.862966	-3.484755	-1.016728	-1.117433	-0.088357	0.011198	83.332977	-86.579151	-122.995701
63608	9.917443	-3.441441	-0.855040	-0.564112	-0.118206	-0.017731	84.163052	-86.576279	-124.150960
63609	9.984972	-3.213358	-1.118026	-0.066950	-0.077833	-0.046310	84.918658	-86.554064	-124.946221
63610	10.324858	0.521614	-0.677888	0.565746	-0.196021	-0.165479	87.195980	-86.467015	-126.902932
63611	10.516363	1.310586	0.038964	0.029798	0.125845	-0.066187	86.102084	-86.424947	-125.789679
63612	9.416245	0.260631	0.199705	-0.311122	0.385348	-0.085373	82.526646	-86.354213	-122.385661
63613	9.503609	0.087824	-0.090159	0.177320	0.036397	-0.088529	82.421486	-86.301249	-122.178337
63614	9.803534	0.998066	0.230517	0.084670	0.066139	-0.076252	81.992365	-86.252690	-121.699604
63615	9.545643	0.498238	0.193358	-0.066556	0.132738	-0.061020	80.903368	-86.206876	-120.646320
63616	9.540118	0.530747	0.178575	0.060819	-0.001629	-0.056920	81.037096	-86.174691	-120.745331
63617	9.714374	0.704641	0.180991	0.023026	-0.013776	-0.045307	81.237453	-86.150336	-120.932774
63618	9.628262	0.555657	0.089588	0.005375	-0.027610	-0.036086	81.526396	-86.132138	-121.219199
63619	9.713741	0.576656	0.058374	0.037675	-0.071443	-0.026825	82.189920	-86.122790	-121.862463
63620	9.827736	0.631100	0.005676	0.016528	-0.061667	-0.015277	82.740839	-86.118609	-122.405067
63621	9.863163	0.565014	-0.066031	0.014506	-0.051795	-0.006858	83.201531	-86.118399	-122.858345
63622	9.829442	0.558003	-0.071699	0.009170	-0.034418	-0.004698	83.507972	-86.117862	-123.160136
63623	9.848825	0.548865	-0.063105	0.004107	-0.018034	-0.005554	83.678103	-86.115908	-123.328157
63624	9.830556	0.546574	-0.035009	0.001572	-0.003748	-0.005299	83.723245	-86.112978	-123.372411
63625	9.748979	0.514842	-0.027705	0.005003	0.006289	-0.007679	83.691845	-86.108269	-123.337922
63626	9.764359	0.520460	0.003064	0.008478	-0.000495	-0.010019	83.717978	-86.102445	-123.359157
63627	9.802971	0.587374	-0.007177	0.005671	0.002594	-0.008119	83.718357	-86.097724	-123.356136
63628	9.722575	0.543561	0.041188	-0.001962	0.013519	-0.012862	83.624256	-86.089398	-123.262853
63629	9.712289	0.513403	0.031953	0.012371	-0.008764	-0.016876	83.731146	-86.080411	-123.362744
63630	9.724009	0.557123	-0.060016	0.011572	-0.016760	-0.016294	83.899460	-86.072015	-123.524718
63631	9.732516	0.579941	0.047691	0.002690	-0.019901	-0.018709	84.093585	-86.062618	-123.717611
63632	9.792311	0.563435	-0.021096	0.017723	-0.026132	-0.019025	84.343619	-86.053128	-123.957970
63633	9.853037	0.619325	-0.082235	0.008044	-0.018746	-0.009633	84.522145	-86.048748	-124.132155
63634	9.836026	0.604708	-0.013458	-0.005416	0.002261	-0.003390	84.510806	-86.046535	-124.123811
63635	9.759760	0.545766	0.015325	-0.000927	0.005902	-0.003640	84.475841	-86.044208	-124.089148
63636	9.740286	0.555768	0.004293	-0.001585	-0.002591	-0.004563	84.507655	-86.041593	-124.121860
63637	9.777914	0.549570	-0.014018	0.000202	-0.003913	-0.007188	84.557047	-86.037784	-124.171106
63638	9.772618	0.577058	-0.035330	0.001042	-0.000549	-0.006364	84.574864	-86.034028	-124.188279
63639	9.788026	0.582417	-0.004789	0.001392	0.001381	-0.005199	84.579764	-86.031070	-124.192244
63640	9.806220	0.585497	-0.033624	0.001817	0.006232	0.000143	84.537173	-86.030658	-124.148418
63641	9.788013	0.582629	-0.003489	-0.003036	0.012848	0.000590	84.440810	-86.030375	-124.053419
63642	9.768570	0.592099	-0.013442	-0.005174	0.012241	0.002050	84.343321	-86.030705	-123.958578
63643	9.759632	0.547953	0.018719	0.000124	0.011692	-0.000144	84.258932	-86.030052	-123.873766
63644	9.772612	0.577416	-0.030851	0.000073	0.002921	0.004177	84.239239	-86.032113	-123.853894
63645	9.806292	0.584536	-0.028829	-0.002918	0.011137	0.006175	84.152374	-86.035089	-123.768349
63646	9.806351	0.583628	-0.027321	-0.001654	0.019353	0.012343	83.989387	-86.040826	-123.605831
63647	9.792240	0.564865	-0.015217	-0.009548	0.025416	0.019108	83.769181	-86.050270	-123.390435
63648	9.712021	0.518254	0.035095	-0.009450	0.029555	0.016197	83.512689	-86.057470	-123.138671
63649	9.736485	0.565873	0.036235	0.005837	0.002588	0.008736	83.498091	-86.062398	-123.120538
63650	9.759982	0.541233	0.028811	-0.004287	0.010974	0.004284	83.408613	-86.063974	-123.033221
63651	9.730374	0.518994	0.008757	-0.003160	0.001158	0.000733	83.408222	-86.064443	-123.034494
63652	9.755960	0.555436	0.048587	0.000808	-0.004191	-0.001946	83.453027	-86.063465	-123.078851
63653	9.754771	0.568049	0.007959	0.000139	-0.000496	-0.001506	83.470357	-86.062774	-123.095994
63654	9.793626	0.548966	0.030360	0.000139	-0.000496	-0.001506	83.483773	-86.061803	-123.109272
63655	9.754748	0.568435	0.007857	-0.001233	-0.000660	-0.003399	83.503476	-86.060049	-123.129581
63656	9.759938	0.542029	0.028635	-0.002424	-0.005954	-0.005391	83.564138	-86.057218	-123.191689
63657	9.740480	0.552114	0.016735	0.000107	-0.008050	-0.004278	83.646418	-86.055438	-123.273954
63658	9.759881	0.543136	0.027300	-0.001657	-0.005511	-0.008743	83.706738	-86.050660	-123.335279
63659	9.807687	0.569012	0.017935	0.003961	-0.011686	-0.012540	83.828404	-86.044390	-123.454811
63660	9.773973	0.562555	0.015349	-0.000177	-0.013396	-0.011127	83.956155	-86.038718	-123.582879
63661	9.775125	0.551148	0.054230	-0.001644	-0.017699	-0.010106	84.121239	-86.034159	-123.749153
63662	9.768619	0.591377	-0.009061	-0.000622	-0.019463	-0.009379	84.296371	-86.029785	-123.924974
63663	9.788012	0.582658	0.000110	-0.001600	-0.022331	-0.008698	84.497646	-86.026221	-124.127502
63664	9.759582	0.548861	0.018013	-0.007218	-0.016158	-0.004898	84.637669	-86.024149	-124.271919
63665	9.754288	0.576307	-0.005127	-0.003065	-0.026633	-0.007676	84.872072	-86.021310	-124.508496
63666	9.768429	0.594323	-0.017456	-0.002086	-0.023764	-0.008356	85.079487	-86.017574	-124.717523
63667	9.739998	0.560804	-0.000201	-0.006296	-0.028395	-0.011116	85.328113	-86.012733	-124.970215
63668	9.772298	0.581998	-0.042119	-0.001624	-0.029881	-0.011465	85.586956	-86.007377	-125.230531
63669	9.758035	0.566043	-0.035114	-0.000858	-0.029436	-0.014816	85.848172	-86.000314	-125.492725
63670	9.735772	0.579063	0.010313	0.002977	-0.034284	-0.015990	86.146570	-85.992378	-125.790054
63671	9.810956	0.567190	-0.028949	-0.000717	-0.029929	-0.016317	86.410707	-85.984301	-126.055099
63672	9.709915	0.546020	-0.035445	-0.000489	-0.026285	-0.020735	86.642033	-85.973182	-126.287189
63673	9.729261	0.538838	-0.027251	0.007057	-0.034266	-0.028669	86.948922	-85.958018	-126.590632
63674	9.743229	0.558992	-0.040730	0.006361	-0.038122	-0.030994	87.280715	-85.941203	-126.919513
63675	9.776653	0.570085	-0.043477	0.011723	-0.042077	-0.038873	87.651666	-85.920153	-127.284514
63676	9.756888	0.583565	-0.058906	0.011517	-0.044498	-0.041536	88.034314	-85.897146	-127.661435
63677	9.818479	0.629657	-0.081834	0.013594	-0.040470	-0.037316	88.385490	-85.876630	-128.005553
63678	9.836311	0.635912	-0.114339	0.008962	-0.023887	-0.031429	88.593807	-85.858799	-128.209176
63679	9.822016	0.621508	-0.105830	0.000273	-0.004887	-0.027035	88.649472	-85.843509	-128.264675
63680	9.805260	0.608579	-0.036404	0.000695	-0.000039	-0.021699	88.661365	-85.830888	-128.276111
63681	9.766060	0.629584	-0.058412	-0.000258	0.004643	-0.018251	88.639922	-85.820503	-128.254603
63682	9.765966	0.631072	-0.058169	0.007573	0.000798	-0.012261	88.647435	-85.813278	-128.257697
63683	9.769871	0.618030	-0.077307	0.005655	0.003828	-0.015216	88.635344	-85.804647	-128.242168
63684	9.755709	0.602117	-0.066875	0.004352	0.006579	-0.012931	88.596070	-85.796957	-128.200199
63685	9.789251	0.611224	-0.065117	0.004490	0.006085	-0.014435	88.565835	-85.788745	-128.167145
63686	9.769624	0.622136	-0.075576	0.008484	0.008300	-0.014354	88.516135	-85.780212	-128.112348
63687	9.785081	0.628424	-0.044055	0.008771	0.014862	-0.014602	88.420708	-85.771771	-128.011463
63688	9.755388	0.607710	-0.063058	0.007744	0.016624	-0.015327	88.306970	-85.762532	-127.892876
63689	9.759308	0.595018	-0.080737	0.005480	0.017723	-0.019443	88.189653	-85.751245	-127.771929
63690	9.770690	0.616445	-0.029262	0.004868	0.018001	-0.024681	88.067185	-85.736587	-127.646236
63691	9.808182	0.612293	-0.045437	0.011343	0.022763	-0.024899	87.917558	-85.722041	-127.489518
63692	9.754884	0.616463	-0.055540	0.005295	0.024069	-0.026431	87.751361	-85.706202	-127.319723
63693	9.770227	0.624023	-0.022742	0.007433	0.024684	-0.027892	87.588058	-85.689839	-127.151528
63694	9.784136	0.643777	-0.030200	0.005365	0.026991	-0.022257	87.400827	-85.676241	-126.960593
63695	9.769927	0.628865	-0.017728	0.005786	0.025508	-0.026767	87.232503	-85.660426	-126.788304
63696	9.765705	0.645636	0.003687	0.001094	0.018211	-0.022090	87.111173	-85.647092	-126.665906
63697	9.746024	0.657182	-0.005479	0.007426	0.023473	-0.020799	86.958851	-85.634694	-126.508717
63698	9.749982	0.644690	-0.022775	-0.004828	0.017800	-0.018046	86.837085	-85.623641	-126.389281
63699	9.793427	0.685987	-0.010648	0.010576	0.013561	-0.017207	86.760579	-85.613571	-126.306314
63700	9.769309	0.638575	-0.008431	-0.006137	0.020550	-0.015765	86.617678	-85.603700	-126.166430
63701	9.755173	0.622579	0.002852	0.004230	0.007082	-0.011413	86.583974	-85.597144	-126.130040
63702	9.793144	0.690066	-0.006743	0.000520	0.011423	-0.011747	86.511627	-85.589860	-126.057091
63703	9.767695	0.654502	-0.045440	-0.001134	0.012243	-0.010628	86.436576	-85.583572	-125.982306
63704	9.773126	0.628730	-0.023278	-0.000588	0.009046	-0.009560	86.380606	-85.577610	-125.926418
63705	9.763451	0.670935	-0.024330	-0.000788	0.006621	-0.012226	86.348410	-85.570606	-125.894420
63706	9.729788	0.664186	-0.024996	0.002237	0.005972	-0.011455	86.317898	-85.563667	-125.862441
63707	9.764674	0.660838	0.017164	-0.001753	0.003749	-0.011543	86.306242	-85.557164	-125.851596
63708	9.745058	0.671351	0.006254	-0.000724	0.001989	-0.010816	86.303164	-85.550736	-125.848836
63709	9.782701	0.665811	-0.011444	-0.000525	0.004414	-0.008150	86.285771	-85.546151	-125.831532
63710	9.767235	0.661581	-0.041776	-0.002457	-0.001331	-0.006785	86.304159	-85.542152	-125.851299
63711	9.744890	0.673773	0.006682	-0.003344	-0.000065	-0.009015	86.318447	-85.537242	-125.867393
63712	9.748962	0.660205	-0.012822	-0.003280	-0.004698	-0.007606	86.361323	-85.532895	-125.912195
63713	9.768461	0.651476	-0.002017	-0.004934	-0.003879	-0.006487	86.401363	-85.529572	-125.955034
63714	9.767046	0.664302	-0.042670	0.001796	-0.001313	-0.002622	86.419976	-85.527949	-125.972583
63715	9.767028	0.664592	-0.042362	-0.005630	0.007365	-0.003290	86.375932	-85.526054	-125.931479
63716	9.744723	0.676198	0.006567	-0.003024	0.000648	-0.000770	86.376600	-85.525420	-125.933798
63717	9.785170	0.667909	-0.071047	-0.000887	0.001266	-0.002230	86.379415	-85.524356	-125.936967
63718	9.766999	0.665065	-0.041546	-0.003713	0.004339	-0.000334	86.352525	-85.523838	-125.912040
63719	9.748824	0.662258	-0.012005	-0.003911	0.001914	-0.003000	86.349307	-85.522313	-125.910904
63720	9.748807	0.662515	-0.011881	-0.002882	0.000153	-0.002274	86.354367	-85.520838	-125.917547
63721	9.752922	0.648387	-0.031328	-0.002193	-0.003538	-0.002710	86.391780	-85.519684	-125.956170
63722	9.768319	0.653605	-0.001069	0.001796	-0.001312	-0.002622	86.410355	-85.518062	-125.973680
63723	9.766910	0.666366	-0.041694	-0.005075	-0.003384	-0.004984	86.446070	-85.515600	-126.012274
63724	9.782300	0.671679	-0.011332	-0.002882	0.000153	-0.002274	86.451088	-85.514124	-126.018875
63725	9.762733	0.681369	-0.022537	-0.001228	-0.000665	-0.003392	86.468419	-85.512487	-126.036791
63726	9.752806	0.650096	-0.032168	-0.001908	-0.004526	-0.005717	86.509600	-85.509205	-126.079106
63727	9.768194	0.655466	-0.002102	-0.004187	-0.004650	-0.002754	86.553994	-85.508073	-126.125876
63728	9.762653	0.682474	-0.023558	0.001314	-0.002749	-0.002281	86.582491	-85.506691	-126.153617
63729	9.752738	0.651070	-0.033072	-0.004252	-0.000017	-0.004162	86.593731	-85.504592	-126.167182
63730	9.768140	0.656259	-0.003048	-0.001098	-0.009931	-0.000577	86.672330	-85.504425	-126.246565
63731	9.754100	0.639140	0.006194	-0.002051	-0.004032	-0.004214	86.713996	-85.502437	-126.289371
63732	9.762564	0.683686	-0.025180	-0.003563	-0.003708	-0.004598	86.747547	-85.499755	-126.324984
63733	9.752638	0.652455	-0.035022	-0.002391	-0.005962	-0.005376	86.803514	-85.497164	-126.382337
63734	9.766615	0.670427	-0.045505	-0.003761	-0.006132	-0.007264	86.855522	-85.493029	-126.436579
63735	9.766555	0.671267	-0.045993	-0.006161	-0.004543	-0.009878	86.900645	-85.487813	-126.485224
63736	9.766481	0.672308	-0.046420	-0.006018	-0.005036	-0.011381	86.944810	-85.481282	-126.532897
63737	9.767821	0.660962	-0.006581	-0.003476	-0.007120	-0.010271	87.010124	-85.475921	-126.600244
63738	9.748183	0.671481	-0.018462	-0.008352	-0.008080	-0.012586	87.075092	-85.468783	-126.670127
63739	9.767668	0.663214	-0.007967	-0.004987	-0.006796	-0.010655	87.137012	-85.463184	-126.734947
63740	9.752158	0.659373	-0.039107	-0.004845	-0.007289	-0.012158	87.197749	-85.456256	-126.798571
63741	9.746517	0.687217	-0.060733	-0.006159	-0.004542	-0.009876	87.242212	-85.451037	-126.846550
63742	9.747876	0.675857	-0.020693	-0.005536	-0.003599	-0.011720	87.275567	-85.444251	-126.883104
63743	9.770077	0.665456	-0.069676	-0.003758	-0.006131	-0.007263	87.331746	-85.440567	-126.941464
63744	9.785453	0.671282	-0.039496	-0.003203	-0.000554	-0.010514	87.344003	-85.434387	-126.955512
63745	9.771387	0.654923	-0.029936	-0.003473	-0.007118	-0.010270	87.408341	-85.429010	-127.021883
63746	9.765741	0.682616	-0.051365	-0.001833	-0.000384	-0.008626	87.419415	-85.423904	-127.033957
63747	9.762992	0.685405	0.008294	-0.005338	-0.001175	-0.009053	87.439496	-85.419074	-127.056995
63748	9.769759	0.669968	-0.070922	-0.002794	-0.003257	-0.007944	87.470249	-85.414431	-127.089363
63749	9.779551	0.702490	-0.061747	-0.002313	-0.001820	-0.008285	87.496519	-85.410052	-127.116907
63750	9.762821	0.687837	0.007666	-0.004306	-0.002934	-0.008328	87.524104	-85.405179	-127.146967
63751	9.745873	0.696060	-0.063325	-0.001975	0.000110	-0.007122	87.536257	-85.401433	-127.160098
63752	9.752864	0.657760	-0.001976	-0.002028	-0.002806	-0.011291	87.565030	-85.394859	-127.190041
63753	9.784908	0.679060	-0.041324	-0.000943	-0.001649	-0.006397	87.590026	-85.391570	-127.215489
63754	9.747156	0.686087	-0.023233	-0.003006	0.001870	-0.007846	87.583910	-85.386854	-127.210992
63755	9.766687	0.677439	-0.011957	-0.001974	0.000110	-0.007121	87.596027	-85.383107	-127.224127
63756	9.779155	0.707942	-0.062302	-0.002455	-0.001327	-0.006781	87.612550	-85.379077	-127.242027
63757	9.745541	0.700659	-0.063644	-0.000319	-0.000705	-0.008241	87.632035	-85.374711	-127.261625
63758	9.766532	0.679675	-0.012137	-0.001832	-0.000383	-0.008624	87.642712	-85.369603	-127.273300
63759	9.746884	0.689943	-0.023165	-0.002383	0.002814	-0.009689	87.636267	-85.364346	-127.267996
63760	9.769079	0.679758	-0.071426	-0.000105	0.002944	-0.012652	87.625623	-85.356853	-127.257288
63761	9.760697	0.709540	-0.032630	0.000304	0.000240	-0.010084	87.639040	-85.351426	-127.270405
63762	9.746668	0.693009	-0.022359	-0.003221	0.006996	-0.007747	87.596706	-85.346644	-127.229694
63763	9.766198	0.684479	-0.010814	-0.004855	0.000262	-0.009391	87.606833	-85.341618	-127.242475
63764	9.766135	0.685374	-0.010681	0.000642	0.002171	-0.008921	87.601041	-85.336280	-127.236205
63765	9.784201	0.689266	-0.039702	-0.003005	0.001870	-0.007845	87.600494	-85.332104	-127.237227
63766	9.766037	0.686777	-0.010313	-0.002259	0.001096	-0.004114	87.599176	-85.329543	-127.237114
63767	9.764542	0.699619	-0.050627	-0.004251	-0.000020	-0.004157	87.610174	-85.327530	-127.250426
63768	9.750555	0.682564	-0.040806	-0.001706	-0.002101	-0.003050	87.631236	-85.325655	-127.272450
63769	9.779932	0.705115	-0.020551	-0.001296	-0.004805	-0.000482	87.676384	-85.325869	-127.318298
63770	9.779917	0.705309	-0.020905	-0.005211	-0.002895	-0.003476	87.701080	-85.323766	-127.345983
63771	9.770107	0.673727	-0.030565	-0.002472	-0.002553	0.000297	87.729383	-85.324366	-127.375650
63772	9.750506	0.683188	-0.042027	-0.000673	-0.003860	-0.002326	87.763083	-85.322941	-127.409761
63773	9.760283	0.715208	-0.032867	-0.003219	-0.001779	-0.003433	87.786779	-85.321383	-127.435273
63774	9.788179	0.677437	-0.060507	-0.001849	-0.001608	-0.001546	87.803811	-85.320353	-127.453336
63775	9.730860	0.693258	-0.053601	-0.000890	0.001267	-0.002227	87.807440	-85.319448	-127.457259
63776	9.779832	0.706458	-0.021823	0.000143	-0.000492	-0.001503	87.817789	-85.318418	-127.467471
63777	9.750420	0.684394	-0.042372	-0.007276	0.000624	-0.004924	87.822674	-85.315974	-127.476386
63778	9.760195	0.716398	-0.033122	-0.001296	-0.004805	-0.000482	87.862049	-85.315620	-127.516549
63779	9.750390	0.684794	-0.042915	0.001319	-0.002744	-0.002283	87.894778	-85.314751	-127.548527
63780	9.746216	0.699287	-0.023819	-0.000337	-0.001930	-0.001163	87.914776	-85.313944	-127.568697
63781	9.769963	0.675736	-0.032156	-0.001849	-0.001608	-0.001546	87.937695	-85.313497	-127.592552
63782	9.746190	0.699641	-0.024105	0.000286	-0.000985	-0.003006	87.951896	-85.311614	-127.606547
63783	9.768448	0.688644	-0.072668	0.000622	0.000945	-0.001844	87.958356	-85.310937	-127.612524
63784	9.746159	0.700078	-0.024049	-0.002882	0.000151	-0.002270	87.962621	-85.309452	-127.618370
63785	9.797803	0.711501	-0.051942	0.002757	0.001569	-0.003304	87.966417	-85.307943	-127.620390
63786	9.750285	0.686271	-0.043086	0.004606	0.003177	-0.001757	87.953731	-85.306690	-127.604924
63787	9.783812	0.694655	-0.041746	-0.001083	-0.001155	-0.004893	87.974678	-85.304321	-127.626413
63788	9.746067	0.701356	-0.023772	0.003934	-0.000682	-0.004083	87.989083	-85.301815	-127.638516
63789	9.759985	0.719227	-0.033707	-0.000604	0.000282	-0.005233	88.000438	-85.299227	-127.650104
63790	9.765597	0.692968	-0.012616	-0.000604	0.000282	-0.005233	88.005783	-85.296043	-127.655726
63791	9.768255	0.691449	-0.071996	-0.001108	0.006393	-0.002128	87.973451	-85.295121	-127.623733
63792	9.750135	0.688451	-0.042308	0.005975	0.003349	0.000129	87.959929	-85.294946	-127.606641
63793	9.764077	0.705985	-0.051888	0.001581	0.003820	-0.002524	87.947284	-85.293847	-127.592896
63794	9.764062	0.706231	-0.051370	-0.002620	0.006714	-0.002512	87.906105	-85.292089	-127.552996
63795	9.745947	0.703104	-0.021412	0.003479	0.008343	0.003192	87.861815	-85.294171	-127.506399
63796	9.764085	0.706017	-0.050013	0.001295	0.004805	0.000482	87.835396	-85.294163	-127.479057
63797	9.750151	0.688369	-0.039693	0.002041	0.004031	0.004212	87.819966	-85.296928	-127.462225
63798	9.765596	0.693046	-0.008856	-0.002832	0.003065	0.001899	87.802897	-85.297768	-127.446638
63799	9.769782	0.678535	-0.028017	0.001369	0.000171	0.001887	87.814581	-85.299293	-127.457390
63800	9.759988	0.719356	-0.029795	0.000746	-0.000774	0.003730	87.825807	-85.301265	-127.468136
63801	9.768356	0.690387	-0.068316	0.002185	0.003538	0.002709	87.814265	-85.303198	-127.455093
63802	9.765675	0.691937	-0.008298	0.000049	0.002915	0.004169	87.799265	-85.305342	-127.439924
63803	9.765695	0.691660	-0.008131	-0.000143	0.000492	0.001503	87.807856	-85.306646	-127.448476
63804	9.764245	0.703917	-0.048356	-0.001320	0.002744	0.002282	87.793757	-85.307712	-127.434999
63805	9.746139	0.700515	-0.018854	0.000049	0.002915	0.004169	87.784838	-85.310502	-127.425816
63806	9.768468	0.688905	-0.067228	0.001226	0.000663	0.003390	87.786406	-85.312249	-127.426595
63807	9.744735	0.712198	-0.058877	0.003554	0.003709	0.004597	87.773995	-85.315263	-127.411948
63808	9.783947	0.693068	-0.036065	0.004514	0.006584	0.003916	87.735916	-85.317179	-127.371057
63809	9.740627	0.725715	-0.038637	0.000050	0.002915	0.004169	87.726867	-85.319968	-127.361801
63810	9.770045	0.674848	-0.025338	0.004034	0.005147	0.004257	87.698413	-85.322109	-127.330844
63811	9.779862	0.706212	-0.015446	-0.000983	0.004674	0.003445	87.676649	-85.324447	-127.309424
63812	9.764480	0.700844	-0.045335	0.001346	0.007720	0.004652	87.628466	-85.326751	-127.260218
63813	9.760349	0.714612	-0.025336	0.002235	0.006454	0.006879	87.595308	-85.331018	-127.225484
63814	9.746430	0.696551	-0.014806	0.000723	0.006776	0.006495	87.552731	-85.334395	-127.182261
63815	9.764626	0.698935	-0.043270	0.001060	0.008706	0.007659	87.502804	-85.339048	-127.131424
63816	9.726963	0.704368	-0.024414	0.003941	0.008555	0.009931	87.448352	-85.344340	-127.074438
63817	9.766184	0.684767	-0.001344	-0.001413	0.006153	0.007955	87.414366	-85.349231	-127.040965
63818	9.764805	0.696567	-0.041079	0.002860	0.007399	0.005037	87.368797	-85.351746	-126.993513
63819	9.764840	0.696097	-0.040606	0.001562	0.002594	0.004554	87.363192	-85.354755	-126.987015
63820	9.750897	0.678211	-0.030311	0.002380	0.005961	0.005377	87.327282	-85.357500	-126.949530
63821	9.776139	0.714334	0.010382	-0.003475	0.009673	0.006506	87.268027	-85.361453	-126.892011
63822	9.717433	0.668935	-0.030123	0.001755	0.005017	0.007221	87.237687	-85.365274	-126.860474
63823	9.760852	0.707903	-0.019120	0.005330	0.001176	0.009055	87.242360	-85.370943	-126.861865
63824	9.780473	0.697829	-0.007704	-0.001606	0.003731	0.005288	87.219765	-85.373693	-126.840030
63825	9.769312	0.677772	-0.057094	-0.000524	0.004888	0.010183	87.194672	-85.379917	-126.814896
63826	9.741445	0.715090	-0.029411	-0.000912	0.000041	0.004850	87.198701	-85.382518	-126.819373
63827	9.770799	0.664111	-0.016418	0.002593	0.000834	0.005279	87.205431	-85.385996	-126.824773
63828	9.766656	0.677992	0.002975	-0.003936	0.000686	0.004080	87.203429	-85.388139	-126.824938
63829	9.762506	0.691989	0.022134	-0.000075	-0.004141	0.002908	87.244337	-85.390450	-126.865849
63830	9.751304	0.672429	-0.028115	-0.003580	-0.004934	0.002478	87.283009	-85.391830	-126.906616
63831	9.765317	0.689491	-0.038660	-0.000006	-0.008776	0.004312	87.357983	-85.395089	-126.981509
63832	9.765332	0.689245	-0.039178	0.001031	-0.001760	0.000725	87.377382	-85.395376	-127.000290
63833	9.745767	0.698576	-0.050571	-0.002474	-0.002552	0.000295	87.406896	-85.396114	-127.031319
63834	9.765328	0.689276	-0.039707	0.000837	-0.004183	-0.001942	87.444261	-85.394935	-127.068235
63835	9.765310	0.689515	-0.039916	0.002280	0.000129	-0.002962	87.458536	-85.393777	-127.081111
63836	9.765299	0.689692	-0.039624	-0.003237	0.005772	-0.000670	87.422425	-85.393071	-127.046654
63837	9.727565	0.696103	-0.021156	-0.000550	0.003197	-0.001065	87.412971	-85.392939	-127.037116
63838	9.765291	0.689844	-0.038899	0.002474	0.002552	-0.000295	87.402891	-85.392530	-127.025493
63839	9.751300	0.672460	-0.028799	0.003986	0.002230	0.000089	87.403012	-85.393079	-127.023076
63840	9.784857	0.680504	-0.027314	-0.001031	0.001760	-0.000725	87.396690	-85.392444	-127.017238
63841	9.731742	0.681736	-0.039436	0.001013	0.005791	0.003490	87.368149	-85.394845	-126.987862
63842	9.751318	0.672237	-0.027965	0.003649	0.000299	-0.001074	87.375000	-85.394049	-126.992549
63843	9.769484	0.675312	-0.056840	0.005286	0.007034	0.000573	87.341393	-85.394747	-126.955606
63844	9.761145	0.703899	-0.017497	0.002119	0.008172	0.001307	87.290642	-85.395102	-126.903384
63845	9.779343	0.706594	-0.045901	0.009873	0.008984	0.005898	87.243757	-85.398784	-126.850556
63846	9.765399	0.688531	-0.034841	0.004838	0.016065	0.007849	87.136059	-85.402652	-126.739640
63847	9.766844	0.675251	0.006892	0.008412	0.012223	0.009684	87.063613	-85.408407	-126.661975
63848	9.785088	0.677397	-0.021209	0.010068	0.011408	0.008567	86.991467	-85.412799	-126.583722
63849	9.747408	0.682890	-0.002091	0.005389	0.012869	0.008914	86.912098	-85.418098	-126.500757
63850	9.755842	0.653172	-0.039586	0.009300	0.010958	0.011915	86.841096	-85.424403	-126.424093
63851	9.781120	0.688739	0.001334	0.014461	0.010934	0.011229	86.779680	-85.431035	-126.354328
63852	9.750463	0.677757	-0.058715	0.007933	0.010788	0.010026	86.709490	-85.436251	-126.279267
63853	9.761724	0.695994	-0.007918	0.010813	0.010636	0.012302	86.647892	-85.443560	-126.210685
63854	9.761818	0.694681	-0.006973	0.013693	0.010485	0.014578	86.580867	-85.451377	-126.135488
63855	9.746561	0.688300	-0.036543	0.012182	0.010808	0.014192	86.518064	-85.459725	-126.065219
63856	9.770401	0.662884	-0.043921	0.014501	0.005080	0.019719	86.487721	-85.470659	-126.026357
63857	9.776190	0.707287	-0.014324	0.004820	0.014850	0.014928	86.389777	-85.479281	-125.925116
63858	9.752398	0.656857	-0.012757	0.008339	0.008087	0.012598	86.336931	-85.486027	-125.867223
63859	9.762347	0.687241	-0.002441	0.009018	0.011950	0.014925	86.262500	-85.494713	-125.787359
63860	9.742909	0.695362	-0.012491	0.010273	0.013835	0.011239	86.169270	-85.500452	-125.687847
63861	9.768000	0.658011	0.021258	0.006962	0.015471	0.013472	86.068049	-85.508149	-125.582370
63862	9.733220	0.661190	-0.019236	0.011302	0.012075	0.011967	85.987309	-85.514349	-125.494796
63863	9.752817	0.650680	-0.007178	0.013164	0.006129	0.010756	85.958490	-85.520869	-125.458189
63864	9.781004	0.684241	-0.026519	0.009030	0.004397	0.012166	85.932035	-85.527485	-125.426374
63865	9.785264	0.668786	-0.045135	0.004434	0.010002	0.009596	85.870052	-85.533181	-125.361606
63866	9.781158	0.682116	-0.024474	0.004910	0.018995	0.012018	85.734173	-85.539092	-125.222403
63867	9.775558	0.634731	-0.051301	0.006279	0.019167	0.013909	85.603429	-85.546845	-125.087517
63868	9.768525	0.649844	0.029586	0.005252	0.020928	0.013182	85.452090	-85.553284	-124.932613
63869	9.771543	0.646714	-0.028288	0.003206	0.016893	0.008966	85.338661	-85.558251	-124.817088
63870	9.743716	0.684078	0.000487	0.004377	0.014637	0.008191	85.235411	-85.562085	-124.710922
63871	9.767461	0.659524	-0.005993	0.001840	0.016722	0.007075	85.123378	-85.565953	-124.597510
63872	9.753438	0.641322	0.005562	0.006570	0.018178	0.010907	84.993175	-85.571130	-124.463052
63873	9.749293	0.654906	0.026157	0.001702	0.009661	0.005817	84.933652	-85.574591	-124.402592
63874	9.753528	0.639935	0.007921	0.005694	0.011886	0.005914	84.852232	-85.577210	-124.317567
63875	9.748166	0.666081	-0.012240	0.003213	0.009337	0.006206	84.794853	-85.580950	-124.257858
63876	9.767684	0.656243	-0.000066	0.000480	0.008994	0.002422	84.733980	-85.581713	-124.196438
63877	9.763486	0.670571	0.020089	0.001255	0.009439	-0.000925	84.679628	-85.581355	-124.141175
63878	9.766505	0.668448	-0.038638	0.000966	0.010431	0.002082	84.608636	-85.581838	-124.069328
63879	9.749400	0.653046	0.032093	0.000425	0.013629	0.001014	84.521549	-85.582364	-123.981583
63880	9.753624	0.638365	0.014073	-0.000835	0.011747	0.004700	84.437894	-85.584251	-123.898070
63881	9.781851	0.672524	-0.004737	0.002873	0.007405	0.005044	84.395639	-85.587399	-123.853982
63882	9.749465	0.651910	0.035181	-0.002201	0.011576	0.002808	84.313710	-85.588203	-123.772985
63883	9.753693	0.637238	0.016661	0.002192	0.003541	0.002717	84.301140	-85.590246	-123.758973
63884	9.767819	0.654194	0.007334	0.001362	0.007730	0.004655	84.248244	-85.592314	-123.705048
63885	9.752570	0.648997	-0.022385	-0.003907	0.009472	-0.000249	84.190017	-85.592300	-123.649058
63886	9.767839	0.653874	0.008892	0.002678	0.004977	0.002378	84.159885	-85.593223	-123.617210
63887	9.767856	0.653605	0.009630	-0.002685	0.010140	0.003148	84.094489	-85.595135	-123.552935
63888	9.738503	0.631154	-0.010372	-0.002196	0.004018	0.000045	84.070414	-85.594782	-123.529962
63889	9.749545	0.650435	0.039960	0.003163	0.006414	0.002039	84.036664	-85.596309	-123.493750
63890	9.752630	0.648206	-0.019081	0.000141	0.007063	0.001260	83.990454	-85.596464	-123.447233
63891	9.782002	0.670341	0.002232	0.001167	0.005302	0.001989	83.964769	-85.597995	-123.420673
63892	9.763680	0.667273	0.031945	0.000142	0.007063	0.001260	83.918538	-85.598146	-123.374135
63893	9.782027	0.669969	0.003479	-0.000489	0.006122	0.003103	83.884597	-85.600287	-123.339939
63894	9.739716	0.617620	0.033536	-0.001607	0.003745	0.005285	83.858698	-85.602929	-123.314797
63895	9.766842	0.664101	-0.026501	0.003756	-0.001418	0.004516	83.881367	-85.606299	-123.335624
63896	9.782121	0.668600	0.004182	-0.001606	0.003745	0.005285	83.855429	-85.608941	-123.310444
63897	9.768024	0.651016	0.013954	0.001709	-0.005455	0.000294	83.911602	-85.610159	-123.365774
63898	9.768034	0.650874	0.013752	-0.001802	0.001317	0.002617	83.905697	-85.611430	-123.360799
63899	9.753933	0.633324	0.023817	-0.001316	0.002753	0.002278	83.896153	-85.613248	-123.352420
63900	9.772282	0.636047	-0.005334	0.002050	-0.003523	0.001458	83.929312	-85.614153	-123.384410
63901	9.763854	0.664656	0.033270	-0.003996	0.005335	0.002663	83.900429	-85.616091	-123.357420
63902	9.768096	0.649917	0.014432	0.000050	0.002925	0.004171	83.882384	-85.618150	-123.339205
63903	9.782243	0.666802	0.004794	-0.000436	0.001488	0.004511	83.882489	-85.621352	-123.339613
63904	9.739904	0.614577	0.034861	-0.004535	0.008533	0.001594	83.822116	-85.621597	-123.281581
63905	9.749807	0.646192	0.044672	0.001511	-0.000325	0.000390	83.838931	-85.622570	-123.297668
63906	9.748686	0.658525	0.004492	-0.001708	0.005455	-0.000294	83.804589	-85.621928	-123.264119
63907	9.754022	0.631875	0.025819	-0.003849	-0.002720	-0.001605	83.838310	-85.621907	-123.300264
63908	9.773467	0.622743	0.036901	-0.001561	-0.002600	-0.004562	83.867396	-85.619329	-123.330243
63909	9.768095	0.649912	0.015461	-0.000050	-0.002924	-0.004172	83.906725	-85.617882	-123.369557
63910	9.734485	0.642444	0.013610	-0.004044	-0.005148	-0.004273	83.953030	-85.615620	-123.418233
63911	9.749694	0.647953	0.043893	-0.002440	-0.001334	-0.006794	83.981065	-85.612584	-123.447556
63912	9.749653	0.648583	0.043594	-0.005409	-0.005319	-0.006166	84.029230	-85.609248	-123.498882
63913	9.783184	0.657270	0.044483	-0.003462	-0.007131	-0.010287	84.102071	-85.604555	-123.573948
63914	9.764785	0.655397	0.072710	-0.006284	-0.011612	-0.011162	84.199940	-85.598730	-123.675629
63915	9.777371	0.613556	0.013598	-0.006673	-0.016468	-0.016497	84.344474	-85.591048	-123.823883
63916	9.773040	0.629730	0.031060	-0.005697	-0.021151	-0.019939	84.518736	-85.580710	-124.001849
63917	9.781632	0.675725	-0.001914	-0.000192	-0.019250	-0.019449	84.688180	-85.571403	-124.171909
63918	9.791370	0.709357	0.006449	-0.010490	-0.002856	-0.019650	84.723452	-85.560197	-124.213226
63919	9.766147	0.673922	-0.033824	-0.003411	-0.004207	-0.006113	84.770630	-85.557674	-124.262403
63920	9.782549	0.667096	0.037252	-0.010973	0.004971	-0.005293	84.738277	-85.554247	-124.236170
63921	9.715370	0.651675	0.034611	-0.001220	-0.000666	-0.003396	84.759232	-85.553089	-124.257878
63922	9.782505	0.667746	0.037130	-0.000138	-0.007062	-0.001261	84.818657	-85.552591	-124.317474
63923	9.747750	0.672234	-0.005041	-0.006674	0.000354	0.000287	84.825707	-85.553534	-124.327768
63924	9.753142	0.645643	0.015668	0.001179	-0.009813	-0.003540	84.907563	-85.551869	-124.409105
63925	9.781288	0.680664	-0.004900	-0.005010	-0.008022	-0.003592	84.979797	-85.550979	-124.484337
63926	9.753096	0.646376	0.013995	-0.001842	-0.009165	-0.004318	85.055556	-85.548822	-124.561295
63927	9.767151	0.664116	0.003391	-0.004525	-0.006585	-0.003931	85.117895	-85.547694	-124.625741
63928	9.757257	0.632889	-0.006574	-0.005406	-0.005319	-0.006162	85.164446	-85.544285	-124.675451
63929	9.767074	0.665265	0.002313	-0.003750	-0.006137	-0.007277	85.225620	-85.541233	-124.738361
63930	9.762817	0.680208	0.021063	-0.004040	-0.005148	-0.004270	85.270402	-85.538889	-124.785511
63931	9.747518	0.675540	-0.009739	-0.001366	-0.000171	-0.001892	85.286835	-85.538560	-124.802808
63932	9.768212	0.653851	0.041864	-0.003991	-0.002226	-0.000098	85.307711	-85.538458	-124.825952
63933	9.771232	0.651748	-0.018037	-0.001114	-0.002379	0.002182	85.338102	-85.540616	-124.856274
63934	9.748720	0.663222	0.029980	-0.001018	-0.005795	-0.003493	85.388829	-85.538739	-124.907652
63935	9.761581	0.693013	-0.020780	-0.005105	-0.004606	0.002084	85.432609	-85.540905	-124.954506
63936	9.771221	0.651892	-0.019264	0.001317	-0.002750	-0.002280	85.461639	-85.539577	-124.982779
63937	9.766976	0.666701	-0.000550	-0.004718	-0.009011	-0.006598	85.542751	-85.536918	-125.067788
63938	9.761512	0.693945	-0.022139	-0.001221	-0.000665	-0.003395	85.555651	-85.534856	-125.081340
63939	9.766924	0.667466	-0.001014	-0.002877	0.000153	-0.002280	85.568141	-85.534365	-125.094835
63940	9.766906	0.667727	-0.001094	-0.001705	-0.002102	-0.003056	85.591058	-85.532559	-125.118713
63941	9.762666	0.682450	0.018149	-0.002248	0.001095	-0.004122	85.598501	-85.530922	-125.127383
63942	9.766858	0.668426	-0.001118	0.000290	-0.000989	-0.003007	85.614368	-85.529094	-125.143044
63943	9.747339	0.678070	-0.012402	0.000629	0.000942	-0.001843	85.623860	-85.528781	-125.151709
63944	9.765618	0.681106	-0.041679	-0.002963	-0.003987	0.000629	85.657727	-85.529161	-125.187293
63945	9.766839	0.668705	-0.001333	0.002479	0.002550	-0.000290	85.655380	-85.529683	-125.182932
63946	9.729060	0.675022	0.016712	-0.001801	0.001313	0.002619	85.650081	-85.530969	-125.178564
63947	9.780927	0.685774	-0.010819	-0.001172	0.002255	0.000776	85.647060	-85.532071	-125.176341
63948	9.752798	0.650949	0.008963	-0.000629	-0.000943	0.001843	85.659354	-85.533012	-125.188945
63949	9.747371	0.677616	-0.012214	0.000000	0.000000	-0.000000	85.672992	-85.533782	-125.202930
63950	9.766870	0.668243	-0.000847	-0.001027	0.001761	-0.000727	85.666715	-85.533137	-125.197135
63951	9.752805	0.650840	0.009054	-0.000629	-0.000943	0.001843	85.686173	-85.535021	-125.216949
63952	9.780942	0.685554	-0.010588	0.001113	0.002380	-0.002182	85.677396	-85.533518	-125.207417
63953	9.733301	0.660277	-0.001837	-0.000833	0.004187	0.001941	85.659849	-85.535203	-125.190609
63954	9.800459	0.675934	0.001289	-0.001801	0.001313	0.002619	85.654544	-85.536489	-125.186235
63955	9.733338	0.659741	-0.001280	0.000533	0.004358	0.003832	85.635492	-85.539251	-125.166974
63956	9.785226	0.670245	-0.028655	0.001560	0.002597	0.004560	85.621608	-85.541589	-125.152062
63957	9.752893	0.649499	0.010548	-0.001946	0.001808	0.004122	85.619383	-85.544675	-125.150492
63958	9.785280	0.669472	-0.028294	-0.000290	0.000989	0.003007	85.617079	-85.546197	-125.148259
63959	9.748725	0.663137	0.030229	-0.003118	0.004063	0.004899	85.597760	-85.549632	-125.130132
63960	9.767055	0.665538	0.001410	0.004437	0.002443	0.006840	85.585304	-85.553280	-125.114999
63961	9.771311	0.650590	-0.017508	-0.001123	0.005176	0.004948	85.558438	-85.556650	-125.088712
63962	9.733543	0.656698	0.000802	-0.000832	0.004187	0.001941	85.532891	-85.557421	-125.063478
63963	9.767136	0.664349	0.002402	0.000736	-0.000772	0.003734	85.551549	-85.560390	-125.081586
63964	9.748860	0.661085	0.031630	-0.001317	0.002750	0.002280	85.536080	-85.561418	-125.066739
63965	9.771383	0.649528	-0.016430	0.002820	0.004481	0.000875	85.518901	-85.562513	-125.047730
63966	9.747682	0.673184	-0.008068	-0.002828	0.003074	0.001892	85.500391	-85.563304	-125.030700
63967	9.771406	0.649205	-0.015850	0.003361	0.001283	0.001941	85.506662	-85.565163	-125.034893
63968	9.748902	0.660400	0.032842	0.002675	0.004976	0.002379	85.477000	-85.566146	-125.003516
63969	9.757335	0.631702	-0.005664	0.002973	-0.003569	-0.003395	85.521602	-85.565173	-125.046428
63970	9.748886	0.660636	0.032728	-0.001511	0.000324	-0.000388	85.525410	-85.564785	-125.051027
63971	9.743470	0.687465	0.011770	-0.000542	0.003198	-0.001066	85.516632	-85.564867	-125.042158
63972	9.723739	0.624103	-0.007063	0.002683	-0.002580	-0.000388	85.544227	-85.564610	-125.068205
63973	9.781257	0.681105	-0.006182	0.000000	0.000000	0.000000	85.559195	-85.565418	-125.083085
63974	9.733596	0.655909	0.002409	-0.002053	0.003522	-0.001455	85.539749	-85.564279	-125.064671
63975	9.747676	0.673287	-0.007352	0.001026	-0.001761	0.000727	85.568005	-85.565569	-125.092444
63976	9.751897	0.658874	-0.026671	0.001996	0.001113	0.000049	85.567757	-85.565397	-125.090961
63977	9.751894	0.658929	-0.026561	-0.004533	0.000972	-0.001165	85.573631	-85.565519	-125.099105
63978	9.751884	0.659075	-0.026610	0.004823	-0.001962	-0.001842	85.598722	-85.564402	-125.121411
63979	9.747646	0.673707	-0.007676	0.000977	-0.004682	-0.003444	85.650258	-85.563456	-125.172659
63980	9.781209	0.681786	-0.006539	-0.000485	-0.001437	0.000339	85.667200	-85.563560	-125.189843
63981	9.771341	0.650163	-0.016173	0.001317	-0.002750	-0.002280	85.704526	-85.563172	-125.226675
63982	9.781196	0.681976	-0.006955	-0.000485	-0.001437	0.000339	85.721469	-85.563275	-125.243859
63983	9.753027	0.647437	0.012699	0.000775	0.000448	-0.003346	85.735265	-85.562147	-125.257572
63984	9.762871	0.679391	0.022275	-0.004049	0.002409	-0.001504	85.722862	-85.561032	-125.247370
63985	9.753018	0.647576	0.013259	0.001018	0.005795	0.003494	85.694254	-85.563637	-125.217203
63986	9.762895	0.679029	0.023017	0.003361	0.001284	0.001941	85.692477	-85.564540	-125.213399
63987	9.767125	0.664505	0.003681	0.002537	-0.002085	0.001116	85.723381	-85.566112	-125.242401
63988	9.751860	0.659414	-0.026766	-0.002343	0.004511	0.001552	85.694766	-85.566653	-125.214958
63989	9.753054	0.647011	0.013832	0.001656	-0.000819	-0.001115	85.717046	-85.566921	-125.235428
63990	9.771356	0.649959	-0.015316	-0.000145	0.000495	0.001504	85.719318	-85.567607	-125.237701
63991	9.767161	0.663967	0.004240	-0.004774	0.004883	0.006013	85.691517	-85.571688	-125.212236
63992	9.757319	0.631954	-0.004886	0.001996	0.001113	0.000050	85.691260	-85.571517	-125.210743
63993	9.782448	0.668679	0.035314	-0.000542	0.003198	-0.001066	85.682384	-85.571600	-125.202186
63994	9.781253	0.681166	-0.004629	-0.004735	0.006102	-0.001067	85.642096	-85.570575	-125.164409
63995	9.753093	0.646383	0.015525	0.003701	0.003215	0.003107	85.633979	-85.573003	-125.154473
63996	9.751924	0.658558	-0.024653	0.000339	0.001932	0.001165	85.626104	-85.573433	-125.146290
63997	9.768381	0.651022	0.046469	-0.001656	0.000819	0.001115	85.632810	-85.574862	-125.154306
63998	9.767203	0.663334	0.006031	-0.000485	-0.001437	0.000339	85.649793	-85.574967	-125.171531
63999	9.747719	0.672681	-0.005284	-0.001656	0.000819	0.001115	85.656983	-85.576418	-125.179302
64000	9.747710	0.672809	-0.005354	0.003458	-0.002132	-0.003734	85.683638	-85.574226	-125.203961
64001	9.748882	0.660589	0.034925	0.001511	-0.000324	0.000389	85.701425	-85.575268	-125.221555
64002	9.781280	0.680787	-0.004111	-0.000630	-0.000942	0.001842	85.713843	-85.576210	-125.234283
64003	9.771418	0.649073	-0.013587	-0.001366	-0.000171	-0.001892	85.730280	-85.575965	-125.251643
64004	9.767191	0.663521	0.005820	-0.002682	0.002580	0.000388	85.716318	-85.575925	-125.239092
64005	9.751919	0.658635	-0.024570	0.000630	0.000942	-0.001842	85.725249	-85.575671	-125.247583
64006	9.767180	0.663677	0.006294	-0.000202	0.005130	0.000098	85.694040	-85.575357	-125.216309
64007	9.753099	0.646274	0.016484	0.000339	0.001932	0.001165	85.694195	-85.576786	-125.216162
64008	9.753120	0.645960	0.016609	0.002586	0.000836	0.005288	85.693403	-85.579621	-125.213793
64009	9.751954	0.658142	-0.023867	-0.000339	-0.001932	-0.001165	85.723062	-85.579893	-125.243363
64010	9.786712	0.653610	0.017973	-0.001802	0.001314	0.002619	85.717717	-85.581182	-125.238949
64011	9.763011	0.677235	0.026188	0.000824	0.003369	0.000826	85.708117	-85.582359	-125.228662
64012	9.767247	0.662675	0.007075	-0.002286	-0.000123	0.002957	85.712931	-85.583903	-125.234715
64013	9.767263	0.662438	0.007080	0.001366	0.000171	0.001892	85.726606	-85.585838	-125.247175
64014	9.767272	0.662308	0.007198	-0.001171	0.002256	0.000776	85.715663	-85.586034	-125.236784
64015	9.753181	0.645020	0.017201	0.000630	0.000942	-0.001842	85.725061	-85.585809	-125.245446
64016	9.767272	0.662306	0.007402	-0.002286	-0.000123	0.002957	85.729885	-85.587354	-125.251509
64017	9.753205	0.644651	0.017527	0.001019	0.005795	0.003495	85.700876	-85.589929	-125.222057
64018	9.743596	0.685597	0.015921	0.001511	-0.000324	0.000389	85.710789	-85.590015	-125.231043
64019	9.747822	0.671201	-0.003328	0.001996	0.001113	0.000050	85.718707	-85.590868	-125.237291
64020	9.772709	0.634925	0.029316	-0.002828	0.003075	0.001891	85.700111	-85.591666	-125.220177
64021	9.767325	0.661517	0.008408	0.001850	0.001607	0.001554	85.704258	-85.593297	-125.223732
64022	9.767332	0.661403	0.008594	-0.001171	0.002256	0.000776	85.693295	-85.593494	-125.213322
64023	9.767329	0.661453	0.008800	0.002626	0.002055	-0.001792	85.695806	-85.593199	-125.214974
64024	9.767338	0.661320	0.008966	-0.000436	0.001484	0.004511	85.688898	-85.595562	-125.208208
64025	9.761962	0.687840	-0.012122	0.001511	-0.000324	0.000389	85.706946	-85.596700	-125.224520
64026	9.753260	0.643776	0.018998	-0.000541	0.003198	-0.001066	85.690375	-85.595803	-125.208123
64027	9.763123	0.675523	0.028567	0.001511	-0.000324	0.000389	85.708726	-85.596933	-125.224745
64028	9.737999	0.638855	-0.011438	-0.001511	0.000324	-0.000389	85.712542	-85.596547	-125.229352
64029	9.728386	0.679936	-0.013260	-0.000145	0.000495	0.001504	85.723142	-85.598284	-125.239218
64030	9.785675	0.663980	-0.019754	0.000000	-0.000000	0.000000	85.730016	-85.598134	-125.246023
64031	9.753277	0.643497	0.019368	-0.001462	0.003246	0.003783	85.718275	-85.601014	-125.235166
64032	9.767377	0.660723	0.009665	0.000145	-0.000495	-0.001504	85.729745	-85.600026	-125.246498
64033	9.752122	0.655748	-0.020882	0.003361	0.001283	0.001943	85.735081	-85.601963	-125.250026
64034	9.786864	0.651241	0.020950	-0.000340	-0.001932	-0.001165	85.756758	-85.601229	-125.271873
64035	9.763143	0.675225	0.028761	0.001802	-0.001314	-0.002618	85.783781	-85.600644	-125.298068
64036	9.747878	0.670382	-0.001951	-0.000485	-0.001437	0.000339	85.800865	-85.600748	-125.315392
64037	9.791081	0.637000	0.001306	-0.002287	-0.000123	0.002957	85.814075	-85.603283	-125.330358
64038	9.719715	0.635384	0.017802	-0.002682	0.002580	0.000387	85.800028	-85.603246	-125.317721
64039	9.761996	0.687360	-0.011657	-0.000485	-0.001437	0.000339	85.825417	-85.604383	-125.343012
64040	9.757519	0.628872	-0.000066	-0.001996	-0.001113	-0.000050	85.839449	-85.604251	-125.358145
64041	9.766220	0.672992	-0.031074	-0.001511	0.000324	-0.000389	85.851685	-85.604893	-125.370915
64042	9.786864	0.651259	0.020567	-0.000340	-0.001932	-0.001165	85.873356	-85.604157	-125.392756
64043	9.744833	0.672171	0.057589	-0.001511	0.000324	-0.000389	85.884376	-85.604804	-125.404872
64044	9.771599	0.646400	-0.010011	0.001996	0.001113	0.000050	85.884096	-85.604636	-125.403355
64045	9.749064	0.657701	0.038520	-0.003312	0.001638	0.002230	85.883453	-85.606729	-125.404270
64046	9.752123	0.655731	-0.021150	0.001802	-0.001314	-0.002618	85.902532	-85.605135	-125.422281
64047	9.785694	0.663702	-0.019786	-0.002141	-0.000618	0.001454	85.920011	-85.606887	-125.440550
64048	9.747898	0.670090	-0.001943	0.001996	0.001113	0.000050	85.919728	-85.606720	-125.439031
64049	9.775816	0.632156	-0.029249	-0.003070	-0.002273	-0.004950	85.952250	-85.604881	-125.472828
64050	9.747872	0.670480	-0.001984	-0.004823	0.001962	0.001841	85.940796	-85.605703	-125.464023
64051	9.763131	0.675390	0.028907	0.001455	0.004311	-0.001016	85.924599	-85.605837	-125.446803
64052	9.738003	0.638810	-0.010762	0.000970	0.002874	-0.000677	85.911014	-85.605183	-125.432533
64053	9.767348	0.661151	0.010132	-0.001511	0.000324	-0.000389	85.923178	-85.605867	-125.444440
64054	9.771578	0.646725	-0.009303	0.002052	-0.003523	0.001455	85.956661	-85.606691	-125.476755
64055	9.767357	0.661028	0.009795	0.000000	-0.000000	0.000000	85.971525	-85.607597	-125.491086
64056	9.753278	0.643469	0.019708	-0.000436	0.001484	0.004511	85.964739	-85.609965	-125.484442
64057	9.785702	0.663604	-0.019014	-0.000541	0.003198	-0.001066	85.956122	-85.610058	-125.477099
64058	9.749052	0.657821	0.039322	-0.003361	-0.001283	-0.001943	85.971644	-85.608849	-125.494510
64059	9.767367	0.660864	0.010087	-0.000485	-0.001437	0.000339	85.997203	-85.609963	-125.520721
64060	9.761973	0.687703	-0.011122	-0.001365	-0.000170	-0.001893	86.005549	-85.608738	-125.529788
64061	9.753261	0.643731	0.019735	0.001171	-0.002256	-0.000776	86.038604	-85.609247	-125.562591
64062	9.781442	0.678467	-0.000035	-0.001511	0.000324	-0.000389	86.042398	-85.608860	-125.567177
64063	9.747871	0.670483	-0.001565	-0.002626	-0.002055	0.001792	86.070460	-85.610849	-125.596684
64064	9.763125	0.675488	0.028917	0.002287	0.000123	-0.002957	86.079236	-85.609003	-125.604084
64065	9.770399	0.659302	-0.050283	-0.001309	-0.004806	-0.000488	86.129234	-85.609801	-125.654762
64066	9.767339	0.661293	0.009061	-0.002481	-0.002550	0.000288	86.153524	-85.609913	-125.680461
64067	9.752082	0.656315	-0.021698	-0.000485	-0.001437	0.000339	86.177680	-85.611002	-125.706478
64068	9.752082	0.656318	-0.021746	-0.001511	0.000324	-0.000389	86.181463	-85.610615	-125.711052
64069	9.800906	0.669347	0.010256	0.000291	-0.000989	-0.003007	86.205540	-85.609843	-125.734225
64070	9.771543	0.647242	-0.010438	-0.001026	0.001761	-0.000727	86.199064	-85.609208	-125.728232
64071	9.786805	0.652151	0.020250	-0.000145	0.000495	0.001504	86.209527	-85.610903	-125.739172
64072	9.761929	0.688302	-0.012066	-0.001026	0.001761	-0.000727	86.203049	-85.610269	-125.733176
64073	9.757445	0.630026	-0.000467	0.002973	-0.003569	-0.003395	86.247814	-85.609342	-125.776283
64074	9.767297	0.661923	0.008810	-0.001511	0.000324	-0.000389	86.251588	-85.608955	-125.780848
64075	9.747814	0.671309	-0.002371	0.000339	0.001932	0.001165	86.251494	-85.610476	-125.779670
64076	9.767297	0.661921	0.009014	-0.001365	-0.000170	-0.001892	86.259767	-85.609248	-125.788664
64077	9.785591	0.665205	-0.020181	0.000436	-0.001484	-0.004511	86.289080	-85.607595	-125.817607
64078	9.748941	0.659556	0.037954	0.000145	-0.000495	-0.001504	86.300429	-85.606601	-125.828817
64079	9.771472	0.648306	-0.010538	-0.001850	-0.001607	-0.001554	86.326736	-85.606633	-125.856871
64080	9.771450	0.648641	-0.010643	-0.002585	-0.000835	-0.005288	86.340844	-85.603487	-125.872418
64081	9.747710	0.672817	-0.002761	0.001802	-0.001313	-0.002619	86.368241	-85.602907	-125.898733
64082	9.761779	0.690417	-0.012584	-0.002391	0.001591	-0.002620	86.363128	-85.601198	-125.894892
64083	9.753077	0.646544	0.018537	-0.000881	0.001267	-0.002231	86.369232	-85.600730	-125.902097
64084	9.761748	0.690855	-0.012372	-0.001365	-0.000170	-0.001892	86.377452	-85.599501	-125.911038
64085	9.786627	0.654818	0.020161	-0.002537	0.002085	-0.001116	86.376023	-85.599656	-125.911171
64086	9.775592	0.635593	-0.029697	0.001172	-0.002256	-0.000776	86.400663	-85.599141	-125.935123
64087	9.785444	0.667375	-0.020183	0.002965	0.003987	-0.000627	86.387852	-85.599540	-125.919952
64088	9.767124	0.664469	0.009113	-0.005017	-0.000465	-0.000828	86.395661	-85.598931	-125.930579
64089	9.747648	0.673725	-0.002046	0.000048	0.002920	0.004173	86.386987	-85.602081	-125.922083
64090	9.747665	0.673470	-0.001906	-0.003652	-0.000294	0.001065	86.393431	-85.602548	-125.930556
64091	9.785474	0.666938	-0.019771	0.003022	-0.000648	0.000777	86.414534	-85.603892	-125.950094
64092	9.767163	0.663884	0.009418	-0.001172	0.002256	0.000776	86.403571	-85.604102	-125.939683
64093	9.776797	0.622676	0.011293	0.001026	-0.001761	0.000727	86.431939	-85.605494	-125.966608
64094	9.771397	0.649445	-0.009886	-0.003022	0.000648	-0.000777	86.432594	-85.604873	-125.968913
64095	9.771390	0.649554	-0.009821	0.002141	0.000618	-0.001453	86.444783	-85.604915	-125.979559
64096	9.751899	0.659048	-0.021141	-0.001996	-0.001113	-0.000050	86.458792	-85.604772	-125.994667
64097	9.747670	0.673399	-0.001773	-0.002682	0.002580	0.000388	86.453152	-85.605798	-125.990108
64098	9.762921	0.678416	0.028981	0.000630	0.000943	-0.001842	86.454197	-85.604558	-125.990705
64099	9.767141	0.664210	0.009768	0.002141	0.000619	-0.001453	86.466850	-85.604577	-126.002150
64100	9.767135	0.664300	0.009812	-0.001511	0.000324	-0.000389	86.470598	-85.604190	-126.006689
64101	9.767122	0.664485	0.009804	-0.001220	-0.000665	-0.003396	86.491312	-85.603150	-126.028429
64102	9.742221	0.700873	-0.022560	-0.001026	0.001761	-0.000727	86.484801	-85.602519	-126.022400
64103	9.767091	0.664940	0.009929	0.002432	-0.000370	-0.004461	86.505754	-85.600873	-126.041694
64104	9.767081	0.665084	0.009927	-0.000146	0.000494	0.001504	86.508153	-85.601562	-126.044096
64105	9.747583	0.674666	-0.001194	-0.003272	0.002858	-0.004850	86.502144	-85.599571	-126.039772
64106	9.767050	0.665541	0.010159	-0.000339	-0.001932	-0.001165	86.523668	-85.598819	-126.061465
64107	9.762811	0.679980	0.029416	0.000485	0.001437	-0.000338	86.528497	-85.599442	-126.066348
64108	9.751796	0.660591	-0.020370	0.001365	0.000170	0.001892	86.533998	-85.600365	-126.070993
64109	9.747568	0.674884	-0.001064	-0.001511	0.000324	-0.000389	86.545661	-85.601020	-126.083441
64110	9.767055	0.665465	0.010232	0.001511	-0.000324	0.000389	86.555600	-85.601100	-126.092453
64111	9.771285	0.651154	-0.009094	0.000146	-0.000494	-0.001504	86.574875	-85.601185	-126.110371
64112	9.765872	0.678068	-0.030118	-0.004048	0.002409	-0.001505	86.562151	-85.600089	-126.099847
64113	9.747552	0.675106	-0.001030	0.000541	-0.003198	0.001065	86.601122	-85.601695	-126.137963
64114	9.781121	0.683075	0.000475	-0.003563	0.003847	-0.001843	86.578134	-85.600356	-126.116866
64115	9.751778	0.660869	-0.020070	0.000000	-0.000000	0.000000	86.592929	-85.601245	-126.131455
64116	9.767023	0.665924	0.010572	-0.000880	0.001267	-0.002231	86.590829	-85.599773	-126.129766
64117	9.737672	0.643846	-0.010044	-0.000880	0.001267	-0.002231	86.597509	-85.599347	-126.136289
64118	9.781091	0.683511	0.000891	-0.000630	-0.000943	0.001842	86.610178	-85.600279	-126.149269
64119	9.752925	0.648776	0.020465	0.001656	-0.000818	-0.001115	86.632562	-85.600547	-126.170697
64120	9.737669	0.643886	-0.010206	-0.001995	-0.001113	-0.000050	86.646549	-85.600402	-126.185784
64121	9.767009	0.666133	0.010334	0.000541	-0.003198	0.001065	86.684986	-85.602001	-126.224085
64122	9.743298	0.689773	0.018119	-0.000630	-0.000943	0.001842	86.697680	-85.602931	-126.237091
64123	9.765857	0.678275	-0.030506	-0.002965	-0.003987	0.000626	86.739842	-85.604312	-126.280914
64124	9.751771	0.660952	-0.020951	-0.000339	-0.001931	-0.001165	86.761346	-85.603553	-126.302588
64125	9.765843	0.678454	-0.030928	-0.003360	-0.001283	-0.001943	86.784197	-85.603374	-126.327306
64126	9.767006	0.666199	0.009336	-0.000339	-0.001931	-0.001165	86.805688	-85.602614	-126.348967
64127	9.766998	0.666313	0.009150	-0.000339	-0.001931	-0.001165	86.835254	-85.602859	-126.379434
64128	9.747492	0.675970	-0.002195	-0.000735	0.000773	-0.003734	86.837447	-85.600543	-126.381967
64129	9.771181	0.652685	-0.010380	0.003265	-0.004556	-0.006403	86.890512	-85.597890	-126.433664
64130	9.781005	0.684737	-0.001238	-0.005501	-0.001902	-0.000489	86.908512	-85.597514	-126.454790
64131	9.737589	0.645072	-0.012107	-0.001172	0.002255	0.000777	86.906053	-85.598742	-126.453443
64132	9.766925	0.667389	0.008656	-0.000339	-0.001931	-0.001165	86.927499	-85.597979	-126.475059
64133	9.780994	0.684891	-0.001274	-0.001365	-0.000170	-0.001892	86.944021	-85.597749	-126.492707
64134	9.747416	0.677065	-0.002870	0.002683	-0.002579	-0.000388	86.971697	-85.597449	-126.518835
64135	9.785223	0.670576	-0.020972	-0.004621	-0.003169	0.001742	87.006389	-85.599424	-126.556113
64136	9.766908	0.667647	0.007754	0.002490	-0.005005	-0.003057	87.053015	-85.597667	-126.601357
64137	9.761479	0.694623	-0.013714	-0.000339	-0.001931	-0.001165	87.082191	-85.597950	-126.630339
64138	9.771113	0.653678	-0.012040	0.001802	-0.001312	-0.002619	87.100774	-85.596332	-126.647854
64139	9.766862	0.668335	0.006943	0.000979	-0.004681	-0.003446	87.152966	-85.595358	-126.699396
64140	9.761429	0.695310	-0.014526	0.001172	-0.002255	-0.000777	87.177481	-85.594820	-126.723222
64141	9.747341	0.678142	-0.004901	-0.001704	-0.002102	-0.003057	87.208320	-85.593994	-126.754926
64142	9.766826	0.668863	0.006173	-0.002479	-0.002551	0.000289	87.232539	-85.594072	-126.780554
64143	9.755783	0.649659	-0.044035	-0.002673	-0.004976	-0.002380	87.283290	-85.593720	-126.832919
64144	9.761368	0.696147	-0.015678	-0.001413	-0.003090	-0.006064	87.314337	-85.590174	-126.864782
64145	9.733188	0.661937	0.003767	-0.008232	-0.002243	-0.004272	87.343252	-85.588669	-126.897518
64146	9.761298	0.697108	-0.016493	0.001329	-0.010304	-0.005050	87.428932	-85.585888	-126.982600
64147	9.770920	0.656487	-0.015407	-0.000386	-0.004850	-0.005338	87.481351	-85.583837	-127.034862
64148	9.769668	0.669569	-0.056333	-0.000095	-0.005838	-0.008345	87.534007	-85.579046	-127.087641
64149	9.747090	0.681700	-0.008420	-0.003262	-0.004697	-0.007617	87.583770	-85.575703	-127.138529
64150	9.784821	0.676210	-0.026736	-0.004482	-0.005361	-0.011012	87.630991	-85.569366	-127.188379
64151	9.784747	0.677255	-0.027367	-0.005449	-0.008235	-0.010335	87.707165	-85.564510	-127.267147
64152	9.766390	0.675224	0.001320	-0.000154	-0.001202	-0.009748	87.725540	-85.558795	-127.285577
64153	9.760879	0.702860	-0.019999	-0.002778	-0.003259	-0.007955	87.764611	-85.555195	-127.326153
64154	9.765077	0.688954	-0.039534	-0.000338	-0.001931	-0.001165	87.785693	-85.554409	-127.347404
64155	9.760821	0.703658	-0.020324	-0.005607	-0.000187	-0.006062	87.800065	-85.551826	-127.364555
64156	9.755193	0.658087	-0.049203	-0.000047	-0.002918	-0.004172	87.829394	-85.549339	-127.393911
64157	9.760759	0.704509	-0.020647	0.000291	-0.000987	-0.003007	87.852636	-85.548496	-127.416747
64158	9.750904	0.673265	-0.030207	-0.002440	-0.001328	-0.006790	87.869567	-85.544474	-127.435043
64159	9.778969	0.708541	-0.049988	0.003942	-0.000690	-0.004074	87.892607	-85.543000	-127.455965
64160	9.770353	0.664778	-0.018892	-0.004932	0.003674	-0.003731	87.870507	-85.540623	-127.436543
64161	9.780153	0.696735	-0.009238	0.003651	0.000297	-0.001067	87.885136	-85.540870	-127.448884
64162	9.784379	0.682523	-0.028234	0.000422	0.006073	-0.001741	87.847965	-85.539581	-127.411269
64163	9.746587	0.688828	-0.009780	-0.000498	0.006117	0.003108	87.817235	-85.542090	-127.380118
64164	9.750842	0.674233	-0.028721	0.003360	0.001285	0.001941	87.815880	-85.543011	-127.376740
64165	9.760675	0.705711	-0.019119	0.001703	0.002102	0.003056	87.815530	-85.545560	-127.375397
64166	9.764924	0.691190	-0.038131	-0.000690	0.003692	0.000439	87.794581	-85.545568	-127.354693
64167	9.750879	0.673718	-0.027992	0.003843	0.002722	0.001603	87.791572	-85.547263	-127.349261
64168	9.760712	0.705213	-0.018322	0.001703	0.002102	0.003057	87.782933	-85.548805	-127.339529
64169	9.764979	0.690465	-0.037164	0.002862	0.007402	0.005048	87.743777	-85.552401	-127.297917
64170	9.746714	0.687067	-0.007522	0.002187	0.003539	0.002718	87.724902	-85.553716	-127.277639
64171	9.780312	0.694550	-0.005627	0.003744	0.006135	0.007278	87.694847	-85.558623	-127.244437
64172	9.746797	0.685892	-0.006525	0.000238	0.005344	0.006841	87.660264	-85.562254	-127.209524
64173	9.770590	0.661409	-0.013871	0.002571	0.008389	0.008056	87.610852	-85.567527	-127.159393
64174	9.765199	0.687501	-0.034325	0.003890	0.005641	0.005776	87.576361	-85.570537	-127.122475
64175	9.785934	0.665155	0.018029	0.004858	0.008516	0.005099	87.529610	-85.574074	-127.073314
64176	9.751206	0.669164	-0.022970	0.000325	0.009486	0.003934	87.465112	-85.575930	-127.008347
64177	9.780565	0.690998	-0.001205	0.005680	0.011885	0.005927	87.393036	-85.579825	-126.933949
64178	9.751268	0.668326	-0.020948	0.004124	0.009289	0.001366	87.332923	-85.580205	-126.871198
64179	9.765354	0.685498	-0.029855	0.002467	0.010107	0.002481	87.272937	-85.582140	-126.811673
64180	9.756888	0.713884	0.009838	-0.000362	0.013180	0.004373	87.180291	-85.584121	-126.718872
64181	9.784916	0.675180	-0.016195	0.005535	0.012379	0.007432	87.103023	-85.588885	-126.638010
64182	9.761233	0.698169	-0.007046	0.001883	0.012084	0.008496	87.017983	-85.593236	-126.551547
64183	9.761296	0.697299	-0.005718	0.002706	0.015453	0.009324	86.916209	-85.598933	-126.448437
64184	9.762532	0.683665	0.035940	0.003351	0.010539	0.015965	86.840053	-85.607585	-126.370042
64185	9.747389	0.677427	0.006442	0.003249	0.012255	0.010390	86.760930	-85.614023	-126.288108
64186	9.765806	0.679332	-0.021914	0.005503	0.003602	0.011745	86.739067	-85.620472	-126.262930
64187	9.747552	0.675069	0.008023	0.001301	0.014063	0.014512	86.643130	-85.629144	-126.166527
64188	9.761741	0.691076	-0.000664	0.003645	0.009552	0.012960	86.574813	-85.636082	-126.095829
64189	9.766086	0.675386	-0.018984	0.001988	0.010371	0.014074	86.506427	-85.644627	-126.026316
64190	9.771540	0.647360	0.002970	0.001311	0.006507	0.011743	86.459764	-85.650965	-125.978676
64191	9.767371	0.660492	0.022874	0.002675	0.006678	0.013637	86.419323	-85.659398	-125.936407
64192	9.762080	0.686258	0.002309	0.000240	0.005348	0.006843	86.382839	-85.662970	-125.899592
64193	9.748038	0.667938	0.012771	0.003161	0.008115	0.013300	86.332324	-85.671127	-125.847336
64194	9.771819	0.643130	0.005500	0.003747	0.006136	0.007285	86.291504	-85.674918	-125.804158
64195	9.762269	0.683559	0.004199	0.003747	0.006136	0.007285	86.258099	-85.679688	-125.769279
64196	9.771920	0.641576	0.006769	0.003940	0.008563	0.009955	86.197512	-85.684910	-125.706166
64197	9.757856	0.623381	0.017509	0.005059	0.010943	0.007776	86.128230	-85.689816	-125.633405
64198	9.748319	0.663730	0.016727	0.001892	0.012087	0.008499	86.040168	-85.694056	-125.543918
64199	9.734233	0.645812	0.027546	0.007009	0.009133	0.003655	85.987748	-85.696675	-125.486599
64200	9.786218	0.656239	0.000836	0.003356	0.008841	0.004716	85.926975	-85.698869	-125.423638
64201	9.767865	0.652813	0.030939	0.002672	0.012535	0.005154	85.845666	-85.702169	-125.340481
64202	9.766832	0.664728	-0.008388	0.003843	0.010278	0.004379	85.774276	-85.704099	-125.266593
64203	9.748461	0.661505	0.021816	0.001942	0.013307	0.001418	85.688794	-85.705235	-125.178967
64204	9.748468	0.661348	0.023080	0.003453	0.012982	0.001809	85.597984	-85.705562	-125.085829
64205	9.782063	0.668971	0.025573	0.003017	0.006909	0.003551	85.559066	-85.708164	-125.045523
64206	9.738629	0.629111	0.015003	0.005357	0.002394	0.002001	85.549755	-85.709061	-125.033020
64207	9.777831	0.682855	0.045415	0.008377	0.001745	0.002783	85.555357	-85.711425	-125.033968
64208	9.757053	0.631672	-0.013954	0.006187	-0.001795	0.000060	85.579580	-85.711398	-125.054616
64209	9.782115	0.668196	0.026007	0.006381	0.000633	0.002730	85.591351	-85.713761	-125.063879
64210	9.762693	0.677325	0.015034	0.005014	0.008022	0.003604	85.537984	-85.715324	-125.007394
64211	9.752840	0.645292	0.005907	0.005894	-0.000804	0.003068	85.559066	-85.717923	-125.027100
64212	9.744334	0.673761	0.044277	0.007404	-0.001129	0.003460	85.576928	-85.719809	-125.040669
64213	9.762766	0.676272	0.015230	0.003067	0.002274	0.004956	85.572780	-85.723400	-125.035142
64214	9.748652	0.658576	0.024633	0.008283	-0.009955	0.002925	85.658940	-85.725367	-125.116696
64215	9.777998	0.680529	0.044466	0.005116	-0.008809	0.003646	85.742235	-85.728674	-125.197721
64216	9.752960	0.643499	0.003626	0.009111	-0.006586	0.003753	85.802789	-85.730955	-125.253120
64217	9.796454	0.682656	0.014184	0.007258	-0.000633	0.004963	85.824035	-85.734643	-125.271293
64218	9.790858	0.636059	-0.014445	0.003068	0.002275	0.004955	85.812651	-85.737237	-125.258027
64219	9.767204	0.659268	-0.006303	0.002775	0.003267	0.007963	85.799015	-85.742482	-125.243686
64220	9.786697	0.649029	0.005541	0.002092	0.006962	0.008398	85.749071	-85.746845	-125.192314
64221	9.753155	0.640526	0.004709	0.001363	0.007731	0.004662	85.702856	-85.750019	-125.145833
64222	9.753191	0.639965	0.005342	0.000242	0.005354	0.006842	85.664941	-85.753556	-125.107588
64223	9.763125	0.671058	0.015446	-0.000294	0.008553	0.005774	85.610010	-85.757346	-125.052738
64224	9.749010	0.653211	0.025968	0.002386	0.005970	0.005392	85.569303	-85.760023	-125.010461
64225	9.749037	0.652778	0.026530	0.001022	0.005799	0.003497	85.537588	-85.762619	-124.978251
64226	9.767471	0.655332	-0.001975	0.001023	0.005799	0.003497	85.498470	-85.764218	-124.938350
64227	9.782662	0.660008	0.029107	0.000682	0.003866	0.002331	85.482141	-85.766233	-124.921738
64228	9.768515	0.642554	0.039429	-0.003361	0.006279	0.000818	85.438400	-85.766277	-124.879721
64229	9.767507	0.654796	-0.000593	0.000341	0.001933	0.001166	85.437658	-85.767727	-124.878527
64230	9.743824	0.678552	0.007534	0.000828	0.003370	0.000828	85.418748	-85.767907	-124.859001
64231	9.767517	0.654642	-0.000245	-0.000488	-0.001437	0.000338	85.443979	-85.769064	-124.883545
64232	9.749098	0.651763	0.028932	0.002973	0.003985	-0.000623	85.422439	-85.768388	-124.860150
64233	9.753355	0.637406	0.009893	-0.001510	0.000325	-0.000392	85.434318	-85.769025	-124.872439
64234	9.753341	0.637629	0.009771	-0.000047	-0.002925	-0.004173	85.466566	-85.766636	-124.904714
64235	9.763214	0.669662	0.019238	0.001610	0.003814	-0.002518	85.454034	-85.765869	-124.891641
64236	9.749035	0.652707	0.028957	0.002632	-0.005509	-0.004555	85.507935	-85.763377	-124.944090
64237	9.767415	0.656162	-0.000893	-0.000047	-0.010486	-0.006940	85.607592	-85.760713	-125.044705
64238	9.758500	0.612778	0.029023	-0.000534	-0.011923	-0.006601	85.710118	-85.757318	-125.147731
64239	9.767320	0.657563	-0.003354	0.000295	-0.016114	-0.008540	85.853145	-85.753974	-125.290935
64240	9.771513	0.644098	-0.024063	0.001417	-0.013736	-0.010720	85.972604	-85.748266	-125.409821
64241	9.805030	0.652916	-0.023779	0.006776	-0.011341	-0.008719	86.083818	-85.744623	-125.515732
64242	9.782319	0.665272	0.024104	-0.005991	0.002514	-0.008648	86.072707	-85.739438	-125.507945
64243	9.748695	0.658000	0.022800	0.001267	0.001881	-0.003684	86.075199	-85.738078	-125.510402
64244	9.762813	0.675635	0.013168	-0.003897	0.001915	-0.003016	86.066928	-85.736136	-125.504259
64245	9.753952	0.631959	0.043914	-0.001361	-0.007732	-0.004661	86.142772	-85.734655	-125.579639
64246	9.767023	0.661932	-0.007177	0.001026	-0.009322	-0.002036	86.222900	-85.733702	-125.659312
64247	9.791758	0.626033	0.024425	0.001173	-0.009818	-0.003540	86.315758	-85.732875	-125.751626
64248	9.762726	0.676940	0.009890	0.002880	-0.015274	-0.003245	86.443059	-85.731426	-125.877538
64249	9.766961	0.662799	-0.010667	-0.002967	-0.011546	-0.002141	86.545567	-85.731446	-125.981588
64250	9.766929	0.663259	-0.011664	0.000442	-0.009048	-0.007276	86.625477	-85.727445	-126.061379
64251	9.772214	0.637061	0.008865	-0.000534	-0.004362	-0.003833	86.674671	-85.726205	-126.111983
64252	9.748474	0.661470	0.016356	-0.004773	-0.004380	-0.008013	86.715999	-85.721618	-126.156081
64253	9.800391	0.672844	-0.011577	0.001463	-0.003249	-0.003781	86.757720	-85.720407	-126.196567
64254	9.752663	0.647976	-0.003360	-0.005896	0.000802	-0.003066	86.756547	-85.718477	-126.198689
64255	9.780905	0.682737	-0.022991	0.001511	-0.000325	0.000391	86.773178	-85.719539	-126.214929
64256	9.780925	0.682455	-0.022571	-0.001807	0.008876	0.005382	86.708953	-85.722179	-126.151474
64257	9.738586	0.629904	0.007463	-0.004239	0.001692	0.007075	86.703890	-85.726964	-126.150159
64258	9.762651	0.678052	0.007346	0.002483	0.004259	0.010968	86.674853	-85.732948	-126.119526
64259	9.766971	0.662642	-0.011539	-0.006042	0.003009	0.009691	86.658716	-85.739208	-126.106957
64260	9.752898	0.644439	-0.001576	-0.000194	-0.000719	0.008586	86.667328	-85.743995	-126.115617
64261	9.786530	0.651567	0.000074	-0.003752	0.003129	0.006737	86.653038	-85.748598	-126.102419
64262	9.767123	0.660413	-0.010718	-0.003802	0.007765	0.005331	86.595739	-85.751238	-126.047059
64263	9.733576	0.652005	-0.011683	-0.000098	0.003420	0.005676	86.581431	-85.755206	-126.032196
64264	9.768239	0.647216	0.030504	-0.003167	0.001146	0.000722	86.577525	-85.755433	-126.030011
64265	9.771446	0.644919	-0.028873	0.004043	0.005148	0.004278	86.553373	-85.758517	-126.003157
64266	9.762977	0.673312	0.009760	0.000244	-0.002207	0.004075	86.575728	-85.760776	-126.025346
64267	9.748851	0.655808	0.019275	0.002193	-0.004020	-0.000045	86.621636	-85.761725	-126.069597
64268	9.782431	0.663732	0.020550	0.001657	-0.000821	-0.001113	86.636507	-85.760969	-126.083469
64269	9.796573	0.681017	0.010749	0.001851	0.001608	0.001556	86.638604	-85.762610	-126.085170
64270	9.748850	0.655820	0.019283	-0.000536	0.003199	-0.001068	86.621173	-85.761744	-126.067912
64271	9.762997	0.673030	0.009710	0.001705	0.002104	0.003060	86.618488	-85.764228	-126.064857
64272	9.785653	0.661266	-0.038130	-0.001512	0.007885	0.002375	86.562715	-85.765171	-126.009712
64273	9.763046	0.672298	0.010935	-0.004435	0.006825	0.007173	86.518990	-85.769823	-125.968895
64274	9.744707	0.668581	0.040580	0.004627	0.004874	0.009519	86.486536	-85.774951	-125.933606
64275	9.767397	0.656393	-0.007244	-0.002631	0.005508	0.004556	86.454643	-85.778171	-125.903339
64276	9.753291	0.638461	0.003142	0.000097	0.005850	0.008346	86.412444	-85.782590	-125.860883
64277	9.767493	0.654967	-0.006089	-0.001414	0.006175	0.007955	86.374847	-85.787693	-125.825005
64278	9.781715	0.671251	-0.015244	-0.000342	0.007338	0.012858	86.318396	-85.794632	-125.768510
64279	9.781799	0.670048	-0.014414	-0.002875	0.009426	0.011737	86.252797	-85.801811	-125.703873
64280	9.769777	0.626705	0.077145	-0.000634	0.008330	0.015866	86.186479	-85.810424	-125.637653
64281	9.786249	0.652722	-0.031624	-0.005503	0.014936	0.016295	86.071799	-85.819992	-125.525441
64282	9.763690	0.662719	0.017956	-0.003166	0.010419	0.014747	85.987614	-85.827866	-125.442763
64283	9.753876	0.629401	0.009516	-0.002436	0.009649	0.018485	85.913758	-85.838860	-125.370157
64284	9.773405	0.618202	0.021819	-0.002289	0.009153	0.016981	85.838081	-85.848047	-125.295508
64285	9.772513	0.628967	-0.017678	-0.000144	0.009768	0.015532	85.766393	-85.857333	-125.223714
64286	9.764114	0.656336	0.021702	-0.001996	0.008162	0.013974	85.699851	-85.864830	-125.158057
64287	9.749047	0.649918	-0.007887	-0.007984	0.012393	0.016582	85.602652	-85.874566	-125.065579
64288	9.750121	0.636048	0.033603	0.001513	0.008945	0.014421	85.531059	-85.882271	-124.992842
64289	9.750197	0.634848	0.034275	-0.000535	0.004910	0.010192	85.499999	-85.888654	-124.963127
64290	9.768711	0.636542	0.006028	-0.006180	0.011076	0.013966	85.406880	-85.895992	-124.873231
64291	9.736150	0.615159	0.045719	-0.002191	0.005734	0.011305	85.366939	-85.903011	-124.834178
64292	9.784019	0.639095	0.038060	-0.000681	0.005407	0.011697	85.323180	-85.909305	-124.790610
64293	9.750483	0.630282	0.037070	-0.001554	0.006674	0.009464	85.278399	-85.915239	-124.745566
64294	9.750537	0.629417	0.037590	-0.003896	0.003632	0.008242	85.249037	-85.919639	-124.718280
64295	9.788429	0.622051	0.020178	0.002434	0.001331	0.006802	85.249884	-85.924282	-124.717722
64296	9.783296	0.647974	-0.000613	-0.005208	0.006389	0.010521	85.196030	-85.929850	-124.666636
64297	9.750704	0.626757	0.038767	-0.002679	0.004298	0.011644	85.166464	-85.937131	-124.638055
64298	9.783451	0.645636	0.000404	0.002193	0.005249	0.013988	85.123376	-85.944729	-124.593512
64299	9.769313	0.627169	0.010976	-0.007393	0.010414	0.010567	85.043009	-85.950960	-124.520457
64300	9.751862	0.610652	0.081128	-0.000442	0.003200	0.015776	85.013316	-85.959674	-124.490857
64301	9.736789	0.604553	0.050747	-0.002876	0.001870	0.008973	85.004479	-85.965520	-124.483604
64302	9.755306	0.606520	0.021639	-0.001181	-0.003590	0.009265	85.033832	-85.970855	-124.513622
64303	9.731733	0.629684	0.029156	0.001110	-0.003475	0.006311	85.072653	-85.975411	-124.553211
64304	9.766309	0.624464	0.070558	-0.002214	-0.009388	0.005763	85.151097	-85.979027	-124.633032
64305	9.750267	0.631403	-0.001648	0.006644	-0.013785	0.005445	85.277928	-85.983629	-124.755707
64306	9.751226	0.618654	0.037402	-0.001247	-0.014077	0.002317	85.397705	-85.985473	-124.876408
64307	9.737009	0.601411	0.045575	-0.000135	-0.019262	-0.002634	85.571167	-85.985669	-125.049494
64308	9.736985	0.601966	0.043352	0.000633	-0.026380	-0.008752	85.799063	-85.981668	-125.277501
64309	9.755369	0.605792	0.010929	0.006500	-0.042317	-0.011221	86.168602	-85.977744	-125.644206
64310	9.769505	0.624259	-0.003188	0.007813	-0.045071	-0.013498	86.553740	-85.971521	-126.025722
64311	9.863076	0.699749	-0.104438	0.019631	-0.031577	-0.001816	86.836749	-85.972333	-126.297500
64312	9.789494	0.687810	0.010914	-0.008694	0.013172	0.012850	86.726238	-85.979112	-126.191621
64313	9.803231	0.630194	-0.005734	0.018479	0.001424	0.028385	86.726734	-85.996085	-126.181236
64314	9.897128	0.701472	-0.101711	0.004214	0.029544	0.040695	86.474771	-86.018211	-125.926152
64315	9.661151	0.535506	0.064549	-0.008662	0.043927	0.042277	86.100503	-86.041498	-125.556880
64316	9.765196	0.637723	-0.020962	0.033010	0.007684	0.041106	86.039979	-86.064551	-125.477166
64317	9.809158	0.672706	-0.008555	0.007869	0.023990	0.048139	85.831028	-86.091845	-125.264026
64318	9.913708	0.687664	-0.062172	0.021178	0.005702	0.073084	85.757764	-86.133229	-125.178344
64319	9.985695	0.764923	-0.108819	0.005051	0.044961	0.103554	85.324649	-86.191194	-124.740423
64320	10.028708	0.731078	-0.139216	0.000029	0.085089	0.147723	84.481367	-86.271039	-123.895209
64321	10.091389	0.683224	-0.152985	-0.015021	0.145842	0.188801	83.013488	-86.370256	-122.433780
64322	10.065446	0.700384	-0.108600	-0.022529	0.196218	0.236240	80.921919	-86.488491	-120.350992
64323	9.981603	0.423520	-0.103072	-0.041870	0.233722	0.290408	78.223107	-86.628808	-117.671199
64324	10.016087	0.549076	-0.003059	0.041620	0.237022	0.300963	75.280600	-86.765528	-114.699827
64325	10.341282	1.388464	0.384424	0.052200	0.141440	0.485921	72.473586	-87.011512	-111.859805
64326	10.625431	0.247381	-0.517104	-0.087770	0.246941	0.617729	67.313277	-87.295528	-106.743409
64327	10.627408	1.056597	0.122164	-0.013029	0.341573	0.692559	59.459854	-87.564274	-98.892667
64328	10.680061	0.789458	0.283263	-0.149431	0.416329	0.821721	47.711970	-87.802955	-87.220867
64329	10.806265	0.630563	0.280472	-0.126456	0.419042	0.896544	32.842313	-87.954322	-72.418915
64330	11.674485	0.780276	0.409264	-0.017534	0.465990	0.963645	15.683054	-87.938003	-55.258756
64331	11.612116	0.689466	0.155342	-0.161088	0.605988	1.115677	-2.095604	-87.666922	-37.564047
64332	11.125702	-0.347764	0.193634	-0.208714	0.615923	1.228893	-16.486300	-87.201902	-23.278796
64333	10.555058	-0.723196	-0.111476	-0.092428	0.505975	1.298154	-27.407905	-86.653410	-12.394970
64334	12.484351	0.418132	0.281820	0.234685	0.341126	1.421212	-36.505116	-86.055173	-3.144692
64335	12.468749	0.881788	0.169842	0.003220	0.563191	1.672952	-43.414405	-85.191160	3.786384
64336	11.803643	-0.377729	0.129180	-0.147294	0.747681	1.827784	-48.047079	-84.141884	8.354313
64337	11.892123	0.066200	0.452436	0.135025	0.590968	1.992112	-52.187104	-83.048528	12.597918
64338	11.488271	-0.191329	0.381991	-0.052511	0.724474	2.155606	-55.204391	-81.807454	15.611293
64339	11.426369	-1.020031	0.312032	0.076081	0.668666	2.290542	-57.772548	-80.501647	18.254203
64340	12.067084	-0.635160	0.435312	0.187040	0.673977	2.370893	-59.751991	-79.140090	20.374115
64341	13.714422	-1.224177	0.896589	0.094305	0.941981	2.333161	-60.660563	-77.712027	21.356486
64342	11.868403	-1.506174	0.720574	-0.142814	1.051517	2.452671	-61.406108	-76.191143	22.037818
64343	10.191816	-2.298922	0.174050	-0.021534	0.880232	2.646678	-62.454641	-74.615994	23.108277
64344	10.785129	-1.951390	0.438035	0.333327	0.580576	2.767799	-63.717989	-73.051607	24.622438
64345	11.221061	-1.311949	0.945814	0.269837	0.634639	2.857507	-64.766232	-71.419225	25.885132
64346	10.512790	-2.222097	0.839959	0.129999	0.734151	2.900602	-65.588765	-69.734573	26.836273
64347	9.779208	-2.554686	0.691780	0.222215	0.661012	2.915891	-66.332182	-68.054793	27.769209
64348	9.342771	-2.797212	0.590942	0.218682	0.627528	2.924803	-67.001947	-66.373963	28.631576
64349	8.783089	-3.107414	0.428406	0.231146	0.571985	2.936683	-67.634124	-64.695436	29.471141
64350	7.477569	-3.160834	0.490090	0.316020	0.475513	2.909736	-68.216464	-63.048413	30.321456
64351	5.396772	-1.560971	-0.584102	0.594053	0.299095	2.637344	-68.634234	-61.580498	31.177083
64352	5.237305	4.632088	-1.107441	1.516328	-0.389678	1.906059	-68.860711	-60.643913	32.428084
64353	10.140475	3.308275	-0.822779	0.974899	-0.239125	1.125243	-68.937590	-60.092287	33.158603
64354	10.574346	2.531962	-1.405692	0.949051	-0.096810	-0.185706	-68.417076	-60.211923	33.185511
64355	8.658979	6.304960	-1.051572	1.237183	-0.649601	-1.000486	-67.945537	-60.883413	33.457499
64356	8.705965	4.556879	-0.818068	0.638735	-0.253450	-1.648125	-67.166032	-61.811993	32.986380
64357	7.331044	2.777602	-0.776545	0.697867	-0.311731	-1.926296	-66.248866	-62.897878	32.401954
64358	6.416285	2.826635	-0.872643	0.747334	-0.435941	-2.033775	-65.320021	-64.063441	31.842572
64359	5.725760	2.589604	-0.959222	0.587238	-0.497201	-2.076658	-64.464877	-65.263610	31.268315
64360	5.896555	2.470007	-0.987164	0.597458	-0.753788	-2.092650	-63.823235	-66.531315	30.940531
64361	6.664182	2.789476	-0.871975	0.543208	-0.951286	-2.124506	-63.389249	-67.866129	30.807030
64362	7.237628	2.549846	-0.659783	0.391391	-1.038837	-2.177338	-63.088803	-69.248423	30.725278
64363	7.855118	1.997462	-0.418435	0.338978	-1.114709	-2.247559	-62.853293	-70.688215	30.681027
64364	8.248690	1.406032	-0.192411	0.276759	-1.144319	-2.296796	-62.636842	-72.158723	30.620070
64365	8.517588	1.034305	-0.046087	0.265010	-1.178401	-2.295948	-62.465412	-73.640017	30.599316
64366	8.945710	0.836631	0.109746	0.248176	-1.203291	-2.252240	-62.373130	-75.103408	30.651237
64367	9.311987	0.542067	0.154770	0.201471	-1.211082	-2.179596	-62.405130	-76.534455	30.803076
64368	9.725970	0.190480	0.227411	0.166260	-1.238332	-2.094135	-62.646528	-77.926715	31.148339
64369	10.321108	0.178197	0.313070	0.145018	-1.259449	-2.016751	-63.144402	-79.287089	31.740753
64370	10.858641	0.391930	0.337442	0.058731	-1.240163	-1.981219	-63.842399	-80.620456	32.483831
64371	11.261714	0.567842	0.290219	-0.073390	-1.193335	-1.962688	-64.727225	-81.933369	33.336251
64372	11.559897	0.623483	0.296563	-0.225658	-1.160187	-1.975750	-65.864724	-83.240025	34.352970
64373	11.820689	0.541737	0.273984	-0.377166	-1.130423	-1.995958	-67.412516	-84.549887	35.692028
64374	12.024984	0.401695	0.276177	-0.520894	-1.111703	-2.027321	-69.725684	-85.864428	37.713753
64375	12.186274	0.085449	0.383166	-0.634407	-1.096749	-2.053667	-73.895907	-87.182228	41.527131
64376	12.246220	-0.194193	0.400663	-0.714309	-1.088911	-2.073266	-84.661792	-88.470980	51.890578
64377	12.251267	-0.461978	0.528314	-0.758604	-1.085271	-2.092436	-146.811846	-89.415880	113.612755
64378	12.249300	-0.670916	0.690190	-0.757640	-1.096094	-2.109177	141.254097	-88.570113	-174.880305
64379	12.500369	-0.910735	0.845835	-0.729497	-1.109950	-2.111102	129.455537	-87.257855	-163.493025
64380	12.714178	-1.034186	1.017564	-0.682295	-1.077814	-2.131725	124.939033	-85.910284	-159.360329
64381	12.863980	-1.114493	1.143920	-0.642424	-0.997003	-2.161245	122.088220	-84.558947	-156.869194
64382	12.860259	-1.316356	1.161563	-0.590917	-0.883628	-2.195108	119.771172	-83.219255	-154.879478
64383	12.625105	-1.480708	1.076779	-0.544074	-0.771687	-2.207444	117.771483	-81.894709	-153.177286
64384	12.294878	-1.596550	1.030507	-0.503704	-0.683281	-2.199654	116.048479	-80.593192	-151.725989
64385	12.079491	-1.676945	0.880307	-0.459044	-0.612292	-2.155506	114.597709	-79.324028	-150.519780
64386	12.184753	-1.781652	0.726712	-0.458146	-0.534706	-2.100339	113.293040	-78.099434	-149.457035
64387	12.134780	-1.992291	0.622704	-0.494954	-0.434322	-2.038324	112.019311	-76.923361	-148.442860
64388	11.897822	-2.280175	0.497453	-0.537421	-0.323555	-1.969485	110.729428	-75.804588	-147.432386
64389	11.461950	-2.613252	0.407673	-0.583390	-0.219323	-1.887981	109.434882	-74.743339	-146.439387
64390	10.792216	-3.052688	0.344063	-0.625189	-0.157371	-1.771555	108.219487	-73.753163	-145.548707
64391	10.105994	-3.493189	0.366655	-0.618685	-0.162241	-1.621673	107.221400	-72.838059	-144.876573
64392	9.651030	-3.731192	0.552703	-0.554203	-0.226857	-1.472046	106.525339	-71.992900	-144.479419
64393	9.505239	-3.853600	0.907221	-0.494905	-0.297112	-1.337401	106.089670	-71.208310	-144.318879
64394	9.692745	-4.140069	1.307075	-0.469520	-0.318438	-1.219163	105.775069	-70.486222	-144.270536
64395	9.801931	-4.468607	1.638437	-0.467615	-0.273532	-1.118300	105.450839	-69.826014	-144.210407
64396	9.637662	-4.966876	1.808479	-0.501096	-0.160416	-0.998021	105.000229	-69.249819	-144.035806
64397	9.205899	-5.865927	1.848178	-0.531974	-0.015636	-0.829443	104.406520	-68.787410	-143.726095
64398	8.532417	-6.931360	1.784032	-0.472456	0.105982	-0.610483	103.769056	-68.462633	-143.332147
64399	7.915819	-7.677776	1.761382	-0.278560	0.131373	-0.340705	103.312424	-68.290565	-143.012332
64400	12.674223	-7.811788	0.771510	-0.000713	-0.122234	0.317658	103.591815	-68.450994	-143.313232
64401	5.030852	-0.703027	1.014641	1.776120	-0.473706	1.695213	105.933183	-69.321815	-144.731818
64402	9.799854	6.910220	-1.618787	1.114407	0.117737	1.191163	106.919015	-69.995208	-145.102134
64403	9.641527	8.325850	-3.271033	0.479803	0.430969	1.794954	107.387620	-71.051374	-145.307276
64404	11.077664	7.640055	-2.898377	0.091005	0.427115	1.467531	107.496606	-71.926577	-145.367128
64405	10.293665	0.994588	-2.214905	-0.622482	0.743787	1.217367	106.504724	-72.718593	-144.700169
64406	8.745790	1.231277	-0.685875	-0.017153	0.155345	1.247488	106.891125	-73.428475	-145.114242
64407	9.670190	3.343485	-1.415307	0.298787	0.002488	1.333343	107.846455	-74.158487	-145.930537
64408	10.784216	2.472444	-1.245753	-0.252853	0.382579	1.356715	107.809387	-74.965287	-146.042288
64409	10.074436	1.795769	-0.667382	-0.140686	0.416706	1.276556	107.717295	-75.735095	-146.030164
64410	11.365375	1.968814	-0.361218	-0.061021	0.325503	1.308430	107.893291	-76.505568	-146.247374
64411	11.430454	1.882795	-0.714989	0.018202	0.526109	1.196695	107.573119	-77.250926	-145.907682
64412	10.588740	1.439321	-0.917825	-0.104879	0.622337	1.071314	106.790595	-77.942379	-145.167911
64413	10.099965	2.060002	-0.847514	-0.025503	0.472575	1.015302	106.330790	-78.577677	-144.712999
64414	10.234491	1.802672	-0.839423	-0.170047	0.465393	0.975782	105.716802	-79.188339	-144.186483
64415	10.479445	1.488447	-0.475538	-0.178048	0.481452	0.904535	104.926367	-79.761620	-143.486096
64416	10.598566	1.250769	-0.162377	-0.150736	0.527474	0.877048	103.887502	-80.323246	-142.518955
64417	10.081555	1.273661	-0.007633	-0.095277	0.583394	0.855194	102.551166	-80.877332	-141.219604
64418	9.672333	1.256790	-0.046716	-0.063145	0.467761	0.852559	101.488535	-81.410659	-140.180693
64419	10.112567	1.129398	-0.020292	-0.031110	0.394549	0.831983	100.586711	-81.922491	-139.287113
64420	9.879482	1.133961	-0.011168	-0.016152	0.405991	0.819105	99.510318	-82.424952	-138.209865
64421	9.985970	1.083025	0.086615	0.001821	0.320174	0.851351	98.710953	-82.936359	-137.402748
64422	11.319091	0.703752	-0.030601	0.107382	0.273288	0.791703	98.034434	-83.407699	-136.659351
64423	11.769251	0.696624	-0.631753	0.172800	0.335234	0.551886	96.813694	-83.746862	-135.331148
64424	10.474798	0.818402	0.041712	-0.116316	0.517885	0.306135	94.166807	-83.949678	-132.735882
64425	9.537882	0.465703	0.269708	-0.060876	0.383524	0.222771	92.113492	-84.090046	-130.706291
64426	9.646628	0.790580	0.211439	0.170659	0.105868	0.192698	91.660439	-84.202200	-130.152483
64427	9.857144	0.879538	0.095264	0.078789	0.084572	0.144143	91.255220	-84.286902	-129.699729
64428	9.712691	0.822795	0.006021	0.049021	0.049785	0.118731	91.015267	-84.355297	-129.430281
64429	9.754789	0.925439	0.024737	0.083946	0.012298	0.110380	91.012550	-84.419572	-129.379113
64430	9.717761	0.859212	-0.003567	0.052941	0.016250	0.111411	90.963709	-84.483374	-129.299480
64431	9.723235	0.833732	-0.022383	0.061156	-0.003081	0.110640	91.038316	-84.547642	-129.339121
64432	9.769919	0.860845	-0.073294	0.068591	-0.012948	0.101747	91.173032	-84.605600	-129.434879
64433	9.710081	0.869283	-0.008798	0.048479	-0.003354	0.098150	91.243776	-84.662696	-129.477929
64434	9.810856	0.823841	-0.053286	0.069020	-0.021525	0.096125	91.435382	-84.717282	-129.630559
64435	9.860623	0.848365	-0.164649	0.078354	-0.008038	0.093807	91.555687	-84.771799	-129.706182
64436	9.917593	0.835457	-0.210794	0.060934	0.034104	0.089008	91.396149	-84.823096	-129.510840
64437	9.723171	0.884731	-0.137918	0.035074	0.105372	0.083526	90.767072	-84.872999	-128.858929
64438	9.835185	0.829861	0.060686	0.028828	0.105984	0.090535	90.113600	-84.925160	-128.186189
64439	9.688971	0.789112	-0.065737	0.035260	0.097998	0.097714	89.506134	-84.981891	-127.555976
64440	9.916895	0.946906	-0.105122	0.097134	0.076595	0.128641	89.053707	-85.054872	-127.045883
64441	9.831021	0.834629	0.027525	-0.007323	0.167112	0.123173	87.924136	-85.123846	-125.916263
64442	9.684436	0.699322	0.041599	0.015254	0.145386	0.122785	86.919568	-85.190230	-124.899238
64443	9.723496	0.815049	0.088090	0.055547	0.105142	0.133473	86.186347	-85.263920	-124.131434
64444	9.799608	0.799602	0.022846	0.033683	0.110443	0.140924	85.371899	-85.339653	-123.294790
64445	9.867440	0.523153	-0.026538	0.003638	0.106516	0.100648	84.571702	-85.392743	-122.489785
64446	9.716259	0.749760	0.110402	0.002302	0.108887	0.069270	83.756458	-85.425762	-121.670508
64447	9.782367	0.708324	0.036060	0.019978	0.087389	0.076273	83.090683	-85.464460	-120.991052
64448	9.750613	0.671303	0.125656	-0.017573	0.112165	0.055767	82.230203	-85.487834	-120.137896
64449	9.683759	0.650092	0.132155	0.000791	0.089714	0.049706	81.542897	-85.509812	-119.447923
64450	9.741400	0.702501	0.139980	0.018337	0.066847	0.046985	81.025008	-85.530524	-118.917822
64451	9.717683	0.649342	0.147893	-0.001353	0.067953	0.037528	80.496968	-85.546548	-118.388870
64452	9.760551	0.696843	0.123381	0.024221	0.052541	0.039193	80.087370	-85.563521	-117.964030
64453	9.775003	0.710046	0.118851	0.005248	0.063524	0.040289	79.584430	-85.580883	-117.456486
64454	9.717686	0.649149	0.124569	0.001737	0.062724	0.039824	79.079887	-85.596577	-116.949359
64455	9.746863	0.668228	0.150639	0.017199	0.050937	0.038278	78.671239	-85.613539	-116.529540
64456	9.641803	0.655859	0.169135	0.005074	0.058087	0.033527	78.205313	-85.625621	-116.059248
64457	9.680455	0.634610	0.196842	0.024613	0.024067	0.029672	78.005816	-85.640496	-115.844945
64458	9.728483	0.656703	0.189455	0.036782	-0.002923	0.030539	78.007772	-85.657896	-115.825685
64459	9.785259	0.660263	0.102358	0.030554	-0.004128	0.026246	78.023567	-85.674177	-115.823889
64460	9.823543	0.650697	0.085112	0.028861	0.001330	0.025870	77.996653	-85.688455	-115.780228
64461	9.752012	0.647647	0.100781	0.018719	0.014223	0.019704	77.879234	-85.698873	-115.651641
64462	9.781131	0.668727	0.122651	0.021044	0.014307	0.016778	77.764901	-85.706479	-115.524808
64463	9.780855	0.678314	0.083214	0.020029	0.016060	0.016016	77.639458	-85.714567	-115.387424
64464	9.781661	0.654355	0.166887	0.016825	0.029446	0.017898	77.406777	-85.720876	-115.144338
64465	9.771245	0.643253	0.079409	0.012762	0.028840	0.012169	77.186970	-85.725129	-114.916506
64466	9.796088	0.668513	0.162733	0.005902	0.037323	0.016529	76.890266	-85.729507	-114.615497
64467	9.728983	0.651424	0.162816	-0.003531	0.041891	0.011432	76.563992	-85.731462	-114.290265
64468	9.767134	0.643277	0.149101	0.018297	0.023149	0.010051	76.390901	-85.733910	-114.106094
64469	9.734257	0.696165	0.195499	0.005584	0.023136	0.014175	76.204221	-85.739754	-113.915609
64470	9.743736	0.653599	0.200931	0.004431	0.020786	0.016371	76.028527	-85.745957	-113.736797
64471	9.672112	0.651198	0.217140	0.011849	0.007484	0.018734	75.952950	-85.756426	-113.654126
64472	9.710385	0.642109	0.200216	0.011564	-0.008336	0.021979	75.988273	-85.769757	-113.682816
64473	9.734309	0.616112	0.191732	0.019274	-0.025671	0.017215	76.169163	-85.783959	-113.853046
64474	9.696590	0.610962	0.246445	0.003962	-0.032591	0.007743	76.410896	-85.792647	-114.093071
64475	9.657565	0.567108	0.172201	0.029240	-0.051908	-0.002887	76.835233	-85.799000	-114.501675
64476	9.682108	0.605783	0.206178	0.028836	-0.055227	-0.013768	77.303019	-85.798338	-114.954069
64477	9.677272	0.633427	0.177581	0.040596	-0.074940	-0.016924	77.934473	-85.799144	-115.563821
64478	9.758831	0.667316	0.162777	0.056147	-0.089999	-0.007214	78.673443	-85.805484	-116.272436
64479	9.762995	0.664212	0.094531	0.043719	-0.081799	-0.008992	79.348889	-85.810412	-116.924494
64480	9.734374	0.631196	0.106383	0.038718	-0.086896	-0.008396	80.059256	-85.814498	-117.614434
64481	9.758140	0.608154	0.090268	0.046271	-0.099075	-0.013105	80.877695	-85.817526	-118.408392
64482	9.801018	0.660561	0.049504	0.049939	-0.101778	-0.018241	81.723393	-85.815921	-119.227573
64483	9.934114	0.715673	-0.034683	0.048391	-0.076990	-0.016285	82.375840	-85.813794	-119.853877
64484	9.981836	0.742044	-0.048638	0.017706	-0.025343	-0.015360	82.605521	-85.806862	-120.073915
64485	9.932915	0.656340	-0.086534	-0.001148	0.012595	-0.009332	82.526991	-85.801628	-119.995747
64486	9.810516	0.698324	0.045470	-0.014229	0.037798	-0.016674	82.251357	-85.789187	-119.727457
64487	9.862729	0.709061	0.021585	0.009930	0.031676	-0.002978	82.026287	-85.786019	-119.495985
64488	9.777362	0.680897	0.092500	-0.024081	0.057527	-0.006373	81.584500	-85.777609	-119.066746
64489	9.744269	0.662398	0.135724	-0.001263	0.023735	-0.001052	81.412855	-85.776012	-118.895273
64490	9.829634	0.690658	0.070742	0.001576	0.005684	0.008671	81.367349	-85.780342	-118.848651
64491	9.743250	0.683160	0.056480	-0.024798	0.013117	0.007632	81.253407	-85.784538	-118.748560
64492	9.733989	0.639701	0.089404	-0.003156	-0.003466	0.002145	81.283004	-85.785962	-118.779965
64493	9.801150	0.655289	0.092549	-0.014411	-0.002176	0.001105	81.300161	-85.787783	-118.805360
64494	9.752751	0.641546	0.060014	-0.015956	-0.004860	-0.003437	81.339726	-85.786163	-118.854113
64495	9.772542	0.622094	0.111815	-0.012958	-0.016102	-0.009395	81.476996	-85.783223	-118.999114
64496	9.805504	0.642281	0.071128	-0.013203	-0.016959	-0.017635	81.627055	-85.774561	-119.157080
64497	9.824136	0.646015	0.040804	-0.006523	-0.012687	-0.019309	81.752227	-85.765664	-119.286254
64498	9.804674	0.657568	0.029329	-0.014806	0.019771	-0.031340	81.634898	-85.746163	-119.177022
64499	9.776217	0.699559	0.058269	-0.027946	0.046878	-0.027433	81.303778	-85.727637	-118.860953
64500	9.799289	0.688625	0.015873	-0.006739	0.057711	-0.016340	80.889929	-85.713179	-118.449732
64501	9.733791	0.714294	0.147423	-0.041392	0.090261	-0.015214	80.215682	-85.697102	-117.797283
64502	9.675980	0.658509	0.155345	-0.024815	0.070482	-0.008880	79.692671	-85.684967	-117.286962
64503	9.733454	0.715890	0.161233	-0.001512	0.045735	-0.001272	79.361616	-85.680507	-116.955749
64504	9.723641	0.683623	0.157700	-0.022110	0.055939	0.006452	78.930278	-85.678029	-116.535800
64505	9.737533	0.710657	0.111556	0.000812	0.041467	0.014114	78.610560	-85.682359	-116.214620
64506	9.737982	0.697940	0.156876	-0.016444	0.050004	0.019670	78.206351	-85.687576	-115.818625
64507	9.699606	0.713570	0.137545	0.001115	0.043690	0.032102	77.840050	-85.701404	-115.450564
64508	9.729148	0.721672	0.203184	-0.003149	0.043864	0.044705	77.445029	-85.720987	-115.056156
64509	9.643055	0.626289	0.226529	-0.004071	0.027135	0.049815	77.164198	-85.746447	-114.776802
64510	9.690955	0.657238	0.178926	0.025693	0.004157	0.053151	77.063297	-85.775548	-114.660777
64511	9.658023	0.633263	0.217936	0.005910	-0.000453	0.052180	76.987820	-85.805773	-114.581619
64512	9.705917	0.579753	0.202260	0.036213	-0.043489	0.056911	77.249147	-85.843061	-114.822752
64513	9.811450	0.678056	0.107883	0.035357	-0.049870	0.051992	77.574138	-85.879389	-115.128200
64514	9.792112	0.609041	0.086641	0.017228	-0.030827	0.052339	77.742708	-85.912400	-115.287221
64515	9.811315	0.606116	0.054538	0.033288	-0.032505	0.046056	77.948827	-85.943138	-115.474658
64516	9.802602	0.632186	0.089824	0.017421	-0.007148	0.036389	77.961589	-85.964322	-115.477359
64517	9.740433	0.587420	0.107872	0.010650	-0.000552	0.029496	77.931468	-85.981934	-115.440964
64518	9.802982	0.626388	0.088987	0.024192	-0.004793	0.023496	77.951253	-85.995612	-115.446816
64519	9.765373	0.620589	0.146722	0.013259	0.007713	0.020630	77.871199	-86.007262	-115.358870
64520	9.760015	0.571797	0.120226	0.007516	0.007939	0.015977	77.791838	-86.015192	-115.274914
64521	9.779650	0.645097	0.097365	0.019097	0.013199	0.016708	77.676917	-86.023958	-115.148664
64522	9.784520	0.617449	0.121160	0.006512	0.021931	0.016393	77.482680	-86.030371	-114.950133
64523	9.755458	0.593181	0.102527	0.003809	0.016903	0.014045	77.332762	-86.037133	-114.797586
64524	9.818277	0.622151	0.126025	0.014070	0.008102	0.017293	77.251726	-86.045722	-114.708189
64525	9.789232	0.597731	0.106678	0.006683	0.016792	0.016374	77.099058	-86.053755	-114.551239
64526	9.751211	0.603723	0.125626	0.002122	0.026983	0.012174	76.866919	-86.057016	-114.317243
64527	9.765685	0.619490	0.117563	0.011334	0.016928	0.010522	76.725788	-86.061693	-114.169187
64528	9.790378	0.656285	0.158688	0.001278	0.023595	0.011385	76.521364	-86.064863	-113.963460
64529	9.760279	0.570493	0.094837	-0.005129	0.027531	0.007099	76.290957	-86.066133	-113.735375
64530	9.780454	0.622575	0.155258	0.006977	0.024983	0.010439	76.079892	-86.068478	-113.519717
64531	9.776005	0.636331	0.176659	-0.011257	0.030723	0.016670	75.800257	-86.074494	-113.245809
64532	9.785065	0.604250	0.141930	0.001867	0.021803	0.022259	75.586666	-86.083725	-113.030559
64533	9.847714	0.643132	0.126569	-0.005952	0.039694	0.028485	75.210273	-86.094815	-112.656627
64534	9.751679	0.591158	0.147203	-0.017161	0.044028	0.031545	74.782346	-86.105709	-112.237476
64535	9.713679	0.595598	0.168228	-0.003581	0.042769	0.029706	74.375209	-86.116636	-111.831378
64536	9.761904	0.616945	0.164395	-0.008739	0.045827	0.034439	73.926057	-86.128422	-111.386127
64537	9.733032	0.579877	0.189227	-0.013427	0.047315	0.034683	73.459502	-86.140923	-110.926143
64538	9.776799	0.615671	0.203852	-0.006522	0.035568	0.041577	73.071993	-86.157852	-110.541416
64539	9.839701	0.652200	0.188871	-0.011144	0.029210	0.054514	72.697959	-86.183823	-110.172869
64540	9.781740	0.601506	0.151473	-0.024004	0.048265	0.054230	72.155024	-86.205086	-109.642432
64541	9.761935	0.521226	0.179594	-0.021988	0.040141	0.057250	71.666192	-86.230177	-109.165083
64542	9.796856	0.607148	0.149573	-0.010588	0.033656	0.058327	71.228104	-86.255724	-108.732045
64543	9.801677	0.585939	0.134781	-0.022908	0.043302	0.066249	70.673596	-86.284563	-108.189440
64544	9.816560	0.584705	0.170967	-0.025432	0.064171	0.076058	69.905142	-86.313199	-107.433895
64545	9.816813	0.565855	0.218486	-0.038945	0.068487	0.082040	69.061411	-86.344539	-106.610717
64546	9.735197	0.525856	0.231087	-0.037234	0.066035	0.086596	68.210437	-86.376990	-105.779314
64547	9.729687	0.459494	0.250455	-0.030938	0.051449	0.084092	67.478916	-86.411577	-105.064033
64548	9.733421	0.385876	0.149914	-0.012222	0.048685	0.071953	66.812859	-86.438774	-104.403608
64549	9.813999	0.571530	0.177647	0.017406	0.039340	0.071003	66.235288	-86.468203	-103.814868
64550	9.815305	0.615252	0.269533	-0.013412	0.063771	0.075417	65.406697	-86.492711	-102.992324
64551	9.845222	0.639087	0.254801	-0.037009	0.039032	0.119090	64.585289	-86.546196	-102.190575
64552	9.791342	0.544981	0.280424	-0.058353	0.046093	0.125953	63.637960	-86.599660	-101.274956
64553	9.747970	0.492471	0.273089	-0.048023	0.022601	0.147536	62.772674	-86.670383	-100.435673
64554	9.797556	0.512162	0.226330	-0.054254	0.007369	0.162999	61.931769	-86.751240	-99.624431
64555	9.787560	0.453125	0.259532	-0.060030	0.011211	0.164007	61.002685	-86.831840	-98.728273
64556	9.793080	0.432761	0.201231	-0.053785	0.007763	0.169868	60.033923	-86.914481	-97.788843
64557	9.803878	0.436357	0.252136	-0.055651	0.014331	0.172542	58.931535	-86.996600	-96.716765
64558	9.805042	0.430304	0.213093	-0.056053	0.015940	0.177103	57.730013	-87.078295	-95.545708
64559	9.847704	0.377849	0.220625	-0.055396	0.018788	0.186603	56.368226	-87.163293	-94.213917
64560	9.855274	0.416555	0.209772	-0.060367	0.023329	0.201202	54.782363	-87.250984	-92.660713
64561	9.856088	0.395429	0.212454	-0.066129	0.025881	0.224798	52.884325	-87.347368	-90.798436
64562	9.803189	0.353376	0.282933	-0.080175	0.039282	0.231320	50.660350	-87.437755	-88.618056
64563	9.754987	0.306377	0.293991	-0.082971	0.028393	0.253031	48.184760	-87.538462	-86.187613
64564	9.850209	0.352712	0.258076	-0.058075	-0.013913	0.273466	45.752481	-87.658686	-83.786416
64565	9.893244	0.201565	0.238976	-0.076388	0.010143	0.292836	42.591212	-87.772630	-80.666381
64566	9.806292	0.246158	0.288994	-0.094308	0.016361	0.299229	38.969018	-87.877839	-77.095567
64567	9.947391	0.235982	0.239426	-0.065712	-0.011168	0.332822	34.797631	-87.998640	-72.959103
64568	9.944177	0.216258	0.257730	-0.084120	-0.002487	0.362301	29.610764	-88.110930	-67.817392
64569	10.009709	0.216963	0.240636	-0.096149	-0.001389	0.390447	23.314360	-88.212595	-61.572821
64570	10.045383	0.192617	0.202202	-0.089812	-0.005375	0.437718	15.533341	-88.299525	-53.839606
64571	10.109003	0.084940	0.202181	-0.109194	0.030475	0.475704	6.218214	-88.334914	-44.583021
64572	10.106500	0.061190	0.184925	-0.108239	0.057346	0.517388	-3.987371	-88.308238	-34.435035
64573	10.173517	0.005565	0.237286	-0.100212	0.077449	0.555928	-14.216800	-88.214409	-24.258323
64574	10.275374	-0.038655	0.253312	-0.084405	0.091909	0.606526	-23.827940	-88.051328	-14.690412
64575	10.310464	-0.176050	0.390898	-0.076661	0.113105	0.658646	-32.294646	-87.816410	-6.262151
64576	10.168585	-0.249607	0.412581	-0.058311	0.142200	0.698548	-39.142961	-87.516583	0.558460
64577	9.940145	-0.128258	0.546110	-0.048082	0.113614	0.720985	-44.895162	-87.191458	6.289219
64578	10.055739	-0.238416	0.447393	-0.051217	0.081610	0.760865	-49.928749	-86.838991	11.300313
64579	10.168534	-0.365948	0.387087	-0.060838	0.068577	0.798704	-54.252725	-86.453485	15.596783
64580	10.175902	-0.417414	0.211922	-0.038952	0.053825	0.840143	-57.979752	-86.036884	19.309517
64581	10.285496	-0.449564	0.253105	-0.032137	0.040219	0.873196	-61.202954	-85.593394	22.522862
64582	10.212907	-0.574647	0.275176	-0.057967	0.079542	0.919190	-63.736621	-85.105577	25.031637
64583	10.097939	-0.780773	0.230355	-0.036488	0.087968	0.957082	-65.853322	-84.587615	27.135923
64584	10.067312	-0.836737	0.265699	-0.026093	0.108042	0.996155	-67.567518	-84.039189	28.843639
64585	9.856795	-0.886900	0.367347	-0.039481	0.130653	1.029971	-68.960687	-83.462944	30.222359
64586	9.844272	-0.974240	0.398671	-0.029004	0.126929	1.049403	-70.164459	-82.874439	31.418072
64587	9.823363	-1.044851	0.508289	-0.048103	0.129741	1.073325	-71.221485	-82.269109	32.456223
64588	9.827792	-1.095434	0.508537	-0.042678	0.127148	1.095235	-72.155085	-81.650776	33.374468
64589	9.711561	-1.247710	0.514729	-0.073221	0.145136	1.112322	-72.937462	-81.017486	34.123412
64590	9.760754	-1.491649	0.391659	-0.071337	0.150126	1.115491	-73.601405	-80.380951	34.754860
64591	9.742797	-1.601115	0.406297	-0.068232	0.172214	1.123831	-74.126454	-79.734604	35.248186
64592	9.648599	-1.744745	0.288101	-0.070763	0.199429	1.118830	-74.507743	-79.086838	35.594915
64593	9.553456	-1.903869	0.343776	-0.069469	0.228013	1.107003	-74.764423	-78.440240	35.815985
64594	9.548608	-1.981432	0.375089	-0.059769	0.245697	1.100435	-74.937996	-77.795156	35.958450
64595	9.383423	-2.090324	0.425562	-0.067812	0.280935	1.089895	-75.010383	-77.149925	35.992742
64596	9.246410	-2.208256	0.521158	-0.076469	0.295013	1.068530	-75.034389	-76.515113	35.972489
64597	9.106313	-2.290897	0.653941	-0.077340	0.281998	1.041616	-75.073947	-75.896442	35.967522
64598	9.068437	-2.376872	0.794473	-0.058313	0.232140	1.003863	-75.183293	-75.306696	36.046008
64599	9.371674	-2.286183	0.835108	-0.049256	0.186856	0.971361	-75.357226	-74.740819	36.196761
64600	9.899878	-2.313387	0.814569	-0.056211	0.170074	0.972848	-75.555134	-74.177101	36.368837
64601	10.072481	-2.507703	0.537150	-0.097338	0.204030	1.003057	-75.715875	-73.590968	36.478016
64602	9.981701	-2.777300	0.470908	-0.100373	0.250751	1.030888	-75.795075	-72.983412	36.500752
64603	9.814050	-2.787030	0.573730	-0.065795	0.270374	1.057248	-75.830476	-72.357789	36.498245
64604	9.585373	-2.812640	0.723159	-0.087655	0.305599	1.069680	-75.821276	-71.720980	36.435870
64605	9.525120	-2.862163	0.894612	-0.083846	0.316627	1.082736	-75.801543	-71.074719	36.364246
64606	9.403876	-2.866084	0.905456	-0.099621	0.321880	1.096157	-75.789198	-70.420905	36.290802
64607	9.671369	-3.056045	0.935319	-0.113334	0.340140	1.107448	-75.765737	-69.757613	36.196663
64608	9.554362	-3.157461	0.773824	-0.115627	0.353240	1.132171	-75.735913	-69.079358	36.094131
64609	9.263433	-3.465434	0.656270	-0.166000	0.411411	1.154691	-75.666565	-68.379731	35.917515
64610	9.136555	-3.581661	0.758484	-0.108706	0.383705	1.175859	-75.616121	-67.672829	35.796051
64611	9.232369	-3.591882	0.832407	-0.097817	0.389342	1.189796	-75.563566	-66.956753	35.678188
64612	9.244956	-3.685609	0.972907	-0.110786	0.404816	1.212908	-75.510138	-66.226194	35.550896
64613	9.363547	-3.928645	1.099770	-0.109612	0.422835	1.240048	-75.449432	-65.477361	35.415368
64614	9.109442	-3.790265	1.007953	-0.085844	0.413539	1.260715	-75.397141	-64.718935	35.303588
64615	9.225701	-4.314360	0.852123	-0.142956	0.415324	1.294774	-75.391283	-63.940779	35.206022
64616	9.255717	-4.330165	0.860160	-0.059018	0.382554	1.303395	-75.378358	-63.163139	35.153914
64617	9.750166	-4.467144	0.837453	-0.042026	0.383696	1.315992	-75.361188	-62.377789	35.107309
64618	9.173228	-4.532219	0.770392	-0.074529	0.447377	1.349059	-75.306455	-61.565414	34.997027
64619	9.416793	-4.631122	0.885711	0.009138	0.410989	1.412013	-75.262781	-60.722873	34.952891
64620	9.704503	-4.565331	0.989247	0.017703	0.444513	1.455617	-75.194414	-59.851787	34.885954
64621	9.553576	-4.723025	1.114562	-0.015810	0.501571	1.510899	-75.110716	-58.941170	34.777906
64622	9.423585	-4.742465	1.193885	0.017444	0.501680	1.567582	-75.025885	-57.999569	34.690212
64623	9.509496	-4.781135	1.201282	0.013344	0.517672	1.644042	-74.953221	-57.012773	34.612814
64624	9.565708	-5.004721	1.252520	-0.021201	0.549286	1.734391	-74.897329	-55.971681	34.531319
64625	10.017757	-5.132219	1.359623	0.022049	0.540005	1.829092	-74.849757	-54.879168	34.488536
64626	10.098223	-5.157610	1.455077	-0.005373	0.576897	1.910948	-74.808156	-53.736229	34.433631
64627	10.307794	-5.313502	1.499226	-0.006510	0.597247	2.026985	-74.779280	-52.525750	34.392487
64628	10.321691	-5.537854	1.394138	-0.027165	0.617446	2.165151	-74.775413	-51.236145	34.367898
64629	10.355357	-5.975166	1.213489	-0.054469	0.594548	2.303922	-74.829083	-49.873058	34.396544
64630	10.739375	-6.422377	1.205756	0.005523	0.524342	2.430079	-74.911274	-48.450871	34.509469
64631	11.294093	-6.425638	1.215919	0.122468	0.479503	2.542438	-74.966935	-46.973019	34.679035
64632	11.061523	-6.426225	1.107339	0.102279	0.497205	2.707876	-75.040352	-45.400941	34.862094
64633	10.342045	-6.957343	0.796275	0.061544	0.426658	2.905270	-75.194781	-43.729763	35.131766
64634	9.717915	-7.638362	0.371416	0.152090	0.170001	3.114690	-75.440233	-41.979045	35.620852
64635	9.396322	-8.027806	-0.025631	0.398435	-0.287520	3.315566	-75.764137	-40.180435	36.460297
64636	9.466101	-7.735054	-0.131128	0.766916	-0.784631	3.540942	-76.084500	-38.322085	37.661124
64637	9.836190	-6.959620	-0.260830	1.091736	-1.134680	3.760974	-76.334351	-36.384756	39.102666
64638	10.219665	-5.880934	-0.205517	1.368974	-1.281167	3.961675	-76.435925	-34.351618	40.633278
64639	10.438558	-4.699641	-0.008566	1.532239	-1.167666	4.138976	-76.352325	-32.204754	42.079335
64640	10.925290	-4.609029	0.582104	1.522822	-0.740886	4.343988	-76.085045	-29.888822	43.253033
64641	11.620791	-6.324836	3.739453	1.482880	0.133410	4.165341	-75.516912	-27.557532	43.836971
64642	15.504140	-7.347438	2.908402	2.309126	0.137599	2.589849	-74.350546	-26.104496	44.184393
64643	18.022608	-1.182705	3.752887	3.628283	-0.304031	0.247108	-72.374387	-26.020334	44.416109
64644	18.398422	1.933050	3.936628	2.064225	1.156385	-1.889220	-70.709025	-26.837649	43.332076
64645	13.905608	-2.794900	3.419349	0.541493	2.452845	-3.840309	-69.314285	-28.427877	40.993043
64646	9.656401	-6.335321	2.114558	0.856108	2.186417	-4.945634	-67.574460	-30.603815	38.458404
64647	6.939130	-7.757628	2.333350	1.347778	1.663040	-5.327666	-65.506125	-33.028207	36.000331
64648	5.365072	-8.197781	2.275913	1.662183	0.848759	-4.826330	-63.446724	-35.314689	34.030374
64649	4.249932	-7.492753	2.615365	1.839479	0.214995	-4.057667	-61.523281	-37.322987	32.562334
64650	4.897966	-6.619604	2.085779	1.722010	-0.129669	-3.294387	-59.861465	-39.005739	31.470092
64651	5.576969	-5.166203	2.209876	1.469451	-0.321481	-2.770388	-58.475222	-40.466331	30.618350
64652	6.402713	-4.180088	2.417425	0.950190	-0.380569	-2.453251	-57.441318	-41.773929	29.874272
64653	7.710420	-3.655564	2.622018	0.442157	-0.413974	-2.332025	-56.707085	-43.027666	29.160813
64654	8.794260	-3.361413	2.621073	0.050215	-0.352549	-2.314100	-56.139809	-44.244483	28.380633
64655	8.361382	-3.814862	2.409999	-0.541316	-0.001216	-2.293351	-55.720187	-45.336806	27.344572
64656	6.804742	-5.238232	2.276769	-1.022697	0.290004	-2.186611	-55.436974	-46.276816	26.132471
64657	5.653500	-6.646594	2.152398	-1.069500	0.218864	-2.043021	-55.233402	-47.171853	25.011049
64658	5.485274	-7.099326	2.464580	-0.755739	-0.184764	-1.902652	-55.078697	-48.127475	24.215942
