// General information: 
//  MT Manager version: 2022.2.0 
//  XDA version: 2022.2.0 build 7381 rev 124627 built on 2023-07-19
// Device information: 
//  DeviceId: 00B4BAF3
//  ProductCode: MTW2-3A7G6
//  Firmware Version: 4.6.0
//  Hardware Version: 2.0.0
// Device settings: 
//  Filter Profile: human(46.1)
//  Option Flags: Orientation Smoother Disabled, Position/Velocity Smoother Disabled, Continuous Zero Rotation Update Disabled, AHS Disabled, ICC Disabled
// Coordinate system: ENU
PacketCounter	Acc_X	Acc_Y	Acc_Z	Gyr_X	Gyr_Y	Gyr_Z	Roll	Pitch	Yaw
14998	9.708064	-0.860213	-0.249154	-0.132890	0.079515	-0.094775	-90.987758	-85.405985	9.433284
14999	9.696056	-0.886497	-0.176175	-0.156017	0.074469	-0.109266	-90.587312	-85.469011	8.942871
15000	9.734200	-0.865010	-0.068060	-0.160390	0.075831	-0.119637	-90.165833	-85.539542	8.428679
15001	9.621925	-0.936390	-0.094748	-0.147720	0.071099	-0.124707	-89.758560	-85.610848	7.936278
15002	9.628158	-0.909189	0.000844	-0.130740	0.072955	-0.124594	-89.311008	-85.683613	7.413081
15003	9.552370	-0.856465	0.077204	-0.123733	0.076982	-0.124008	-88.813637	-85.753859	6.844206
15004	9.507887	-0.741918	0.194756	-0.118902	0.075973	-0.122336	-88.301750	-85.824580	6.263405
15005	9.526473	-0.678734	0.224716	-0.131729	0.076243	-0.119221	-87.779766	-85.891330	5.665361
15006	9.599134	-0.594666	0.268348	-0.137905	0.074803	-0.118365	-87.251922	-85.959012	5.057752
15007	9.693538	-0.457366	0.229694	-0.134657	0.074371	-0.116503	-86.710666	-86.023454	4.438807
15008	9.766389	-0.440388	0.244869	-0.144351	0.072668	-0.119589	-86.164518	-86.091093	3.809250
15009	9.830545	-0.459137	0.219677	-0.139263	0.067929	-0.117897	-85.640475	-86.155769	3.205010
15010	9.756317	-0.637354	0.292301	-0.122242	0.069861	-0.117770	-85.065847	-86.221679	2.559706
15011	9.559750	-0.802380	0.348593	-0.072934	0.072887	-0.102686	-84.432822	-86.276581	1.884424
15012	9.445461	-0.696146	0.351343	0.022734	0.056557	-0.087264	-83.878866	-86.324953	1.343163
15013	9.399977	-0.383704	0.449669	0.074895	0.044795	-0.070181	-83.409839	-86.362265	0.917158
15014	9.392650	-0.217540	0.534811	0.073175	0.038282	-0.055299	-83.000933	-86.393100	0.550246
15015	9.459127	0.137276	0.552493	0.069805	0.027210	-0.044538	-82.707612	-86.416709	0.297401
15016	9.661640	-0.053997	0.585094	0.020930	0.060795	-0.023691	-82.150405	-86.427613	-0.248078
15017	9.496618	-0.170586	0.344054	0.106841	0.019518	-0.019018	-81.931055	-86.437123	-0.405540
15018	9.548294	-0.222096	0.102166	0.080342	0.045102	-0.004463	-81.503168	-86.438029	-0.787331
15019	9.575337	-0.383115	-0.259946	0.120495	0.019996	-0.001671	-81.293580	-86.437560	-0.927173
15020	9.642056	-0.521066	-0.429847	0.098190	0.024375	0.008261	-81.062199	-86.432881	-1.101833
15021	9.618050	-0.678157	-0.519984	0.095043	0.017548	0.013853	-80.912139	-86.423785	-1.196644
15022	9.627615	-0.710742	-0.506769	0.086473	0.008799	0.005550	-80.826379	-86.421999	-1.232126
15023	9.686160	-0.721785	-0.373679	0.034262	0.012593	-0.002827	-80.732156	-86.422770	-1.305884
15024	9.711142	-0.665135	-0.084862	-0.005748	0.008128	-0.030765	-80.652188	-86.441562	-1.388501
15025	9.757006	-0.512548	0.233597	-0.061295	0.011522	-0.046762	-80.555462	-86.467254	-1.519620
15026	9.757730	-0.778791	0.226461	-0.082650	0.025630	-0.046591	-80.331886	-86.493294	-1.790255
15027	9.732431	-0.699844	0.508101	-0.065539	0.018843	-0.047066	-80.164868	-86.518397	-1.994226
15028	9.667775	-0.868981	0.560146	-0.040099	0.014164	-0.051486	-80.008600	-86.548203	-2.172984
15029	9.705841	-0.914648	0.494633	0.003587	0.001663	-0.051427	-79.950782	-86.577421	-2.227868
15030	9.685651	-0.976512	0.380608	0.048425	-0.007543	-0.047908	-79.950654	-86.607312	-2.199384
15031	9.694905	-0.928522	0.279990	0.127454	-0.022321	-0.050557	-80.051873	-86.638426	-2.023857
15032	9.680403	-0.839738	0.206182	0.187701	-0.028930	-0.046670	-80.182382	-86.669673	-1.784573
15033	9.698453	-0.803034	0.171965	0.234591	-0.041789	-0.044681	-80.427908	-86.699292	-1.403021
15034	9.735929	-0.625851	0.139107	0.281881	-0.039410	-0.037112	-80.631541	-86.725996	-1.036454
15035	9.787199	-0.459197	0.067009	0.316024	-0.039092	-0.036634	-80.826821	-86.750651	-0.658516
15036	9.799990	-0.189607	-0.108182	0.317819	-0.026077	-0.042753	-80.876107	-86.779210	-0.425937
15037	9.826446	0.039682	-0.098197	0.233677	-0.018013	-0.059819	-80.875906	-86.815010	-0.291062
15038	9.781984	0.018512	-0.185836	0.086779	-0.014066	-0.075361	-80.886998	-86.860958	-0.229334
15039	9.779579	-0.061564	-0.163917	-0.048077	-0.003597	-0.096165	-80.841209	-86.916010	-0.301799
15040	9.813743	-0.149143	-0.094806	-0.151429	0.001816	-0.106684	-80.767967	-86.978264	-0.461211
15041	9.861822	-0.250828	0.076300	-0.229425	0.012931	-0.112960	-80.611234	-87.041268	-0.748809
15042	9.822445	-0.459380	0.243728	-0.260199	0.021386	-0.115935	-80.353016	-87.106867	-1.155821
15043	9.801521	-0.501478	0.327261	-0.250904	0.013751	-0.115285	-80.172442	-87.170991	-1.479580
15044	9.760530	-0.611780	0.297003	-0.205082	0.015930	-0.117006	-79.913781	-87.237563	-1.855370
15045	9.679384	-0.604004	0.360812	-0.122606	0.011370	-0.112832	-79.666572	-87.300409	-2.172210
15046	9.709563	-0.660869	0.311747	-0.078344	0.012399	-0.091912	-79.403532	-87.353019	-2.479648
15047	9.665983	-0.413550	0.266879	-0.002685	-0.005803	-0.094758	-79.316999	-87.407390	-2.566833
15048	9.649234	-0.300654	0.249625	-0.009232	-0.004301	-0.096170	-79.194990	-87.464091	-2.693432
15049	9.738453	-0.360902	0.190086	0.009462	-0.024478	-0.092215	-79.341798	-87.519016	-2.540078
15050	9.711313	-0.216984	0.159659	0.003373	-0.022505	-0.098771	-79.442701	-87.579113	-2.436321
15051	9.728609	-0.175319	0.124669	-0.009241	-0.026878	-0.097900	-79.632103	-87.637459	-2.251076
15052	9.740215	-0.108052	0.111834	-0.023751	-0.026975	-0.096877	-79.828965	-87.696929	-2.066844
15053	9.804009	-0.215788	0.099647	-0.028409	-0.029770	-0.098430	-80.089547	-87.755804	-1.821369
15054	9.871827	-0.192821	0.071994	-0.025083	-0.025828	-0.098153	-80.289275	-87.815832	-1.635048
15055	9.901042	-0.120232	0.110919	-0.051321	-0.018167	-0.088598	-80.438248	-87.867970	-1.514418
15056	9.885114	-0.054829	0.121060	-0.085115	0.000531	-0.092109	-80.297686	-87.922044	-1.703050
15057	9.907518	-0.351404	0.157334	-0.085948	-0.009045	-0.116481	-80.251023	-87.989053	-1.798041
15058	9.959062	0.030351	0.330404	-0.079776	-0.024904	-0.114746	-80.447684	-88.058358	-1.646175
15059	9.903622	-0.323594	0.120823	-0.181535	0.018262	-0.113309	-79.994243	-88.120916	-2.202960
15060	9.787209	-0.238779	0.061359	-0.098583	0.004618	-0.119407	-79.660696	-88.189913	-2.592369
15061	9.609608	-0.008941	-0.178432	-0.057228	0.001736	-0.106196	-79.394390	-88.249955	-2.890631
15062	9.548432	0.145769	-0.358983	0.007852	-0.017690	-0.085475	-79.493380	-88.302104	-2.786272
15063	9.553834	0.584387	-0.291697	0.029108	-0.014976	-0.056186	-79.659303	-88.335706	-2.602614
15064	9.736565	1.088739	0.008888	-0.018868	-0.015159	-0.031547	-79.930290	-88.357224	-2.341508
15065	9.849894	1.085159	0.098039	-0.111012	0.003651	-0.017788	-79.955717	-88.367264	-2.378725
15066	9.835419	0.917386	0.180830	-0.183747	0.012264	-0.006177	-79.871669	-88.371815	-2.567317
15067	9.774639	0.501394	0.212461	-0.244876	0.019194	0.010637	-79.766287	-88.364249	-2.812124
15068	9.739772	0.024474	0.158294	-0.261897	0.018438	0.018620	-79.693399	-88.354247	-3.034351
15069	9.684699	-0.418782	0.162947	-0.234970	0.010171	0.024953	-79.812610	-88.339521	-3.048797
15070	9.684281	-0.599826	0.202444	-0.192681	-0.001130	0.025045	-80.103071	-88.327868	-2.867847
15071	9.682845	-0.663409	0.137367	-0.156120	-0.009073	0.022861	-80.536503	-88.316182	-2.522740
15072	9.750182	-0.650914	0.111364	-0.120090	-0.000944	0.014053	-80.739797	-88.310620	-2.387380
15073	9.789039	-0.700240	0.043629	-0.117800	0.004015	0.005787	-80.841589	-88.307308	-2.352089
15074	9.722733	-0.733726	0.010885	-0.099510	-0.001498	-0.008728	-80.972714	-88.314620	-2.277127
15075	9.761936	-0.700857	0.063552	-0.083120	0.002362	-0.018732	-81.011365	-88.325327	-2.285127
15076	9.775442	-0.509912	0.041869	-0.070472	-0.006962	-0.020953	-81.196963	-88.339987	-2.139019
15077	9.764262	-0.189469	0.029104	-0.066401	-0.006940	-0.031591	-81.371855	-88.358786	-2.001138
15078	9.725818	0.209081	0.158968	-0.081389	0.000210	-0.037731	-81.376089	-88.382298	-2.042726
15079	9.840810	0.623306	0.235504	-0.121285	-0.001755	-0.053039	-81.417183	-88.412795	-2.070158
15080	9.898479	0.823870	0.246869	-0.227400	0.003933	-0.056487	-81.367282	-88.446663	-2.249593
15081	9.855515	0.527099	0.021823	-0.298700	0.003799	-0.043141	-81.423515	-88.471077	-2.363567
15082	9.822165	0.553446	0.069308	-0.351176	0.023387	-0.037162	-81.082091	-88.492365	-2.905571
15083	9.806801	0.325760	0.084124	-0.403556	0.020436	-0.033246	-80.862546	-88.509661	-3.355514
15084	9.849361	0.191018	0.267639	-0.470113	0.023575	-0.026705	-80.600986	-88.524935	-3.885789
15085	9.818024	-0.238924	0.205169	-0.487610	0.021995	-0.027734	-80.400566	-88.538871	-4.364769
15086	9.741650	-0.507998	0.213812	-0.443663	0.019618	-0.028641	-80.187688	-88.555516	-4.831179
15087	9.705350	-0.688342	0.340101	-0.397819	0.016694	-0.033515	-80.017808	-88.573151	-5.228139
15088	9.684357	-0.712780	0.336110	-0.316302	0.010821	-0.046015	-79.844123	-88.600352	-5.582337
15089	9.675261	-0.694201	0.268364	-0.225515	0.009886	-0.053992	-79.628584	-88.630164	-5.926211
15090	9.757287	-0.680294	0.205227	-0.154146	0.015334	-0.055842	-79.183662	-88.662284	-6.458773
15091	9.825192	-0.643633	0.043235	-0.084485	0.025694	-0.055273	-78.460045	-88.690924	-7.230025
15092	9.833560	-0.277609	-0.090961	0.027909	-0.003308	-0.053602	-78.335878	-88.723656	-7.337398
15093	9.818705	-0.070816	-0.221819	0.019806	0.014338	-0.039261	-77.875049	-88.744435	-7.786012
15094	9.813593	0.029893	-0.269462	0.039472	0.014254	-0.029501	-77.405764	-88.761489	-8.231953
15095	9.689899	0.116699	-0.159927	0.028253	0.027966	-0.022784	-76.655403	-88.771126	-8.965319
15096	9.697637	0.225771	-0.188422	0.036922	0.022855	-0.016013	-76.023977	-88.779305	-9.574893
15097	9.797196	0.133389	-0.041975	0.025745	0.032191	-0.007926	-75.245385	-88.779706	-10.337931
15098	9.709061	-0.147465	-0.052505	0.040495	0.038081	0.001116	-74.327187	-88.775798	-11.232293
15099	9.661190	-0.267931	-0.015276	0.063215	0.031316	0.003900	-73.640954	-88.769357	-11.881478
15100	9.634383	-0.361788	0.024960	0.064376	0.035146	0.013218	-72.891979	-88.758782	-12.592893
15101	9.636417	-0.321647	0.037167	0.065022	0.032057	0.011656	-72.264760	-88.747635	-13.182020
15102	9.704245	-0.396849	0.032490	0.031921	0.026951	0.015094	-71.776441	-88.737137	-13.651317
15103	9.759591	-0.572337	0.025681	0.024949	0.032796	0.019679	-71.240447	-88.721258	-14.172168
15104	9.683753	-0.607319	0.067866	0.056805	0.030320	0.017771	-70.698328	-88.708462	-14.681018
15105	9.633237	-0.532322	0.129825	0.086637	0.018345	0.018184	-70.481262	-88.695960	-14.847510
15106	9.591164	-0.483489	-0.029806	0.114925	0.011270	0.013806	-70.337949	-88.688814	-14.924142
15107	9.586334	-0.240101	-0.028603	0.159597	0.005843	0.025490	-70.437867	-88.674760	-14.731753
15108	9.628247	-0.098943	-0.038777	0.190495	-0.002277	0.035302	-70.743146	-88.658566	-14.316358
15109	9.641374	0.055708	0.028346	0.197546	-0.001808	0.043167	-71.126343	-88.636330	-13.818859
15110	9.654642	0.209866	0.094946	0.184897	-0.000626	0.050619	-71.493718	-88.611415	-13.344550
15111	9.697968	0.228455	0.182271	0.152903	-0.003125	0.051763	-71.964664	-88.584577	-12.784852
15112	9.665544	0.168394	0.103807	0.125811	-0.001507	0.062437	-72.433925	-88.553226	-12.242479
15113	9.689921	0.200319	0.196444	0.088423	-0.008694	0.062739	-73.091820	-88.521085	-11.532712
15114	9.740909	0.176069	0.202585	0.038087	-0.007921	0.057455	-73.667451	-88.493276	-10.934198
15115	9.755416	0.072981	0.180097	-0.005242	-0.006630	0.063599	-74.287392	-88.459958	-10.316065
15116	9.745439	-0.068192	0.064541	-0.034936	-0.003996	0.060088	-74.794429	-88.429806	-9.828006
15117	9.734568	-0.222309	0.088488	-0.058126	-0.007177	0.062973	-75.403923	-88.396600	-9.250618
15118	9.704008	-0.241858	0.018138	-0.065731	-0.003217	0.064689	-75.896141	-88.363532	-8.795018
15119	9.676772	-0.161086	0.021387	-0.075889	-0.005650	0.066683	-76.458672	-88.327758	-8.274774
15120	9.654612	-0.163901	-0.064323	-0.100581	-0.003257	0.070541	-76.958088	-88.291197	-7.831931
15121	9.689856	-0.074797	0.021683	-0.119027	0.000714	0.070020	-77.398539	-88.252493	-7.458531
15122	9.724146	-0.044394	0.042241	-0.137639	-0.005353	0.064372	-77.894917	-88.219437	-7.039952
15123	9.693172	-0.152624	-0.012350	-0.115749	-0.024857	0.049866	-78.679455	-88.194803	-6.320404
15124	9.636581	-0.235914	0.101307	-0.150320	-0.014174	0.063074	-79.297124	-88.163157	-5.787728
15125	9.556151	-0.539611	-0.041581	-0.119723	-0.001239	0.063726	-79.677742	-88.127780	-5.474565
15126	9.680542	-0.453723	0.244722	-0.076645	-0.017704	0.051569	-80.244472	-88.102675	-4.950598
15127	9.790847	-0.587110	0.200053	-0.051593	-0.018203	0.057816	-80.827542	-88.072058	-4.395804
15128	9.808271	-0.393021	0.274472	-0.028863	-0.017014	0.048420	-81.317422	-88.048313	-3.921319
15129	9.700924	-0.335134	0.283308	-0.038601	-0.010050	0.042502	-81.690983	-88.025375	-3.568691
15130	9.686391	-0.407335	0.197505	-0.032466	-0.022234	0.040121	-82.227432	-88.006495	-3.049662
15131	9.690195	-0.386954	0.146360	-0.019377	-0.025915	0.040583	-82.824558	-87.985617	-2.462302
15132	9.742810	-0.337300	0.076645	-0.024218	-0.033036	0.044018	-83.515548	-87.964864	-1.783893
15133	9.806926	-0.336467	-0.041281	-0.026477	-0.033770	0.047205	-84.226899	-87.940218	-1.086289
15134	9.779464	-0.343811	-0.023215	-0.031808	-0.024037	0.050199	-84.760873	-87.914887	-0.569329
15135	9.726832	-0.280659	-0.057164	-0.028440	-0.025121	0.046131	-85.306631	-87.889925	-0.038533
15136	9.753857	-0.175711	-0.039325	-0.027642	-0.023205	0.045334	-85.795111	-87.866989	0.435307
15137	9.636537	-0.085571	-0.040299	-0.031544	-0.019663	0.041536	-86.231369	-87.844107	0.854763
15138	9.758277	0.022287	0.072666	-0.057110	-0.019725	0.040488	-86.660448	-87.823559	1.252278
15139	9.815261	-0.056895	0.135869	-0.095467	-0.011063	0.036144	-86.983410	-87.803270	1.521715
15140	9.810204	-0.174997	0.199142	-0.114111	-0.012009	0.034936	-87.312468	-87.785518	1.786462
15141	9.744234	-0.242234	0.246254	-0.118998	-0.010376	0.035620	-87.627922	-87.765397	2.034899
15142	9.670553	-0.450120	0.208946	-0.103654	-0.017097	0.040078	-88.017634	-87.744696	2.366351
15143	9.617898	-0.492576	0.133818	-0.060131	-0.022410	0.040873	-88.464311	-87.721650	2.779876
15144	9.655192	-0.525525	0.119263	-0.011106	-0.032458	0.039402	-89.006007	-87.701307	3.316512
15145	9.712471	-0.483116	0.082601	0.025642	-0.040632	0.043911	-89.643903	-87.676338	3.970609
15146	9.766452	-0.343433	-0.003404	0.047001	-0.042072	0.044007	-90.265770	-87.652889	4.620821
15147	9.766023	-0.208842	-0.047429	0.058308	-0.041510	0.041093	-90.870972	-87.628962	5.260952
15148	9.761794	-0.098913	-0.042951	0.038398	-0.040613	0.044454	-91.452678	-87.604723	5.866057
15149	9.730683	-0.114987	-0.116433	0.019628	-0.037155	0.045525	-91.994141	-87.577807	6.420232
15150	9.752330	-0.092893	-0.116810	0.007192	-0.031510	0.047977	-92.445987	-87.551308	6.877488
15151	9.704866	-0.175826	-0.076851	-0.019617	-0.024682	0.055973	-92.815079	-87.518375	7.236650
15152	9.731961	-0.317498	-0.060138	-0.031924	-0.023399	0.056168	-93.158075	-87.487188	7.562540
15153	9.743405	-0.403286	-0.028910	-0.022743	-0.027958	0.054168	-93.554218	-87.454985	7.947003
15154	9.694172	-0.437773	-0.013234	-0.034679	-0.021026	0.057314	-93.850718	-87.423052	8.224788
15155	9.709356	-0.499120	-0.030357	-0.015936	-0.024511	0.056241	-94.179837	-87.389609	8.546084
15156	9.662193	-0.598774	-0.047623	-0.008844	-0.025425	0.052386	-94.506415	-87.360149	8.868811
15157	9.685826	-0.642430	-0.080051	0.011862	-0.024454	0.048208	-94.811495	-87.331135	9.182001
15158	9.691667	-0.703060	-0.024537	0.015374	-0.025537	0.040459	-95.124738	-87.308291	9.505286
15159	9.733115	-0.588115	0.011665	0.035202	-0.031490	0.032647	-95.506400	-87.287617	9.908543
15160	9.756830	-0.629723	-0.021129	0.016561	-0.028601	0.024266	-95.864333	-87.273616	10.277262
15161	9.726672	-0.536743	-0.051932	0.037852	-0.035118	0.019883	-96.293577	-87.259743	10.729686
15162	9.707973	-0.523953	-0.048800	0.032243	-0.026628	0.018580	-96.619235	-87.248850	11.075098
15163	9.719768	-0.467392	-0.057776	0.052912	-0.030053	0.015781	-96.978268	-87.237384	11.465876
15164	9.743500	-0.507696	-0.090415	0.051433	-0.029497	0.012356	-97.330559	-87.229612	11.848967
15165	9.709614	-0.438348	-0.072165	0.053245	-0.025039	0.012911	-97.629634	-87.219927	12.179913
15166	9.710980	-0.487936	-0.049806	0.049298	-0.026478	0.004695	-97.956314	-87.216521	12.536144
15167	9.748076	-0.517658	-0.064361	0.064404	-0.034538	0.001121	-98.375827	-87.212559	12.994076
15168	9.732841	-0.461804	-0.052712	0.072156	-0.033559	0.000109	-98.778036	-87.210896	13.439040
15169	9.723234	-0.446785	-0.122477	0.084376	-0.035509	-0.005900	-99.208438	-87.210500	13.919331
15170	9.791486	-0.447039	-0.010283	0.081347	-0.029394	-0.004678	-99.565718	-87.211617	14.324585
15171	9.675670	-0.523126	-0.084346	0.079677	-0.029485	-0.010263	-99.937857	-87.213960	14.743848
15172	9.761460	-0.505906	-0.060014	0.098543	-0.032360	-0.009164	-100.329895	-87.217040	15.193765
15173	9.711003	-0.485190	-0.068665	0.093220	-0.027610	-0.010566	-100.674598	-87.219482	15.593327
15174	9.795313	-0.419098	-0.069220	0.092012	-0.030801	-0.014059	-101.065108	-87.225190	16.037966
15175	9.768288	-0.419675	-0.050180	0.089759	-0.023431	-0.019488	-101.385998	-87.232868	16.411698
15176	9.744916	-0.396084	-0.079780	0.077632	-0.025845	-0.015696	-101.734690	-87.239798	16.806216
15177	9.743127	-0.328683	-0.049598	0.070533	-0.021194	-0.019059	-102.043283	-87.247290	17.156604
15178	9.771813	-0.372950	-0.047601	0.058719	-0.019273	-0.024004	-102.351117	-87.259456	17.499362
15179	9.718049	-0.392407	-0.063838	0.070823	-0.020559	-0.020530	-102.660157	-87.267666	17.850358
15180	9.701149	-0.424113	-0.034620	0.075628	-0.022210	-0.021173	-102.990403	-87.277694	18.225248
15181	9.708100	-0.356622	-0.077473	0.084063	-0.028717	-0.025971	-103.407282	-87.287669	18.691793
15182	9.738501	-0.310776	-0.093053	0.088254	-0.027261	-0.025050	-103.806554	-87.298926	19.143022
15183	9.750301	-0.250260	-0.102606	0.081020	-0.022600	-0.024768	-104.155934	-87.308776	19.540240
15184	9.733659	-0.299223	-0.130423	0.077186	-0.018390	-0.022764	-104.456199	-87.319764	19.885996
15185	9.760723	-0.295110	-0.153412	0.067829	-0.018823	-0.021508	-104.763526	-87.328147	20.233542
15186	9.738912	-0.319911	-0.157165	0.059977	-0.015418	-0.018254	-105.029025	-87.336909	20.534619
15187	9.767476	-0.346521	-0.097285	0.053493	-0.013898	-0.023193	-105.295410	-87.346805	20.832951
15188	9.735555	-0.339471	-0.110448	0.039649	-0.012058	-0.022790	-105.551478	-87.358453	21.112924
15189	9.735622	-0.337243	-0.111409	0.036750	-0.010332	-0.023847	-105.791312	-87.369138	21.375069
15190	9.710439	-0.385283	-0.065350	0.042557	-0.009420	-0.023159	-106.019868	-87.381292	21.629163
15191	9.770776	-0.278368	-0.035952	0.042051	-0.010700	-0.023819	-106.265205	-87.391804	21.899852
15192	9.730434	-0.288045	-0.033361	0.030609	-0.011870	-0.023023	-106.534165	-87.403386	22.187536
15193	9.808100	-0.303039	-0.049377	0.021736	-0.007358	-0.028367	-106.771612	-87.416833	22.438670
15194	9.724384	-0.383687	-0.107926	0.015483	-0.008865	-0.023902	-107.020860	-87.429286	22.697941
15195	9.719461	-0.374496	-0.142017	0.017106	-0.005054	-0.025558	-107.227162	-87.441490	22.915238
15196	9.716373	-0.413472	-0.150518	0.019498	-0.008056	-0.025157	-107.473763	-87.454668	23.174158
15197	9.706238	-0.379433	-0.161089	0.018017	-0.007540	-0.028591	-107.726523	-87.468016	23.438478
15198	9.696088	-0.345260	-0.171759	0.013496	-0.009631	-0.027993	-108.012868	-87.482349	23.733734
15199	9.704540	-0.325703	-0.188183	0.009307	-0.006739	-0.030333	-108.273591	-87.496677	24.001022
15200	9.712789	-0.288035	-0.147392	0.000599	-0.005939	-0.032077	-108.544986	-87.513768	24.273912
15201	9.750125	-0.314396	-0.159472	-0.004526	-0.004921	-0.029936	-108.795582	-87.528106	24.523126
15202	9.714685	-0.312247	-0.065922	-0.007317	-0.007594	-0.033202	-109.104539	-87.545384	24.829066
15203	9.752062	-0.338221	-0.077986	-0.012305	-0.002251	-0.036156	-109.359963	-87.563484	25.078644
15204	9.708537	-0.370339	-0.025613	-0.004599	-0.005609	-0.035736	-109.661921	-87.582377	25.379131
15205	9.735640	-0.364774	-0.047616	0.004415	-0.005776	-0.035483	-109.957923	-87.599322	25.678904
15206	9.747129	-0.303174	-0.056175	0.007607	-0.011227	-0.034467	-110.328363	-87.616277	26.054925
15207	9.737093	-0.286409	-0.124344	0.017107	-0.014468	-0.032107	-110.722226	-87.629506	26.459915
15208	9.737169	-0.283259	-0.125644	0.024824	-0.013461	-0.033132	-111.115327	-87.645074	26.868481
15209	9.745745	-0.281506	-0.199564	0.023285	-0.012225	-0.027108	-111.460126	-87.655876	27.227900
15210	9.740509	-0.254032	-0.177184	0.022903	-0.013540	-0.031416	-111.855966	-87.670291	27.638099
15211	9.718908	-0.277777	-0.180583	0.011782	-0.014119	-0.032109	-112.266298	-87.683141	28.056503
15212	9.724069	-0.281425	-0.148403	0.013880	-0.013381	-0.031659	-112.676522	-87.697478	28.475916
15213	9.691883	-0.255895	-0.104704	0.016776	-0.015093	-0.030594	-113.097810	-87.709065	28.908141
15214	9.718088	-0.340545	-0.110095	0.027076	-0.020774	-0.027617	-113.584708	-87.719337	29.411849
15215	9.691410	-0.358109	-0.147459	0.043992	-0.019253	-0.026241	-114.028367	-87.727401	29.882061
15216	9.721155	-0.294034	-0.105966	0.046386	-0.022246	-0.025833	-114.520985	-87.736056	30.402562
15217	9.702510	-0.277255	-0.102161	0.044851	-0.021005	-0.019811	-114.954521	-87.740049	30.863131
15218	9.718998	-0.241870	-0.136133	0.052658	-0.033096	-0.020128	-115.556572	-87.742738	31.496742
15219	9.727886	-0.133881	-0.172905	0.049328	-0.031970	-0.016044	-116.109815	-87.741702	32.079677
15220	9.752497	-0.082188	-0.223170	0.031800	-0.030390	-0.015871	-116.662626	-87.742404	32.652049
15221	9.730859	-0.107574	-0.227408	0.006465	-0.016723	-0.015384	-117.038065	-87.744569	33.032464
15222	9.720238	-0.056581	-0.181723	0.000057	-0.010196	-0.015980	-117.350026	-87.750304	33.345596
15223	9.751602	-0.131064	-0.095666	-0.031889	-0.008091	-0.012420	-117.617697	-87.753079	33.596166
15224	9.694572	-0.301315	-0.157215	-0.041399	-0.009230	-0.013319	-117.925460	-87.757609	33.881325
15225	9.702310	-0.390937	-0.213631	-0.024882	-0.022084	-0.011901	-118.367400	-87.756227	34.310315
15226	9.717648	-0.553859	-0.268118	0.013536	-0.016201	-0.003996	-118.669511	-87.754000	34.621318
15227	9.765419	-0.596275	-0.214565	0.055068	-0.025170	0.002040	-119.005119	-87.744565	34.989739
15228	9.747237	-0.492259	-0.228285	0.064073	-0.012245	-0.002078	-119.212036	-87.742321	35.234457
15229	9.745441	-0.354221	-0.273182	0.077596	-0.015381	-0.010422	-119.496165	-87.741729	35.564278
15230	9.713824	-0.240921	-0.247216	0.058883	-0.008333	-0.016620	-119.760783	-87.747729	35.863766
15231	9.724447	-0.288672	-0.294646	0.035177	-0.004680	-0.022876	-120.025715	-87.756256	36.150050
15232	9.708111	-0.301736	-0.206168	0.030065	0.000680	-0.022196	-120.237414	-87.767498	36.380054
15233	9.750829	-0.335232	-0.184208	0.017965	-0.002494	-0.024193	-120.498661	-87.777217	36.652776
15234	9.726897	-0.293059	-0.155255	0.019586	-0.003790	-0.033846	-120.866498	-87.792796	37.033023
15235	9.727076	-0.307937	-0.212242	0.009280	0.001863	-0.036828	-121.180657	-87.809883	37.353711
15236	9.719049	-0.321020	-0.196332	0.008282	-0.000708	-0.038138	-121.559750	-87.828295	37.738734
15237	9.737898	-0.331808	-0.202146	0.011783	-0.001169	-0.040056	-121.948410	-87.845883	38.135404
15238	9.719299	-0.313288	-0.196460	0.013682	-0.001089	-0.041760	-122.372095	-87.865721	38.568138
15239	9.757070	-0.230417	-0.169376	0.019581	-0.000183	-0.044728	-122.796354	-87.885649	39.004893
15240	9.719906	-0.233782	-0.271774	0.015274	-0.001630	-0.041965	-123.244063	-87.905165	39.462569
15241	9.736090	-0.178104	-0.246730	0.010967	-0.003077	-0.039203	-123.679498	-87.921288	39.905558
15242	9.752235	-0.122477	-0.221461	-0.004453	0.003558	-0.040055	-124.069397	-87.941293	40.294068
15243	9.717472	-0.155833	-0.240747	-0.007350	0.000904	-0.039656	-124.481050	-87.958684	40.702748
15244	9.701362	-0.185526	-0.208710	-0.021277	0.007040	-0.037077	-124.821871	-87.978227	41.032495
15245	9.712133	-0.213085	-0.198107	-0.013270	0.004348	-0.038140	-125.190564	-87.995851	41.394785
15246	9.682717	-0.253160	-0.183804	-0.010370	0.002651	-0.037071	-125.597171	-88.013778	41.796605
15247	9.709669	-0.247373	-0.205219	-0.003768	0.001166	-0.035773	-125.993552	-88.029059	42.192039
15248	9.720486	-0.275218	-0.194732	0.011210	0.007033	-0.034167	-126.313567	-88.046929	42.519581
15249	9.707070	-0.263785	-0.154872	0.030122	0.004318	-0.036691	-126.669291	-88.063539	42.893756
15250	9.715022	-0.225607	-0.113160	0.030899	0.006984	-0.028095	-126.928205	-88.078470	43.171444
15251	9.749879	-0.114201	-0.168566	0.046227	-0.000338	-0.033020	-127.311624	-88.091653	43.582555
15252	9.731107	-0.096738	-0.162659	0.038404	0.003012	-0.029805	-127.647898	-88.105864	43.941945
15253	9.747224	-0.060552	-0.194166	0.037308	0.000484	-0.027470	-127.976516	-88.116657	44.293106
15254	9.741966	-0.051663	-0.227529	0.025297	0.002330	-0.025144	-128.288995	-88.128393	44.621170
15255	9.726146	-0.101170	-0.252382	0.016790	0.003722	-0.024737	-128.562659	-88.138988	44.905582
15256	9.707609	-0.173527	-0.227595	0.014774	0.007273	-0.030282	-128.878054	-88.154682	45.230527
15257	9.720975	-0.160549	-0.209296	0.006680	0.005648	-0.024118	-129.131274	-88.165601	45.488685
15258	9.716050	-0.240999	-0.223644	0.011072	0.007056	-0.030509	-129.464086	-88.181204	45.828931
15259	9.756023	-0.207283	-0.169844	0.019050	0.009500	-0.023605	-129.657742	-88.193222	46.034580
15260	9.726693	-0.177999	-0.230367	0.023260	0.006656	-0.021252	-129.890071	-88.204503	46.281277
15261	9.753328	-0.155370	-0.194098	0.032619	0.012250	-0.018170	-129.978441	-88.215101	46.389366
15262	9.702100	-0.116776	-0.142235	0.032811	0.012920	-0.016021	-130.059384	-88.226356	46.490077
15263	9.708008	-0.158581	-0.221408	0.030543	0.007144	-0.017140	-130.211489	-88.234606	46.660740
15264	9.737361	-0.112925	-0.234702	0.026132	0.009315	-0.021638	-130.418359	-88.246959	46.883609
15265	9.713368	-0.161188	-0.186224	0.019451	0.006484	-0.017836	-130.598492	-88.255231	47.075953
15266	9.718672	-0.165812	-0.151925	0.013042	0.008621	-0.016995	-130.770882	-88.265259	47.256821
15267	9.694588	-0.143342	-0.179053	0.017651	0.006347	-0.019768	-130.981823	-88.274280	47.478953
15268	9.734764	-0.128653	-0.182493	0.014574	0.003012	-0.021516	-131.295147	-88.284098	47.801697
15269	9.715576	-0.093730	-0.119737	0.017675	0.001998	-0.018297	-131.555084	-88.290772	48.072859
15270	9.742821	-0.108179	-0.197938	0.012182	0.001637	-0.020465	-131.882370	-88.299518	48.408198
15271	9.707977	-0.125158	-0.160377	0.007996	0.000124	-0.021351	-132.219284	-88.306685	48.750820
15272	9.726885	-0.137536	-0.165930	0.003189	0.001724	-0.020723	-132.560455	-88.315455	49.094892
15273	9.719284	-0.171019	-0.206894	0.010311	-0.002796	-0.017292	-132.889951	-88.319657	49.431418
15274	9.732199	-0.140377	-0.132314	0.011455	0.004806	-0.015311	-133.115645	-88.327250	49.664701
15275	9.726955	-0.132938	-0.165560	0.018772	0.000960	-0.009735	-133.288351	-88.329687	49.849218
15276	9.737298	-0.073596	-0.173979	0.026259	0.001355	-0.012900	-133.525230	-88.334867	50.102177
15277	9.724059	-0.083088	-0.191522	0.023770	0.000035	-0.008214	-133.688981	-88.336269	50.280598
15278	9.702840	-0.109402	-0.193222	0.018278	-0.000331	-0.010384	-133.922233	-88.339688	50.525353
15279	9.748617	-0.120578	-0.220336	0.017165	0.001493	-0.009523	-134.087917	-88.342174	50.701924
15280	9.706188	-0.174004	-0.223634	0.012982	-0.000024	-0.010409	-134.321914	-88.345673	50.944389
15281	9.740672	-0.135189	-0.204181	-0.003915	0.002663	-0.013267	-134.536513	-88.350122	51.157811
15282	9.727455	-0.144268	-0.221609	-0.002508	0.001458	-0.015618	-134.833703	-88.356274	51.454616
15283	9.732748	-0.149150	-0.187804	-0.014311	0.003949	-0.011177	-135.009246	-88.360343	51.623005
15284	9.719537	-0.158311	-0.205159	-0.013100	0.002070	-0.015672	-135.308153	-88.366688	51.915457
15285	9.735497	-0.123393	-0.236919	-0.013885	0.000161	-0.014831	-135.591673	-88.370635	52.192110
15286	9.759691	-0.142642	-0.208931	-0.011599	0.001594	-0.012243	-135.850737	-88.375325	52.445563
15287	9.708256	-0.104667	-0.158166	-0.015722	0.005153	-0.008822	-135.980355	-88.378866	52.567199
15288	9.754057	-0.115575	-0.185024	-0.015000	0.001985	-0.013969	-136.263492	-88.384350	52.842785
15289	9.703440	-0.114820	-0.247853	-0.017327	0.005684	-0.008612	-136.385057	-88.388003	52.955444
15290	9.740874	-0.123801	-0.201770	-0.015331	0.005717	-0.013946	-136.618579	-88.394972	53.181206
15291	9.727675	-0.132897	-0.219055	-0.015003	0.001986	-0.013967	-136.872285	-88.399162	53.427390
15292	9.751888	-0.152033	-0.190754	-0.020337	0.006639	-0.015461	-137.122248	-88.407049	53.666730
15293	9.738707	-0.160897	-0.207753	-0.020044	0.007257	-0.016951	-137.353582	-88.414557	53.887641
15294	9.727774	-0.128258	-0.217389	-0.020634	0.006020	-0.013967	-137.594002	-88.421543	54.117263
15295	9.730837	-0.174677	-0.190244	-0.006225	0.015017	-0.014469	-137.674196	-88.431335	54.194896
15296	9.725166	-0.148295	-0.165783	-0.001280	0.009022	-0.017262	-137.916328	-88.440821	54.437324
15297	9.725202	-0.146869	-0.164946	0.003623	0.008154	-0.012110	-138.053858	-88.446774	54.577960
15298	9.706305	-0.131066	-0.158387	0.004799	0.010631	-0.018071	-138.287097	-88.457209	54.814974
15299	9.735437	-0.085464	-0.171620	0.014317	0.007502	-0.015687	-138.487877	-88.464216	55.025009
15300	9.728004	-0.119556	-0.212018	0.017950	0.003434	-0.010350	-138.696462	-88.468582	55.244898
15301	9.717029	-0.087558	-0.221853	0.022130	0.004956	-0.009459	-138.831320	-88.472103	55.393466
15302	9.700300	-0.030868	-0.208304	0.017026	0.005928	-0.007344	-138.958433	-88.476376	55.531326
15303	9.746145	-0.041985	-0.235094	0.004481	0.001361	-0.010012	-139.164553	-88.478528	55.741064
15304	9.753593	-0.005912	-0.193738	0.010319	0.007430	-0.005021	-139.237912	-88.482560	55.821307
15305	9.714041	-0.036999	-0.246020	-0.006353	0.006416	-0.004270	-139.285835	-88.484741	55.866583
15306	9.724543	-0.048953	-0.178274	-0.000763	0.006736	-0.005731	-139.387900	-88.488731	55.969191
15307	9.720201	-0.131528	-0.192211	-0.008485	0.010004	-0.006183	-139.418266	-88.493182	55.995682
15308	9.723285	-0.178795	-0.165147	0.003418	0.008259	-0.004841	-139.482378	-88.497495	56.062721
15309	9.729078	-0.203180	-0.187619	0.008715	0.007961	-0.004810	-139.509506	-88.500544	56.095831
15310	9.744999	-0.169093	-0.218613	0.012508	0.008139	-0.008206	-139.626623	-88.506044	56.221105
15311	9.750263	-0.174511	-0.184133	0.016982	0.010281	-0.008804	-139.683499	-88.511585	56.288711
15312	9.758240	-0.156919	-0.199215	0.009930	0.006086	-0.009303	-139.851280	-88.516572	56.463187
15313	9.726142	-0.152137	-0.210487	0.007797	0.009673	-0.011216	-139.964436	-88.522729	56.581828
15314	9.758308	-0.154840	-0.197525	0.011002	0.008614	-0.011629	-140.137344	-88.529652	56.762050
15315	9.725641	-0.131335	-0.151633	0.013242	0.014399	-0.010508	-140.169608	-88.537615	56.802890
15316	9.703632	-0.068188	-0.171118	0.014694	0.008847	-0.011388	-140.335431	-88.544530	56.978141
15317	9.751673	-0.037494	-0.189870	0.015665	0.011431	-0.010082	-140.403265	-88.551024	57.055952
15318	9.704281	-0.084985	-0.225995	0.014105	0.007611	-0.008406	-140.537662	-88.556287	57.199428
15319	9.725404	-0.057127	-0.223461	0.016092	0.008430	-0.004327	-140.548849	-88.559351	57.220819
15320	9.723308	-0.098153	-0.229649	0.024018	0.014482	-0.008294	-140.577245	-88.567602	57.263944
15321	9.728550	-0.103786	-0.194566	0.028093	0.016065	-0.003767	-140.460303	-88.573839	57.164043
15322	9.688513	-0.116256	-0.189330	0.028530	0.012277	-0.007417	-140.502771	-88.580790	57.223832
15323	9.712711	-0.136131	-0.160270	0.026969	0.008458	-0.005739	-140.532886	-88.584382	57.270390
15324	9.744854	-0.139394	-0.147065	0.027114	0.013481	-0.005067	-140.516658	-88.591003	57.270654
15325	9.731737	-0.149791	-0.163568	0.036038	0.009132	0.000319	-140.422837	-88.592684	57.198436
15326	9.725905	-0.125011	-0.139585	0.047444	0.006105	0.001033	-140.394126	-88.593815	57.197866
15327	9.722839	-0.077542	-0.165318	0.041853	0.005784	0.002489	-140.307628	-88.593222	57.136306
15328	9.749781	-0.075358	-0.186280	0.035880	0.004109	-0.000341	-140.339742	-88.593972	57.189953
15329	9.768773	-0.089995	-0.191065	0.050677	0.010134	0.004937	-140.139315	-88.594395	57.019487
15330	9.709740	-0.089203	-0.180492	0.054020	0.014100	0.005202	-139.911601	-88.597494	56.823625
15331	9.703910	-0.064692	-0.156077	0.054939	0.011600	0.002213	-139.734686	-88.599535	56.679121
15332	9.722906	-0.079302	-0.160499	0.061337	0.009483	0.001409	-139.639211	-88.601990	56.619732
15333	9.707678	-0.131853	-0.184320	0.055261	0.007870	0.002213	-139.518151	-88.602389	56.531285
15334	9.737686	-0.177467	-0.178322	0.061319	0.009484	0.001424	-139.421808	-88.604829	56.471019
15335	9.723872	-0.169385	-0.138295	0.073189	0.007753	0.002814	-139.281308	-88.604945	56.373401
15336	9.747782	-0.120281	-0.185714	0.076507	0.003102	0.009680	-139.126622	-88.601510	56.263481
15337	9.717093	-0.056735	-0.133617	0.076742	0.008058	0.006715	-138.910568	-88.600278	56.092322
15338	9.719217	-0.015790	-0.126058	0.066015	0.003622	0.005974	-138.820346	-88.598445	56.040873
15339	9.722952	-0.083170	-0.155652	0.060238	0.002623	0.005284	-138.723428	-88.595393	55.979427
15340	9.698122	-0.044364	-0.126831	0.059597	0.005744	0.006786	-138.590343	-88.594162	55.881424
15341	9.692979	-0.039342	-0.160113	0.055950	0.001168	0.008033	-138.471069	-88.589436	55.795158
15342	9.749904	-0.083345	-0.176178	0.055459	-0.000127	0.007392	-138.421008	-88.585448	55.777833
15343	9.704672	-0.091277	-0.205880	0.055451	-0.000126	0.007398	-138.333980	-88.580403	55.723536
15344	9.717789	-0.081291	-0.188432	0.059755	-0.003013	0.006165	-138.347312	-88.575641	55.772086
15345	9.755725	-0.110710	-0.199358	0.051083	-0.002344	0.004372	-138.349165	-88.570799	55.804195
15346	9.696659	-0.109728	-0.190195	0.047880	-0.001282	0.004772	-138.366425	-88.567302	55.849870
15347	9.706779	-0.052377	-0.199619	0.047959	-0.000512	0.010547	-138.236782	-88.560891	55.748651
15348	9.733035	-0.031637	-0.164567	0.039397	0.000075	0.005118	-138.232446	-88.557840	55.767862
15349	9.725739	-0.068112	-0.205058	0.025793	-0.002693	0.003268	-138.272723	-88.553271	55.823912
15350	9.733719	-0.052005	-0.221412	0.018918	-0.001866	0.003409	-138.338096	-88.550038	55.901118
15351	9.738858	-0.058000	-0.187954	0.007882	-0.002571	0.002652	-138.396569	-88.545753	55.965104
15352	9.696613	-0.112575	-0.190892	0.003005	-0.001752	-0.002531	-138.569046	-88.544817	56.140331
15353	9.713423	-0.168517	-0.203276	-0.002228	-0.005794	-0.001086	-138.743381	-88.540552	56.314422
15354	9.702431	-0.137514	-0.214665	-0.002229	-0.005794	-0.001086	-138.952994	-88.537292	56.523798
15355	9.736677	-0.099262	-0.196273	-0.005129	-0.004126	-0.002187	-139.121171	-88.534133	56.690067
15356	9.761473	-0.138604	-0.224793	-0.011709	-0.002692	-0.003540	-139.330768	-88.533096	56.893994
15357	9.772463	-0.169029	-0.214120	-0.006959	0.000053	-0.005630	-139.496554	-88.533011	57.056823
15358	9.755651	-0.112522	-0.201927	-0.005802	0.003337	-0.002201	-139.591997	-88.534067	57.149945
15359	9.733686	-0.050338	-0.223248	-0.000422	0.002958	-0.005778	-139.714599	-88.535288	57.273323
15360	9.744680	-0.080797	-0.212327	-0.018100	-0.000570	-0.002754	-139.883316	-88.534825	57.432695
15361	9.717738	-0.082500	-0.190500	-0.020078	0.008030	-0.004064	-139.914866	-88.537622	57.453726
15362	9.715606	-0.123859	-0.196960	-0.024156	-0.002178	-0.001961	-140.096693	-88.536143	57.622743
15363	9.709770	-0.098167	-0.174113	-0.029373	0.002374	-0.007146	-140.268479	-88.537579	57.778727
15364	9.700358	-0.175111	-0.221178	-0.033833	0.000234	-0.006548	-140.500246	-88.538808	57.992155
15365	9.734612	-0.136300	-0.202004	-0.028117	0.005575	-0.007344	-140.629757	-88.541706	58.106570
15366	9.728780	-0.110483	-0.178715	-0.025510	0.003298	-0.004750	-140.782407	-88.543603	58.245626
15367	9.720814	-0.126426	-0.162254	-0.026817	0.004437	-0.006045	-140.905556	-88.545512	58.354422
15368	9.729512	-0.128487	-0.234748	-0.028459	-0.000139	-0.010121	-141.203624	-88.547786	58.637254
15369	9.713574	-0.160663	-0.202440	-0.022025	0.002846	-0.006634	-141.357788	-88.549174	58.779821
15370	9.769820	-0.183697	-0.161732	-0.005893	0.002573	-0.007966	-141.567685	-88.551836	58.987388
15371	9.732592	-0.173437	-0.207345	-0.002402	0.002122	-0.009854	-141.778900	-88.554017	59.198271
15372	9.739866	-0.136635	-0.166751	0.009463	0.000395	-0.008452	-142.020282	-88.555821	59.446133
15373	9.730971	-0.063267	-0.170564	0.009945	0.001691	-0.007805	-142.194831	-88.557047	59.627415
15374	9.710615	-0.109145	-0.228395	0.011837	0.001771	-0.009494	-142.435447	-88.559792	59.875873
15375	9.717872	-0.072389	-0.187786	0.011543	0.001162	-0.008001	-142.620829	-88.560812	60.068907
15376	9.693746	-0.051523	-0.215909	0.008345	0.002221	-0.007606	-142.824230	-88.563058	60.278136
15377	9.731734	-0.079786	-0.226324	0.012405	0.003834	-0.003077	-142.883215	-88.563566	60.345227
15378	9.738980	-0.043166	-0.185581	0.008449	0.002142	-0.011237	-143.154965	-88.566996	60.622887
15379	9.700628	-0.163926	-0.217893	0.011921	0.002538	-0.003722	-143.244146	-88.567121	60.719905
15380	9.707871	-0.127552	-0.177076	0.027227	0.004705	-0.005699	-143.369377	-88.569792	60.861764
15381	9.718910	-0.158091	-0.165879	0.031916	0.003196	-0.002657	-143.418660	-88.569847	60.930332
15382	9.761814	-0.122647	-0.219215	0.028528	0.003567	-0.004400	-143.534972	-88.571536	61.064015
15383	9.729725	-0.118718	-0.231043	0.033803	0.003276	-0.004342	-143.613363	-88.572196	61.162781
15384	9.728985	-0.098999	-0.174244	0.034812	0.001531	-0.001550	-143.701260	-88.571959	61.271643
15385	9.742099	-0.088038	-0.156284	0.036843	0.006637	-0.002597	-143.699936	-88.573574	61.292411
15386	9.724625	-0.112256	-0.263531	0.028140	0.002186	-0.008669	-143.915061	-88.576039	61.524717
15387	9.729781	-0.117123	-0.229483	0.030994	0.004859	-0.009065	-144.062334	-88.579006	61.690776
15388	9.708739	-0.143642	-0.230314	0.029393	0.005388	-0.008868	-144.238633	-88.582981	61.884963
15389	9.721866	-0.131890	-0.212145	0.037331	0.007079	-0.011343	-144.396757	-88.587719	62.065509
15390	9.740899	-0.145361	-0.216643	0.035919	0.008300	-0.009008	-144.534543	-88.593064	62.224911
15391	9.741952	-0.013785	-0.229605	0.028562	0.007822	-0.009515	-144.655042	-88.597520	62.362794
15392	9.741974	-0.012735	-0.228751	0.009648	0.009662	-0.012938	-144.867074	-88.604775	62.581409
15393	9.731992	-0.069660	-0.218410	-0.000559	0.006510	-0.013049	-145.092625	-88.609755	62.807683
15394	9.714061	-0.143085	-0.191975	0.003598	0.008048	-0.012149	-145.318800	-88.615948	63.036977
15395	9.743093	-0.098201	-0.206157	-0.001145	0.005298	-0.010063	-145.505890	-88.619343	63.224443
15396	9.738000	-0.091463	-0.239098	-0.004579	0.010000	-0.013315	-145.736731	-88.626790	63.453718
15397	9.744345	-0.034319	-0.141474	-0.005542	0.007404	-0.014602	-145.990805	-88.632608	63.705666
15398	9.716205	-0.096349	-0.182256	-0.004288	0.010606	-0.014806	-146.248060	-88.640769	63.961530
15399	9.713122	-0.047832	-0.208519	-0.002745	0.005827	-0.009867	-146.430771	-88.644281	64.143696
15400	9.733006	-0.080967	-0.269758	0.007511	0.004647	-0.008249	-146.632429	-88.647474	64.350709
15401	9.702089	-0.015333	-0.218049	-0.000049	0.012924	-0.008138	-146.685503	-88.653814	64.404747
15402	9.746143	0.081611	-0.207994	0.002664	0.001982	-0.002535	-146.810825	-88.653911	64.532626
15403	9.721159	0.121608	-0.179314	-0.029859	0.010469	-0.005069	-146.852067	-88.658108	64.557744
15404	9.729126	-0.011811	-0.237353	-0.029809	0.006133	-0.003565	-146.962544	-88.660516	64.652164
15405	9.734244	-0.017411	-0.202994	-0.025864	0.007843	0.004598	-146.838523	-88.660428	64.514263
15406	9.721201	-0.028704	-0.219706	-0.025386	0.009141	0.005244	-146.725376	-88.661515	64.387535
15407	9.758401	-0.038262	-0.172923	-0.027467	0.008372	0.004795	-146.591020	-88.661604	64.238377
15408	9.742261	-0.002210	-0.216534	-0.039139	0.010771	0.005512	-146.457819	-88.663371	64.083709
15409	9.722355	-0.119111	-0.196723	-0.045194	0.009154	0.006300	-146.291998	-88.663338	63.892918
15410	9.739400	-0.175414	-0.207952	-0.040003	0.008095	0.000598	-146.295632	-88.665374	63.874628
15411	9.694276	-0.182888	-0.237097	-0.027958	0.007074	0.004159	-146.191865	-88.665022	63.755787
15412	9.722391	-0.119829	-0.194516	-0.025587	0.008451	0.003120	-146.130187	-88.666412	63.680430
15413	9.711347	-0.089234	-0.204673	-0.023164	0.005490	0.003576	-146.057288	-88.665486	63.595212
15414	9.764465	-0.065648	-0.190355	-0.029750	0.006914	0.002220	-146.037133	-88.666425	63.559005
15415	9.735471	-0.109574	-0.175072	-0.042098	0.007329	0.000157	-146.019574	-88.667465	63.518291
15416	9.762495	-0.107214	-0.195688	-0.035754	0.009557	-0.002115	-146.054803	-88.671045	63.534043
15417	9.717548	-0.183971	-0.147949	-0.038477	0.011910	-0.001073	-145.996907	-88.674655	63.455056
15418	9.717570	-0.183615	-0.146948	-0.028292	0.009961	-0.005227	-146.086014	-88.679418	63.528977
15419	9.704553	-0.193763	-0.163678	-0.017918	0.008699	-0.007244	-146.188226	-88.683474	63.621924
15420	9.706573	-0.151229	-0.155953	-0.008370	0.009872	-0.009908	-146.365281	-88.689671	63.795233
15421	9.723603	-0.056237	-0.123774	-0.012639	0.008411	-0.007183	-146.468765	-88.693559	63.892478
15422	9.737605	-0.064120	-0.161867	-0.008479	0.009948	-0.006277	-146.570666	-88.698627	63.990551
15423	9.713536	-0.043329	-0.189351	-0.011040	0.007883	-0.007378	-146.685978	-88.702316	64.100543
15424	9.738603	-0.082180	-0.216865	-0.013229	0.007190	-0.004200	-146.786243	-88.705400	64.194257
15425	9.732609	-0.056540	-0.193295	-0.008133	0.006218	-0.006278	-146.900780	-88.707936	64.305139
15426	9.736672	-0.122567	-0.222605	-0.003518	0.003949	-0.009004	-147.143835	-88.710945	64.547246
15427	9.729695	-0.077373	-0.142638	-0.010215	0.005449	-0.006730	-147.281062	-88.713235	64.679631
15428	9.691763	-0.197970	-0.175025	-0.000849	0.005939	-0.011532	-147.551447	-88.717943	64.950604
15429	9.786863	-0.118279	-0.157933	0.011531	-0.003918	-0.012259	-147.925362	-88.717358	65.332198
15430	9.714760	-0.126706	-0.166425	0.000456	0.004801	-0.010237	-148.184917	-88.721046	65.593087
15431	9.724699	-0.067217	-0.175482	0.006836	-0.002411	-0.015300	-148.608580	-88.722012	66.021750
15432	9.718678	-0.040600	-0.152256	-0.006854	0.008582	-0.015868	-148.948977	-88.729148	66.359311
15433	9.722804	-0.105857	-0.181528	-0.005678	0.002417	-0.015224	-149.317709	-88.732342	66.725856
15434	9.714671	-0.050981	-0.241635	-0.008294	0.004692	-0.017812	-149.760199	-88.738019	67.164709
15435	9.725784	-0.080157	-0.230399	-0.002533	0.005705	-0.017101	-150.131463	-88.743268	67.535588
15436	9.706748	-0.064407	-0.224442	-0.003764	0.007603	-0.012627	-150.422727	-88.748789	67.825774
15437	9.716641	-0.004954	-0.232933	-0.006138	0.006222	-0.011590	-150.668787	-88.752657	68.069352
15438	9.713525	0.043500	-0.258928	-0.010278	0.009784	-0.008215	-150.838426	-88.757975	68.234152
15439	9.701789	-0.055599	-0.255760	-0.012359	0.009014	-0.008668	-150.987523	-88.762393	68.377178
15440	9.727807	-0.033228	-0.219697	-0.002087	0.007839	-0.007053	-151.153147	-88.766387	68.542658
15441	9.729716	0.009029	-0.211938	-0.010388	0.009858	-0.004586	-151.196832	-88.770087	68.581376
15442	9.742724	0.020306	-0.193542	-0.013719	0.005883	-0.004848	-151.344154	-88.772475	68.721885
15443	9.716764	-0.000704	-0.227797	-0.021014	0.014764	-0.006194	-151.369518	-88.779081	68.736188
15444	9.742143	-0.109614	-0.178361	-0.010020	0.011229	-0.000306	-151.339755	-88.782903	68.701692
15445	9.732941	-0.037110	-0.180891	-0.003302	0.014837	0.001706	-151.166419	-88.787369	68.527402
15446	9.752040	-0.051672	-0.184890	0.000915	0.012036	0.004099	-151.014020	-88.790369	68.376509
15447	9.758943	-0.016235	-0.143261	-0.001937	0.009357	0.004485	-150.844249	-88.791296	68.206568
15448	9.732995	-0.038385	-0.177692	-0.002525	0.008134	0.007464	-150.664591	-88.791384	68.026440
15449	9.753967	-0.011703	-0.175290	-0.006207	0.007890	0.007205	-150.452221	-88.790790	67.811443
15450	9.740997	-0.023256	-0.192353	-0.007752	0.004074	0.008884	-150.296664	-88.788427	67.652427
15451	9.721931	-0.009771	-0.186588	-0.005378	0.005456	0.007849	-150.102256	-88.786411	67.455871
15452	9.713160	-0.087925	-0.233649	-0.003960	0.004245	0.005515	-150.022230	-88.785076	67.374576
15453	9.744112	-0.072964	-0.164175	-0.001513	0.006384	0.010249	-149.758094	-88.782807	67.110491
15454	9.734226	-0.132170	-0.154276	0.003714	0.010443	0.008830	-149.512416	-88.783558	66.867906
15455	9.748320	-0.141234	-0.192385	0.000788	0.007008	0.003446	-149.397384	-88.783536	66.754277
15456	9.740334	-0.158319	-0.175419	0.006382	0.012436	0.006308	-149.180321	-88.785970	66.541843
15457	9.737278	-0.111367	-0.200927	0.008278	0.012521	0.004624	-148.956646	-88.788295	66.323839
15458	9.724321	-0.122496	-0.217556	0.003162	0.008389	0.002413	-148.886605	-88.789859	66.256615
15459	9.734277	-0.134241	-0.149160	0.003400	0.013343	-0.000560	-148.773339	-88.794105	66.146251
15460	9.716364	-0.138944	-0.199404	0.001784	0.008769	-0.004650	-148.862564	-88.797942	66.237539
15461	9.708387	-0.154879	-0.182414	-0.004217	0.011414	-0.008989	-148.978047	-88.803738	66.351608
15462	9.720641	-0.204054	-0.227422	0.006519	0.006432	-0.011001	-149.248683	-88.808276	66.627060
15463	9.687482	-0.180213	-0.182482	0.017857	0.007774	-0.011705	-149.470288	-88.813052	66.859924
15464	9.702356	-0.126745	-0.157332	0.026878	0.003393	-0.009892	-149.748617	-88.815707	67.154739
15465	9.713436	-0.086761	-0.222316	0.028068	0.010940	-0.011562	-149.920255	-88.821970	67.343475
15466	9.731370	-0.080786	-0.170111	0.037086	0.006560	-0.009745	-150.148116	-88.826103	67.593661
15467	9.723360	-0.026532	-0.230023	0.036423	0.004577	-0.012531	-150.430681	-88.829444	67.898135
15468	9.706156	0.030595	-0.217252	0.025503	0.008871	-0.012664	-150.708339	-88.835499	68.191490
15469	9.730208	0.011623	-0.187887	0.018800	0.010365	-0.010401	-150.872855	-88.841084	68.367792
15470	9.682185	-0.017106	-0.167373	0.022833	0.006880	-0.010139	-151.121882	-88.845393	68.630980
15471	9.696350	-0.024595	-0.205644	0.017368	0.006473	-0.012347	-151.392790	-88.849529	68.912873
15472	9.701305	-0.029345	-0.171322	0.017254	0.006551	-0.008719	-151.617563	-88.853234	69.148607
15473	9.714258	-0.017864	-0.152895	0.023668	0.009554	-0.005209	-151.666074	-88.856943	69.211668
15474	9.754303	-0.004045	-0.155859	0.019979	0.004201	-0.009751	-151.949668	-88.859714	69.507794
15475	9.709346	-0.010780	-0.185334	0.013936	0.007680	-0.004704	-152.017727	-88.862332	69.584831
15476	9.739562	-0.055277	-0.179006	0.011971	0.006829	-0.008789	-152.248130	-88.866142	69.823167
15477	9.720474	-0.040168	-0.173277	0.010724	0.003624	-0.008597	-152.473700	-88.867726	70.055905
15478	9.747585	-0.037056	-0.194203	0.007045	0.003377	-0.008862	-152.757279	-88.869756	70.344604
15479	9.720491	-0.038494	-0.172720	-0.001081	0.000976	-0.008552	-153.024840	-88.869935	70.612575
15480	9.716870	-0.121113	-0.185920	0.001115	0.006777	-0.007446	-153.231876	-88.873282	70.821321
15481	9.726699	-0.061829	-0.194642	0.005850	0.004433	-0.013786	-153.588131	-88.876527	71.181973
15482	9.717408	0.011540	-0.198106	-0.002201	0.007907	-0.003435	-153.679630	-88.879391	71.273259
15483	9.709424	-0.004212	-0.181514	-0.005479	0.003082	-0.013093	-154.044730	-88.881710	71.636266
15484	9.698309	0.027672	-0.192102	-0.009564	0.002304	-0.008243	-154.340982	-88.882864	71.928126
15485	9.717426	0.014286	-0.197028	-0.010872	0.003438	-0.009540	-154.612628	-88.884413	72.194569
15486	9.731625	0.006580	-0.235549	-0.015972	0.004403	-0.007475	-154.867163	-88.886411	72.441032
15487	9.709452	-0.000811	-0.180032	-0.022198	0.007191	-0.004569	-154.967078	-88.888660	72.529222
15488	9.717450	0.016578	-0.195670	-0.026064	0.001148	-0.011250	-155.370653	-88.889835	72.918970
15489	9.747702	-0.027567	-0.189895	-0.029383	0.002276	-0.007238	-155.608130	-88.890139	73.140630
15490	9.726815	-0.054275	-0.191059	-0.029269	0.007304	-0.006583	-155.813946	-88.893355	73.330747
15491	9.699721	-0.055688	-0.169218	-0.031710	0.005157	-0.011316	-156.129601	-88.896082	73.629265
15492	9.754421	0.011189	-0.147915	-0.043522	0.002503	-0.011271	-156.531109	-88.897814	74.006942
15493	9.713955	-0.061749	-0.207524	-0.048516	0.003390	-0.012827	-156.921554	-88.899877	74.370634
15494	9.721950	-0.043592	-0.223427	-0.051732	-0.000663	-0.016719	-157.516708	-88.901031	74.937287
15495	9.681945	-0.055122	-0.219992	-0.055714	-0.001524	-0.015490	-158.043025	-88.900936	75.432751
15496	9.736283	-0.118602	-0.186620	-0.040457	-0.008671	-0.016582	-158.716172	-88.897570	76.083875
15497	9.781220	-0.109711	-0.157051	-0.030722	-0.001687	-0.012795	-159.153138	-88.896641	76.504293
15498	9.752664	-0.021915	-0.155568	-0.026205	0.001227	-0.007601	-159.459097	-88.896557	76.796329
15499	9.739772	-0.031740	-0.173240	-0.015997	-0.000687	-0.011738	-159.846837	-88.895854	77.175951
15500	9.720638	-0.016430	-0.167889	-0.016652	0.002430	-0.010240	-160.208522	-88.896862	77.529198
15501	9.699783	-0.042745	-0.169468	-0.013626	0.000700	-0.012767	-160.609632	-88.897009	77.923550
15502	9.760643	-0.000831	-0.171271	-0.012317	-0.000437	-0.011473	-161.032103	-88.896603	78.340079
15503	9.714010	-0.048642	-0.208447	-0.019390	-0.000324	-0.013486	-161.466443	-88.896215	78.764365
15504	9.701124	-0.058128	-0.226321	-0.013268	-0.003030	-0.012776	-161.949264	-88.894506	79.240711
15505	9.744349	-0.091145	-0.203511	-0.009585	-0.002778	-0.012512	-162.371309	-88.892478	79.658319
15506	9.778091	-0.051771	-0.183941	-0.001158	0.005344	-0.010019	-162.692145	-88.894735	79.979590
15507	9.755930	-0.059121	-0.128396	-0.001995	0.007777	-0.010659	-162.964317	-88.898078	80.251647
15508	9.760656	0.006054	-0.170430	0.001758	0.003685	-0.008920	-163.268796	-88.899178	80.558228
15509	9.781500	0.034285	-0.168080	-0.000028	0.008620	-0.006575	-163.418442	-88.902266	80.708862
15510	9.717443	0.041790	-0.192259	-0.003056	0.005252	-0.008337	-163.697276	-88.904087	80.987035
15511	9.704571	0.031918	-0.209515	-0.001633	0.004047	-0.010670	-164.005787	-88.905285	81.295644
15512	9.706248	0.074350	-0.202038	-0.006851	0.005068	-0.004974	-164.192879	-88.906425	81.479885
15513	9.696629	0.016613	-0.192863	-0.005065	0.000134	-0.007320	-164.439122	-88.904897	81.724248
15514	9.714126	-0.038831	-0.205041	-0.006126	0.002703	-0.000709	-164.521808	-88.904052	81.804480
15515	9.747831	-0.000460	-0.185190	0.002008	0.005119	-0.001016	-164.541570	-88.904296	81.826373
15516	9.722097	-0.021949	-0.220166	0.005217	0.004075	-0.001405	-164.626618	-88.904309	81.915468
15517	9.752479	-0.066842	-0.214224	0.002774	0.007030	-0.001850	-164.654922	-88.905735	81.946344
15518	9.730294	-0.075034	-0.158549	0.012512	0.008924	-0.002351	-164.724678	-88.908563	82.024326
15519	9.742904	-0.124749	-0.203600	0.021774	0.009521	-0.003503	-164.770647	-88.911614	82.083759
15520	9.711167	-0.060288	-0.151288	0.028300	0.012460	-0.003613	-164.840416	-88.916579	82.170801
15521	9.699977	-0.029079	-0.161023	0.024506	0.007180	-0.004539	-164.934482	-88.918488	82.279904
15522	9.703042	-0.006051	-0.210160	0.019402	0.003036	-0.006759	-165.176543	-88.918693	82.534170
15523	9.706301	-0.052813	-0.183237	0.011857	0.001846	-0.009427	-165.463255	-88.918339	82.828705
15524	9.724068	-0.047056	-0.131781	0.014479	-0.000425	-0.006840	-165.736183	-88.916587	83.111023
15525	9.707952	-0.009656	-0.176213	0.016375	-0.000333	-0.008519	-166.008801	-88.914841	83.394051
15526	9.754248	-0.020602	-0.202631	0.020529	0.001218	-0.007601	-166.286744	-88.914056	83.684852
15527	9.732032	-0.028303	-0.147577	0.020709	0.001902	-0.005462	-166.449845	-88.913096	83.860827
15528	9.757531	-0.066845	-0.175402	0.031025	0.005025	-0.008931	-166.733413	-88.914565	84.163269
15529	9.727145	-0.021036	-0.180548	0.028180	0.002339	-0.008552	-166.979899	-88.914223	84.426925
15530	9.717577	-0.078474	-0.171307	0.029601	0.001132	-0.010880	-167.348329	-88.913706	84.813428
15531	9.704934	-0.027277	-0.125205	0.029052	0.004177	-0.013009	-167.713631	-88.914885	85.196421
15532	9.666396	-0.058709	-0.178122	0.028651	-0.001463	-0.012178	-168.136534	-88.912972	85.636863
15533	9.672735	-0.082534	-0.201176	0.028468	-0.002149	-0.014313	-168.579186	-88.910646	86.096885
15534	9.752675	-0.054713	-0.208648	0.039286	-0.006336	-0.010542	-168.971954	-88.905685	86.513282
15535	9.739991	-0.003467	-0.163479	0.043072	-0.006155	-0.013895	-169.411048	-88.900934	86.978117
15536	9.770425	-0.047144	-0.158148	0.050822	-0.000002	-0.014189	-169.863128	-88.899797	87.460448
15537	9.739985	-0.000893	-0.163908	0.047976	-0.002689	-0.013805	-170.273034	-88.896857	87.898900
15538	9.720790	0.014738	-0.158999	0.044403	-0.003024	-0.017692	-170.842775	-88.894194	88.495236
15539	9.715862	0.021948	-0.193293	0.038430	-0.009009	-0.015441	-171.329259	-88.887672	89.004812
15540	9.744524	0.067616	-0.208641	0.031363	-0.008914	-0.017461	-171.916340	-88.881436	89.611021
15541	9.739566	0.074878	-0.243366	0.028522	-0.011602	-0.017077	-172.453607	-88.873382	90.165713
15542	9.774943	0.025846	-0.204861	0.014098	-0.006916	-0.015364	-172.969243	-88.867903	90.690574
15543	9.752344	0.088598	-0.227370	0.010020	-0.007704	-0.010521	-173.302397	-88.861438	91.030513
15544	9.765166	0.100520	-0.210157	0.000037	-0.000852	-0.009381	-173.626538	-88.858883	91.355784
15545	9.749340	0.068447	-0.178294	-0.003162	-0.004921	-0.013270	-174.030737	-88.854092	91.759229
15546	9.747789	0.027933	-0.185282	-0.008629	-0.000240	-0.011213	-174.406561	-88.851906	92.131229
15547	9.688634	0.029738	-0.176774	-0.005346	-0.005620	-0.010104	-174.718370	-88.846442	92.441015
15548	9.747762	0.030003	-0.186371	-0.000170	-0.010909	-0.010673	-175.096036	-88.838051	92.819708
15549	9.726906	-0.057703	-0.252116	-0.002614	-0.007960	-0.011132	-175.433387	-88.831223	93.156608
15550	9.728412	-0.014892	-0.246209	0.005870	-0.009259	-0.011436	-175.815117	-88.823710	93.542829
15551	9.709183	0.000419	-0.241869	0.004557	-0.008130	-0.012732	-176.184713	-88.816762	93.916092
15552	9.769818	0.042499	-0.244796	0.003977	-0.009349	-0.009757	-176.511741	-88.809034	94.246517
15553	9.742710	0.041039	-0.223978	-0.001281	0.000278	-0.010676	-176.806941	-88.806738	94.542024
15554	9.742708	0.042307	-0.223847	-0.005692	0.002366	-0.015213	-177.266261	-88.805790	94.999230
15555	9.694902	0.013477	-0.203910	0.001265	0.002359	-0.009571	-177.524971	-88.804578	95.259699
15556	9.688448	-0.021607	-0.244327	0.005129	-0.001799	-0.011437	-177.877178	-88.801047	95.615972
15557	9.688444	-0.020665	-0.244571	0.009830	-0.003276	-0.008387	-178.102042	-88.796528	95.847495
15558	9.750553	0.062816	-0.240298	0.011143	-0.004405	-0.007089	-178.330257	-88.791357	96.083196
15559	9.763378	0.074374	-0.222880	0.005675	0.000272	-0.005033	-178.460674	-88.788782	96.217872
15560	9.776150	0.024619	-0.268459	0.000396	0.000529	-0.005109	-178.635368	-88.786378	96.393882
15561	9.787561	0.055618	-0.194089	0.000025	0.004258	-0.005111	-178.767618	-88.786072	96.527153
15562	9.790472	0.078551	-0.243433	0.009376	0.004792	-0.009877	-179.062799	-88.786135	96.828824
15563	9.774749	0.045781	-0.210523	0.018398	0.010680	0.000489	-179.030086	-88.789438	96.807626
15564	9.729890	0.037804	-0.239744	0.027723	0.006957	0.000837	-179.024067	-88.790624	96.818546
15565	9.692936	0.107497	-0.221935	0.032050	0.009212	0.003888	-178.891632	-88.793049	96.705425
15566	9.640186	0.020935	-0.298264	0.038712	0.008601	0.011022	-178.600925	-88.795047	96.437893
15567	9.646637	0.055840	-0.257247	0.065933	0.004889	0.012073	-178.228094	-88.794845	96.103742
15568	9.725028	0.039315	-0.270670	0.077018	0.006454	0.018645	-177.708351	-88.795375	95.629077
15569	9.739318	0.028566	-0.309292	0.075853	-0.001091	0.020347	-177.112981	-88.791412	95.078023
15570	9.817748	0.072908	-0.260179	0.082343	0.001862	0.020245	-176.555096	-88.789059	94.568259
15571	9.806871	-0.029242	-0.256245	0.088009	0.016609	0.018625	-175.972600	-88.795049	94.037048
15572	9.814799	-0.014980	-0.271009	0.101992	0.011415	0.022071	-175.333665	-88.797848	93.457480
15573	9.791125	-0.066818	-0.220853	0.096718	0.021041	0.021134	-174.656524	-88.805993	92.836595
15574	9.719105	-0.141175	-0.290195	0.108171	0.023129	0.022618	-173.956718	-88.815147	92.199689
15575	9.666437	-0.106363	-0.238863	0.119434	0.024519	0.021976	-173.213405	-88.824896	91.525641
15576	9.677416	-0.070343	-0.303034	0.117997	0.015482	0.015830	-172.702679	-88.829857	91.083489
15577	9.599108	-0.057092	-0.287263	0.120055	0.025631	0.015427	-172.119388	-88.840447	90.569855
15578	9.627915	0.046921	-0.237939	0.120071	0.011941	0.017866	-171.554045	-88.843046	90.074267
15579	9.797432	-0.036370	-0.308646	0.103227	0.019586	0.019040	-170.889238	-88.849678	89.469460
15580	9.885428	0.066974	-0.268201	0.113766	0.018147	0.009883	-170.516803	-88.856318	89.163208
15581	9.859917	0.105702	-0.238678	0.074708	0.027851	0.005701	-170.194278	-88.868714	88.884411
15582	9.828151	0.039858	-0.170780	0.063531	0.026363	0.002738	-170.005449	-88.880626	88.733018
15583	9.861876	-0.114662	-0.195992	0.065762	0.027855	0.005340	-169.686789	-88.893011	88.452961
15584	9.826792	-0.133746	-0.155145	0.090636	0.037142	0.007264	-169.279917	-88.910488	88.099020
15585	9.746885	-0.098494	-0.081700	0.105948	0.039266	0.001815	-168.961052	-88.929605	87.841790
15586	9.658919	-0.073398	-0.132350	0.107237	0.032999	-0.001069	-168.799496	-88.945602	87.742723
15587	9.623841	-0.153668	-0.153713	0.095066	0.028063	-0.011066	-168.938179	-88.959824	87.936885
15588	9.615994	-0.231369	-0.196443	0.099943	0.026378	-0.015194	-169.261156	-88.973632	88.318250
15589	9.622412	-0.192883	-0.154336	0.103125	0.020178	-0.019738	-169.729261	-88.984278	88.846503
15590	9.646449	-0.142440	-0.201742	0.106480	0.014691	-0.022148	-170.356141	-88.992060	89.535561
15591	9.697531	-0.027308	-0.208979	0.106452	0.014693	-0.022125	-170.949504	-88.999635	90.190994
15592	9.756582	0.036664	-0.154296	0.112544	0.016211	-0.026460	-171.726227	-89.008368	91.033391
15593	9.748576	0.090348	-0.214889	0.092836	0.016129	-0.025599	-172.457109	-89.016741	91.818557
15594	9.741871	0.181257	-0.129907	0.084930	0.014422	-0.023182	-173.175140	-89.023839	92.586425
15595	9.727624	0.129999	-0.151399	0.070113	0.017808	-0.022270	-173.825475	-89.032617	93.278009
15596	9.732373	0.127232	-0.116012	0.072411	0.015002	-0.018120	-174.399464	-89.039450	93.894639
15597	9.714890	0.121709	-0.166127	0.063180	0.010220	-0.011869	-174.742925	-89.043116	94.275330
15598	9.709846	0.190142	-0.137879	0.074543	0.008154	-0.005170	-174.904510	-89.045244	94.480720
15599	9.697129	0.178693	-0.154450	0.073457	0.010848	0.001388	-174.788708	-89.048555	94.407972
15600	9.663400	0.202149	-0.110861	0.064312	0.001757	0.009192	-174.484809	-89.046276	94.141952
15601	9.668145	0.263616	-0.155745	0.058401	0.005154	0.010502	-174.083216	-89.045808	93.774747
15602	9.671445	0.215815	-0.126999	0.037116	0.001410	0.016655	-173.544874	-89.042811	93.258667
15603	9.729493	0.107736	-0.201789	0.026519	0.002060	0.020016	-172.853033	-89.039822	92.582904
15604	9.753489	0.086919	-0.172208	0.021744	0.003626	0.020518	-172.190432	-89.037602	91.933740
15605	9.741053	0.010078	-0.250175	0.021198	0.006628	0.018330	-171.543623	-89.037078	91.299964
15606	9.754011	-0.110416	-0.214089	0.024007	0.009313	0.017934	-170.941173	-89.038059	90.712257
15607	9.718761	-0.129815	-0.175535	0.033840	0.006763	0.015444	-170.383991	-89.037656	90.175365
15608	9.749196	-0.175971	-0.167268	0.046945	0.008208	0.013190	-169.932394	-89.038285	89.751677
15609	9.742695	-0.151318	-0.144569	0.052002	0.007224	0.011203	-169.504629	-89.038428	89.354628
15610	9.733150	-0.210075	-0.132229	0.055509	0.010929	0.004201	-169.330955	-89.041441	89.213809
15611	9.733416	-0.273730	-0.192218	0.066579	0.006394	-0.002693	-169.366458	-89.042545	89.288447
15612	9.717267	-0.175029	-0.176532	0.070452	0.006366	-0.009623	-169.677802	-89.044428	89.641275
15613	9.693362	-0.155192	-0.205362	0.067873	0.003386	-0.016454	-170.197142	-89.045199	90.200558
15614	9.707636	-0.099812	-0.182431	0.056516	0.005432	-0.023168	-170.984015	-89.047707	91.020994
15615	9.721890	-0.043660	-0.159525	0.045825	0.004327	-0.031307	-172.021613	-89.050014	92.085971
15616	9.709281	0.013935	-0.255607	0.020475	0.008375	-0.027123	-172.960497	-89.054034	93.037786
15617	9.734714	0.040455	-0.220454	0.023085	0.004247	-0.039560	-174.307879	-89.056161	94.399557
15618	9.722054	0.098667	-0.316641	0.006026	0.007144	-0.031949	-175.441183	-89.059062	95.537536
15619	9.684531	0.169886	-0.161612	-0.007204	0.009117	-0.037015	-176.718357	-89.062912	96.811731
15620	9.680227	0.114014	-0.255207	-0.019922	0.013287	-0.035711	-178.005514	-89.068609	98.088716
15621	9.737552	0.137946	-0.206675	-0.010628	0.010466	-0.029448	-179.038159	-89.072228	99.116384
15622	9.683514	0.073615	-0.224035	-0.009827	0.013246	-0.024571	-179.949098	-89.077061	100.022885
15623	9.743610	0.180508	-0.165412	-0.001162	0.008380	-0.021062	179.307643	-89.078986	100.766552
15624	9.745531	0.094055	-0.140117	-0.006551	0.023325	-0.014426	178.738857	-89.089310	101.332733
15625	9.729571	0.063323	-0.104999	0.018183	0.013992	-0.010417	178.372658	-89.094368	101.710375
15626	9.726274	0.110336	-0.132431	0.018522	0.015457	-0.006170	178.109963	-89.100210	101.984793
15627	9.700967	0.087143	-0.165495	0.021920	0.016036	0.001371	178.167608	-89.106613	101.940679
15628	9.702946	0.065351	-0.219886	0.020076	0.010780	-0.001143	178.092173	-89.109862	102.028705
15629	9.766857	0.060260	-0.193058	0.024466	0.012949	-0.001702	178.041497	-89.114440	102.094383
15630	9.763586	0.106418	-0.220822	0.012673	0.010386	0.001864	178.072971	-89.117516	102.071247
15631	9.763612	0.106294	-0.219711	-0.000674	0.012500	0.000402	178.086365	-89.121877	102.058442
15632	9.761661	0.128089	-0.162568	-0.027199	0.017460	-0.000399	178.001158	-89.128956	102.129154
15633	9.744311	0.054501	-0.132986	-0.033602	0.009302	-0.004478	177.815346	-89.131385	102.296710
15634	9.712390	0.057366	-0.144724	-0.050088	0.013342	0.000126	177.740085	-89.136114	102.344359
15635	9.711045	0.015528	-0.148675	-0.044194	0.009949	-0.001145	177.671985	-89.138980	102.388120
15636	9.723701	0.027445	-0.130453	-0.053531	0.008609	-0.002221	177.511652	-89.140942	102.518879
15637	9.727085	0.047926	-0.180282	-0.054581	0.006133	0.000141	177.492183	-89.141653	102.508051
15638	9.720447	0.074027	-0.157779	-0.062711	0.008002	-0.001166	177.367449	-89.143290	102.597946
15639	9.746400	0.034008	-0.183354	-0.065524	0.005315	-0.000764	177.308405	-89.143510	102.620428
15640	9.732420	-0.019272	-0.205099	-0.059635	0.011277	-0.003036	177.106989	-89.146963	102.788777
15641	9.714506	0.036869	-0.194410	-0.050464	0.008595	0.006844	177.343138	-89.149270	102.524663
15642	9.728517	0.090002	-0.171007	-0.056334	0.006802	0.003951	177.421120	-89.150350	102.415475
15643	9.742528	0.143359	-0.147412	-0.065310	0.011091	0.001954	177.457116	-89.153946	102.343029
15644	9.733167	0.085247	-0.135097	-0.071310	0.009442	0.002681	177.473326	-89.156503	102.287039
15645	9.727212	0.047573	-0.173428	-0.071615	0.008858	0.004183	177.597121	-89.158874	102.123172
15646	9.757790	0.002419	-0.164895	-0.067185	0.011895	0.009382	177.875154	-89.162984	101.807696
15647	9.733917	0.020371	-0.193219	-0.067949	0.009998	0.010249	178.240563	-89.166103	101.404291
15648	9.739905	0.057034	-0.152878	-0.067835	0.009862	0.006640	178.418199	-89.168954	101.188851
15649	9.738553	0.014310	-0.157337	-0.066210	0.010203	0.012228	178.867819	-89.172157	100.702222
15650	9.764517	-0.026648	-0.182904	-0.059259	0.009299	0.008590	179.132241	-89.174669	100.404902
15651	9.739966	0.054371	-0.149972	-0.052556	0.008664	0.012187	179.594584	-89.176902	99.913374
15652	9.725975	-0.000010	-0.171961	-0.056759	0.011402	0.009709	179.909303	-89.180564	99.567185
15653	9.694083	0.002031	-0.183828	-0.053745	0.009641	0.007255	-179.821406	-89.183275	99.268047
15654	9.697287	-0.045193	-0.154508	-0.049641	0.011221	0.008201	-179.557884	-89.186788	98.977141
15655	9.712009	-0.055581	-0.192062	-0.049101	0.008212	0.010383	-179.156060	-89.188616	98.548118
15656	9.757945	-0.005868	-0.155346	-0.038782	0.006990	0.008532	-178.870919	-89.189652	98.241814
15657	9.812636	-0.002593	-0.196554	-0.039499	0.009282	0.004230	-178.709297	-89.192106	98.058520
15658	9.805995	0.022610	-0.173576	-0.043282	0.009142	0.007549	-178.462071	-89.194354	97.787556
15659	9.780423	-0.068318	-0.128942	-0.050381	0.013518	0.003921	-178.311877	-89.199221	97.609456
15660	9.782545	-0.089517	-0.183742	-0.044005	0.011437	0.003254	-178.234653	-89.202837	97.508097
15661	9.769239	-0.038204	-0.138336	-0.044722	0.013732	-0.001044	-178.283244	-89.207908	97.532044
15662	9.710013	-0.036985	-0.128767	-0.044978	0.017338	-0.004702	-178.529457	-89.215034	97.753597
15663	9.612953	-0.069730	-0.171745	-0.049558	0.014454	-0.006280	-178.802826	-89.220585	97.999570
15664	9.614375	-0.026969	-0.164817	-0.056363	0.010067	-0.010460	-179.311931	-89.223564	98.477514
15665	9.738187	-0.095231	-0.208036	-0.039611	0.007603	-0.007241	-179.630758	-89.225147	98.774650
15666	9.718558	0.050172	-0.218866	-0.055585	0.012806	-0.005548	-179.935701	-89.229601	99.048859
15667	9.784908	-0.105791	-0.231287	-0.059204	0.016742	-0.010991	179.567728	-89.236363	99.512528
15668	9.669382	0.215441	-0.151062	-0.007432	0.002956	-0.007881	179.187416	-89.235099	99.889704
15669	9.731313	0.502367	0.129069	-0.099221	0.005980	-0.005511	178.902590	-89.235665	100.118678
15670	9.620205	-0.021434	-0.266175	-0.100921	0.001465	-0.005931	178.553987	-89.233523	100.410574
15671	9.759697	0.077069	0.011454	-0.068877	0.002914	0.007018	178.826094	-89.232477	100.099953
15672	9.731617	-0.066163	-0.181183	-0.027435	0.009065	0.010142	179.202144	-89.234869	99.709239
15673	9.781190	0.040290	-0.047866	-0.006542	0.008167	0.014287	179.820269	-89.236809	99.088288
15674	9.820230	0.078378	-0.134586	0.011537	0.004578	0.018804	-179.403954	-89.236504	98.320143
15675	9.846840	0.140722	-0.092856	0.017581	0.007051	0.023843	-178.357103	-89.237464	97.284251
15676	9.776925	0.237705	-0.173882	0.016987	0.005859	0.026821	-177.231878	-89.237361	96.169751
15677	9.698466	0.250009	-0.160509	-0.014220	0.008810	0.030294	-175.917938	-89.238551	94.848524
15678	9.642642	-0.096249	-0.237928	-0.017387	0.010677	0.036390	-174.383037	-89.240049	93.304618
15679	9.647115	-0.104898	-0.203254	0.014688	0.006116	0.039350	-172.672499	-89.238185	91.603322
15680	9.659592	0.032762	-0.201048	0.038932	0.004868	0.045298	-170.763722	-89.234417	89.717778
15681	9.687809	0.134383	-0.153297	0.042069	0.008977	0.049198	-168.627393	-89.231649	87.606341
15682	9.681915	0.092591	-0.192065	0.036591	0.013680	0.051173	-166.432648	-89.230256	85.433460
15683	9.756806	0.050811	-0.153473	0.036063	0.008166	0.055681	-164.080642	-89.223914	83.102882
15684	9.737613	0.059554	-0.147775	0.041853	0.014248	0.057079	-161.679148	-89.219474	80.726247
15685	9.769524	0.050715	-0.133506	0.030439	0.012995	0.061285	-159.122701	-89.212023	78.187980
15686	9.712453	0.024791	-0.180363	0.030154	0.013234	0.068540	-156.387205	-89.201690	75.470597
15687	9.743830	0.077604	-0.104424	0.030050	0.008198	0.067943	-153.794366	-89.186954	72.895698
15688	9.777862	0.046729	-0.146703	0.022612	0.008641	0.076722	-151.033118	-89.168660	70.148223
15689	9.754919	0.032221	-0.090940	0.023382	0.011376	0.081645	-148.137877	-89.148112	67.267046
15690	9.772945	0.061586	-0.262605	0.044688	0.011713	0.086486	-145.255854	-89.124380	64.411403
15691	9.723378	0.054325	0.045162	0.000356	0.029579	0.106989	-141.530652	-89.099094	60.686935
15692	9.649250	-0.180712	-0.468265	0.112841	0.006388	0.110812	-138.435657	-89.059191	57.657300
15693	9.776149	0.463791	0.208730	0.058489	0.020182	0.121684	-135.013998	-89.017675	54.269653
15694	9.656834	0.000149	-0.296026	0.036066	0.017404	0.119214	-132.038996	-88.973413	51.315968
15695	9.657468	0.062111	-0.002754	0.041340	0.013642	0.126688	-129.230391	-88.921488	48.531558
15696	9.676313	-0.002380	-0.150911	0.033681	0.033112	0.140889	-126.014294	-88.867789	45.335263
15697	9.723389	-0.080884	-0.005649	0.043836	0.013939	0.146726	-123.421936	-88.801528	42.768469
15698	9.797010	-0.080353	-0.136163	0.108159	-0.016588	0.128721	-122.006129	-88.733246	41.415426
15699	9.735984	0.080691	-0.033687	0.074882	0.010762	0.143424	-119.970232	-88.664420	39.422897
15700	9.703161	-0.207651	-0.207115	0.065557	0.020601	0.152965	-117.848285	-88.592497	37.339016
15701	9.766823	-0.166389	-0.117945	0.079055	0.008703	0.148171	-116.193951	-88.517750	35.730444
15702	9.776478	-0.248984	-0.250393	0.058632	0.015445	0.143075	-114.638214	-88.446773	34.208879
15703	9.773738	-0.304655	-0.254121	0.049353	0.018418	0.136826	-113.204968	-88.378143	32.804349
15704	9.750152	-0.322868	-0.197949	0.031901	0.007119	0.114415	-112.277261	-88.318656	31.895652
15705	9.811565	-0.294671	-0.198975	-0.017516	0.018032	0.113107	-111.246198	-88.261152	30.855068
15706	9.729696	-0.417926	-0.167605	-0.039286	0.020042	0.100261	-110.351892	-88.211013	29.938925
15707	9.681153	-0.392103	-0.084833	-0.071831	0.017820	0.090149	-109.613116	-88.164894	29.159581
15708	9.678191	-0.442111	-0.088991	-0.092646	0.018148	0.080137	-108.984470	-88.124547	28.478603
15709	9.706674	-0.520684	0.004073	-0.085372	0.017721	0.075018	-108.404601	-88.086079	27.850453
15710	9.668866	-0.472523	-0.070372	-0.083317	0.008989	0.072828	-108.007117	-88.047645	27.406083
15711	9.671267	-0.437509	-0.063944	-0.068579	0.014017	0.068934	-107.549406	-88.011522	26.909764
15712	9.740231	-0.342605	-0.109508	-0.072574	0.013227	0.070135	-107.125486	-87.975050	26.445078
15713	9.761601	-0.322553	-0.107239	-0.064023	0.012511	0.072121	-106.706596	-87.936676	25.990193
15714	9.772934	-0.271352	-0.116806	-0.065453	0.012085	0.062873	-106.358891	-87.903777	25.605835
15715	9.738232	-0.315477	-0.134588	-0.063103	0.014271	0.067663	-105.961327	-87.867927	25.172798
15716	9.746785	-0.305990	-0.149859	-0.057239	0.010776	0.066369	-105.637360	-87.832720	24.816887
15717	9.730719	-0.255568	-0.138471	-0.054072	0.014002	0.064518	-105.276598	-87.798372	24.425837
15718	9.708880	-0.288726	-0.138486	-0.058708	0.016368	0.067178	-104.893063	-87.763387	24.009456
15719	9.708706	-0.295041	-0.137323	-0.060630	0.011172	0.064598	-104.598552	-87.728400	23.680930
15720	9.709688	-0.347988	-0.107904	-0.063334	0.022225	0.062536	-104.176016	-87.696630	23.222847
15721	9.664887	-0.360723	-0.137394	-0.061624	0.008577	0.063326	-103.941837	-87.661837	22.954117
15722	9.705163	-0.354882	-0.139808	-0.080244	0.011345	0.061735	-103.699598	-87.628842	22.666763
15723	9.739347	-0.432766	-0.153859	-0.087444	0.016828	0.067546	-103.371821	-87.592707	22.289534
15724	9.748940	-0.470133	-0.141199	-0.098142	0.012520	0.066652	-103.125276	-87.557003	21.987592
15725	9.764699	-0.423909	-0.116771	-0.088301	0.009792	0.064168	-102.918054	-87.521705	21.730518
15726	9.738108	-0.295256	-0.144724	-0.096438	0.011859	0.062888	-102.704689	-87.487917	21.462749
15727	9.748647	-0.379442	-0.104477	-0.097434	0.014420	0.065891	-102.452494	-87.452148	21.155408
15728	9.705461	-0.412631	-0.190235	-0.093812	0.019758	0.070520	-102.132485	-87.414948	20.782381
15729	9.717337	-0.361512	-0.198528	-0.095109	0.020910	0.069221	-101.807327	-87.377942	20.403315
15730	9.695232	-0.394559	-0.198538	-0.104214	0.020402	0.066641	-101.514539	-87.342808	20.051552
15731	9.679546	-0.500085	-0.193244	-0.113930	0.027376	0.064039	-101.153679	-87.309253	19.625929
15732	9.635300	-0.796865	-0.320784	-0.124703	0.039732	0.054961	-100.687322	-87.282576	19.088634
15733	9.847029	-0.326726	0.014477	-0.053524	-0.007608	0.056242	-100.738659	-87.249471	19.110306
15734	9.616268	-0.553973	-0.187270	-0.158075	0.041904	0.052223	-100.287424	-87.224374	18.568980
15735	9.797701	-0.493264	-0.054599	-0.106492	0.020906	0.045215	-100.067731	-87.200385	18.288918
15736	9.671225	-0.682662	-0.086276	-0.121811	0.032819	0.048310	-99.722849	-87.176315	17.874853
15737	9.674866	-0.489668	-0.068635	-0.061373	0.030612	0.050997	-99.365785	-87.149832	17.483123
15738	9.696101	-0.420753	-0.091473	-0.059832	0.025718	0.052331	-99.071482	-87.122586	17.155236
15739	9.658705	-0.395718	-0.079719	-0.052360	0.026756	0.055129	-98.758454	-87.093211	16.812749
15740	9.607130	-0.408829	-0.002456	-0.073967	0.022688	0.055422	-98.512580	-87.063789	16.525230
15741	9.672167	-0.490566	-0.004339	-0.067344	0.007248	0.051892	-98.439108	-87.034469	16.414002
15742	9.716876	-0.537381	0.054272	-0.087621	0.010711	0.050531	-98.347229	-87.006755	16.272837
15743	9.722577	-0.615044	0.059014	-0.083485	0.007050	0.047196	-98.296112	-86.980066	16.174729
15744	9.711354	-0.696629	0.011549	-0.072284	0.002344	0.040154	-98.304296	-86.957525	16.142556
15745	9.694183	-0.704923	-0.040525	-0.041153	-0.001325	0.040303	-98.330196	-86.934050	16.145859
15746	9.682585	-0.738198	-0.115083	-0.038164	0.004858	0.032664	-98.304060	-86.915949	16.098889
15747	9.667063	-0.636973	-0.130699	-0.016012	-0.008045	0.029497	-98.402380	-86.898040	16.189144
15748	9.690939	-0.552265	-0.065696	-0.021531	0.000437	0.027900	-98.420156	-86.882259	16.195693
15749	9.677494	-0.517374	-0.111200	-0.034834	-0.010917	0.021459	-98.569814	-86.868649	16.326564
15750	9.673774	-0.560841	-0.119362	-0.050803	-0.010398	0.018905	-98.729215	-86.857024	16.458153
15751	9.699696	-0.542067	-0.084941	-0.057536	-0.013859	0.016780	-98.927196	-86.845763	16.624396
15752	9.712613	-0.533490	-0.068534	-0.060255	-0.011443	0.017814	-99.102195	-86.834611	16.766186
15753	9.712513	-0.535114	-0.070067	-0.068107	-0.013050	0.016539	-99.295883	-86.823502	16.922067
15754	9.734586	-0.509972	-0.069619	-0.070152	-0.014536	0.010237	-99.518458	-86.816286	17.105828
15755	9.690193	-0.563939	-0.075816	-0.062226	-0.016590	0.015168	-99.744630	-86.805547	17.297622
15756	9.691654	-0.409276	-0.067568	-0.055507	-0.018239	0.012955	-99.989258	-86.796349	17.511877
15757	9.687930	-0.452086	-0.076817	-0.067724	-0.021209	0.014371	-100.263621	-86.785503	17.748786
15758	9.723067	-0.416925	-0.059171	-0.067450	-0.024947	0.014357	-100.576690	-86.774707	18.024741
15759	9.687763	-0.454679	-0.082343	-0.085590	-0.029474	0.012826	-100.942906	-86.763700	18.343402
15760	9.748623	-0.526612	-0.122981	-0.082839	-0.022440	0.014696	-101.235091	-86.752813	18.589615
15761	9.739403	-0.544316	-0.109263	-0.058412	-0.011405	0.016235	-101.396319	-86.741749	18.718560
15762	9.748143	-0.482206	-0.152885	-0.051438	-0.010949	0.024169	-101.535429	-86.726757	18.829474
15763	9.707318	-0.495815	-0.151433	-0.049213	-0.009550	0.026827	-101.649893	-86.709927	18.916862
15764	9.707400	-0.546220	-0.126099	-0.045389	-0.008717	0.029300	-101.751316	-86.692289	18.993503
15765	9.717794	-0.551632	-0.199791	-0.036142	-0.012713	0.029687	-101.881035	-86.673464	19.103676
15766	9.773687	-0.473265	-0.121929	-0.019080	-0.014374	0.037170	-102.003606	-86.650722	19.216604
15767	9.718081	-0.431586	-0.108199	-0.017473	-0.009847	0.041356	-102.068863	-86.625676	19.272924
15768	9.771691	-0.414638	-0.093713	-0.019552	-0.005473	0.045244	-102.088524	-86.599464	19.282497
15769	9.709917	-0.475195	-0.151272	-0.017266	-0.017935	0.042793	-102.224948	-86.572631	19.410233
15770	9.696844	-0.585164	-0.118135	-0.015999	-0.014018	0.048478	-102.313971	-86.543571	19.491334
15771	9.711139	-0.646486	-0.132005	-0.011210	-0.015717	0.047922	-102.412386	-86.514112	19.584475
15772	9.674054	-0.668484	-0.097062	-0.011983	-0.013258	0.047290	-102.491665	-86.485788	19.658123
15773	9.747352	-0.685785	-0.144830	-0.007424	-0.011960	0.040932	-102.565067	-86.460689	19.728381
15774	9.770832	-0.777701	-0.147720	-0.006892	-0.011418	0.035773	-102.645746	-86.439015	19.806358
15775	9.773255	-0.914183	-0.209681	0.003722	-0.013002	0.030158	-102.741809	-86.419795	19.905723
15776	9.713795	-0.864724	-0.229463	0.018708	-0.013226	0.021843	-102.850138	-86.405639	20.026100
15777	9.709628	-0.860205	-0.264317	0.025976	-0.014351	0.014433	-102.975459	-86.395005	20.167561
15778	9.731841	-0.835142	-0.262924	0.023385	-0.008326	0.008183	-103.064144	-86.389058	20.270941
15779	9.676614	-0.837780	-0.222259	0.023701	-0.012809	0.002316	-103.200967	-86.385352	20.422622
15780	9.725226	-0.743766	-0.211392	0.035487	-0.011903	-0.005625	-103.342494	-86.386588	20.585896
15781	9.723901	-0.628900	-0.208201	0.040985	-0.007302	-0.004811	-103.435504	-86.387541	20.703600
15782	9.709462	-0.571680	-0.196429	0.037146	-0.008124	-0.007272	-103.546432	-86.390151	20.837166
15783	9.763395	-0.550037	-0.181857	0.029773	-0.008415	-0.007862	-103.662409	-86.392626	20.971445
15784	9.750256	-0.559258	-0.200535	0.018715	-0.008853	-0.008749	-103.793929	-86.395923	21.115062
15785	9.750367	-0.606125	-0.174701	0.014265	-0.006542	-0.009685	-103.906615	-86.399632	21.237140
15786	9.718840	-0.600028	-0.188076	0.015247	-0.003975	-0.008344	-103.996614	-86.403340	21.337163
15787	9.722813	-0.557608	-0.181273	0.010921	-0.006083	-0.011478	-104.111603	-86.408083	21.459628
15788	9.713621	-0.524983	-0.192454	0.006471	-0.003772	-0.012415	-104.214430	-86.414054	21.567465
15789	9.705846	-0.606811	-0.207249	0.002445	-0.004525	-0.011212	-104.320516	-86.418841	21.676141
15790	9.705909	-0.605699	-0.207584	0.008558	-0.003056	-0.011931	-104.415386	-86.424619	21.777203
15791	9.728289	-0.578419	-0.205398	0.006837	0.001930	-0.009549	-104.458335	-86.429385	21.825141
15792	9.723098	-0.552242	-0.182406	0.003426	-0.001958	-0.009872	-104.542165	-86.434160	21.912194
15793	9.700721	-0.529796	-0.211144	-0.004217	0.001486	-0.010436	-104.597764	-86.439347	21.966459
15794	9.719197	-0.543854	-0.216332	-0.002987	-0.004784	-0.013487	-104.719392	-86.445701	22.087702
15795	9.683786	-0.578997	-0.236728	-0.011928	0.000584	-0.009529	-104.785772	-86.450243	22.148342
15796	9.737865	-0.604710	-0.195086	-0.011928	0.000584	-0.009529	-104.855891	-86.455167	22.212844
15797	9.710366	-0.604713	-0.174502	-0.009716	-0.003118	-0.011241	-104.958554	-86.460101	22.311105
15798	9.688134	-0.629893	-0.176866	-0.006307	0.000771	-0.010917	-105.027523	-86.465805	22.377681
15799	9.697349	-0.612399	-0.192595	-0.000835	0.000282	-0.014473	-105.102957	-86.473016	22.453758
15800	9.732876	-0.574847	-0.172470	-0.001517	-0.000930	-0.011477	-105.186305	-86.478759	22.537489
15801	9.741905	-0.509668	-0.214922	-0.009377	-0.002513	-0.012738	-105.288130	-86.484576	22.635102
15802	9.718271	-0.467799	-0.187186	-0.016067	-0.001600	-0.016323	-105.398463	-86.492875	22.737515
15803	9.718338	-0.466281	-0.187501	-0.029402	-0.002696	-0.014025	-105.517388	-86.499353	22.840765
15804	9.696121	-0.491151	-0.190215	-0.044488	-0.003903	-0.013704	-105.659215	-86.505828	22.958416
15805	9.669870	-0.509765	-0.226864	-0.049010	-0.005943	-0.013167	-105.817425	-86.511297	23.089766
15806	9.694983	-0.469560	-0.134875	-0.053321	-0.002960	-0.011927	-105.952170	-86.516904	23.195253
15807	9.700114	-0.445598	-0.184862	-0.058764	-0.003218	-0.014193	-106.094844	-86.523329	23.305438
15808	9.681940	-0.476883	-0.154220	-0.066061	-0.007192	-0.011140	-106.274003	-86.527797	23.448107
15809	9.665007	-0.527199	-0.180644	-0.064813	-0.008366	-0.009823	-106.456096	-86.530949	23.594310
15810	9.716305	-0.565509	-0.230963	-0.059787	-0.013065	-0.004588	-106.667900	-86.530804	23.773284
15811	9.733507	-0.561487	-0.180698	-0.053034	-0.009633	-0.002465	-106.835049	-86.529649	23.911278
15812	9.763627	-0.500014	-0.138158	-0.041607	-0.003486	0.001291	-106.933603	-86.527811	23.987230
15813	9.776759	-0.490395	-0.120780	-0.033650	-0.005582	0.006173	-107.029011	-86.522567	24.064477
15814	9.733425	-0.562250	-0.182735	-0.019168	-0.001241	0.007374	-107.077348	-86.517763	24.103000
15815	9.733600	-0.611024	-0.156921	-0.010099	-0.005187	0.011389	-107.140828	-86.509719	24.161780
15816	9.694033	-0.641886	-0.211550	0.002080	-0.006585	0.011396	-107.213389	-86.501801	24.236769
15817	9.694415	-0.738547	-0.159687	0.004699	-0.005318	0.006716	-107.281980	-86.496283	24.309165
15818	9.713998	-0.772953	-0.222271	0.017495	-0.009847	0.005186	-107.391461	-86.491182	24.429990
15819	9.681164	-0.749223	-0.179195	0.014180	-0.010117	-0.002432	-107.522522	-86.489823	24.570417
15820	9.708734	-0.747339	-0.200947	0.012312	-0.011625	-0.012410	-107.700048	-86.493974	24.756438
15821	9.708822	-0.745926	-0.201934	0.016528	-0.010926	-0.017281	-107.879576	-86.500525	24.946769
15822	9.722126	-0.733998	-0.184859	0.015301	-0.010482	-0.024417	-108.081086	-86.511336	25.158530
15823	9.700060	-0.757638	-0.187833	0.021175	-0.005998	-0.030936	-108.255833	-86.526124	25.346734
15824	9.723718	-0.747085	-0.242745	0.026460	-0.006411	-0.030834	-108.436256	-86.541064	25.543765
15825	9.700226	-0.703542	-0.214777	0.026549	-0.002795	-0.038121	-108.604000	-86.560268	25.728032
15826	9.708052	-0.616522	-0.200294	0.032328	-0.007744	-0.047548	-108.848286	-86.583941	25.992400
15827	9.758059	-0.584442	-0.219426	0.012429	-0.007274	-0.046632	-109.096522	-86.606834	26.249188
15828	9.795282	-0.609828	-0.230060	0.009313	-0.002531	-0.053535	-109.332539	-86.634589	26.492049
15829	9.667886	-0.565143	-0.224876	0.001340	-0.000448	-0.058405	-109.569939	-86.665016	26.731603
15830	9.669446	-0.578128	-0.281915	-0.002229	-0.005016	-0.060888	-109.868764	-86.696124	27.030738
15831	9.728954	-0.575823	-0.289989	0.013578	0.001796	-0.065671	-110.112517	-86.730770	27.283664
15832	9.732458	-0.480337	-0.308705	0.014984	0.001298	-0.062191	-110.357385	-86.763666	27.538615
15833	9.645583	-0.423875	-0.305851	0.024181	0.005344	-0.066915	-110.576096	-86.799569	27.772527
15834	9.677405	-0.248198	-0.224277	0.024583	0.003017	-0.058950	-110.797320	-86.830959	28.009289
15835	9.752205	-0.099327	-0.259418	0.006549	-0.000122	-0.052437	-111.035236	-86.857891	28.252304
15836	9.707821	0.027304	-0.195699	-0.026034	0.001104	-0.046382	-111.265565	-86.882076	28.469135
15837	9.760573	-0.102713	-0.191924	-0.053487	0.001252	-0.042388	-111.493509	-86.903825	28.667704
15838	9.706233	-0.149581	-0.123747	-0.066996	0.005244	-0.032044	-111.656843	-86.921176	28.793928
15839	9.713730	-0.238368	-0.177138	-0.063386	0.001794	-0.024465	-111.818984	-86.933434	28.920911
15840	9.712302	-0.344256	-0.215167	-0.051571	0.000569	-0.017137	-111.963281	-86.941838	29.036931
15841	9.677898	-0.427240	-0.209283	-0.038442	0.002522	-0.009966	-112.047354	-86.946517	29.100046
15842	9.702647	-0.514456	-0.211391	-0.021812	-0.000383	-0.003220	-112.128762	-86.947309	29.170157
15843	9.724685	-0.487875	-0.209107	-0.008829	0.000898	0.001781	-112.164729	-86.945395	29.202088
15844	9.704666	-0.580825	-0.242011	-0.015545	0.001792	-0.001781	-112.215061	-86.945884	29.244673
15845	9.715636	-0.630679	-0.288372	-0.013163	-0.001222	-0.001342	-112.287200	-86.945163	29.310342
15846	9.712169	-0.672001	-0.296230	-0.009179	-0.004795	-0.001095	-112.396476	-86.943837	29.415612
15847	9.763858	-0.583553	-0.250860	-0.001439	-0.004577	-0.007836	-112.521749	-86.945808	29.541216
15848	9.717833	-0.569061	-0.224960	-0.019328	0.004581	-0.011506	-112.586723	-86.952020	29.596297
15849	9.699347	-0.552568	-0.219973	-0.021296	-0.005631	-0.018560	-112.778998	-86.959401	29.777604
15850	9.722171	-0.572073	-0.191734	-0.026847	0.002852	-0.020063	-112.902186	-86.969724	29.886653
15851	9.714000	-0.557059	-0.259022	-0.013211	0.000283	-0.022421	-113.049001	-86.980416	30.027071
15852	9.717543	-0.513619	-0.251457	-0.003916	0.001398	-0.017710	-113.165161	-86.989138	30.142245
15853	9.711408	-0.438892	-0.254284	-0.001982	0.001454	-0.019395	-113.282537	-86.998469	30.259624
15854	9.733484	-0.410649	-0.251998	-0.003955	-0.002955	-0.016258	-113.437526	-87.005409	30.413662
15855	9.754184	-0.364009	-0.192829	-0.023341	0.003068	-0.016113	-113.537996	-87.013355	30.501856
15856	9.668782	-0.301736	-0.330164	0.002122	-0.005797	-0.015535	-113.716327	-87.019227	30.682744
15857	9.787219	-0.258205	-0.141882	-0.069270	0.007401	-0.009158	-113.769643	-87.024504	30.697368
15858	9.629928	-0.533060	-0.370178	-0.013420	0.001064	-0.012935	-113.877182	-87.030575	30.798452
15859	9.739926	-0.350637	-0.153907	-0.042682	0.001771	-0.005071	-113.954177	-87.032401	30.852042
15860	9.658164	-0.451446	-0.269635	-0.027733	0.002394	-0.007582	-114.032998	-87.035963	30.916160
15861	9.716005	-0.435441	-0.220672	-0.035278	0.001390	-0.010316	-114.133532	-87.040436	30.997567
15862	9.725738	-0.465884	-0.210302	-0.040912	0.001162	-0.008912	-114.238838	-87.044391	31.080653
15863	9.729944	-0.471250	-0.176847	-0.038019	-0.001284	-0.013626	-114.383735	-87.049944	31.204910
15864	9.762462	-0.522862	-0.138065	-0.034138	0.003907	-0.012617	-114.474969	-87.056462	31.277786
15865	9.732251	-0.534985	-0.207953	-0.029850	-0.003401	-0.012427	-114.632041	-87.060860	31.418919
15866	9.737876	-0.558387	-0.231464	-0.027551	0.001633	-0.017045	-114.764058	-87.069116	31.536416
15867	9.718558	-0.493647	-0.252227	-0.011807	-0.000192	-0.018939	-114.909945	-87.077637	31.676698
15868	9.673906	-0.497050	-0.283484	-0.001904	-0.006554	-0.014335	-115.099148	-87.082463	31.866132
15869	9.750908	-0.465997	-0.323486	0.006727	-0.011743	-0.011029	-115.315609	-87.084017	32.087712
15870	9.699261	-0.426792	-0.274746	0.000529	-0.000143	-0.010968	-115.423046	-87.088611	32.196728
15871	9.726806	-0.424105	-0.295734	0.009824	-0.004095	-0.010644	-115.558733	-87.091797	32.339205
15872	9.753807	-0.451098	-0.233692	-0.008768	0.003809	-0.011291	-115.633500	-87.097509	32.410145
15873	9.669974	-0.485027	-0.318562	-0.001077	0.000413	-0.010772	-115.730787	-87.101856	32.507918
15874	9.713344	-0.460771	-0.230799	0.008861	-0.001590	-0.007612	-115.832967	-87.104307	32.616390
15875	9.731997	-0.474985	-0.236069	0.009347	-0.000308	-0.006938	-115.913150	-87.106480	32.703017
15876	9.718978	-0.484322	-0.254108	0.009347	-0.000308	-0.006938	-115.998928	-87.108890	32.795404
15877	9.740953	-0.456865	-0.251653	0.018362	-0.001233	-0.012384	-116.110851	-87.113620	32.918982
15878	9.736823	-0.449346	-0.285385	0.005164	-0.001762	-0.007894	-116.219070	-87.116126	33.031353
15879	9.749021	-0.390617	-0.293602	0.012855	-0.005156	-0.007374	-116.349542	-87.117262	33.170343
15880	9.697335	-0.351657	-0.244678	0.006612	-0.002984	-0.010252	-116.481779	-87.120640	33.307626
15881	9.686701	-0.271508	-0.281605	0.005590	-0.009190	-0.004335	-116.642291	-87.119151	33.472527
15882	9.699740	-0.261126	-0.264337	-0.000828	-0.006970	-0.003557	-116.785407	-87.118048	33.616474
15883	9.681088	-0.246302	-0.259931	-0.015015	-0.009353	0.005407	-116.908915	-87.111496	33.732504
15884	9.701068	-0.280262	-0.322631	-0.023027	-0.001508	0.010757	-116.935496	-87.104474	33.746999
15885	9.749953	-0.282809	-0.258304	-0.022872	-0.000842	0.012922	-116.938389	-87.096283	33.737753
15886	9.749914	-0.284199	-0.258267	-0.048579	0.003687	0.017486	-116.893120	-87.087175	33.665658
15887	9.770756	-0.366808	-0.294081	-0.055617	0.008319	0.013994	-116.817683	-87.080806	33.559194
15888	9.725454	-0.403212	-0.241499	-0.062884	0.009351	0.021422	-116.704829	-87.071144	33.411256
15889	9.700143	-0.472716	-0.250886	-0.060420	0.014346	0.013159	-116.577063	-87.066731	33.249639
15890	9.713178	-0.463741	-0.231836	-0.063165	0.011676	0.009849	-116.500225	-87.063560	33.137563
15891	9.678146	-0.501100	-0.251811	-0.061115	0.008045	0.011771	-116.443392	-87.058226	33.046572
15892	9.686437	-0.515185	-0.184367	-0.062897	0.002880	0.005423	-116.476438	-87.055070	33.044685
15893	9.696135	-0.547028	-0.174178	-0.060969	0.002946	0.003743	-116.510384	-87.052551	33.044677
15894	9.732532	-0.528785	-0.210619	-0.051007	0.000233	0.001075	-116.584374	-87.050941	33.090594
15895	9.746983	-0.536871	-0.249830	-0.051501	-0.001047	0.000404	-116.669108	-87.049106	33.146872
15896	9.716733	-0.549456	-0.319783	-0.041956	0.003679	-0.005804	-116.737950	-87.051890	33.192821
15897	9.744277	-0.547076	-0.340614	-0.039898	0.000044	-0.003894	-116.826687	-87.052528	33.259764
15898	9.750994	-0.463287	-0.324778	-0.042098	0.002329	-0.013785	-116.949423	-87.059028	33.359612
15899	9.778000	-0.490357	-0.262748	-0.051748	0.005662	-0.012588	-117.033389	-87.065553	33.414978
15900	9.762791	-0.432509	-0.248973	-0.062989	0.008860	-0.017011	-117.120352	-87.075378	33.466995
15901	9.740959	-0.456991	-0.251196	-0.060095	0.006438	-0.021735	-117.249090	-87.086759	33.562404
15902	9.728041	-0.464450	-0.268873	-0.053641	0.008581	-0.023948	-117.370655	-87.100033	33.654491
15903	9.772176	-0.643411	-0.168682	-0.049760	0.013769	-0.022916	-117.427536	-87.113929	33.683877
15904	9.561000	-0.606634	-0.330713	0.001864	-0.008368	-0.031549	-117.730444	-87.126537	33.989333
15905	9.738223	-0.488102	-0.257148	-0.036504	0.023725	-0.024433	-117.688683	-87.143847	33.927558
15906	9.680681	-0.655556	-0.319577	0.006416	-0.001923	-0.033497	-117.938210	-87.159097	34.182223
15907	9.690118	-0.714503	-0.226600	0.005169	0.008665	-0.031798	-118.067687	-87.176097	34.315803
15908	9.689434	-0.663201	-0.251305	0.055721	0.002849	-0.032162	-118.237125	-87.191872	34.518504
15909	9.688721	-0.611940	-0.276010	0.085516	0.004206	-0.033571	-118.379826	-87.208518	34.711410
15910	9.692869	-0.460318	-0.227324	0.113662	0.006809	-0.028944	-118.460759	-87.223685	34.858651
15911	9.673379	-0.394760	-0.246542	0.129070	0.004398	-0.029343	-118.555944	-87.238222	35.028965
15912	9.678866	-0.261592	-0.255468	0.130283	0.003921	-0.022197	-118.621520	-87.249180	35.170395
15913	9.695090	-0.208501	-0.229037	0.122488	-0.001408	-0.019811	-118.728954	-87.257306	35.349193
15914	9.742961	-0.160331	-0.190136	0.106207	-0.000899	-0.018557	-118.839968	-87.265096	35.522438
15915	9.755971	-0.149017	-0.172529	0.090358	-0.012182	-0.012336	-119.037140	-87.266447	35.772644
15916	9.793335	-0.177754	-0.183852	0.077160	-0.008380	-0.009274	-119.190133	-87.267467	35.971197
15917	9.821869	-0.223412	-0.179340	0.064762	-0.007033	-0.005596	-119.308789	-87.266826	36.128117
15918	9.788671	-0.199971	-0.135632	0.060904	-0.002808	-0.003660	-119.379886	-87.266574	36.235315
15919	9.728868	-0.304629	-0.166473	0.053331	-0.003117	-0.000571	-119.434439	-87.264506	36.321501
15920	9.742765	-0.420970	-0.243984	0.079975	-0.004317	0.002062	-119.476501	-87.260985	36.410717
15921	9.759903	-0.418286	-0.192097	0.085241	0.001100	0.012355	-119.392589	-87.253652	36.376583
15922	9.703673	-0.453526	-0.297518	0.091639	-0.001108	0.011601	-119.338473	-87.246264	36.376105
15923	9.709932	-0.371823	-0.282411	0.094977	-0.006618	0.009030	-119.348821	-87.238422	36.441926
15924	9.718723	-0.356297	-0.298232	0.081817	-0.003533	0.006254	-119.356663	-87.233014	36.497824
15925	9.699360	-0.450178	-0.331156	0.066249	-0.001796	0.004482	-119.359781	-87.228796	36.539927
15926	9.709188	-0.481960	-0.320445	0.072033	-0.001612	-0.000554	-119.392848	-87.227334	36.615561
15927	9.707691	-0.463454	-0.263403	0.067212	0.000048	0.000026	-119.402156	-87.225859	36.664415
15928	9.735224	-0.461591	-0.283827	0.055693	0.001842	-0.008773	-119.456539	-87.229455	36.751940
15929	9.685921	-0.489048	-0.265001	0.051030	-0.000910	-0.010394	-119.545817	-87.232901	36.871573
15930	9.698983	-0.477710	-0.247059	0.049746	-0.004830	-0.016046	-119.715728	-87.238218	37.071495
15931	9.678717	-0.521691	-0.306398	0.048772	-0.007403	-0.017376	-119.915348	-87.243254	37.300302
15932	9.673100	-0.495118	-0.283899	0.046352	-0.008747	-0.016358	-120.130794	-87.247520	37.543727
15933	9.734450	-0.407430	-0.311140	0.051830	0.000256	-0.017013	-120.249029	-87.254510	37.692808
15934	9.756898	-0.271232	-0.271205	0.047965	0.000140	-0.013647	-120.356799	-87.259945	37.829345
15935	9.721059	-0.259265	-0.317616	0.028570	0.001746	-0.012087	-120.444249	-87.264907	37.934263
15936	9.723149	-0.168906	-0.336502	0.011590	0.004695	-0.011543	-120.514106	-87.270608	38.012023
15937	9.732546	-0.307560	-0.362448	0.008390	0.010892	-0.006822	-120.486764	-87.275621	37.990441
15938	9.765859	-0.251556	-0.284903	0.004806	0.003436	0.003784	-120.480408	-87.273402	37.988182
15939	9.670354	-0.266614	-0.239635	-0.003801	0.012928	-0.001034	-120.403505	-87.276146	37.909991
15940	9.698961	-0.312717	-0.232778	-0.006213	0.011582	-0.000020	-120.341552	-87.278162	37.845446
15941	9.600330	-0.369373	-0.194774	-0.003684	0.004910	0.004054	-120.316827	-87.276062	37.819559
15942	9.613296	-0.359665	-0.176978	0.007160	-0.008263	0.007164	-120.409826	-87.268778	37.917875
15943	9.780439	-0.446848	-0.249235	0.007798	-0.001205	0.014337	-120.379452	-87.259826	37.892919
15944	9.689983	-0.596565	-0.265150	0.042407	-0.000792	0.014625	-120.329285	-87.251006	37.867958
15945	9.760074	-0.416489	-0.187223	0.064643	0.001728	0.024358	-120.176719	-87.237937	37.753274
15946	9.739230	-0.308865	-0.235061	0.080944	-0.002442	0.026824	-120.050374	-87.222593	37.674414
15947	9.753265	-0.164489	-0.263364	0.075951	-0.005807	0.026705	-119.956751	-87.206178	37.625227
15948	9.748378	-0.269666	-0.334434	0.055928	-0.001061	0.029771	-119.815524	-87.189758	37.517081
15949	9.767941	-0.335475	-0.312919	0.057649	-0.005278	0.033225	-119.691466	-87.170239	37.426922
15950	9.756516	-0.288430	-0.267183	0.036695	0.001243	0.033478	-119.520033	-87.152591	37.277399
15951	9.757906	-0.310999	-0.323488	0.026612	0.003281	0.033927	-119.327586	-87.135106	37.100958
15952	9.836604	-0.380142	-0.309068	0.013663	0.007035	0.033248	-119.116889	-87.119154	36.898867
15953	9.678512	-0.435922	-0.262925	0.008884	0.007941	0.027992	-118.925368	-87.105876	36.713178
15954	9.672760	-0.413758	-0.239603	0.009136	0.000618	0.035263	-118.774352	-87.087074	36.568412
15955	9.707549	-0.536131	-0.229211	0.018961	0.011001	0.031892	-118.529647	-87.072617	36.335246
15956	9.678978	-0.493640	-0.233973	0.053780	0.009141	0.043828	-118.228390	-87.051751	36.065572
15957	9.643603	-0.459060	-0.362856	0.084164	0.008029	0.043209	-117.922233	-87.030652	35.808272
15958	9.701354	-0.291826	-0.303187	0.093702	0.005458	0.047943	-117.621002	-87.006568	35.561512
15959	9.715718	-0.305921	-0.341075	0.071915	0.005778	0.050491	-117.315334	-86.981032	35.297663
15960	9.738644	-0.459902	-0.404165	0.058671	0.013290	0.049817	-116.958340	-86.957883	34.974643
15961	9.794761	-0.429499	-0.297357	0.060584	0.013337	0.048152	-116.607828	-86.935332	34.659373
15962	9.754027	-0.445542	-0.292757	0.043999	0.016170	0.041339	-116.282075	-86.917072	34.359416
15963	9.753894	-0.449538	-0.291067	0.032810	0.014965	0.038284	-115.986723	-86.899819	34.083439
15964	9.730325	-0.460058	-0.234837	0.006959	0.017414	0.032532	-115.717633	-86.886232	33.818822
15965	9.633211	-0.585143	-0.225202	-0.005011	0.013546	0.024488	-115.525414	-86.875622	33.624422
15966	9.670272	-0.617512	-0.233551	-0.002267	0.015479	0.021978	-115.331588	-86.866941	33.430385
15967	9.683829	-0.656987	-0.187373	0.005195	0.012168	0.026231	-115.141320	-86.855020	33.243792
15968	9.679025	-0.605817	-0.247027	0.013537	0.009196	0.018017	-115.016717	-86.846804	33.128039
15969	9.715491	-0.590211	-0.282773	0.018655	0.008118	0.015981	-114.903921	-86.839179	33.026755
15970	9.734007	-0.606699	-0.286634	0.024925	0.009530	0.011615	-114.798889	-86.834334	32.937188
15971	9.767889	-0.476056	-0.319796	0.021098	0.008672	0.009153	-114.709922	-86.830375	32.861171
15972	9.792832	-0.361223	-0.336813	0.004399	0.015944	0.004479	-114.587499	-86.830730	32.742110
15973	9.755735	-0.331400	-0.325407	-0.017461	0.019958	0.003327	-114.439672	-86.832474	32.585016
15974	9.715173	-0.342853	-0.320860	-0.049429	0.016587	-0.000251	-114.362263	-86.835437	32.480271
15975	9.679213	-0.407348	-0.255636	-0.072897	0.021163	-0.001215	-114.253787	-86.839805	32.330778
15976	9.672880	-0.537673	-0.241206	-0.082576	0.010730	-0.001486	-114.255806	-86.842016	32.286510
15977	9.663078	-0.709471	-0.234329	-0.067698	0.011321	-0.003916	-114.248749	-86.845471	32.241575
15978	9.690713	-0.707979	-0.254147	-0.047868	0.016030	-0.000395	-114.175337	-86.848328	32.141309
15979	9.701700	-0.630563	-0.205378	-0.029004	0.013051	-0.002546	-114.123646	-86.851468	32.073877
15980	9.686636	-0.573417	-0.192550	-0.024029	0.011289	-0.006744	-114.108533	-86.856543	32.046037
15981	9.695717	-0.556319	-0.207604	-0.019871	0.007636	-0.010113	-114.135272	-86.862371	32.062394
15982	9.701351	-0.580632	-0.229779	-0.014597	0.007245	-0.009990	-114.167138	-86.868197	32.087073
15983	9.686289	-0.522953	-0.217429	-0.011886	0.004838	-0.011017	-114.220135	-86.873838	32.134307
15984	9.726412	-0.462863	-0.246450	-0.005309	0.007627	-0.011057	-114.247967	-86.880309	32.160369
15985	9.726482	-0.461557	-0.246132	-0.011889	-0.000270	-0.015358	-114.369160	-86.887007	32.275899
15986	9.708534	-0.492740	-0.214165	-0.008989	0.007458	-0.011360	-114.402217	-86.893562	32.304641
15987	9.710185	-0.510814	-0.270481	-0.006948	-0.001264	-0.013739	-114.523858	-86.899163	32.423453
15988	9.732857	-0.530507	-0.241414	-0.005944	0.005656	-0.013883	-114.584273	-86.906602	32.481477
15989	9.717754	-0.472533	-0.229241	0.001227	0.000968	-0.013959	-114.681493	-86.912832	32.580522
15990	9.745428	-0.469838	-0.249900	-0.002601	0.000114	-0.016424	-114.805043	-86.920257	32.703590
15991	9.695302	-0.448457	-0.257969	-0.005315	0.002520	-0.015395	-114.898330	-86.927587	32.794942
15992	9.695368	-0.447048	-0.257919	-0.003271	-0.001094	-0.013433	-115.022206	-86.933146	32.918251
15993	9.704420	-0.429503	-0.273803	-0.002789	0.000194	-0.012767	-115.125557	-86.938528	33.021130
15994	9.703853	-0.380863	-0.300385	-0.003273	0.004013	-0.009091	-115.180712	-86.943068	33.075660
15995	9.729882	-0.359439	-0.264437	-0.011149	-0.001961	-0.008889	-115.292618	-86.945898	33.182307
15996	9.707917	-0.385306	-0.266668	-0.014049	0.000523	-0.004204	-115.365475	-86.947040	33.248247
15997	9.717561	-0.416166	-0.255499	-0.022823	0.005765	-0.003943	-115.386521	-86.949193	33.257207
15998	9.757054	-0.512762	-0.294610	-0.013718	0.006234	-0.001355	-115.390573	-86.950258	33.254339
15999	9.738458	-0.497882	-0.288955	-0.005096	0.010519	0.004908	-115.314509	-86.948994	33.176222
16000	9.741847	-0.456625	-0.280921	-0.001231	0.010613	0.001556	-115.255920	-86.949603	33.117771
16001	9.732256	-0.425564	-0.290630	0.000216	0.014477	0.003557	-115.144555	-86.949994	33.007351
16002	9.750900	-0.440959	-0.293902	0.003596	0.018387	0.003883	-114.996888	-86.951267	32.862502
16003	9.744693	-0.368741	-0.296043	0.008352	0.017474	0.009157	-114.826204	-86.949442	32.697347
16004	9.744719	-0.369637	-0.294085	-0.004103	0.022546	0.009112	-114.618279	-86.949019	32.488358
16005	9.734032	-0.447627	-0.339537	0.000874	0.025898	0.009259	-114.369340	-86.949078	32.240546
16006	9.734649	-0.496386	-0.309807	0.013203	0.034698	0.014364	-114.009810	-86.948630	31.889514
16007	9.698581	-0.562716	-0.243041	0.017884	0.036683	0.010191	-113.640967	-86.950543	31.531388
16008	9.743195	-0.638554	-0.328518	0.017208	0.035475	0.013183	-113.276540	-86.950609	31.177338
16009	9.734103	-0.575895	-0.188811	0.041880	0.037751	0.010375	-112.881937	-86.952416	30.807184
16010	9.720663	-0.539487	-0.229840	0.031811	0.034710	0.006444	-112.544214	-86.955655	30.488571
16011	9.744971	-0.580735	-0.254023	0.057030	0.030270	0.009428	-112.218425	-86.956092	30.196023
16012	9.744325	-0.453826	-0.157554	0.050003	0.030534	0.007320	-111.907552	-86.957759	29.914629
16013	9.728004	-0.506510	-0.179332	0.043903	0.029033	0.008019	-111.607018	-86.958514	29.639840
16014	9.718487	-0.475949	-0.187291	0.049843	0.029850	0.005172	-111.311294	-86.961023	29.373591
16015	9.679743	-0.507302	-0.238013	0.052106	0.030496	0.002013	-111.014159	-86.965138	29.106914
16016	9.670283	-0.476090	-0.246148	0.037894	0.025990	-0.002911	-110.794164	-86.971043	28.909582
16017	9.657453	-0.486003	-0.261456	0.030734	0.025564	-0.007194	-110.592894	-86.978979	28.726644
16018	9.635553	-0.511778	-0.261111	0.011879	0.023422	-0.009439	-110.436769	-86.987772	28.577965
16019	9.656206	-0.511966	-0.173703	0.004707	0.013535	-0.016584	-110.407291	-86.998298	28.552127
16020	9.691221	-0.473374	-0.152164	-0.003087	0.016245	-0.019363	-110.370176	-87.010997	28.514442
16021	9.719057	-0.470396	-0.171045	-0.005805	0.018653	-0.018345	-110.300167	-87.023487	28.441987
16022	9.744506	-0.400509	-0.160421	0.001845	0.015257	-0.017724	-110.263516	-87.035104	28.407648
16023	9.713081	-0.393991	-0.172133	-0.004689	0.016804	-0.019185	-110.214323	-87.047672	28.356680
16024	9.718474	-0.370274	-0.220123	-0.018965	0.018179	-0.013971	-110.143122	-87.057859	28.275730
16025	9.719022	-0.416297	-0.191740	-0.022816	0.012977	-0.014971	-110.127430	-87.067400	28.247908
16026	9.659851	-0.411195	-0.183600	-0.030341	0.007602	-0.016289	-110.182580	-87.076727	28.286764
16027	9.684348	-0.450156	-0.210355	-0.033738	0.008804	-0.012282	-110.206741	-87.083999	28.292581
16028	9.710157	-0.428297	-0.173785	-0.027683	0.005969	-0.011486	-110.259326	-87.090427	28.330518
16029	9.726858	-0.422848	-0.121643	-0.028838	0.003474	-0.009166	-110.325153	-87.094965	28.380865
16030	9.745073	-0.389500	-0.152898	-0.027885	0.006053	-0.007827	-110.363097	-87.099437	28.404009
16031	9.723156	-0.415314	-0.154833	-0.033194	0.002095	-0.006494	-110.435819	-87.102260	28.458760
16032	9.723191	-0.414427	-0.154992	-0.034770	-0.002458	-0.010659	-110.580258	-87.106582	28.585213
16033	9.675572	-0.460330	-0.193380	-0.044958	0.003258	-0.013904	-110.677398	-87.113602	28.657663
16034	9.709660	-0.530825	-0.209830	-0.038958	0.001190	-0.007295	-110.772226	-87.116793	28.731418
16035	9.703900	-0.504765	-0.187108	-0.036884	0.001921	-0.006799	-110.850877	-87.119724	28.789987
16036	9.702933	-0.408770	-0.240914	-0.033521	-0.003617	-0.009334	-111.002047	-87.122991	28.923084
16037	9.723388	-0.409607	-0.155463	-0.034476	0.003258	-0.007792	-111.069515	-87.126716	28.971838
16038	9.723417	-0.408966	-0.155308	-0.033076	0.002779	-0.004312	-111.132714	-87.128570	29.016914
16039	9.750663	-0.359691	-0.202584	-0.031030	-0.000835	-0.002350	-111.219588	-87.128535	29.087076
16040	9.732516	-0.392208	-0.170912	-0.028166	0.006896	0.001673	-111.210964	-87.128085	29.063344
16041	9.744127	-0.443008	-0.216199	-0.021176	0.002292	0.005264	-111.227412	-87.124629	29.068644
16042	9.740831	-0.485185	-0.223069	-0.015279	0.003879	0.008236	-111.216147	-87.120055	29.049689
16043	9.722132	-0.471020	-0.218093	-0.005534	0.001217	0.009334	-111.218262	-87.114202	29.049612
16044	9.725370	-0.430450	-0.210738	-0.002500	0.004524	0.011168	-111.180752	-87.108165	29.011358
16045	9.715766	-0.399976	-0.221336	-0.011741	0.003372	0.006390	-111.175787	-87.104331	29.000630
16046	9.709173	-0.483708	-0.235350	-0.017837	0.001862	0.007073	-111.192506	-87.099941	29.008094
16047	9.744428	-0.495165	-0.188270	-0.018316	0.000575	0.006403	-111.220722	-87.095521	29.026818
16048	9.665714	-0.585343	-0.213268	-0.015365	0.002443	0.000258	-111.257921	-87.094903	29.056467
16049	9.728732	-0.595183	-0.186415	0.003315	0.004668	0.006162	-111.231589	-87.091460	29.032982
16050	9.704265	-0.555198	-0.158531	0.010900	-0.000164	-0.001216	-111.286348	-87.091118	29.095507
16051	9.731535	-0.506319	-0.205724	0.020785	-0.002147	0.002044	-111.338382	-87.088456	29.160512
16052	9.694220	-0.476341	-0.196157	0.020196	0.000230	-0.002253	-111.387547	-87.088687	29.222073
16053	9.703800	-0.507330	-0.185385	0.021485	-0.006037	-0.005291	-111.510052	-87.089113	29.358042
16054	9.718703	-0.515791	-0.224411	0.016204	-0.005652	-0.005429	-111.636668	-87.089792	29.495127
16055	9.727805	-0.499029	-0.240550	0.016681	-0.004364	-0.004758	-111.742264	-87.090259	29.611409
16056	9.731113	-0.456855	-0.233815	0.011599	-0.004056	-0.008550	-111.868633	-87.092926	29.745943
16057	9.740726	-0.487184	-0.223294	0.002022	-0.005816	-0.011837	-112.027941	-87.096818	29.907596
16058	9.713041	-0.487241	-0.202986	-0.000335	0.001539	-0.013770	-112.125301	-87.103421	30.006142
16059	9.700242	-0.496253	-0.221253	0.003622	-0.006373	-0.012014	-112.291225	-87.107249	30.175335
16060	9.718441	-0.462520	-0.253095	0.003791	-0.001345	-0.011317	-112.406702	-87.111893	30.294247
16061	9.718494	-0.461291	-0.253305	0.003173	-0.003316	-0.014149	-112.550958	-87.117482	30.441486
16062	9.740476	-0.433411	-0.251215	0.005728	-0.001296	-0.012986	-112.673807	-87.123011	30.569382
16063	9.731469	-0.448455	-0.235255	0.008311	0.005070	-0.013289	-112.724055	-87.129970	30.625441
16064	9.734781	-0.405587	-0.227887	0.006541	0.000599	-0.013807	-112.830160	-87.136324	30.736762
16065	9.738612	-0.410578	-0.193957	0.004885	0.001915	-0.007814	-112.891926	-87.139682	30.802386
16066	9.712967	-0.430041	-0.229784	0.002075	0.002874	-0.014767	-112.981258	-87.147017	30.894027
16067	9.725867	-0.418500	-0.211841	0.004099	-0.005084	-0.011340	-113.133936	-87.150653	31.050226
16068	9.691156	-0.454312	-0.232396	0.004266	-0.000056	-0.010645	-113.235762	-87.155081	31.155215
16069	9.682147	-0.469658	-0.216528	0.006820	0.001965	-0.009482	-113.304417	-87.159305	31.228847
16070	9.715206	-0.444971	-0.286462	0.011481	-0.000387	-0.012174	-113.413416	-87.164511	31.345895
16071	9.719051	-0.449778	-0.252638	0.017096	-0.000160	-0.013525	-113.517969	-87.170363	31.461363
16072	9.709471	-0.417478	-0.263366	0.007773	0.004543	-0.008141	-113.558674	-87.174540	31.507677
16073	9.737262	-0.415052	-0.283711	0.009261	-0.001803	-0.014826	-113.692011	-87.180681	31.647468
16074	9.722413	-0.404932	-0.245046	-0.003263	0.004011	-0.009090	-113.750224	-87.185208	31.704916
16075	9.719268	-0.445569	-0.251758	-0.009018	0.003101	-0.009899	-113.819366	-87.189881	31.769947
16076	9.709669	-0.413408	-0.262484	-0.007277	0.003229	-0.007914	-113.883207	-87.193677	31.831568
16077	9.671813	-0.491185	-0.289384	-0.009526	0.006918	-0.006221	-113.894756	-87.197302	31.838645
16078	9.762678	-0.201696	-0.089024	-0.004748	0.000906	-0.005284	-113.968577	-87.199106	31.910617
16079	9.708678	-0.472185	-0.325298	-0.037041	0.001200	-0.008952	-114.070305	-87.202826	31.992197
16080	9.727032	-0.454079	-0.182983	-0.014691	0.003634	-0.002730	-114.109454	-87.203957	32.024411
16081	9.715697	-0.435705	-0.284032	-0.011013	0.003812	-0.002414	-114.137188	-87.204863	32.046840
16082	9.714720	-0.355344	-0.163503	-0.009552	0.002574	-0.004752	-114.194402	-87.206731	32.099307
16083	9.709869	-0.409655	-0.260948	-0.014856	-0.001395	-0.003426	-114.285026	-87.206939	32.182496
16084	9.707788	-0.390192	-0.204478	-0.021598	0.000220	-0.001225	-114.357499	-87.206466	32.244005
16085	9.754856	-0.451104	-0.203191	-0.020138	-0.001017	-0.003563	-114.447783	-87.206823	32.323823
16086	9.742047	-0.460988	-0.221275	-0.018851	0.002167	-0.003712	-114.509143	-87.208139	32.376025
16087	9.697710	-0.466232	-0.252550	-0.021266	0.000827	-0.002714	-114.576282	-87.208483	32.432024
16088	9.716444	-0.480626	-0.257150	-0.015767	0.004722	-0.007690	-114.628940	-87.212377	32.476293
16089	9.745904	-0.465665	-0.187175	-0.016798	-0.001446	-0.001755	-114.713204	-87.211671	32.552001
16090	9.760219	-0.426540	-0.252388	-0.009556	0.002576	-0.004747	-114.770167	-87.213560	32.604480
16091	9.717581	-0.418615	-0.192910	-0.011472	0.006871	-0.004540	-114.776243	-87.216294	32.604963
16092	9.719710	-0.437412	-0.248976	-0.012144	0.005656	-0.001559	-114.786216	-87.217231	32.608693
16093	9.763459	-0.383819	-0.243926	-0.013237	0.002398	-0.005062	-114.843797	-87.219161	32.659727
16094	9.722906	-0.395265	-0.241254	-0.014895	0.003707	0.000930	-114.864044	-87.218376	32.672763
16095	9.663014	-0.344416	-0.260301	-0.018100	0.004817	0.001287	-114.867089	-87.217586	32.666409
16096	9.690769	-0.343090	-0.280475	-0.024197	0.003298	0.001970	-114.892006	-87.216202	32.679189
16097	9.693922	-0.301796	-0.273086	-0.031756	0.003014	0.004994	-114.903761	-87.213050	32.673720
16098	9.717898	-0.294826	-0.326865	-0.038679	0.009045	0.009394	-114.839748	-87.209153	32.588825
16099	9.721656	-0.301861	-0.292605	-0.046406	0.003733	0.011716	-114.819180	-87.202679	32.542592
16100	9.716341	-0.325651	-0.242842	-0.044053	0.005824	0.016540	-114.757007	-87.194285	32.456220
16101	9.729705	-0.364883	-0.197574	-0.038806	0.010542	0.021039	-114.615044	-87.184581	32.292805
16102	9.742460	-0.356793	-0.178708	-0.030992	0.007834	0.023800	-114.489805	-87.172858	32.150509
16103	9.691177	-0.415956	-0.076911	-0.035017	0.007049	0.024979	-114.365836	-87.160235	32.007280
16104	9.709230	-0.541505	-0.118732	-0.024448	0.006288	0.025252	-114.248635	-87.147338	31.876633
16105	9.701598	-0.531419	-0.186486	-0.010689	-0.009379	0.023707	-114.290498	-87.131491	31.913396
16106	9.722773	-0.615443	-0.221914	-0.009405	0.003248	0.026477	-114.192283	-87.117285	31.811121
16107	9.729613	-0.582251	-0.181209	0.003961	-0.010103	0.016983	-114.264436	-87.104782	31.886618
16108	9.753516	-0.576134	-0.236249	-0.001776	-0.006656	0.014723	-114.319063	-87.094318	31.940958
16109	9.747597	-0.552147	-0.213840	-0.000425	-0.004216	0.008762	-114.370453	-87.087489	31.993150
16110	9.753381	-0.578025	-0.237233	-0.000565	-0.004893	0.006598	-114.443524	-87.081728	32.067377
16111	9.716005	-0.548419	-0.228005	0.007199	-0.004680	-0.000083	-114.535960	-87.079394	32.165043
16112	9.715995	-0.548354	-0.228570	0.007847	-0.007810	-0.001610	-114.671850	-87.077145	32.306411
16113	9.747517	-0.552809	-0.215751	0.013837	-0.002625	-0.005911	-114.766599	-87.078317	32.410202
16114	9.715520	-0.499661	-0.255792	0.012881	-0.005198	-0.007257	-114.899822	-87.079602	32.552028
16115	9.715552	-0.498851	-0.256149	0.011953	-0.003422	-0.010058	-115.023657	-87.082713	32.683861
16116	9.675010	-0.509266	-0.254160	0.011195	-0.006063	-0.015058	-115.203585	-87.087824	32.871580
16117	9.696979	-0.481365	-0.252242	0.012937	-0.005942	-0.013074	-115.367792	-87.091843	33.044400
16118	9.715175	-0.447241	-0.283978	0.015691	-0.003992	-0.015560	-115.527548	-87.097675	33.214519
16119	9.709387	-0.420790	-0.261182	0.009897	0.000197	-0.012005	-115.626656	-87.102616	33.320412
16120	9.693974	-0.362936	-0.249275	0.004641	-0.004516	-0.016499	-115.803876	-87.108732	33.501368
16121	9.734600	-0.349853	-0.252129	-0.002922	-0.004798	-0.013472	-115.969546	-87.113151	33.666552
16122	9.712733	-0.375457	-0.254859	-0.007310	-0.001097	-0.006444	-116.070714	-87.114938	33.765242
16123	9.746358	-0.398443	-0.298385	-0.006973	-0.000487	-0.007934	-116.167608	-87.117561	33.859238
16124	9.757142	-0.368563	-0.223707	-0.012596	-0.000716	-0.006577	-116.268931	-87.119448	33.954490
16125	9.753966	-0.409421	-0.231062	-0.019486	0.000220	-0.006530	-116.359001	-87.121512	34.034475
16126	9.728337	-0.428972	-0.267222	-0.025703	0.002375	-0.009462	-116.450951	-87.125693	34.113107
16127	9.750851	-0.449290	-0.238048	-0.028294	0.005451	-0.006264	-116.491555	-87.128947	34.138510
16128	9.697485	-0.470472	-0.253341	-0.024612	0.005627	-0.005950	-116.532469	-87.132099	34.166208
16129	9.671277	-0.442540	-0.315580	-0.015979	0.004813	-0.004013	-116.561178	-87.134034	34.186766
16130	9.703434	-0.494337	-0.275585	-0.007429	0.002580	-0.010058	-116.644070	-87.138564	34.266951
16131	9.693835	-0.462191	-0.286140	-0.003941	0.002822	-0.006092	-116.697114	-87.141049	34.318780
16132	9.710467	-0.457740	-0.233912	0.007589	0.004637	-0.004480	-116.721770	-87.143194	34.348688
16133	9.697084	-0.419679	-0.277916	0.006321	0.005803	-0.005789	-116.736924	-87.146289	34.368467
16134	9.699826	-0.485828	-0.307694	0.010795	0.003527	-0.004839	-116.772426	-87.148375	34.411319
16135	9.725505	-0.464919	-0.271093	0.009051	0.003405	-0.006822	-116.816111	-87.151378	34.461231
16136	9.700515	-0.532348	-0.280436	0.007784	0.004571	-0.008132	-116.860741	-87.155359	34.511259
16137	9.704347	-0.537745	-0.245992	0.013094	0.008543	-0.009450	-116.863137	-87.161033	34.522149
16138	9.707165	-0.603156	-0.275697	0.014113	0.000931	-0.016829	-116.987053	-87.168544	34.655439
16139	9.689586	-0.526109	-0.206541	0.017341	0.004171	-0.018640	-117.081067	-87.177768	34.760495
16140	9.704020	-0.485250	-0.271050	0.016072	0.005337	-0.019949	-117.176778	-87.187950	34.866431
16141	9.716945	-0.472941	-0.252446	0.022680	0.003051	-0.024318	-117.311218	-87.199753	35.015022
16142	9.726101	-0.454333	-0.267666	0.022818	0.003729	-0.022153	-117.431811	-87.210615	35.149289
16143	9.716525	-0.420806	-0.278124	0.025882	0.001943	-0.024671	-117.580237	-87.222272	35.313716
16144	9.706934	-0.387256	-0.288662	0.022336	0.002442	-0.022821	-117.721981	-87.233206	35.470454
16145	9.679267	-0.386671	-0.267915	0.023601	0.001279	-0.021509	-117.863679	-87.243041	35.626835
16146	9.688377	-0.368239	-0.283420	0.026805	0.000172	-0.021864	-118.023951	-87.252774	35.804026
16147	9.708081	-0.320736	-0.224350	0.027400	-0.002210	-0.017571	-118.180225	-87.259637	35.977176
16148	9.686322	-0.345791	-0.226975	0.026587	-0.004107	-0.016752	-118.359614	-87.265617	36.174014
16149	9.693026	-0.417308	-0.223655	0.029261	-0.005752	-0.011965	-118.521701	-87.268640	36.354050
16150	9.689280	-0.410174	-0.257945	0.037413	-0.007838	-0.010692	-118.701075	-87.270494	36.557180
16151	9.748592	-0.412299	-0.265704	0.041424	-0.007046	-0.011862	-118.869924	-87.273057	36.750963
16152	9.732927	-0.354800	-0.254272	0.039817	-0.006493	-0.011681	-119.040306	-87.275617	36.945483
16153	9.773484	-0.342170	-0.257139	0.036414	-0.005313	-0.007672	-119.169853	-87.276514	37.097044
16154	9.763758	-0.310175	-0.268293	0.038029	-0.001519	-0.009308	-119.274269	-87.279270	37.224449
16155	9.741238	-0.288509	-0.297467	0.027922	-0.003837	-0.007451	-119.392145	-87.280443	37.359454
16156	9.754045	-0.277526	-0.279455	0.013835	0.001746	-0.007348	-119.465233	-87.283180	37.442228
16157	9.531695	-0.489806	-0.363035	0.000914	0.000382	-0.012441	-119.584294	-87.288009	37.562927
16158	10.173922	-0.026681	-0.158323	0.048090	-0.000587	0.009900	-119.559623	-87.281461	37.567356
16159	9.488112	-0.311666	-0.467307	-0.048670	0.000815	0.001051	-119.622089	-87.279684	37.602956
16160	9.652852	-0.314115	-0.185071	-0.052178	0.028148	-0.000068	-119.411927	-87.286156	37.363299
16161	9.702617	-0.751497	-0.497645	-0.021773	-0.009188	-0.000466	-119.573285	-87.282317	37.513330
16162	9.769157	-0.409665	-0.178893	0.012439	0.013868	0.005849	-119.441783	-87.281876	37.390621
16163	9.762962	-0.477864	-0.365519	0.009746	0.011160	0.002525	-119.353409	-87.282279	37.308718
16164	9.758690	-0.331264	-0.214318	0.001298	0.007533	-0.001610	-119.338133	-87.283704	37.294951
16165	9.708256	-0.528495	-0.295750	0.001273	0.016982	0.001278	-119.200517	-87.286352	37.158891
16166	9.721889	-0.457436	-0.212641	0.009465	0.009797	-0.001794	-119.157654	-87.288484	37.122090
16167	9.689586	-0.513476	-0.288446	0.011221	0.014273	-0.001271	-119.057587	-87.291635	37.029328
16168	9.689711	-0.404758	-0.250192	0.015275	0.009961	-0.006791	-119.038055	-87.296347	37.019328
16169	9.688984	-0.464677	-0.312893	0.008111	0.009519	-0.011077	-119.047685	-87.303083	37.034601
16170	9.702601	-0.392718	-0.229994	0.007595	0.013333	-0.007399	-119.001652	-87.309063	36.994449
16171	9.707898	-0.477929	-0.315311	0.008250	0.010201	-0.008916	-118.991088	-87.314905	36.989585
16172	9.727483	-0.431218	-0.255398	0.022016	0.008360	-0.008980	-118.998404	-87.320345	37.011430
16173	9.746312	-0.445294	-0.259015	0.020091	0.012652	-0.008776	-118.953882	-87.326797	36.979363
16174	9.719332	-0.384999	-0.173762	0.024284	0.009022	-0.012131	-118.971674	-87.333869	37.011802
16175	9.747169	-0.382553	-0.193252	0.020409	0.008913	-0.008800	-118.967227	-87.339297	37.020036
16176	9.706700	-0.393332	-0.189858	0.023013	0.010181	-0.013443	-118.981591	-87.347442	37.049289
16177	9.722549	-0.448725	-0.200731	0.030019	0.005601	-0.009846	-119.013876	-87.352474	37.099806
16178	9.712087	-0.369188	-0.237778	0.035906	0.007210	-0.006867	-119.012986	-87.356496	37.120988
16179	9.702365	-0.337273	-0.248177	0.029206	0.003705	-0.009022	-119.061601	-87.360586	37.187387
16180	9.711417	-0.320156	-0.263396	0.024398	0.005361	-0.008498	-119.096953	-87.364850	37.237501
16181	9.683667	-0.320876	-0.242418	0.016710	0.004382	-0.007651	-119.137376	-87.368438	37.288531
16182	9.708525	-0.360186	-0.269583	0.007940	0.000136	-0.010303	-119.251865	-87.372150	37.408894
16183	9.699548	-0.375575	-0.254004	-0.001025	-0.004031	-0.009306	-119.404590	-87.374194	37.562172
16184	9.705624	-0.399825	-0.277140	-0.008044	-0.003800	-0.011439	-119.578726	-87.377400	37.733745
16185	9.706442	-0.446092	-0.250843	-0.007053	-0.006328	-0.014441	-119.792351	-87.381305	37.944528
16186	9.706492	-0.444698	-0.251396	-0.013462	-0.004121	-0.013745	-119.988531	-87.385504	38.135102
16187	9.723008	-0.438992	-0.200017	-0.004842	-0.004903	-0.011786	-120.169900	-87.388436	38.314863
16188	9.731241	-0.373951	-0.243049	-0.006444	-0.004351	-0.011611	-120.351398	-87.391466	38.494699
16189	9.718541	-0.383225	-0.261510	-0.004370	-0.003612	-0.011116	-120.515025	-87.394391	38.656969
16190	9.712514	-0.356827	-0.239206	-0.008520	-0.005091	-0.012106	-120.708814	-87.397358	38.847253
16191	9.746378	-0.379495	-0.283082	-0.008057	-0.008145	-0.009970	-120.916972	-87.398340	39.051985
16192	9.687101	-0.375430	-0.276476	-0.008846	-0.001352	-0.012081	-121.072864	-87.402339	39.204668
16193	9.727653	-0.362196	-0.279158	-0.007855	-0.003878	-0.015083	-121.268877	-87.407034	39.397357
16194	9.727695	-0.360819	-0.279506	-0.009319	-0.002643	-0.012749	-121.443030	-87.410902	39.567258
16195	9.703113	-0.428166	-0.289160	-0.004567	-0.003533	-0.007466	-121.584091	-87.411928	39.706824
16196	9.705186	-0.338044	-0.309397	-0.001641	-0.006002	-0.012132	-121.788074	-87.414476	39.911827
16197	9.696238	-0.353372	-0.294095	-0.004235	-0.002926	-0.008955	-121.932732	-87.416371	40.055184
16198	9.717961	-0.325635	-0.292093	-0.005977	-0.003060	-0.010938	-122.099841	-87.419212	40.220988
16199	9.761674	-0.379549	-0.324588	-0.009515	-0.002566	-0.009099	-122.245124	-87.421252	40.361941
16200	9.724080	-0.349156	-0.315424	-0.006031	-0.002299	-0.005132	-122.365444	-87.421447	40.480715
16201	9.721787	-0.329292	-0.258779	-0.001543	0.004135	-0.007095	-122.420786	-87.424551	40.536208
16202	9.727017	-0.306412	-0.307932	-0.005414	0.004021	-0.003767	-122.462796	-87.425992	40.576376
16203	9.730802	-0.312011	-0.273736	-0.007017	0.004571	-0.003592	-122.492785	-87.427533	40.603351
16204	9.706257	-0.380076	-0.282702	-0.007349	0.003964	-0.002103	-122.525344	-87.428132	40.632808
16205	9.687464	-0.364968	-0.277764	-0.003013	0.001024	-0.003298	-122.589224	-87.428435	40.696005
16206	9.697327	-0.395884	-0.266569	-0.004144	0.002864	-0.002453	-122.634825	-87.428866	40.740654
16207	9.734962	-0.425328	-0.275858	-0.003345	0.000416	-0.001809	-122.695184	-87.428257	40.800136
16208	9.725140	-0.393717	-0.286601	-0.001072	0.005427	-0.006424	-122.738892	-87.431427	40.845005
16209	9.719078	-0.367912	-0.263550	-0.003152	0.000340	-0.005456	-122.825242	-87.432547	40.930614
16210	9.755832	-0.349480	-0.299829	-0.002353	-0.002108	-0.004812	-122.939968	-87.432552	41.045605
16211	9.737041	-0.334197	-0.294891	-0.007817	0.007019	-0.004236	-122.948987	-87.435155	41.051130
16212	9.724355	-0.344192	-0.312392	-0.008621	0.005121	-0.003416	-122.978021	-87.436773	41.076371
16213	9.721517	-0.385521	-0.318994	-0.005276	0.004705	-0.001608	-122.992166	-87.437391	41.088485
16214	9.743212	-0.358704	-0.316167	-0.001459	0.005579	0.000871	-122.983166	-87.437087	41.079959
16215	9.728156	-0.350071	-0.277092	0.003961	0.005904	0.003175	-122.945833	-87.435780	41.045841
16216	9.743238	-0.359061	-0.314969	0.000948	0.006927	-0.000122	-122.928168	-87.436343	41.029903
16217	9.731937	-0.356195	-0.241852	0.003826	0.009566	-0.000445	-122.876745	-87.437916	40.981603
16218	9.706527	-0.377218	-0.277216	0.005702	0.006037	0.005160	-122.828804	-87.435681	40.938180
16219	9.716385	-0.408672	-0.265451	0.010709	0.008658	-0.000473	-122.783360	-87.436982	40.899813
16220	9.694727	-0.435424	-0.267089	0.011037	0.004919	-0.000499	-122.784247	-87.437090	40.908210
16221	9.722535	-0.433780	-0.286988	0.012972	0.004977	-0.002162	-122.788804	-87.438061	40.921192
16222	9.691036	-0.429044	-0.299968	0.020848	0.001544	-0.005191	-122.853126	-87.439341	40.998356
16223	9.719324	-0.366289	-0.256632	0.005945	0.000856	-0.002830	-122.910742	-87.439351	41.060420
16224	9.743812	-0.466678	-0.347480	0.014158	0.002375	-0.008811	-122.994717	-87.442652	41.153473
16225	9.713689	-0.448217	-0.269941	0.028536	0.006881	-0.007497	-123.007285	-87.446778	41.183399
16226	9.768438	-0.396931	-0.336955	0.021980	0.004050	-0.007495	-123.059754	-87.450015	41.249990
16227	9.731289	-0.305537	-0.263544	0.020570	0.004521	-0.010967	-123.126979	-87.455067	41.330060
16228	9.730903	-0.365420	-0.326377	0.009682	0.008974	-0.011240	-123.159546	-87.461605	41.369139
16229	9.724835	-0.339146	-0.302827	0.008879	0.007077	-0.010421	-123.202480	-87.467191	41.418188
16230	9.734751	-0.369383	-0.291102	0.006473	0.005728	-0.009428	-123.260644	-87.471847	41.481493
16231	9.715972	-0.353677	-0.285801	0.003267	0.006827	-0.009081	-123.300371	-87.476709	41.524112
16232	9.716029	-0.352805	-0.284946	0.002936	0.010566	-0.009058	-123.305543	-87.482679	41.532059
16233	9.725064	-0.335463	-0.299534	0.004070	0.013070	-0.011365	-123.293312	-87.490598	41.523131
16234	9.706295	-0.319622	-0.293821	0.005671	0.008176	-0.010072	-123.330710	-87.496307	41.565062
16235	9.763227	-0.302182	-0.243358	-0.002344	0.010921	-0.009208	-123.330214	-87.502517	41.564201
16236	9.731759	-0.297126	-0.255672	0.004812	0.011388	-0.004913	-123.295517	-87.506815	41.533853
16237	9.687616	-0.302748	-0.285977	0.001606	0.012486	-0.004568	-123.241846	-87.511294	41.482032
16238	9.716380	-0.348409	-0.278299	0.007021	0.012816	-0.002257	-123.170333	-87.514726	41.415626
16239	9.691395	-0.308249	-0.249808	0.007489	0.009763	-0.000122	-123.110936	-87.516215	41.361448
16240	9.716446	-0.348224	-0.276212	0.005749	0.009627	-0.002108	-123.073947	-87.518570	41.328761
