// General information: 
//  MT Manager version: 2022.2.0 
//  XDA version: 2022.2.0 build 7381 rev 124627 built on 2023-07-19
// Device information: 
//  DeviceId: 00B4BB4F
//  ProductCode: MTW2-3A7G6
//  Firmware Version: 4.6.0
//  Hardware Version: 2.0.0
// Device settings: 
//  Filter Profile: human(46.1)
//  Option Flags: Orientation Smoother Disabled, Position/Velocity Smoother Disabled, Continuous Zero Rotation Update Disabled, AHS Disabled, ICC Disabled
// Coordinate system: ENU
PacketCounter	SampleTimeFine	Acc_X	Acc_Y	Acc_Z	Gyr_X	Gyr_Y	Gyr_Z	Roll	Pitch	Yaw
58977		-2.855060	9.104837	1.943246	-0.075954	0.010015	-0.005490	77.505484	16.665736	-62.433165
58978		-2.804534	9.178978	1.948677	-0.061769	0.007803	-0.005752	77.471750	16.670849	-62.429849
58979		-2.780596	9.176048	1.912641	-0.072718	0.007627	-0.011506	77.435246	16.680696	-62.426728
58980		-2.837245	9.250613	1.884684	-0.088928	0.009402	-0.017120	77.385792	16.692370	-62.423967
58981		-2.852248	9.194354	1.915703	-0.108899	0.012427	-0.015672	77.329201	16.705135	-62.418602
58982		-2.795616	9.105265	2.020313	-0.131777	0.012205	-0.015534	77.255722	16.716281	-62.414022
58983		-2.851214	9.036814	1.971449	-0.089276	0.003295	-0.010173	77.209029	16.724815	-62.413284
58984		-2.769023	9.175325	1.967786	-0.080098	0.004762	-0.013924	77.163966	16.734125	-62.412853
58985		-2.843569	9.119999	1.989814	-0.076313	0.013143	-0.023379	77.125832	16.751278	-62.408139
58986		-2.807913	9.170783	1.932320	-0.071232	0.009159	-0.026520	77.086100	16.768185	-62.406839
58987		-2.838977	9.148294	2.007491	-0.073268	0.016051	-0.028612	77.049987	16.788627	-62.401150
58988		-2.838850	9.167321	1.986677	-0.069469	0.014812	-0.035638	77.011859	16.811353	-62.397801
58989		-2.861358	9.154105	1.981568	-0.067208	0.012261	-0.036711	76.978248	16.835821	-62.395435
58990		-2.861659	9.173157	1.960295	-0.062908	0.012445	-0.038094	76.943377	16.859616	-62.393826
58991		-2.846277	9.181556	1.977501	-0.076882	0.002327	-0.035717	76.902571	16.882235	-62.397146
58992		-2.860069	9.059599	2.068150	-0.133362	0.011236	-0.027658	76.827530	16.900052	-62.394863
58993		-2.862606	9.002258	2.078247	-0.075283	-0.012730	-0.013923	76.785925	16.908526	-62.404028
58994		-2.812649	9.075980	2.086498	-0.094234	0.005022	-0.009715	76.732956	16.915525	-62.402940
58995		-2.883639	8.987573	2.081032	-0.042799	0.000091	-0.014589	76.712078	16.926033	-62.404738
58996		-2.839243	9.160150	2.052166	-0.038620	0.002925	-0.015590	76.690380	16.936032	-62.405689
58997		-2.882561	9.061223	2.060484	-0.032887	0.004744	-0.016323	76.675880	16.948112	-62.405023
58998		-2.842497	9.157922	2.057599	-0.019090	0.003218	-0.019313	76.665269	16.960225	-62.406323
58999		-2.891318	9.157205	2.031565	-0.023656	0.003629	-0.020517	76.655685	16.974485	-62.406891
59000		-2.873898	9.221479	2.044235	-0.023950	0.004244	-0.023133	76.642307	16.988863	-62.408127
59001		-2.901711	9.198281	2.003355	-0.027552	0.004872	-0.029307	76.630339	17.008175	-62.409191
59002		-2.813287	9.206457	2.005044	-0.074123	-0.005586	-0.021587	76.586597	17.020385	-62.415953
59003		-2.930127	8.965811	2.118228	-0.098198	0.004137	-0.021389	76.534346	17.035167	-62.416364
59004		-2.801342	9.191047	2.058607	-0.070368	-0.008871	-0.015774	76.492423	17.043689	-62.424250
59005		-2.908817	8.928502	2.176085	-0.082744	0.015887	-0.022998	76.450943	17.060929	-62.418063
59006		-2.859111	9.089835	2.095278	-0.007764	-0.007130	-0.015215	76.445204	17.069365	-62.424867
59007		-2.873042	9.089198	2.117978	-0.030898	0.010094	-0.016132	76.432693	17.082001	-62.421103
59008		-2.887064	9.120755	2.055624	-0.019045	0.003223	-0.019258	76.422092	17.094079	-62.422447
59009		-2.891898	9.152548	2.084051	-0.026905	0.003644	-0.024005	76.410427	17.110220	-62.423553
59010		-2.947375	9.108294	2.111797	-0.026991	0.003913	-0.017387	76.395467	17.121348	-62.424237
59011		-2.879586	9.171838	2.041457	-0.032302	-0.001180	-0.014434	76.380264	17.131502	-62.426812
59012		-2.890816	9.105387	2.125134	-0.051025	0.003965	-0.014803	76.351648	17.141198	-62.427108
59013		-2.882624	9.081986	2.135820	-0.060978	-0.000461	-0.006426	76.320462	17.146974	-62.428137
59014		-2.883593	9.025971	2.141307	-0.058748	0.004286	-0.003681	76.287938	17.150522	-62.426678
59015		-2.921493	9.003490	2.122703	-0.022561	-0.005611	-0.000596	76.278101	17.152341	-62.429886
59016		-2.851802	9.089847	2.137061	-0.018790	-0.001873	0.002397	76.267668	17.151669	-62.431152
59017		-2.917733	9.079088	2.099318	-0.008621	-0.002709	-0.006798	76.266036	17.157324	-62.433554
59018		-2.870868	9.132828	2.128522	-0.019568	-0.002633	-0.005857	76.254680	17.161142	-62.436439
59019		-2.915475	9.067193	2.161188	-0.017717	-0.004272	-0.002983	76.247716	17.164449	-62.439210
59020		-2.909285	9.110284	2.109600	-0.013646	-0.006060	-0.007433	76.239097	17.168677	-62.444316
59021		-2.900927	9.087662	2.117096	-0.026262	0.000032	-0.012528	76.227558	17.177874	-62.445945
59022		-2.905063	9.065041	2.145988	-0.024116	-0.002232	-0.007040	76.213612	17.182403	-62.448768
59023		-2.887178	9.020619	2.158957	-0.014429	-0.001918	-0.005628	76.208792	17.187486	-62.450552
59024		-2.896360	9.096776	2.154262	-0.004849	0.001030	-0.003802	76.206583	17.190658	-62.451013
59025		-2.906606	9.063850	2.148924	-0.000097	-0.002265	-0.009641	76.209724	17.197915	-62.453576
59026		-2.894816	9.063508	2.128039	-0.002143	0.002264	-0.005483	76.209207	17.202192	-62.453558
59027		-2.901047	9.107219	2.095564	0.008814	-0.000181	-0.000234	76.218193	17.204490	-62.453564
59028		-2.904138	9.140005	2.121738	-0.000590	0.001252	-0.005226	76.218403	17.208485	-62.454098
59029		-2.914322	9.107057	2.116566	-0.008721	-0.000077	-0.006377	76.217093	17.214203	-62.454921
59030		-2.883560	9.117331	2.107692	-0.012403	0.000823	-0.005922	76.210430	17.218527	-62.455805
59031		-2.896721	9.116891	2.130033	-0.017827	0.000729	-0.008753	76.203931	17.225665	-62.456498
59032		-2.907057	9.083679	2.125763	-0.010059	-0.004331	-0.007466	76.197657	17.230143	-62.460608
59033		-2.898990	9.006606	2.132728	-0.020931	0.002751	-0.009264	76.189693	17.237829	-62.460198
59034		-2.911644	9.060994	2.154144	0.014756	-0.010872	-0.005683	76.196582	17.240421	-62.467863
59035		-2.887280	9.060809	2.111476	0.003375	0.002102	-0.009260	76.202415	17.248009	-62.467833
59036		-2.922088	9.082878	2.147022	0.016674	-0.005494	-0.005560	76.211335	17.251269	-62.472346
59037		-2.925400	9.148457	2.087428	0.006697	-0.005188	-0.009578	76.217784	17.258028	-62.476609
59038		-2.932253	9.159117	2.140748	-0.007245	-0.005732	-0.009560	76.212788	17.263482	-62.481833
59039		-2.877544	9.114383	2.090273	-0.020048	-0.001655	-0.017672	76.204172	17.275218	-62.485195
59040		-2.907329	9.091662	2.161067	-0.028173	-0.002990	-0.018817	76.187264	17.286195	-62.490149
59041		-2.930932	9.090821	2.093465	-0.020042	-0.001657	-0.017666	76.178636	17.297911	-62.493516
59042		-2.910695	9.089648	2.165002	-0.018529	0.006980	-0.019736	76.168939	17.310763	-62.492797
59043		-2.927739	9.099893	2.128827	-0.017134	-0.000792	-0.010125	76.162435	17.318390	-62.494582
59044		-2.941488	9.099126	2.151532	-0.021805	0.004617	-0.017080	76.150564	17.329441	-62.494863
59045		-2.908829	9.076248	2.116785	-0.017826	0.003092	-0.014924	76.144117	17.340262	-62.495077
59046		-2.929068	9.031794	2.192215	-0.015511	0.005211	-0.012607	76.136145	17.348906	-62.494371
59047		-2.936024	9.075053	2.161053	-0.007375	0.004171	-0.005273	76.136269	17.354496	-62.492572
59048		-2.933318	9.096650	2.134999	-0.006615	0.007301	-0.003212	76.134161	17.358201	-62.489298
59049		-2.921234	9.096396	2.114444	-0.007190	0.006176	-0.002244	76.134855	17.362373	-62.485896
59050		-2.936829	9.128900	2.162779	-0.012023	0.004821	0.000150	76.129362	17.363867	-62.483584
59051		-2.946674	9.095848	2.158284	-0.016865	0.005846	-0.003643	76.124385	17.368760	-62.480576
59052		-2.934516	9.095368	2.138812	-0.020252	0.006113	-0.000574	76.114371	17.370835	-62.477615
59053		-2.931617	9.116743	2.114064	-0.021987	0.005118	-0.003856	76.106309	17.375738	-62.475064
59054		-2.947464	9.148774	2.163962	-0.030789	0.005284	-0.003610	76.089983	17.379389	-62.473025
59055		-2.954347	9.137198	2.134422	-0.029417	0.002269	-0.006382	76.077049	17.385294	-62.472501
59056		-2.926606	9.125260	2.154085	-0.036079	0.000166	-0.000662	76.056928	17.386600	-62.473021
59057		-2.930517	8.993131	2.184308	-0.056780	0.002513	-0.000669	76.028596	17.389350	-62.471531
59058		-2.904315	9.101555	2.147013	-0.033411	-0.010389	0.012769	76.008748	17.381728	-62.476253
59059		-2.903270	9.046345	2.151197	-0.061787	0.001638	0.014964	75.978055	17.375656	-62.473005
59060		-2.908529	9.056063	2.209504	-0.050828	-0.003289	0.003949	75.949082	17.373919	-62.474868
59061		-2.923872	9.066329	2.176172	-0.043976	0.000818	0.001269	75.927839	17.375334	-62.474091
59062		-2.917619	9.076094	2.212038	-0.036227	-0.001841	-0.003654	75.907153	17.378021	-62.476220
59063		-2.905759	9.074999	2.195024	-0.051800	0.003623	-0.009607	75.881422	17.385860	-62.475404
59064		-2.910171	8.997071	2.225328	-0.045808	0.004843	-0.007747	75.856229	17.391755	-62.474243
59065		-2.870784	8.984806	2.224125	-0.027656	0.008044	-0.015404	75.844825	17.403422	-62.471711
59066		-2.922691	8.962484	2.223402	0.006565	0.002284	-0.021541	75.848587	17.416623	-62.474067
59067		-2.896319	8.950945	2.239194	0.009922	0.006890	-0.014547	75.858525	17.427641	-62.472083
59068		-2.966000	8.973453	2.224614	0.035911	0.004888	-0.005142	75.880277	17.432095	-62.470514
59069		-2.906693	9.028440	2.228443	0.038515	0.006369	-0.000213	75.907110	17.435068	-62.466733
59070		-2.975622	8.942684	2.211035	0.054391	0.000272	0.008361	75.939236	17.431372	-62.465876
59071		-2.892729	9.085908	2.197925	0.070269	-0.003436	0.010767	75.983006	17.426871	-62.466210
59072		-2.939044	9.033431	2.163778	0.061772	-0.001523	0.007462	76.019007	17.423426	-62.466535
59073		-2.937968	9.035231	2.157712	0.072795	0.000669	0.016153	76.065154	17.416486	-62.463707
59074		-2.949139	9.037215	2.172100	0.074977	-0.006489	0.011586	76.108032	17.410063	-62.466337
59075		-3.015372	9.116464	2.152742	0.089065	-0.015721	0.029719	76.161206	17.393318	-62.471129
59076		-2.998703	9.119160	2.126097	0.048491	-0.024682	0.052636	76.187498	17.361570	-62.478485
59077		-2.884799	8.946400	2.214870	0.067725	-0.035697	0.054757	76.226028	17.328173	-62.491365
59078		-2.704636	9.068024	2.171603	0.068419	-0.013412	0.029755	76.264717	17.310703	-62.495455
59079		-3.007967	9.094724	2.124463	0.101806	-0.026784	0.024849	76.323018	17.295156	-62.507449
59080		-2.870754	9.118025	2.083717	0.059506	-0.000963	0.028118	76.358682	17.280288	-62.504542
59081		-2.909177	8.989867	2.166989	0.086033	-0.013539	0.035976	76.410694	17.260345	-62.507269
59082		-2.933402	9.004214	2.142011	0.106729	-0.015687	0.042685	76.471466	17.235382	-62.510928
59083		-2.903294	9.116659	2.090227	0.117688	-0.030080	0.040714	76.538915	17.210592	-62.522694
59084		-2.903962	9.218388	2.048782	0.094951	-0.025517	0.051049	76.591576	17.179666	-62.530977
59085		-2.913815	9.286942	2.004286	0.059462	-0.019481	0.052799	76.627974	17.149558	-62.534929
59086		-2.956137	9.202406	2.060523	-0.012141	-0.015767	0.053366	76.621044	17.118641	-62.537235
59087		-2.901549	9.170705	2.061917	0.029922	-0.038732	0.041447	76.636754	17.092304	-62.553999
59088		-2.834060	9.247241	2.043545	-0.047835	-0.031192	0.034354	76.605959	17.069939	-62.567934
59089		-2.923349	9.041256	2.137737	-0.037971	-0.024162	0.026387	76.584660	17.053906	-62.578277
59090		-2.822561	9.149278	2.083790	-0.009247	-0.027308	0.024584	76.576254	17.037493	-62.591287
59091		-2.861477	9.106258	2.090715	-0.026955	-0.022169	0.012628	76.561033	17.029381	-62.602379
59092		-2.858910	9.215296	2.092561	-0.008445	-0.027000	0.003753	76.552296	17.024612	-62.618103
59093		-2.865386	9.203501	2.064211	-0.058480	-0.018068	-0.012535	76.518674	17.031049	-62.630311
59094		-2.895128	9.158470	2.053615	-0.054973	-0.028279	-0.019843	76.482091	17.039240	-62.650077
59095		-2.828274	9.133811	2.072645	-0.077705	-0.019205	-0.028540	76.436591	17.054415	-62.665200
59096		-2.852701	9.153392	2.095299	-0.065703	-0.026618	-0.044914	76.393094	17.076764	-62.687544
59097		-2.828835	9.139104	2.119624	-0.089700	-0.014793	-0.057422	76.340249	17.108577	-62.704202
59098		-2.869269	9.048616	2.164091	-0.073817	-0.013812	-0.067373	76.293326	17.145128	-62.722319
59099		-2.871821	9.121415	2.144336	-0.068987	-0.010107	-0.075946	76.252319	17.187848	-62.738942
59100		-2.916210	9.150641	2.129274	-0.079236	-0.009182	-0.082511	76.202404	17.233428	-62.756591
59101		-2.874021	9.167506	2.139125	-0.106433	-0.007035	-0.096114	76.139552	17.287751	-62.774399
59102		-2.905424	9.074978	2.164801	-0.117619	-0.003996	-0.103850	76.067564	17.345876	-62.792216
59103		-2.948444	9.145854	2.212576	-0.119656	-0.004149	-0.103035	75.997249	17.404390	-62.809487
59104		-2.936277	9.063492	2.208709	-0.143072	-0.000457	-0.100775	75.911344	17.461254	-62.824964
59105		-2.945426	9.002979	2.220669	-0.129446	0.000953	-0.096754	75.836483	17.516937	-62.838517
59106		-2.941495	9.052067	2.211508	-0.123711	-0.004247	-0.094702	75.761196	17.569855	-62.855477
59107		-2.953019	9.078928	2.249980	-0.133177	0.007025	-0.095233	75.685243	17.625509	-62.865426
59108		-2.978008	9.138815	2.225335	-0.142750	0.009025	-0.102639	75.600952	17.684674	-62.876000
59109		-2.978216	9.055786	2.243797	-0.167828	0.011629	-0.103554	75.505495	17.745562	-62.884688
59110		-2.998891	8.851243	2.361541	-0.155819	0.018916	-0.089737	75.415987	17.798961	-62.887757
59111		-2.973653	9.022167	2.253496	-0.101494	0.000465	-0.086258	75.357248	17.848617	-62.900509
59112		-3.034723	9.027300	2.289312	-0.128927	0.015208	-0.088289	75.282504	17.900668	-62.905657
59113		-3.011350	8.978534	2.289211	-0.114722	0.008148	-0.083052	75.217640	17.949630	-62.913570
59114		-3.009677	9.006098	2.305456	-0.115218	0.006982	-0.082015	75.149522	17.996989	-62.922674
59115		-3.029636	9.000552	2.336315	-0.107946	0.007857	-0.082494	75.088449	18.045573	-62.930787
59116		-3.025124	9.050532	2.326368	-0.119568	0.011903	-0.079536	75.018795	18.092267	-62.936759
59117		-3.053827	8.957572	2.350054	-0.113978	0.016414	-0.079808	74.955880	18.140604	-62.939588
59118		-3.049285	9.007751	2.339642	-0.104749	0.013030	-0.077919	74.894956	18.186559	-62.944763
59119		-3.071173	8.925291	2.394309	-0.105492	0.021733	-0.072542	74.838174	18.231659	-62.943457
59120		-3.004870	9.053517	2.364140	-0.074456	0.018318	-0.079375	74.795461	18.279203	-62.945877
59121		-3.081829	9.015500	2.358916	-0.116963	0.032830	-0.094453	74.733002	18.338075	-62.941664
59122		-3.109852	8.998926	2.357248	-0.118874	0.025413	-0.097557	74.665192	18.396735	-62.942954
59123		-3.040461	8.949824	2.383979	-0.126378	0.032320	-0.095555	74.597143	18.456139	-62.939349
59124		-3.084975	8.963984	2.431262	-0.123343	0.033212	-0.110266	74.527515	18.523004	-62.938290
59125		-3.073906	8.936487	2.424897	-0.119163	0.038551	-0.117278	74.463583	18.595347	-62.934706
59126		-3.076396	8.907971	2.438751	-0.114127	0.053886	-0.131376	74.401940	18.677045	-62.925188
59127		-3.185915	8.878965	2.416274	-0.087452	0.050477	-0.130187	74.357673	18.758341	-62.916904
59128		-3.131704	8.960898	2.437313	-0.072026	0.041045	-0.137030	74.317426	18.841187	-62.915928
59129		-3.173724	8.833804	2.448513	-0.084606	0.051692	-0.131669	74.274910	18.923494	-62.907289
59130		-3.169369	8.893404	2.466189	-0.044314	0.042598	-0.137216	74.250791	19.006684	-62.905552
59131		-3.180247	8.910640	2.443280	-0.052238	0.048139	-0.140781	74.225631	19.093465	-62.900561
59132		-3.192581	8.850565	2.443677	-0.038573	0.056151	-0.136925	74.207392	19.178608	-62.890936
59133		-3.196568	8.955400	2.428074	-0.029872	0.049566	-0.143701	74.195144	19.267215	-62.885643
59134		-3.259315	8.891088	2.510740	-0.028969	0.057075	-0.144573	74.182184	19.356723	-62.876777
59135		-3.197934	8.856518	2.469606	-0.023649	0.057705	-0.150841	74.174677	19.450528	-62.867936
59136		-3.284569	8.848713	2.482681	-0.001663	0.057422	-0.150317	74.177136	19.543259	-62.859829
59137		-3.315128	8.855532	2.443735	-0.005955	0.059662	-0.148311	74.180299	19.635965	-62.849409
59138		-3.331067	8.905214	2.444081	0.003534	0.048702	-0.141340	74.184549	19.722384	-62.844899
59139		-3.345350	8.936284	2.359455	-0.024666	0.045890	-0.133489	74.175117	19.804766	-62.840068
59140		-3.411623	8.784473	2.434322	-0.054072	0.028819	-0.109126	74.144225	19.870321	-62.841884
59141		-3.263540	8.828946	2.449480	-0.032631	0.019958	-0.096072	74.127160	19.928027	-62.846079
59142		-3.400882	8.765797	2.455368	-0.021215	0.024975	-0.076422	74.116167	19.974955	-62.844742
59143		-3.368295	8.885700	2.430512	-0.015585	0.010440	-0.066013	74.108640	20.014598	-62.849529
59144		-3.356144	8.816970	2.466582	-0.012465	0.015058	-0.059065	74.101658	20.050406	-62.851124
59145		-3.409951	8.945990	2.417923	-0.016955	0.005845	-0.051575	74.093225	20.081366	-62.856205
59146		-3.404394	8.921851	2.425326	-0.044989	0.002798	-0.050314	74.065632	20.110425	-62.863546
59147		-3.370322	8.886674	2.451395	-0.063834	-0.000998	-0.053327	74.028836	20.141264	-62.872964
59148		-3.395607	8.849122	2.470933	-0.062433	0.000646	-0.052622	73.990658	20.171246	-62.881996
59149		-3.369792	8.858294	2.467134	-0.060245	0.003276	-0.059348	73.956395	20.206058	-62.889966
59150		-3.346802	8.766819	2.512024	-0.058536	0.006724	-0.062120	73.921103	20.242222	-62.897080
59151		-3.363032	8.785176	2.510804	-0.029800	0.015387	-0.067306	73.906234	20.283321	-62.899332
59152		-3.418672	8.835763	2.486885	-0.029084	0.020957	-0.071223	73.890161	20.326753	-62.899665
59153		-3.386821	8.800696	2.509344	-0.017138	0.023546	-0.074124	73.883781	20.372894	-62.898305
59154		-3.433675	8.907103	2.465329	-0.012036	0.027364	-0.088980	73.877730	20.427119	-62.897904
59155		-3.440515	8.848742	2.463959	-0.034157	0.035586	-0.103473	73.862312	20.491322	-62.894468
59156		-3.476158	8.841163	2.507519	-0.035666	0.037019	-0.112662	73.843291	20.560119	-62.892450
59157		-3.446318	8.827365	2.505208	-0.040821	0.039216	-0.121328	73.823715	20.634724	-62.889960
59158		-3.427956	8.834726	2.498499	-0.044343	0.042902	-0.135776	73.799537	20.717181	-62.888479
59159		-3.438486	8.815341	2.558923	-0.044168	0.054826	-0.150210	73.779519	20.810164	-62.881799
59160		-3.433856	8.843443	2.546295	-0.028390	0.068629	-0.168025	73.767892	20.914482	-62.870754
59161		-3.481603	8.965128	2.566855	-0.023797	0.093370	-0.207307	73.764158	21.045032	-62.851186
59162		-3.603625	8.984707	2.537069	-0.040760	0.122918	-0.258885	73.751400	21.208034	-62.823747
59163		-3.547461	8.879667	2.550782	-0.039714	0.127378	-0.283451	73.741164	21.385911	-62.797203
59164		-3.572101	9.019684	2.593765	-0.026051	0.145156	-0.320172	73.737942	21.586199	-62.767174
59165		-3.642186	9.084352	2.518514	-0.030459	0.158065	-0.363719	73.734771	21.813129	-62.736273
59166		-3.710576	9.183759	2.594950	-0.040708	0.171683	-0.431801	73.722054	22.079079	-62.709780
59167		-3.786522	9.174810	2.575638	-0.051800	0.191848	-0.497196	73.705752	22.384827	-62.681931
59168		-3.789626	9.101253	2.599144	-0.053622	0.209499	-0.562996	73.685751	22.729019	-62.655820
59169		-3.796107	9.136081	2.605449	-0.031394	0.234390	-0.647844	73.681069	23.124439	-62.628908
59170		-3.953847	9.241138	2.644516	-0.036664	0.252952	-0.725146	73.670165	23.564796	-62.605194
59171		-3.922699	9.315430	2.717984	-0.038234	0.280594	-0.823515	73.660671	24.064216	-62.581374
59172		-4.022897	9.213194	2.695376	-0.048905	0.314215	-0.918391	73.644266	24.620708	-62.554909
59173		-4.177811	9.189258	2.652570	-0.059596	0.344511	-1.008077	73.625380	25.231857	-62.525237
59174		-4.262468	9.115248	2.594446	-0.052190	0.356853	-1.100030	73.604712	25.895100	-62.505473
59175		-4.310707	9.092101	2.658845	-0.060330	0.379825	-1.194144	73.580662	26.614202	-62.487852
59176		-4.389055	9.162516	2.694959	-0.059573	0.403616	-1.293780	73.553129	27.391515	-62.474870
59177		-4.557614	9.194861	2.675788	-0.088404	0.428994	-1.397107	73.509972	28.230066	-62.464536
59178		-4.673187	9.118585	2.682043	-0.109857	0.459288	-1.497589	73.451989	29.128420	-62.455669
59179		-4.848164	9.148852	2.675138	-0.115289	0.484422	-1.602812	73.391057	30.088925	-62.450606
59180		-5.063526	9.129067	2.700424	-0.145883	0.503107	-1.699687	73.306152	31.105427	-62.454582
59181		-5.097585	9.077663	2.937992	-0.159296	0.540583	-1.807900	73.216681	32.187645	-62.456039
59182		-5.076994	8.934714	2.782637	-0.168216	0.608593	-1.923714	73.130120	33.344489	-62.439195
59183		-5.404883	8.713545	2.493923	-0.114234	0.667486	-2.040234	73.085198	34.575070	-62.406869
59184		-6.455650	8.846669	2.578883	-0.015282	0.741016	-2.149973	73.110722	35.878028	-62.348666
59185		-6.049715	8.947002	2.379232	0.142143	0.712223	-2.284741	73.203411	37.250038	-62.333850
59186		-6.772217	11.245356	3.748138	0.051178	0.716154	-2.300909	73.242632	38.631577	-62.318902
59187		-5.999677	8.991984	2.666704	-0.184452	0.769709	-2.366730	73.164728	40.057843	-62.278735
59188		-6.684934	8.263256	1.881167	-0.026513	0.771553	-2.471377	73.160970	41.542071	-62.262318
59189		-6.884770	8.685334	2.143092	-0.045882	0.780518	-2.546229	73.142406	43.068439	-62.254197
59190		-6.852807	8.506501	2.216903	0.022187	0.783326	-2.591760	73.154397	44.620638	-62.256258
59191		-7.182059	8.085265	2.095962	0.012937	0.807256	-2.615911	73.173711	46.189484	-62.242633
59192		-7.199307	7.870603	2.044113	0.106991	0.784510	-2.616288	73.232056	47.755333	-62.247648
59193		-7.577913	7.502253	2.009407	0.146502	0.801651	-2.628198	73.326887	49.329819	-62.235949
59194		-7.247785	7.339692	1.762192	0.220890	0.780378	-2.669881	73.442791	50.924419	-62.250764
59195		-7.516211	6.717312	1.765566	0.275704	0.776686	-2.710435	73.586618	52.539832	-62.271366
59196		-6.936980	5.985803	1.619587	0.424463	0.796808	-2.755224	73.823452	54.184034	-62.280198
59197		-8.070890	6.952082	1.531346	0.619995	0.829995	-2.830518	74.197380	55.873936	-62.259747
59198		-8.697579	6.690777	1.272695	0.641178	0.838817	-2.923999	74.583103	57.617692	-62.238678
59199		-8.303636	6.677698	0.884716	0.791251	0.778344	-2.996833	75.008068	59.391325	-62.274131
59200		-9.673520	5.967089	0.797442	0.715839	0.748028	-3.116096	75.343554	61.227850	-62.360915
59201		-10.871986	4.603168	0.463997	0.699616	0.677862	-3.373440	75.540681	63.195859	-62.593149
59202		-12.002510	2.600578	-0.001235	0.651261	0.596444	-3.730651	75.490614	65.351823	-63.063675
59203		-14.351832	3.428747	0.655427	0.734511	0.520049	-3.995987	75.250424	67.642412	-63.786216
59204		-13.291383	7.837629	0.731958	0.823533	0.133211	-3.686354	74.498719	69.702310	-65.100321
59205		-10.815344	8.486672	0.658909	0.546139	0.035194	-3.000368	73.534350	71.360704	-66.456555
59206		-9.043743	9.014576	0.794619	0.456842	-0.149793	-2.001704	72.519831	72.433543	-67.799978
59207		-8.886280	8.757875	0.933497	0.192584	-0.293747	-0.928218	71.601459	72.887091	-68.879146
59208		-9.730527	7.695853	0.756939	0.034127	-0.436075	0.007273	70.857839	72.803616	-69.678589
59209		-10.970934	5.800885	0.552380	-0.050668	-0.555620	0.683656	70.297323	72.326990	-70.237139
59210		-12.140405	3.938676	0.387722	-0.020729	-0.669925	1.033991	69.796596	71.639985	-70.751928
59211		-13.348606	1.930457	0.414011	0.058454	-0.772735	1.031724	69.226390	70.929831	-71.390923
59212		-14.303083	0.319968	0.275677	0.198275	-0.869337	0.687994	68.421514	70.383154	-72.365090
59213		-14.772477	-0.830705	0.219174	0.373790	-0.954741	0.100028	67.293730	70.123131	-73.792652
59214		-14.287091	-1.904017	0.133217	0.563036	-0.984210	-0.574588	65.818040	70.201644	-75.705117
59215		-14.056499	-1.125891	0.237193	0.847989	-0.984413	-1.204904	64.057242	70.588636	-78.091866
59216		-13.471696	-0.271220	0.371272	0.990628	-0.964335	-1.707496	61.918630	71.210254	-80.956395
59217		-12.623439	0.924278	0.483452	1.173985	-0.928255	-2.027725	59.498711	71.965182	-84.217536
59218		-11.851707	1.855542	0.770684	1.294183	-0.848186	-2.188198	56.858387	72.775330	-87.766616
59219		-11.240560	2.912952	1.187982	1.360912	-0.760053	-2.195081	54.103519	73.567489	-91.460961
59220		-10.599103	3.976716	1.884059	1.329122	-0.672112	-2.099061	51.268352	74.291582	-95.204516
59221		-10.295291	4.757930	2.538830	1.144549	-0.549624	-1.931263	48.465311	74.937406	-98.793384
59222		-10.412262	5.397697	3.339352	0.889687	-0.439244	-1.708089	45.750605	75.483905	-102.128972
59223		-10.687115	5.680804	4.006038	0.515165	-0.340275	-1.475326	43.148910	75.939097	-105.119700
59224		-10.849773	5.234702	4.201667	0.101087	-0.268964	-1.257477	40.615920	76.305935	-107.789196
59225		-10.634980	4.456539	3.868366	-0.267522	-0.201327	-1.098907	38.146588	76.618127	-110.172727
59226		-10.345045	3.368392	3.360475	-0.531475	-0.116755	-1.018978	35.682655	76.915755	-112.391750
59227		-10.001912	2.886799	3.079787	-0.673485	-0.019195	-0.979642	33.263508	77.225936	-114.479104
59228		-9.577072	2.885575	3.122642	-0.777412	0.071263	-0.961962	30.822741	77.553333	-116.524470
59229		-9.181579	3.190919	3.378878	-0.889653	0.145552	-0.917581	28.412542	77.886998	-118.470551
59230		-8.829749	4.018367	3.811473	-1.015381	0.175656	-0.839845	26.023500	78.196852	-120.318615
59231		-8.339851	4.447298	4.165485	-1.218411	0.144931	-0.699558	23.746803	78.441796	-121.931643
59232		-7.811752	4.412792	4.035384	-1.423891	0.059406	-0.473966	21.759350	78.578368	-123.127943
59233		-7.872855	3.901300	3.789765	-1.578949	-0.047645	-0.204582	20.277289	78.595292	-123.717983
59234		-7.970137	3.454669	3.373104	-1.602001	-0.199470	0.073541	19.359405	78.473584	-123.718709
59235		-7.903630	3.120288	3.052487	-1.541585	-0.351747	0.279682	18.904587	78.230507	-123.282250
59236		-7.908595	2.605412	2.808969	-1.408939	-0.526974	0.436922	18.752084	77.864011	-122.613703
59237		-7.550606	2.203922	2.546123	-1.206644	-0.723788	0.559432	18.848718	77.367556	-121.807978
59238		-6.937967	2.480667	2.491359	-0.976889	-0.923684	0.661543	19.096120	76.743911	-120.980547
59239		-6.139689	2.752528	2.230446	-0.771418	-1.116383	0.834299	19.652417	75.980966	-119.954434
59240		-5.233039	3.042232	1.963974	-0.490009	-1.316678	1.104205	20.661376	75.054801	-118.623165
59241		-4.539479	3.528001	1.975628	-0.206589	-1.477099	1.416586	22.168327	73.969132	-116.937950
59242		-3.874798	4.197745	2.086535	0.025977	-1.632329	1.757625	24.049372	72.713654	-114.990904
59243		-3.163666	4.697445	1.901457	0.189253	-1.727056	2.106306	26.240066	71.302971	-112.803280
59244		-2.327304	5.176167	1.861313	0.308492	-1.762192	2.471565	28.653178	69.754156	-110.432278
59245		-1.659241	5.386441	1.720461	0.320061	-1.706671	2.794710	31.185312	68.104929	-107.917361
59246		-1.199769	5.286791	1.521979	0.187473	-1.534103	3.008290	33.640439	66.438929	-105.373105
59247		-0.797735	4.584364	0.827928	0.027451	-1.278481	3.092412	35.956945	64.822340	-102.849748
59248		-0.311015	3.504572	-0.213527	-0.071378	-0.929145	3.090899	38.162477	63.330317	-100.353055
59249		0.117766	2.988924	-1.114403	0.010266	-0.542602	3.063834	40.425225	61.973445	-97.814907
59250		0.445597	3.120364	-1.524799	0.196281	-0.149592	3.074841	42.843472	60.739095	-95.188654
59251		0.813926	4.169739	-1.196793	0.352883	0.230353	3.080612	45.425363	59.599652	-92.448454
59252		0.354416	4.773505	-0.490280	0.305121	0.577444	3.076226	48.018471	58.543529	-89.630425
59253		-0.418473	4.876234	-0.181404	0.334661	0.764640	3.089725	50.599791	57.480990	-86.816235
59254		-1.467085	4.716577	0.083497	0.429199	0.798910	3.139084	53.103253	56.349675	-84.122975
59255		-2.445650	4.400735	0.290410	0.675198	0.685607	3.171410	55.522453	55.096346	-81.666770
59256		-3.250116	5.052551	1.109211	0.956699	0.489723	3.166463	57.791774	53.735452	-79.551545
59257		-3.797028	6.690290	2.415375	1.103870	0.208459	3.197245	59.825800	52.223169	-77.799529
59258		-3.886892	7.967849	3.327562	1.073417	-0.114119	3.298240	61.528065	50.544175	-76.409175
59259		-4.258389	8.316119	3.758204	0.910209	-0.410751	3.411362	62.883616	48.697664	-75.317859
59260		-5.030898	7.940108	3.785691	0.756088	-0.711417	3.476090	63.897089	46.735145	-74.534665
59261		-5.632971	7.049299	3.315861	0.672679	-0.996142	3.482158	64.649574	44.681776	-74.025641
59262		-5.923266	6.349563	2.704051	0.731609	-1.261527	3.430461	65.238270	42.595926	-73.781138
59263		-5.679398	6.433233	2.338914	0.837947	-1.441811	3.336418	65.760669	40.505495	-73.721724
59264		-5.336520	7.151438	2.289400	0.883001	-1.510856	3.249516	66.239188	38.453349	-73.766013
59265		-5.586522	7.654022	2.289757	0.863795	-1.507779	3.191544	66.692493	36.423561	-73.839745
59266		-6.059016	7.996470	2.185919	0.928707	-1.497315	3.189388	67.172778	34.406980	-73.930475
59267		-6.566085	8.333906	2.276297	0.989342	-1.442316	3.190596	67.704662	32.393520	-74.000563
59268		-7.032422	8.210613	2.495236	1.035276	-1.361600	3.162979	68.271326	30.421817	-74.052884
59269		-7.112714	8.170997	2.583643	1.016951	-1.217166	3.082998	68.857702	28.514773	-74.053469
59270		-7.186945	7.920040	2.514141	0.952128	-1.002160	2.954078	69.438148	26.729535	-73.979786
59271		-7.271670	7.891216	2.378125	0.927175	-0.743320	2.826555	70.053210	25.055237	-73.797556
59272		-7.721191	7.803900	2.536871	0.870957	-0.448740	2.690405	70.677171	23.517847	-73.495610
59273		-8.646686	7.541799	3.040997	0.829314	-0.197158	2.511922	71.310057	22.113351	-73.100204
59274		-9.710430	7.294064	3.735947	0.783755	-0.052271	2.306369	71.912498	20.850797	-72.683374
59275		-10.506510	7.704805	4.540801	0.796278	-0.050722	2.087168	72.498629	19.697208	-72.320964
59276		-10.511009	8.614975	5.112268	0.738378	-0.114762	1.912418	73.013285	18.632118	-72.044152
59277		-10.551090	9.247914	5.285086	0.611842	-0.182713	1.838002	73.435090	17.588672	-71.827995
59278		-10.691674	9.045447	4.877730	0.510670	-0.205341	1.781969	73.782090	16.576867	-71.645217
59279		-10.206498	8.821844	4.372075	0.450621	-0.143952	1.720014	74.100199	15.603208	-71.442625
59280		-9.755714	8.165659	3.915495	0.361604	-0.014974	1.633128	74.374551	14.701247	-71.188382
59281		-9.476362	7.319831	3.485054	0.294208	0.132624	1.498540	74.624054	13.891520	-70.875059
59282		-9.482084	6.645640	3.344816	0.273411	0.228118	1.312549	74.859357	13.201292	-70.542313
59283		-8.922641	6.680617	3.346454	0.275649	0.266442	1.115688	75.092582	12.621974	-70.220421
59284		-8.089712	7.008786	3.322910	0.255024	0.301215	0.937872	75.306079	12.147435	-69.909568
59285		-7.161636	7.222784	3.217192	0.195140	0.321547	0.799900	75.483291	11.749939	-69.608884
59286		-6.240063	7.189683	2.944189	0.150335	0.334305	0.698793	75.628504	11.410902	-69.318113
59287		-5.544781	7.022511	2.644806	0.142119	0.338021	0.613118	75.767600	11.118663	-69.038154
59288		-4.867770	6.930942	2.420572	0.134539	0.350889	0.512064	75.897150	10.884315	-68.766930
59289		-4.286058	6.836600	2.269031	0.123970	0.366418	0.416756	76.020919	10.704487	-68.500644
59290		-3.755024	6.901537	2.118965	0.112073	0.384372	0.319655	76.134195	10.580621	-68.238810
59291		-3.208697	6.867192	1.881333	0.083483	0.426697	0.238526	76.235063	10.507569	-67.964256
59292		-2.680262	6.685579	1.624693	0.073865	0.469869	0.189863	76.331186	10.466642	-67.672544
59293		-2.408424	6.858213	1.474504	0.072474	0.530874	0.147925	76.433726	10.457392	-67.351813
59294		-28.302613	26.731578	16.377281	-0.826275	1.612504	-1.708656	76.090676	11.628706	-66.674806
59295		-3.138882	15.058677	7.094768	-0.799965	-0.895747	-0.863826	75.504910	11.985894	-67.307787
59296		-8.174882	13.074288	0.744368	-0.354224	-0.149913	0.483236	75.299757	11.697218	-67.321936
59297		1.603510	1.129688	3.041308	-0.734804	0.180521	0.233782	74.908353	11.598030	-67.185458
59298		0.581385	8.813713	1.492226	0.880604	-0.401327	-0.091401	75.365149	11.590569	-67.426572
59299		-1.904720	8.628973	2.280585	-0.478284	0.447306	-0.335742	75.134104	11.845159	-67.224180
59300		-2.477163	9.267632	2.756149	0.507477	-0.025415	-0.392929	75.410368	12.060098	-67.297598
59301		-2.584457	11.600464	2.128336	-0.100472	0.107372	-0.316903	75.357465	12.254644	-67.284278
59302		-2.622893	9.390751	2.406393	-0.163859	0.015941	-0.238189	75.258544	12.389878	-67.311184
59303		-2.130693	9.835959	2.300183	-0.249028	-0.017663	-0.226178	75.108151	12.515918	-67.355835
59304		-2.176779	8.644199	2.563998	-0.271429	-0.015878	-0.216111	74.944129	12.634089	-67.398144
59305		-1.925347	8.780445	2.542800	-0.149563	-0.007129	-0.222458	74.851821	12.759410	-67.436921
59306		-2.170095	8.699984	2.610577	-0.067967	0.023803	-0.213972	74.809162	12.882207	-67.456852
59307		-2.332237	9.076629	2.536119	0.020606	0.022741	-0.169862	74.819711	12.982849	-67.470806
59308		-2.435464	9.068763	2.544537	0.046404	0.011175	-0.103172	74.844739	13.042481	-67.480867
59309		-2.313139	9.214101	2.488223	0.077451	-0.009620	-0.052493	74.887745	13.073391	-67.495095
59310		-2.220984	9.143774	2.473692	0.075078	-0.000775	-0.027964	74.930279	13.089649	-67.500346
59311		-2.203202	9.154878	2.475391	0.091050	-0.000506	-0.029544	74.983034	13.109224	-67.505849
59312		-2.150886	9.240621	2.383500	0.089426	0.004114	-0.055746	75.033462	13.141592	-67.512522
59313		-2.092555	9.488726	2.292899	0.067959	0.001998	-0.101956	75.070802	13.201604	-67.527561
59314		-2.178120	9.435619	2.312967	-0.053364	0.021558	-0.154892	75.038234	13.291439	-67.539340
59315		-2.237950	9.399533	2.380538	-0.079347	0.008029	-0.202234	74.988407	13.407793	-67.566252
59316		-2.326987	9.592355	2.328929	-0.162035	-0.002638	-0.239559	74.887255	13.540846	-67.604960
59317		-2.386637	9.288041	2.417438	-0.238946	-0.008959	-0.258924	74.741444	13.685878	-67.650715
59318		-2.432144	9.254693	2.510752	-0.237403	-0.025059	-0.253787	74.593200	13.823217	-67.705089
59319		-2.455020	9.012671	2.589266	-0.244148	-0.029594	-0.226531	74.442409	13.946968	-67.758285
59320		-2.359255	8.855267	2.582699	-0.187226	-0.033204	-0.191559	74.323779	14.048448	-67.808157
59321		-2.081653	8.660755	2.546017	-0.136167	-0.014813	-0.154975	74.239340	14.134811	-67.842064
59322		-2.284927	8.714798	2.708171	-0.069804	0.081500	-0.143545	74.205622	14.227552	-67.819322
59323		-2.596826	8.461054	2.728828	0.080678	0.036583	-0.105861	74.254415	14.294771	-67.816201
59324		-2.326625	9.176181	2.493494	0.219191	0.022222	-0.107206	74.379465	14.358249	-67.821227
59325		-2.457342	9.181846	2.476259	0.094974	0.048765	-0.117901	74.437730	14.433975	-67.812875
59326		-2.498887	9.247787	2.451671	0.140654	0.004016	-0.177012	74.512451	14.533211	-67.839161
59327		-2.411987	9.416135	2.412523	0.010493	0.002506	-0.233807	74.511111	14.665826	-67.875377
59328		-2.531339	9.248034	2.477609	-0.042578	-0.005874	-0.267666	74.475645	14.813606	-67.921665
59329		-2.599455	9.120674	2.516229	-0.061114	-0.011619	-0.263192	74.429792	14.960209	-67.970793
59330		-2.483748	8.726211	2.585834	-0.038555	-0.008745	-0.245748	74.396815	15.095388	-68.015504
59331		-2.555018	8.710713	2.640449	0.094383	0.002569	-0.219683	74.443706	15.220125	-68.049729
59332		-2.735814	8.985714	2.606652	0.160827	0.025977	-0.173943	74.533056	15.321038	-68.063032
59333		-2.710264	8.909770	2.527069	0.216042	-0.004778	-0.129175	74.652266	15.394763	-68.086835
59334		-2.616627	9.139900	2.474031	0.241071	0.016022	-0.110014	74.788813	15.458890	-68.095418
59335		-2.640607	8.891860	2.447415	0.212196	0.005221	-0.098163	74.908658	15.517056	-68.108349
59336		-2.549825	8.970083	2.443937	0.308862	-0.007823	-0.122469	75.079925	15.584577	-68.132235
59337		-2.579491	9.094343	2.380404	0.298621	0.013738	-0.146291	75.248671	15.670700	-68.147287
59338		-2.745628	9.023659	2.443702	0.310378	0.011625	-0.155306	75.422543	15.759379	-68.164523
59339		-2.947191	9.541908	2.153489	0.416375	-0.008917	-0.125761	75.656129	15.830949	-68.189026
59340		-2.659376	9.519969	2.159112	0.153630	-0.032911	-0.102272	75.735413	15.883982	-68.223593
59341		-2.778221	8.902345	2.401672	0.133556	-0.005973	-0.092801	75.808808	15.937742	-68.241276
59342		-2.671839	9.141700	2.244894	0.264921	-0.048419	-0.094289	75.949696	15.984277	-68.283486
59343		-2.726590	9.329496	2.172346	0.179435	-0.007851	-0.077149	76.049712	16.029133	-68.299796
59344		-2.814121	9.190081	2.176326	0.156329	-0.029412	-0.070765	76.132337	16.065353	-68.327474
59345		-2.738403	9.278088	2.145225	0.143856	-0.039707	-0.051431	76.207898	16.091571	-68.358430
59346		-2.782990	9.269099	2.171140	0.074486	-0.018972	-0.050336	76.246109	16.117910	-68.377080
59347		-2.748057	9.106438	2.214341	0.058505	-0.024469	-0.031269	76.276006	16.135011	-68.396313
59348		-2.729050	9.215130	2.162265	0.074617	-0.025613	-0.029006	76.314055	16.148596	-68.415767
59349		-2.762230	9.129370	2.198996	0.042883	-0.010040	-0.027813	76.337456	16.165731	-68.426133
59350		-2.773255	9.172872	2.162208	0.061479	-0.015154	-0.016389	76.370156	16.173724	-68.437737
59351		-2.724232	9.195032	2.153958	0.035310	-0.015124	-0.011977	76.389014	16.181352	-68.448810
59352		-2.775289	9.152757	2.182989	0.025143	-0.007049	-0.005506	76.402629	16.184385	-68.454182
59353		-2.746016	9.142432	2.194982	0.026019	-0.011285	-0.007127	76.416972	16.189818	-68.462345
59354		-2.715764	9.119903	2.153931	0.023200	-0.011562	-0.001311	76.428907	16.189910	-68.469745
59355		-2.776034	9.153973	2.176936	0.026126	-0.004799	-0.007595	76.444337	16.196460	-68.474208
59356		-2.717414	9.078356	2.204457	0.021427	-0.006121	-0.004937	76.455994	16.199306	-68.478959
59357		-2.766089	9.175350	2.122887	0.039197	-0.006553	-0.006110	76.478679	16.204781	-68.484230
59358		-2.777455	9.100754	2.171132	0.021432	-0.006124	-0.004931	76.490339	16.207626	-68.488981
59359		-2.738290	9.123386	2.186244	0.043358	-0.011124	-0.010904	76.514479	16.215152	-68.497569
59360		-2.728882	9.177807	2.159265	0.035974	-0.005803	-0.017132	76.534049	16.224841	-68.503828
59361		-2.740108	9.166220	2.125546	0.026379	-0.007069	-0.022079	76.548677	16.239122	-68.511610
59362		-2.742604	9.178557	2.176580	0.026287	-0.013560	-0.021593	76.561262	16.250267	-68.522986
59363		-2.743982	9.165837	2.122200	0.004944	-0.002256	-0.027698	76.564168	16.268305	-68.528746
59364		-2.776902	9.167216	2.188250	0.004001	-0.001473	-0.018731	76.566057	16.279465	-68.532708
59365		-2.777721	9.133500	2.162022	0.006950	-0.006029	-0.006931	76.570299	16.285412	-68.537777
59366		-2.777093	9.175681	2.107033	0.001427	0.001652	0.000529	76.571970	16.286256	-68.537253
59367		-2.787523	9.155040	2.157681	-0.026508	-0.003770	0.005144	76.557879	16.285761	-68.539334
59368		-2.766851	9.132268	2.143176	-0.025079	-0.002119	0.005676	76.543950	16.283234	-68.540285
59369		-2.717351	9.111074	2.196350	-0.037661	0.000751	0.003148	76.524124	16.284441	-68.540017
59370		-2.787068	9.077965	2.193707	-0.004670	0.000406	-0.001019	76.522038	16.285981	-68.540432
59371		-2.727173	9.132240	2.193557	-0.004279	-0.004957	-0.001587	76.520214	16.289049	-68.544137
59372		-2.766425	9.185471	2.147886	-0.014010	0.001219	-0.003057	76.512829	16.291834	-68.544365
59373		-2.766960	9.109492	2.177939	-0.014076	-0.002238	0.004291	76.506059	16.291971	-68.545672
59374		-2.765815	9.130541	2.151852	-0.009047	-0.009736	0.008416	76.500182	16.286898	-68.550660
59375		-2.745556	9.120440	2.189421	-0.017351	-0.001908	0.007479	76.491709	16.285290	-68.551331
59376		-2.773726	9.118695	2.123574	-0.010863	-0.006026	0.008457	76.485398	16.280690	-68.554159
59377		-2.733952	9.153069	2.195990	-0.019165	0.001802	0.007522	76.476488	16.279541	-68.552667
59378		-2.772678	9.151842	2.152386	-0.014267	0.000443	0.004582	76.469128	16.277965	-68.552281
59379		-2.733193	9.097836	2.201302	-0.037929	-0.003062	0.003936	76.448531	16.278146	-68.554111
59380		-2.773025	9.054137	2.212757	-0.004019	-0.002878	0.001323	76.446375	16.277939	-68.556107
59381		-2.722358	9.151410	2.179926	0.002302	-0.002583	-0.001091	76.448698	16.280970	-68.558363
59382		-2.822071	9.108408	2.188366	0.002138	0.003127	0.006066	76.451233	16.278928	-68.556211
59383		-2.730727	9.194769	2.146845	0.008980	-0.008085	0.010143	76.456921	16.274951	-68.560089
59384		-2.759829	9.130063	2.161544	-0.009111	0.002461	0.015099	76.453256	16.267789	-68.557062
59385		-2.768055	9.152177	2.156910	-0.000161	-0.008655	0.018372	76.453938	16.259135	-68.560117
59386		-2.726901	9.120060	2.176848	-0.012251	-0.004652	0.014806	76.447306	16.251181	-68.561256
59387		-2.724684	9.162450	2.123632	-0.014130	-0.005700	0.011652	76.440199	16.246651	-68.563534
59388		-2.754809	9.088595	2.220033	-0.013123	-0.000418	0.016429	76.433819	16.238361	-68.561988
59389		-2.782315	9.120871	2.179171	0.006812	-0.011654	0.018298	76.438002	16.229313	-68.566787
59390		-2.730970	9.121662	2.202532	-0.009296	-0.010523	0.016060	76.432162	16.219871	-68.571154
59391		-2.699663	9.077831	2.191211	0.004217	-0.014176	0.009605	76.434104	16.215313	-68.578632
59392		-2.707957	9.175617	2.157239	0.008005	-0.011645	0.001692	76.437434	16.213724	-68.585661
59393		-2.748614	9.090035	2.221815	-0.012802	-0.011833	0.002117	76.429708	16.213632	-68.592826
59394		-2.757817	9.078483	2.190897	0.019575	-0.019811	-0.000570	76.438257	16.212204	-68.604908
59395		-2.707778	9.154825	2.183745	0.021772	-0.014518	-0.012401	76.449328	16.219829	-68.615663
59396		-2.737636	9.186752	2.141403	0.008942	-0.012419	-0.007276	76.452718	16.223133	-68.624395
59397		-2.748239	9.187163	2.163933	-0.007750	-0.018906	-0.007981	76.446332	16.227689	-68.637073
59398		-2.719329	9.121429	2.180579	-0.009342	-0.016144	-0.011898	76.438461	16.233065	-68.648614
59399		-2.739601	9.185514	2.144199	-0.005845	-0.017424	-0.019047	76.432966	16.243965	-68.661981
59400		-2.741357	9.163427	2.173712	-0.034497	-0.010388	-0.016911	76.411415	16.252904	-68.670888
59401		-2.811405	9.226525	2.116985	-0.039578	-0.006351	-0.013671	76.388597	16.262277	-68.677081
59402		-2.723578	9.083687	2.167277	-0.079378	-0.012201	-0.009141	76.341338	16.266636	-68.685956
59403		-2.705565	8.975037	2.264897	-0.038736	-0.014061	-0.007925	76.317975	16.271748	-68.695817
59404		-2.735372	9.060768	2.224641	-0.000710	-0.018427	-0.015417	76.314526	16.278749	-68.709194
59405		-2.726667	9.093083	2.228863	-0.000108	-0.009069	-0.020614	76.313585	16.291586	-68.717956
59406		-2.767429	9.146263	2.182642	0.006576	-0.015871	-0.019938	76.314542	16.301450	-68.730490
59407		-2.749414	9.102243	2.192789	0.001059	-0.009496	-0.022994	76.314097	16.315539	-68.739836
59408		-2.750609	9.177399	2.164758	-0.003035	-0.018874	-0.021182	76.309003	16.325688	-68.754289
59409		-2.713625	9.047172	2.240636	-0.014298	-0.005177	-0.023335	76.300444	16.340537	-68.761178
59410		-2.794775	9.132568	2.175232	0.025012	-0.019121	-0.033032	76.310901	16.357247	-68.777454
59411		-2.727194	9.164671	2.179421	-0.011533	-0.008371	-0.021800	76.303454	16.370795	-68.785979
59412		-2.808565	9.098434	2.171993	0.000564	-0.012365	-0.018261	76.301588	16.380199	-68.796248
59413		-2.710775	9.098578	2.218847	-0.018460	-0.021063	-0.021032	76.288120	16.391582	-68.812029
59414		-2.782347	9.065015	2.215510	0.004343	-0.009822	-0.026171	76.288516	16.405732	-68.821948
59415		-2.694486	9.129449	2.201671	0.004339	-0.030258	-0.028688	76.286280	16.420110	-68.844152
59416		-2.767186	9.020014	2.226051	0.001580	-0.007933	-0.038225	76.284913	16.441225	-68.854683
59417		-2.799587	9.160456	2.180833	0.044295	-0.031790	-0.036718	76.304974	16.459851	-68.878914
59418		-2.742542	9.181017	2.153009	-0.006399	-0.011989	-0.039210	76.298322	16.480968	-68.891935
59419		-2.835725	9.148052	2.193823	-0.000859	-0.018360	-0.036149	76.294732	16.501084	-68.908288
59420		-2.778293	9.168017	2.169154	-0.030822	-0.023966	-0.030611	76.272447	16.515783	-68.927053
59421		-2.810529	9.101246	2.187394	-0.034746	-0.020364	-0.029746	76.249355	16.532042	-68.943673
59422		-2.803061	9.165773	2.221431	-0.046399	-0.018733	-0.026968	76.219142	16.545412	-68.958899
59423		-2.804707	9.054835	2.228904	-0.052239	-0.019657	-0.021903	76.186446	16.557376	-68.974007
59424		-2.746413	9.074613	2.206507	-0.029179	-0.026737	-0.026675	76.164777	16.569472	-68.993852
59425		-2.768777	9.019561	2.255041	-0.023673	-0.013954	-0.031630	76.148980	16.587604	-69.007051
59426		-2.811331	9.105229	2.236540	0.002839	-0.025756	-0.036228	76.145414	16.605140	-69.027704
59427		-2.794208	9.136460	2.219448	-0.017393	-0.018407	-0.037240	76.132225	16.625766	-69.044300
59428		-2.787182	9.037517	2.254706	-0.013868	-0.016644	-0.037525	76.120532	16.645267	-69.059860
59429		-2.800371	9.155102	2.195154	0.004529	-0.023311	-0.043307	76.118816	16.668574	-69.080183
59430		-2.804245	9.250585	2.141568	-0.035291	-0.014950	-0.049837	76.094607	16.695151	-69.096539
59431		-2.789306	9.183365	2.183067	-0.055189	0.001400	-0.062578	76.061986	16.732550	-69.105302
59432		-2.785171	9.061200	2.249505	-0.077772	0.001761	-0.068819	76.015414	16.771973	-69.114733
59433		-2.821070	8.916591	2.297221	-0.038247	0.010502	-0.073165	75.993558	16.816490	-69.119790
59434		-2.789529	9.164232	2.231386	0.011391	-0.001753	-0.083073	75.996859	16.863343	-69.133362
59435		-2.837959	9.214821	2.186576	-0.040624	0.021373	-0.096861	75.974455	16.922525	-69.135555
59436		-2.906176	9.092087	2.272292	-0.052977	0.021014	-0.085385	75.944599	16.973820	-69.136273
59437		-2.844999	9.164632	2.226486	-0.048992	0.017409	-0.086217	75.917161	17.026520	-69.139274
59438		-2.882757	9.095207	2.245809	-0.077291	0.034507	-0.085116	75.875666	17.079548	-69.132169
59439		-2.842075	9.146810	2.272646	-0.053983	0.027877	-0.083349	75.847258	17.132101	-69.128726
59440		-2.762120	9.154407	2.264566	-0.084753	0.087550	-0.100605	75.809916	17.201182	-69.093116
59441		-2.999819	8.939769	2.302406	-0.084541	0.065337	-0.099451	75.769739	17.267923	-69.070317
59442		-2.793566	9.090940	2.297186	-0.045941	0.075457	-0.108932	75.752240	17.339965	-69.043030
59443		-2.945154	9.061456	2.235972	-0.061138	0.100941	-0.134755	75.730142	17.431340	-69.004771
59444		-2.943752	9.231030	2.244712	-0.032290	0.053149	-0.169334	75.713948	17.533786	-68.999443
59445		-2.999317	9.125719	2.257989	-0.097107	0.107744	-0.168700	75.671041	17.644987	-68.962294
59446		-2.917866	9.066459	2.308927	-0.061606	0.083207	-0.193587	75.642262	17.765167	-68.943181
59447		-2.980640	9.188083	2.238932	-0.078439	0.118744	-0.219531	75.609817	17.906169	-68.907288
59448		-3.034965	9.167653	2.255764	-0.088381	0.138024	-0.251157	75.572963	18.066133	-68.864936
59449		-3.020530	9.028219	2.333083	-0.096107	0.150896	-0.283049	75.533432	18.246997	-68.819933
59450		-3.025175	9.159489	2.295138	-0.071721	0.158722	-0.323851	75.506694	18.450305	-68.776577
59451		-3.226683	9.337621	2.275644	-0.115750	0.194229	-0.372047	75.459957	18.686784	-68.719816
59452		-3.163061	9.118856	2.383005	-0.145286	0.208249	-0.419746	75.395982	18.950474	-68.662275
59453		-3.217527	9.046278	2.411216	-0.137064	0.230190	-0.480844	75.338886	19.252564	-68.601391
59454		-3.327071	9.165696	2.417458	-0.122872	0.261563	-0.559475	75.291482	19.601548	-68.534376
59455		-3.353588	9.155062	2.519698	-0.159362	0.326579	-0.655577	75.232266	20.014597	-68.444108
59456		-3.324923	9.264653	2.521555	-0.159386	0.367711	-0.748835	75.176187	20.484132	-68.344323
59457		-3.529262	9.521848	2.579870	-0.116871	0.397698	-0.825894	75.148062	21.002062	-68.238864
59458		-3.651622	10.010563	2.691069	-0.074796	0.418655	-0.990238	75.139407	21.612869	-68.146691
59459		-3.625634	9.849672	2.805452	-0.093039	0.453481	-1.158230	75.119994	22.323041	-68.060021
59460		-3.778345	9.613753	2.776860	-0.083758	0.480881	-1.274035	75.105450	23.100200	-67.975223
59461		-3.861742	9.369159	2.674538	-0.099540	0.509641	-1.371323	75.084521	23.936610	-67.888348
59462		-3.843238	9.299034	2.802080	-0.085092	0.530642	-1.448130	75.072553	24.817543	-67.800932
59463		-4.041248	9.330795	2.800860	-0.111732	0.584943	-1.530356	75.055955	25.753085	-67.693177
59464		-4.255633	9.243576	2.840402	-0.111845	0.626391	-1.608820	75.046051	26.737160	-67.572259
59465		-4.835356	9.350639	2.845316	-0.169407	0.666984	-1.690684	75.011396	27.773569	-67.438909
59466		-5.478328	9.890522	3.429595	-0.239951	0.728946	-1.785529	74.948859	28.870793	-67.282430
59467		-4.691448	9.468091	3.055455	-0.304310	0.764388	-1.866193	74.857028	30.019050	-67.117129
59468		-5.303116	9.002261	2.940559	-0.416334	0.863104	-1.937554	74.728976	31.220936	-66.901586
59469		-5.843903	8.097255	1.956147	-0.296517	0.984542	-1.984133	74.711938	32.467990	-66.614159
59470		-6.696717	7.495867	1.667047	0.031270	0.981957	-2.077379	74.880773	33.765035	-66.339238
59471		-6.288393	11.956600	3.849972	0.121260	0.881326	-1.974650	75.084356	34.990512	-66.103967
59472		-5.833342	9.041407	2.899809	-0.473431	1.047084	-2.027271	75.014086	36.268418	-65.760166
59473		-6.039209	8.083187	1.886763	-0.223570	0.976078	-2.049361	75.065013	37.548874	-65.464009
59474		-6.682781	7.655954	1.523253	-0.292524	1.033251	-2.083001	75.106182	38.855418	-65.127580
59475		-7.345661	7.730690	1.541742	-0.126673	0.950648	-2.093998	75.215324	40.156367	-64.843824
59476		-6.744637	6.995733	1.111476	-0.079870	0.918918	-2.067733	75.349564	41.436891	-64.569424
59477		-7.024556	5.481107	0.201840	0.134456	0.880988	-2.075958	75.599486	42.716674	-64.313339
59478		-6.931144	6.228829	0.396343	0.468356	0.820015	-2.077895	76.022604	43.986979	-64.088943
59479		-7.556842	5.506970	-0.006444	0.621988	0.773008	-2.103841	76.522615	45.264984	-63.886470
59480		-8.331691	4.979886	-0.408053	1.012066	0.705198	-2.192683	77.214327	46.581159	-63.731821
59481		-8.764542	4.578984	-0.375318	1.310576	0.602863	-2.288473	78.027790	47.938110	-63.648783
59482		-10.293680	4.241594	-0.252734	1.583167	0.468796	-2.435518	78.917294	49.360007	-63.673210
59483		-11.309423	5.797972	0.684300	1.753955	0.274164	-2.563400	79.784233	50.835084	-63.855350
59484		-10.590222	8.633972	1.585440	1.650061	-0.014781	-2.388432	80.423589	52.182677	-64.247310
59485		-9.879687	9.297160	1.910910	1.322206	-0.226736	-2.012359	80.766938	53.301772	-64.769846
59486		-8.917032	9.626217	2.048448	1.009544	-0.438622	-1.509318	80.819256	54.116157	-65.423441
59487		-8.254606	9.481442	2.111782	0.664335	-0.505323	-1.036855	80.669356	54.658475	-66.077914
59488		-8.333638	8.625713	2.039742	0.374081	-0.505390	-0.642519	80.392738	54.974912	-66.679464
59489		-7.777222	5.769536	1.544984	0.185641	-0.446038	-0.379126	80.087502	55.147837	-67.183252
59490		-8.101789	3.571853	1.381399	0.477067	-0.295653	-0.307573	80.076952	55.293201	-67.529749
59491		-9.093027	4.024668	2.226656	0.762286	-0.204612	-0.367773	80.295726	55.483095	-67.796240
59492		-9.588377	4.749823	3.127559	0.902216	-0.153938	-0.541830	80.610295	55.775561	-68.042264
59493		-9.745024	5.561281	3.921747	0.824868	-0.164468	-0.736043	80.845452	56.179013	-68.330264
59494		-9.627726	6.194839	4.373413	0.609042	-0.213316	-0.909188	80.888093	56.674889	-68.698756
59495		-9.583388	6.925964	4.553129	0.279654	-0.268696	-1.048417	80.666779	57.245567	-69.155120
59496		-9.352956	7.357381	4.422339	-0.078579	-0.322834	-1.139421	80.163943	57.859452	-69.698456
59497		-8.888616	7.524259	3.841516	-0.443993	-0.349351	-1.180430	79.397981	58.491752	-70.301448
59498		-8.407076	7.261053	2.999136	-0.722080	-0.332047	-1.167883	78.463737	59.112869	-70.910781
59499		-8.070849	6.979272	2.276775	-0.911992	-0.282806	-1.116601	77.445802	59.706596	-71.486971
59500		-7.948515	6.760795	1.653408	-0.998326	-0.213765	-1.029382	76.436537	60.254386	-71.992785
59501		-7.808867	6.646214	1.316328	-1.042507	-0.127918	-0.918090	75.486227	60.748457	-72.398968
59502		-7.774321	6.657538	1.097543	-1.070076	-0.033747	-0.798904	74.626582	61.186633	-72.681737
59503		-8.164637	6.577170	1.018569	-1.091523	0.051696	-0.685394	73.856226	61.573842	-72.847457
59504		-8.583173	6.363727	0.948169	-1.106887	0.114658	-0.581699	73.162914	61.912960	-72.915368
59505		-8.880160	6.038455	0.880188	-1.104553	0.158805	-0.512238	72.529175	62.221204	-72.916945
59506		-9.116045	5.648320	0.800490	-1.082157	0.185170	-0.481163	71.941111	62.516993	-72.881660
59507		-9.544208	5.239182	0.773975	-1.043568	0.200874	-0.479945	71.385793	62.815059	-72.834312
59508		-10.003035	5.004812	0.885957	-0.961376	0.199700	-0.503527	70.863821	63.125928	-72.802710
59509		-10.250560	4.954865	0.922492	-0.905666	0.192508	-0.565026	70.336757	63.468730	-72.812491
59510		-10.406892	4.680886	0.993515	-0.843066	0.167410	-0.653759	69.777289	63.854417	-72.898556
59511		-10.454653	4.541183	1.068972	-0.777579	0.145626	-0.745888	69.183315	64.284745	-73.064324
59512		-10.615075	4.516198	1.208772	-0.718986	0.117988	-0.839992	68.538876	64.758864	-73.322637
59513		-6.968086	0.372635	0.899921	-1.597421	0.037047	-1.941684	66.746035	65.796701	-74.289432
59514		-19.169586	2.918457	0.497495	-1.124593	0.744015	-1.860376	66.017547	66.944933	-74.382019
59515		-6.737897	6.656358	1.390608	-0.842945	0.386323	-1.775542	65.002638	67.963815	-74.958781
59516		-11.452321	3.895565	0.844949	-0.560022	0.027421	-1.458570	63.807165	68.725112	-75.900534
59517		-11.812932	6.579711	1.186711	-0.316932	0.233223	-1.200013	63.134269	69.401070	-76.427391
59518		-11.621168	5.974251	2.247809	-0.164550	0.055145	-1.000120	62.407213	69.925837	-77.102977
59519		-11.356961	6.563094	2.586856	-0.339173	-0.094212	-0.835379	61.457373	70.323634	-77.907131
59520		-11.508356	6.201631	2.724008	-0.396934	-0.249360	-0.730474	60.302425	70.620498	-78.892004
59521		-12.088479	6.091340	2.823241	-0.613656	-0.296259	-0.655524	58.987794	70.859294	-79.912861
59522		-12.924131	6.207071	3.064407	-0.725884	-0.387396	-0.603914	57.496524	71.037407	-81.051288
59523		-13.771489	6.007487	3.470534	-0.950377	-0.466343	-0.549527	55.794357	71.153635	-82.275609
59524		-13.825308	5.875477	3.637929	-1.204372	-0.583914	-0.525802	53.790913	71.207578	-83.663914
59525		-12.925512	4.939512	3.135033	-1.513387	-0.672904	-0.582592	51.426256	71.238490	-85.246275
59526		-11.343690	3.699235	2.080679	-1.738419	-0.676070	-0.732883	48.756962	71.312689	-87.013759
59527		-10.007277	2.773603	1.070771	-1.801167	-0.592200	-0.943382	45.895303	71.479800	-88.944919
59528		-8.840582	2.474318	0.230666	-1.674871	-0.456249	-1.119405	43.005634	71.742893	-90.979516
59529		-7.212585	2.656628	-0.315768	-1.361146	-0.316514	-1.151866	40.349718	72.046078	-92.953949
59530		-5.367306	3.506639	-0.332063	-1.112599	-0.178883	-1.023525	38.093836	72.337959	-94.654524
59531		-4.050582	4.295940	-0.321336	-0.905192	-0.043944	-0.784710	36.395904	72.589824	-95.892025
59532		-3.171617	5.077843	-0.219183	-0.716014	0.059257	-0.458777	35.364067	72.771773	-96.543875
59533		-2.512068	5.504577	-0.136563	-0.560653	0.110312	-0.046376	35.093878	72.838334	-96.491190
59534		-2.048948	6.083326	0.046158	-0.360450	0.110105	0.459917	35.696303	72.737498	-95.645057
59535		-1.758072	6.544325	0.469882	-0.167969	0.066241	1.059059	37.231860	72.406589	-93.935501
59536		-1.978119	6.618348	1.117320	-0.066308	-0.029537	1.627771	39.425928	71.815211	-91.590850
59537		-2.495159	6.241449	1.535310	-0.075070	-0.138279	2.032579	41.862921	70.994915	-88.975086
59538		-2.920297	5.505300	1.650643	-0.113313	-0.250564	2.270471	44.204771	70.002474	-86.422732
59539		-3.084126	4.627608	1.309629	-0.099276	-0.385811	2.420808	46.337629	68.859173	-84.084773
59540		-3.170912	3.378139	0.793863	0.062511	-0.560558	2.578072	48.286575	67.556002	-82.025326
59541		-3.460614	2.626049	0.653816	0.401112	-0.782954	2.685111	50.079027	66.095786	-80.326524
59542		-3.441860	2.733728	0.851480	0.756332	-1.013920	2.727419	51.675670	64.517420	-79.047088
59543		-3.281286	3.307572	1.649742	0.970906	-1.224657	2.721215	53.039782	62.851531	-78.146981
59544		-2.812512	4.037572	2.155584	0.973826	-1.378226	2.679232	54.116103	61.148094	-77.560815
59545		-2.265096	4.351988	2.174676	0.833990	-1.434524	2.641615	54.964881	59.435431	-77.134974
59546		-1.694888	4.366091	1.644583	0.689649	-1.409120	2.646963	55.685042	57.729540	-76.755022
59547		-1.266895	4.378863	1.124515	0.611754	-1.295178	2.683396	56.413306	56.036316	-76.305417
59548		-1.014138	4.597137	0.845344	0.607148	-1.145506	2.773302	57.221645	54.347916	-75.745557
59549		-1.240577	5.042024	0.913324	0.624244	-0.985282	2.875029	58.129981	52.650225	-75.062223
59550		-1.742878	5.439906	0.961893	0.675431	-0.883744	3.005336	59.106609	50.917204	-74.312777
59551		-2.631287	5.201335	1.216671	0.761407	-0.851957	3.129181	60.127066	49.119400	-73.552419
59552		-3.766492	5.100584	1.788175	0.935265	-0.931288	3.177470	61.141260	47.271841	-72.911836
59553		-5.044322	4.839697	2.453615	1.010285	-1.068683	3.096171	62.044924	45.415694	-72.465312
59554		-5.686630	5.093299	2.978503	1.102117	-1.262475	2.946856	62.814314	43.584989	-72.269646
59555		-5.615107	6.012911	3.474999	1.122274	-1.448429	2.833985	63.455762	41.757000	-72.274750
59556		-5.484253	7.055500	3.597955	1.104663	-1.613512	2.825365	63.991827	39.896988	-72.424053
59557		-5.503289	7.185404	3.472934	1.064258	-1.720343	2.848567	64.462043	37.994150	-72.649366
59558		-5.443099	6.824039	2.919859	1.037134	-1.736154	2.846484	64.904218	36.095301	-72.903001
59559		-5.438948	6.381605	2.632290	1.103129	-1.693950	2.778801	65.391435	34.238219	-73.158485
59560		-5.390615	6.437269	2.618218	1.123900	-1.579847	2.659355	65.906408	32.477659	-73.394390
59561		-5.039701	7.239153	2.709649	1.146531	-1.439085	2.538044	66.464490	30.810030	-73.587685
59562		-4.773407	8.102138	2.845086	1.119082	-1.238519	2.513499	67.057644	29.207581	-73.685212
59563		-5.038245	8.569420	2.979684	1.052329	-1.010148	2.525692	67.677042	27.644930	-73.656542
59564		-6.124900	7.991440	3.175492	1.049384	-0.805980	2.481081	68.331610	26.154731	-73.540348
59565		-6.861238	8.102916	3.710507	1.076346	-0.671229	2.380746	69.018009	24.740101	-73.385072
59566		-7.200634	8.563035	4.377067	1.063540	-0.593283	2.269798	69.690584	23.404124	-73.231911
59567		-7.375772	9.154271	4.716701	0.973159	-0.526918	2.180236	70.312298	22.123279	-73.073928
59568		-7.481893	9.174774	4.751187	0.937377	-0.497883	2.137090	70.904026	20.874431	-72.926804
59569		-7.405618	8.900561	4.712601	0.885371	-0.460931	2.068440	71.463794	19.664151	-72.783821
59570		-7.065173	8.365394	4.572543	0.815379	-0.393252	1.936887	71.977951	18.540601	-72.642480
59571		-6.836900	8.043512	4.425107	0.729315	-0.297534	1.768741	72.447104	17.520740	-72.485971
59572		-6.221649	8.453801	4.263970	0.661117	-0.190400	1.613290	72.879028	16.606762	-72.307348
59573		-6.202768	8.464629	4.223602	0.528757	-0.038570	1.501599	73.251680	15.774936	-72.067070
59574		-6.814865	8.160426	4.514808	0.500534	0.026606	1.396908	73.605903	15.013047	-71.815710
59575		-6.860023	8.369404	4.808000	0.421274	0.043660	1.267056	73.909489	14.321210	-71.579947
59576		-6.623990	8.365737	4.777575	0.269444	0.062852	1.155484	74.118572	13.695581	-71.356896
59577		-6.841384	7.871523	4.483996	0.138863	0.090731	1.034199	74.251028	13.138348	-71.138720
59578		-7.050849	7.662820	4.282871	0.087183	0.091645	0.907965	74.345375	12.652644	-70.942969
59579		-7.112163	7.909529	4.374940	0.090794	0.053526	0.814650	74.433728	12.210710	-70.783673
59580		-7.079104	8.033936	4.354876	0.034913	0.031441	0.715846	74.481414	11.821285	-70.654100
59581		-6.611756	8.028452	4.072038	-0.011833	0.023142	0.615759	74.498569	11.484898	-70.544588
59582		-6.042354	8.077985	3.649546	-0.056560	0.072402	0.544646	74.491513	11.196184	-70.419268
59583		-5.432505	7.936641	3.304747	-0.100817	0.164621	0.479555	74.467560	10.957284	-70.251841
59584		-4.921728	7.564541	2.929478	-0.122249	0.265086	0.441212	74.439179	10.755344	-70.034390
59585		-4.501046	7.018279	2.656218	-0.133403	0.358405	0.394890	74.412978	10.593587	-69.771547
59586		-3.932210	6.801746	2.487114	-0.144856	0.438819	0.337749	74.385303	10.475716	-69.472829
59587		-3.283938	6.713917	2.324590	-0.171703	0.507991	0.320336	74.349022	10.378811	-69.137935
59588		-2.897168	6.168160	2.019591	-0.184413	0.531136	0.337996	74.306896	10.275456	-68.787462
59589		-2.608505	5.630656	1.806695	-0.165037	0.535610	0.337505	74.276438	10.174023	-68.434547
59590		-2.230535	5.366384	1.651465	-0.148346	0.527199	0.305185	74.252482	10.088534	-68.091559
59591		-1.899566	5.224880	1.555131	-0.150510	0.513928	0.277358	74.225491	10.017375	-67.760441
59592		-1.541850	4.805902	1.323037	-0.158391	0.501815	0.250939	74.190968	9.958167	-67.440320
59593		-1.375970	4.040724	0.803687	-0.155406	0.504136	0.211211	74.157770	9.922397	-67.125234
59594		-8.235930	20.046268	12.472714	2.405359	2.337203	-1.720382	75.730233	11.223030	-66.070792
59595		-23.615519	31.702111	7.036343	1.354798	0.691346	-0.871532	76.561411	11.804883	-65.801062
59596		2.325733	13.676567	5.896085	-1.118162	-1.591224	0.296558	75.747767	11.422640	-66.663766
59597		-0.241831	3.860210	-3.876217	0.473375	-0.111323	0.017672	76.007802	11.400174	-66.725322
59598		0.986330	14.046587	1.698073	-0.813095	0.694760	-0.231879	75.614517	11.627464	-66.365218
59599		-5.069259	4.367814	4.851694	-1.164999	0.301167	-0.347158	74.972463	11.866285	-66.247076
59600		-1.903546	9.918886	2.828342	0.673526	-0.278451	-0.311190	75.316716	11.998627	-66.451933
59601		-1.998849	9.074498	2.263349	-0.283789	0.116488	-0.302035	75.159470	12.185821	-66.431926
59602		-2.034011	10.340526	2.196205	0.168300	-0.021064	-0.225064	75.246814	12.308320	-66.478087
59603		-2.497769	9.029023	2.653823	-0.370894	0.100628	-0.181214	75.041699	12.426273	-66.449167
59604		-2.062478	8.734228	2.539694	0.081449	-0.063905	-0.154186	75.076105	12.503093	-66.509249
59605		-1.914823	8.860967	2.506146	-0.084294	0.057508	-0.162819	75.030512	12.604553	-66.502182
59606		-2.393410	9.069649	2.543804	0.135599	0.015755	-0.124457	75.106632	12.676685	-66.512597
59607		-2.388225	9.485583	2.476524	0.053872	0.010824	-0.059073	75.137843	12.713813	-66.516262
59608		-2.284587	9.182700	2.475421	0.083204	-0.006502	-0.001136	75.185257	12.714394	-66.520647
59609		-2.113800	9.161583	2.441748	0.086235	0.001904	0.038184	75.237112	12.696350	-66.514744
59610		-2.162731	8.894986	2.495019	0.134384	0.014138	0.052788	75.318194	12.670063	-66.499355
59611		-2.107861	9.280039	2.437850	0.215814	0.011098	0.045250	75.445635	12.649402	-66.487245
59612		-2.237765	9.581211	2.290961	0.177149	0.003117	0.021640	75.548812	12.638754	-66.482808
59613		-2.128719	9.663717	2.219990	0.075610	-0.001265	-0.002000	75.592858	12.642490	-66.484711
59614		-2.154346	9.392137	2.349816	-0.015518	0.003671	0.000776	75.585042	12.643492	-66.483025
59615		-2.134732	9.138417	2.369027	-0.004478	-0.004753	-0.001737	75.582794	12.646563	-66.486860
59616		-2.120051	9.104162	2.431384	0.017788	-0.000811	-0.013184	75.593057	12.654673	-66.489764
59617		-2.080283	9.112119	2.394833	0.032709	-0.005638	-0.031614	75.611036	12.674187	-66.498466
59618		-2.125302	9.093540	2.371555	0.060755	-0.008039	-0.063884	75.643389	12.709411	-66.512868
59619		-2.118193	9.245925	2.312763	0.067352	-0.010434	-0.078606	75.679094	12.754322	-66.531117
59620		-2.099149	8.980335	2.384472	0.050495	-0.005628	-0.108643	75.704419	12.814753	-66.550611
59621		-2.071471	9.085711	2.312232	0.099913	-0.024455	-0.173907	75.753891	12.910606	-66.590606
59622		-2.143290	9.437937	2.320192	0.068271	-0.015838	-0.208180	75.784822	13.024905	-66.630235
59623		-2.258248	9.342678	2.300397	0.015188	-0.011664	-0.202924	75.786318	13.138688	-66.667060
59624		-2.290621	9.164461	2.379935	0.008965	-0.017344	-0.189100	75.783551	13.242188	-66.704794
59625		-2.327524	9.151276	2.368163	0.050918	-0.025949	-0.184076	75.804132	13.343492	-66.747062
59626		-2.254470	9.131943	2.379787	0.062389	-0.026953	-0.164075	75.831422	13.431763	-66.786642
59627		-2.259196	8.976186	2.383313	0.090542	-0.025755	-0.172987	75.874975	13.526968	-66.827129
59628		-2.210313	9.047329	2.347827	0.154818	-0.035931	-0.205253	75.952528	13.636935	-66.877630
59629		-2.268512	9.212583	2.309191	0.167491	-0.020483	-0.223758	76.039049	13.761179	-66.922145
59630		-2.284130	9.286913	2.268402	0.136122	-0.019297	-0.236160	76.106970	13.890764	-66.967246
59631		-2.249904	9.181830	2.180155	0.105518	-0.028813	-0.261717	76.155394	14.035059	-67.021654
59632		-2.255198	9.559332	2.168289	0.085580	-0.004407	-0.286758	76.194522	14.194911	-67.065175
59633		-2.486952	9.442339	2.154620	-0.087866	-0.001353	-0.283942	76.134987	14.355332	-67.106933
59634		-2.447161	9.016633	2.343330	-0.096499	-0.012724	-0.264811	76.069079	14.501779	-67.152382
59635		-2.496378	9.283384	2.299798	0.003331	0.003237	-0.236079	76.063885	14.636139	-67.185012
59636		-2.611112	9.356889	2.228067	-0.074494	0.011888	-0.200510	76.016247	14.750186	-67.207343
59637		-2.582560	9.064983	2.318609	-0.072887	0.004767	-0.174618	75.969682	14.850544	-67.230483
59638		-2.727647	9.076557	2.393382	0.001488	0.012155	-0.125666	75.968265	14.922999	-67.242070
59639		-2.616787	9.254970	2.254217	0.067022	-0.009279	-0.084094	76.003053	14.971090	-67.260327
59640		-2.608814	9.329568	2.202045	-0.001232	0.001185	-0.051430	76.001189	15.000760	-67.267538
59641		-2.620956	9.187228	2.310927	-0.020488	0.000442	-0.032400	75.989198	15.021458	-67.272771
59642		-2.532384	9.161259	2.274819	-0.006038	0.006225	0.002049	75.987318	15.022096	-67.269408
59643		-2.566311	9.075609	2.313706	0.017762	0.021478	0.009743	76.001945	15.022274	-67.256482
59644		-2.501081	9.172123	2.258543	0.035924	0.010166	0.007245	76.024888	15.020568	-67.250105
59645		-2.526458	9.064860	2.299838	0.029489	0.025040	-0.004094	76.046250	15.028911	-67.237108
59646		-2.544057	9.164692	2.283979	0.081456	0.017069	-0.016528	76.095432	15.041371	-67.230153
59647		-2.539405	9.089091	2.282272	0.063075	0.022525	-0.028020	76.134780	15.062647	-67.221999
59648		-2.503841	9.077579	2.266651	0.104958	0.011179	-0.055082	76.195133	15.095737	-67.223886
59649		-2.566568	9.156294	2.227583	0.101926	0.010035	-0.080885	76.252928	15.144699	-67.230360
59650		-2.650031	9.257177	2.205801	0.096550	0.001109	-0.076738	76.306161	15.188479	-67.241035
59651		-2.646829	9.235449	2.202226	0.092032	-0.009680	-0.052936	76.356350	15.219214	-67.254870
59652		-2.580942	9.233443	2.174587	0.076162	-0.005417	-0.048237	76.397967	15.246261	-67.265251
59653		-2.633108	9.268446	2.170350	0.069839	-0.000635	-0.024136	76.437874	15.262185	-67.269800
59654		-2.547578	9.201279	2.181813	0.053305	-0.001012	-0.011047	76.468431	15.269120	-67.272429
59655		-2.614108	9.302105	2.141820	0.056393	0.006942	-0.006622	76.502434	15.276294	-67.270150
59656		-2.583493	9.312564	2.126222	0.003824	0.009369	0.010028	76.506991	15.272878	-67.263855
59657		-2.599425	9.161606	2.204308	-0.019523	0.021217	0.023082	76.500764	15.265396	-67.249204
59658		-2.617439	9.184780	2.221419	0.004172	0.012597	0.023673	76.506507	15.254810	-67.239154
59659		-2.582858	9.216632	2.181667	-0.007401	0.008181	0.033457	76.505615	15.239796	-67.230594
59660		-2.584972	9.119847	2.237521	-0.018411	0.012847	0.031444	76.498735	15.224914	-67.219325
59661		-2.598868	9.153101	2.173840	0.015548	0.011145	0.039351	76.511647	15.207002	-67.208236
59662		-2.625151	9.177923	2.211794	-0.002518	0.007404	0.055558	76.513915	15.177955	-67.196775
59663		-2.506137	9.045185	2.242943	0.032180	0.000279	0.051115	76.535129	15.152027	-67.190340
59664		-2.535262	9.211277	2.191246	0.040163	0.001790	0.030897	76.560100	15.135967	-67.185546
59665		-2.583306	9.159611	2.164949	0.030954	-0.001688	0.032180	76.579616	15.120310	-67.182879
59666		-2.568728	9.193988	2.165428	0.051563	0.000325	0.046604	76.611456	15.095297	-67.176785
59667		-2.532102	9.260294	2.147671	0.040251	0.002964	0.041616	76.637329	15.074985	-67.170152
59668		-2.593237	9.166708	2.198761	0.001554	0.009065	0.043635	76.641710	15.052780	-67.159440
59669		-2.542219	9.112455	2.221332	0.046133	-0.002388	0.043666	76.670216	15.030603	-67.155628
59670		-2.563693	9.202133	2.174625	0.043340	0.003508	0.042462	76.697654	15.008311	-67.148304
59671		-2.512801	9.148393	2.194806	0.056725	0.005346	0.043311	76.733356	14.987336	-67.140102
59672		-2.523882	9.237360	2.124999	0.052794	0.006036	0.037207	76.766390	14.968298	-67.132061
59673		-2.535102	9.164181	2.171062	0.034084	-0.001158	0.033079	76.787779	14.952156	-67.129025
59674		-2.473012	9.163470	2.169351	0.049127	-0.009885	0.015857	76.815587	14.942938	-67.133087
59675		-2.410115	9.204423	2.113864	0.023506	-0.006693	-0.024123	76.828086	14.957968	-67.140993
59676		-2.562938	9.232060	2.147584	0.002479	-0.006302	-0.044936	76.827576	14.983136	-67.151206
59677		-2.565893	9.231292	2.147356	0.007653	-0.012397	-0.023426	76.830160	14.997016	-67.162307
59678		-2.517355	9.217364	2.118159	-0.003174	-0.014797	-0.022405	76.825923	15.008504	-67.174382
59679		-2.548267	9.261537	2.130618	-0.010888	-0.008696	-0.031366	76.818154	15.027286	-67.184419
59680		-2.586436	9.120709	2.174423	-0.022729	-0.013895	-0.013855	76.803141	15.034119	-67.194821
59681		-2.484110	9.214871	2.166577	0.033210	-0.010038	-0.015636	76.820983	15.043941	-67.203506
59682		-2.583503	9.250526	2.144088	-0.012039	-0.002643	-0.021650	76.813505	15.056594	-67.208464
59683		-2.559566	9.129341	2.161178	0.008623	-0.012448	-0.007416	76.817182	15.061502	-67.217425
59684		-2.554488	9.226628	2.104517	0.024360	-0.010239	-0.000706	76.830155	15.061480	-67.223937
59685		-2.517851	9.205140	2.176401	0.002935	-0.002396	-0.006174	76.832125	15.067000	-67.226921
59686		-2.557229	9.205495	2.129858	0.014151	-0.001832	-0.015226	76.840000	15.076177	-67.230537
59687		-2.596201	9.239095	2.109652	-0.002733	-0.004161	-0.005138	76.838491	15.080877	-67.234398
59688		-2.509896	9.203674	2.154015	-0.008511	-0.014530	-0.018382	76.831360	15.090157	-67.245779
59689		-2.553338	9.193843	2.190705	-0.030503	-0.009030	-0.033482	76.812206	15.110022	-67.256285
59690		-2.595041	9.159659	2.120943	-0.008948	-0.013361	-0.035416	76.804391	15.128952	-67.269304
59691		-2.565791	9.235199	2.160754	0.008889	-0.011612	-0.015127	76.808056	15.138229	-67.278821
59692		-2.597385	9.192034	2.147724	-0.010094	-0.014025	-0.004237	76.800583	15.139679	-67.288002
59693		-2.505038	9.058986	2.225208	0.008653	-0.018084	-0.014704	76.803147	15.147865	-67.301201
59694		-2.534729	9.286761	2.092866	0.038602	-0.015933	-0.026929	76.822480	15.161725	-67.314558
59695		-2.570993	9.200821	2.133482	-0.025857	-0.003899	-0.025105	76.807038	15.177555	-67.320964
59696		-2.547562	9.112714	2.176531	0.023094	-0.006043	-0.026752	76.818982	15.192610	-67.328582
59697		-2.512847	9.273442	2.106218	0.005090	-0.013071	-0.035918	76.819490	15.213263	-67.341753
59698		-2.591863	9.144631	2.156915	-0.025786	-0.001629	-0.043167	76.803508	15.238051	-67.349044
59699		-2.603068	9.219764	2.152138	-0.004590	-0.009737	-0.044369	76.798664	15.263838	-67.361438
59700		-2.566764	9.205978	2.146599	-0.031276	-0.012267	-0.035335	76.778187	15.282862	-67.373830
59701		-2.562605	9.127991	2.154997	-0.008335	-0.010516	-0.040106	76.771217	15.306153	-67.386106
59702		-2.564409	9.181285	2.155052	-0.010877	-0.009968	-0.041951	76.762530	15.329164	-67.398078
59703		-2.571693	9.104127	2.184075	-0.000601	-0.009884	-0.052596	76.759622	15.359489	-67.411694
59704		-2.545169	9.133690	2.143741	0.018778	-0.016685	-0.075065	76.765687	15.400087	-67.432062
59705		-2.681440	9.169681	2.187210	0.011701	-0.012706	-0.070978	76.768706	15.440283	-67.449812
59706		-2.577641	9.153442	2.158275	0.029343	-0.037283	-0.079091	76.777473	15.480429	-67.482649
59707		-2.613654	9.163282	2.142473	0.018887	-0.029769	-0.085836	76.781400	15.526673	-67.512294
59708		-2.659353	9.194899	2.121632	0.027423	-0.041291	-0.089184	76.788026	15.571931	-67.548828
59709		-2.628293	9.159552	2.140510	0.012996	-0.041048	-0.091247	76.786575	15.619712	-67.585745
59710		-2.666121	9.147739	2.152564	0.027150	-0.045121	-0.088369	76.792416	15.664017	-67.624400
59711		-2.624084	9.145266	2.174880	0.030256	-0.051958	-0.091090	76.799089	15.710279	-67.667624
59712		-2.640874	9.132240	2.141620	0.044538	-0.052533	-0.095584	76.813401	15.757650	-67.711559
59713		-2.663221	9.305135	2.098179	0.058042	-0.047635	-0.087791	76.836726	15.802647	-67.751824
59714		-2.652783	9.204911	2.108738	-0.008162	-0.044077	-0.085986	76.822469	15.845784	-67.789552
59715		-2.711599	9.160741	2.140251	0.018881	-0.039396	-0.092036	76.824444	15.894210	-67.825627
59716		-2.675934	9.276945	2.102998	0.002285	-0.041023	-0.089598	76.816458	15.939756	-67.862100
59717		-2.705073	9.187848	2.124575	-0.032299	-0.024603	-0.078662	76.791906	15.982635	-67.887801
59718		-2.731001	9.174541	2.118742	-0.022949	-0.033401	-0.065801	76.771512	16.015882	-67.916654
59719		-2.688860	9.096238	2.173379	-0.018981	-0.024887	-0.059852	76.755215	16.048207	-67.939989
59720		-2.703170	9.116334	2.169744	0.001659	-0.031304	-0.059720	76.749448	16.078324	-67.966821
59721		-2.704964	9.211714	2.115196	-0.008690	-0.025272	-0.056149	76.739090	16.108516	-67.989892
59722		-2.700103	9.187898	2.122826	-0.028628	-0.029590	-0.057444	76.716300	16.137578	-68.015439
59723		-2.716590	9.164996	2.175570	-0.031724	-0.024042	-0.065275	76.692567	16.172993	-68.039069
59724		-2.740459	9.173137	2.142719	-0.028139	-0.030222	-0.054771	76.670021	16.200461	-68.064648
59725		-2.724425	9.202786	2.129033	-0.050407	-0.025816	-0.062001	76.635384	16.233786	-68.088895
59726		-2.751903	9.091956	2.181211	-0.061348	-0.025675	-0.060598	76.594286	16.265077	-68.112681
59727		-2.744509	9.164544	2.136322	-0.042431	-0.025340	-0.053524	76.564585	16.293701	-68.135523
59728		-2.740771	9.097654	2.200757	-0.053947	-0.018917	-0.047540	76.529303	16.318589	-68.153617
59729		-2.745351	9.041029	2.205360	-0.012228	-0.021330	-0.048579	76.517725	16.344963	-68.173475
59730		-2.696830	9.157863	2.147821	-0.008151	-0.027629	-0.049735	76.507150	16.369899	-68.196954
59731		-2.770877	9.178387	2.143983	-0.033090	-0.018318	-0.062122	76.483555	16.404199	-68.216967
59732		-2.747513	9.110233	2.163146	-0.042145	-0.018417	-0.068119	76.454255	16.440594	-68.237693
59733		-2.744201	9.118803	2.198462	-0.037193	-0.018036	-0.074717	76.427822	16.481919	-68.259342
59734		-2.779684	9.181391	2.187395	-0.042668	-0.013407	-0.074059	76.398772	16.522277	-68.278037
59735		-2.785928	9.144971	2.166376	-0.063930	-0.005571	-0.072715	76.359116	16.564134	-68.292214
59736		-2.822714	9.076666	2.185958	-0.057242	-0.009393	-0.065136	76.322698	16.600046	-68.307379
59737		-2.787226	9.138272	2.155668	-0.061340	-0.004871	-0.060263	76.285114	16.635041	-68.319444
59738		-2.811957	9.178897	2.151685	-0.065821	-0.008899	-0.057889	76.244125	16.666966	-68.333348
59739		-2.805811	9.326954	2.081299	-0.088328	-0.012643	-0.081714	76.188879	16.712809	-68.353036
59740		-2.728311	9.148543	2.244810	-0.175281	0.008525	-0.100052	76.086304	16.770551	-68.362943
59741		-2.808425	9.054950	2.253707	-0.127526	-0.001419	-0.120265	76.008806	16.839306	-68.381812
59742		-2.748907	9.309067	2.189406	-0.155648	0.008252	-0.149963	75.915249	16.924724	-68.399319
59743		-2.914745	9.137530	2.271317	-0.219870	0.042614	-0.158465	75.790555	17.020789	-68.398451
59744		-2.761844	9.074062	2.313874	-0.160778	0.025644	-0.177053	75.695691	17.123638	-68.410213
59745		-2.771228	8.999601	2.386628	-0.188257	0.084505	-0.198414	75.594443	17.247818	-68.391300
59746		-2.761516	8.870326	2.412448	-0.121844	0.098386	-0.208566	75.532912	17.378508	-68.365852
59747		-2.961463	9.056678	2.307817	-0.101501	0.116397	-0.222034	75.485854	17.520383	-68.332222
59748		-3.024769	9.058364	2.320687	-0.077478	0.095779	-0.234840	75.448148	17.665312	-68.312446
59749		-2.941891	9.181199	2.322976	-0.074375	0.093054	-0.274462	75.410196	17.832936	-68.300490
59750		-2.979523	8.963254	2.402527	-0.090590	0.138106	-0.293462	75.369884	18.016509	-68.265121
59751		-3.028296	8.985303	2.341143	-0.030626	0.123090	-0.306351	75.360954	18.206157	-68.240667
59752		-3.110686	9.083064	2.317208	-0.052546	0.145185	-0.312952	75.343010	18.401581	-68.204192
59753		-3.113587	9.039713	2.358483	-0.053673	0.142730	-0.326106	75.323705	18.605032	-68.171330
59754		-3.159309	9.125828	2.327749	-0.061318	0.154847	-0.350192	75.300946	18.822524	-68.134968
59755		-3.208743	9.166782	2.351062	-0.081426	0.178660	-0.376568	75.270265	19.059183	-68.088906
59756		-3.274383	9.052769	2.339517	-0.117106	0.181355	-0.397843	75.218458	19.306985	-68.044526
59757		-3.294364	8.949903	2.406174	-0.104760	0.185557	-0.413125	75.174168	19.564961	-68.000330
59758		-3.325269	9.130526	2.393237	-0.099823	0.190503	-0.446618	75.131800	19.841187	-67.958452
59759		-3.356447	8.937486	2.454856	-0.149366	0.216021	-0.480157	75.064792	20.140827	-67.907126
59760		-3.542006	9.041506	2.450456	-0.117983	0.215548	-0.510749	75.013900	20.456333	-67.861006
59761		-3.456305	9.202383	2.449629	-0.150187	0.241778	-0.556555	74.947893	20.802168	-67.807011
59762		-3.699932	9.025849	2.327195	-0.137667	0.254637	-0.608139	74.888789	21.177471	-67.753784
59763		-3.606034	9.205685	2.499861	-0.092631	0.254731	-0.655407	74.853288	21.580005	-67.708397
59764		-3.748509	9.435016	2.556806	-0.084647	0.275306	-0.712617	74.823471	22.016252	-67.659991
59765		-3.703791	9.435688	2.646276	-0.081154	0.281843	-0.784192	74.793340	22.494087	-67.619483
59766		-3.862932	9.419307	2.523854	-0.097434	0.288949	-0.852069	74.751221	23.009534	-67.585869
59767		-3.946321	9.370920	2.580495	-0.113384	0.302795	-0.922090	74.699146	23.566766	-67.555847
59768		-4.038978	9.385139	2.559096	-0.130769	0.301992	-1.004477	74.631188	24.168460	-67.540376
59769		-4.139345	9.329698	2.505295	-0.130546	0.309263	-1.077117	74.560282	24.812335	-67.533439
59770		-4.200843	9.406398	2.543648	-0.156908	0.323954	-1.166455	74.471053	25.506861	-67.533519
59771		-4.351412	9.355609	2.641327	-0.167719	0.332970	-1.261248	74.370695	26.255981	-67.545610
59772		-4.262976	9.273918	2.591867	-0.190965	0.352367	-1.361103	74.253439	27.062276	-67.564659
59773		-4.541710	9.258991	2.692288	-0.198553	0.376192	-1.458108	74.129883	27.926561	-67.588051
59774		-4.472651	9.557224	2.748981	-0.228323	0.399613	-1.583921	73.983737	28.862962	-67.621761
59775		-4.888494	9.316310	2.569594	-0.293232	0.458648	-1.730458	73.803701	29.890075	-67.648289
59776		-5.122115	9.243629	2.462183	-0.285264	0.458498	-1.852849	73.613824	30.983640	-67.701852
59777		-5.229064	8.942992	2.450079	-0.331357	0.477550	-1.962395	73.389663	32.141004	-67.769281
59778		-6.024668	8.487635	2.363581	-0.287535	0.520419	-2.051015	73.191643	33.353150	-67.832088
59779		-5.617263	9.384385	3.048967	-0.049917	0.470288	-2.062608	73.106686	34.563875	-67.934769
59780		-4.939996	10.464913	3.837602	-0.237318	0.511831	-2.028008	72.929536	35.761712	-68.007484
59781		-5.541652	7.309668	2.465558	-0.290239	0.664020	-2.112048	72.768756	37.031574	-67.999756
59782		-5.818680	8.128991	2.630510	-0.001192	0.662914	-2.138459	72.768215	38.315228	-68.000682
59783		-5.711374	7.965224	2.552630	-0.041703	0.718366	-2.176986	72.763920	39.629812	-67.970969
59784		-6.278351	7.759243	2.330166	0.052170	0.745573	-2.219599	72.821060	40.971886	-67.929940
59785		-6.613417	8.301423	2.494839	0.156310	0.760915	-2.246594	72.944751	42.331632	-67.879935
59786		-6.674991	8.622905	2.797312	0.125113	0.759441	-2.242482	73.054375	43.688444	-67.825361
59787		-6.962607	7.668980	1.920074	0.083894	0.807110	-2.257127	73.168259	45.061365	-67.732490
59788		-7.337257	7.097073	1.462562	0.239619	0.770767	-2.285504	73.352670	46.443456	-67.667713
59789		-7.617266	7.270150	1.168639	0.348684	0.715290	-2.315603	73.569349	47.833049	-67.645870
59790		-7.811632	6.817486	0.892570	0.444581	0.652505	-2.335080	73.804974	49.222993	-67.672321
59791		-7.794181	5.779672	0.380010	0.600534	0.582533	-2.371111	74.084397	50.621932	-67.758037
59792		-9.654506	5.903558	1.618393	0.647851	0.565179	-2.466893	74.364838	52.071054	-67.875166
59793		-11.270874	3.720068	1.469190	0.418174	0.688964	-2.719305	74.556224	53.679097	-67.936842
59794		-10.841119	0.672026	-1.910311	0.964912	0.623890	-2.928419	74.974329	55.392824	-68.103184
59795		-10.991461	1.608075	-0.390341	1.259861	0.648059	-2.923968	75.597791	57.109280	-68.222871
59796		-13.623495	-1.718290	-2.235410	1.985694	0.296426	-3.192828	76.287756	58.926008	-68.751632
59797		-15.998233	4.819291	2.054560	2.088306	0.243663	-3.484331	76.921637	60.903042	-69.403381
59798		-14.602091	7.702449	2.243122	2.404579	-0.144787	-3.405448	77.335960	62.787672	-70.496869
59799		-11.547354	10.212430	3.130478	1.563280	-0.327128	-2.906304	77.123759	64.373160	-71.735296
59800		-9.502958	10.816915	3.448272	1.152525	-0.536482	-2.125515	76.551011	65.489989	-73.097360
59801		-8.891627	11.123821	3.847957	0.322966	-0.536453	-1.242005	75.692732	66.109346	-74.242330
59802		-9.371646	10.177399	3.437750	-0.291325	-0.532957	-0.507894	74.686901	66.313538	-75.159904
59803		-9.793315	7.996252	2.603918	-0.819749	-0.472931	-0.018073	73.617485	66.250914	-75.815887
59804		-10.017438	5.864718	1.739339	-1.107297	-0.374726	0.215773	72.598892	66.071122	-76.236647
59805		-10.641362	3.854827	1.115751	-1.257756	-0.262194	0.206801	71.638851	65.913310	-76.499566
59806		-11.148987	2.709003	0.880759	-1.286270	-0.144508	-0.048650	70.705876	65.913842	-76.715031
59807		-11.446661	1.722455	0.702035	-1.266775	-0.008806	-0.478172	69.760719	66.171177	-76.955937
59808		-11.120582	0.986613	0.357403	-1.197184	0.132536	-0.969794	68.785941	66.718590	-77.271797
59809		-10.761703	0.494723	0.178934	-0.991257	0.292249	-1.414445	67.877249	67.535142	-77.642549
59810		-10.893675	1.315310	0.299194	-0.746984	0.414304	-1.764570	67.030532	68.560748	-78.094740
59811		-10.688587	2.078067	0.641334	-0.499041	0.485625	-1.968007	66.241064	69.708168	-78.634589
59812		-10.342598	3.184288	1.279859	-0.309108	0.522273	-2.050141	65.483756	70.903306	-79.251550
59813		-10.042812	4.380345	2.031151	-0.219640	0.508965	-2.000650	64.705477	72.067858	-79.940557
59814		-9.783933	5.335315	2.659109	-0.270156	0.464188	-1.840935	63.853060	73.134367	-80.672340
59815		-9.471367	5.822255	2.982400	-0.411595	0.402701	-1.610226	62.912547	74.064341	-81.407814
59816		-9.390254	5.785854	3.062786	-0.591453	0.348551	-1.336462	61.934064	74.836318	-82.072432
59817		-9.490207	5.590344	3.177248	-0.766646	0.294180	-1.060946	60.955993	75.452130	-82.630695
59818		-9.657407	5.377753	3.308678	-0.951647	0.221903	-0.832050	59.920046	75.930277	-83.137821
59819		-9.723876	5.228139	3.465956	-1.166553	0.116751	-0.639708	58.726394	76.280473	-83.679655
59820		-10.017503	5.213571	3.650014	-1.401132	-0.014764	-0.502194	57.261135	76.520705	-84.361958
59821		-10.368339	5.206277	3.839825	-1.660612	-0.180353	-0.404907	55.407324	76.656856	-85.290264
59822		-10.464602	4.863748	3.471755	-1.875834	-0.374858	-0.321300	53.140405	76.681561	-86.516143
59823		-10.194747	4.299331	2.851623	-1.969849	-0.563771	-0.205270	50.634775	76.574582	-87.932094
59824		-9.869350	3.669302	2.170350	-1.903956	-0.734118	-0.044926	48.146782	76.320924	-89.369930
59825		-9.842468	2.925713	1.672814	-1.729564	-0.864023	0.150268	45.925086	75.920045	-90.638224
59826		-9.557672	2.235554	1.149312	-1.463962	-0.963555	0.317092	44.059168	75.401675	-91.699091
59827		-9.236258	1.751077	0.930205	-1.181313	-0.996478	0.398363	42.532733	74.829049	-92.578735
59828		-9.219256	1.632728	1.022125	-0.929269	-0.978799	0.368098	41.211505	74.271143	-93.397822
59829		-9.233407	1.638175	1.332193	-0.746697	-0.921099	0.275962	40.002329	73.767056	-94.211168
59830		-9.295551	2.099497	1.838149	-0.671690	-0.829480	0.164566	38.839366	73.340472	-95.023203
59831		-9.162517	2.476474	2.228793	-0.712728	-0.721675	0.051654	37.660831	72.996935	-95.828455
59832		-8.858920	2.679187	2.381065	-0.830772	-0.611896	-0.057656	36.411857	72.737366	-96.638062
59833		-8.600677	2.530908	2.246398	-0.935921	-0.481533	-0.132125	35.162299	72.557244	-97.386009
59834		-8.344513	2.519150	1.981338	-0.945924	-0.343151	-0.133056	34.064789	72.439094	-97.969251
59835		-8.038685	2.792954	1.871616	-0.865991	-0.245905	-0.046508	33.252662	72.335935	-98.301365
59836		-7.779143	3.005044	1.910464	-0.807048	-0.171974	0.111472	32.787433	72.218842	-98.305073
59837		-7.673883	3.268182	2.019583	-0.700773	-0.132678	0.293280	32.697386	72.063279	-97.978455
59838		-7.601944	3.343528	2.092917	-0.576270	-0.120524	0.502357	32.992230	71.849479	-97.321851
59839		-7.246070	3.477144	2.104606	-0.440464	-0.120481	0.728482	33.680833	71.561558	-96.331393
59840		-6.979176	3.682674	2.443891	-0.318194	-0.140491	0.943872	34.689649	71.191441	-95.075207
59841		-6.678371	4.016298	2.693949	-0.286502	-0.159040	1.109812	35.879256	70.748685	-93.643782
59842		-6.416939	3.668171	2.769114	-0.370780	-0.152526	1.194249	37.072694	70.271985	-92.153222
59843		-6.232101	3.001348	2.297986	-0.431881	-0.128821	1.188797	38.187779	69.796330	-90.704128
59844		-5.949987	2.210112	1.685521	-0.404437	-0.096622	1.128792	39.216506	69.349129	-89.359866
59845		-5.454703	2.026596	1.259023	-0.211176	-0.087418	1.095692	40.279181	68.907774	-88.093624
59846		-5.011388	2.641726	1.248934	0.044148	-0.119791	1.162943	41.477626	68.420238	-86.834932
59847		-4.765354	3.481205	1.698364	0.258340	-0.205404	1.300051	42.806518	67.831690	-85.563008
59848		-4.355431	4.133064	2.031805	0.339253	-0.291468	1.418611	44.145531	67.151721	-84.324787
59849		-4.013320	4.541145	2.235170	0.299848	-0.344712	1.524200	45.439268	66.394550	-83.104458
59850		-3.898070	4.781382	2.269512	0.227874	-0.403296	1.639600	46.658169	65.558360	-81.913721
59851		-3.646670	4.642107	1.786694	0.226125	-0.493708	1.819333	47.865369	64.598695	-80.725989
59852		-3.366868	4.226659	1.394348	0.353441	-0.610705	2.062729	49.137066	63.482196	-79.537675
59853		-3.215526	3.861975	1.190582	0.493627	-0.692566	2.236058	50.444818	62.245215	-78.386578
59854		-2.905198	3.603668	1.070588	0.503359	-0.658984	2.260948	51.695623	61.000796	-77.293631
59855		-2.581929	3.623587	0.823251	0.440902	-0.537671	2.185091	52.870357	59.819390	-76.233846
59856		-2.243413	4.290971	0.898972	0.319619	-0.364685	2.113276	53.984269	58.723088	-75.151920
59857		-2.206212	4.965165	0.793109	0.241340	-0.250283	2.180720	55.104552	57.619303	-73.996774
59858		-2.693083	5.114609	0.801163	0.307797	-0.251499	2.380930	56.281756	56.411864	-72.804541
59859		-3.397617	5.115542	1.205386	0.465652	-0.382155	2.583962	57.469500	55.049156	-71.690885
59860		-3.961704	5.022648	1.694614	0.572062	-0.575363	2.686197	58.542984	53.569869	-70.773699
59861		-4.342775	5.112614	2.071978	0.575186	-0.766922	2.685226	59.423479	52.021541	-70.082822
59862		-4.470426	5.204096	1.977678	0.555693	-0.944220	2.648621	60.111114	50.438728	-69.610208
59863		-4.601213	5.273261	1.777822	0.506758	-1.098818	2.613834	60.631284	48.822163	-69.309514
59864		-4.318694	5.483908	1.446165	0.545618	-1.240857	2.598064	61.059675	47.176570	-69.154720
59865		-4.135704	5.670968	1.075435	0.578873	-1.327733	2.601904	61.446467	45.500030	-69.079736
59866		-3.944252	5.901703	0.954304	0.646078	-1.369867	2.612784	61.836809	43.810626	-69.052091
59867		-4.081309	6.059874	1.086273	0.688761	-1.372922	2.614705	62.241479	42.114844	-69.038996
59868		-4.589805	6.251653	1.368924	0.783900	-1.410721	2.602787	62.667052	40.419586	-69.075847
59869		-5.167915	6.710089	1.714250	0.849103	-1.457774	2.587409	63.100732	38.715585	-69.160938
59870		-5.387918	7.133406	1.990654	0.866022	-1.472454	2.555526	63.522363	37.029239	-69.283593
59871		-5.492915	7.385678	1.890789	0.919939	-1.476498	2.569927	63.974192	35.330711	-69.413896
59872		-5.597810	7.761199	1.996261	1.040827	-1.465355	2.637939	64.502709	33.605396	-69.535071
59873		-5.971183	7.970596	2.222142	1.087757	-1.374960	2.669565	65.089914	31.882304	-69.605364
59874		-6.689637	7.732780	2.462446	1.096308	-1.211391	2.599035	65.711660	30.240211	-69.619207
59875		-6.683283	7.867502	2.517895	1.074347	-0.994603	2.466355	66.360866	28.713931	-69.555415
59876		-6.554476	7.891756	2.633494	1.028158	-0.733692	2.342294	67.027445	27.315908	-69.392024
59877		-6.831449	8.165563	3.096191	1.034904	-0.552257	2.261268	67.727552	25.994995	-69.158674
59878		-6.948734	8.782820	3.746380	1.047769	-0.446535	2.219804	68.440815	24.720401	-68.896701
59879		-7.257242	8.726587	4.404380	0.974450	-0.383537	2.164896	69.111885	23.481587	-68.626881
59880		-7.394690	8.563084	4.589684	0.911993	-0.361659	2.083614	69.730147	22.291961	-68.382619
59881		-7.819078	8.306235	4.910083	0.885719	-0.344760	1.992645	70.322327	21.148812	-68.160654
59882		-7.929925	8.521726	5.297179	0.862032	-0.369935	1.894874	70.877153	20.055233	-67.989594
59883		-8.607355	7.829841	5.676373	0.747516	-0.383090	1.762215	71.350731	19.026696	-67.861535
59884		-8.929163	8.079595	6.132709	0.727181	-0.465944	1.595031	71.779893	18.076160	-67.824448
59885		-8.960587	7.866895	6.280659	0.517486	-0.484873	1.401250	72.074194	17.225196	-67.839040
59886		-8.343805	7.327732	5.560402	0.342840	-0.452293	1.180294	72.259167	16.502947	-67.880989
59887		-7.229706	7.028527	4.330242	0.209053	-0.330315	1.010624	72.379820	15.892919	-67.884882
59888		-6.038356	6.980337	3.126188	0.178384	-0.143795	0.955877	72.506809	15.346781	-67.795476
59889		-5.118317	6.387787	2.333043	0.227180	0.066831	0.980632	72.694088	14.821734	-67.583127
59890		-4.969669	5.380329	2.239916	0.244069	0.312878	0.960586	72.921392	14.349820	-67.238636
59891		-5.633121	3.941946	2.512044	0.220911	0.496196	0.800246	73.152327	13.994243	-66.819849
59892		-5.854190	3.418618	2.756296	0.245622	0.545765	0.588965	73.391621	13.761963	-66.411883
59893		-5.458821	2.719396	2.358121	0.211919	0.564568	0.347404	73.604241	13.663561	-66.034319
59894		-4.439162	2.185418	1.549056	0.225245	0.605159	0.106070	73.819056	13.703368	-65.674788
59895		-3.398483	2.115632	1.038863	0.246701	0.701199	-0.097404	74.052921	13.869213	-65.293242
59896		-2.633946	1.627772	0.861189	0.166130	0.853678	-0.304623	74.254279	14.171574	-64.857925
59897		-14.498441	29.497888	20.874026	1.000109	1.693456	-0.705682	75.043073	14.819673	-64.002220
59898		-24.394091	29.410610	6.151183	1.478795	1.899156	-0.245622	76.164449	15.227442	-62.947710
59899		-18.843773	15.615049	10.020686	-2.536631	-2.275345	2.244599	74.470968	13.655531	-63.914125
59900		-0.381784	-2.915592	2.318332	2.511549	-0.048503	1.293806	75.948951	12.932626	-63.747816
59901		6.685114	19.561538	-2.898449	1.908997	-2.023548	0.546398	76.806806	12.358746	-64.828332
59902		4.984456	8.257138	3.331766	-3.218752	2.019093	-0.238169	75.205973	12.771810	-63.712629
59903		-6.257388	4.051565	2.988899	0.678955	-0.739884	-0.565563	75.483189	12.980454	-64.218292
59904		-0.358365	15.104680	1.359299	0.367362	0.152629	-0.652917	75.692294	13.365451	-64.227449
59905		-2.688418	8.962179	2.561340	-1.450271	0.061903	-0.646823	74.847617	13.735392	-64.289963
59906		-3.443631	9.134618	2.421287	-0.181517	-0.003994	-0.559427	74.722848	14.044987	-64.379421
59907		-1.917461	8.041192	2.899003	-0.818195	-0.001802	-0.605321	74.230984	14.381458	-64.477105
59908		-2.982795	7.980394	2.638409	-0.117771	-0.208928	-0.549646	74.112015	14.652687	-64.685344
59909		-2.352394	9.074481	2.617581	-0.289897	-0.045726	-0.465295	73.920516	14.904354	-64.788270
59910		-2.778520	8.614587	2.751677	-0.116324	-0.093577	-0.328932	73.826630	15.071405	-64.896329
59911		-2.807628	8.780776	2.736143	-0.138422	-0.055889	-0.186098	73.731551	15.167434	-64.960001
59912		-2.658305	8.363006	2.761121	0.052127	-0.075532	-0.053897	73.748366	15.185855	-65.012558
59913		-2.350536	8.659141	2.704874	0.121847	-0.060609	0.001638	73.809754	15.177869	-65.047827
59914		-2.269659	8.969278	2.604792	0.168802	-0.045823	-0.038911	73.898507	15.192878	-65.080932
59915		-2.303922	9.170481	2.580628	0.120329	-0.001399	-0.080163	73.964322	15.239375	-65.095891
59916		-2.643399	9.238763	2.616336	0.124367	0.028244	-0.120550	74.035192	15.311126	-65.100048
59917		-2.579364	9.281493	2.536568	0.096663	0.007499	-0.141411	74.086144	15.392772	-65.119812
59918		-2.671423	9.150077	2.568302	0.046582	0.028695	-0.143222	74.111554	15.477093	-65.127278
59919		-2.651297	9.003846	2.577398	0.066639	0.001716	-0.124303	74.145142	15.548415	-65.147476
59920		-2.655262	8.957625	2.600711	0.077918	0.014417	-0.094082	74.188463	15.603427	-65.155039
59921		-2.614747	8.955238	2.616816	0.126617	0.007754	-0.070022	74.259698	15.645787	-65.162890
59922		-2.633848	9.078989	2.572076	0.139369	0.025600	-0.059807	74.341472	15.683643	-65.158397
59923		-2.670167	9.007150	2.513791	0.142845	0.027173	-0.066571	74.425183	15.727103	-65.154450
59924		-2.673073	8.941460	2.556007	0.152485	0.022849	-0.062204	74.513979	15.765848	-65.151799
59925		-2.691843	9.066155	2.506892	0.197788	0.013503	-0.055206	74.627566	15.800928	-65.153754
59926		-2.654966	9.111893	2.484429	0.180259	0.024632	-0.045590	74.733310	15.830752	-65.147316
59927		-2.679351	8.929047	2.509503	0.191917	0.032953	-0.037227	74.847388	15.858810	-65.135146
59928		-2.631176	8.831764	2.544068	0.242914	0.029753	-0.040887	74.990077	15.886769	-65.124904
59929		-2.665919	8.971657	2.447682	0.319393	0.032516	-0.043706	75.176890	15.918281	-65.113840
59930		-2.717221	9.067270	2.421241	0.311326	0.037371	-0.032673	75.360382	15.942739	-65.097783
59931		-2.718078	8.920632	2.420324	0.332274	0.023030	-0.026772	75.553830	15.963414	-65.089452
59932		-2.690911	8.970949	2.403667	0.391019	0.010450	-0.034774	75.778681	15.985111	-65.089070
59933		-2.709544	9.221350	2.274419	0.412075	0.002922	-0.038066	76.014232	16.009185	-65.093854
59934		-2.939150	9.586431	2.195229	0.398854	0.015364	-0.053479	76.243670	16.041958	-65.093119
59935		-2.756978	9.815639	1.875563	0.227941	-0.063053	-0.075785	76.361728	16.078103	-65.141272
59936		-2.543873	8.988186	2.328453	-0.008837	0.000275	-0.102584	76.353272	16.136175	-65.156053
59937		-2.896349	9.020344	2.245616	0.222131	-0.022595	-0.098599	76.473593	16.190534	-65.183880
59938		-2.702449	9.594609	2.024019	0.137185	-0.054062	-0.081393	76.540840	16.229573	-65.227087
59939		-2.860354	9.303959	2.079615	-0.000395	0.029341	-0.035225	76.544562	16.255595	-65.215847
59940		-2.885180	9.445909	2.037537	-0.005484	-0.028806	-0.004452	76.537133	16.255153	-65.233693
59941		-2.728665	9.352986	2.073622	-0.138789	0.013126	0.027274	76.461383	16.244193	-65.223160
59942		-2.777798	9.134029	2.172623	-0.146542	0.012547	0.046389	76.381838	16.220962	-65.209892
59943		-2.738022	9.218682	2.148145	-0.151362	0.012295	0.059720	76.300040	16.191843	-65.195225
59944		-2.765750	9.185109	2.200584	-0.176167	0.020423	0.075887	76.205962	16.153306	-65.173144
59945		-2.758847	9.183358	2.216499	-0.179049	0.008268	0.081317	76.108526	16.111657	-65.157623
59946		-2.722375	9.169759	2.248555	-0.189555	0.008798	0.096045	76.005719	16.060377	-65.139247
59947		-2.702374	8.992577	2.300832	-0.182627	0.002853	0.089076	75.905700	16.013708	-65.125579
59948		-2.675711	9.033998	2.352305	-0.132197	0.006355	0.087944	75.835058	15.966646	-65.109628
59949		-2.702652	9.089632	2.317365	-0.130010	0.006409	0.087263	75.765685	15.921512	-65.094043
59950		-2.653687	8.956052	2.377948	-0.091467	0.006787	0.078589	75.718076	15.879741	-65.079113
59951		-2.672559	9.165957	2.287297	-0.069106	0.002060	0.067631	75.682115	15.844909	-65.068849
59952		-2.659222	9.000159	2.383194	-0.108327	0.007241	0.061252	75.624219	15.812848	-65.056154
59953		-2.693915	9.012332	2.395859	-0.037269	0.002795	0.058617	75.606253	15.783130	-65.046745
59954		-2.641234	9.099485	2.341410	-0.043908	0.003165	0.058344	75.584506	15.752114	-65.036801
59955		-2.661575	9.045804	2.386322	-0.018791	0.004313	0.048969	75.576967	15.727964	-65.027930
59956		-2.680239	9.103337	2.319817	-0.014598	0.004500	0.047414	75.571776	15.703207	-65.018828
59957		-2.643642	8.993123	2.366001	-0.004003	0.005142	0.050197	75.572879	15.678489	-65.009295
59958		-2.602902	8.992565	2.411594	0.039451	0.001707	0.044706	75.598104	15.654834	-65.002211
59959		-2.665189	9.130508	2.287967	0.055830	0.013045	0.040065	75.634291	15.636849	-64.989645
59960		-2.616457	9.108286	2.335003	0.048110	0.011153	0.041804	75.665816	15.616139	-64.977574
59961		-2.653058	9.123152	2.335602	0.069523	0.008755	0.036245	75.709020	15.599642	-64.968066
59962		-2.661186	9.214369	2.267915	0.039434	0.014264	0.049414	75.736339	15.575131	-64.953114
59963		-2.650238	9.172386	2.295298	0.037646	0.007411	0.066458	75.762248	15.541648	-64.939975
59964		-2.624651	9.184851	2.302500	0.029541	0.006197	0.065552	75.783263	15.507026	-64.927341
59965		-2.638420	9.177180	2.289744	0.017246	0.004808	0.066205	75.797054	15.473299	-64.915765
59966		-2.641027	9.201394	2.284177	-0.003721	0.001090	0.066934	75.798260	15.437186	-64.905893
59967		-2.631147	9.104360	2.314699	0.003483	0.000179	0.076606	75.803847	15.397021	-64.895473
59968		-2.581684	9.148561	2.308125	0.020774	0.000370	0.079730	75.819456	15.353697	-64.884165
59969		-2.599621	9.097140	2.348719	0.016759	0.000356	0.088028	75.833093	15.307199	-64.872002
59970		-2.588994	9.122098	2.319556	0.044461	-0.001863	0.080150	75.861924	15.263322	-64.861952
59971		-2.590129	9.147392	2.311301	0.029997	-0.000664	0.081990	75.882728	15.220019	-64.851297
59972		-2.576655	9.105999	2.339676	0.036458	-0.007357	0.089259	75.906464	15.170305	-64.843134
59973		-2.570626	9.143267	2.250735	0.057499	-0.003729	0.088595	75.942780	15.122887	-64.833336
59974		-2.571920	9.113188	2.352402	0.046917	-0.004326	0.085826	75.972806	15.075495	-64.823983
59975		-2.574456	9.052255	2.314616	0.071466	-0.005131	0.098681	76.017255	15.022256	-64.813611
59976		-2.502491	9.075860	2.283904	0.122407	-0.015149	0.102266	76.089490	14.964212	-64.808224
59977		-2.487153	9.157578	2.247015	0.121428	-0.003259	0.098623	76.162781	14.911234	-64.796918
59978		-2.467187	9.194842	2.240987	0.131033	-0.008865	0.085665	76.240236	14.863273	-64.790418
59979		-2.442402	9.275225	2.182407	0.106094	0.002344	0.067709	76.304400	14.828220	-64.780378
59980		-2.470080	9.335235	2.128085	0.051242	-0.003791	0.056619	76.335808	14.797103	-64.775133
59981		-2.542260	9.297195	2.197148	-0.020557	-0.005166	0.052499	76.325752	14.769473	-64.771575
59982		-2.470190	9.119168	2.239421	-0.014818	-0.013184	0.054098	76.317838	14.738487	-64.772093
59983		-2.493137	9.165784	2.251353	0.010301	-0.011309	0.055564	76.324673	14.708311	-64.771634
59984		-2.467857	9.144596	2.233715	0.021582	-0.012303	0.057010	76.337846	14.675823	-64.771242
59985		-2.408352	9.187282	2.203760	0.038711	-0.002680	0.050933	76.362044	14.649382	-64.766479
59986		-2.452233	9.224582	2.202399	0.014055	0.000848	0.038431	76.372156	14.629016	-64.761134
59987		-2.449134	9.193050	2.174183	0.014296	0.007089	0.031451	76.383095	14.614725	-64.753474
59988		-2.492652	9.163551	2.232972	-0.005955	0.001204	0.026640	76.381375	14.600971	-64.749574
59989		-2.423151	9.138157	2.241750	0.017528	0.000238	0.009916	76.392415	14.597739	-64.748858
59990		-2.521270	9.155775	2.241796	0.022577	-0.003615	0.013306	76.405873	14.590760	-64.749592
59991		-2.455507	9.109113	2.274527	0.047793	0.002667	0.011476	76.434656	14.586978	-64.747263
59992		-2.422034	9.240004	2.200262	0.060112	-0.001572	0.003372	76.469568	14.585807	-64.748205
59993		-2.497752	9.256794	2.154681	0.032427	0.007979	0.008304	76.490201	14.584490	-64.743262
59994		-2.494963	9.191905	2.209961	0.032866	-0.002433	0.013511	76.509730	14.577557	-64.743299
59995		-2.462034	9.235181	2.221120	0.061264	0.007201	0.019697	76.547171	14.569778	-64.737231
59996		-2.429151	9.212727	2.179650	0.014755	-0.002749	0.015428	76.556342	14.561733	-64.737193
59997		-2.416753	9.212767	2.156081	0.029071	0.005457	0.004395	76.574554	14.562235	-64.734236
59998		-2.443482	9.378786	2.107525	-0.000185	-0.000194	-0.006745	76.574769	14.566887	-64.735778
59999		-2.479026	9.314254	2.122079	-0.073713	0.002354	-0.010837	76.533123	14.575449	-64.736694
60000		-2.471401	9.103855	2.250590	-0.070467	-0.005079	-0.011099	76.492208	14.581873	-64.741655
60001		-2.465466	9.178697	2.229103	-0.037963	0.000239	-0.003164	76.471006	14.585869	-64.742732
60002		-2.437947	9.132312	2.221116	-0.035102	0.000575	-0.009033	76.451243	14.591897	-64.744159
60003		-2.493269	9.091167	2.250081	-0.001375	0.009952	-0.006846	76.452281	14.599238	-64.740157
60004		-2.434405	9.087817	2.252572	0.036707	0.004418	-0.004459	76.474378	14.603232	-64.738737
60005		-2.461401	9.254592	2.201320	0.053210	0.016583	0.001686	76.507946	14.606699	-64.729736
60006		-2.488224	9.169486	2.213462	0.026867	0.009655	-0.004879	76.525152	14.611626	-64.725354
60007		-2.444249	9.145547	2.262005	0.052165	0.013274	-0.007073	76.557338	14.619515	-64.719460
60008		-2.455629	9.201982	2.166203	0.062398	0.008958	-0.014382	76.594474	14.629642	-64.716781
60009		-2.454652	9.256911	2.161791	0.031488	0.001508	-0.032890	76.612207	14.650343	-64.721197
60010		-2.453121	9.212466	2.191201	0.019026	0.004500	-0.042347	76.622876	14.675464	-64.724912
60011		-2.515044	9.335681	2.126540	0.019886	0.000520	-0.037385	76.633661	14.698530	-64.730501
60012		-2.532715	9.281035	2.148174	-0.021818	-0.004295	-0.026328	76.620197	14.713556	-64.737086
60013		-2.464983	9.155608	2.191378	-0.018050	-0.002444	-0.019732	76.609432	14.726381	-64.741962
60014		-2.523054	9.212830	2.188331	-0.008380	0.000269	-0.018133	76.604617	14.737444	-64.744798
60015		-2.519090	9.168366	2.220470	0.001988	-0.002782	-0.007897	76.605694	14.743620	-64.748245
60016		-2.480019	9.122339	2.186946	0.017472	-0.003646	-0.007991	76.615471	14.748510	-64.751945
60017		-2.365808	9.126557	2.246957	0.026155	0.001784	-0.028888	76.630327	14.766987	-64.755636
60018		-2.478496	9.198265	2.155924	0.023974	0.005953	-0.038147	76.644186	14.789960	-64.757930
60019		-2.395657	9.181389	2.174065	0.009968	0.003418	-0.066147	76.648700	14.829409	-64.765770
60020		-2.552999	9.177312	2.175882	0.001808	0.010949	-0.080436	76.649112	14.876619	-64.770967
60021		-2.537307	9.239867	2.185331	0.015184	-0.004150	-0.073885	76.655209	14.919370	-64.784228
60022		-2.554724	9.206167	2.179610	-0.001115	-0.002507	-0.057900	76.652733	14.952237	-64.794102
60023		-2.514810	9.147843	2.204551	0.023646	-0.007046	-0.056121	76.663859	14.984698	-64.806600
60024		-2.533861	9.213046	2.166108	0.009415	-0.002181	-0.061739	76.667320	15.019750	-64.816808
60025		-2.525589	9.145334	2.202639	0.003125	-0.002396	-0.059405	76.667252	15.054649	-64.827067
60026		-2.527759	9.165736	2.175250	0.016203	-0.012375	-0.058827	76.673163	15.086733	-64.842763
60027		-2.533738	9.197271	2.200681	0.015749	-0.007503	-0.071492	76.679115	15.127689	-64.857622
60028		-2.570717	9.153896	2.183515	0.026052	-0.007859	-0.060877	76.691259	15.161515	-64.870986
60029		-2.552998	9.184738	2.164379	0.038065	-0.007483	-0.053698	76.710619	15.192550	-64.883389
60030		-2.568720	9.151955	2.156300	0.029281	-0.001603	-0.045781	76.726091	15.218789	-64.891063
60031		-2.553345	9.161519	2.163099	0.049314	-0.005795	-0.051822	76.752214	15.248999	-64.902215
60032		-2.502313	9.256152	2.132394	0.019889	-0.014733	-0.076730	76.759192	15.290780	-64.921675
60033		-2.597743	9.149234	2.171037	-0.005250	-0.008071	-0.091529	76.752264	15.342826	-64.939539
60034		-2.634160	9.192450	2.180829	0.042874	-0.025673	-0.085637	76.770382	15.388141	-64.966543
60035		-2.561787	9.165131	2.167158	0.004310	-0.014205	-0.083275	76.768256	15.434779	-64.986828
60036		-2.605708	9.077921	2.203360	0.047205	-0.015582	-0.082952	76.790468	15.479927	-65.007625
60037		-2.630165	9.241609	2.129093	0.068517	-0.018820	-0.073905	76.824726	15.520738	-65.029288
60038		-2.644343	9.230256	2.092722	0.041085	-0.017158	-0.063501	76.843874	15.554848	-65.048326
60039		-2.609933	9.129575	2.169437	0.032713	-0.023007	-0.067847	76.857172	15.591742	-65.071565
60040		-2.607758	9.106435	2.170812	0.065766	-0.023171	-0.085787	76.888693	15.637517	-65.097081
60041		-2.661668	9.281805	2.080692	0.057446	-0.036114	-0.087174	76.913375	15.683504	-65.130501
60042		-2.594784	9.211897	2.119700	0.016492	-0.029464	-0.087478	76.915582	15.729425	-65.159870
60043		-2.683883	9.147594	2.104687	0.021920	-0.029729	-0.091380	76.920712	15.778585	-65.190149
60044		-2.670145	9.210188	2.113669	0.018331	-0.044301	-0.102365	76.921031	15.830893	-65.230139
60045		-2.658853	9.184685	2.098100	-0.004929	-0.053891	-0.115023	76.906017	15.890106	-65.277641
60046		-2.676015	9.083683	2.154038	-0.007156	-0.047174	-0.123805	76.890391	15.953990	-65.322239
60047		-2.670049	9.156343	2.105055	0.040933	-0.052154	-0.120058	76.901630	16.016216	-65.369459
60048		-2.716795	9.221179	2.108796	0.027856	-0.035097	-0.089151	76.909203	16.062334	-65.402381
60049		-2.672976	9.065218	2.165834	0.022843	-0.025529	-0.078437	76.915842	16.104791	-65.428518
60050		-2.758982	9.230038	2.088377	0.070104	-0.033573	-0.076725	76.948287	16.144186	-65.458871
60051		-2.695087	9.259175	2.095051	-0.005589	-0.027402	-0.076695	76.938364	16.185434	-65.485847
60052		-2.736459	9.137915	2.108620	-0.005262	-0.023893	-0.083990	76.928878	16.230139	-65.511566
60053		-2.704910	9.297279	2.044471	-0.017107	-0.044420	-0.099226	76.908688	16.281732	-65.551505
60054		-2.713437	9.152176	2.136269	-0.083404	-0.018709	-0.103086	76.854491	16.337744	-65.576852
60055		-2.777600	9.084568	2.197397	-0.031855	-0.040884	-0.103722	76.826164	16.392242	-65.615433
60056		-2.728860	9.166212	2.119153	-0.025559	-0.033569	-0.108908	76.802372	16.449531	-65.650299
60057		-2.778205	9.174663	2.128842	-0.030884	-0.028953	-0.108218	76.776298	16.508057	-65.682626
60058		-2.747288	9.158836	2.127220	-0.053352	-0.027088	-0.104372	76.737742	16.563634	-65.713180
60059		-2.781714	9.046617	2.176009	-0.038806	-0.025571	-0.105692	76.707706	16.621150	-65.743277
60060		-2.794122	9.162913	2.120382	-0.017226	-0.044115	-0.108209	76.686777	16.676591	-65.784347
60061		-2.777317	9.321772	2.081731	-0.075697	-0.038509	-0.118106	76.632864	16.739278	-65.823769
60062		-2.812293	9.174611	2.109845	-0.139480	-0.031254	-0.134276	76.542879	16.810881	-65.861109
60063		-2.830677	9.266226	2.090477	-0.116671	-0.034273	-0.148607	76.464826	16.891012	-65.902521
60064		-2.755727	9.736704	1.899237	-0.174596	-0.012212	-0.209513	76.354680	17.006968	-65.939630
60065		-2.818884	9.353769	2.155923	-0.394325	0.049786	-0.259625	76.127017	17.160130	-65.948333
60066		-2.817323	9.272265	2.203051	-0.318946	0.027372	-0.292304	75.937004	17.327357	-65.975245
60067		-2.567822	9.130967	2.355889	-0.455633	0.159901	-0.338687	75.689539	17.539812	-65.932665
60068		-3.430079	8.658726	2.440113	-0.213459	0.094391	-0.398882	75.566403	17.775538	-65.937745
60069		-2.387443	9.590228	2.266219	-0.195353	0.164896	-0.466229	75.463059	18.059674	-65.912516
60070		-3.149185	8.725705	2.473385	-0.327367	0.250230	-0.517550	75.297063	18.383705	-65.845794
60071		-2.952779	9.187414	2.434010	-0.065798	0.230158	-0.563028	75.275283	18.731033	-65.798363
60072		-2.963995	9.342263	2.388782	-0.232666	0.330438	-0.649533	75.172751	19.140076	-65.705706
60073		-3.404162	9.023501	2.464947	-0.173585	0.355316	-0.696824	75.107061	19.579966	-65.606342
60074		-3.242687	9.415943	2.501337	-0.147098	0.369157	-0.752282	75.056966	20.051822	-65.507584
60075		-3.647304	9.469205	2.585422	-0.243940	0.412522	-0.841273	74.956152	20.580340	-65.397778
60076		-3.887405	9.571025	2.797647	-0.202562	0.428223	-0.944614	74.877237	21.167670	-65.295518
60077		-3.876151	10.277563	2.770183	-0.118866	0.444144	-1.118031	74.840568	21.854249	-65.212023
60078		-3.840220	10.780150	2.956051	-0.093341	0.518313	-1.331879	74.823181	22.669383	-65.118620
60079		-3.923688	10.628728	2.961460	-0.136038	0.553527	-1.533619	74.778123	23.602194	-65.037008
60080		-4.177244	9.761996	2.619023	-0.192886	0.577519	-1.675831	74.697830	24.616517	-64.964749
60081		-4.272681	9.614410	2.710205	-0.107714	0.556377	-1.775029	74.654804	25.683254	-64.922698
60082		-4.049769	9.660967	2.814281	-0.135425	0.585391	-1.894580	74.595215	26.819750	-64.883590
60083		-4.391531	9.246551	2.763330	-0.136987	0.635846	-1.990403	74.541979	28.017549	-64.830501
60084		-4.438311	8.984984	2.614710	-0.071942	0.673466	-2.088672	74.530033	29.274733	-64.770914
60085		-4.777061	8.947293	2.687287	0.035007	0.761036	-2.182272	74.600954	30.597522	-64.670581
60086		-4.682775	8.582508	2.438074	0.261509	0.816584	-2.290030	74.815170	31.987456	-64.548014
60087		-6.622307	9.058074	2.098744	0.340877	0.952637	-2.384434	75.121923	33.449869	-64.343305
60088		-5.777383	11.509539	3.975150	0.508648	0.649114	-2.329462	75.427600	34.836158	-64.319217
60089		-5.190090	9.357261	2.904911	-0.044423	0.903333	-2.345010	75.519696	36.267953	-64.118352
60090		-5.843945	7.838623	1.771820	0.327326	0.819183	-2.386139	75.795003	37.709680	-63.973688
60091		-6.126523	8.736384	2.064356	0.305252	0.855205	-2.404356	76.081785	39.166289	-63.794922
60092		-6.316612	8.010296	1.621980	0.380708	0.849817	-2.406275	76.421697	40.622117	-63.606182
60093		-6.748509	7.129147	1.132296	0.472308	0.844342	-2.403102	76.826481	42.074736	-63.404252
60094		-6.734278	6.620072	0.675343	0.726233	0.785564	-2.368633	77.368472	43.499023	-63.220011
60095		-6.998762	5.147274	-0.290902	0.939373	0.753043	-2.394687	78.032883	44.932719	-63.040247
60096		-7.769154	5.136501	-0.457533	1.381435	0.669176	-2.425978	78.925000	46.372199	-62.900612
60097		-10.514615	4.586734	-0.689321	1.540469	0.663213	-2.549652	79.921800	47.879393	-62.746117
60098		-12.912184	3.764547	-0.387214	1.802012	0.491830	-2.820029	80.965551	49.520440	-62.732148
60099		-13.314243	4.291633	1.011270	1.707204	0.318937	-3.102823	81.841750	51.307554	-62.865871
60100		-13.481063	3.941692	1.149008	1.649934	0.112892	-3.271205	82.541328	53.174174	-63.177693
60101		-13.993673	5.159013	1.625176	1.526746	-0.115211	-3.275967	83.000040	55.030530	-63.692666
60102		-12.960489	7.674169	1.961582	1.320505	-0.388341	-2.985351	83.126231	56.702606	-64.455106
60103		-11.638597	8.177746	2.195047	1.061673	-0.550624	-2.496137	82.974789	58.086998	-65.358215
60104		-10.420107	8.776359	2.529205	0.810686	-0.664524	-1.898805	82.596582	59.119506	-66.346263
60105		-9.943266	9.045534	2.902737	0.458762	-0.732732	-1.278113	81.987860	59.791573	-67.359385
60106		-9.934670	8.477239	2.794042	0.054911	-0.738245	-0.772607	81.183046	60.168554	-68.326034
60107		-10.074152	7.206408	2.440317	-0.264049	-0.728042	-0.437183	80.239811	60.350742	-69.239110
60108		-10.218594	5.986930	1.923208	-0.524074	-0.690760	-0.294442	79.200999	60.447058	-70.089318
60109		-10.365887	4.573097	1.480054	-0.683455	-0.631346	-0.338188	78.113953	60.568062	-70.889233
60110		-10.531519	3.743307	1.005385	-0.751344	-0.545539	-0.534766	77.022269	60.800919	-71.648344
60111		-10.482614	3.166402	0.691479	-0.754359	-0.435954	-0.834931	75.948829	61.209966	-72.382372
60112		-10.320271	3.022644	0.494136	-0.720906	-0.312168	-1.165785	74.906914	61.812344	-73.098668
60113		-9.937040	3.242214	0.395373	-0.647394	-0.176078	-1.472308	73.920161	62.600293	-73.795734
60114		-9.572576	3.693285	0.406382	-0.591641	-0.045165	-1.707478	72.983551	63.531620	-74.466833
60115		-9.195584	4.241706	0.410212	-0.519690	0.085565	-1.853364	72.126211	64.562006	-75.090114
60116		-8.890368	4.831439	0.573455	-0.454021	0.212019	-1.890777	71.383495	65.629796	-75.622917
60117		-8.705018	5.404342	0.818805	-0.423361	0.329216	-1.832519	70.772580	66.686752	-76.026577
60118		-8.536904	5.792339	1.178690	-0.425463	0.426588	-1.695506	70.306583	67.685003	-76.268415
60119		-8.515828	6.075883	1.593176	-0.473027	0.498838	-1.515374	69.968616	68.601047	-76.341482
60120		-8.538310	6.257114	2.026906	-0.581651	0.545686	-1.327123	69.716566	69.423455	-76.255254
60121		-8.693819	6.311513	2.279039	-0.726385	0.564744	-1.139038	69.504879	70.149920	-76.038237
60122		-8.917031	6.207478	2.392040	-0.882422	0.562778	-0.975399	69.294861	70.787352	-75.725368
60123		-9.220915	5.924181	2.402158	-1.026741	0.536046	-0.828186	69.049654	71.341678	-75.363528
60124		-9.480754	5.631373	2.240586	-1.118468	0.494472	-0.699392	68.768419	71.818353	-74.985255
60125		-9.810659	5.337408	2.154724	-1.178852	0.438346	-0.594503	68.428527	72.228412	-74.633312
60126		-10.150367	5.117833	2.098945	-1.210147	0.366828	-0.529247	67.994471	72.588837	-74.362026
60127		-10.446388	4.848539	2.126395	-1.221564	0.293506	-0.506612	67.439057	72.922192	-74.211517
60128		-10.623799	4.741916	2.254725	-1.229547	0.198806	-0.511632	66.702638	73.237376	-74.245641
60129		-10.720080	4.501522	2.225117	-1.258246	0.106302	-0.550796	65.739444	73.551485	-74.499211
60130		-10.836549	4.261516	2.193364	-1.252335	0.005513	-0.612465	64.525132	73.872000	-75.017493
60131		-10.887653	4.027573	2.144881	-1.227980	-0.083178	-0.705483	63.044738	74.214127	-75.826166
60132		-10.800954	3.827209	2.038674	-1.187545	-0.162156	-0.812599	61.289772	74.583258	-76.942545
60133		-10.654609	3.669553	1.869226	-1.116711	-0.231891	-0.905649	59.277629	74.968414	-78.365478
60134		-10.488133	3.662920	1.824690	-1.045687	-0.284001	-0.983258	57.032141	75.361885	-80.069309
60135		-10.273416	3.914382	1.807035	-0.940585	-0.331590	-1.030218	54.592455	75.743579	-82.032835
60136		-10.046869	4.339850	1.936228	-0.863728	-0.368231	-1.021622	52.026631	76.087605	-84.168666
60137		-9.692859	4.702232	2.011903	-0.804427	-0.396901	-0.932851	49.465136	76.357471	-86.332159
60138		-9.304083	4.972162	2.152903	-0.775271	-0.410513	-0.798251	47.026075	76.542642	-88.384848
60139		-9.158102	5.394560	2.428691	-0.799882	-0.412450	-0.642597	44.778607	76.642091	-90.224805
60140		-8.973695	5.492053	2.546554	-0.902879	-0.403035	-0.488431	42.732718	76.669348	-91.796519
60141		-8.435080	5.336592	2.357990	-0.987243	-0.381933	-0.326187	40.964099	76.630077	-93.033532
60142		-7.973726	5.366191	2.305990	-1.060616	-0.340333	-0.150351	39.549308	76.537383	-93.864005
60143		-7.471560	5.406254	2.225407	-1.110768	-0.309922	0.075003	38.587074	76.371101	-94.199740
60144		-7.260412	5.262881	2.063952	-1.164660	-0.281136	0.351351	38.152897	76.120275	-93.960462
60145		-6.954479	4.859840	1.847569	-1.135017	-0.296354	0.633666	38.224329	75.760646	-93.216988
60146		-6.620669	4.454532	1.715134	-1.101017	-0.303101	0.854825	38.659480	75.320526	-92.116867
60147		-6.122900	3.989346	1.470887	-1.028236	-0.332433	1.020962	39.327454	74.802373	-90.816316
60148		-5.955931	3.535406	1.383473	-0.921351	-0.378798	1.150842	40.126139	74.214426	-89.440475
60149		-5.748508	3.434299	1.250047	-0.786482	-0.452423	1.249617	40.977454	73.549707	-88.085780
60150		-5.321571	3.228281	1.041196	-0.584934	-0.556482	1.350734	41.861566	72.799045	-86.812760
60151		-4.636456	3.285814	0.927785	-0.342043	-0.687229	1.502491	42.835131	71.925671	-85.586041
60152		-4.336874	3.464023	0.982773	-0.114983	-0.834591	1.667600	43.858128	70.922541	-84.438110
60153		-3.918984	3.604661	1.090700	0.040495	-0.955636	1.784642	44.860463	69.813534	-83.399083
60154		-3.568657	3.891058	1.188088	0.128936	-1.024340	1.855691	45.802954	68.645278	-82.470901
60155		-3.203142	3.933684	1.094891	0.121597	-1.027432	1.903834	46.692094	67.447402	-81.587928
60156		-2.586539	4.165871	0.923009	0.114508	-0.986323	1.960956	47.575059	66.239989	-80.699777
60157		-1.981400	4.333584	0.439680	0.118146	-0.902675	2.080294	48.554606	65.004559	-79.699286
60158		-1.430745	4.334051	0.063937	0.199832	-0.811107	2.273369	49.711525	63.715991	-78.543878
60159		-0.986807	4.590559	-0.043483	0.350838	-0.714993	2.502211	51.091421	62.346739	-77.221876
60160		-0.665577	4.861862	0.303802	0.410107	-0.596114	2.691576	52.593004	60.923631	-75.783400
60161		-0.846914	4.698162	0.611972	0.346711	-0.466139	2.770997	54.076686	59.486772	-74.303423
60162		-1.420438	4.250518	0.695692	0.282105	-0.391063	2.765472	55.444094	58.063931	-72.894362
60163		-1.767147	4.247159	0.570360	0.332471	-0.381446	2.739517	56.721703	56.635248	-71.604028
60164		-2.008081	4.640211	0.891300	0.488626	-0.456579	2.772372	57.942320	55.157509	-70.468990
60165		-2.306897	5.586968	1.562622	0.637233	-0.620392	2.850098	59.077716	53.574897	-69.522129
60166		-2.481810	6.174567	2.029504	0.703296	-0.837225	2.945732	60.060268	51.877371	-68.794782
60167		-2.537779	6.467118	2.103346	0.714091	-1.036431	3.015773	60.885691	50.076425	-68.259956
60168		-2.472913	6.505649	1.819002	0.739945	-1.184297	3.056123	61.595920	48.215668	-67.882517
60169		-2.544186	6.674154	1.652390	0.790535	-1.280885	3.100549	62.255916	46.297675	-67.601808
60170		-2.968492	6.735472	1.826658	0.894399	-1.379452	3.127301	62.893581	44.343984	-67.426806
60171		-3.301689	7.123513	2.176729	0.973993	-1.496263	3.140329	63.498410	42.345999	-67.360264
60172		-3.609673	7.484338	2.402624	1.046946	-1.609544	3.139394	64.069643	40.325696	-67.404761
60173		-3.849372	7.733602	2.536520	1.100782	-1.707424	3.121772	64.615723	38.284150	-67.540468
60174		-3.732506	8.058983	2.542039	1.139968	-1.754870	3.088111	65.147903	36.256117	-67.741486
60175		-3.451177	8.170775	2.376488	1.142545	-1.713803	3.039220	65.686780	34.258258	-67.944844
60176		-3.601165	8.018805	2.318978	1.126948	-1.593530	2.959023	66.238708	32.338806	-68.117012
60177		-4.122530	7.934345	2.553864	1.162366	-1.486721	2.832132	66.825631	30.505120	-68.272394
60178		-4.543646	8.490769	2.937668	1.192302	-1.391744	2.702896	67.433586	28.769144	-68.425954
60179		-4.805239	9.318202	3.329302	1.263954	-1.352939	2.629782	68.083354	27.075092	-68.589611
60180		-4.706761	10.239473	3.575410	1.275425	-1.285240	2.626803	68.749941	25.405541	-68.736469
60181		-4.745831	10.549281	3.594094	1.243732	-1.146240	2.654457	69.433809	23.744443	-68.811471
60182		-5.316906	10.066081	3.632188	1.199607	-0.975714	2.630585	70.120123	22.137759	-68.815993
60183		-6.448688	9.538024	4.083383	1.174681	-0.824375	2.527442	70.812042	20.609160	-68.771431
60184		-7.845433	9.214235	4.958458	1.198739	-0.813594	2.383020	71.499350	19.167285	-68.772206
60185		-8.299764	9.406561	5.573554	1.195034	-0.925273	2.243985	72.153163	17.774869	-68.878143
60186		-7.991252	9.639134	5.700435	1.073684	-0.996421	2.112818	72.713818	16.449345	-69.065926
60187		-7.731029	8.848576	5.411774	0.858659	-0.942552	1.946879	73.155327	15.219576	-69.260352
60188		-7.642754	8.033230	4.991511	0.705580	-0.841205	1.710534	73.512841	14.143346	-69.447658
60189		-7.110387	7.906418	4.384195	0.557540	-0.677057	1.444134	73.801146	13.235890	-69.589581
60190		-6.327143	8.333344	3.676156	0.478116	-0.456080	1.271239	74.064382	12.464549	-69.640915
60191		-6.526641	8.173841	3.448744	0.439173	-0.181762	1.220530	74.337986	11.759552	-69.547352
60192		-7.328026	7.912457	3.626305	0.504480	0.036275	1.151739	74.667390	11.130100	-69.347551
60193		-8.346549	7.649434	4.213131	0.444333	0.228629	1.019199	74.978017	10.597655	-69.062041
60194		-9.374735	7.268581	4.749518	0.455643	0.273810	0.892907	75.291470	10.144332	-68.774981
60195		-10.152982	7.051781	5.233855	0.404471	0.229836	0.760871	75.566924	9.753228	-68.533446
60196		-10.465397	6.601078	5.391750	0.268306	0.135407	0.589919	75.748150	9.445893	-68.372805
60197		-10.280006	5.866423	4.902580	0.094837	0.060454	0.384039	75.818594	9.239826	-68.283613
60198		-9.571577	5.020583	4.001401	-0.080725	0.065476	0.143895	75.782141	9.170013	-68.226787
60199		-8.628949	3.998712	2.767926	-0.218879	0.150740	-0.093448	75.669491	9.242948	-68.155320
60200		-17.137772	1.209041	-0.379958	-0.286437	0.800284	-0.775403	75.561948	9.788114	-67.817386
60201		-22.445251	17.806240	14.191050	-0.123355	1.772383	-3.324017	75.589986	11.886743	-67.299280
60202		-13.640220	24.277423	10.396778	0.423287	0.606534	-2.188646	75.839201	13.188630	-67.271780
60203		-9.514348	16.871950	3.955280	-1.398253	-0.462443	0.521699	74.996633	12.835300	-67.458603
60204		-0.301503	-3.817759	3.612975	-0.342038	-0.133366	0.537571	74.802706	12.518927	-67.452503
60205		-0.078298	15.091451	1.439422	2.307195	-0.642901	0.386474	76.058880	12.214970	-67.761522
60206		-0.615256	8.876064	1.793121	-1.623158	0.489525	0.123800	75.192111	12.216799	-67.466030
60207		-2.150430	4.966354	2.466706	0.689064	-0.145676	-0.219641	75.562818	12.320236	-67.582120
60208		-1.464948	12.483270	2.202415	0.073577	0.144221	-0.323344	75.613043	12.521145	-67.547900
60209		-3.314233	8.225941	2.720812	-0.208600	0.099237	-0.170365	75.500740	12.632564	-67.517356
60210		-2.012651	9.932821	2.220406	0.307503	-0.061146	-0.123433	75.665942	12.693246	-67.570694
60211		-2.334528	9.475557	2.325651	-0.139780	0.045998	-0.114623	75.588285	12.766170	-67.562175
60212		-2.087805	8.848146	2.443435	0.063476	-0.024383	-0.088583	75.619312	12.812767	-67.589505
60213		-2.092736	8.682531	2.525891	0.081936	0.024118	-0.135089	75.665275	12.893937	-67.596402
60214		-2.304126	9.170858	2.400899	0.254248	-0.027734	-0.148288	75.803198	12.973275	-67.634198
60215		-2.293651	9.674859	2.211899	0.176782	-0.018535	-0.124978	75.898382	13.042873	-67.663681
60216		-2.361205	9.472227	2.341318	0.094679	-0.014099	-0.072914	75.949048	13.082343	-67.682666
60217		-2.278120	9.312967	2.298924	0.103295	-0.022002	-0.046578	76.004215	13.107935	-67.702799
60218		-2.226658	9.375370	2.232814	0.096652	-0.017859	-0.054210	76.056123	13.136520	-67.721202
60219		-2.196599	9.318510	2.272161	0.043100	-0.016307	-0.055899	76.077238	13.168102	-67.739363
60220		-2.243034	9.179049	2.308869	0.038411	-0.009431	-0.064073	76.096542	13.203350	-67.754323
60221		-2.220022	9.285712	2.260344	0.050050	-0.016764	-0.067594	76.121184	13.241375	-67.774376
60222		-2.225935	9.284983	2.257520	0.017413	-0.011013	-0.066506	76.128156	13.277769	-67.790565
60223		-2.186769	9.225711	2.280466	-0.000450	-0.012941	-0.072259	76.124196	13.318906	-67.809080
60224		-2.226381	9.182381	2.267611	-0.013522	-0.001798	-0.080507	76.114178	13.364353	-67.821988
60225		-2.373518	9.442143	2.247382	-0.023771	0.000715	-0.057309	76.099122	13.399032	-67.830598
60226		-2.319428	9.282995	2.284291	-0.056838	0.004451	-0.028669	76.066795	13.416503	-67.832622
60227		-2.345838	9.217517	2.279278	-0.029017	-0.002590	-0.015096	76.049680	13.427240	-67.837154
60228		-2.211534	9.163082	2.293557	-0.027053	-0.010754	-0.023670	76.032560	13.439830	-67.847174
60229		-2.228819	9.108275	2.317509	-0.003436	-0.009797	-0.049913	76.027989	13.468917	-67.860780
60230		-2.233227	9.259759	2.286151	-0.003701	-0.016312	-0.080037	76.021625	13.512075	-67.882005
60231		-2.311398	9.382514	2.250896	-0.037111	-0.012839	-0.088678	75.996035	13.562274	-67.902887
60232		-2.281036	9.212475	2.280451	-0.080003	-0.022870	-0.087990	75.944760	13.608921	-67.929049
60233		-2.269781	9.065030	2.328974	-0.073499	-0.020825	-0.106069	75.896607	13.667629	-67.957070
60234		-2.372452	9.286570	2.310268	-0.043515	-0.021354	-0.081890	75.866584	13.711059	-67.981574
