// General information: 
//  MT Manager version: 2022.2.0 
//  XDA version: 2022.2.0 build 7381 rev 124627 built on 2023-07-19
// Device information: 
//  DeviceId: 00B4BA83
//  ProductCode: MTW2-3A7G6
//  Firmware Version: 4.6.0
//  Hardware Version: 2.0.0
// Device settings: 
//  Filter Profile: human(46.1)
//  Option Flags: Orientation Smoother Disabled, Position/Velocity Smoother Disabled, Continuous Zero Rotation Update Disabled, AHS Disabled, ICC Disabled
// Coordinate system: ENU
PacketCounter	SampleTimeFine	Acc_X	Acc_Y	Acc_Z	Gyr_X	Gyr_Y	Gyr_Z	Roll	Pitch	Yaw
07932		9.677145	-0.024219	-1.380045	-0.295401	-0.177237	0.124348	176.693553	-80.569628	-90.779057
07933		9.730339	-0.127560	-1.413893	-0.256165	-0.173151	0.115161	176.987430	-80.472755	-91.223999
07934		9.735910	-0.221664	-1.583314	-0.234531	-0.195626	0.113239	177.280254	-80.362231	-91.655523
07935		9.702855	-0.397919	-1.628745	-0.175222	-0.240287	0.114003	177.610202	-80.226133	-92.090306
07936		9.686399	-0.509611	-1.539244	-0.128006	-0.313080	0.114451	177.963602	-80.047587	-92.521719
07937		9.694366	-0.739345	-1.780654	-0.071380	-0.351660	0.107398	178.318942	-79.846707	-92.922325
07938		9.688735	-1.014778	-1.687240	0.018413	-0.338734	0.092389	178.660331	-79.652250	-93.256783
07939		9.779253	-1.402857	-1.920579	0.121730	-0.310701	0.080463	179.011884	-79.473686	-93.541517
07940		9.721002	-1.492500	-2.080180	0.225401	-0.257098	0.083698	179.418179	-79.325193	-93.821697
07941		9.698195	-1.581767	-2.049961	0.283034	-0.230199	0.107912	179.921812	-79.192111	-94.167439
07942		9.644834	-1.485468	-1.792327	0.313638	-0.168554	0.136808	-179.481190	-79.093330	-94.590510
07943		9.535654	-1.211192	-1.732334	0.309841	-0.092121	0.153328	-178.841790	-79.037685	-95.059110
07944		9.334695	-0.764675	-2.054009	0.330676	0.005102	0.156947	-178.176987	-79.036331	-95.541419
07945		9.101711	-0.242798	-2.214126	0.375627	0.069784	0.117552	-177.595120	-79.072180	-95.913046
07946		8.967237	0.226823	-2.204829	0.378248	0.058382	0.043477	-177.230544	-79.102471	-96.061741
07947		9.002635	0.537188	-2.248855	0.299069	-0.009025	-0.064081	-177.239982	-79.097434	-95.875812
07948		9.251419	0.664634	-2.185137	0.187232	-0.070416	-0.178607	-177.661093	-79.059639	-95.335797
07949		9.540965	0.811033	-2.092003	0.033426	-0.098430	-0.257781	-178.402684	-79.006730	-94.559087
07950		9.731285	0.752517	-1.974268	-0.060957	-0.038754	-0.282771	-179.262443	-78.985809	-93.716946
07951		9.715856	0.444955	-1.789507	-0.068742	-0.001296	-0.277957	179.891180	-78.984375	-92.892994
07952		9.821980	0.153389	-1.633858	-0.034720	0.008405	-0.260392	179.115156	-78.985928	-92.120824
07953		10.033798	-0.245507	-1.636442	-0.013352	0.137447	-0.235674	178.414182	-79.060236	-91.412764
07954		9.875064	-0.704175	-1.794071	0.053592	0.302704	-0.205335	177.812921	-79.227811	-90.767436
07955		9.398247	-0.808491	-1.675050	0.186347	0.356477	-0.180141	177.338579	-79.426035	-90.174282
07956		9.224744	-0.664978	-1.604097	0.312071	0.251601	-0.166463	176.976980	-79.563433	-89.622798
07957		9.382539	-0.212681	-1.691789	0.454227	0.126166	-0.157540	176.737015	-79.629212	-89.112407
07958		9.488837	0.239754	-1.924663	0.567548	0.075434	-0.139909	176.622771	-79.665890	-88.663834
07959		9.557667	0.521375	-2.033087	0.636911	0.030366	-0.123975	176.605334	-79.677619	-88.273365
07960		9.774390	0.767769	-1.872053	0.642053	-0.051293	-0.100670	176.679338	-79.643056	-87.972762
07961		10.168449	1.084696	-1.641943	0.518852	-0.096441	-0.060388	176.817541	-79.584477	-87.809222
07962		10.505808	1.221256	-1.670046	0.307217	-0.045105	-0.006462	176.992813	-79.556622	-87.806609
07963		10.328111	1.160055	-1.718182	0.092896	0.058751	0.049488	177.202871	-79.590215	-87.964263
07964		9.954936	0.964507	-1.688076	-0.067164	0.126451	0.119349	177.530595	-79.663881	-88.334726
07965		9.543439	0.848373	-1.502270	-0.197511	0.109387	0.168634	177.947131	-79.728837	-88.871297
07966		9.332414	0.763403	-1.472327	-0.363327	0.068154	0.196605	178.365333	-79.769642	-89.506049
07967		9.197231	0.733599	-1.606557	-0.518458	0.025972	0.201706	178.719063	-79.785950	-90.165519
07968		9.232549	0.757699	-1.828104	-0.633672	-0.031833	0.181610	178.945226	-79.767976	-90.762479
07969		9.354331	0.660168	-1.977433	-0.707939	-0.077661	0.160737	179.064990	-79.723562	-91.294579
07970		9.522305	0.534676	-2.059361	-0.716220	-0.077453	0.123579	179.058068	-79.678477	-91.702879
07971		9.694132	0.437047	-1.888687	-0.731273	-0.060490	0.091644	178.942189	-79.643217	-92.009180
07972		9.799115	0.246528	-1.581223	-0.747755	-0.025581	0.072717	178.752692	-79.627516	-92.250338
07973		9.838828	0.033586	-1.451028	-0.755696	0.014440	0.073012	178.559261	-79.635257	-92.492054
07974		9.751275	-0.150805	-1.517160	-0.712170	0.052466	0.084626	178.421890	-79.664745	-92.765463
07975		9.548587	-0.346708	-1.613766	-0.610145	0.061451	0.089218	178.359684	-79.699873	-93.055756
07976		9.481187	-0.511321	-1.729972	-0.504879	0.018781	0.082631	178.339039	-79.710183	-93.327045
07977		9.505707	-0.774289	-1.776671	-0.432596	-0.007370	0.074764	178.339822	-79.705702	-93.577941
07978		9.446520	-1.021616	-1.831149	-0.380333	-0.020599	0.065765	178.341167	-79.693187	-93.799035
07979		9.459490	-1.213551	-1.985120	-0.273784	-0.029996	0.061471	178.392553	-79.675509	-94.008898
07980		9.475019	-1.305506	-2.104355	-0.140172	-0.041987	0.039773	178.451443	-79.650270	-94.148600
07981		9.642179	-1.301279	-2.005014	0.006110	-0.047782	0.020854	178.536259	-79.621710	-94.229452
07982		9.815633	-1.213420	-1.991191	0.118103	-0.020692	-0.001403	178.612442	-79.607991	-94.236266
07983		9.805392	-1.144610	-2.090112	0.259943	0.024963	-0.022040	178.702692	-79.620482	-94.174791
07984		9.635323	-0.908268	-2.061686	0.422591	0.034783	-0.035709	178.842594	-79.638098	-94.069001
07985		9.542548	-0.542596	-1.939861	0.541282	0.016145	-0.039836	179.038950	-79.645403	-93.951529
07986		9.552693	-0.171779	-1.865208	0.599275	-0.003151	-0.046462	179.249050	-79.641301	-93.814157
07987		9.533873	0.119598	-1.819452	0.597364	-0.030513	-0.052001	179.441514	-79.621945	-93.660059
07988		9.614155	0.423975	-1.731043	0.524233	-0.066117	-0.064918	179.553117	-79.581823	-93.466276
07989		9.657426	0.576864	-1.767372	0.407092	-0.044305	-0.061031	179.609288	-79.554641	-93.284412
07990		9.604825	0.604278	-1.783412	0.307248	-0.024293	-0.054281	179.629176	-79.538598	-93.123707
07991		9.580290	0.652851	-1.713404	0.177592	-0.026954	-0.045781	179.601351	-79.521435	-92.990123
07992		9.632850	0.531861	-1.797151	0.072283	-0.036190	-0.046997	179.509803	-79.498587	-92.853016
07993		9.631202	0.461062	-1.768095	0.002851	-0.022400	-0.040598	179.398490	-79.483994	-92.736330
07994		9.628046	0.303423	-1.737859	-0.058251	-0.025559	-0.047267	179.231607	-79.467124	-92.598690
07995		9.703018	0.172391	-1.739587	-0.122437	-0.025327	-0.041099	179.047895	-79.450733	-92.481367
07996		9.526429	-0.014476	-1.785343	-0.155646	-0.013906	-0.040871	178.845114	-79.440457	-92.363960
07997		9.385619	-0.242870	-1.833790	-0.144118	-0.027364	-0.031832	178.678453	-79.422873	-92.276608
07998		9.351366	-0.413341	-1.799846	-0.100048	-0.052069	-0.028081	178.550371	-79.390783	-92.202739
07999		9.407897	-0.721929	-1.787061	-0.037598	-0.063563	-0.030076	178.453912	-79.352420	-92.124700
08000		9.470097	-0.936208	-1.834282	0.035640	-0.074923	-0.042635	178.362672	-79.306961	-92.009207
08001		9.494852	-1.015019	-1.788434	0.164977	-0.091724	-0.057755	178.302302	-79.251965	-91.849746
08002		9.476119	-0.722139	-1.845972	0.329492	-0.137514	-0.067200	178.313372	-79.170222	-91.666938
08003		9.557939	-0.331704	-1.859562	0.435982	-0.151213	-0.060027	178.408705	-79.081133	-91.507833
08004		9.594727	0.071525	-1.787978	0.460102	-0.150610	-0.043764	178.566819	-78.992342	-91.398415
08005		9.755306	0.253713	-1.834472	0.438550	-0.152664	-0.027446	178.759443	-78.903016	-91.336844
08006		9.906867	0.284391	-1.945884	0.406167	-0.111416	-0.010232	178.980602	-78.837207	-91.323144
08007		9.840120	0.261054	-1.851177	0.350691	-0.071698	-0.011417	179.163039	-78.794501	-91.302475
08008		9.809803	0.125646	-1.720909	0.222135	-0.052288	-0.018299	179.251170	-78.762528	-91.260656
08009		9.720893	-0.212673	-1.720202	0.122028	-0.051216	-0.022708	179.268741	-78.731486	-91.205467
08010		9.519936	-0.187383	-1.634935	0.093121	-0.065195	-0.009404	179.308996	-78.692212	-91.190187
08011		9.490907	0.024409	-1.795942	0.074444	-0.083102	-0.001671	179.360689	-78.643056	-91.197589
08012		9.536572	0.270408	-1.901466	0.120719	-0.094453	-0.012072	179.409909	-78.587029	-91.175326
08013		9.586509	0.390652	-1.968390	0.173844	-0.094676	-0.063265	179.344291	-78.530858	-91.004935
08014		9.604995	0.232917	-1.769006	0.251831	-0.078918	-0.124802	179.151160	-78.482873	-90.658701
08015		9.622374	0.090531	-1.476777	0.315644	-0.063646	-0.175704	178.852945	-78.443135	-90.167939
08016		9.719172	-0.007428	-1.185656	0.313138	-0.058374	-0.190524	178.514577	-78.405409	-89.637509
08017		9.813241	-0.214817	-1.260936	0.316388	-0.038652	-0.157523	178.270619	-78.379236	-89.201576
08018		9.828455	-0.320978	-1.398806	0.380557	0.004607	-0.110718	178.191322	-78.378217	-88.896122
08019		9.750993	-0.224001	-1.554263	0.379948	0.025498	-0.056547	178.260244	-78.390318	-88.742420
08020		9.652493	-0.004247	-1.733844	0.320634	0.007453	-0.026443	178.381123	-78.392492	-88.676395
08021		9.620444	0.300284	-1.808068	0.235826	-0.009100	-0.003719	178.517505	-78.385717	-88.675865
08022		9.596422	0.508286	-1.780212	0.141058	-0.032169	0.019063	178.665023	-78.365923	-88.742088
08023		9.576817	0.734747	-1.781612	0.045787	-0.017481	0.036709	178.805294	-78.354859	-88.856699
08024		9.586197	0.811010	-1.687221	-0.105084	0.004858	0.056338	178.912533	-78.356646	-89.025793
08025		9.588374	0.708285	-1.769777	-0.295703	0.022914	0.073968	178.958531	-78.369038	-89.243918
08026		9.572253	0.517565	-1.766315	-0.451937	0.041756	0.081230	178.934571	-78.392199	-89.481971
08027		9.613247	0.361457	-1.627151	-0.527919	0.055173	0.089511	178.890043	-78.423258	-89.743470
08028		9.647936	0.243422	-1.525595	-0.551333	0.070691	0.088760	178.829526	-78.463176	-90.002324
08029		9.674939	0.222495	-1.526173	-0.548188	0.101037	0.084333	178.757705	-78.520553	-90.247743
08030		9.660477	0.170324	-1.679483	-0.539774	0.124299	0.077869	178.671591	-78.591209	-90.473621
08031		9.635626	0.287796	-1.908445	-0.533831	0.127780	0.071840	178.572681	-78.663880	-90.682900
08032		9.603544	0.309319	-2.015530	-0.534357	0.122281	0.068275	178.463890	-78.733402	-90.882385
08033		9.500854	0.280468	-2.022755	-0.536461	0.098986	0.070989	178.364500	-78.789717	-91.092613
08034		9.529211	0.203953	-1.959866	-0.519930	0.066534	0.058448	178.240863	-78.827286	-91.268463
08035		9.546636	0.147769	-1.908010	-0.507289	0.062516	0.053303	178.110590	-78.862563	-91.430117
08036		9.582555	0.023566	-1.903463	-0.491419	0.066173	0.042513	177.957099	-78.899768	-91.558854
08037		9.544663	-0.072810	-1.741748	-0.484902	0.039235	0.040123	177.803699	-78.921597	-91.683834
08038		9.614800	-0.102041	-1.840245	-0.492875	0.007174	0.039148	177.645893	-78.925086	-91.809005
08039		9.668589	-0.142606	-1.952935	-0.535877	0.016137	0.032457	177.443313	-78.933644	-91.913625
08040		9.565379	-0.184764	-2.096359	-0.592513	0.016073	0.038484	177.225399	-78.942375	-92.035708
08041		9.438287	-0.254823	-2.135849	-0.596523	0.000288	0.049977	177.041506	-78.942510	-92.194768
08042		9.422474	-0.323248	-2.089582	-0.554460	-0.017956	0.053985	176.895883	-78.932370	-92.368279
08043		9.431636	-0.412944	-2.057298	-0.526308	-0.036800	0.043714	176.739642	-78.911256	-92.514534
08044		9.411239	-0.492061	-1.957030	-0.459485	-0.057722	0.036509	176.604056	-78.877944	-92.642826
08045		9.407845	-0.547925	-1.813608	-0.385680	-0.078312	0.025851	176.483443	-78.832607	-92.743304
08046		9.480354	-0.665885	-1.708174	-0.316996	-0.107861	0.016568	176.380837	-78.770016	-92.822012
08047		9.523290	-0.736107	-1.749528	-0.227026	-0.097581	0.005569	176.296204	-78.712989	-92.866530
08048		9.545582	-0.841043	-1.775593	-0.122407	-0.071086	-0.006285	176.233384	-78.670632	-92.872122
08049		9.475510	-0.758445	-1.863992	-0.027785	-0.057031	-0.013485	176.201236	-78.636086	-92.853752
08050		9.487607	-0.678512	-1.825193	0.058999	-0.064542	-0.018166	176.207965	-78.597033	-92.824242
08051		9.574811	-0.519864	-1.911031	0.158100	-0.082450	-0.022522	176.261570	-78.547616	-92.784697
08052		9.642814	-0.282805	-1.823682	0.218093	-0.077740	-0.031717	176.323948	-78.500532	-92.718927
08053		9.779160	-0.060418	-1.715261	0.196780	-0.070463	-0.044528	176.335751	-78.457175	-92.614089
08054		9.749818	0.103820	-1.706451	0.139905	-0.050805	-0.050500	176.296469	-78.424826	-92.490256
08055		9.706171	0.177982	-1.772518	0.077265	-0.037604	-0.044854	176.233748	-78.400219	-92.379221
08056		9.662659	0.252246	-1.837303	0.004786	-0.025281	-0.030650	176.168400	-78.383187	-92.307796
08057		9.562562	0.256573	-1.855366	-0.041247	-0.035898	-0.005387	176.147713	-78.361029	-92.308985
08058		9.622940	0.196530	-1.875368	-0.075205	-0.036643	0.004265	176.135742	-78.338843	-92.338852
08059		9.604607	0.096623	-1.895998	-0.115661	-0.037078	0.018751	176.139469	-78.316943	-92.408506
08060		9.598053	-0.012329	-1.876971	-0.146587	-0.032156	0.021858	176.134244	-78.298008	-92.487034
08061		9.448588	-0.033388	-1.811117	-0.165341	-0.043305	0.030458	176.142684	-78.272999	-92.590582
08062		9.515931	-0.049074	-1.794947	-0.172412	-0.061711	0.031802	176.155159	-78.237558	-92.702315
08063		9.517844	-0.039053	-1.859917	-0.144789	-0.064390	0.026111	176.166703	-78.200321	-92.797030
08064		9.500262	-0.037965	-1.755075	-0.106782	-0.056842	0.019665	176.182031	-78.167202	-92.873288
08065		9.466524	0.026718	-1.690691	-0.096899	-0.062479	0.012831	176.183856	-78.130543	-92.930059
08066		9.511358	-0.047383	-1.819066	-0.093607	-0.072972	-0.001828	176.150893	-78.087404	-92.949274
08067		9.514551	-0.100101	-1.824633	-0.062501	-0.063434	-0.003691	176.127650	-78.049571	-92.960297
08068		9.580278	-0.125908	-1.842124	-0.062931	-0.058199	-0.010166	176.087227	-78.014571	-92.953923
08069		9.656306	-0.109041	-2.002721	-0.065495	-0.040949	-0.009989	176.041337	-77.989346	-92.943551
08070		9.643660	-0.097672	-2.045484	-0.055491	-0.026151	-0.006480	176.009451	-77.972818	-92.941541
08071		9.558602	-0.003695	-1.985328	-0.046569	-0.028266	0.000293	175.999752	-77.955250	-92.957084
08072		9.550544	0.117163	-1.958022	-0.046531	-0.047149	0.008806	176.017914	-77.927332	-93.000995
08073		9.543821	0.248937	-1.899687	-0.065093	-0.062083	0.016542	176.047105	-77.891078	-93.067167
08074		9.556255	0.251255	-1.834012	-0.085194	-0.072760	0.008045	176.045422	-77.848492	-93.113455
08075		9.559944	0.287128	-1.742910	-0.122365	-0.067836	0.002009	176.003927	-77.808374	-93.140905
08076		9.655030	0.264006	-1.799954	-0.168876	-0.068555	0.000274	175.932884	-77.767912	-93.165307
08077		9.672325	0.201845	-1.948127	-0.210951	-0.051781	0.002344	175.838749	-77.736997	-93.190837
08078		9.615920	0.134604	-1.998904	-0.240884	-0.060536	0.021006	175.779662	-77.702015	-93.269711
08079		9.640856	0.127998	-1.893125	-0.276751	-0.059147	0.048718	175.770769	-77.668859	-93.421086
08080		9.608577	0.102474	-2.106576	-0.316845	-0.039732	0.087907	175.838519	-77.648580	-93.674372
08081		9.591187	0.010577	-2.098297	-0.344684	-0.057738	0.118378	175.971040	-77.619006	-94.010396
08082		9.721546	-0.126846	-1.922853	-0.405613	-0.094058	0.132684	176.112373	-77.569219	-94.391159
08083		9.657819	-0.465161	-2.001222	-0.432930	-0.079747	0.152846	176.284352	-77.528004	-94.819481
08084		9.459931	-0.750003	-2.055066	-0.335023	-0.078906	0.173105	176.564025	-77.487792	-95.300629
08085		9.320070	-0.727758	-2.103488	-0.163430	-0.076629	0.193837	176.990799	-77.448749	-95.831917
08086		9.353609	-0.554128	-2.192653	-0.011534	-0.080755	0.201156	177.522595	-77.406741	-96.381605
08087		9.492375	-0.288256	-2.318470	0.089060	-0.082534	0.201365	178.107074	-77.362402	-96.926427
08088		9.607214	-0.005904	-2.339389	0.139281	-0.066955	0.190385	178.689511	-77.325737	-97.439616
08089		9.632081	0.250916	-2.490410	0.137708	-0.043462	0.173055	179.220903	-77.301125	-97.901603
08090		9.609857	0.482213	-2.464178	0.101922	-0.021325	0.150081	179.673283	-77.288307	-98.303509
08091		9.522423	0.602644	-2.340534	0.030192	-0.015004	0.120623	-179.993095	-77.278353	-98.625959
08092		9.481754	0.600820	-2.339941	-0.062273	0.024314	0.102123	-179.757559	-77.290679	-98.902040
08093		9.485137	0.464822	-2.403706	-0.132888	0.035345	0.069233	-179.647298	-77.309159	-99.091287
08094		9.579131	0.284883	-2.493409	-0.242257	0.039838	0.048255	-179.651049	-77.330309	-99.227775
08095		9.554158	-0.049594	-2.651731	-0.346531	0.046715	0.041692	-179.732645	-77.355379	-99.345812
08096		9.389973	-0.359379	-2.700811	-0.365335	0.049090	0.050271	-179.801388	-77.381850	-99.487933
08097		9.335219	-0.555003	-2.723778	-0.309961	0.021300	0.061181	-179.812155	-77.392373	-99.657060
08098		9.381500	-0.748395	-2.703110	-0.212650	0.011158	0.059607	-179.769441	-77.397050	-99.823707
08099		9.316675	-0.856015	-2.575615	-0.115680	0.024579	0.068465	-179.649877	-77.409368	-100.012308
08100		9.283854	-0.948601	-2.635882	-0.001130	0.015433	0.074036	-179.448244	-77.416229	-100.217565
08101		9.241744	-0.948737	-2.635131	0.128470	-0.014414	0.078831	-179.162910	-77.405845	-100.432680
08102		9.472109	-0.817379	-2.604251	0.240188	-0.029421	0.069591	-178.836056	-77.386578	-100.624545
08103		9.738812	-0.650949	-2.605851	0.290256	-0.032005	0.042055	-178.554213	-77.366099	-100.741120
08104		10.032881	-0.492590	-2.587850	0.307117	-0.007795	0.008661	-178.344260	-77.359726	-100.773877
08105		9.999137	-0.251594	-2.534433	0.307424	0.034009	-0.013830	-178.191048	-77.377831	-100.748553
08106		9.788930	-0.028878	-2.460866	0.278973	0.055561	-0.029644	-178.090007	-77.408391	-100.686213
08107		9.608499	0.131991	-2.368925	0.219880	0.055647	-0.035729	-178.041115	-77.439330	-100.605401
08108		9.385721	0.162020	-2.285491	0.147381	0.072064	-0.046204	-178.056834	-77.479668	-100.500704
08109		9.192289	0.197210	-2.240694	0.067349	0.068118	-0.063822	-178.167436	-77.518264	-100.346066
08110		9.266791	0.075032	-2.126812	0.001993	0.019480	-0.086505	-178.376240	-77.529082	-100.128961
08111		9.404347	-0.017462	-2.119091	-0.047129	0.012518	-0.099293	-178.649699	-77.536125	-99.874728
08112		9.429893	-0.092938	-2.072708	-0.074437	0.021764	-0.109226	-178.961907	-77.548081	-99.596591
08113		9.429182	-0.298532	-2.145959	-0.086475	0.009444	-0.116112	-179.302375	-77.552915	-99.296838
08114		9.284387	-0.435260	-2.233832	-0.077902	-0.003574	-0.124167	-179.656726	-77.549725	-98.977583
08115		9.143088	-0.627260	-2.323444	-0.015655	-0.011019	-0.121282	-179.970330	-77.542076	-98.663782
08116		9.025991	-0.700419	-2.326706	0.036799	-0.018682	-0.120554	179.751239	-77.529459	-98.354933
08117		8.870006	-0.680241	-2.231127	0.072157	-0.022261	-0.121223	179.489253	-77.514700	-98.042440
08118		8.816798	-0.576909	-2.206925	0.120506	-0.055657	-0.122683	179.256060	-77.480262	-97.730731
08119		8.949748	-0.397649	-2.040087	0.161396	-0.086801	-0.131574	179.023328	-77.427874	-97.395744
08120		9.306627	-0.244890	-1.953642	0.182051	-0.102862	-0.144812	178.774999	-77.365588	-97.032250
08121		9.679241	-0.154539	-1.830253	0.191126	-0.098618	-0.160945	178.490389	-77.305387	-96.626479
08122		10.004868	-0.009307	-1.830136	0.186545	-0.071619	-0.169042	178.186921	-77.259843	-96.203654
08123		10.074615	-0.000382	-1.966639	0.154990	-0.050403	-0.176484	177.843937	-77.225988	-95.759111
08124		9.947165	0.027662	-2.095029	0.149369	-0.034609	-0.186571	177.475866	-77.200158	-95.291772
08125		9.805077	-0.022105	-2.177353	0.171455	-0.041163	-0.197626	177.091981	-77.169766	-94.795507
08126		9.743863	0.055229	-2.161470	0.147866	-0.033457	-0.207387	176.674336	-77.142559	-94.278099
08127		9.699231	0.146354	-2.131352	0.077673	-0.013989	-0.211244	176.202384	-77.125601	-93.746515
08128		9.573909	0.188497	-2.132136	-0.016124	0.000153	-0.207357	175.688341	-77.115735	-93.226535
08129		9.432107	0.219588	-2.053580	-0.104615	0.003576	-0.206876	175.121691	-77.106878	-92.704900
08130		9.423736	0.197262	-1.909875	-0.173595	-0.006923	-0.203647	174.530045	-77.090909	-92.197826
08131		9.537515	0.054873	-1.897466	-0.216392	-0.008304	-0.201634	173.917462	-77.073185	-91.694712
08132		9.674504	-0.205234	-1.938166	-0.200007	-0.002492	-0.202466	173.315283	-77.057449	-91.192294
08133		9.672533	-0.533065	-2.057779	-0.150045	0.007712	-0.194493	172.756414	-77.047002	-90.705228
08134		9.592683	-0.738317	-2.196490	-0.072374	0.002604	-0.189124	172.261243	-77.033009	-90.237510
08135		9.435766	-0.811948	-2.230416	0.027430	-0.012186	-0.181530	171.844817	-77.010427	-89.792210
08136		9.275468	-0.736301	-2.132966	0.117332	-0.017849	-0.180222	171.490402	-76.984050	-89.357286
08137		9.058580	-0.480890	-2.093041	0.147096	-0.014636	-0.186924	171.133294	-76.958322	-88.902405
08138		8.973025	-0.113986	-2.007628	0.137935	-0.017659	-0.185205	170.781978	-76.930407	-88.458422
08139		9.056959	0.162092	-1.956780	0.055915	-0.029893	-0.191113	170.372115	-76.894349	-88.002908
08140		9.320700	0.229839	-2.063472	-0.046164	-0.018198	-0.193418	169.899719	-76.863900	-87.542784
08141		9.498179	0.203344	-2.149320	-0.112194	-0.000344	-0.195682	169.374136	-76.842338	-87.067238
08142		9.642846	0.054804	-2.208489	-0.154703	0.005611	-0.204661	168.805611	-76.822169	-86.572165
08143		9.699646	-0.111961	-2.274019	-0.147808	0.012973	-0.227723	168.179774	-76.802266	-86.014527
08144		9.635197	-0.236227	-2.274155	-0.114866	0.009692	-0.248413	167.531293	-76.776689	-85.413781
08145		9.600517	-0.257207	-2.273872	-0.077513	0.008751	-0.270102	166.851585	-76.746160	-84.759311
08146		9.559484	-0.222927	-2.273299	-0.063599	0.004962	-0.286612	166.150703	-76.709609	-84.074371
08147		9.484721	-0.225025	-2.240573	-0.068540	0.005528	-0.300337	165.414009	-76.669359	-83.355864
08148		9.426259	-0.213317	-2.193998	-0.074197	0.020120	-0.313887	164.642359	-76.633141	-82.604191
08149		9.287229	-0.167509	-2.080815	-0.062616	0.026008	-0.338898	163.815273	-76.593707	-81.789052
08150		9.198639	-0.168234	-2.026712	-0.044282	0.025183	-0.367217	162.944141	-76.546569	-80.917203
08151		9.238759	-0.159494	-2.090525	-0.003334	0.014136	-0.396791	162.038935	-76.484965	-79.986470
08152		9.427388	-0.093345	-2.252190	0.030925	0.009750	-0.423107	161.111104	-76.412988	-79.011509
08153		9.572556	-0.029630	-2.445763	0.034558	0.029841	-0.448153	160.119031	-76.343030	-77.968517
08154		9.587839	0.016352	-2.462132	0.018303	0.036375	-0.475874	159.067219	-76.266962	-76.872770
08155		9.608951	-0.011312	-2.452954	-0.025541	0.036410	-0.493799	157.958705	-76.181962	-75.744661
08156		9.668995	-0.074027	-2.451502	-0.060734	0.020316	-0.511604	156.826146	-76.079631	-74.611538
08157		9.675706	-0.253941	-2.445807	-0.093629	0.024036	-0.516462	155.672845	-75.972368	-73.476513
08158		9.659080	-0.404496	-2.393463	-0.137304	0.043097	-0.515033	154.502036	-75.870225	-72.348114
08159		9.483864	-0.617129	-2.314189	-0.161940	0.080374	-0.506571	153.307928	-75.783322	-71.210379
08160		9.233870	-0.745332	-2.277652	-0.163492	0.101881	-0.508501	152.106793	-75.701557	-70.065232
08161		9.118357	-0.806284	-2.284703	-0.124745	0.104932	-0.512296	150.925138	-75.613922	-68.917500
08162		9.082484	-0.762251	-2.400012	-0.059966	0.108336	-0.535719	149.752371	-75.516123	-67.739429
08163		9.063707	-0.672205	-2.402045	0.037818	0.122236	-0.567125	148.570607	-75.409288	-66.494357
08164		9.296801	-0.617725	-2.467863	0.136183	0.106033	-0.611681	147.406689	-75.275393	-65.208014
08165		9.602314	-0.540649	-2.722764	0.240447	0.085362	-0.657750	146.260673	-75.109857	-63.878294
08166		9.800776	-0.596516	-2.805664	0.318467	0.061396	-0.693948	145.159521	-74.915499	-62.546778
08167		10.063725	-0.812045	-2.966384	0.322304	-0.030815	-0.721520	144.152190	-74.661732	-61.309660
08168		10.322311	-1.213990	-3.233884	0.282680	-0.108696	-0.725269	143.255858	-74.366342	-60.208703
08169		10.239011	-1.337363	-3.433372	0.246613	-0.119841	-0.710903	142.405971	-74.065399	-59.176832
08170		9.833303	-1.319539	-3.262724	0.206414	-0.129860	-0.689452	141.620915	-73.764631	-58.233767
08171		9.598283	-1.140878	-3.059292	0.202759	-0.150835	-0.656931	140.932310	-73.461679	-57.393060
08172		9.784376	-0.767204	-2.726504	0.268298	-0.175457	-0.616723	140.404567	-73.161166	-56.678543
08173		10.403578	-0.210809	-2.533963	0.316748	-0.163400	-0.566918	139.974832	-72.881264	-56.037609
08174		10.891862	0.300798	-2.471128	0.332678	-0.072773	-0.516869	139.540951	-72.659515	-55.380588
08175		10.913618	0.717741	-2.387157	0.294548	0.027296	-0.479994	139.022516	-72.491983	-54.658473
08176		10.554488	1.047971	-2.249567	0.251093	0.086378	-0.449393	138.469538	-72.360987	-53.924278
08177		10.084044	1.202526	-2.252325	0.217493	0.070221	-0.408572	137.972570	-72.235087	-53.269931
08178		9.799535	1.207078	-2.425183	0.214555	0.044393	-0.350309	137.597132	-72.120792	-52.743179
08179		9.645176	1.102203	-2.709675	0.215441	0.015239	-0.278182	137.348541	-72.019589	-52.350286
08180		9.521283	0.942035	-2.923027	0.224749	0.000215	-0.214552	137.216541	-71.938094	-52.072763
08181		9.537848	0.823576	-2.875767	0.219145	0.010129	-0.168161	137.122906	-71.876960	-51.840290
08182		9.557456	0.647368	-2.713641	0.195245	0.038520	-0.111806	137.062892	-71.851365	-51.656065
08183		9.489493	0.573853	-2.258515	0.175558	0.044038	-0.051695	137.054032	-71.849773	-51.539012
08184		9.615477	0.620603	-1.881796	0.121592	0.094233	0.033592	137.071877	-71.904330	-51.481079
08185		9.763175	0.919434	-1.799377	0.085338	0.187470	0.130419	137.073307	-72.033987	-51.429288
08186		9.865660	1.417662	-1.826265	0.093142	0.268940	0.244332	137.137308	-72.244167	-51.437054
08187		9.996107	1.991851	-1.511392	0.060193	0.289347	0.348974	137.288565	-72.501761	-51.557705
08188		10.061009	2.589228	-1.299299	-0.023604	0.314192	0.436331	137.492195	-72.805531	-51.781845
08189		9.954244	3.161232	-1.430893	-0.074533	0.332651	0.490081	137.716621	-73.135705	-52.059359
08190		9.758179	3.745206	-1.662629	-0.044383	0.309920	0.509924	138.035084	-73.465358	-52.415136
08191		9.588996	4.296169	-1.457328	-0.124168	0.281847	0.504097	138.340074	-73.778348	-52.805318
08192		9.555560	4.576507	-1.378067	-0.332093	0.302403	0.495722	138.507144	-74.098290	-53.174047
08193		9.417380	4.293660	-1.462392	-0.556780	0.348854	0.513358	138.510589	-74.442930	-53.507195
08194		9.171290	3.709663	-1.301353	-0.719693	0.379403	0.553337	138.456452	-74.817544	-53.875709
08195		9.051829	2.952373	-1.350925	-0.881577	0.404583	0.583189	138.320377	-75.212816	-54.255886
08196		8.921507	1.884099	-1.057144	-0.883005	0.556994	0.615422	138.026088	-75.687395	-54.471657
08197		8.579486	1.223257	-0.536852	-0.781595	0.667895	0.656614	137.678182	-76.223654	-54.572815
08198		8.407091	0.733188	-0.735685	-0.606944	0.644300	0.701989	137.551680	-76.769129	-54.797563
08199		8.453437	0.394629	-1.023523	-0.346091	0.578024	0.739618	137.757068	-77.299450	-55.209976
08200		8.396167	0.374405	-1.246961	-0.059985	0.541083	0.800357	138.352080	-77.838248	-55.851712
08201		8.491804	0.478510	-1.293059	0.105135	0.481314	0.871924	139.350100	-78.374693	-56.808234
08202		8.735545	0.635399	-1.337742	0.218437	0.452006	0.945141	140.739097	-78.922576	-58.094551
08203		8.902897	1.031498	-1.379886	0.262217	0.441943	1.016810	142.473482	-79.482838	-59.705409
08204		9.111646	1.335286	-1.377252	0.229192	0.403664	1.075548	144.615326	-80.036416	-61.745758
08205		9.311127	1.482469	-1.512701	0.173714	0.325585	1.125444	147.242861	-80.552057	-64.308625
08206		9.717269	1.541918	-1.617020	0.189038	0.249530	1.171777	150.469208	-81.022662	-67.464706
08207		10.128669	1.569055	-1.461697	0.218611	0.243260	1.204532	154.159777	-81.466432	-71.070196
08208		10.360598	1.527472	-1.274019	0.207996	0.289268	1.233234	158.280543	-81.903476	-75.111625
08209		10.459239	1.296436	-1.152737	0.173604	0.303430	1.261922	162.900476	-82.307183	-79.673469
08210		10.574158	0.950567	-1.118573	0.127037	0.290321	1.311939	168.212447	-82.655557	-84.955439
08211		10.399646	0.569060	-1.178896	0.072399	0.270926	1.368766	174.215280	-82.927869	-90.962379
08212		10.007667	-0.050774	-1.316585	0.026957	0.180933	1.447229	-179.020098	-83.064953	-97.759647
08213		9.907431	-0.556638	-1.311098	0.059782	0.032402	1.525839	-171.816175	-83.011815	-104.980631
08214		9.993863	-0.758235	-1.089873	0.124344	-0.040973	1.610026	-164.493721	-82.796548	-112.285121
08215		10.699252	-0.644330	-0.832091	0.173515	-0.161217	1.678110	-157.612149	-82.394208	-119.122333
08216		11.100969	-0.621370	-1.098193	0.169653	-0.146067	1.731071	-151.267133	-81.886701	-125.426682
08217		11.366357	-0.725141	-1.286773	0.245344	-0.077553	1.761326	-145.455638	-81.316501	-131.157099
08218		11.331552	-0.677289	-1.254905	0.310281	-0.030081	1.784470	-140.182695	-80.680417	-136.313104
08219		10.933733	-0.717694	-1.353953	0.294531	-0.051342	1.774795	-135.695238	-79.974442	-140.692132
08220		10.615390	-0.787159	-1.350950	0.243269	-0.135265	1.757001	-132.052872	-79.190568	-144.251184
08221		10.383033	-0.891679	-1.341000	0.148508	-0.243489	1.725321	-129.255301	-78.347063	-147.014712
08222		10.238599	-0.992860	-1.358854	0.062464	-0.336198	1.694690	-127.117067	-77.460428	-149.162303
08223		10.268892	-0.971425	-1.343282	0.004231	-0.420757	1.675244	-125.493228	-76.541671	-150.824472
08224		10.324408	-1.103292	-1.258504	-0.035635	-0.437408	1.669488	-124.135017	-75.608990	-152.242265
08225		10.341773	-1.272995	-1.103405	-0.040890	-0.419374	1.674297	-122.915626	-74.674110	-153.526189
08226		10.388177	-1.562563	-0.995389	-0.015795	-0.367245	1.690119	-121.718457	-73.739049	-154.777156
08227		10.360675	-2.041186	-1.064456	0.082864	-0.288924	1.711934	-120.456717	-72.811140	-156.043145
08228		10.297802	-2.399027	-1.424532	0.242893	-0.198298	1.737943	-119.070274	-71.886178	-157.349456
08229		10.213404	-2.723035	-1.950356	0.424698	-0.122886	1.749717	-117.595044	-70.967924	-158.647102
08230		10.016150	-3.029912	-2.068540	0.628037	-0.033776	1.739398	-116.010856	-70.065537	-159.943210
08231		9.542257	-3.029663	-1.831178	0.768099	0.002031	1.684593	-114.459630	-69.190570	-161.126531
08232		9.334392	-2.784490	-1.637868	0.779770	-0.066895	1.610750	-113.142667	-68.326607	-162.057541
08233		9.548288	-2.644081	-1.797562	0.741838	-0.147994	1.541396	-112.074227	-67.476407	-162.749998
08234		9.614188	-2.633813	-1.852762	0.811286	-0.109849	1.468470	-111.015579	-66.666695	-163.392155
08235		9.437916	-2.474279	-1.437553	0.953123	-0.049322	1.359787	-109.909492	-65.924594	-164.001771
08236		9.576630	-2.382510	-1.072467	1.100509	-0.140854	1.348115	-108.880918	-65.165319	-164.436443
08237		10.215105	-2.763838	-1.661925	1.466421	-0.077515	1.374844	-107.606740	-64.401044	-164.914141
08238		10.582189	-2.959430	-1.699266	1.646098	0.249537	1.364657	-105.917990	-63.689868	-165.740799
08239		9.659678	-3.169641	-0.709040	1.395936	0.545881	1.292415	-104.133036	-63.053563	-166.840797
08240		8.670345	-3.316973	0.226526	0.938092	0.491425	1.192553	-102.754599	-62.450887	-167.784170
08241		8.368880	-3.553092	0.106004	0.664259	0.245523	1.114490	-101.856580	-61.854842	-168.367334
08242		8.299086	-3.519816	-0.049660	0.596096	0.089018	1.054140	-101.199168	-61.269792	-168.724012
08243		8.195041	-3.460900	-0.124780	0.513471	0.017026	0.997352	-100.692381	-60.708492	-168.965059
08244		8.236148	-3.611712	-0.554253	0.524552	0.015538	0.957774	-100.200240	-60.167093	-169.182774
08245		8.129271	-3.618258	-0.768322	0.587079	0.106965	0.888205	-99.608820	-59.674229	-169.475450
08246		8.018117	-3.657557	-0.578651	0.560462	0.198841	0.791320	-98.972374	-59.241920	-169.839001
08247		7.732200	-3.635687	-0.315939	0.524585	0.279724	0.706754	-98.306426	-58.863589	-170.262950
08248		7.236312	-3.432715	0.017392	0.453344	0.279634	0.641122	-97.701068	-58.518979	-170.664898
08249		7.281158	-3.460367	-0.012653	0.399845	0.174249	0.573227	-97.242328	-58.204282	-170.932537
08250		7.795263	-3.503764	-0.249487	0.417592	0.152979	0.523712	-96.803997	-57.914118	-171.164546
08251		8.247118	-3.591685	-0.366477	0.417433	0.242621	0.466007	-96.297609	-57.662706	-171.478263
08252		8.242337	-3.772964	-0.331855	0.404302	0.322783	0.402842	-95.737928	-57.449607	-171.864400
08253		8.058089	-3.886676	-0.270915	0.394569	0.331843	0.340524	-95.187720	-57.271502	-172.247205
08254		8.929332	-5.211399	-3.083686	0.903874	0.674961	0.324652	-94.048064	-57.114398	-172.984418
08255		7.570566	-2.921989	1.131150	1.366964	1.073302	0.216427	-92.306706	-57.022738	-174.123845
08256		6.970232	-3.747910	1.335218	0.341854	0.535946	0.146271	-91.633809	-56.946844	-174.690238
08257		6.804228	-4.381057	1.044122	-0.152694	0.039739	0.050569	-91.685582	-56.916652	-174.730728
08258		6.906560	-4.654299	0.456273	-0.447779	-0.221797	-0.055606	-92.138352	-56.941595	-174.494056
08259		7.157767	-5.011626	-0.327794	-0.494943	-0.315592	-0.157717	-92.706305	-57.022328	-174.152787
08260		7.774856	-5.282300	-1.126104	0.040632	-0.045889	-0.222441	-92.732395	-57.145700	-174.091440
08261		7.636117	-4.516594	-0.084067	0.197442	0.178089	-0.298782	-92.473489	-57.319432	-174.262687
08262		7.570277	-4.351133	0.395391	0.105768	0.218967	-0.369582	-92.229843	-57.533485	-174.477393
08263		7.769700	-4.448067	0.337368	0.144821	0.189791	-0.441191	-91.990502	-57.788200	-174.660352
08264		7.919051	-4.483523	0.121335	0.227392	0.229388	-0.541757	-91.665822	-58.100014	-174.887226
08265		9.625349	4.185013	0.762248	0.008940	0.565520	0.031639	-91.140351	-58.087942	-175.498080
08266		7.427973	-7.143458	0.940378	-3.573638	0.937112	0.009004	-92.325265	-58.096738	-176.511854
08267		5.315364	-16.877062	-3.283498	0.712788	0.585508	-1.092076	-91.405324	-58.731150	-177.110250
08268		6.112169	-0.001615	2.815867	4.178860	-0.841407	-1.390382	-89.831385	-59.519713	-176.151933
08269		10.776544	-2.270810	-1.143953	0.209383	0.306620	-0.766844	-89.406224	-59.956070	-176.503209
08270		7.705167	-4.622671	0.939106	-0.306213	0.515414	-0.756474	-89.056400	-60.383011	-177.106312
08271		7.960012	-4.895573	0.636569	0.028706	-0.009254	-0.720423	-89.038220	-60.793995	-177.106255
08272		8.475095	-4.487652	0.705888	-0.175054	-0.118891	-0.740423	-89.249828	-61.216689	-176.976552
08273		8.381286	-5.151825	0.356325	-0.490320	-0.234382	-0.782304	-89.771554	-61.664215	-176.700373
08274		8.297585	-5.668017	0.042130	-0.480499	-0.262220	-0.761385	-90.328443	-62.097797	-176.378734
08275		8.433486	-5.936133	-0.260952	-0.431373	-0.167419	-0.715781	-90.766937	-62.505113	-176.160625
08276		8.319311	-6.083743	-0.281067	-0.430799	-0.113562	-0.696434	-91.152523	-62.900354	-176.002114
08277		8.316341	-6.045473	-0.152506	-0.320713	-0.005646	-0.682544	-91.360763	-63.289378	-175.972659
08278		8.163260	-6.343008	-0.392420	-0.020943	0.172322	-0.692445	-91.192431	-63.685452	-176.171817
08279		7.755932	-5.744986	0.540628	0.326243	0.178546	-0.712025	-90.812713	-64.093267	-176.384535
08280		7.672558	-5.282136	1.063995	0.308408	0.064111	-0.714980	-90.569893	-64.500436	-176.455540
08281		7.729939	-4.846098	1.094766	0.206804	-0.074393	-0.720037	-90.551615	-64.910689	-176.342729
08282		7.305242	-4.633083	1.050210	-0.081869	-0.288552	-0.772336	-90.967590	-65.347989	-175.933554
08283		7.570281	-4.324041	0.864323	-0.305281	-0.542616	-0.787308	-91.852665	-65.789422	-175.151600
08284		7.994729	-3.940961	0.476460	-0.576288	-0.719620	-0.793782	-93.152429	-66.222725	-174.087935
08285		8.691788	-3.480393	0.123397	-0.911978	-0.772658	-0.801504	-94.761732	-66.648379	-172.900362
08286		9.202872	-2.938131	-0.265468	-1.260871	-0.725474	-0.795785	-96.556038	-67.058017	-171.732273
08287		9.295731	-2.215768	-0.726056	-1.520308	-0.685067	-0.791889	-98.498499	-67.454389	-170.568639
08288		10.079779	-2.053186	-1.089830	-1.617144	-0.708860	-0.844644	-100.593669	-67.861218	-169.302851
08289		11.046816	-1.873011	-0.314620	-1.928475	-0.752975	-0.953869	-103.027349	-68.305773	-167.868708
08290		11.221463	-3.426288	-1.391741	-2.776313	-0.778089	-1.006028	-106.081643	-68.748706	-166.293716
08291		11.393395	-6.708839	-3.002791	-2.138865	-0.340648	-0.993136	-108.230453	-69.232624	-165.302748
08292		10.633369	-6.835146	-0.572612	-1.586280	-0.252072	-0.871501	-109.936675	-69.654215	-164.448892
08293		10.950109	-8.249952	-0.797799	-1.456596	-0.444027	-0.699239	-111.805392	-69.935654	-163.345043
08294		10.973304	-9.085995	-1.656128	-0.751318	-0.428160	-0.465844	-113.136553	-70.085226	-162.384252
08295		10.504582	-8.214510	-1.391037	0.068509	-0.335139	-0.222407	-113.724284	-70.123481	-161.715576
08296		10.346617	-6.506461	-0.814157	0.653933	-0.191747	-0.039910	-113.649464	-70.096657	-161.394212
08297		10.089902	-4.698613	-0.843255	1.000615	-0.006573	0.022046	-113.072019	-70.081255	-161.396714
08298		9.742427	-3.098887	-1.033821	1.072246	0.042448	-0.031934	-112.411443	-70.103800	-161.443336
08299		9.624467	-1.726662	-1.123895	0.942561	-0.003228	-0.202693	-111.998037	-70.208324	-161.306804
08300		9.473504	-0.955596	-1.314777	0.555402	-0.087019	-0.418456	-112.056472	-70.408237	-160.904235
08301		9.423256	-0.714040	-1.595745	0.159784	-0.178598	-0.614362	-112.612083	-70.692653	-160.216022
08302		9.629733	-0.741358	-1.708746	-0.135567	-0.231009	-0.720583	-113.502615	-71.017230	-159.353133
08303		9.843112	-1.147308	-1.805554	-0.322976	-0.223804	-0.747567	-114.543428	-71.353939	-158.447189
08304		9.802488	-1.680239	-1.860943	-0.316383	-0.207365	-0.707781	-115.556272	-71.667702	-157.567996
08305		9.786643	-2.053862	-1.784568	-0.211295	-0.215693	-0.628340	-116.495634	-71.934646	-156.704736
08306		9.785354	-2.216004	-1.691207	-0.073771	-0.191079	-0.529232	-117.258242	-72.152382	-155.945192
08307		9.546347	-2.116287	-1.670888	0.019106	-0.172635	-0.460786	-117.902729	-72.338239	-155.255108
08308		9.260818	-1.913044	-1.616536	0.063955	-0.175559	-0.426321	-118.506174	-72.502770	-154.581345
08309		8.956547	-1.673509	-1.521560	0.080680	-0.201801	-0.431534	-119.162630	-72.661237	-153.843027
08310		8.933220	-1.427421	-1.419302	0.054443	-0.220034	-0.475099	-119.912520	-72.832792	-153.022851
08311		8.940022	-1.381220	-1.305283	0.007099	-0.179491	-0.526365	-120.693030	-73.038906	-152.200281
08312		8.909126	-1.461760	-1.221559	-0.021474	-0.134771	-0.546149	-121.452637	-73.264035	-151.417203
08313		8.868691	-1.609931	-1.160351	-0.045927	-0.093843	-0.525267	-122.162700	-73.489067	-150.701772
08314		8.738340	-1.785676	-1.361104	-0.069423	-0.052914	-0.470061	-122.775757	-73.697053	-150.101929
08315		8.615080	-1.828006	-1.489676	-0.080087	-0.048027	-0.406852	-123.337472	-73.875023	-149.562878
08316		8.424023	-1.775987	-1.600060	-0.112954	-0.051799	-0.342786	-123.861005	-74.019260	-149.083236
08317		8.068062	-1.655901	-1.767416	-0.128162	-0.073786	-0.303655	-124.398409	-74.137154	-148.598900
08318		8.098727	-1.391527	-1.678145	-0.098262	-0.175264	-0.285613	-125.069883	-74.211512	-147.957291
08319		9.221598	-0.973608	-1.686002	-0.197200	-0.330896	-0.312726	-126.096830	-74.244505	-147.005724
08320		10.462405	-1.105240	-2.229642	-0.460761	-0.328504	-0.353027	-127.320661	-74.291311	-146.006359
08321		10.831217	-1.633505	-2.392147	-0.565897	-0.264211	-0.380302	-128.546568	-74.367697	-145.068030
08322		10.929653	-1.898819	-2.003051	-0.470004	-0.261167	-0.374371	-129.711381	-74.436884	-144.136122
08323		10.798483	-1.851811	-1.669757	-0.336193	-0.240336	-0.311409	-130.694578	-74.481854	-143.313701
08324		10.266707	-1.867968	-1.741195	-0.232613	-0.213924	-0.245381	-131.488395	-74.504536	-142.626072
08325		9.695033	-1.850614	-1.877206	-0.133482	-0.207275	-0.203706	-132.162904	-74.509896	-142.003643
08326		9.255958	-1.792191	-1.908564	-0.018973	-0.183866	-0.196565	-132.723075	-74.519232	-141.431521
08327		8.950664	-1.640867	-1.779927	0.089339	-0.150283	-0.218637	-133.206002	-74.549802	-140.875491
08328		8.714857	-1.232889	-1.665547	0.111339	-0.130372	-0.274779	-133.725671	-74.610023	-140.268117
08329		8.569171	-0.914635	-1.651584	0.086763	-0.133712	-0.352640	-134.386197	-74.699545	-139.529774
08330		8.823863	-0.636578	-1.846776	0.114044	-0.163108	-0.430655	-135.196069	-74.806223	-138.620528
08331		9.329970	-0.565174	-2.093291	0.071404	-0.192476	-0.501739	-136.198013	-74.925687	-137.538360
08332		9.537708	-0.931058	-2.353425	0.026951	-0.203257	-0.518842	-137.281192	-75.042101	-136.398835
08333		9.562019	-1.288569	-2.449553	0.123054	-0.216329	-0.497157	-138.312946	-75.139243	-135.256333
08334		9.688300	-1.263306	-2.398479	0.309455	-0.227350	-0.459984	-139.202817	-75.212579	-134.150370
08335		9.770592	-1.085481	-2.465888	0.374650	-0.209874	-0.423720	-139.982699	-75.276002	-133.120069
08336		9.626807	-1.069728	-2.403362	0.365844	-0.176929	-0.406992	-140.698521	-75.344359	-132.161332
08337		9.444810	-0.929668	-2.199966	0.370563	-0.159884	-0.406999	-141.398728	-75.417347	-131.216434
08338		9.330842	-0.668623	-1.960123	0.336093	-0.135602	-0.417352	-142.109456	-75.501969	-130.281238
08339		9.245137	-0.563384	-1.860527	0.259412	-0.116816	-0.438355	-142.888462	-75.599411	-129.321460
08340		9.182908	-0.488955	-1.861545	0.165522	-0.109730	-0.452728	-143.747331	-75.701634	-128.335061
08341		9.355255	-0.436652	-1.988189	0.069575	-0.112222	-0.468708	-144.709533	-75.804106	-127.299360
08342		9.445726	-0.603323	-2.178380	-0.020564	-0.111002	-0.465717	-145.728359	-75.901849	-126.258871
08343		9.398506	-0.843189	-2.094655	-0.086983	-0.125211	-0.459851	-146.808060	-75.986176	-125.195384
08344		9.223774	-0.952082	-1.852301	-0.124394	-0.164478	-0.449282	-147.947276	-76.043399	-124.092891
08345		9.662523	-1.345815	-2.439355	0.003672	-0.257631	-0.410359	-149.057116	-76.038083	-122.945274
08346		9.543436	-1.016475	-2.124254	0.065294	-0.185273	-0.407531	-150.039799	-76.062771	-121.892259
08347		9.308537	-1.004455	-2.315713	0.049498	-0.145689	-0.380709	-150.938037	-76.095310	-120.935787
08348		9.282502	-1.026940	-2.433972	0.091692	-0.134243	-0.345342	-151.729574	-76.120632	-120.064362
08349		9.397637	-0.966804	-2.546211	0.159040	-0.130502	-0.338376	-152.468741	-76.143032	-119.207307
08350		9.304902	-0.846297	-2.514689	0.184002	-0.126643	-0.331048	-153.175113	-76.163019	-118.369293
08351		9.228035	-0.685064	-2.199520	0.202228	-0.143723	-0.326599	-153.882913	-76.170497	-117.519187
08352		9.486854	-0.490476	-2.066547	0.209738	-0.159985	-0.322195	-154.592534	-76.166101	-116.662703
08353		9.750879	-0.404023	-2.132578	0.128442	-0.140540	-0.314656	-155.314794	-76.167278	-115.841244
08354		9.720518	-0.555597	-2.268656	0.028739	-0.116627	-0.286474	-156.010335	-76.172013	-115.106086
08355		9.576575	-0.600174	-2.500694	0.011053	-0.099360	-0.252254	-156.628617	-76.175757	-114.460997
08356		9.402926	-0.580354	-2.608559	0.045418	-0.109139	-0.211829	-157.148382	-76.163886	-113.897034
08357		9.251955	-0.588479	-2.727750	0.092303	-0.129506	-0.187158	-157.606439	-76.134491	-113.368953
08358		9.169198	-0.495918	-2.807971	0.132034	-0.146352	-0.172328	-158.021374	-76.092125	-112.861721
08359		9.154307	-0.236058	-2.764749	0.150561	-0.145859	-0.164255	-158.406118	-76.047318	-112.374603
08360		9.208891	0.008669	-2.759542	0.165728	-0.129162	-0.166516	-158.769634	-76.011232	-111.900289
08361		9.255188	0.362649	-2.496602	0.150509	-0.096510	-0.182912	-159.148989	-75.995131	-111.418614
08362		9.454445	0.631929	-2.261615	0.029737	-0.075723	-0.198019	-159.612019	-75.992471	-110.921996
08363		9.629653	0.487573	-2.301635	-0.133517	-0.063431	-0.220618	-160.207977	-75.999660	-110.384789
08364		9.817512	0.218978	-2.318808	-0.227774	-0.060276	-0.219089	-160.852819	-76.006987	-109.852919
08365		9.900055	0.059682	-2.243415	-0.272828	-0.054097	-0.211909	-161.503798	-76.014749	-109.341303
08366		9.952147	-0.127536	-2.401841	-0.335052	-0.056542	-0.191389	-162.148151	-76.016272	-108.873340
08367		9.748066	-0.492505	-2.704126	-0.378797	-0.064526	-0.153779	-162.740182	-76.005556	-108.485045
08368		9.441122	-0.729480	-2.793136	-0.340775	-0.076771	-0.118047	-163.239750	-75.981399	-108.169650
08369		9.285031	-0.816737	-2.816362	-0.273039	-0.081933	-0.082013	-163.622819	-75.947783	-107.934209
08370		9.210822	-0.746515	-2.882350	-0.171931	-0.060888	-0.055087	-163.874629	-75.921217	-107.774409
08371		9.122776	-0.547324	-2.814928	-0.085969	-0.049912	-0.038704	-164.033143	-75.897854	-107.659924
08372		9.153996	-0.267691	-2.604996	-0.020997	-0.044110	-0.025951	-164.123030	-75.875685	-107.577874
08373		9.322842	-0.092632	-2.589018	0.011943	-0.038832	-0.026782	-164.191780	-75.856466	-107.498082
08374		9.410172	-0.021073	-2.593845	0.010298	-0.031874	-0.038737	-164.283848	-75.842961	-107.395288
08375		9.525780	-0.082877	-2.749288	-0.016920	-0.034927	-0.050484	-164.418133	-75.829494	-107.264953
08376		9.608901	-0.146099	-2.595426	-0.035075	-0.023408	-0.058791	-164.574695	-75.823607	-107.122457
08377		9.680336	-0.260602	-2.414724	-0.100464	0.003992	-0.061571	-164.757388	-75.833149	-106.991559
08378		9.574183	-0.588719	-2.346318	-0.163761	0.021073	-0.069518	-164.984987	-75.853239	-106.851865
08379		9.567435	-0.670972	-2.285303	-0.142994	-0.014366	-0.082279	-165.248801	-75.855411	-106.662454
08380		9.726443	-0.664987	-2.413594	-0.138863	-0.011435	-0.097828	-165.543936	-75.861253	-106.438410
08381		9.682618	-0.596543	-2.510425	-0.125078	0.019720	-0.112478	-165.845271	-75.886158	-106.199740
08382		9.505666	-0.606920	-2.576003	-0.104092	0.034055	-0.120494	-166.146489	-75.919852	-105.948925
08383		9.491271	-0.597329	-2.493840	-0.050976	0.037187	-0.131114	-166.439444	-75.956400	-105.675191
08384		9.500150	-0.618342	-2.512801	-0.021396	0.054408	-0.139056	-166.726632	-76.003261	-105.390081
08385		9.541331	-0.755777	-2.500264	0.009774	0.064049	-0.149134	-167.014427	-76.056471	-105.085905
08386		9.557098	-0.877358	-2.415962	0.037556	0.067373	-0.143066	-167.274155	-76.110390	-104.794407
08387		9.524489	-0.956391	-2.309216	0.065632	0.052836	-0.137174	-167.512771	-76.155162	-104.508057
08388		9.416108	-0.984890	-2.201417	0.061114	0.034867	-0.129490	-167.747938	-76.188619	-104.228044
08389		9.310206	-0.943835	-2.278585	0.042288	0.027984	-0.108798	-167.950308	-76.215501	-103.992875
08390		9.279257	-0.887538	-2.333027	0.043916	0.011677	-0.092248	-168.123302	-76.231050	-103.787073
08391		9.333110	-0.836272	-2.356368	0.051558	0.000130	-0.080217	-168.269481	-76.238620	-103.604322
08392		9.403691	-0.773453	-2.368343	0.067501	0.002783	-0.066007	-168.373520	-76.245878	-103.455601
08393		9.435427	-0.689388	-2.348914	0.093911	0.009407	-0.054813	-168.433117	-76.255572	-103.337016
08394		9.430504	-0.647297	-2.383828	0.122043	0.011559	-0.041371	-168.445403	-76.264842	-103.250581
08395		9.371904	-0.514348	-2.342163	0.164694	0.008505	-0.039202	-168.429184	-76.272220	-103.168302
08396		9.391666	-0.487070	-2.298330	0.159222	-0.008621	-0.040134	-168.426849	-76.270016	-103.074988
08397		9.454244	-0.540898	-2.430864	0.154698	-0.004138	-0.040973	-168.426380	-76.270505	-102.982392
08398		9.487179	-0.587934	-2.372202	0.157539	0.018478	-0.044004	-168.421174	-76.283949	-102.893024
08399		9.426019	-0.523493	-2.145791	0.151477	0.026784	-0.043441	-168.413802	-76.302082	-102.809443
08400		9.414326	-0.438420	-2.066393	0.131433	0.021471	-0.035056	-168.401684	-76.316180	-102.742593
08401		9.430237	-0.297078	-2.091958	0.116550	0.027955	-0.031178	-168.385647	-76.333565	-102.688536
08402		9.393100	-0.199860	-2.093933	0.100880	0.002150	-0.033024	-168.395632	-76.336604	-102.616967
08403		9.327792	-0.104956	-2.209685	0.077458	-0.023887	-0.032572	-168.429790	-76.325047	-102.534305
08404		9.364778	-0.067909	-2.308731	0.049163	-0.040567	-0.028910	-168.480027	-76.303626	-102.451811
08405		9.422019	-0.139383	-2.416944	-0.004298	-0.053682	-0.038425	-168.588059	-76.275963	-102.341310
08406		9.470052	-0.310036	-2.343178	-0.090662	-0.036789	-0.042048	-168.746372	-76.258069	-102.230026
08407		9.367097	-0.588301	-2.280704	-0.157876	-0.003075	-0.039287	-168.920569	-76.258813	-102.141981
08408		9.343887	-0.760479	-2.196024	-0.186909	0.016284	-0.028512	-169.078693	-76.269132	-102.087660
08409		9.411712	-0.843430	-2.141129	-0.178552	0.014562	-0.019780	-169.212120	-76.277581	-102.053784
08410		9.564146	-0.940127	-2.144706	-0.149141	0.017746	-0.003724	-169.290941	-76.286020	-102.058812
08411		9.651706	-0.935094	-2.171357	-0.083679	0.014847	0.000993	-169.322085	-76.292398	-102.074269
08412		9.721998	-0.867091	-2.093496	0.000236	-0.007553	-0.001385	-169.320802	-76.286350	-102.073637
08413		9.656317	-0.694996	-2.091701	0.081075	-0.013373	-0.012633	-169.301274	-76.278288	-102.044087
08414		9.569842	-0.491083	-2.197877	0.121887	-0.009213	-0.033170	-169.304175	-76.274697	-101.967388
08415		9.447511	-0.317250	-2.268579	0.139472	-0.025651	-0.058674	-169.362577	-76.264602	-101.823171
08416		9.337441	-0.147397	-2.300588	0.120168	-0.026531	-0.082481	-169.487382	-76.256408	-101.621987
08417		9.346186	-0.013542	-2.152143	0.052411	-0.018173	-0.114589	-169.721001	-76.256147	-101.348732
08418		9.451503	0.097538	-2.112301	-0.047879	-0.007501	-0.143174	-170.074099	-76.264399	-101.011660
08419		9.469075	0.200604	-2.134009	-0.148585	0.021712	-0.157624	-170.507015	-76.290044	-100.651823
08420		9.556591	0.223396	-2.157663	-0.249777	0.043691	-0.171428	-171.023919	-76.328649	-100.265309
08421		9.545914	0.184218	-2.218008	-0.354730	0.054549	-0.178147	-171.614924	-76.373131	-99.864446
08422		9.473579	-0.027775	-2.346225	-0.439356	0.045316	-0.182076	-172.270608	-76.411641	-99.447058
08423		9.387092	-0.309886	-2.425286	-0.483634	0.021553	-0.191629	-172.983517	-76.436195	-98.996891
08424		9.375597	-0.653192	-2.543934	-0.500087	-0.008578	-0.204638	-173.747378	-76.443070	-98.504103
08425		9.509213	-0.983239	-2.532012	-0.480265	-0.016642	-0.214309	-174.524435	-76.444390	-97.986001
08426		9.368729	-1.170611	-2.394485	-0.447004	0.012762	-0.218828	-175.287885	-76.461034	-97.462356
08427		9.194605	-1.312737	-2.161449	-0.385322	0.026817	-0.217078	-176.010352	-76.484095	-96.944514
08428		9.313447	-1.349098	-1.957161	-0.313928	0.017138	-0.216699	-176.694612	-76.500054	-96.423945
08429		9.508556	-1.368216	-1.878159	-0.250369	0.025886	-0.205238	-177.315205	-76.519357	-95.931431
08430		9.607133	-1.286622	-1.778392	-0.186648	0.021702	-0.189985	-177.864536	-76.534675	-95.474661
08431		9.750270	-1.200002	-1.796698	-0.148328	0.010534	-0.174047	-178.355785	-76.542377	-95.055087
08432		9.685922	-1.083022	-2.057487	-0.115312	0.024819	-0.153966	-178.779228	-76.557182	-94.685744
08433		9.529014	-0.924605	-2.385233	-0.104190	0.017033	-0.155541	-179.201733	-76.566919	-94.310890
08434		9.418279	-0.816733	-2.528870	-0.110103	-0.020611	-0.146897	-179.607240	-76.554401	-93.956909
08435		9.168750	-0.757647	-2.533735	-0.099116	-0.024888	-0.154771	179.974571	-76.538861	-93.583479
08436		8.951999	-0.667164	-2.423338	-0.099919	-0.036268	-0.156405	179.554227	-76.516136	-93.208163
08437		8.744605	-0.599837	-2.154281	-0.112628	-0.018962	-0.169352	179.095360	-76.502591	-92.800804
08438		8.919678	-0.557687	-2.028516	-0.106488	-0.035513	-0.180108	178.617480	-76.478633	-92.370105
08439		9.516691	-0.470296	-2.077789	-0.122374	-0.046189	-0.183282	178.124128	-76.447687	-91.932941
08440		9.933731	-0.438372	-2.259292	-0.160571	-0.003165	-0.185588	177.602827	-76.440406	-91.489355
08441		9.876661	-0.519992	-2.455078	-0.169881	0.040892	-0.193819	177.050457	-76.457160	-91.019455
08442		9.545371	-0.624032	-2.548861	-0.165969	0.045349	-0.216738	176.445605	-76.474599	-90.493139
08443		9.225156	-0.655086	-2.542948	-0.162003	0.026539	-0.240032	175.787873	-76.479025	-89.910286
08444		9.275208	-0.591640	-2.598159	-0.145710	-0.030377	-0.272663	175.075121	-76.447810	-89.261015
08445		9.595104	-0.423393	-2.545071	-0.128885	-0.063283	-0.296528	174.324728	-76.394630	-88.563179
08446		9.712898	-0.262114	-2.458920	-0.132958	-0.046679	-0.327928	173.501814	-76.346735	-87.792753
08447		9.592326	-0.068880	-2.331323	-0.145736	-0.012544	-0.367239	172.573267	-76.312770	-86.921237
08448		9.481047	0.094108	-2.224973	-0.136495	0.016206	-0.407114	171.554398	-76.288462	-85.950962
08449		9.454324	0.260602	-2.084290	-0.131067	0.020839	-0.441647	170.458649	-76.259446	-84.898469
08450		9.502513	0.352902	-2.194264	-0.164466	0.032196	-0.465974	169.290059	-76.229479	-83.790317
08451		9.540671	0.372160	-2.254093	-0.217676	0.045542	-0.482894	168.049155	-76.199538	-82.639193
08452		9.595931	0.296218	-2.368095	-0.307623	0.051848	-0.493907	166.736334	-76.165690	-81.466686
08453		9.638252	0.100800	-2.471973	-0.377054	0.048052	-0.496235	165.385201	-76.122850	-80.295736
08454		9.616504	-0.178689	-2.542931	-0.415228	0.042288	-0.493932	164.031567	-76.070633	-79.144254
08455		9.535103	-0.377192	-2.533346	-0.427448	0.051481	-0.487440	162.686577	-76.017947	-78.008880
08456		9.524734	-0.599548	-2.537599	-0.410701	0.056515	-0.477918	161.380501	-75.963459	-76.903177
08457		9.716568	-0.957053	-2.594008	-0.338309	0.038684	-0.469326	160.155323	-75.894944	-75.838098
08458		9.868327	-1.168773	-2.667676	-0.173163	0.032308	-0.462800	159.057867	-75.819204	-74.806481
08459		9.948196	-1.252024	-2.657205	-0.020213	0.036165	-0.451285	158.077333	-75.743232	-73.805069
08460		9.742729	-1.213436	-2.625202	0.100930	0.087238	-0.452129	157.133857	-75.690201	-72.769580
08461		9.401864	-1.103265	-2.465923	0.187391	0.119076	-0.451919	156.215541	-75.649625	-71.709120
08462		9.192501	-0.928764	-2.351880	0.269780	0.105167	-0.446988	155.377187	-75.599178	-70.681784
08463		9.143554	-0.661059	-2.352733	0.328512	0.059397	-0.442486	154.628010	-75.522253	-69.711968
08464		9.280293	-0.327727	-2.516557	0.388567	-0.002487	-0.439014	153.993830	-75.411654	-68.824459
08465		9.418149	0.108317	-2.578773	0.431276	-0.036512	-0.437227	153.428147	-75.281363	-67.982506
08466		9.460730	0.451681	-2.481324	0.456222	-0.044494	-0.431169	152.913236	-75.146929	-67.177189
08467		9.495338	0.708773	-2.279875	0.464302	-0.044094	-0.426685	152.418399	-75.011689	-66.387934
08468		9.524052	0.878052	-2.063474	0.450589	-0.031224	-0.424502	151.923033	-74.882216	-65.605182
08469		9.487977	0.823857	-2.073191	0.418261	-0.028474	-0.424441	151.412921	-74.751946	-64.826461
08470		9.466529	0.759201	-2.134219	0.409133	-0.040160	-0.423831	150.926066	-74.614676	-64.076183
08471		9.406663	0.767550	-2.336365	0.389228	-0.042656	-0.426312	150.432499	-74.473297	-63.330869
08472		9.361967	0.797763	-2.584560	0.393957	-0.024259	-0.431429	149.929353	-74.338398	-62.571690
08473		9.288229	0.826899	-2.701030	0.414603	-0.012568	-0.440371	149.416733	-74.204365	-61.790486
08474		9.327437	0.884704	-2.792653	0.409624	-0.023024	-0.449315	148.912211	-74.061227	-61.019501
08475		9.491957	0.893350	-2.921752	0.401634	-0.055904	-0.452799	148.438572	-73.898615	-60.285454
08476		9.654755	0.888818	-2.934580	0.370029	-0.076603	-0.446965	147.994858	-73.726620	-59.600140
08477		9.958364	0.976336	-2.836440	0.329731	-0.075429	-0.429798	147.562436	-73.558420	-58.950728
08478		10.092704	1.128239	-2.671119	0.282036	-0.050034	-0.401010	147.138169	-73.410584	-58.337100
08479		10.072271	1.371396	-2.543386	0.228520	-0.005300	-0.370666	146.689416	-73.291804	-57.730190
08480		9.967581	1.646825	-2.558355	0.149557	0.040937	-0.350221	146.190854	-73.200752	-57.117468
08481		9.806295	1.959143	-2.603872	0.066031	0.100080	-0.321265	145.628110	-73.144810	-56.488163
08482		9.644153	2.257067	-2.525633	-0.010108	0.121640	-0.295402	145.046819	-73.106263	-55.884206
08483		9.482630	2.443497	-2.396041	-0.074135	0.134979	-0.259858	144.467117	-73.083303	-55.320854
08484		9.320602	2.681817	-2.286721	-0.121045	0.179748	-0.229429	143.862904	-73.090265	-54.759277
08485		9.243949	2.925596	-2.231190	-0.173875	0.207194	-0.197306	143.241427	-73.118441	-54.212019
08486		9.240450	3.084380	-2.188509	-0.252982	0.249265	-0.166919	142.573972	-73.175138	-53.663575
08487		9.182582	3.060634	-1.928725	-0.369824	0.298887	-0.139453	141.814447	-73.261365	-53.089721
08488		9.018415	2.973013	-1.902906	-0.507105	0.309278	-0.099518	141.019968	-73.364812	-52.561208
08489		9.004849	2.677344	-2.009997	-0.559424	0.287139	-0.050942	140.283211	-73.473496	-52.125059
08490		9.153797	2.455331	-1.867664	-0.560337	0.249479	-0.005223	139.656773	-73.581538	-51.804220
08491		9.225603	2.148270	-1.922611	-0.588273	0.248727	0.025774	139.051681	-73.699308	-51.523016
08492		9.183011	1.822976	-1.884525	-0.577586	0.270405	0.047110	138.452898	-73.834150	-51.241697
08493		8.994354	1.659706	-1.809227	-0.558394	0.279817	0.068715	137.874137	-73.979931	-50.970460
08494		9.059017	1.654047	-1.825445	-0.532385	0.264500	0.091965	137.361232	-74.128009	-50.751939
08495		9.152144	1.665655	-1.848162	-0.510497	0.272551	0.107505	136.862886	-74.284461	-50.536156
08496		9.138970	1.753059	-1.721239	-0.453379	0.256303	0.120447	136.435902	-74.439289	-50.360190
08497		9.295947	1.940120	-1.662202	-0.392226	0.250742	0.140683	136.073254	-74.598962	-50.215229
08498		9.382367	2.249867	-1.634438	-0.327957	0.250926	0.159535	135.773773	-74.766538	-50.097242
08499		9.487578	2.458144	-1.642275	-0.298832	0.242095	0.182961	135.532003	-74.939184	-50.022303
08500		9.631655	2.519291	-1.520899	-0.272035	0.249766	0.198561	135.317498	-75.121678	-49.959334
08501		9.720337	2.504808	-1.393026	-0.238342	0.281497	0.222999	135.104865	-75.326352	-49.878815
08502		9.688323	2.451528	-1.368524	-0.237462	0.277757	0.234242	134.915120	-75.534497	-49.821115
08503		9.695148	2.449879	-1.524802	-0.266701	0.288232	0.229434	134.677551	-75.744352	-49.731780
08504		9.701112	2.297672	-1.424197	-0.290068	0.290433	0.205089	134.381857	-75.945530	-49.596039
08505		9.450006	2.232589	-1.518143	-0.257517	0.290812	0.193978	134.077307	-76.141630	-49.432423
08506		9.374388	2.217780	-1.490953	-0.177954	0.306339	0.189553	133.781095	-76.342338	-49.230276
08507		9.193319	2.289863	-1.374123	-0.130101	0.311386	0.175820	133.471018	-76.538614	-48.986153
08508		9.192265	2.252905	-1.227048	-0.136910	0.275446	0.168510	133.202892	-76.717867	-48.789057
08509		9.360927	1.977063	-1.116037	-0.148234	0.251414	0.185935	132.991800	-76.894361	-48.657645
08510		9.356045	1.742689	-1.143202	-0.175064	0.265069	0.200185	132.762186	-77.082483	-48.522830
08511		9.299757	1.573314	-1.234703	-0.211335	0.222405	0.198648	132.580774	-77.252839	-48.459130
08512		9.463304	1.495884	-1.253709	-0.188540	0.149671	0.191513	132.536690	-77.392414	-48.522588
08513		9.620795	1.404258	-1.382855	-0.102379	0.133310	0.182516	132.555498	-77.521412	-48.600122
08514		9.662294	1.305432	-1.484850	0.029389	0.137025	0.176247	132.635364	-77.649643	-48.662584
08515		9.526802	1.243742	-1.339856	0.144580	0.173176	0.156771	132.675394	-77.783238	-48.616947
08516		9.399160	1.353614	-1.251335	0.209780	0.175567	0.133584	132.708689	-77.908467	-48.525981
08517		9.196918	1.221197	-1.180189	0.215003	0.148508	0.139449	132.806303	-78.025196	-48.498009
08518		9.250299	1.235846	-0.790469	0.244394	0.158036	0.155589	132.934961	-78.152905	-48.484320
08519		9.197051	1.525427	-1.000919	0.232650	0.146097	0.183352	133.131932	-78.287105	-48.547540
08520		9.300363	1.449963	-1.442578	0.246075	0.095244	0.208853	133.494404	-78.412380	-48.771626
08521		9.475724	1.553337	-1.560870	0.307009	0.058888	0.213379	133.978661	-78.524298	-49.084512
08522		9.639935	1.591710	-1.439941	0.324031	0.059049	0.219996	134.495963	-78.638919	-49.420803
08523		9.563732	1.691861	-1.158070	0.235462	0.090879	0.221223	134.905746	-78.765856	-49.699289
08524		9.562857	1.691630	-1.087294	0.133461	0.101218	0.229550	135.263144	-78.900443	-49.983600
08525		9.616845	1.710258	-1.128571	0.110944	0.085341	0.250921	135.690773	-79.036299	-50.352700
08526		9.730573	1.613664	-1.234545	0.097221	0.085661	0.284579	136.194976	-79.185557	-50.807401
08527		9.716812	1.558045	-1.182258	0.048508	0.102160	0.326262	136.739794	-79.356891	-51.331809
08528		9.674285	1.470420	-0.859979	-0.065450	0.132285	0.365035	137.263633	-79.555503	-51.900781
08529		9.637172	1.368007	-0.861074	-0.110777	0.162724	0.404394	137.807511	-79.780810	-52.516326
08530		9.599727	1.148650	-0.910126	-0.101530	0.189832	0.442671	138.419894	-80.031621	-53.195435
08531		9.526807	0.859324	-1.065401	-0.041992	0.212937	0.469690	139.115232	-80.300800	-53.923749
08532		9.433939	0.742702	-1.211889	0.055623	0.228515	0.488219	139.924602	-80.582433	-54.710217
08533		9.338480	0.715620	-1.280935	0.062441	0.241592	0.517710	140.836113	-80.878200	-55.595729
08534		9.322756	0.659183	-1.313674	-0.015600	0.239555	0.545460	141.850103	-81.180974	-56.629343
08535		9.277049	0.486755	-1.288209	-0.071259	0.243696	0.579309	142.994672	-81.493956	-57.826610
08536		9.290656	0.470513	-1.185881	-0.080868	0.249407	0.607294	144.303017	-81.815556	-59.193799
08537		9.303164	0.514613	-1.144176	-0.098632	0.238263	0.654027	145.891999	-82.141742	-60.853743
08538		9.388732	0.567162	-1.101249	-0.141122	0.219342	0.683735	147.751584	-82.461441	-62.809840
08539		9.580729	0.613305	-0.992288	-0.218950	0.215690	0.709656	149.837051	-82.777491	-65.037417
08540		9.744826	0.472155	-0.929187	-0.314885	0.205258	0.734547	152.191472	-83.084255	-67.589679
08541		9.838912	0.065789	-1.130194	-0.386350	0.167930	0.765520	154.937283	-83.365197	-70.575906
08542		9.866706	-0.500479	-1.138128	-0.326906	0.159103	0.803215	158.164385	-83.631669	-74.010414
08543		9.805484	-1.001958	-1.016311	-0.184410	0.147819	0.853795	162.021400	-83.877179	-77.994926
08544		9.724176	-1.458146	-0.972068	-0.005257	0.098463	0.916849	166.697842	-84.072502	-82.698341
08545		9.736710	-1.678180	-0.879760	0.198315	0.040240	0.982232	172.180299	-84.197256	-88.093587
08546		9.780981	-1.549580	-0.730158	0.357496	-0.003685	1.040984	178.291720	-84.243437	-94.028272
08547		9.865507	-1.173605	-0.638624	0.447352	-0.077210	1.088084	-175.292184	-84.181198	-100.217758
08548		10.230781	-0.640288	-0.525282	0.494031	-0.148065	1.131587	-168.884884	-84.005789	-106.372560
08549		10.667386	-0.299627	-0.369060	0.475781	-0.155137	1.183087	-162.671719	-83.750782	-112.345319
08550		10.882249	0.019924	-0.339667	0.394150	-0.139569	1.244945	-156.716568	-83.425483	-118.108560
08551		10.947210	0.088390	-0.599708	0.256821	-0.147472	1.318195	-151.162473	-83.015098	-123.551693
08552		10.948747	-0.001915	-0.954449	0.111049	-0.150331	1.392321	-146.068382	-82.522986	-128.620343
08553		10.810535	-0.121967	-1.304745	-0.028400	-0.135232	1.452413	-141.484324	-81.965912	-133.261241
08554		10.653483	-0.337592	-1.392969	-0.130105	-0.108432	1.490052	-137.397684	-81.360339	-137.464732
08555		10.518450	-0.573740	-1.283713	-0.179546	-0.088286	1.503637	-133.816800	-80.718751	-141.192106
08556		10.471978	-0.837204	-1.048864	-0.172981	-0.079301	1.509582	-130.676234	-80.044720	-144.475855
08557		10.353962	-1.119484	-0.807703	-0.143018	-0.081369	1.520123	-127.921641	-79.338552	-147.357042
08558		10.190226	-1.400216	-0.605140	-0.114177	-0.099120	1.545293	-125.502065	-78.591688	-149.886739
08559		9.997584	-1.618542	-0.299443	-0.143881	-0.133019	1.583113	-123.428360	-77.798165	-152.087587
08560		9.967235	-1.834845	-0.111784	-0.242700	-0.178846	1.622023	-121.715683	-76.956757	-153.983074
08561		10.016320	-2.110800	-0.280258	-0.334420	-0.219849	1.643044	-120.333269	-76.082634	-155.599807
08562		9.909275	-2.366228	-0.661720	-0.332606	-0.245373	1.649277	-119.166808	-75.189463	-156.998507
08563		9.853139	-2.437176	-1.024271	-0.286172	-0.309531	1.654078	-118.233452	-74.270595	-158.134102
08564		10.112784	-2.642858	-1.576393	-0.182364	-0.366518	1.673460	-117.434185	-73.321696	-159.073099
08565		10.442752	-2.977389	-2.199565	0.019378	-0.319850	1.696973	-116.523176	-72.369687	-160.013002
08566		10.508305	-3.174378	-2.404825	0.193398	-0.135105	1.668166	-115.343340	-71.473303	-161.135359
08567		10.317591	-3.389076	-2.086300	0.206303	0.018497	1.621949	-114.065812	-70.631100	-162.359176
08568		10.221813	-3.805451	-2.015766	0.299121	0.076620	1.582175	-112.778921	-69.813722	-163.542386
08569		10.112913	-4.103293	-1.899357	0.523712	0.140698	1.547904	-111.392172	-69.019886	-164.701227
08570		9.934639	-4.157098	-1.593060	0.727594	0.179380	1.506207	-109.949874	-68.245714	-165.800097
08571		9.870900	-3.899624	-1.404146	0.944220	0.165635	1.465622	-108.509034	-67.481798	-166.769584
08572		9.622513	-3.394435	-1.030567	1.070571	0.195374	1.417813	-107.054871	-66.739454	-167.679963
08573		9.286595	-2.990446	-0.683830	1.090918	0.176255	1.383809	-105.697768	-66.005000	-168.477024
08574		9.215370	-2.838021	-0.771931	1.101566	0.122225	1.353136	-104.471205	-65.271756	-169.128371
08575		9.159505	-2.576057	-0.800935	1.133093	0.123152	1.321938	-103.288098	-64.551207	-169.715890
08576		8.996370	-2.411514	-0.761514	1.035252	0.120074	1.273826	-102.222408	-63.851800	-170.238474
08577		10.283878	-3.049373	-4.306106	1.349949	0.452740	1.346113	-100.633063	-63.145082	-171.148124
08578		8.560100	-1.904782	0.932479	1.744983	1.108162	1.189150	-98.193929	-62.574158	-172.763305
08579		7.609071	-2.237393	1.010179	0.572793	0.387263	1.132607	-97.282038	-61.958955	-173.420737
08580		7.845351	-3.125838	0.350692	0.189986	-0.089625	1.056390	-97.126894	-61.349606	-173.471102
08581		8.144063	-3.269430	-0.245918	0.091012	-0.208484	0.988114	-97.162359	-60.770967	-173.368952
08582		8.318461	-3.413067	-0.639072	0.089221	-0.150590	0.921334	-97.146195	-60.234124	-173.326538
08583		8.307320	-3.428974	-0.906369	0.145696	-0.037287	0.857996	-96.995165	-59.741610	-173.402489
08584		8.264300	-3.611285	-1.345395	0.250313	0.049960	0.779001	-96.712807	-59.299654	-173.561453
08585		9.192886	-3.151315	-2.487292	0.501952	0.349119	0.788858	-96.010068	-58.870604	-174.043255
08586		8.237487	-1.573913	0.228773	0.126196	0.920132	0.913216	-94.994659	-58.398213	-175.145543
08587		3.963040	-6.444407	1.699057	-0.509960	-0.457455	0.274355	-95.686255	-58.215318	-174.674037
08588		8.428522	-3.778051	-0.808978	0.320570	-0.677784	0.419333	-96.082912	-57.934381	-173.988018
08589		8.943192	-3.297292	-1.522621	0.285470	0.202715	0.380597	-95.700460	-57.727388	-174.244498
08590		7.801534	-3.698323	-0.899829	0.220347	0.434262	0.322400	-95.155581	-57.565021	-174.737828
08591		7.666958	-3.850359	-0.385564	0.340053	0.390298	0.241649	-94.592873	-57.444091	-175.171872
08592		7.650208	-3.571945	0.113846	0.187616	0.435553	0.153255	-94.085794	-57.373493	-175.643921
08593		7.312726	-3.897471	0.410884	-0.130419	0.383128	0.056122	-93.815548	-57.354584	-176.051451
08594		7.164306	-4.515396	0.214818	-0.072191	0.251634	-0.070139	-93.636210	-57.402208	-176.311271
08595		7.238258	-4.054709	0.475512	-0.161782	0.166047	-0.169589	-93.590203	-57.503233	-176.473698
08596		7.336206	-4.290660	0.280263	-0.280610	0.152402	-0.281040	-93.629640	-57.667610	-176.615206
08597		7.323951	-4.197388	0.247168	-0.296700	0.132099	-0.371429	-93.701894	-57.882880	-176.728639
08598		7.539577	-4.130282	0.256191	-0.354098	0.089979	-0.449956	-93.849482	-58.141714	-176.791606
08599		7.610961	-4.018536	0.355844	-0.449606	0.049632	-0.507544	-94.094305	-58.431833	-176.804536
08600		7.497131	-4.416112	0.249943	-0.601473	-0.094233	-0.546690	-94.565616	-58.738312	-176.653866
08601		7.976550	-5.381785	-0.182864	-0.339101	-0.156600	-0.598275	-94.955869	-59.070496	-176.422939
08602		8.206229	-5.514467	-0.312332	0.059507	-0.143428	-0.623587	-95.111798	-59.417389	-176.199603
08603		8.121349	-5.784062	-0.502378	0.083962	-0.204609	-0.637462	-95.319780	-59.768475	-175.900605
08604		7.987515	-6.486036	-0.749241	0.086155	-0.167044	-0.649490	-95.495526	-60.128065	-175.638335
08605		7.861015	-6.825936	-0.797506	0.139761	-0.104302	-0.621762	-95.580643	-60.474887	-175.446109
08606		7.584897	-7.096701	-0.883864	0.008172	-0.131614	-0.566511	-95.766188	-60.788429	-175.225626
08607		7.812070	-7.519813	-1.029621	0.186415	-0.097272	-0.528748	-95.814813	-61.082212	-175.045759
08608		7.785443	-6.919002	-0.377867	0.308984	-0.063627	-0.483990	-95.754613	-61.352242	-174.910236
08609		7.967472	-6.529811	-0.127123	0.271932	-0.058075	-0.447048	-95.707524	-61.601782	-174.784472
08610		8.023500	-6.066120	0.041307	0.326595	-0.025766	-0.413772	-95.591003	-61.833917	-174.702050
08611		7.820075	-5.667292	0.115015	0.386040	-0.024825	-0.394689	-95.437956	-62.055652	-174.622819
08612		7.387426	-5.439913	0.103426	0.427864	-0.037961	-0.424682	-95.276767	-62.293460	-174.525613
08613		6.843253	-5.057070	0.332421	0.454420	-0.098883	-0.474477	-95.172715	-62.557042	-174.347257
08614		6.971005	-4.530290	0.603872	0.332426	-0.233874	-0.529570	-95.294248	-62.844470	-173.993862
08615		6.972885	-4.326547	0.587665	0.093971	-0.381868	-0.582565	-95.731662	-63.153703	-173.440509
08616		7.804885	-4.194328	0.328619	-0.189208	-0.503936	-0.646384	-96.489524	-63.488657	-172.711366
08617		8.178450	-4.269081	-0.118416	-0.360483	-0.423987	-0.701441	-97.281735	-63.856511	-172.055933
08618		7.951225	-3.996253	-0.239170	-0.624056	-0.468757	-0.722600	-98.300649	-64.227707	-171.318063
08619		8.214348	-4.212320	-0.492528	-0.996184	-0.648991	-0.746043	-99.779249	-64.589363	-170.309524
08620		9.075071	-4.282364	-0.738923	-1.087748	-0.493041	-0.780411	-101.164138	-64.975076	-169.465336
08621		8.948511	-3.851635	-0.537014	-1.269311	-0.388290	-0.806042	-102.568103	-65.379163	-168.717794
08622		8.668103	-3.973584	-0.753777	-1.605744	-0.508797	-0.817647	-104.351364	-65.764247	-167.767407
08623		8.955107	-4.440801	-1.071179	-1.746106	-0.665049	-0.859323	-106.468612	-66.135466	-166.542509
08624		9.750826	-4.366143	-1.075533	-1.792749	-0.698266	-0.954325	-108.741873	-66.532917	-165.179748
08625		11.062231	-4.920738	-2.331254	-2.115950	-0.652502	-1.079068	-111.264880	-66.983745	-163.751434
08626		11.757037	-6.348761	-3.651380	-2.012182	-0.191665	-1.147353	-113.252764	-67.547749	-162.843867
08627		10.532605	-7.702760	-3.365894	-1.350628	0.011121	-1.093627	-114.636437	-68.120691	-162.183474
08628		10.010018	-8.550506	-2.786967	-0.316800	-0.128162	-1.000697	-115.597019	-68.605650	-161.343079
08629		10.281427	-8.554379	-2.147935	0.560645	-0.088974	-0.883400	-115.962200	-69.036917	-160.605044
08630		10.116537	-8.285470	-1.709292	1.067368	0.028359	-0.682973	-115.759303	-69.392801	-160.165567
08631		10.024545	-7.878427	-1.625948	1.364129	-0.071284	-0.471459	-115.388069	-69.616489	-159.725577
08632		10.298960	-7.373097	-1.573825	1.557081	-0.173528	-0.290812	-114.927091	-69.721455	-159.263302
08633		10.378895	-6.105307	-1.307665	1.741216	-0.141494	-0.182760	-114.247360	-69.780610	-158.922546
08634		10.556558	-4.258446	-1.452444	1.797270	-0.130624	-0.186106	-113.518042	-69.844065	-158.599900
08635		10.633315	-2.315784	-1.773703	1.720957	-0.120539	-0.265559	-112.869356	-69.954406	-158.238770
08636		10.278388	-0.733426	-1.677870	1.518638	-0.089763	-0.342942	-112.334824	-70.112347	-157.879198
08637		9.667607	0.387104	-1.215420	1.260993	-0.087817	-0.375850	-111.967620	-70.290524	-157.499689
08638		9.045927	1.076955	-0.728896	0.925333	-0.128149	-0.387459	-111.858231	-70.465614	-157.050511
08639		8.933628	1.161927	-0.496585	0.512753	-0.220483	-0.399554	-112.139214	-70.628255	-156.439054
08640		9.190332	0.813813	-0.661943	0.050868	-0.292735	-0.422339	-112.814483	-70.784554	-155.690366
08641		9.504153	0.085735	-0.848294	-0.371352	-0.326999	-0.444972	-113.814134	-70.942222	-154.855571
08642		9.839594	-0.675887	-1.081743	-0.683514	-0.342946	-0.477490	-115.052474	-71.107083	-153.957920
08643		10.112754	-1.390971	-1.398622	-0.858712	-0.329144	-0.490943	-116.401796	-71.276287	-153.050364
08644		10.175846	-1.922411	-1.731354	-0.852990	-0.250200	-0.506457	-117.657661	-71.466813	-152.238583
08645		9.878004	-2.102469	-1.982501	-0.685983	-0.173548	-0.524075	-118.739365	-71.682097	-151.510830
08646		9.529263	-2.065883	-1.842841	-0.470626	-0.102037	-0.544935	-119.624349	-71.923431	-150.860904
08647		9.182931	-1.888040	-1.667858	-0.311969	-0.056802	-0.558595	-120.383754	-72.181938	-150.248672
08648		8.962879	-1.837342	-1.575608	-0.226597	-0.043691	-0.571100	-121.102496	-72.447657	-149.628383
08649		8.815043	-1.921975	-1.386585	-0.158086	-0.037039	-0.589259	-121.811878	-72.722194	-148.977983
08650		8.795830	-1.928765	-1.208536	-0.060736	-0.068946	-0.602586	-122.547825	-72.990698	-148.242095
08651		8.892161	-1.914612	-1.167803	0.015212	-0.109528	-0.602949	-123.330819	-73.244110	-147.412867
08652		9.064104	-1.912821	-1.321658	0.065023	-0.141436	-0.603183	-124.157972	-73.483841	-146.508576
08653		9.165866	-1.852246	-1.613340	0.086343	-0.146335	-0.593136	-124.997316	-73.713667	-145.580203
08654		9.081519	-1.937218	-1.992673	0.128996	-0.142309	-0.571520	-125.802504	-73.930767	-144.662758
08655		9.006568	-1.789236	-2.160120	0.207951	-0.179681	-0.563421	-126.638887	-74.127958	-143.667015
08656		9.174085	-1.420346	-2.112380	0.247424	-0.203717	-0.567518	-127.516437	-74.314438	-142.605704
08657		9.327145	-1.038433	-1.918295	0.241645	-0.209404	-0.577163	-128.444606	-74.498848	-141.496476
08658		9.599453	-0.732893	-1.735983	0.213451	-0.195605	-0.577715	-129.389024	-74.683468	-140.387933
08659		9.792155	-0.612021	-1.608269	0.149180	-0.151610	-0.567292	-130.312421	-74.874927	-139.340541
08660		9.863449	-0.695050	-1.597646	0.058806	-0.109385	-0.541711	-131.206031	-75.066683	-138.378383
08661		9.671228	-0.929374	-1.547066	-0.026313	-0.090423	-0.499708	-132.082979	-75.243797	-137.484908
08662		9.514070	-1.070735	-1.490180	-0.088634	-0.111771	-0.453747	-132.980181	-75.389744	-136.607938
08663		9.445228	-1.203074	-1.526124	-0.143195	-0.119028	-0.408700	-133.870941	-75.510519	-135.770586
08664		9.284221	-1.297678	-1.711569	-0.193029	-0.124604	-0.382353	-134.769864	-75.615093	-134.954600
08665		8.992288	-1.320739	-1.828945	-0.209209	-0.160089	-0.372767	-135.732842	-75.697901	-134.082523
08666		8.936805	-1.176183	-1.818898	-0.245406	-0.202199	-0.375984	-136.795468	-75.760878	-133.129207
08667		9.033312	-1.060484	-1.808654	-0.295883	-0.229034	-0.395989	-137.972124	-75.815528	-132.088445
08668		9.239942	-1.078763	-1.876693	-0.318027	-0.225314	-0.412595	-139.190749	-75.872907	-131.017655
08669		9.335981	-1.141107	-1.835866	-0.282976	-0.182967	-0.423122	-140.356666	-75.947047	-129.980899
08670		9.436526	-1.214926	-1.882121	-0.229260	-0.143347	-0.417443	-141.434115	-76.032013	-129.003889
08671		9.440985	-1.381931	-1.989148	-0.162897	-0.116685	-0.405459	-142.427666	-76.120259	-128.074582
08672		9.418942	-1.531088	-2.024854	-0.071458	-0.104989	-0.391021	-143.335645	-76.205364	-127.179731
08673		9.392984	-1.528059	-1.959904	0.006775	-0.111033	-0.380688	-144.199866	-76.280620	-126.284154
08674		9.347482	-1.434971	-1.860583	0.049052	-0.121502	-0.365219	-145.031806	-76.342920	-125.397067
08675		9.381449	-1.327076	-1.794648	0.057335	-0.135440	-0.365308	-145.886966	-76.395339	-124.481486
08676		9.398628	-1.202657	-1.870081	0.034586	-0.133934	-0.365044	-146.757642	-76.445375	-123.563484
08677		9.355369	-1.186401	-1.947107	0.002094	-0.133420	-0.377303	-147.679060	-76.495842	-122.612700
08678		9.389568	-1.166770	-2.088594	-0.005243	-0.138853	-0.386236	-148.634846	-76.542964	-121.631029
08679		9.393289	-1.141502	-2.192269	0.009154	-0.139188	-0.389882	-149.598437	-76.586897	-120.633102
08680		9.414116	-1.078111	-2.161588	0.028936	-0.130395	-0.388343	-150.541629	-76.631142	-119.644617
08681		9.333937	-0.995342	-2.055565	0.042155	-0.116926	-0.381383	-151.454540	-76.676234	-118.679711
08682		9.320413	-0.932155	-1.925393	0.049574	-0.121498	-0.385572	-152.381976	-76.716814	-117.695627
08683		9.448439	-0.924100	-1.989747	0.031642	-0.126954	-0.390949	-153.344368	-76.752019	-116.686394
08684		9.489746	-1.047305	-2.137774	0.033081	-0.108084	-0.392187	-154.292259	-76.793641	-115.691319
08685		9.398197	-1.108938	-2.209222	0.069564	-0.101378	-0.386028	-155.205870	-76.833257	-114.710198
08686		9.350824	-1.099271	-2.223334	0.138005	-0.126412	-0.371960	-156.077553	-76.853250	-113.731934
08687		9.333758	-1.001267	-2.131400	0.178948	-0.144906	-0.351362	-156.900885	-76.855258	-112.779326
08688		9.315904	-0.862556	-2.138295	0.162667	-0.151064	-0.335966	-157.703009	-76.847786	-111.858013
08689		9.320813	-0.816135	-2.180695	0.131430	-0.171150	-0.331779	-158.531595	-76.825501	-110.927901
08690		9.332507	-0.736002	-2.222486	0.137430	-0.182095	-0.333230	-159.365013	-76.794845	-109.989142
08691		9.484104	-0.601090	-2.224079	0.185309	-0.178771	-0.337232	-160.174442	-76.763445	-109.046779
08692		9.532491	-0.394754	-2.156309	0.224107	-0.142602	-0.341780	-160.938037	-76.749751	-108.128530
08693		9.570833	-0.294142	-2.051978	0.236877	-0.111456	-0.342291	-161.671078	-76.750053	-107.234178
08694		9.617218	-0.228299	-1.966468	0.186083	-0.080071	-0.337409	-162.397742	-76.764257	-106.376264
08695		9.634168	-0.353193	-2.128847	0.120895	-0.058186	-0.323928	-163.117433	-76.785393	-105.563980
08696		9.638402	-0.546757	-2.293527	0.109104	-0.055273	-0.304597	-163.797950	-76.802992	-104.798915
08697		9.720829	-0.623233	-2.349202	0.147666	-0.066747	-0.281101	-164.411182	-76.808316	-104.080324
08698		9.464313	-0.659328	-1.958579	0.162868	-0.040357	-0.249185	-164.923230	-76.822059	-103.456718
08699		9.569201	-0.909748	-2.320900	0.329599	-0.140462	-0.202390	-165.292531	-76.772102	-102.881586
08700		9.421321	-0.367414	-2.553904	0.405523	-0.057867	-0.211429	-165.585769	-76.768776	-102.339815
08701		9.142367	0.062216	-2.566813	0.432212	-0.065495	-0.172288	-165.776386	-76.754860	-101.887763
08702		9.174883	0.366625	-2.365326	0.399108	-0.108211	-0.110302	-165.863499	-76.708527	-101.561471
08703		9.367596	0.331513	-2.408525	0.354881	-0.094967	-0.092206	-165.924982	-76.666667	-101.287510
08704		9.509059	0.323102	-2.461294	0.335709	-0.066118	-0.074322	-165.937395	-76.638568	-101.075244
08705		9.588527	0.383456	-2.782543	0.324759	-0.047046	-0.035643	-165.854524	-76.615438	-100.967331
08706		9.628314	0.483873	-3.322556	0.418494	-0.017554	0.008555	-165.597419	-76.602760	-100.983343
08707		9.555019	0.885864	-3.494470	0.508840	-0.006978	0.052007	-165.181459	-76.589398	-101.109409
08708		9.361055	1.264545	-3.237477	0.451607	-0.039666	0.076804	-164.762178	-76.554239	-101.272682
08709		9.359811	1.436537	-3.058125	0.314058	-0.078352	0.078581	-164.443313	-76.497008	-101.413703
08710		9.467559	1.436626	-2.865546	0.173586	-0.085389	0.047189	-164.284028	-76.440763	-101.473523
08711		9.539283	1.328417	-2.682455	0.063650	-0.079727	0.000875	-164.289354	-76.394651	-101.428690
08712		9.577348	1.216773	-2.428563	-0.067548	-0.072949	-0.051036	-164.484907	-76.360422	-101.265639
08713		9.615287	0.938069	-2.271168	-0.214501	-0.047529	-0.101401	-164.860813	-76.347523	-101.003449
08714		9.514952	0.588046	-2.235793	-0.343470	-0.015176	-0.147321	-165.397435	-76.358975	-100.652137
08715		9.376596	0.236026	-2.351297	-0.444954	-0.007931	-0.195022	-166.096006	-76.380114	-100.193814
08716		9.304101	-0.156265	-2.507653	-0.459110	-0.013440	-0.234764	-166.901462	-76.402260	-99.634158
08717		9.145688	-0.459761	-2.590062	-0.442703	-0.013914	-0.270431	-167.780086	-76.426512	-98.989359
08718		9.133329	-0.649833	-2.549144	-0.389847	-0.037429	-0.296965	-168.706370	-76.438424	-98.264682
08719		9.493029	-0.779215	-2.607428	-0.283030	-0.075892	-0.313606	-169.625632	-76.427610	-97.484018
08720		9.866788	-0.952771	-2.407369	-0.181847	-0.035860	-0.322121	-170.492064	-76.437476	-96.698305
08721		10.005941	-0.985195	-2.087251	-0.097940	0.021888	-0.331432	-171.310097	-76.478057	-95.912765
08722		10.221702	-0.952458	-2.018333	-0.019658	0.025597	-0.333396	-172.093591	-76.518412	-95.116977
08723		10.310364	-0.902110	-1.890626	0.031383	0.062642	-0.313038	-172.790561	-76.575794	-94.380023
08724		10.132745	-0.844838	-1.868231	0.067083	0.086619	-0.272952	-173.372540	-76.642226	-93.740645
08725		9.801759	-0.681846	-1.877794	0.077390	0.076775	-0.216940	-173.820000	-76.698048	-93.233395
08726		9.534690	-0.481898	-1.936454	0.055534	0.045505	-0.158536	-174.152264	-76.731865	-92.857664
08727		9.300717	-0.374573	-2.149146	0.010326	0.017338	-0.123608	-174.432246	-76.747058	-92.562101
08728		9.143655	-0.301248	-2.272537	-0.044128	-0.003276	-0.104710	-174.704793	-76.749261	-92.306432
08729		9.160025	-0.321444	-2.473141	-0.090402	-0.010927	-0.098222	-174.987951	-76.746362	-92.066909
08730		9.166890	-0.377812	-2.555845	-0.123179	-0.009515	-0.101864	-175.300165	-76.744260	-91.817009
08731		9.110376	-0.461304	-2.561485	-0.130497	0.002426	-0.105981	-175.622373	-76.748750	-91.560967
08732		9.110604	-0.403310	-2.351242	-0.110839	-0.004242	-0.111883	-175.950766	-76.749411	-91.287176
08733		9.215932	-0.323453	-2.217099	-0.086676	-0.020129	-0.115017	-176.273686	-76.740691	-91.004606
08734		9.342561	-0.209299	-2.162016	-0.071429	-0.031888	-0.113243	-176.586583	-76.724876	-90.723510
08735		9.520518	-0.077895	-2.314927	-0.085542	-0.041000	-0.097412	-176.868016	-76.702947	-90.482865
08736		9.374009	-0.008672	-2.401289	-0.125549	-0.027198	-0.072823	-177.112048	-76.687968	-90.304351
08737		9.081071	0.028470	-2.503356	-0.180933	-0.035265	-0.052586	-177.337660	-76.667598	-90.177202
08738		8.796593	0.044044	-2.537723	-0.231181	-0.072355	-0.044695	-177.578076	-76.625705	-90.064574
08739		8.642719	0.002210	-2.472209	-0.285609	-0.092690	-0.033361	-177.821541	-76.571775	-89.980684
08740		8.889231	-0.128716	-2.440713	-0.304586	-0.150926	-0.041412	-178.100343	-76.484571	-89.871776
08741		9.697221	-0.226924	-2.515039	-0.315191	-0.168389	-0.049906	-178.402343	-76.387394	-89.745048
08742		10.138539	-0.370821	-2.372360	-0.356854	-0.074946	-0.048321	-178.717782	-76.343533	-89.629179
08743		10.121696	-0.542157	-2.168245	-0.365312	-0.004253	-0.037672	-179.006823	-76.339930	-89.545291
08744		9.991162	-0.615141	-1.928931	-0.319290	0.004929	-0.030090	-179.252760	-76.341416	-89.478773
08745		9.943262	-0.729493	-1.809350	-0.266937	-0.000008	-0.035325	-179.479652	-76.340056	-89.400836
08746		10.145104	-0.814795	-1.872072	-0.176983	-0.026001	-0.050749	-179.693053	-76.323820	-89.283874
08747		10.200091	-0.748902	-2.079467	-0.091433	-0.009009	-0.044168	-179.840134	-76.317194	-89.184580
08748		9.885910	-0.556945	-2.136029	-0.041470	0.031836	-0.036504	-179.941436	-76.333969	-89.103056
08749		9.420392	-0.328801	-2.182742	-0.004195	0.023695	-0.040106	179.971024	-76.345991	-89.013605
08750		9.099122	-0.083894	-2.246077	0.008907	-0.008469	-0.066573	179.827633	-76.339584	-88.859057
08751		9.050004	-0.016872	-2.255734	-0.002799	-0.036539	-0.101635	179.596500	-76.316806	-88.620999
08752		9.213134	0.032968	-2.382606	-0.029097	-0.055250	-0.134245	179.274101	-76.282915	-88.304583
08753		9.415897	0.088572	-2.358904	-0.091990	-0.045918	-0.152315	178.875505	-76.253671	-87.946679
08754		9.334868	-0.073098	-2.385946	-0.164247	-0.019821	-0.169501	178.394400	-76.238542	-87.546521
08755		9.115838	-0.307781	-2.329974	-0.174137	0.007115	-0.180822	177.880841	-76.237752	-87.118668
08756		8.960428	-0.403101	-2.382519	-0.142139	-0.002566	-0.192052	177.359626	-76.230275	-86.664142
08757		9.005851	-0.475730	-2.379733	-0.096664	-0.027969	-0.203005	176.843584	-76.206925	-86.187994
08758		9.205006	-0.339848	-2.390004	-0.026956	-0.049698	-0.214847	176.344157	-76.169769	-85.687837
08759		9.421628	-0.158311	-2.328132	0.002135	-0.061956	-0.232723	175.825477	-76.123819	-85.150522
08760		9.605887	-0.003875	-2.289923	0.013533	-0.061711	-0.253071	175.269336	-76.075923	-84.567840
08761		9.683254	0.217113	-2.239553	-0.004593	-0.053270	-0.272065	174.661980	-76.030448	-83.942909
08762		9.629985	0.309532	-2.100627	-0.044896	-0.039953	-0.286904	173.997997	-75.990087	-83.283361
08763		9.623584	0.448208	-1.925874	-0.126501	-0.028271	-0.291119	173.279037	-75.954162	-82.615171
08764		9.702150	0.436128	-1.929055	-0.242260	-0.025968	-0.283935	172.512457	-75.918008	-81.966225
08765		9.644515	0.326625	-2.031376	-0.358187	-0.001886	-0.280559	171.683599	-75.893548	-81.321399
08766		9.484940	0.178890	-2.147576	-0.441299	0.020840	-0.280785	170.800509	-75.879669	-80.669773
08767		9.334384	-0.035218	-2.289464	-0.471823	0.027945	-0.289708	169.879399	-75.866372	-79.996864
08768		9.289211	-0.192322	-2.385782	-0.451819	0.029538	-0.304171	168.937870	-75.849864	-79.291101
08769		9.327981	-0.361480	-2.423444	-0.435149	0.019826	-0.318568	167.981089	-75.823320	-78.559624
08770		9.287622	-0.473393	-2.429062	-0.402439	0.022364	-0.332416	167.014160	-75.793558	-77.798301
08771		9.202852	-0.607605	-2.348125	-0.366313	0.033233	-0.350665	166.026134	-75.764154	-76.993718
08772		9.171921	-0.622772	-2.283813	-0.321414	0.030933	-0.370674	165.025410	-75.727272	-76.149384
08773		9.097222	-0.498919	-2.335767	-0.289976	0.027946	-0.396320	163.994142	-75.681047	-75.254775
08774		9.087662	-0.421851	-2.311881	-0.256420	0.007846	-0.431767	162.926112	-75.614066	-74.302127
08775		9.205580	-0.330780	-2.315749	-0.205719	-0.018669	-0.475366	161.822688	-75.520472	-73.282615
08776		9.470156	-0.139614	-2.326924	-0.165629	-0.032992	-0.524919	160.663995	-75.405103	-72.181744
08777		9.614986	-0.021722	-2.340536	-0.151470	-0.042313	-0.570568	159.444763	-75.269954	-71.009338
08778		9.664216	0.166521	-2.418068	-0.129794	-0.033072	-0.608067	158.178182	-75.125721	-69.774282
08779		9.452902	0.274127	-2.417944	-0.134237	-0.009320	-0.633977	156.861998	-74.981156	-68.489772
08780		9.430466	0.218672	-2.292111	-0.151291	0.007776	-0.644360	155.527293	-74.835702	-67.195229
08781		9.809454	-0.139121	-2.359810	-0.153722	-0.020518	-0.648679	154.233436	-74.666647	-65.943603
08782		10.390318	-0.507780	-2.501386	-0.074324	-0.060692	-0.623995	153.097080	-74.476511	-64.806970
08783		10.759934	-0.433859	-2.662643	0.047453	-0.065527	-0.566613	152.164693	-74.293383	-63.808772
08784		10.580203	-0.165479	-2.531554	0.073431	-0.018005	-0.510659	151.323669	-74.145568	-62.889061
08785		10.170050	-0.164825	-2.381354	0.057728	0.018574	-0.459587	150.541490	-74.026471	-62.039463
08786		9.818149	-0.081626	-2.266736	0.115254	0.033349	-0.416834	149.864622	-73.924292	-61.264453
08787		9.509871	0.226645	-2.212103	0.158435	0.044797	-0.364082	149.297943	-73.840398	-60.578242
08788		9.173310	0.566002	-2.324085	0.145577	0.052034	-0.327878	148.785779	-73.769361	-59.955952
08789		8.892767	0.760089	-2.564684	0.126443	0.032647	-0.317478	148.303098	-73.690030	-59.375806
08790		8.763278	0.997347	-2.599676	0.121064	0.014070	-0.319444	147.840567	-73.600174	-58.819351
08791		8.574969	1.190540	-2.562209	0.105068	-0.002751	-0.335003	147.364716	-73.495676	-58.258556
08792		8.583329	1.268421	-2.549742	0.088044	-0.055145	-0.363040	146.897668	-73.356380	-57.716484
08793		8.846008	1.284541	-2.697507	0.085335	-0.102188	-0.385350	146.449580	-73.185868	-57.195678
08794		9.151228	1.174932	-2.773810	0.097425	-0.134197	-0.411054	146.013797	-72.991198	-56.679693
08795		9.470736	1.052191	-2.845037	0.098420	-0.152616	-0.441677	145.559887	-72.776346	-56.143878
08796		9.890889	0.864613	-2.886766	0.102739	-0.178457	-0.469500	145.108109	-72.539437	-55.606727
08797		10.175612	0.973649	-2.927900	0.115676	-0.174227	-0.490441	144.639749	-72.295897	-55.044020
08798		10.355148	1.225744	-2.842970	0.086378	-0.156552	-0.504807	144.131946	-72.054810	-54.456398
08799		10.180625	1.478642	-2.704635	0.034960	-0.122336	-0.518067	143.553051	-71.822915	-53.824558
08800		10.034127	1.710028	-2.665071	-0.019725	-0.096266	-0.515846	142.936437	-71.602204	-53.184794
08801		9.983832	1.968240	-2.669058	-0.081926	-0.066570	-0.492982	142.296895	-71.400286	-52.558024
08802		9.927114	2.084381	-2.663017	-0.118357	-0.009105	-0.458049	141.638392	-71.234900	-51.932217
08803		9.803003	2.168052	-2.583410	-0.147734	0.038639	-0.424841	140.965033	-71.099928	-51.308322
08804		9.686081	2.158480	-2.630106	-0.169298	0.068393	-0.381498	140.314519	-70.992085	-50.720814
08805		9.569477	2.164715	-2.551855	-0.174583	0.081778	-0.340036	139.703879	-70.902770	-50.178723
08806		9.423345	2.192972	-2.430769	-0.182833	0.052773	-0.287025	139.193240	-70.819367	-49.746831
08807		9.456795	2.279884	-2.445582	-0.205366	0.037848	-0.224928	138.764485	-70.751182	-49.415501
08808		9.513215	2.443576	-2.398596	-0.242181	0.067026	-0.166648	138.358920	-70.717360	-49.130612
08809		9.491090	2.548652	-2.382187	-0.305116	0.118323	-0.107633	137.932145	-70.726782	-48.861798
08810		9.337679	2.547390	-2.322126	-0.374461	0.147979	-0.067091	137.483475	-70.764245	-48.611566
08811		9.199803	2.546922	-2.278082	-0.439846	0.170807	-0.022463	137.022345	-70.827489	-48.388238
08812		9.081458	2.492093	-2.229184	-0.472088	0.174572	0.014944	136.583079	-70.906907	-48.207368
08813		9.020248	2.432981	-2.140016	-0.490416	0.182463	0.053295	136.165958	-71.003799	-48.061464
08814		9.145485	2.536986	-2.125897	-0.502589	0.199964	0.083412	135.756599	-71.120049	-47.930916
08815		9.247618	2.565754	-1.987829	-0.528090	0.229787	0.108081	135.321935	-71.257576	-47.789489
08816		9.275978	2.470556	-1.895434	-0.554237	0.263612	0.129762	134.855168	-71.417727	-47.629815
08817		9.204180	2.241371	-1.903417	-0.568146	0.306232	0.151738	134.347601	-71.603054	-47.435983
08818		9.202286	2.198661	-1.847430	-0.535044	0.347633	0.168797	133.822488	-71.811844	-47.203639
08819		9.100155	1.991504	-1.809842	-0.521743	0.367647	0.177003	133.279078	-72.030748	-46.944594
08820		8.963895	1.874499	-1.810406	-0.481840	0.348091	0.195539	132.798774	-72.249558	-46.727883
08821		8.847987	1.647621	-1.795256	-0.414555	0.317287	0.216355	132.413734	-72.464170	-46.571213
08822		8.706602	1.548645	-1.741279	-0.319213	0.311509	0.239804	132.115514	-72.686750	-46.448207
08823		8.691431	1.639776	-1.640521	-0.237299	0.277804	0.260649	131.930073	-72.904577	-46.394543
08824		8.878285	1.792486	-1.716466	-0.159404	0.255005	0.279815	131.844453	-73.122382	-46.398384
08825		9.059752	1.707402	-1.950739	-0.103031	0.261482	0.297273	131.801577	-73.349554	-46.413395
08826		9.193071	1.582871	-2.010151	-0.057359	0.282884	0.303929	131.764127	-73.588316	-46.406482
08827		9.219361	1.412450	-1.878215	-0.051990	0.288246	0.322816	131.744211	-73.836622	-46.414908
08828		9.271932	1.259581	-1.751002	-0.050268	0.287633	0.354115	131.769920	-74.098661	-46.469491
08829		9.206762	1.226025	-1.656430	-0.030304	0.288317	0.391219	131.856079	-74.376203	-46.575204
08830		9.143039	1.155844	-1.569826	-0.005479	0.272378	0.417228	132.023265	-74.659284	-46.749805
08831		9.108178	1.148812	-1.542178	0.030968	0.252801	0.439313	132.278119	-74.943425	-46.993661
08832		9.067161	1.138581	-1.425492	0.031134	0.235528	0.481691	132.634911	-75.239110	-47.342282
08833		9.040965	0.920591	-1.439646	0.033867	0.248385	0.555871	133.096804	-75.569661	-47.797681
08834		8.933374	0.833289	-1.359916	-0.014380	0.262050	0.651616	133.683012	-75.945078	-48.408837
08835		8.914361	0.771575	-1.521010	-0.091681	0.272235	0.742990	134.387555	-76.359798	-49.186729
08836		8.853333	0.646420	-1.664538	-0.173134	0.287442	0.843072	135.241181	-76.819482	-50.164112
08837		8.795497	0.541952	-1.668457	-0.251778	0.316242	0.923243	136.207917	-77.318701	-51.302172
08838		8.658381	0.381397	-1.587151	-0.308194	0.309796	0.981509	137.356297	-77.834018	-52.656741
08839		8.542381	0.293014	-1.441023	-0.297268	0.270339	1.031308	138.792907	-78.344204	-54.297189
08840		8.486399	0.329312	-1.154573	-0.254288	0.232665	1.087688	140.594245	-78.849766	-56.281251
08841		8.501342	0.341756	-0.877115	-0.227901	0.216281	1.153270	142.772145	-79.356710	-58.630266
08842		8.668619	0.377445	-0.691932	-0.158758	0.173802	1.220225	145.470795	-79.847763	-61.464258
08843		9.025710	0.248012	-0.664916	-0.065803	0.109488	1.300348	148.832209	-80.304491	-64.913137
08844		9.526440	0.126305	-0.804305	0.092970	0.074791	1.381859	152.924073	-80.727641	-69.005480
08845		10.152045	0.004873	-0.760497	0.282554	0.091572	1.440456	157.659776	-81.119960	-73.635385
08846		10.737402	-0.092579	-0.839997	0.442842	0.143339	1.477023	162.966309	-81.482366	-78.744739
08847		11.234026	-0.271580	-1.099314	0.584258	0.168129	1.497578	168.818428	-81.784229	-84.319534
08848		11.607686	-0.285981	-1.316551	0.630533	0.165931	1.495203	175.067032	-81.997734	-90.264064
08849		11.618953	-0.145426	-1.225729	0.576409	0.195423	1.496218	-178.459746	-82.133725	-96.464476
08850		11.316019	0.224498	-1.253936	0.555384	0.216794	1.530325	-171.694997	-82.180650	-102.969605
08851		11.069434	0.625900	-1.482507	0.582151	0.186443	1.585660	-164.745283	-82.097704	-109.646580
08852		10.983627	0.888774	-1.586016	0.577063	0.188683	1.613025	-157.915653	-81.901667	-116.207170
08853		11.011274	0.981535	-1.529666	0.511166	0.178121	1.568763	-151.698335	-81.608813	-122.191543
08854		11.418449	0.794608	-1.518198	0.362828	0.128579	1.485376	-146.386404	-81.231116	-127.351149
08855		12.090156	0.578322	-1.488344	0.236776	0.119818	1.409207	-141.849246	-80.810830	-131.805358
08856		12.187004	0.500716	-1.395012	0.131376	0.172769	1.350785	-137.806695	-80.384069	-135.824517
08857		11.747019	0.242446	-1.418739	0.024529	0.182704	1.327271	-134.216492	-79.928594	-139.452227
08858		11.073396	-0.135276	-1.244631	-0.031377	0.160809	1.327770	-131.026765	-79.428065	-142.710590
08859		10.349177	-0.471432	-0.713343	-0.117403	0.137810	1.357344	-128.187165	-78.876631	-145.668471
08860		9.956256	-0.802477	-0.406124	-0.237489	0.075057	1.393321	-125.773758	-78.261708	-148.267457
08861		9.758164	-1.241786	-0.339107	-0.278736	0.025626	1.408067	-123.725063	-77.604661	-150.523882
08862		9.660021	-1.683903	-0.441542	-0.205633	0.010661	1.399370	-121.894103	-76.931121	-152.519705
08863		9.595838	-2.108156	-0.605173	-0.031603	0.021737	1.382096	-120.154785	-76.256464	-154.324487
08864		9.578615	-2.420544	-0.863853	0.141296	0.038056	1.355358	-118.479210	-75.587107	-155.966387
08865		9.671346	-2.591638	-1.099843	0.306809	0.058758	1.323902	-116.851762	-74.928499	-157.465583
08866		9.691751	-2.729675	-1.266297	0.485295	0.091833	1.283563	-115.227255	-74.287901	-158.860008
08867		9.651579	-2.838630	-1.454846	0.668930	0.084380	1.229807	-113.675660	-73.664116	-160.073681
08868		9.452056	-2.590458	-1.091820	0.804263	0.040283	1.167019	-112.269183	-73.054592	-161.058557
08869		9.051045	-1.801319	0.026652	0.708352	0.054256	1.034015	-111.064834	-72.513171	-161.892622
08870		9.120744	-0.731733	1.786155	0.260700	-0.102890	1.014594	-110.443529	-71.945845	-162.386070
08871		10.063953	-3.017517	-2.061633	-0.244389	-0.400373	1.105398	-110.563242	-71.269990	-162.405596
08872		10.937358	-5.153624	-6.033849	1.850653	0.074541	1.073575	-108.784021	-70.702425	-163.163790
08873		10.203039	-1.898684	-0.881499	1.785909	0.544155	0.979749	-106.444106	-70.259469	-164.558814
08874		9.201009	-2.211109	-0.039897	0.741037	0.463006	0.928869	-104.919967	-69.816025	-165.726519
08875		9.107289	-2.259394	-0.181018	0.650478	0.196035	0.948237	-103.893494	-69.315565	-166.422283
08876		9.441769	-1.656785	0.230474	0.488446	-0.011789	0.978945	-103.286457	-68.766156	-166.770501
08877		9.644743	-1.796844	-0.413697	0.216929	-0.056298	0.991538	-102.916199	-68.203362	-167.032969
08878		9.499750	-2.104866	-0.937574	0.175451	-0.046232	0.968799	-102.577040	-67.653629	-167.288327
08879		9.317568	-2.103272	-0.777575	0.209214	-0.035732	0.911013	-102.236752	-67.137302	-167.525150
08880		9.321250	-2.048286	-0.499203	0.155857	-0.024286	0.852042	-101.939457	-66.654659	-167.749142
08881		9.352266	-2.225089	-0.373993	0.088013	0.014409	0.791358	-101.658804	-66.210378	-167.998370
08882		9.200045	-2.419458	-0.160017	-0.021705	0.077778	0.744284	-101.381542	-65.799181	-168.313330
08883		8.923535	-2.714292	-0.150613	-0.141139	0.109465	0.681996	-101.159069	-65.426095	-168.644426
08884		8.666730	-3.039782	-0.281002	-0.194570	0.099939	0.635175	-100.996602	-65.077807	-168.943926
08885		8.619283	-3.203989	-0.394661	-0.192511	0.087702	0.581942	-100.867134	-64.757843	-169.206688
08886		8.592697	-3.296401	-0.484068	-0.156401	0.118792	0.526560	-100.696493	-64.472119	-169.492589
08887		8.494590	-3.416920	-0.410816	-0.131669	0.167121	0.465589	-100.474584	-64.225377	-169.820468
08888		8.207391	-3.678294	-0.685517	-0.062292	0.207992	0.390654	-100.185378	-64.024508	-170.179389
08889		8.019132	-3.859082	-0.863964	0.094447	0.243526	0.300262	-99.789790	-63.877180	-170.557487
08890		7.929105	-3.750247	-0.624132	0.182946	0.257893	0.208881	-99.347608	-63.781707	-170.931202
08891		7.710827	-3.664317	-0.278273	0.179494	0.250599	0.110286	-98.937542	-63.740057	-171.271731
08892		7.497122	-3.510603	0.072570	0.112983	0.211441	0.024296	-98.625462	-63.742792	-171.545353
08893		7.481894	-3.478741	0.094906	0.056804	0.145060	-0.070556	-98.439072	-63.793037	-171.714871
08894		7.616938	-3.351543	-0.041177	0.040033	0.113116	-0.155451	-98.311600	-63.888613	-171.829137
08895		7.806083	-3.259581	0.067412	-0.028655	0.105063	-0.220156	-98.244117	-64.020047	-171.920537
08896		7.925358	-3.341203	-0.020690	-0.096394	0.132522	-0.257391	-98.187548	-64.174910	-172.042623
08897		7.686824	-3.469142	-0.032981	-0.069459	0.180895	-0.281059	-98.062602	-64.346922	-172.223531
08898		7.326126	-3.436897	0.121005	-0.020558	0.214604	-0.306157	-97.870113	-64.535763	-172.447759
08899		7.009675	-3.366957	0.407824	-0.087792	0.249857	-0.336988	-97.677201	-64.744385	-172.714934
08900		6.834891	-3.555646	0.265562	-0.242173	0.193095	-0.377195	-97.643174	-64.971404	-172.903594
08901		6.677385	-4.018126	-0.176753	-0.265211	0.095459	-0.419451	-97.748720	-65.214846	-172.952795
08902		6.598410	-4.425688	-0.581244	-0.158064	-0.063252	-0.458287	-97.995220	-65.468027	-172.779003
08903		6.998508	-4.911873	-0.854647	-0.104843	-0.301180	-0.461047	-98.516099	-65.702616	-172.270985
08904		7.859964	-5.302987	-0.989343	-0.103642	-0.487742	-0.453829	-99.278956	-65.914218	-171.497579
08905		8.625342	-5.619720	-1.051927	-0.116532	-0.538072	-0.470312	-100.131999	-66.125773	-170.635079
08906		9.363453	-5.580869	-1.022615	-0.169890	-0.548878	-0.499886	-101.050291	-66.347301	-169.735870
08907		9.883888	-5.394238	-0.918186	-0.285737	-0.507656	-0.554206	-102.015293	-66.598153	-168.859992
08908		10.099149	-5.308101	-0.607581	-0.480889	-0.381407	-0.591734	-102.956829	-66.879616	-168.132850
08909		10.041222	-5.529762	-0.572694	-0.691264	-0.302872	-0.553642	-103.925354	-67.145642	-167.509078
08910		9.834730	-5.666976	-0.609481	-0.815892	-0.203483	-0.463442	-104.818384	-67.371520	-167.045422
08911		9.562597	-5.916116	-0.799535	-0.880571	-0.055821	-0.375831	-105.533894	-67.568775	-166.815080
08912		9.385482	-6.141674	-0.866834	-0.799329	0.103014	-0.322161	-105.974218	-67.759914	-166.831917
08913		9.259848	-6.304623	-0.894320	-0.625829	0.208561	-0.302413	-106.169117	-67.957280	-167.006697
08914		9.302933	-6.273521	-0.853549	-0.478771	0.224955	-0.291557	-106.250455	-68.150966	-167.212467
08915		9.197115	-5.496278	-1.017651	-0.531703	0.220351	-0.272932	-106.362163	-68.334285	-167.418281
08916		8.838526	-4.459575	-1.670228	-0.762100	0.082839	-0.277754	-106.796921	-68.497498	-167.418007
08917		8.939769	-3.845363	-2.276511	-0.771602	-0.120974	-0.337623	-107.554029	-68.659616	-167.077703
08918		9.863160	-2.993931	-1.980270	-0.424577	-0.238098	-0.459897	-108.338467	-68.865332	-166.494805
08919		10.359909	-2.163992	-1.582063	-0.323646	-0.207954	-0.604723	-109.108406	-69.152978	-165.866848
08920		9.738514	-1.962619	-0.801810	-0.389308	-0.105351	-0.722387	-109.846598	-69.520188	-165.314049
08921		9.544341	-2.562374	0.242039	-0.609830	-0.139768	-0.774570	-110.816732	-69.906235	-164.650375
08922		10.047324	-4.334861	0.301180	-0.839287	-0.096466	-0.724288	-111.854544	-70.269880	-164.055802
08923		10.070580	-6.314120	-0.039569	-0.660251	-0.024644	-0.598967	-112.635248	-70.579872	-163.626818
08924		9.917100	-7.423521	0.115745	-0.223416	-0.101290	-0.426695	-113.184538	-70.779592	-163.178122
08925		9.603874	-7.479435	-0.086281	0.146682	-0.110684	-0.263136	-113.439964	-70.890634	-162.816847
08926		9.325846	-6.521054	-0.914339	0.468453	-0.093761	-0.142564	-113.404535	-70.941133	-162.567958
08927		9.770361	-4.888413	-2.165428	0.651468	-0.266880	-0.110508	-113.510404	-70.936026	-162.059141
08928		10.358353	-3.073025	-3.052013	0.624495	-0.395418	-0.171973	-113.863826	-70.931995	-161.304217
08929		10.217816	-1.485851	-3.232422	0.522983	-0.433741	-0.284625	-114.414444	-70.976853	-160.402827
08930		9.797341	-0.364021	-2.766355	0.431268	-0.481156	-0.404870	-115.174637	-71.068631	-159.335270
08931		9.657074	0.032496	-2.018715	0.368881	-0.518313	-0.513486	-116.119500	-71.202975	-158.111545
08932		9.875483	-0.356583	-1.239188	0.307750	-0.489789	-0.571977	-117.113935	-71.367212	-156.873126
08933		10.071151	-0.931455	-0.672176	0.283819	-0.447510	-0.584058	-118.090622	-71.542610	-155.669545
08934		10.294242	-1.269905	-0.399298	0.265305	-0.384400	-0.558753	-118.978339	-71.715814	-154.571729
08935		10.272447	-1.426616	-0.339523	0.305171	-0.247187	-0.514821	-119.618191	-71.901372	-153.712289
08936		10.071502	-1.320430	-0.644187	0.267380	-0.144363	-0.484755	-120.107650	-72.098363	-153.034323
08937		9.820189	-1.254955	-1.203760	0.169805	-0.077771	-0.474727	-120.557587	-72.308239	-152.457719
08938		9.509927	-1.038962	-1.744076	0.150631	-0.037930	-0.485563	-120.975562	-72.533608	-151.926532
08939		9.016981	-0.676650	-2.012547	0.176591	-0.013247	-0.510950	-121.379858	-72.777757	-151.395110
08940		8.787754	-0.298202	-2.121452	0.177037	-0.052619	-0.548302	-121.893845	-73.026942	-150.749082
08941		8.764764	-0.114165	-2.240924	0.103771	-0.094055	-0.587959	-122.577676	-73.280752	-149.970606
08942		8.887783	-0.229828	-2.336247	-0.017216	-0.097933	-0.624547	-123.396145	-73.547996	-149.124813
08943		8.869695	-0.633248	-2.334430	-0.130242	-0.085437	-0.629210	-124.294648	-73.817751	-148.264501
08944		8.782182	-1.040571	-2.365105	-0.163655	-0.103444	-0.610497	-125.247270	-74.068999	-147.368757
08945		8.844446	-1.342680	-2.229766	-0.129624	-0.162592	-0.584092	-126.277216	-74.283707	-146.373588
08946		8.913029	-1.531503	-2.149631	-0.106750	-0.212439	-0.540783	-127.346910	-74.456586	-145.324345
08947		8.979954	-1.599308	-2.032589	-0.054342	-0.255861	-0.504507	-128.435687	-74.592257	-144.225066
08948		9.098018	-1.424797	-1.818461	-0.012161	-0.273068	-0.480425	-129.512839	-74.705607	-143.113320
08949		9.230252	-1.240272	-1.722666	-0.006933	-0.254060	-0.472232	-130.563064	-74.816701	-142.027093
08950		9.332907	-1.187273	-1.660973	-0.031572	-0.217012	-0.469995	-131.578892	-74.935826	-140.991612
08951		9.338536	-1.233764	-1.567516	-0.035802	-0.193013	-0.448121	-132.545200	-75.049942	-140.010575
08952		9.366922	-1.217589	-1.463828	-0.038399	-0.181247	-0.420371	-133.466211	-75.153097	-139.078364
08953		9.405247	-1.246650	-1.472513	-0.056271	-0.156588	-0.393821	-134.333040	-75.251060	-138.213302
08954		9.393118	-1.269172	-1.555090	-0.088035	-0.138005	-0.367675	-135.158544	-75.342924	-137.410087
08955		9.338877	-1.293476	-1.672387	-0.112372	-0.144899	-0.347154	-135.987681	-75.420459	-136.617907
08956		9.421513	-1.217505	-1.785980	-0.172898	-0.153875	-0.325989	-136.837985	-75.483324	-135.839883
08957		9.424200	-1.279573	-2.043427	-0.230412	-0.136968	-0.306079	-137.671645	-75.542321	-135.113355
08958		9.319492	-1.354158	-2.100972	-0.207347	-0.123567	-0.285925	-138.443461	-75.597133	-134.437183
08959		9.225822	-1.324475	-2.034648	-0.158443	-0.135585	-0.269905	-139.184368	-75.638110	-133.764182
08960		9.220943	-1.261992	-2.026891	-0.139583	-0.160884	-0.263760	-139.943169	-75.663956	-133.061624
08961		9.210355	-1.309376	-2.012425	-0.119948	-0.164865	-0.256589	-140.687602	-75.682757	-132.362387
08962		9.208719	-1.254897	-2.096552	-0.077177	-0.167214	-0.269853	-141.434830	-75.703413	-131.635012
08963		9.139737	-1.199761	-2.044674	-0.020643	-0.151864	-0.266522	-142.125567	-75.727158	-130.932603
08964		9.092789	-1.025472	-1.984729	0.038484	-0.129821	-0.285477	-142.787700	-75.765868	-130.224833
08965		9.182740	-0.814657	-1.815632	0.035784	-0.120393	-0.307675	-143.483640	-75.814079	-129.483937
08966		9.342166	-0.722479	-1.955028	-0.009932	-0.097184	-0.344003	-144.246050	-75.883387	-128.701696
08967		9.544591	-0.780204	-2.107235	-0.019484	-0.091693	-0.391618	-145.104376	-75.967921	-127.826477
08968		9.741372	-0.819112	-2.076968	-0.024419	-0.080658	-0.432499	-146.039247	-76.067997	-126.875661
08969		9.831520	-0.874740	-2.068003	-0.007105	-0.073040	-0.453610	-147.009566	-76.174126	-125.878519
08970		9.939876	-0.895377	-2.204233	0.030267	-0.071974	-0.460012	-147.984305	-76.279109	-124.855264
08971		9.911055	-0.880901	-2.327730	0.085591	-0.073218	-0.455288	-148.934534	-76.377518	-123.825021
08972		9.757178	-0.797205	-2.211950	0.141844	-0.084196	-0.429065	-149.825411	-76.459378	-122.823120
08973		9.664139	-0.744779	-2.013796	0.146660	-0.083796	-0.401785	-150.667444	-76.529670	-121.868887
08974		9.516198	-0.702365	-1.921024	0.104014	-0.070840	-0.382789	-151.488165	-76.598404	-120.962025
08975		9.320897	-0.813177	-1.948357	0.072304	-0.059605	-0.373952	-152.304204	-76.666964	-120.078849
08976		9.243095	-0.799438	-1.922074	0.054997	-0.067651	-0.382649	-153.166580	-76.731171	-119.158560
08977		9.345748	-0.847113	-2.029310	0.026872	-0.056023	-0.398580	-154.075917	-76.801662	-118.206768
08978		9.342293	-0.917606	-2.156697	0.003712	-0.041177	-0.410839	-155.020455	-76.879777	-117.232819
08979		9.328193	-0.925742	-2.046437	0.015527	-0.046366	-0.413495	-155.980278	-76.951665	-116.236450
08980		9.367742	-0.870333	-1.836027	0.035726	-0.075767	-0.411644	-156.963684	-77.004294	-115.204326
08981		9.547614	-0.851184	-2.012452	0.022400	-0.068853	-0.405417	-157.941342	-77.054781	-114.186071
08982		9.635957	-0.859108	-2.228603	0.018894	-0.064982	-0.401375	-158.916002	-77.103024	-113.173236
08983		9.503800	-0.854647	-2.308155	0.041551	-0.064944	-0.384362	-159.844186	-77.143643	-112.194857
08984		9.409234	-0.787707	-2.266999	0.049031	-0.067046	-0.362812	-160.724846	-77.175940	-111.261051
08985		9.096172	-0.861205	-1.893553	0.035207	-0.049080	-0.336604	-161.540195	-77.209625	-110.402384
08986		9.204118	-1.034110	-2.027029	0.053740	-0.136038	-0.320537	-162.377376	-77.190743	-109.510546
08987		9.563630	-0.981626	-2.532014	0.035415	-0.069902	-0.327347	-163.190150	-77.205963	-108.654417
08988		9.474954	-0.793828	-2.674516	0.061302	-0.006941	-0.291348	-163.858912	-77.247853	-107.930916
08989		9.468387	-0.736135	-2.651438	0.075482	-0.008366	-0.241364	-164.402183	-77.279053	-107.327772
08990		9.415154	-0.776207	-2.661734	0.132915	-0.015094	-0.216288	-164.858639	-77.301898	-106.780026
08991		9.413991	-0.657655	-2.481998	0.228700	-0.052583	-0.222121	-165.299884	-77.303572	-106.191571
08992		9.533650	-0.532000	-2.427360	0.332504	-0.087387	-0.222048	-165.703797	-77.285267	-105.580465
08993		9.753550	-0.180554	-2.365866	0.450990	-0.088320	-0.226951	-166.050472	-77.265958	-104.958328
08994		9.831520	0.181480	-2.323732	0.438933	-0.056034	-0.218550	-166.363440	-77.262948	-104.377878
08995		9.661206	0.256034	-2.463685	0.335121	-0.030947	-0.207157	-166.692375	-77.271410	-103.841969
08996		9.443599	0.245061	-2.542631	0.250993	-0.027057	-0.204258	-167.061612	-77.281206	-103.314269
08997		9.245180	0.217384	-2.481873	0.199003	-0.045477	-0.206723	-167.476603	-77.279964	-102.770121
08998		9.239326	0.153928	-2.393866	0.150435	-0.060112	-0.215576	-167.950155	-77.270915	-102.194560
08999		9.353069	0.183811	-2.372244	0.085899	-0.070489	-0.226747	-168.491681	-77.255995	-101.587086
09000		9.548341	0.075438	-2.498035	-0.000546	-0.060609	-0.226325	-169.076920	-77.245481	-100.985667
09001		9.609299	-0.135860	-2.568423	-0.057838	-0.029245	-0.215038	-169.650204	-77.249881	-100.430032
09002		9.583786	-0.353193	-2.612621	-0.052976	-0.022982	-0.185612	-170.146435	-77.253897	-99.950681
09003		9.532258	-0.455103	-2.558026	-0.014608	-0.025378	-0.169998	-170.581368	-77.254019	-99.511512
09004		9.466983	-0.583109	-2.606575	0.039728	-0.031912	-0.152045	-170.944403	-77.248269	-99.114261
09005		9.464706	-0.599701	-2.672001	0.096781	-0.034533	-0.145570	-171.257647	-77.239797	-98.734406
09006		9.473316	-0.550565	-2.731265	0.147114	-0.041811	-0.139645	-171.530968	-77.226371	-98.366021
09007		9.464537	-0.492678	-2.680741	0.176657	-0.042638	-0.137977	-171.781315	-77.211861	-98.003696
09008		9.394919	-0.359090	-2.587248	0.186361	-0.038147	-0.138902	-172.027614	-77.199686	-97.639914
09009		9.347648	-0.250400	-2.444331	0.181761	-0.030575	-0.146235	-172.290272	-77.191966	-97.261931
09010		9.350468	-0.108054	-2.356448	0.161399	-0.031704	-0.162602	-172.606916	-77.184440	-96.840650
09011		9.390763	-0.077450	-2.235146	0.127467	-0.021334	-0.170614	-172.957919	-77.182817	-96.403949
09012		9.360658	-0.062267	-2.197854	0.124994	-0.007873	-0.182734	-173.338156	-77.189072	-95.938841
09013		9.330726	-0.045752	-2.159781	0.099820	-0.004174	-0.192946	-173.756268	-77.197364	-95.449581
09014		9.323579	-0.092572	-2.225407	0.081960	-0.009741	-0.212704	-174.237752	-77.202817	-94.905960
09015		9.400002	-0.252802	-2.315645	0.088244	-0.020116	-0.235706	-174.774619	-77.202545	-94.301740
09016		9.458167	-0.429292	-2.358463	0.099901	-0.023111	-0.260231	-175.368576	-77.200435	-93.632242
09017		9.458627	-0.586848	-2.291917	0.115068	-0.005822	-0.268158	-175.968887	-77.207019	-92.947204
09018		9.377454	-0.717312	-2.196262	0.125791	-0.002447	-0.267491	-176.562928	-77.213888	-92.262423
09019		9.335356	-0.796155	-2.165031	0.128839	-0.011308	-0.267901	-177.156476	-77.214170	-91.576258
09020		9.372553	-0.921634	-2.133817	0.161265	-0.031321	-0.255811	-177.704130	-77.201122	-90.918178
09021		9.650370	-0.894087	-2.262658	0.259541	-0.072191	-0.265709	-178.220917	-77.163575	-90.233849
09022		9.913090	-0.718048	-2.254493	0.332711	-0.068109	-0.258627	-178.675306	-77.126908	-89.570491
09023		9.775377	-0.547030	-2.214594	0.376626	-0.031368	-0.242820	-179.059554	-77.110095	-88.953131
09024		9.639095	-0.332591	-2.082324	0.422380	-0.054303	-0.223662	-179.369656	-77.079092	-88.384943
09025		9.590300	-0.139722	-2.099998	0.436825	-0.067301	-0.213917	-179.644423	-77.040013	-87.844382
09026		9.533745	0.015572	-2.061890	0.411050	-0.067053	-0.215747	-179.936721	-77.000420	-87.300951
09027		9.553623	0.231436	-1.999069	0.347541	-0.068976	-0.217781	179.732913	-76.959123	-86.755656
09028		9.530010	0.316234	-1.963890	0.260314	-0.052653	-0.214392	179.362543	-76.926391	-86.220572
09029		9.411281	0.447523	-1.910630	0.177733	-0.054205	-0.217757	178.939731	-76.891958	-85.680096
09030		9.397435	0.484408	-1.926821	0.100560	-0.068103	-0.217563	178.475883	-76.848583	-85.142868
09031		9.531359	0.438578	-1.981109	0.050962	-0.090510	-0.222666	177.977313	-76.791301	-84.598988
09032		9.667636	0.396739	-2.096172	0.028494	-0.090152	-0.231487	177.448023	-76.732887	-84.036721
09033		9.756911	0.341240	-2.122217	-0.004938	-0.054832	-0.243859	176.870801	-76.693121	-83.444697
09034		9.787315	0.275240	-2.098255	-0.059236	-0.030794	-0.258003	176.227127	-76.665149	-82.816355
09035		9.675436	0.160250	-2.179929	-0.106402	-0.022266	-0.262877	175.546888	-76.640200	-82.178054
09036		9.506023	0.080940	-2.122716	-0.137345	-0.025312	-0.271703	174.829934	-76.611280	-81.520252
09037		9.432608	0.082944	-2.149107	-0.151314	-0.032033	-0.273217	174.107086	-76.576550	-80.864448
09038		9.470140	0.058036	-2.183037	-0.181498	-0.040330	-0.271500	173.375985	-76.535266	-80.217916
09039		9.435006	-0.009333	-2.271861	-0.215562	-0.037314	-0.266542	172.641476	-76.494136	-79.587757
09040		9.355976	-0.075640	-2.302486	-0.215117	-0.035867	-0.261954	171.920855	-76.452306	-78.971588
09041		9.318238	-0.101583	-2.180243	-0.207065	-0.038251	-0.261581	171.211650	-76.407376	-78.362228
09042		9.306349	-0.225432	-2.222153	-0.203942	-0.043632	-0.272160	170.485316	-76.356637	-77.733344
09043		9.333860	-0.167894	-2.144290	-0.175549	-0.043591	-0.270100	169.785819	-76.304301	-77.115134
09044		9.339329	-0.182910	-1.990752	-0.201553	-0.038577	-0.262700	169.090731	-76.253785	-76.516718
09045		9.366156	-0.173132	-2.005061	-0.193141	-0.044676	-0.262965	168.408080	-76.198117	-75.925956
09046		9.437068	-0.162608	-2.078326	-0.172677	-0.049696	-0.271411	167.725163	-76.136978	-75.322735
09047		9.434482	-0.019414	-2.236445	-0.149372	-0.049404	-0.286797	167.026886	-76.072327	-74.689733
09048		9.366092	0.067317	-2.229663	-0.136415	-0.043439	-0.306342	166.295040	-76.006555	-74.014338
09049		9.272170	0.223234	-2.178542	-0.146830	-0.034590	-0.320794	165.527087	-75.941530	-73.307660
09050		9.203131	0.327542	-2.138308	-0.184574	-0.019347	-0.333113	164.708069	-75.880804	-72.570452
09051		9.219877	0.386410	-2.247429	-0.242891	-0.025478	-0.333052	163.866624	-75.814075	-71.844351
09052		9.269849	0.273710	-2.367123	-0.311146	-0.019975	-0.345040	162.964020	-75.745758	-71.095296
09053		9.200768	0.029535	-2.459614	-0.363267	0.001966	-0.354663	162.004022	-75.684744	-70.317606
09054		9.162701	-0.151125	-2.466870	-0.377302	0.013493	-0.368464	161.006039	-75.624259	-69.508794
09055		9.126702	-0.237397	-2.347822	-0.350234	0.007043	-0.379702	160.012583	-75.554624	-68.688414
09056		9.223311	-0.221104	-2.278416	-0.293142	-0.018776	-0.396871	159.045821	-75.464260	-67.861492
09057		9.378664	-0.135375	-2.223053	-0.237563	-0.029973	-0.418446	158.086906	-75.359888	-67.009440
09058		9.579615	0.010637	-2.251429	-0.188397	-0.027321	-0.443583	157.116911	-75.247918	-66.116334
09059		9.670279	0.253571	-2.323125	-0.167700	-0.010288	-0.472637	156.100112	-75.134299	-65.162143
09060		9.558643	0.411636	-2.335546	-0.173785	0.015251	-0.497168	155.025024	-75.023867	-64.150667
09061		9.403862	0.522744	-2.381669	-0.189861	0.021466	-0.513649	153.918262	-74.907523	-63.115472
09062		9.349429	0.592258	-2.538503	-0.251936	0.022676	-0.515231	152.789448	-74.786309	-62.093609
09063		9.221213	0.413740	-2.620653	-0.335891	0.037032	-0.511084	151.622522	-74.668016	-61.081612
09064		9.140060	-0.067150	-2.793661	-0.384889	0.035887	-0.505697	150.456479	-74.545383	-60.098956
09065		9.200775	-0.509677	-2.834066	-0.325561	-0.001145	-0.503271	149.383416	-74.399867	-59.176994
09066		9.416052	-0.824216	-2.783038	-0.209189	-0.060321	-0.494747	148.474300	-74.223750	-58.355189
09067		9.700132	-0.970700	-2.697106	-0.085147	-0.109271	-0.484293	147.723777	-74.023617	-57.623769
09068		9.743373	-0.943540	-2.680216	0.024420	-0.130598	-0.463959	147.112483	-73.817331	-56.970953
09069		9.693545	-0.709720	-2.552918	0.145823	-0.160087	-0.449928	146.638836	-73.599348	-56.388587
09070		9.620573	-0.195426	-2.497634	0.245503	-0.189931	-0.432648	146.297542	-73.371740	-55.883753
09071		9.580284	0.474575	-2.458797	0.277336	-0.203056	-0.423488	146.011772	-73.139710	-55.417529
09072		9.681963	1.046584	-2.603310	0.259798	-0.219319	-0.424083	145.744935	-72.899502	-54.980705
09073		9.744475	1.685178	-2.554409	0.213536	-0.210334	-0.425534	145.447465	-72.662071	-54.539321
09074		9.744100	2.064389	-2.522089	0.111174	-0.187182	-0.414214	145.096974	-72.438890	-54.102949
09075		9.768766	2.186773	-2.502708	0.021356	-0.181545	-0.389577	144.732835	-72.225262	-53.706070
09076		9.659636	2.193784	-2.623697	-0.016618	-0.176827	-0.364002	144.390249	-72.021977	-53.353909
09077		9.869101	2.060737	-2.747519	-0.032334	-0.190840	-0.340348	144.091903	-71.819109	-53.057679
09078		10.114210	1.829978	-2.921185	-0.024648	-0.161488	-0.320389	143.804555	-71.636473	-52.767744
09079		10.250527	1.561971	-2.965802	-0.030642	-0.127021	-0.306685	143.501012	-71.473556	-52.464390
09080		10.205331	1.301563	-2.865022	-0.015362	-0.080206	-0.295094	143.181854	-71.335978	-52.134721
09081		10.103268	1.283742	-2.646771	0.027889	-0.073431	-0.278367	142.905445	-71.206340	-51.824102
09082		10.099099	1.485912	-2.506928	0.078838	-0.071585	-0.256149	142.692117	-71.085228	-51.548706
09083		9.982481	1.866831	-2.357223	0.070345	-0.041685	-0.219231	142.493083	-70.989840	-51.293747
09084		9.635383	2.116272	-2.325432	0.041705	-0.007842	-0.172121	142.309656	-70.926456	-51.072175
09085		9.402720	2.170371	-2.391185	0.043351	-0.001514	-0.127451	142.178041	-70.880961	-50.904722
09086		9.293063	2.289291	-2.539952	0.071253	0.025580	-0.081349	142.097829	-70.864291	-50.774374
09087		9.164699	2.302346	-2.566501	0.085349	0.047786	-0.028494	142.069857	-70.875769	-50.691119
09088		9.141099	2.259350	-2.527168	0.094736	0.062448	0.036907	142.119791	-70.917345	-50.684293
09089		9.133240	2.219301	-2.564266	0.086933	0.111137	0.097638	142.193208	-71.001859	-50.707379
09090		8.914743	2.001032	-2.411224	0.083008	0.175531	0.148559	142.268322	-71.133823	-50.734296
09091		8.701891	1.894300	-2.174747	0.046602	0.170563	0.195702	142.389230	-71.279601	-50.831923
09092		8.645667	1.788060	-2.219206	0.034051	0.159229	0.242854	142.582315	-71.437015	-51.012908
09093		8.741370	1.924472	-2.180687	0.042504	0.168998	0.291930	142.838417	-71.615271	-51.255367
09094		9.081150	2.219019	-2.035594	0.062024	0.174869	0.342580	143.177205	-71.813690	-51.572556
09095		9.432474	2.400434	-2.048830	0.055761	0.186681	0.388652	143.570361	-72.032237	-51.950640
09096		9.658828	2.582699	-2.028976	0.033235	0.217413	0.418776	143.973261	-72.274777	-52.351743
09097		9.721076	2.480705	-2.072217	-0.045074	0.231684	0.434318	144.347782	-72.527916	-52.769874
09098		9.727472	2.379735	-2.153416	-0.124835	0.230269	0.438115	144.697021	-72.781248	-53.208562
09099		9.591538	2.286759	-2.182940	-0.221573	0.262463	0.435507	144.961510	-73.047702	-53.616208
09100		9.383756	2.145356	-2.054697	-0.284200	0.297494	0.417275	145.135621	-73.324538	-53.966109
09101		9.234699	2.188746	-1.794479	-0.329044	0.332858	0.397731	145.220369	-73.611009	-54.249308
09102		9.167374	2.107480	-1.793530	-0.346482	0.340747	0.378974	145.263863	-73.895343	-54.499327
09103		9.068181	2.016471	-1.695890	-0.292420	0.330412	0.371316	145.341235	-74.171871	-54.752214
09104		9.108341	2.040390	-1.662624	-0.256728	0.355172	0.377787	145.428891	-74.462442	-54.994009
09105		9.059226	2.009240	-1.794641	-0.266797	0.429356	0.396936	145.460349	-74.793812	-55.183318
09106		8.912329	1.899195	-1.853907	-0.360316	0.473810	0.414928	145.421854	-75.152363	-55.355214
09107		8.776814	1.653635	-2.077314	-0.356384	0.504138	0.425134	145.367993	-75.528218	-55.508760
09108		8.666826	1.766795	-1.796255	-0.330349	0.494188	0.439422	145.373177	-75.904383	-55.707442
09109		8.877368	1.911618	-1.473229	-0.342300	0.475574	0.448944	145.418629	-76.274514	-55.954477
09110		9.231726	1.931754	-1.426377	-0.320829	0.460299	0.451068	145.511144	-76.638369	-56.236762
09111		9.587387	1.942178	-1.600439	-0.267913	0.447675	0.445334	145.649324	-76.993952	-56.534507
09112		9.900755	1.800610	-1.957011	-0.239431	0.447354	0.439327	145.805346	-77.347574	-56.833291
09113		9.961436	1.612108	-1.953995	-0.239093	0.473412	0.419181	145.891174	-77.706626	-57.059667
09114		9.879759	1.471991	-1.772934	-0.281395	0.491485	0.402865	145.899025	-78.069247	-57.230683
09115		9.611828	1.403710	-1.579137	-0.322271	0.486818	0.386389	145.856576	-78.424093	-57.374104
09116		9.457018	1.306787	-1.423587	-0.355749	0.447637	0.378068	145.842545	-78.757964	-57.565829
09117		9.392774	1.019472	-1.413922	-0.360204	0.393192	0.400934	145.976781	-79.073040	-57.911104
09118		9.387651	0.788862	-1.577889	-0.261731	0.369091	0.424116	146.283554	-79.384061	-58.374140
09119		9.333268	0.812088	-1.590818	-0.151742	0.355014	0.455067	146.782026	-79.697256	-58.967629
09120		9.295511	0.829171	-1.359943	-0.147381	0.363145	0.480090	147.372902	-80.021374	-59.651775
09121		9.128849	0.781435	-1.153053	-0.179814	0.373878	0.514590	148.065551	-80.359627	-60.457442
09122		9.036226	0.817967	-1.067075	-0.194442	0.360546	0.550837	148.938103	-80.700573	-61.453110
09123		9.050196	0.903812	-1.012081	-0.178123	0.340298	0.607581	150.104537	-81.044798	-62.736054
09124		9.148447	0.994308	-1.047132	-0.166381	0.331572	0.671212	151.603972	-81.397854	-64.347841
09125		9.279925	0.966857	-1.167306	-0.181742	0.300581	0.747679	153.548903	-81.747550	-66.417450
09126		9.407688	0.749560	-1.144402	-0.228168	0.291590	0.830036	155.968056	-82.101172	-68.990992
09127		9.527268	0.485097	-0.994250	-0.280230	0.330137	0.901692	158.811344	-82.473817	-72.020432
09128		9.559847	0.019279	-0.906447	-0.334769	0.333659	0.951806	162.133039	-82.835817	-75.561116
09129		9.730593	-0.644142	-0.903348	-0.310444	0.282155	0.994176	166.071741	-83.146539	-79.706844
09130		9.938913	-1.143844	-0.705773	-0.105770	0.260121	1.008654	170.580815	-83.408686	-84.306247
09131		9.933953	-1.422659	-0.483779	0.099538	0.238103	1.038337	175.709398	-83.614018	-89.408648
09132		9.907325	-1.630318	-0.478162	0.234517	0.189497	1.088945	-178.527525	-83.736712	-95.069884
09133		9.969273	-1.684022	-0.546667	0.308392	0.146705	1.152462	-172.257702	-83.765794	-101.197562
09134		9.929894	-1.469610	-0.604320	0.310607	0.121106	1.223209	-165.671610	-83.697847	-107.642243
09135		9.949333	-1.203105	-0.856468	0.273487	0.024940	1.301017	-159.134251	-83.483730	-114.061143
09136		10.134132	-0.910472	-1.065303	0.280245	-0.048516	1.367753	-152.944595	-83.137365	-120.129526
09137		10.291877	-0.486761	-1.043213	0.303574	-0.065623	1.440671	-147.157549	-82.689884	-125.783930
09138		10.427026	-0.102350	-0.922996	0.257483	-0.067655	1.510920	-141.868121	-82.152693	-130.969087
09139		10.600947	0.208253	-0.776180	0.127857	-0.033922	1.586008	-137.055684	-81.544383	-135.754709
09140		10.729285	0.323713	-0.740264	-0.059920	0.009404	1.657796	-132.722976	-80.872109	-140.171609
09141		10.827621	0.234899	-0.996628	-0.278024	0.004078	1.715117	-129.026056	-80.127731	-144.079517
09142		11.007303	-0.053964	-1.190555	-0.441135	-0.024472	1.743478	-125.980606	-79.323752	-147.429429
09143		11.106509	-0.448739	-1.312573	-0.542916	-0.037183	1.741565	-123.480670	-78.488879	-150.292051
09144		11.037147	-0.971592	-1.373308	-0.603327	-0.048335	1.713099	-121.441814	-77.643081	-152.727260
