// General information: 
//  MT Manager version: 2022.2.0 
//  XDA version: 2022.2.0 build 7381 rev 124627 built on 2023-07-19
// Device information: 
//  DeviceId: 00B4BA83
//  ProductCode: MTW2-3A7G6
//  Firmware Version: 4.6.0
//  Hardware Version: 2.0.0
// Device settings: 
//  Filter Profile: human(46.1)
//  Option Flags: Orientation Smoother Disabled, Position/Velocity Smoother Disabled, Continuous Zero Rotation Update Disabled, AHS Disabled, ICC Disabled
// Coordinate system: ENU
PacketCounter	SampleTimeFine	Acc_X	Acc_Y	Acc_Z	Gyr_X	Gyr_Y	Gyr_Z	Roll	Pitch	Yaw
58977		9.514471	0.442520	-2.084433	0.187532	0.026636	-0.074213	170.980506	-77.586414	-169.927999
58978		9.510276	0.354955	-2.085724	0.154939	0.043037	-0.076199	170.863356	-77.603283	-169.715370
58979		9.423016	0.353554	-2.013377	0.161276	0.036697	-0.068625	170.775308	-77.616539	-169.528763
58980		9.397651	0.291869	-2.013926	0.168088	0.023824	-0.050968	170.738089	-77.624725	-169.390277
58981		9.496563	0.217628	-2.056542	0.179052	0.008960	-0.040984	170.742811	-77.624789	-169.288230
58982		9.606434	0.196223	-2.168217	0.198060	0.006283	-0.030706	170.782385	-77.624918	-169.210781
58983		9.684079	0.280095	-2.305200	0.220743	0.005258	-0.023275	170.858190	-77.624537	-169.157053
58984		9.788036	0.402391	-2.285573	0.227585	0.012157	-0.024170	170.929224	-77.628588	-169.094492
58985		9.896281	0.482949	-2.168283	0.212325	0.017108	-0.028426	170.982012	-77.634475	-169.022139
58986		9.834977	0.542277	-2.138292	0.209076	0.025995	-0.031401	171.018014	-77.645706	-168.934579
58987		9.745081	0.557467	-2.095220	0.214842	0.032889	-0.038876	171.038697	-77.659610	-168.827890
58988		9.617264	0.586912	-1.995935	0.214465	0.030921	-0.044619	171.041249	-77.672448	-168.702943
58989		9.495506	0.578449	-1.925693	0.207447	0.033141	-0.051501	171.024655	-77.685369	-168.562447
58990		9.316444	0.481403	-1.829661	0.178526	0.031728	-0.050012	170.991784	-77.698169	-168.422338
58991		9.219141	0.427538	-1.773760	0.135064	0.027406	-0.043101	170.957547	-77.708570	-168.306243
58992		9.184322	0.313543	-1.788450	0.100637	0.021098	-0.040655	170.908330	-77.716185	-168.195091
58993		9.305691	0.213071	-1.871788	0.102772	0.000213	-0.033743	170.891051	-77.712017	-168.115292
58994		9.614533	0.128571	-1.854175	0.140797	-0.006257	-0.038054	170.883053	-77.704395	-168.022772
58995		9.871913	0.157494	-1.835214	0.176729	0.015706	-0.045377	170.871548	-77.707929	-167.905511
58996		9.972401	0.193503	-1.858649	0.200043	0.045670	-0.041448	170.867073	-77.729410	-167.781851
58997		9.853222	0.296286	-1.855384	0.218297	0.055093	-0.030872	170.900345	-77.756544	-167.686056
58998		9.763455	0.331764	-1.965056	0.230773	0.050957	-0.020013	170.966882	-77.783024	-167.617059
58999		9.599050	0.394480	-2.048558	0.235912	0.046171	-0.006182	171.078427	-77.807367	-167.591039
59000		9.410721	0.483036	-2.006671	0.226082	0.038200	-0.004298	171.188841	-77.828064	-167.569691
59001		9.289641	0.582114	-1.922587	0.184595	0.025592	0.002929	171.303598	-77.841568	-167.577040
59002		9.214626	0.608057	-1.852167	0.136859	0.026803	0.006337	171.395562	-77.856733	-167.589119
59003		9.204619	0.684136	-1.922175	0.086228	0.010312	0.002476	171.459044	-77.861536	-167.601669
59004		9.466144	0.599199	-2.171279	0.077955	-0.018106	-0.014264	171.480620	-77.849494	-167.576279
59005		9.809446	0.631012	-2.138680	0.101070	-0.015220	-0.032142	171.471619	-77.836888	-167.505984
59006		9.959240	0.665995	-2.023507	0.087011	0.021056	-0.035032	171.428113	-77.845229	-167.408720
59007		9.942961	0.655623	-1.964707	0.072570	0.042704	-0.029687	171.386200	-77.865631	-167.321465
59008		9.793582	0.604532	-1.921351	0.068759	0.040159	-0.023535	171.354299	-77.885759	-167.246787
59009		9.623489	0.579576	-1.921444	0.058770	0.032953	-0.017778	171.339470	-77.901645	-167.195333
59010		9.385011	0.544338	-1.923573	0.037019	0.025346	-0.019282	171.306106	-77.913748	-167.137771
59011		9.282947	0.530079	-1.923622	0.011373	0.019332	-0.016914	171.271748	-77.921984	-167.094121
59012		9.207418	0.561375	-1.853674	-0.015476	0.009717	-0.015040	171.225583	-77.925587	-167.054235
59013		9.159729	0.526478	-1.811756	-0.048921	-0.007478	-0.015948	171.170145	-77.918712	-167.024356
59014		9.335327	0.404668	-1.808066	-0.051936	-0.023669	-0.022692	171.096461	-77.902730	-166.977695
59015		9.550292	0.378925	-1.890055	-0.025055	-0.025811	-0.026142	171.035547	-77.884558	-166.928227
59016		9.732748	0.328983	-1.901622	0.003918	-0.010930	-0.032688	170.962462	-77.874885	-166.849441
59017		9.816715	0.354231	-1.914441	0.023263	0.006367	-0.023939	170.921782	-77.875096	-166.792351
59018		9.794417	0.383022	-1.871785	0.027928	0.017298	-0.015896	170.894881	-77.882910	-166.746730
59019		9.759079	0.397611	-1.941367	0.007068	0.020613	-0.005981	170.886180	-77.892798	-166.731839
59020		9.624915	0.376582	-2.025875	-0.011758	0.035819	-0.005822	170.855133	-77.912020	-166.705236
59021		9.455872	0.350905	-2.068350	-0.025249	0.030521	-0.003250	170.830834	-77.927760	-166.693332
59022		9.455454	0.352661	-2.023515	-0.047272	0.020934	-0.010432	170.773468	-77.938122	-166.660625
59023		9.442317	0.323279	-1.979264	-0.058805	0.017340	-0.018701	170.694573	-77.944977	-166.612554
59024		9.469877	0.260482	-1.962334	-0.043549	0.015749	-0.032694	170.582522	-77.950306	-166.521750
59025		9.563300	0.228730	-1.972308	-0.019891	0.019979	-0.048659	170.445258	-77.955786	-166.391198
59026		9.596742	0.239690	-1.927278	-0.008658	0.021557	-0.058284	170.282736	-77.961854	-166.228348
59027		9.631117	0.250697	-1.924498	0.009490	0.020917	-0.061033	170.128850	-77.966510	-166.063595
59028		9.637214	0.216611	-1.907797	0.023887	0.025395	-0.053749	169.995014	-77.975027	-165.911012
59029		9.581811	0.242645	-1.906915	0.046870	0.024888	-0.053303	169.880856	-77.982536	-165.764989
59030		9.505851	0.183819	-1.962773	0.059744	0.016158	-0.056056	169.765647	-77.985493	-165.610449
59031		9.518473	0.219970	-1.961349	0.077628	0.016154	-0.055027	169.668512	-77.987785	-165.463816
59032		9.502819	0.211217	-1.946234	0.092886	0.014625	-0.056789	169.571156	-77.989690	-165.308112
59033		9.497165	0.254516	-1.959267	0.111050	0.024073	-0.070704	169.447655	-77.994698	-165.114949
59034		9.510832	0.291011	-1.999579	0.123557	0.025104	-0.077561	169.307641	-78.000175	-164.897670
59035		9.568805	0.366761	-1.954610	0.134626	0.028200	-0.086722	169.152857	-78.005595	-164.658723
59036		9.591531	0.438610	-1.867971	0.126898	0.032149	-0.094544	168.965887	-78.012932	-164.391491
59037		9.618738	0.490503	-1.837125	0.119304	0.034631	-0.090620	168.788211	-78.021230	-164.138130
59038		9.594578	0.542994	-1.864142	0.110132	0.030591	-0.089551	168.605072	-78.027916	-163.884650
59039		9.621114	0.502271	-1.917095	0.101349	0.021808	-0.089942	168.425321	-78.028759	-163.639694
59040		9.588005	0.502796	-1.959098	0.092178	0.010104	-0.092697	168.234457	-78.023253	-163.388837
59041		9.602130	0.429836	-2.013619	0.088891	-0.001261	-0.085678	168.071825	-78.011340	-163.168668
59042		9.587013	0.422742	-2.042835	0.091219	-0.009268	-0.080156	167.924967	-77.996161	-162.963341
59043		9.539038	0.408366	-2.114870	0.083514	0.002507	-0.071916	167.794120	-77.987783	-162.778797
59044		9.457239	0.480410	-2.104210	0.091194	0.008716	-0.063102	167.682526	-77.984531	-162.609525
59045		9.480108	0.549823	-2.062500	0.090925	0.006858	-0.056529	167.594174	-77.980328	-162.464081
59046		9.539534	0.605933	-1.991326	0.081392	0.010088	-0.056788	167.492898	-77.978473	-162.311096
59047		9.564929	0.656678	-1.920558	0.060263	0.013869	-0.055381	167.386008	-77.978228	-162.164658
59048		9.544206	0.669649	-1.850137	0.036291	0.006585	-0.053970	167.268302	-77.974640	-162.021294
59049		9.536795	0.620514	-1.905308	0.027834	-0.000153	-0.048646	167.168931	-77.967296	-161.901537
59050		9.540207	0.604313	-1.919193	0.032797	-0.004055	-0.043122	167.084088	-77.959048	-161.793820
59051		9.515947	0.542504	-1.918964	0.041153	-0.008213	-0.033903	167.036037	-77.949027	-161.718728
59052		9.484283	0.519930	-1.891684	0.048435	-0.002393	-0.030268	166.992922	-77.943316	-161.644515
59053		9.457583	0.475689	-1.919899	0.043102	-0.003720	-0.023095	166.971665	-77.937176	-161.595677
59054		9.466365	0.419418	-1.876673	0.038688	-0.011161	-0.024916	166.942352	-77.927251	-161.541288
59055		9.432013	0.414917	-1.878810	0.035058	-0.015212	-0.019201	166.933694	-77.915193	-161.510043
59056		9.371139	0.363733	-1.908905	0.031827	-0.018811	-0.008309	166.948524	-77.903156	-161.504812
59057		9.238645	0.428808	-2.000712	0.032101	-0.019266	0.000162	166.991053	-77.891340	-161.527648
59058		9.131025	0.555360	-2.136542	0.064088	-0.028789	0.029098	167.127629	-77.878526	-161.628031
59059		9.186183	0.732743	-2.130758	0.118850	-0.055521	0.029655	167.317559	-77.850169	-161.750799
59060		9.548873	0.944869	-2.050184	0.143051	-0.061664	0.026235	167.510113	-77.818431	-161.862189
59061		9.856714	1.068605	-1.939570	0.128190	-0.028775	0.008251	167.633337	-77.802243	-161.911263
59062		10.008051	1.196343	-1.871678	0.088338	0.012067	-0.007254	167.664707	-77.807552	-161.889844
59063		10.000882	1.236582	-1.843511	0.047381	0.034146	-0.018520	167.636445	-77.823286	-161.831307
59064		9.923110	1.285234	-1.843804	0.012995	0.038523	-0.023366	167.567050	-77.841421	-161.750987
59065		9.753987	1.351234	-1.804643	-0.022261	0.025914	-0.030562	167.472023	-77.851031	-161.664978
59066		9.597148	1.434568	-1.652836	-0.064960	0.029704	-0.026747	167.353155	-77.863760	-161.579764
59067		9.436903	1.444276	-1.568528	-0.134070	0.023048	-0.024709	167.210625	-77.872431	-161.510699
59068		9.403255	1.427411	-1.451862	-0.198132	0.010605	-0.029904	167.017372	-77.874022	-161.427472
59069		9.460974	1.302188	-1.457539	-0.246071	-0.012019	-0.043079	166.783904	-77.860641	-161.331029
59070		9.601668	1.110966	-1.516373	-0.283232	-0.001960	-0.059260	166.472887	-77.851243	-161.177231
59071		9.587780	0.997607	-1.509310	-0.313838	0.027009	-0.062782	166.125786	-77.856702	-161.004266
59072		9.572670	0.902724	-1.572216	-0.333015	0.028218	-0.057771	165.770583	-77.863965	-160.834460
59073		9.569217	0.748035	-1.677018	-0.346284	0.019588	-0.044028	165.457756	-77.867539	-160.715574
59074		9.626042	0.552906	-1.794937	-0.344510	0.026293	-0.036118	165.152347	-77.876537	-160.603447
59075		9.520473	0.471426	-1.819868	-0.340674	0.043525	-0.013970	164.903371	-77.897553	-160.546589
59076		9.446665	0.412504	-1.871545	-0.331828	0.056944	0.025979	164.743469	-77.932653	-160.575850
59077		9.305806	0.520735	-1.840420	-0.310817	0.068685	0.069009	164.707917	-77.980038	-160.719742
59078		9.301036	0.668681	-1.917767	-0.296897	0.057666	0.100043	164.760275	-78.026740	-160.945524
59079		9.446560	0.760677	-2.005457	-0.319850	0.038350	0.106103	164.839295	-78.062886	-161.211771
59080		9.675949	0.858050	-1.991775	-0.362825	0.039811	0.096815	164.859982	-78.099125	-161.443725
59081		9.709234	0.861897	-1.897741	-0.426248	0.064245	0.088753	164.815850	-78.146955	-161.646344
59082		9.564042	0.896725	-1.847943	-0.467655	0.094266	0.090327	164.721720	-78.212389	-161.822276
59083		9.384940	0.856585	-1.953606	-0.482092	0.104632	0.107966	164.668885	-78.285547	-162.048594
59084		9.242090	0.779997	-1.918585	-0.489410	0.093495	0.114538	164.628859	-78.354300	-162.292413
59085		9.227605	0.788491	-1.964404	-0.518966	0.058062	0.097045	164.561921	-78.400151	-162.525798
59086		9.319786	0.687765	-2.041341	-0.548817	0.028470	0.065473	164.405288	-78.425610	-162.685247
59087		9.439452	0.478252	-1.927139	-0.575989	0.014113	0.031927	164.163428	-78.437372	-162.773387
59088		9.525735	0.202814	-2.018582	-0.604823	-0.001735	0.002015	163.826590	-78.436434	-162.781637
59089		9.594408	-0.196747	-2.036979	-0.594890	-0.009531	-0.019054	163.454968	-78.427167	-162.748378
59090		9.813570	-0.373810	-2.340782	-0.529016	-0.044622	-0.022949	163.129859	-78.398621	-162.724252
59091		9.891367	-0.608436	-2.415154	-0.330027	-0.030077	-0.005769	162.962728	-78.380244	-162.744825
59092		10.018906	-0.569672	-2.271217	-0.189100	-0.015854	0.014902	162.911704	-78.373777	-162.801660
59093		9.938437	-0.612886	-2.278107	-0.137265	0.008229	0.055248	162.986398	-78.386642	-162.956364
59094		9.818151	-0.824448	-2.367389	-0.071475	-0.008207	0.089238	163.196077	-78.396730	-163.210514
59095		9.782057	-0.814336	-2.439766	0.015258	-0.023677	0.102374	163.510354	-78.399595	-163.520575
59096		9.712473	-0.723729	-2.466692	0.075207	-0.049566	0.100570	163.868708	-78.388211	-163.840672
59097		9.746775	-0.553273	-2.374012	0.127098	-0.075732	0.087960	164.247777	-78.359362	-164.151488
59098		9.874906	-0.416991	-2.296007	0.138174	-0.070555	0.079607	164.600852	-78.332309	-164.429388
59099		9.851609	-0.314900	-2.209806	0.109815	-0.042015	0.074179	164.905560	-78.319265	-164.674437
59100		9.818106	-0.241367	-2.166114	0.078540	-0.022264	0.077777	165.183794	-78.318051	-164.910810
59101		9.792795	-0.092451	-2.173142	0.071933	-0.019755	0.076065	165.455412	-78.317129	-165.144241
59102		9.708357	0.096670	-2.165622	0.095265	-0.021485	0.076209	165.739010	-78.315651	-165.376292
59103		9.647751	0.210695	-2.021170	0.115532	-0.025259	0.080517	166.051151	-78.311817	-165.625597
59104		9.584417	0.429366	-1.772240	0.117191	-0.025669	0.088463	166.383154	-78.309155	-165.894246
59105		9.531309	0.615358	-1.637687	0.061257	-0.013957	0.099933	166.708935	-78.313634	-166.189239
59106		9.433657	0.657267	-1.568263	-0.030670	-0.009077	0.101590	166.981117	-78.321372	-166.483303
59107		9.403461	0.625358	-1.585265	-0.133711	-0.013884	0.092553	167.175684	-78.324391	-166.758365
59108		9.478633	0.484041	-1.634629	-0.256226	-0.033000	0.058998	167.218287	-78.313029	-166.949964
59109		9.561208	0.202898	-1.779409	-0.347435	-0.045934	0.028151	167.135837	-78.289856	-167.067206
59110		9.636454	-0.036434	-1.896216	-0.361336	-0.049448	0.006328	166.986173	-78.262680	-167.123974
59111		9.656663	-0.304552	-1.834300	-0.321547	-0.037390	0.007369	166.857459	-78.241687	-167.178833
59112		9.638737	-0.427037	-1.805304	-0.260549	-0.021189	0.027314	166.804925	-78.233096	-167.275822
59113		9.524204	-0.580321	-1.879895	-0.204376	-0.024588	0.050060	166.849672	-78.224838	-167.439298
59114		9.517527	-0.652172	-1.917063	-0.112940	-0.027329	0.068765	166.997068	-78.218208	-167.654107
59115		9.495483	-0.492848	-2.007316	-0.024787	-0.036003	0.076354	167.221651	-78.206771	-167.896188
59116		9.492847	-0.340285	-2.125609	0.030656	-0.034997	0.074448	167.471385	-78.196268	-168.131485
59117		9.547562	-0.125160	-2.152516	0.070651	-0.034501	0.052413	167.684767	-78.182317	-168.306279
59118		9.555664	0.025975	-2.072452	0.102226	-0.027286	0.030834	167.854058	-78.170467	-168.417502
59119		9.589985	0.136155	-2.050854	0.126815	-0.015512	0.011921	167.979735	-78.162087	-168.469823
59120		9.598691	0.290123	-1.969402	0.132742	-0.003036	-0.000649	168.068460	-78.159972	-168.480864
59121		9.536449	0.347467	-1.939029	0.116357	-0.000612	-0.008828	168.124105	-78.157460	-168.467754
59122		9.512654	0.395695	-1.965340	0.070259	-0.011265	-0.019263	168.131937	-78.148530	-168.432721
59123		9.473672	0.407863	-1.910800	0.016908	-0.021675	-0.030059	168.085778	-78.131703	-168.373808
59124		9.531357	0.477014	-1.864868	-0.027232	-0.035865	-0.033622	168.013521	-78.107265	-168.314009
59125		9.640565	0.434350	-1.826690	-0.065662	-0.046587	-0.038474	167.912254	-78.075441	-168.247116
59126		9.778955	0.330877	-1.863198	-0.066954	-0.041161	-0.034408	167.818784	-78.047913	-168.188887
59127		9.891273	0.160040	-1.862092	-0.032717	-0.025517	-0.036785	167.729586	-78.028048	-168.115022
59128		9.876181	0.153365	-1.892261	0.023501	0.009721	-0.035052	167.657610	-78.028915	-168.025774
59129		9.728946	0.216103	-1.917288	0.078905	0.044173	-0.031477	167.606248	-78.048667	-167.925211
59130		9.598980	0.294644	-1.996047	0.121434	0.040736	-0.045354	167.545003	-78.065601	-167.789583
59131		9.502898	0.378910	-2.074817	0.159239	0.026596	-0.067758	167.453475	-78.070972	-167.600934
59132		9.497475	0.533106	-2.063717	0.180740	0.008000	-0.093506	167.317882	-78.063470	-167.354591
59133		9.539271	0.702693	-1.981275	0.167091	0.008385	-0.121147	167.100781	-78.051696	-167.032985
59134		9.653480	0.842814	-1.842240	0.129613	0.021575	-0.139845	166.805919	-78.045371	-166.653777
59135		9.762920	0.918761	-1.777112	0.081553	0.030791	-0.148257	166.455383	-78.041823	-166.245857
59136		9.863673	0.862446	-1.860466	0.045142	0.046099	-0.150856	166.067576	-78.046707	-165.821121
59137		9.743111	0.868362	-1.872229	0.017780	0.083680	-0.144932	165.653953	-78.071875	-165.386089
59138		9.428444	0.895044	-1.914288	-0.019092	0.085617	-0.139260	165.230760	-78.099086	-164.962877
59139		9.141678	0.939350	-1.857071	-0.055252	0.052332	-0.122150	164.853853	-78.108982	-164.608201
59140		9.017211	0.961732	-1.855876	-0.119509	0.019000	-0.108995	164.497676	-78.102767	-164.312316
59141		8.869245	0.922905	-1.903131	-0.201186	0.008206	-0.107770	164.106891	-78.089608	-164.028899
59142		8.803866	0.907336	-1.918623	-0.265223	0.000027	-0.113254	163.671176	-78.071399	-163.737034
59143		8.834635	0.837722	-1.921000	-0.326436	0.002813	-0.118257	163.187354	-78.052676	-163.431837
59144		8.838786	0.811897	-1.863737	-0.377969	0.016202	-0.127556	162.639326	-78.039851	-163.091173
59145		8.910368	0.682780	-1.741596	-0.414229	0.012342	-0.143664	162.034512	-78.020713	-162.713680
59146		9.070978	0.564942	-1.687615	-0.437742	0.018194	-0.153249	161.386952	-78.002858	-162.306238
59147		9.257271	0.316557	-1.702193	-0.452000	0.010681	-0.169405	160.699801	-77.976266	-161.866633
59148		9.390541	0.098815	-1.803574	-0.445999	0.003850	-0.183356	159.988333	-77.942884	-161.398603
59149		9.503441	-0.086412	-1.948156	-0.425341	-0.011095	-0.188504	159.294491	-77.898558	-160.936423
59150		9.616718	-0.184120	-2.044872	-0.381457	-0.033233	-0.181064	158.668958	-77.843539	-160.518300
59151		9.796189	-0.070677	-2.105507	-0.320964	-0.038189	-0.174906	158.103605	-77.785542	-160.126203
59152		9.917917	0.058163	-2.122507	-0.274214	-0.025478	-0.178243	157.548421	-77.733515	-159.717000
59153		9.920523	0.181808	-2.197491	-0.224232	0.001869	-0.190430	156.968684	-77.691630	-159.253309
59154		9.886523	0.376179	-2.134875	-0.177113	0.025614	-0.199022	156.374273	-77.660043	-158.746864
59155		9.792934	0.612311	-2.094483	-0.143020	0.050587	-0.199829	155.773312	-77.639457	-158.213700
59156		9.780468	0.688159	-2.040121	-0.130232	0.052960	-0.197429	155.185200	-77.620258	-157.686112
59157		9.664893	0.739689	-1.948527	-0.123572	0.054244	-0.201698	154.590715	-77.598759	-157.148088
59158		9.611439	0.816412	-1.795441	-0.131630	0.051752	-0.200967	153.998749	-77.575722	-156.617287
59159		9.624835	0.848335	-1.759648	-0.161635	0.044496	-0.208560	153.381993	-77.545065	-156.078688
59160		9.620788	0.894879	-1.778941	-0.209291	0.055833	-0.216572	152.709512	-77.517594	-155.510886
59161		9.659841	0.882101	-1.718070	-0.287871	0.058476	-0.239415	151.939078	-77.483063	-154.888838
59162		9.866943	0.787926	-1.848129	-0.379781	0.042207	-0.275694	151.058842	-77.429286	-154.208112
59163		10.088852	0.653485	-2.070305	-0.433535	0.039284	-0.305963	150.090778	-77.362350	-153.468821
59164		10.169287	0.694557	-2.258837	-0.413043	0.065191	-0.298953	149.125735	-77.308360	-152.720383
59165		10.177410	0.794362	-2.310802	-0.373423	0.082664	-0.277870	148.212410	-77.265696	-152.001584
59166		10.121527	0.914898	-2.260396	-0.343535	0.080933	-0.250263	147.383764	-77.229033	-151.351896
59167		10.183342	0.875473	-2.159471	-0.332244	0.050276	-0.226590	146.657353	-77.182264	-150.800344
59168		10.415971	0.779552	-2.064315	-0.307331	0.036378	-0.218995	145.986249	-77.130595	-150.290724
59169		10.610801	0.692529	-1.954241	-0.270958	0.069335	-0.212284	145.306669	-77.094550	-149.750988
59170		10.717509	0.518221	-1.814555	-0.268118	0.102813	-0.203589	144.602931	-77.076467	-149.184686
59171		10.782314	0.243209	-1.761513	-0.279419	0.122849	-0.199017	143.873053	-77.066798	-148.598229
59172		10.842509	0.022349	-1.800582	-0.299971	0.115683	-0.196605	143.149758	-77.053955	-148.030517
59173		10.849382	-0.166487	-1.923070	-0.267299	0.126271	-0.205148	142.411877	-77.040388	-147.428665
59174		10.755778	-0.206946	-2.081805	-0.202795	0.126418	-0.218323	141.688943	-77.021660	-146.804101
59175		10.732194	-0.263022	-2.169299	-0.126923	0.130537	-0.227628	140.984673	-76.998559	-146.154111
59176		10.694177	-0.130121	-2.167687	-0.053244	0.126353	-0.235322	140.320380	-76.970351	-145.501647
59177		10.749268	0.034559	-2.100432	-0.004742	0.114186	-0.231530	139.710045	-76.935272	-144.876072
59178		10.795396	0.172926	-2.080972	-0.002117	0.119833	-0.225302	139.111219	-76.904910	-144.260553
59179		10.829483	0.308888	-2.132664	-0.034454	0.132276	-0.207200	138.505723	-76.883845	-143.657276
59180		10.793275	0.412914	-2.105032	-0.045205	0.143041	-0.186229	137.921353	-76.875518	-143.081832
59181		10.795617	0.505902	-2.091793	-0.045309	0.128963	-0.162385	137.399482	-76.867608	-142.570755
59182		10.847490	0.554516	-2.127666	-0.036515	0.123910	-0.140877	136.935689	-76.866611	-142.113969
59183		10.856907	0.521441	-2.064651	-0.015810	0.126378	-0.119907	136.511735	-76.872410	-141.686079
59184		10.840341	0.467594	-2.063546	0.024345	0.118861	-0.094444	136.174289	-76.886274	-141.323232
59185		10.769963	0.436959	-1.932142	0.106557	0.115435	-0.069023	135.928164	-76.906652	-141.005984
59186		10.702842	0.524043	-1.780366	0.235848	0.113689	-0.037614	135.820338	-76.940488	-140.754514
59187		10.535158	0.727210	-1.641962	0.348310	0.128053	0.004693	135.819719	-76.995195	-140.547179
59188		10.341620	0.980518	-1.569773	0.404574	0.111129	0.045135	135.959160	-77.061107	-140.450347
59189		10.165192	1.106529	-1.550813	0.414663	0.072553	0.075809	136.219988	-77.121383	-140.472338
59190		9.925648	1.042290	-1.512261	0.487699	0.042444	0.117123	136.658961	-77.187477	-140.633925
59191		9.635338	1.125884	-1.327179	0.625270	0.040512	0.174951	137.283279	-77.273012	-140.904883
59192		9.343730	1.383742	-1.004768	0.725259	0.055534	0.237797	138.071872	-77.390480	-141.285192
59193		9.169106	1.495711	-0.784895	0.748606	0.074432	0.305096	138.975659	-77.538309	-141.769802
59194		9.016082	1.530007	-0.589118	0.790401	0.083955	0.384467	140.070543	-77.720041	-142.425045
59195		8.912256	1.611381	-0.471172	0.852063	0.089919	0.475367	141.398283	-77.932323	-143.282049
59196		8.919545	1.614549	-0.614428	0.855137	0.055069	0.573527	143.044421	-78.160623	-144.461836
59197		9.014100	1.614223	-0.741076	0.768466	0.011636	0.681304	145.002003	-78.395222	-146.009581
59198		9.113346	1.648640	-0.807465	0.594380	-0.005989	0.796327	147.238754	-78.648582	-147.942455
59199		9.179354	1.636122	-0.763595	0.324660	-0.003011	0.902476	149.665602	-78.917381	-150.225063
59200		9.220225	1.601834	-1.016351	0.018777	-0.021584	1.000440	152.321126	-79.186126	-152.916831
59201		9.556224	1.637555	-1.385499	-0.269389	-0.080135	1.086485	155.245470	-79.419476	-156.048100
59202		9.968622	1.661832	-1.808181	-0.527884	-0.134983	1.158676	158.428903	-79.610699	-159.591131
59203		10.477091	1.397055	-2.182250	-0.697834	-0.162444	1.199037	161.767114	-79.756315	-163.388715
59204		10.754676	0.886209	-2.340668	-0.756529	-0.122986	1.221072	165.205802	-79.888231	-167.320696
59205		10.768900	0.409179	-2.453328	-0.654402	-0.031321	1.213815	168.694506	-80.026783	-171.242580
59206		10.670516	0.074870	-2.337934	-0.392178	0.076728	1.191608	172.313527	-80.182806	-175.142261
59207		10.645797	0.077978	-1.911765	-0.077921	0.214007	1.178070	176.130762	-80.371509	-179.058539
59208		10.636829	0.137098	-1.276097	0.175636	0.395104	1.191004	-179.711207	-80.618606	176.829690
59209		10.571185	0.282282	-0.658693	0.326262	0.581886	1.222204	-175.113139	-80.918634	172.362584
59210		10.427661	0.355361	-0.070564	0.295714	0.687665	1.265064	-170.020168	-81.214695	167.380728
59211		10.393534	0.327194	0.321028	0.149309	0.686390	1.320822	-164.516348	-81.429824	161.901648
59212		10.598717	0.316594	0.536122	-0.053614	0.624766	1.365068	-158.815439	-81.522173	156.108169
59213		10.841360	0.347090	0.546809	-0.296304	0.622487	1.389317	-153.121537	-81.521551	150.181652
59214		11.214252	0.356607	0.221988	-0.489706	0.684736	1.401543	-147.415366	-81.462039	144.130499
59215		11.429428	0.250218	-0.434505	-0.575769	0.766641	1.409781	-141.696800	-81.348945	138.015305
59216		10.901461	0.096841	-0.784286	-0.589182	0.837736	1.397635	-136.032463	-81.181252	131.945228
59217		9.821680	-0.040484	-0.908037	-0.600862	0.768561	1.384202	-130.882292	-80.905667	126.384912
59218		9.587296	-0.168460	-1.238899	-0.593892	0.544868	1.385132	-126.688682	-80.479803	121.792796
59219		9.980313	-0.371954	-1.945838	-0.495044	0.438086	1.418214	-123.081334	-79.954042	117.846309
59220		9.923792	-0.963952	-2.385621	-0.309723	0.499459	1.463379	-119.516990	-79.383333	114.045107
59221		9.233214	-1.715846	-1.753532	-0.265411	0.570991	1.462903	-116.138906	-78.792107	110.451876
59222		8.975375	-2.535238	-1.191102	-0.315930	0.501870	1.431215	-113.347744	-78.164664	107.420814
59223		9.242019	-3.108269	-1.228520	-0.192124	0.461633	1.389369	-110.928931	-77.524463	104.835832
59224		9.311922	-3.080467	-0.988064	-0.023636	0.507737	1.346442	-108.582543	-76.893517	102.418083
59225		9.174601	-3.091877	-0.600364	0.022420	0.486259	1.338994	-106.491147	-76.243538	100.282989
59226		9.227582	-3.272025	-0.529687	0.194339	0.393836	1.355779	-104.679697	-75.552566	98.532304
59227		9.324607	-3.142363	-0.440421	0.443824	0.339212	1.409042	-102.984477	-74.812839	97.043724
59228		9.330030	-2.999352	-0.482536	0.587747	0.335327	1.480871	-101.330235	-74.020396	95.678242
59229		9.304775	-2.981867	-0.906962	0.705637	0.284397	1.550316	-99.829860	-73.174951	94.537595
59230		9.157994	-2.858509	-0.872254	0.786813	0.272882	1.589121	-98.415236	-72.297283	93.530626
59231		9.104838	-2.723392	-0.820496	0.821530	0.243361	1.601333	-97.146205	-71.404990	92.692441
59232		9.251440	-2.511783	-0.914546	0.824927	0.184520	1.609001	-96.060447	-70.497954	92.046144
59233		9.488131	-2.299865	-0.884483	0.724265	0.109618	1.619963	-95.224062	-69.578400	91.599743
59234		9.593473	-2.310631	-0.748474	0.545490	0.072591	1.642237	-94.590636	-68.641215	91.258626
59235		9.649674	-2.519436	-0.724451	0.395389	0.053776	1.668943	-94.108117	-67.688050	90.984827
59236		9.722518	-2.723294	-1.103018	0.383745	0.045677	1.698146	-93.668026	-66.716043	90.748321
59237		9.529848	-2.803318	-1.132958	0.429871	0.092300	1.719150	-93.169989	-65.733951	90.475229
59238		9.162793	-2.833705	-0.911557	0.426195	0.106293	1.729820	-92.683425	-64.744388	90.210707
59239		8.861983	-2.957212	-0.574945	0.381369	0.082367	1.747549	-92.278581	-63.744124	90.005839
59240		8.726483	-3.032717	-0.405693	0.319371	0.039504	1.763742	-91.975743	-62.732458	89.874022
59241		8.737905	-3.218829	-0.175202	0.212419	0.018483	1.772777	-91.771896	-61.715664	89.783236
59242		8.740682	-3.519825	-0.122529	0.097618	-0.008418	1.769475	-91.668714	-60.699682	89.731791
59243		8.531155	-3.853128	0.063284	-0.070666	-0.031386	1.748784	-91.690120	-59.695654	89.711884
59244		8.202646	-4.172471	0.225701	-0.260105	-0.099328	1.730243	-91.881970	-58.700696	89.764291
59245		8.008567	-4.467686	0.075650	-0.357431	-0.174819	1.712577	-92.192573	-57.714559	89.890896
59246		8.029265	-4.676979	-0.177265	-0.335464	-0.232733	1.691879	-92.528740	-56.738271	90.064771
59247		8.167706	-4.944863	-0.329758	-0.313177	-0.231751	1.673653	-92.839884	-55.772194	90.225328
59248		8.665654	-5.522672	-1.007749	-0.178864	-0.222194	1.678136	-93.053477	-54.803230	90.363245
59249		8.745985	-6.017707	-1.237375	-0.008753	-0.164929	1.666152	-93.118548	-53.842903	90.439400
59250		8.310841	-6.424527	-0.952362	0.023203	-0.122623	1.650918	-93.129324	-52.892421	90.472148
59251		8.016716	-6.664560	-0.631201	0.167096	-0.104108	1.626602	-93.045827	-51.956599	90.489877
59252		7.835585	-6.446559	-0.204031	0.366304	-0.030728	1.615570	-92.797827	-51.029059	90.443949
59253		7.615816	-6.100468	0.163858	0.531430	0.067676	1.601507	-92.395637	-50.112187	90.319811
59254		7.433952	-5.851888	0.495809	0.630870	0.116248	1.577260	-91.914757	-49.209454	90.166061
59255		7.411123	-5.714965	0.452798	0.687537	0.123431	1.546632	-91.410724	-48.323774	90.022073
59256		7.371366	-5.651250	0.308711	0.713839	0.102120	1.525622	-90.916188	-47.448946	89.909874
59257		7.215849	-5.575394	0.378505	0.630938	0.086496	1.495657	-90.490048	-46.590746	89.824004
59258		7.102713	-5.431893	0.182785	0.593756	0.089804	1.470030	-90.090506	-45.746810	89.745017
59259		6.961262	-5.048111	0.050160	0.621807	0.092375	1.433299	-89.682095	-44.923583	89.674259
59260		6.834828	-4.480187	0.150457	0.528208	0.118013	1.371456	-89.318336	-44.135479	89.590523
59261		6.599304	-4.135129	-0.017672	0.414951	0.156316	1.291889	-89.004890	-43.392166	89.483708
59262		6.319575	-3.950609	-0.240753	0.277927	0.154582	1.195074	-88.773958	-42.704364	89.382225
59263		6.053851	-4.054729	-0.284460	0.040231	0.109692	1.087873	-88.705709	-42.077954	89.317867
59264		5.888772	-4.431644	-0.320872	-0.175068	0.072352	0.984292	-88.778699	-41.511995	89.280477
59265		5.838681	-4.859977	-0.172725	-0.309631	0.068743	0.894510	-88.930139	-40.996917	89.243841
59266		5.719315	-5.349749	0.050779	-0.384554	0.079793	0.824842	-89.116710	-40.522552	89.195760
59267		5.557262	-5.896840	0.281928	-0.421390	0.044186	0.770034	-89.341246	-40.079169	89.172421
59268		5.490836	-6.482641	0.311673	-0.470138	-0.049697	0.729180	-89.636155	-39.660664	89.215983
59269		5.329808	-6.898089	0.128740	-0.443762	-0.137748	0.676253	-89.956005	-39.271581	89.322020
59270		5.260850	-7.219228	-0.222151	-0.318741	-0.197316	0.608498	-90.228620	-38.921731	89.468526
59271		5.246660	-7.359033	-0.430773	-0.114751	-0.183479	0.516291	-90.376982	-38.623451	89.603336
59272		5.164275	-7.444369	-0.701152	0.130072	-0.124669	0.410735	-90.356706	-38.386557	89.694261
59273		5.141589	-7.364968	-0.557678	0.293463	-0.064126	0.298703	-90.216314	-38.213316	89.741954
59274		4.943315	-7.399085	-0.295401	0.308723	-0.010770	0.202944	-90.042801	-38.095836	89.751106
59275		4.747727	-7.511083	0.020853	0.244778	-0.039430	0.132889	-89.919666	-38.017797	89.781801
59276		4.665174	-7.708953	0.263806	0.166456	-0.100906	0.085629	-89.868284	-37.967544	89.856932
59277		4.647491	-7.733756	0.386355	0.124640	-0.137711	0.053248	-89.857871	-37.935320	89.959061
59278		4.648171	-7.594589	0.356936	0.173660	-0.128632	0.014498	-89.814541	-37.925772	90.054144
59279		4.622174	-7.378875	0.270866	0.255422	-0.156094	-0.019572	-89.737267	-37.935434	90.169453
59280		4.753703	-7.271732	0.432390	0.193585	-0.254328	-0.056085	-89.738556	-37.966650	90.355643
59281		5.017487	-7.446961	0.259871	0.096495	-0.318729	-0.097787	-89.825157	-38.021472	90.589076
59282		5.233721	-7.499318	0.066816	0.081107	-0.313681	-0.140783	-89.917898	-38.100856	90.818652
59283		5.200783	-7.506921	-0.223365	0.117126	-0.295375	-0.187743	-89.983084	-38.206666	91.035727
59284		5.265922	-7.416430	-0.360885	0.201028	-0.308156	-0.226821	-90.005842	-38.334887	91.262147
59285		5.360069	-7.216565	-0.261585	0.209689	-0.311528	-0.262958	-90.026673	-38.483592	91.491969
59286		5.285497	-7.220782	-0.335241	0.199642	-0.304812	-0.292373	-90.050353	-38.649187	91.717054
59287		5.412289	-7.353075	-0.120232	0.231607	-0.336305	-0.309029	-90.071814	-38.824133	91.966311
59288		5.446267	-7.458498	0.232357	0.194586	-0.330680	-0.346400	-90.112369	-39.020446	92.211853
59289		5.428789	-7.504338	0.173953	0.173408	-0.299258	-0.394907	-90.152394	-39.244403	92.435567
59290		5.355412	-7.324834	0.200357	0.195158	-0.296896	-0.459432	-90.179572	-39.505223	92.658192
59291		5.368703	-6.930912	0.509657	0.170925	-0.293030	-0.527752	-90.221153	-39.805102	92.879643
59292		5.336092	-6.375675	0.968007	0.095000	-0.312559	-0.611392	-90.316979	-40.152584	93.117031
59293		5.256674	-5.757862	1.515092	-0.062950	-0.345871	-0.682900	-90.523315	-40.540476	93.382823
59294		5.106053	-5.200501	1.876882	-0.261971	-0.362987	-0.757621	-90.855651	-40.970068	93.665642
59295		4.812831	-5.581999	2.065480	-0.539112	-0.359427	-0.800252	-91.352019	-41.422590	93.953028
59296		4.787044	-6.766050	1.701099	-0.826366	-0.382680	-0.795924	-92.030501	-41.870008	94.265445
59297		5.467877	-8.412529	0.787395	-1.065978	-0.534374	-0.655158	-92.931342	-42.229809	94.701237
59298		7.831793	-10.701900	-0.797294	-1.268976	-0.968111	-0.251450	-94.167817	-42.337124	95.462441
59299		10.909399	-12.922968	-2.832146	-1.409747	-1.251607	0.235387	-95.613316	-42.139575	96.413865
59300		10.669134	-12.210386	-3.817004	-0.628282	-0.650940	0.395335	-96.284154	-41.873317	96.882312
59301		7.757004	-9.661499	-2.484704	0.329931	-0.055088	0.322826	-96.104707	-41.683962	96.899420
59302		6.364980	-8.006534	-0.741401	0.550080	-0.023916	0.195475	-95.789618	-41.568753	96.903187
59303		6.072995	-6.286310	1.292520	0.273545	-0.114676	0.043979	-95.687991	-41.535058	96.988988
59304		5.898405	-4.967104	1.974712	-0.227284	-0.258733	-0.152683	-95.954994	-41.604660	97.198924
59305		6.041284	-5.132128	0.359916	-0.363355	-0.446802	-0.353557	-96.408679	-41.776426	97.570752
59306		6.604077	-5.664431	-0.894586	-0.169189	-0.557098	-0.489773	-96.816854	-42.016195	98.040865
59307		6.917463	-6.168638	-1.268739	-0.079058	-0.588757	-0.549689	-97.199379	-42.285553	98.546068
59308		6.966926	-6.543909	-1.615903	-0.222872	-0.552691	-0.558211	-97.649662	-42.559698	99.028193
59309		6.856487	-7.197693	-2.149090	-0.513372	-0.490542	-0.543939	-98.239719	-42.827411	99.467262
59310		6.825689	-7.874267	-2.206569	-0.688324	-0.391212	-0.517266	-98.879566	-43.085067	99.831213
59311		6.971979	-8.253957	-1.348178	-0.726264	-0.316605	-0.494951	-99.505804	-43.333900	100.140743
59312		7.254097	-8.518467	-0.665886	-0.740913	-0.335605	-0.489775	-100.153307	-43.575422	100.468559
59313		7.743374	-8.720210	-0.400514	-0.577072	-0.406218	-0.520311	-100.753679	-43.824206	100.861594
59314		8.427969	-8.900485	-0.632720	-0.238555	-0.396037	-0.591477	-101.165279	-44.111551	101.261269
59315		8.819424	-9.111057	-1.182038	0.072678	-0.303458	-0.685339	-101.364090	-44.460520	101.608226
59316		8.805307	-9.157005	-1.424502	0.394384	-0.246498	-0.754311	-101.356790	-44.854189	101.923070
59317		8.664405	-8.816379	-1.529078	0.647435	-0.220577	-0.781750	-101.197156	-45.266564	102.224161
59318		8.344589	-8.164940	-1.602913	0.926657	-0.180786	-0.791652	-100.855511	-45.689717	102.493355
59319		7.983777	-7.209756	-1.464710	1.167681	-0.164195	-0.794498	-100.367826	-46.117659	102.748389
59320		7.800212	-6.387267	-1.366063	1.278853	-0.180308	-0.811372	-99.824821	-46.555028	103.014270
59321		7.714196	-5.840158	-1.322426	1.189661	-0.219057	-0.845563	-99.360297	-47.009670	103.314661
59322		7.818235	-5.508069	-0.923382	0.946413	-0.237993	-0.884041	-99.049177	-47.485791	103.632941
59323		7.796347	-5.300597	-0.762411	0.659502	-0.207038	-0.933649	-98.891605	-47.993567	103.933042
59324		7.644503	-5.177371	-0.999201	0.362224	-0.235914	-0.988071	-98.929968	-48.530046	104.266021
59325		7.539454	-4.948006	-0.821630	0.141507	-0.279980	-1.038155	-99.136244	-49.090177	104.650270
59326		7.576317	-4.734160	-0.892937	-0.130010	-0.378583	-1.076318	-99.575079	-49.661687	105.133648
59327		7.916012	-4.760286	-1.052578	-0.415648	-0.520325	-1.085764	-100.289707	-50.220898	105.758532
59328		8.431329	-4.881994	-1.213640	-0.615093	-0.572124	-1.062129	-101.168067	-50.756252	106.443484
59329		8.849376	-5.067358	-1.440849	-0.663496	-0.525310	-1.024404	-102.058030	-51.268415	107.101681
59330		9.135432	-5.353503	-1.551193	-0.686662	-0.435373	-0.990162	-102.910176	-51.767040	107.690821
59331		9.130007	-5.752452	-1.928651	-0.636779	-0.354885	-0.985009	-103.694333	-52.267272	108.225091
59332		8.999884	-5.987288	-2.020462	-0.468589	-0.278309	-0.995452	-104.342965	-52.780779	108.707143
59333		8.859356	-6.157672	-1.906107	-0.308638	-0.204665	-1.015343	-104.865178	-53.311931	109.141592
59334		8.572411	-6.177923	-1.531152	-0.254739	-0.181589	-1.041003	-105.356321	-53.859433	109.573460
59335		8.366828	-6.345772	-1.830757	-0.250345	-0.157086	-1.073510	-105.848142	-54.425387	110.005534
59336		8.165741	-6.258071	-1.948413	-0.157889	-0.130689	-1.099847	-106.284997	-55.008966	110.432728
59337		8.119616	-6.053567	-1.778293	-0.069176	-0.075095	-1.125127	-106.647810	-55.612715	110.827961
59338		8.149171	-5.850134	-1.879336	0.005543	-0.029476	-1.136415	-106.944917	-56.229832	111.193276
59339		8.162398	-5.357348	-1.796925	0.142355	-0.001808	-1.121077	-107.149326	-56.841361	111.538238
59340		8.061589	-4.906038	-1.823746	0.157388	0.000782	-1.098981	-107.345851	-57.441451	111.882237
59341		8.153148	-4.373965	-1.542008	0.158072	-0.045771	-1.067567	-107.585243	-58.014769	112.274615
59342		8.347443	-4.071212	-1.866377	0.072730	-0.077329	-1.041043	-107.904520	-58.567985	112.701511
59343		8.312874	-3.963532	-2.285134	0.099570	-0.097890	-1.025820	-108.236782	-59.107057	113.158580
59344		8.209228	-3.526948	-2.014456	0.080760	-0.134627	-1.008342	-108.621143	-59.629470	113.661560
59345		8.119174	-3.490837	-2.126328	-0.043350	-0.188501	-1.001546	-109.141936	-60.135182	114.237005
59346		7.956269	-3.360505	-2.030352	-0.128229	-0.263416	-0.990509	-109.797176	-60.618714	114.908652
59347		8.020358	-3.390050	-1.810067	-0.271654	-0.332392	-0.990080	-110.624299	-61.082949	115.679560
59348		8.276093	-3.490363	-1.857237	-0.357227	-0.384299	-0.990726	-111.576707	-61.532090	116.534275
59349		8.649980	-3.607223	-1.837939	-0.417100	-0.411926	-1.003355	-112.624844	-61.973594	117.454854
59350		9.086706	-3.752559	-1.794783	-0.466118	-0.429164	-1.029510	-113.760147	-62.417824	118.438662
59351		9.240772	-4.011548	-1.853163	-0.494914	-0.389979	-1.055344	-114.918377	-62.874298	119.425460
59352		9.319611	-4.302988	-1.909495	-0.433319	-0.334911	-1.074905	-116.029720	-63.346665	120.395358
59353		9.123541	-4.528011	-2.081087	-0.344960	-0.293287	-1.079818	-117.086117	-63.822557	121.356224
59354		9.020075	-4.414447	-1.894111	-0.197026	-0.251530	-1.065379	-118.041291	-64.295849	122.295050
59355		8.914501	-4.269674	-1.981423	-0.094321	-0.215785	-1.049207	-118.924473	-64.762872	123.215445
59356		8.796824	-3.946298	-1.884426	0.082213	-0.173113	-1.021989	-119.676021	-65.223749	124.098858
59357		8.778805	-3.495716	-1.885537	0.121167	-0.159353	-1.012842	-120.414804	-65.677958	124.989361
59358		8.745241	-3.164911	-2.020049	0.141196	-0.140391	-1.008811	-121.148647	-66.132113	125.883993
59359		8.796187	-2.825670	-2.154572	0.133225	-0.142517	-0.998117	-121.913242	-66.574432	126.803965
59360		8.766334	-2.421519	-2.322770	0.080136	-0.142561	-0.985325	-122.731087	-67.006588	127.745868
59361		8.750173	-2.176501	-2.526570	-0.026288	-0.134867	-0.973842	-123.625981	-67.428873	128.702101
59362		8.654379	-2.047375	-2.711177	-0.081847	-0.133140	-0.967857	-124.581191	-67.844067	129.686306
59363		8.711300	-1.918876	-2.572158	-0.156264	-0.135980	-0.971449	-125.621605	-68.252203	130.713455
59364		8.807299	-1.979289	-2.877574	-0.235425	-0.159420	-0.971184	-126.774601	-68.646118	131.810030
59365		9.007109	-2.028673	-2.722628	-0.278728	-0.198542	-0.972453	-128.040119	-69.017159	132.997792
59366		9.174868	-2.184083	-2.666144	-0.377501	-0.205850	-0.959108	-129.402877	-69.370933	134.226110
59367		9.129261	-2.395390	-2.340799	-0.420345	-0.182461	-0.938626	-130.784649	-69.712570	135.445766
59368		8.999513	-2.361602	-2.378299	-0.462286	-0.176714	-0.922353	-132.211824	-70.040082	136.685474
59369		8.874474	-2.290565	-2.389675	-0.471806	-0.193458	-0.905458	-133.686495	-70.341856	137.967476
59370		8.866118	-2.249887	-2.514796	-0.443063	-0.207098	-0.895881	-135.192923	-70.624014	139.298213
59371		8.883584	-2.155882	-2.328936	-0.336686	-0.173620	-0.886669	-136.627266	-70.903617	140.614963
59372		8.838680	-1.964234	-2.366361	-0.343015	-0.159202	-0.874611	-138.075998	-71.174729	141.940788
59373		8.878499	-1.927245	-2.667572	-0.309806	-0.143287	-0.862566	-139.509160	-71.436139	143.268281
59374		8.916613	-1.754278	-2.601548	-0.242079	-0.118166	-0.853032	-140.903924	-71.695584	144.594044
59375		8.984942	-1.800076	-2.867338	-0.226210	-0.075608	-0.835672	-142.254868	-71.956802	145.881399
59376		8.902769	-1.574635	-2.862487	-0.155916	-0.057349	-0.817555	-143.560590	-72.211693	147.161515
59377		8.956982	-1.377511	-2.704446	-0.231533	-0.083479	-0.807176	-144.955198	-72.440663	148.487868
59378		9.128367	-1.446642	-2.900676	-0.248254	-0.086846	-0.812074	-146.408579	-72.660428	149.863969
59379		9.247457	-1.269245	-2.759115	-0.226517	-0.077961	-0.804796	-147.860836	-72.870817	151.250495
59380		9.359115	-1.170650	-2.798375	-0.271278	-0.048175	-0.809713	-149.356148	-73.087400	152.653443
59381		9.367378	-1.187952	-2.705773	-0.232647	-0.020995	-0.798510	-150.817705	-73.302847	154.042838
59382		9.375817	-1.147985	-2.695865	-0.210331	-0.012506	-0.777794	-152.263493	-73.507370	155.427389
59383		9.242814	-1.208946	-2.836514	-0.213388	0.017827	-0.753148	-153.671571	-73.710357	156.769554
59384		9.046487	-1.096676	-2.761053	-0.192318	0.043320	-0.714203	-155.014124	-73.908323	158.054477
59385		8.799743	-0.962056	-2.555517	-0.228923	0.059731	-0.686633	-156.341035	-74.099355	159.300264
59386		8.671215	-0.899076	-2.465288	-0.309366	0.064331	-0.663243	-157.701756	-74.280008	160.531922
59387		8.662024	-0.825472	-2.392806	-0.337942	0.036169	-0.651724	-159.102002	-74.434590	161.786825
59388		8.939696	-0.592466	-2.367070	-0.368325	0.026589	-0.666621	-160.586087	-74.578849	163.109534
59389		9.165767	-0.482421	-2.454281	-0.470144	0.042534	-0.675696	-162.157095	-74.723538	164.461182
59390		9.278757	-0.541115	-2.513176	-0.536334	0.071273	-0.682037	-163.793867	-74.875359	165.840505
59391		9.430665	-0.634936	-2.558036	-0.571133	0.105217	-0.673997	-165.439716	-75.033934	167.207790
59392		9.554130	-0.789194	-2.602833	-0.589474	0.138442	-0.639945	-167.044305	-75.196546	168.520269
59393		9.525547	-0.946983	-2.615426	-0.570876	0.179019	-0.582491	-168.522809	-75.365504	169.712617
59394		9.398862	-0.890729	-2.557186	-0.560610	0.235257	-0.533640	-169.902093	-75.553500	170.807366
59395		9.172433	-0.903815	-2.582752	-0.541593	0.250278	-0.493402	-171.202040	-75.739522	171.830753
59396		9.052000	-0.949048	-2.683446	-0.550051	0.227718	-0.471411	-172.499102	-75.905312	172.845179
59397		8.945269	-0.949582	-2.728261	-0.495987	0.196892	-0.447522	-173.739711	-76.046264	173.832853
59398		8.981111	-0.809570	-2.512057	-0.411141	0.175133	-0.426720	-174.914871	-76.168591	174.802449
59399		9.144675	-0.764506	-2.402169	-0.365430	0.157202	-0.417613	-176.059040	-76.275516	175.766797
59400		9.258466	-0.746241	-2.420578	-0.294052	0.165344	-0.407107	-177.157111	-76.382190	176.725197
59401		9.257109	-0.797312	-2.372933	-0.189205	0.144422	-0.394385	-178.177345	-76.472441	177.665079
59402		9.373642	-0.653278	-2.397050	-0.081311	0.095641	-0.380038	-179.120055	-76.530671	178.588378
59403		9.573210	-0.491611	-2.435373	-0.013220	0.087014	-0.361246	-179.982073	-76.580581	179.468755
59404		9.630253	-0.319858	-2.315561	0.035878	0.115502	-0.348124	179.204493	-76.643726	-179.672227
59405		9.672703	-0.180121	-2.196333	0.042341	0.124810	-0.356759	178.369414	-76.709384	-178.787261
59406		9.646942	-0.183537	-2.256824	0.034245	0.148585	-0.375467	177.469459	-76.785010	-177.840786
59407		9.506839	-0.108800	-2.195219	0.077699	0.194218	-0.394994	176.533225	-76.882851	-176.831702
59408		9.398693	-0.008329	-2.157003	0.125831	0.216945	-0.406631	175.573616	-76.989222	-175.770838
59409		9.356024	0.118484	-2.100323	0.166269	0.245676	-0.404134	174.624030	-77.108308	-174.696860
59410		9.187039	0.244187	-1.875223	0.239015	0.229292	-0.398796	173.712260	-77.214231	-173.619500
59411		9.186550	0.391307	-1.651120	0.291695	0.176160	-0.380966	172.880154	-77.287676	-172.593154
59412		9.110111	0.571285	-1.487766	0.235455	0.121643	-0.362448	172.067871	-77.328086	-171.620484
59413		9.175419	0.528997	-1.611900	0.095499	0.054650	-0.352349	171.225190	-77.328478	-170.698830
59414		9.284518	0.546976	-1.763698	-0.020206	0.016849	-0.344842	170.347664	-77.304976	-169.809468
59415		9.373055	0.491512	-2.065117	-0.100450	-0.022882	-0.317820	169.517163	-77.259039	-169.015227
59416		9.538404	0.381513	-2.285667	-0.128600	-0.009929	-0.285626	168.746102	-77.221256	-168.298436
59417		9.562272	0.285389	-2.475900	-0.146987	0.039440	-0.244062	168.049484	-77.214132	-167.668620
59418		9.447877	0.063595	-2.544791	-0.119019	0.095573	-0.206206	167.428518	-77.241221	-167.100063
59419		9.460098	0.025496	-2.539401	-0.101805	0.104856	-0.173519	166.894008	-77.276616	-166.610009
59420		9.480742	0.031996	-2.472727	-0.106682	0.120408	-0.143379	166.415845	-77.323437	-166.180743
59421		9.343852	0.124523	-2.316796	-0.107943	0.109938	-0.123236	165.993407	-77.366720	-165.809320
59422		9.358327	0.139186	-2.153364	-0.123647	0.050129	-0.114619	165.615694	-77.377115	-165.493067
59423		9.400261	0.122135	-2.179464	-0.173850	0.028890	-0.119356	165.213766	-77.374891	-165.181406
59424		9.516440	0.078557	-2.194252	-0.224666	0.011579	-0.131462	164.761852	-77.360467	-164.848413
59425		9.501729	0.086506	-2.222483	-0.247905	0.008603	-0.145542	164.267704	-77.341967	-164.485693
59426		9.408122	0.103070	-2.010639	-0.253180	0.017771	-0.156340	163.736485	-77.325778	-164.088109
59427		9.490589	0.021506	-1.832481	-0.268719	0.012140	-0.162240	163.189699	-77.305042	-163.683607
59428		9.538612	-0.032503	-1.807562	-0.296223	0.039637	-0.164503	162.600400	-77.297809	-163.251708
59429		9.415798	-0.211471	-1.752521	-0.304403	0.068596	-0.162192	161.992019	-77.306092	-162.805004
59430		9.439561	-0.342896	-1.605751	-0.292375	0.054531	-0.154423	161.418340	-77.306868	-162.386855
59431		9.696272	-0.426808	-1.835109	-0.312818	0.029429	-0.154104	160.856201	-77.293426	-161.992491
59432		9.710732	-0.589663	-2.219050	-0.320171	0.062388	-0.147164	160.278245	-77.298091	-161.586252
59433		9.705667	-0.453314	-2.569048	-0.257647	0.104399	-0.129891	159.741243	-77.328055	-161.185272
59434		9.576092	-0.230629	-2.822560	-0.154973	0.132093	-0.102555	159.300968	-77.377463	-160.823204
59435		9.416458	0.009352	-2.843987	-0.046123	0.167048	-0.102069	158.889244	-77.445238	-160.426563
59436		9.238257	0.219825	-2.726753	0.033140	0.144491	-0.138511	158.452790	-77.492532	-159.958143
59437		9.160793	0.419647	-2.499190	0.086836	0.090819	-0.186878	157.979498	-77.500383	-159.420539
59438		9.270664	0.655795	-2.339725	0.165627	0.042469	-0.231734	157.492351	-77.471619	-158.822455
59439		9.551379	0.850674	-2.311663	0.219129	0.040451	-0.269827	156.949563	-77.432438	-158.135910
59440		9.793150	1.120534	-2.150009	0.248034	0.053462	-0.297740	156.349158	-77.391975	-157.373223
59441		9.885982	1.365115	-2.108026	0.219092	0.066693	-0.302467	155.710854	-77.355843	-156.588606
59442		9.743597	1.535272	-2.007393	0.200240	0.089091	-0.278228	155.098486	-77.334967	-155.841528
59443		9.661505	1.727688	-1.803147	0.108206	0.076503	-0.255213	154.501703	-77.311776	-155.164435
59444		9.666552	1.742000	-1.558088	-0.086091	0.030159	-0.250634	153.858734	-77.263871	-154.554002
59445		9.743813	1.406133	-1.643715	-0.267185	0.006023	-0.255222	153.133732	-77.201164	-153.965733
59446		9.862024	1.166060	-1.861650	-0.340413	0.004729	-0.247364	152.392293	-77.137863	-153.403479
59447		10.077822	1.131251	-2.056226	-0.360927	0.014523	-0.230153	151.671847	-77.082893	-152.874696
59448		10.322022	1.117897	-2.191032	-0.370636	0.008487	-0.210315	151.001574	-77.028580	-152.402978
59449		10.432589	0.974653	-2.259189	-0.391420	0.008943	-0.187101	150.373715	-76.980145	-151.986922
59450		10.504729	0.797807	-2.121325	-0.385477	-0.011098	-0.160804	149.834150	-76.927978	-151.657905
59451		10.760815	0.608003	-2.069571	-0.376823	-0.043532	-0.148794	149.368835	-76.862952	-151.399968
59452		11.021644	0.331894	-2.074375	-0.361651	-0.040667	-0.140287	148.930259	-76.801079	-151.160478
59453		11.097643	0.159799	-2.027678	-0.331343	-0.003989	-0.128638	148.489517	-76.760510	-150.900895
59454		11.052485	0.194895	-1.910104	-0.289742	0.044538	-0.099781	148.072809	-76.751635	-150.641457
59455		10.924769	0.430824	-1.776966	-0.262612	0.069681	-0.061733	147.717016	-76.766354	-150.428665
59456		10.807609	0.565038	-1.754601	-0.243241	0.060072	-0.023180	147.464772	-76.787905	-150.310816
59457		10.691417	0.701162	-1.775004	-0.204882	0.047251	-0.001119	147.295086	-76.810082	-150.255242
59458		10.673340	0.887710	-1.856845	-0.172237	0.052900	-0.000756	147.138365	-76.835042	-150.193736
59459		10.568603	1.127992	-1.874739	-0.112943	0.075045	-0.015160	146.954610	-76.866132	-150.069630
59460		10.506437	1.403749	-1.841341	-0.099334	0.098302	-0.034596	146.707988	-76.902208	-149.872942
59461		10.502333	1.495528	-1.775628	-0.119975	0.079369	-0.070100	146.399659	-76.917772	-149.625106
59462		10.600540	1.517892	-1.676512	-0.099889	0.062945	-0.109706	146.045035	-76.912622	-149.317893
59463		10.741645	1.516290	-1.609716	-0.027904	0.066623	-0.132271	145.679577	-76.901473	-148.957239
59464		10.847451	1.568520	-1.464764	0.059694	0.084908	-0.142072	145.320598	-76.895346	-148.551662
59465		10.863596	1.701277	-1.321359	0.129874	0.151326	-0.113298	144.965086	-76.929208	-148.108416
59466		10.763605	1.784806	-1.125400	0.146500	0.212746	-0.074110	144.608724	-77.004287	-147.654600
59467		10.598265	1.822378	-1.119370	0.092137	0.223077	-0.025740	144.298614	-77.099554	-147.280375
59468		10.589541	1.892244	-1.172602	0.026061	0.226310	0.007155	144.008063	-77.207122	-146.965195
59469		10.487537	2.097147	-1.107408	-0.067586	0.248337	0.034791	143.681665	-77.333639	-146.668418
59470		10.141979	2.212133	-1.061141	-0.160075	0.272391	0.062448	143.315740	-77.480501	-146.385615
59471		9.784263	2.317761	-0.830467	-0.206529	0.260685	0.097669	143.007475	-77.633492	-146.189262
59472		9.535290	2.225126	-0.726711	-0.222012	0.215942	0.140686	142.845287	-77.780957	-146.151642
59473		9.422377	2.025992	-0.694207	-0.183541	0.180536	0.182164	142.849606	-77.926350	-146.261780
59474		9.417305	1.798589	-0.821410	-0.182804	0.152917	0.220587	142.982348	-78.072636	-146.502772
59475		9.584733	1.413276	-1.092294	-0.243003	0.178293	0.245281	143.099237	-78.238667	-146.762615
59476		9.563133	1.056817	-1.307888	-0.270485	0.248330	0.277180	143.157861	-78.447987	-146.978929
59477		9.365386	0.738079	-1.439089	-0.273871	0.273854	0.322979	143.283241	-78.684358	-147.265096
59478		9.226873	0.708951	-1.565517	-0.256822	0.236659	0.365248	143.589196	-78.918165	-147.725209
59479		9.221840	0.937001	-1.632429	-0.259464	0.161904	0.380794	144.080707	-79.121681	-148.375476
59480		9.336620	1.177669	-1.680705	-0.294546	0.079373	0.381549	144.718009	-79.286121	-149.194274
59481		9.485712	1.359843	-1.769888	-0.379974	0.013109	0.375953	145.431537	-79.415424	-150.139990
59482		9.552820	1.396135	-1.633764	-0.450642	-0.008324	0.381922	146.175009	-79.534574	-151.157006
59483		9.475614	1.249866	-1.467944	-0.487567	-0.007556	0.412564	146.998627	-79.660890	-152.276570
59484		9.325373	0.948440	-1.351401	-0.460083	-0.027360	0.442083	147.972659	-79.783838	-153.532595
59485		9.239883	0.534955	-1.183734	-0.377383	-0.051748	0.458670	149.109060	-79.895377	-154.904931
59486		9.224783	0.179570	-0.989505	-0.236206	-0.054601	0.461929	150.365912	-80.001700	-156.317020
59487		9.124469	-0.083569	-0.841929	-0.053937	-0.042699	0.470737	151.764546	-80.110353	-157.766522
59488		9.129369	-0.259163	-0.855286	0.137637	-0.029101	0.499914	153.368923	-80.227469	-159.312968
59489		9.143994	-0.237402	-0.955938	0.354373	0.007530	0.550987	155.240702	-80.367679	-161.004082
59490		9.184122	-0.299589	-1.007611	0.538286	0.040931	0.631368	157.478158	-80.534143	-162.958410
59491		9.299472	-0.372218	-1.105585	0.685425	0.101279	0.733914	160.137566	-80.739540	-165.253859
59492		9.334757	-0.217006	-0.931363	0.769738	0.198346	0.852502	163.258315	-81.000655	-167.966125
59493		9.213148	0.116661	-0.807135	0.667986	0.266247	0.966274	166.838551	-81.289984	-171.200336
59494		9.194004	0.380334	-0.843787	0.439502	0.274803	1.055347	170.840219	-81.561195	-174.990702
59495		9.388633	0.585757	-0.957404	0.157413	0.261685	1.108671	175.130223	-81.786429	-179.233377
59496		9.582989	0.697262	-1.085141	-0.116980	0.231873	1.095902	179.425900	-81.948342	176.361487
59497		9.821245	0.630697	-1.265129	-0.324008	0.186920	1.027122	-176.541796	-82.039058	172.103886
59498		10.042637	0.681869	-1.389934	-0.452918	0.131347	0.939047	-172.898234	-82.063504	168.164835
59499		10.278598	0.656587	-1.426321	-0.516625	0.134232	0.872786	-169.551273	-82.061397	164.488477
59500		10.272912	0.569719	-1.437293	-0.520482	0.197055	0.833361	-166.315010	-82.070788	160.921720
59501		10.051398	0.252933	-1.416943	-0.480243	0.294894	0.824845	-162.975985	-82.106596	157.274654
59502		9.675926	-0.022400	-1.316526	-0.431657	0.375580	0.833612	-159.437005	-82.155089	153.454252
59503		9.401126	-0.423747	-1.311725	-0.368414	0.398895	0.848959	-155.734894	-82.178754	149.506052
59504		9.272860	-0.830987	-1.278658	-0.287045	0.377896	0.879731	-151.906641	-82.149102	145.477607
59505		9.163294	-1.229434	-1.187956	-0.228937	0.336702	0.917899	-148.051739	-82.050655	141.455198
59506		9.156364	-1.547951	-1.031338	-0.231348	0.265180	0.961359	-144.335570	-81.868566	137.570191
59507		9.265583	-1.823765	-1.015974	-0.252043	0.192849	0.992952	-140.898187	-81.608429	133.952698
59508		9.489457	-2.083141	-1.117026	-0.251826	0.121092	1.015790	-137.798480	-81.279827	130.674137
59509		9.763366	-2.295526	-1.234239	-0.220191	0.091130	1.027259	-134.971206	-80.909058	127.686526
59510		9.779517	-2.553875	-1.410407	-0.098853	0.107968	1.036892	-132.240557	-80.519265	124.864183
59511		10.067602	-2.830429	-1.917063	0.159865	0.117045	1.048076	-129.546490	-80.106664	122.225934
59512		10.537126	-2.992158	-2.315043	0.526823	0.167421	1.064279	-126.702856	-79.683678	119.646064
59513		10.506627	-3.018078	-2.096264	0.811449	0.267692	1.069886	-123.660760	-79.268469	117.026678
59514		10.080554	-3.055026	-1.570545	0.928939	0.311138	1.083192	-120.636852	-78.835102	114.490785
59515		9.782897	-3.029995	-1.406356	1.001126	0.252577	1.112000	-117.894275	-78.347529	112.279972
59516		9.462249	-2.778144	-1.308927	1.133288	0.210799	1.141173	-115.342737	-77.814188	110.337806
59517		9.241656	-2.237201	-0.985066	1.212617	0.142840	1.162942	-113.076384	-77.237606	108.730121
59518		9.356396	-1.919426	-0.663551	1.189911	0.039430	1.178491	-111.206757	-76.617747	107.512621
59519		9.747778	-1.706089	-0.563203	1.170670	0.000041	1.212050	-109.546099	-75.964407	106.495569
59520		10.162306	-1.535967	-0.701327	1.177450	-0.025314	1.271966	-108.009144	-75.266886	105.607322
59521		10.289302	-1.337385	-0.753047	1.106459	-0.021498	1.349861	-106.568766	-74.522459	104.773940
59522		10.285239	-1.292740	-0.555098	0.927407	0.010461	1.453633	-105.214736	-73.720357	103.920662
59523		9.941938	-1.408819	-0.585003	0.683871	0.031924	1.561540	-104.013626	-72.856964	103.077617
59524		9.450448	-1.638695	-0.821614	0.434784	-0.025765	1.661052	-103.106276	-71.925817	102.389088
59525		9.290570	-2.081187	-1.212680	0.199082	-0.155790	1.755956	-102.586953	-70.922855	101.963486
59526		9.625705	-2.653205	-1.625436	0.107300	-0.256456	1.827152	-102.294928	-69.866542	101.720831
59527		10.108620	-3.216657	-1.738523	0.179105	-0.211192	1.857535	-101.915431	-68.798350	101.426858
59528		10.086378	-3.520365	-1.322103	0.283243	-0.047601	1.834382	-101.289592	-67.761010	100.929979
59529		9.748975	-3.618978	-0.970459	0.354813	0.087289	1.792140	-100.506867	-66.759984	100.303705
59530		9.307813	-3.513770	-0.629225	0.381802	0.125403	1.749651	-99.726679	-65.783463	99.692557
59531		9.260216	-3.496688	-0.276887	0.304462	0.101252	1.722751	-99.078031	-64.816994	99.172614
59532		9.305572	-3.585190	-0.013728	0.171876	0.062453	1.719809	-98.591074	-63.846647	98.743777
59533		9.348173	-3.871907	-0.112158	0.113536	0.006515	1.721423	-98.231762	-62.869383	98.416599
59534		9.432426	-4.142251	-0.334402	0.183070	-0.021788	1.708893	-97.887870	-61.896135	98.149123
59535		9.382594	-4.405914	-0.646995	0.290335	0.012481	1.676459	-97.473397	-60.943069	97.868643
59536		9.092873	-4.559969	-0.680976	0.368014	0.081594	1.626033	-96.973387	-60.022736	97.538688
59537		9.040718	-4.766465	-0.790168	0.394128	0.137755	1.573851	-96.435216	-59.134288	97.178581
59538		9.128585	-5.198940	-1.142133	0.420420	0.170837	1.530158	-95.879237	-58.271242	96.812201
59539		8.909812	-5.503576	-1.247794	0.441221	0.194158	1.491086	-95.318011	-57.429789	96.450069
59540		8.313720	-5.535055	-0.747904	0.400016	0.209804	1.442124	-94.791823	-56.615465	96.098413
59541		8.043635	-5.411743	-0.359440	0.421421	0.190477	1.406177	-94.292646	-55.818932	95.790525
59542		8.189863	-5.071564	-0.012059	0.501398	0.211659	1.388419	-93.748632	-55.032046	95.481147
59543		8.167075	-4.637264	0.297662	0.561460	0.284159	1.373816	-93.131525	-54.254096	95.121159
59544		7.943223	-4.593027	0.520753	0.573902	0.337092	1.359457	-92.485776	-53.483850	94.731290
59545		8.117476	-4.797651	0.284739	0.623397	0.323424	1.368494	-91.842733	-52.705352	94.376074
59546		8.072056	-5.026476	-0.244765	0.743842	0.317306	1.390776	-91.153803	-51.911936	94.046703
59547		7.907187	-5.140813	-0.214245	0.728132	0.327184	1.378946	-90.486690	-51.122693	93.729759
59548		7.798855	-5.338068	-0.582693	0.692062	0.302876	1.349297	-89.874340	-50.348704	93.453720
59549		7.465174	-5.109725	-0.478925	0.638696	0.309390	1.285604	-89.303639	-49.608958	93.188723
59550		7.196441	-4.811392	-0.092208	0.451652	0.341054	1.191008	-88.830388	-48.922141	92.908427
59551		7.045404	-4.750249	-0.190222	0.440387	0.345625	1.114915	-88.371208	-48.276827	92.635075
59552		6.825624	-4.341487	0.537675	0.296226	0.337723	1.048487	-88.007455	-47.669088	92.376670
59553		6.614910	-4.516133	0.913460	-0.032075	0.276059	0.979081	-87.875875	-47.100946	92.175361
59554		6.649512	-4.714549	0.790742	-0.183157	0.259733	0.931167	-87.842883	-46.561199	91.989168
59555		6.655033	-5.143922	0.373509	-0.209554	0.188227	0.908490	-87.870440	-46.035156	91.863708
59556		6.701606	-5.584150	0.382836	-0.266599	0.123676	0.884886	-87.968571	-45.524978	91.790537
59557		6.668372	-6.021417	0.078526	-0.296378	0.136167	0.841950	-88.076278	-45.038319	91.705680
59558		6.474258	-6.233050	-0.322303	-0.153833	0.161575	0.794818	-88.086838	-44.579190	91.598703
59559		6.181869	-6.164160	-0.127825	-0.109881	0.171518	0.725371	-88.067132	-44.158666	91.483077
59560		5.977790	-6.206592	-0.317340	-0.049619	0.133884	0.651296	-88.033068	-43.782229	91.396174
59561		5.969821	-6.164853	-0.218255	-0.011182	0.067306	0.585283	-88.013508	-43.443904	91.361151
59562		6.012858	-6.285283	-0.114856	-0.085515	0.014037	0.515220	-88.063716	-43.147722	91.366007
59563		6.017390	-6.612743	-0.191572	-0.090703	0.040958	0.432831	-88.101239	-42.897228	91.347485
59564		5.992885	-6.857740	-0.255406	-0.027820	0.085572	0.359337	-88.077470	-42.688930	91.292106
59565		5.885016	-7.208757	-0.195514	0.040556	0.086431	0.307530	-88.013927	-42.509289	91.235228
59566		5.690422	-7.600798	-0.056719	0.081053	0.004814	0.281974	-87.969504	-42.346789	91.241247
59567		5.715108	-7.889613	-0.167632	0.161947	-0.088938	0.264164	-87.927595	-42.195505	91.319577
59568		5.686842	-7.741939	-0.272626	0.314686	-0.102168	0.247672	-87.804391	-42.054817	91.407682
59569		5.632850	-7.203761	-0.284465	0.439816	-0.097009	0.235476	-87.606896	-41.920390	91.491856
59570		5.464600	-6.585282	-0.044033	0.401115	-0.111941	0.199763	-87.438433	-41.807665	91.586708
59571		5.339787	-6.201973	0.294928	0.202114	-0.149955	0.143834	-87.402250	-41.727370	91.708952
59572		5.329889	-6.213547	0.482765	-0.000821	-0.186145	0.080865	-87.499036	-41.684649	91.856612
59573		5.532889	-6.513946	0.436699	-0.039405	-0.217427	0.054250	-87.633212	-41.657045	92.027187
59574		5.721343	-6.644213	0.308733	-0.028736	-0.208667	0.037439	-87.756182	-41.639209	92.190363
59575		5.694186	-6.862777	0.243106	-0.039245	-0.225655	0.034814	-87.893807	-41.622337	92.366401
59576		5.627685	-7.215398	0.289676	-0.178677	-0.308279	0.036079	-88.153111	-41.606518	92.605605
59577		5.665404	-7.855517	-0.140065	-0.199774	-0.361551	0.024115	-88.451406	-41.596985	92.885206
59578		5.838045	-8.246943	-0.284068	-0.035952	-0.379204	-0.000059	-88.664344	-41.601127	93.177777
59579		5.818418	-8.394647	-0.132044	0.113422	-0.343777	-0.025099	-88.773573	-41.618036	93.442852
59580		5.656226	-8.091195	-0.135304	0.221463	-0.306071	-0.071120	-88.801366	-41.660985	93.678446
59581		5.519921	-7.535892	0.014964	0.297196	-0.303635	-0.107671	-88.784465	-41.724453	93.911763
59582		5.468534	-6.985703	0.109446	0.328855	-0.309401	-0.148082	-88.752317	-41.811468	94.149107
59583		5.545107	-6.589068	0.266834	0.319255	-0.339139	-0.196479	-88.740925	-41.926393	94.408814
59584		5.623165	-6.290552	0.234601	0.285723	-0.370379	-0.246172	-88.765097	-42.070353	94.692331
59585		5.632232	-6.088477	0.161879	0.257270	-0.395928	-0.301263	-88.819378	-42.245834	94.995520
59586		5.674139	-6.045396	0.007321	0.245480	-0.408781	-0.369726	-88.887969	-42.460643	95.308820
59587		5.689634	-6.117623	-0.142002	0.286124	-0.421029	-0.432170	-88.941045	-42.710907	95.632189
59588		5.771087	-6.343211	-0.305532	0.334647	-0.447348	-0.507342	-88.981892	-43.004524	95.976800
59589		5.927177	-6.602152	-0.130137	0.347930	-0.490519	-0.591555	-89.040388	-43.346382	96.356279
59590		5.944526	-6.808615	0.058304	0.349314	-0.479340	-0.678586	-89.094982	-43.737914	96.728646
59591		5.858647	-6.693976	0.312140	0.391849	-0.466924	-0.774466	-89.121491	-44.183879	97.092866
59592		5.721648	-6.235461	0.791266	0.392580	-0.481082	-0.877511	-89.159213	-44.688998	97.470571
59593		5.526981	-5.420689	1.371070	0.370219	-0.479476	-0.992214	-89.213241	-45.259457	97.849686
59594		5.241683	-4.668680	2.077745	0.244128	-0.508230	-1.115467	-89.362096	-45.900391	98.256542
59595		5.115927	-5.803175	2.847228	-0.162261	-0.537322	-1.209461	-89.770979	-46.593779	98.696390
59596		5.397033	-8.340536	2.789966	-0.552178	-0.542753	-1.137323	-90.420411	-47.243106	99.155171
59597		8.016648	-9.301953	2.600331	-0.786504	-0.753972	-0.777695	-91.349151	-47.680043	99.806487
59598		12.407253	-10.730919	0.543743	-1.518371	-1.444314	-0.022778	-93.126327	-47.658718	101.036623
59599		15.154237	-11.627389	-2.755527	-1.049521	-1.309819	0.443732	-94.526244	-47.352948	102.122098
59600		11.813316	-8.960181	-2.597508	-0.136264	-0.240626	0.409084	-94.731253	-47.106220	102.298005
59601		8.499987	-7.547189	-1.589737	0.228008	0.028575	0.254349	-94.570095	-46.960270	102.258769
59602		7.142579	-5.257778	0.722338	0.325810	0.089230	0.044847	-94.325795	-46.936727	102.182778
59603		5.670953	-3.324257	1.165254	0.045097	0.060703	-0.243788	-94.273686	-47.076604	102.149334
59604		5.156810	-3.091698	-0.291329	-0.175613	-0.237062	-0.506336	-94.543599	-47.353673	102.383000
59605		5.607379	-3.477927	-0.926696	-0.287353	-0.554533	-0.706994	-95.091138	-47.728611	102.904444
59606		6.447257	-3.988281	-0.830647	-0.443749	-0.768194	-0.793734	-95.877942	-48.137620	103.624731
59607		7.461899	-4.281289	-0.980179	-0.831399	-0.833431	-0.755315	-96.941342	-48.512308	104.413080
59608		8.170758	-4.764751	-1.488527	-1.497549	-0.732199	-0.660160	-98.328325	-48.829969	105.120295
59609		8.376669	-5.419289	-1.975166	-2.097762	-0.637317	-0.586567	-100.005576	-49.101450	105.752814
59610		8.855646	-6.221196	-2.093889	-2.351302	-0.626767	-0.571738	-101.832693	-49.353680	106.389237
59611		9.915460	-7.300672	-2.011051	-2.297730	-0.593806	-0.618919	-103.628522	-49.622398	107.022070
59612		11.109579	-9.001514	-2.053421	-2.026018	-0.499146	-0.710021	-105.235867	-49.943717	107.609444
59613		11.796188	-10.986003	-2.349718	-1.346954	-0.348132	-0.792692	-106.384960	-50.324111	108.103416
59614		11.843054	-11.997320	-2.162076	-0.384114	-0.166914	-0.816563	-106.877899	-50.743557	108.459479
59615		11.172403	-11.450780	-2.005623	0.560191	0.059637	-0.787764	-106.676609	-51.183289	108.615881
59616		10.005460	-10.071621	-2.023016	1.272716	0.263967	-0.758691	-105.917066	-51.641281	108.579763
59617		8.779010	-8.558685	-2.072723	1.734388	0.374856	-0.749684	-104.803868	-52.110112	108.430207
59618		7.830279	-7.098113	-2.091466	1.898356	0.366603	-0.769073	-103.591087	-52.586978	108.274872
59619		7.234020	-5.683214	-1.535838	1.910093	0.320829	-0.823270	-102.399945	-53.085718	108.155759
59620		6.763446	-4.279425	-0.581199	1.680748	0.242033	-0.905331	-101.397259	-53.620003	108.108894
59621		6.565284	-3.537892	-0.517686	1.098154	0.027275	-0.985966	-100.896563	-54.175111	108.270177
59622		6.799683	-3.103436	-0.789045	0.578822	-0.119873	-1.066027	-100.819505	-54.760264	108.585584
59623		6.765897	-2.867177	-0.718989	0.067986	-0.247653	-1.147417	-101.159280	-55.376418	109.049739
59624		6.899057	-2.758771	-0.859042	-0.417270	-0.425248	-1.205115	-101.949923	-56.002497	109.719999
59625		7.265262	-3.009273	-1.200304	-0.728094	-0.527192	-1.254175	-103.042784	-56.636520	110.534140
59626		7.717227	-3.572840	-1.363208	-0.958849	-0.636109	-1.276018	-104.401976	-57.258830	111.502717
59627		8.266159	-4.248620	-1.835438	-1.050057	-0.703689	-1.255546	-105.911327	-57.845539	112.580466
59628		8.743731	-4.807047	-1.956602	-0.862387	-0.614989	-1.208230	-107.265592	-58.406972	113.595679
59629		8.858714	-5.355881	-1.974763	-0.653494	-0.497021	-1.140488	-108.413980	-58.939486	114.503827
59630		8.957088	-5.855188	-2.059360	-0.437622	-0.434158	-1.063923	-109.389632	-59.434147	115.350160
59631		8.882318	-6.225233	-2.588183	-0.261489	-0.379362	-0.986441	-110.215659	-59.889967	116.135739
59632		8.664545	-6.353693	-2.151347	-0.097245	-0.325293	-0.916100	-110.894661	-60.314385	116.856930
59633		8.415664	-6.203533	-1.905866	0.063360	-0.230296	-0.873778	-111.395117	-60.731385	117.475574
59634		8.046836	-5.869732	-2.368535	0.272910	-0.191840	-0.868853	-111.751298	-61.152116	118.064128
59635		7.993122	-5.140598	-2.196734	0.498667	-0.193885	-0.884928	-111.999919	-61.578901	118.674980
59636		8.017225	-4.488176	-2.083816	0.582585	-0.155710	-0.919503	-112.189172	-62.031536	119.270604
59637		8.204044	-4.049174	-2.034715	0.632086	-0.175362	-0.949215	-112.395692	-62.494288	119.915152
59638		8.367295	-3.276312	-1.901440	0.575281	-0.215921	-0.977509	-112.703641	-62.962097	120.634556
59639		8.710168	-2.779578	-1.876874	0.439337	-0.261074	-1.001355	-113.166678	-63.429834	121.437377
59640		9.074547	-2.429746	-1.902170	0.337540	-0.277160	-1.031113	-113.742196	-63.906675	122.297373
59641		9.346008	-2.208875	-2.003607	0.263203	-0.271132	-1.065242	-114.397546	-64.398225	123.195142
59642		9.585681	-2.028070	-1.705670	0.200714	-0.275036	-1.079451	-115.130887	-64.892040	124.135921
59643		9.815112	-2.093009	-1.820502	0.075135	-0.265615	-1.063634	-115.950462	-65.373916	125.088677
59644		9.783082	-2.152496	-1.995349	-0.003713	-0.234576	-1.026088	-116.793825	-65.839325	126.014339
59645		9.653816	-1.981305	-1.942134	-0.097538	-0.200057	-0.983627	-117.659487	-66.285625	126.902289
59646		9.538697	-1.991647	-1.880512	-0.208389	-0.182874	-0.946498	-118.579239	-66.713060	127.776962
59647		9.517137	-1.936861	-2.123790	-0.275058	-0.150747	-0.926162	-119.518011	-67.132612	128.628042
59648		9.448589	-1.899863	-2.066358	-0.355934	-0.137424	-0.912606	-120.511922	-67.544625	129.485999
59649		9.338483	-2.029952	-2.203286	-0.431276	-0.118538	-0.919618	-121.564450	-67.958646	130.358154
59650		9.197484	-2.149461	-2.299888	-0.472908	-0.106948	-0.917648	-122.662887	-68.370115	131.251442
59651		9.109430	-2.072212	-2.459633	-0.464633	-0.101051	-0.909077	-123.778436	-68.771698	132.165782
59652		9.080996	-2.077453	-2.735913	-0.428473	-0.064510	-0.908965	-124.867999	-69.179705	133.071858
59653		8.959999	-2.093542	-2.726385	-0.405825	-0.060429	-0.903074	-125.971070	-69.578862	134.003924
59654		8.968514	-2.057105	-2.693901	-0.405472	-0.084450	-0.896903	-127.140291	-69.961553	135.004187
59655		9.016875	-2.105730	-2.528066	-0.424358	-0.081167	-0.888905	-128.347124	-70.333378	136.030684
59656		8.980776	-2.171569	-2.561038	-0.455297	-0.092021	-0.870181	-129.610997	-70.686470	137.096392
59657		8.907382	-2.104164	-2.578443	-0.428156	-0.113087	-0.839635	-130.891807	-71.009325	138.194463
59658		8.857754	-1.942388	-2.433266	-0.393504	-0.115903	-0.804950	-132.160204	-71.309196	139.298152
59659		8.781690	-1.662026	-2.252818	-0.381381	-0.118752	-0.763113	-133.410034	-71.581425	140.387914
59660		8.779122	-1.504040	-2.077286	-0.412628	-0.120367	-0.736137	-134.684730	-71.835211	141.483138
59661		8.778399	-1.332278	-2.297024	-0.455061	-0.105381	-0.716778	-135.969715	-72.078574	142.562261
59662		8.831304	-1.076040	-2.194749	-0.467706	-0.098798	-0.701503	-137.269616	-72.312064	143.647772
59663		8.845672	-0.832549	-1.977086	-0.600555	-0.092261	-0.682482	-138.639125	-72.532272	144.725303
59664		8.929751	-0.881298	-2.168523	-0.706826	-0.085852	-0.668952	-140.078085	-72.743184	145.810299
59665		8.938758	-1.083725	-2.425506	-0.772206	-0.058761	-0.667305	-141.546333	-72.956276	146.885727
59666		8.971023	-1.208292	-2.532331	-0.795693	-0.059809	-0.662064	-143.057669	-73.159728	147.990688
59667		9.162259	-1.302799	-2.471936	-0.771400	-0.027131	-0.665812	-144.550180	-73.370098	149.089563
59668		9.090087	-1.661243	-2.618946	-0.772656	-0.000898	-0.657620	-146.039290	-73.582771	150.182677
59669		9.063088	-1.761112	-2.587321	-0.704176	0.013979	-0.647034	-147.482853	-73.790341	151.268287
59670		8.899831	-1.883882	-2.358102	-0.687337	0.029876	-0.614787	-148.882764	-73.989089	152.317135
59671		8.806161	-2.073345	-2.385190	-0.683672	0.018844	-0.568367	-150.234495	-74.161092	153.317341
59672		8.679174	-2.187784	-2.484937	-0.608826	-0.000299	-0.520985	-151.507678	-74.304664	154.279470
59673		8.672514	-2.121830	-2.427383	-0.558081	-0.012502	-0.471684	-152.687511	-74.422544	155.174475
59674		8.751159	-2.110207	-2.384712	-0.552650	-0.007169	-0.425522	-153.794447	-74.526972	155.996345
59675		8.742551	-2.109185	-2.496659	-0.485751	-0.012800	-0.382386	-154.793926	-74.613172	156.746348
59676		8.921435	-2.000203	-2.589249	-0.397989	-0.007006	-0.352784	-155.696268	-74.692411	157.447261
59677		8.997647	-1.963995	-2.469369	-0.338838	0.018375	-0.330758	-156.503729	-74.776625	158.084888
59678		9.087836	-1.783901	-2.296766	-0.254798	0.045279	-0.311585	-157.216135	-74.868809	158.673457
59679		9.124393	-1.569923	-2.287795	-0.247857	0.065694	-0.307710	-157.903405	-74.968737	159.240038
59680		9.214821	-1.459195	-2.380668	-0.268792	0.070288	-0.300993	-158.598569	-75.068186	159.801931
59681		9.235318	-1.333312	-2.414761	-0.228508	0.082940	-0.299720	-159.261898	-75.172135	160.354678
59682		9.356681	-1.151598	-2.317268	-0.207971	0.081424	-0.296713	-159.921364	-75.273257	160.915172
59683		9.464322	-1.065378	-2.491393	-0.227752	0.105090	-0.283947	-160.552216	-75.382830	161.434266
59684		9.380923	-0.968766	-2.451181	-0.243903	0.124468	-0.272413	-161.167336	-75.499482	161.927121
59685		9.259833	-0.818170	-2.364468	-0.259761	0.122858	-0.255905	-161.762070	-75.610757	162.389446
59686		9.181502	-0.863050	-2.347000	-0.270799	0.105297	-0.246897	-162.368455	-75.709812	162.856899
59687		9.201033	-0.808609	-2.254821	-0.308865	0.071818	-0.246096	-163.020114	-75.788994	163.348528
59688		9.325535	-0.782392	-2.237462	-0.390588	0.051759	-0.255796	-163.763484	-75.857398	163.886147
59689		9.409570	-0.961854	-2.279615	-0.419787	0.045781	-0.259887	-164.537919	-75.921286	164.438537
59690		9.481928	-0.926867	-2.235856	-0.404193	0.055790	-0.271960	-165.334620	-75.990756	165.022788
59691		9.539507	-0.918366	-2.234635	-0.407969	0.087006	-0.279027	-166.134271	-76.076492	165.607792
59692		9.479109	-0.946867	-2.234366	-0.403465	0.120869	-0.269223	-166.903829	-76.177919	166.164089
59693		9.391708	-1.076167	-2.269336	-0.324293	0.136130	-0.262000	-167.608948	-76.285176	166.700627
59694		9.360117	-1.010730	-2.228379	-0.258912	0.137515	-0.252045	-168.266452	-76.390536	167.226351
59695		9.372206	-1.020558	-2.433902	-0.265199	0.144332	-0.250660	-168.926202	-76.498098	167.750564
59696		9.334189	-1.075982	-2.516282	-0.206658	0.150379	-0.246672	-169.553437	-76.607257	168.275487
59697		9.280331	-1.007552	-2.260504	-0.134957	0.136186	-0.237690	-170.129347	-76.706219	168.789763
59698		9.294314	-0.932599	-2.047165	-0.097807	0.098093	-0.229804	-170.691633	-76.781681	169.311629
59699		9.358596	-0.809125	-1.999906	-0.060246	0.082592	-0.210458	-171.193801	-76.845563	169.793800
59700		9.444125	-0.698681	-2.124383	-0.023665	0.067523	-0.197596	-171.657070	-76.898829	170.257348
59701		9.523009	-0.539193	-2.158204	0.008624	0.084885	-0.183735	-172.062345	-76.960075	170.680331
59702		9.441740	-0.350711	-2.132812	0.000205	0.106083	-0.163868	-172.423624	-77.031116	171.053016
59703		9.470984	-0.259390	-2.057647	-0.048001	0.110935	-0.145574	-172.766474	-77.103113	171.378426
59704		9.412726	-0.137815	-2.065845	-0.079510	0.107305	-0.133746	-173.105886	-77.171714	171.681624
59705		9.413147	0.085183	-2.034797	-0.101644	0.091347	-0.126686	-173.445123	-77.230427	171.971637
59706		9.409646	0.190180	-2.130674	-0.165002	0.076284	-0.116284	-173.804813	-77.279450	172.245262
59707		9.460977	0.216646	-2.092970	-0.233267	0.065520	-0.111195	-174.192714	-77.321703	172.507741
59708		9.457299	0.073558	-2.018514	-0.266482	0.070910	-0.111445	-174.604656	-77.366580	172.775228
59709		9.473930	0.037318	-1.805188	-0.292709	0.051778	-0.098637	-175.002144	-77.399525	173.012544
59710		9.507216	-0.088973	-1.859203	-0.380368	0.037208	-0.090571	-175.437562	-77.423347	173.237155
59711		9.518990	-0.436598	-2.182421	-0.411705	0.064481	-0.087346	-175.875111	-77.462285	173.445609
59712		9.463930	-0.621719	-2.472795	-0.391379	0.099674	-0.070761	-176.257661	-77.520324	173.609536
59713		9.281045	-0.682942	-2.409125	-0.325325	0.092038	-0.060306	-176.575307	-77.573446	173.745799
59714		9.347065	-0.628028	-2.369392	-0.260875	0.040030	-0.060068	-176.868150	-77.596570	173.894385
59715		9.415415	-0.585563	-2.391542	-0.256157	0.007061	-0.074253	-177.197089	-77.601164	174.082760
59716		9.493312	-0.562512	-2.177358	-0.215924	-0.030061	-0.099395	-177.575862	-77.584793	174.345705
59717		9.567271	-0.433253	-2.150625	-0.205540	-0.054869	-0.112969	-177.982407	-77.554263	174.643268
59718		9.621983	-0.435882	-2.201538	-0.247861	-0.068954	-0.114950	-178.420393	-77.515092	174.948179
59719		9.578485	-0.590455	-2.461170	-0.248178	-0.036962	-0.115419	-178.852943	-77.493897	175.247429
59720		9.519836	-0.650620	-2.533483	-0.220443	0.009060	-0.122264	-179.286941	-77.498474	175.564398
59721		9.481034	-0.750594	-2.521680	-0.162276	0.050062	-0.140047	-179.730756	-77.526276	175.925588
59722		9.467280	-0.747144	-2.504951	-0.091260	0.072982	-0.153900	179.826111	-77.566393	176.327660
59723		9.535535	-0.711573	-2.436803	-0.051470	0.082187	-0.168822	179.366108	-77.611262	176.770327
59724		9.553749	-0.723209	-2.290373	-0.021734	0.087842	-0.175543	178.900290	-77.658280	177.236280
59725		9.472137	-0.645762	-2.075901	0.026973	0.073332	-0.169193	178.478384	-77.696560	177.685805
59726		9.491781	-0.528114	-1.926022	0.074046	0.040723	-0.172518	178.073616	-77.715139	178.145325
59727		9.470600	-0.498060	-1.835317	0.071044	0.024988	-0.175423	177.661275	-77.724227	178.610831
59728		9.413704	-0.596643	-1.794849	0.076446	0.006817	-0.180943	177.238167	-77.721795	179.090504
59729		9.435098	-0.578140	-1.863434	0.097228	0.020862	-0.191551	176.798242	-77.726572	179.599585
59730		9.470096	-0.564246	-1.816062	0.122365	0.052862	-0.190184	176.369896	-77.748649	-179.888477
59731		9.531914	-0.421219	-1.931797	0.134325	0.076385	-0.207921	175.896148	-77.782862	-179.323119
59732		9.641195	-0.241207	-2.040259	0.096102	0.078023	-0.212833	175.383920	-77.816558	-178.740868
59733		9.491024	-0.182294	-2.243560	0.052828	0.096155	-0.207758	174.853319	-77.859938	-178.165272
59734		9.394886	0.001120	-2.072007	0.138565	0.065722	-0.181711	174.445134	-77.886144	-177.664711
59735		9.534996	0.368651	-1.913983	0.095616	0.031592	-0.179919	174.024832	-77.892446	-177.176961
59736		9.539164	0.373587	-1.969311	-0.024745	0.037745	-0.182682	173.525817	-77.901054	-176.679245
59737		9.440053	0.229401	-1.990947	-0.070049	0.045230	-0.184230	172.993712	-77.913083	-176.174260
59738		9.418206	0.268908	-1.941105	-0.058941	0.051444	-0.179516	172.477203	-77.927817	-175.678734
59739		9.454090	0.298012	-1.975974	-0.049120	0.059254	-0.189738	171.935162	-77.945432	-175.151384
59740		9.652443	0.308849	-2.065306	-0.051617	0.067218	-0.203681	171.349807	-77.965119	-174.581235
59741		9.807489	0.267841	-2.176551	-0.082331	0.081186	-0.208992	170.724958	-77.991176	-173.988756
59742		9.885838	0.241949	-2.172643	-0.122617	0.092318	-0.213139	170.058157	-78.021532	-173.377038
59743		10.106023	0.159886	-2.044762	-0.159300	0.077275	-0.206950	169.391169	-78.042759	-172.786682
59744		10.328370	0.055239	-1.892781	-0.176476	0.071386	-0.212735	168.699953	-78.058392	-172.181648
59745		10.388718	-0.101720	-1.825167	-0.163421	0.078376	-0.228249	167.969466	-78.074794	-171.528879
59746		10.267134	-0.172562	-1.848184	-0.053136	0.110845	-0.226809	167.285062	-78.107718	-170.858672
59747		9.997679	0.142739	-1.842025	0.087351	0.142165	-0.200844	166.726594	-78.160129	-170.235022
59748		9.812316	0.628007	-1.962826	0.185394	0.152671	-0.186225	166.251809	-78.219072	-169.639582
59749		9.850829	1.068659	-2.243159	0.204391	0.109147	-0.201169	165.771824	-78.250848	-169.027830
59750		10.047452	1.369008	-2.487186	0.154959	0.071210	-0.235471	165.196205	-78.255368	-168.347351
59751		10.140026	1.604963	-2.289839	0.056759	0.078336	-0.256299	164.502996	-78.259312	-167.604261
59752		10.171371	1.734155	-1.950534	-0.091079	0.104006	-0.260434	163.693818	-78.274571	-166.829254
59753		10.167451	1.673696	-1.949539	-0.256416	0.119900	-0.260854	162.773952	-78.296299	-166.038016
59754		10.085192	1.404507	-2.064938	-0.370223	0.147526	-0.262631	161.756693	-78.329849	-165.213986
59755		10.017716	1.139651	-2.107131	-0.434448	0.161331	-0.265186	160.678808	-78.367588	-164.365735
59756		9.991887	0.871146	-2.206602	-0.493471	0.166809	-0.251561	159.590568	-78.407425	-163.541556
59757		9.937377	0.542289	-2.219851	-0.533458	0.159757	-0.234400	158.525931	-78.444144	-162.764969
59758		9.855951	0.317226	-2.350462	-0.555708	0.131544	-0.205544	157.547255	-78.468977	-162.089209
59759		9.825755	0.171013	-2.413004	-0.559492	0.105052	-0.187351	156.640227	-78.481953	-161.488833
59760		9.761916	0.107057	-2.465629	-0.519182	0.090193	-0.172293	155.810091	-78.488473	-160.943363
59761		9.726955	0.081247	-2.310925	-0.433856	0.073928	-0.167272	155.060587	-78.486535	-160.430310
59762		9.825880	0.199004	-2.195248	-0.329286	0.069620	-0.169144	154.371870	-78.480277	-159.918108
59763		9.976433	0.255239	-2.144340	-0.228612	0.102552	-0.185802	153.658447	-78.485893	-159.321857
59764		10.054510	0.347789	-2.143295	-0.132166	0.140934	-0.200341	152.914731	-78.505550	-158.638285
59765		10.082962	0.450624	-2.196176	-0.042732	0.176509	-0.207582	152.154423	-78.539932	-157.885601
59766		10.165826	0.558700	-2.271418	0.004868	0.195932	-0.218129	151.365335	-78.578886	-157.075774
59767		10.197609	0.636552	-2.295699	0.015912	0.213346	-0.218010	150.552231	-78.624688	-156.235166
59768		10.210190	0.649181	-2.160057	0.005197	0.216323	-0.210818	149.741261	-78.671302	-155.403070
59769		10.269942	0.610008	-1.860547	-0.028195	0.187111	-0.202860	148.966015	-78.703926	-154.627095
59770		10.450933	0.567819	-1.731346	-0.058276	0.140247	-0.217314	148.206467	-78.706926	-153.884680
59771		10.775727	0.424631	-1.604612	-0.052148	0.094778	-0.226199	147.497134	-78.683640	-153.189940
59772		10.999688	0.327176	-1.448829	0.000600	0.078427	-0.232357	146.833681	-78.648648	-152.511022
59773		11.065905	0.161730	-1.344561	0.051871	0.087042	-0.219512	146.218602	-78.620634	-151.851481
59774		11.019218	0.061241	-1.130590	0.128750	0.107511	-0.183847	145.703706	-78.612312	-151.249087
59775		10.871118	0.032338	-0.949051	0.227828	0.112005	-0.145236	145.327131	-78.617895	-150.729953
59776		10.906415	-0.046509	-0.911078	0.330925	0.082126	-0.117511	145.125140	-78.617921	-150.328587
59777		11.208972	0.060420	-0.938338	0.478070	0.064930	-0.117642	145.032850	-78.609658	-149.953187
59778		11.579200	0.317967	-1.265548	0.467925	0.062475	-0.125557	144.923446	-78.597634	-149.566186
59779		11.533978	0.543890	-1.444775	0.382012	0.194787	-0.096616	144.611428	-78.656692	-149.022814
59780		10.908312	0.802023	-1.554228	0.250130	0.314186	-0.005312	144.233848	-78.801415	-148.489781
59781		10.114509	0.974997	-1.571407	0.154028	0.305806	0.097036	144.043188	-78.975845	-148.203699
59782		9.640923	1.232046	-1.620099	0.090362	0.165034	0.145992	144.176209	-79.101615	-148.284566
59783		9.638186	1.330784	-1.620821	0.077720	0.033604	0.141848	144.520883	-79.164480	-148.588349
59784		9.691330	1.458260	-1.392149	0.152810	-0.005238	0.117370	144.922535	-79.200943	-148.906242
59785		9.625833	1.619894	-0.952623	0.256059	0.040181	0.100716	145.263409	-79.252663	-149.102047
59786		9.487728	1.754897	-0.433835	0.312236	0.107864	0.112609	145.555214	-79.340207	-149.215075
59787		9.378122	1.673917	-0.072637	0.272164	0.171857	0.140366	145.784222	-79.466670	-149.287572
59788		9.310333	1.230825	0.283345	0.167348	0.232507	0.199946	146.006615	-79.641286	-149.414362
59789		9.198374	0.639953	0.491893	0.081708	0.282551	0.290697	146.335642	-79.868266	-149.699308
59790		9.040463	0.116252	0.469280	0.036356	0.292909	0.395794	146.924297	-80.133356	-150.274069
59791		8.970060	-0.169053	0.147730	-0.018048	0.241855	0.505885	147.919243	-80.405924	-151.292191
59792		9.066948	-0.309940	-0.212231	-0.104732	0.169718	0.619106	149.391944	-80.673806	-152.844228
59793		9.393522	-0.254470	-0.608771	-0.261151	0.146704	0.722808	151.226191	-80.951595	-154.852041
59794		9.546472	-0.265987	-1.072754	-0.487811	0.173595	0.829581	153.360143	-81.260962	-157.293054
59795		9.534728	-0.256501	-1.645567	-0.690937	0.215016	0.922453	155.798822	-81.598625	-160.157767
59796		9.458489	-0.268725	-2.069684	-0.811607	0.206482	0.979114	158.611608	-81.925195	-163.467923
59797		9.371135	-0.322787	-2.348397	-0.811101	0.149948	1.009125	161.860430	-82.200889	-167.215532
59798		9.346893	-0.291686	-2.279152	-0.690883	0.074414	1.019192	165.548121	-82.405406	-171.334350
59799		9.461603	-0.256637	-2.082309	-0.530009	0.018710	1.009607	169.520846	-82.539726	-175.646062
59800		9.626462	-0.334147	-1.772400	-0.339623	0.014668	0.986381	173.638244	-82.629960	-179.992559
59801		9.840345	-0.474907	-1.393748	-0.118443	0.051616	0.954279	177.807097	-82.698874	175.737619
59802		9.998942	-0.571291	-1.035231	0.073197	0.102973	0.923267	-177.980805	-82.757350	171.535502
59803		10.075201	-0.828274	-0.741018	0.195864	0.143010	0.893755	-173.774082	-82.800606	167.410119
59804		10.163523	-1.127966	-0.533645	0.319232	0.183939	0.901656	-169.391203	-82.827514	163.178753
59805		10.044575	-1.262248	-0.458768	0.420589	0.203056	0.923125	-164.834000	-82.821017	158.830313
59806		10.005689	-1.122313	-0.467127	0.467960	0.164633	0.964231	-160.158977	-82.742666	154.390073
59807		10.211885	-0.775919	-0.542285	0.437750	0.105697	1.017340	-155.528017	-82.576644	149.975598
59808		10.423250	-0.464135	-0.599419	0.373612	0.104167	1.070607	-150.950981	-82.351159	145.576491
59809		10.036032	-0.231245	-0.550099	0.284194	0.176300	1.095722	-146.463063	-82.108895	141.213202
59810		9.123857	-0.096257	-0.550440	0.188517	0.179807	1.079306	-142.350187	-81.829926	137.170563
59811		8.533115	0.002850	-0.695856	0.138340	0.052863	1.020689	-139.049312	-81.480405	133.916340
59812		8.462460	0.133230	-0.934492	0.168377	-0.111560	0.957681	-136.572876	-81.061700	131.510367
59813		8.748405	0.167291	-1.348599	0.249981	-0.186682	0.904744	-134.593882	-80.620002	129.652744
59814		9.098847	-0.059079	-1.880570	0.415011	-0.154410	0.877401	-132.673766	-80.192286	127.948437
59815		9.405526	-0.545685	-2.288401	0.626971	-0.053856	0.862321	-130.582176	-79.799979	126.191182
59816		9.771780	-1.083227	-2.417388	0.802058	0.037343	0.878065	-128.283092	-79.422109	124.322877
59817		9.968517	-1.553099	-1.869928	0.841941	0.091631	0.909976	-125.925811	-79.035455	122.416229
59818		9.844246	-1.848119	-0.908781	0.729785	0.132512	0.953214	-123.609903	-78.627120	120.483718
59819		9.693556	-1.974026	-0.349197	0.544989	0.098893	0.993836	-121.570206	-78.175378	118.722133
59820		9.757444	-1.799759	-0.307012	0.431265	0.033410	1.032479	-119.830895	-77.673506	117.198065
59821		9.825863	-1.643767	-0.517589	0.416572	0.001612	1.038314	-118.294500	-77.151496	115.870260
59822		9.831427	-1.504909	-0.644301	0.446297	-0.027106	1.024552	-116.927083	-76.621195	114.730717
59823		9.806069	-1.343722	-0.878305	0.498975	-0.045036	1.007654	-115.682933	-76.089787	113.746504
59824		9.838466	-1.140393	-0.974382	0.514929	-0.045534	0.994951	-114.521628	-75.559653	112.854979
59825		9.680257	-0.986601	-1.092503	0.447723	-0.027770	0.989050	-113.443377	-75.033037	112.007315
59826		9.540256	-1.011933	-1.221699	0.347003	-0.034961	0.996335	-112.492662	-74.496902	111.229999
59827		9.486672	-1.243390	-1.409443	0.241469	-0.070580	1.021935	-111.708225	-73.936823	110.560490
59828		9.504182	-1.762046	-1.677088	0.103684	-0.127022	1.046338	-111.132505	-73.349553	110.024379
59829		9.692951	-2.472845	-2.187755	0.027874	-0.154475	1.079113	-110.665060	-72.738031	109.554284
59830		9.777230	-3.205195	-2.599350	0.086692	-0.143582	1.105391	-110.160667	-72.113201	109.079278
59831		9.507811	-3.654746	-2.173660	0.141016	-0.102533	1.125384	-109.581981	-71.484500	108.557077
59832		9.207091	-3.941690	-1.626780	0.134502	-0.117617	1.141627	-109.056694	-70.842286	108.085458
59833		9.288017	-4.093182	-1.357299	0.204990	-0.152023	1.151723	-108.571405	-70.187256	107.697199
59834		9.240576	-3.980381	-1.049650	0.365222	-0.109075	1.158480	-107.956494	-69.534610	107.267105
59835		9.127618	-3.946144	-0.858935	0.558012	-0.056089	1.157892	-107.190391	-68.890155	106.791584
59836		9.046714	-3.925075	-0.880951	0.764942	-0.015793	1.175807	-106.279813	-68.239616	106.286196
59837		8.995279	-3.885610	-1.045067	0.936455	0.031701	1.196683	-105.241874	-67.582418	105.747057
59838		8.986928	-3.802628	-1.153376	1.015470	0.065611	1.222590	-104.149439	-66.911591	105.195389
59839		8.906720	-3.766487	-1.313566	1.043900	0.090609	1.253057	-103.046072	-66.223749	104.646710
59840		8.805125	-3.586085	-1.296035	0.999790	0.112677	1.262715	-101.982412	-65.528682	104.110967
59841		8.700854	-3.494411	-1.283623	0.883526	0.105951	1.267360	-101.035000	-64.827068	103.626880
59842		8.643914	-3.423445	-1.257929	0.784894	0.059054	1.266689	-100.235357	-64.117322	103.241141
59843		8.773612	-3.396853	-1.008102	0.716885	0.053895	1.268395	-99.510707	-63.404497	102.893204
59844		8.940847	-3.237110	-0.921197	0.664740	0.073907	1.265878	-98.820681	-62.692605	102.548438
59845		9.117789	-3.223080	-1.025388	0.598059	0.109331	1.268920	-98.155678	-61.980660	102.186549
59846		9.016301	-3.362838	-0.904437	0.486755	0.132248	1.284321	-97.552080	-61.259604	101.819562
59847		8.873975	-3.759322	-0.698522	0.348999	0.111897	1.290378	-97.069400	-60.532350	101.498068
59848		8.863469	-4.124155	-0.591993	0.271259	0.075466	1.306880	-96.683212	-59.791814	101.234130
59849		9.042475	-4.531092	-0.911354	0.281329	0.051370	1.316614	-96.328342	-59.043571	101.011264
59850		8.890242	-4.795125	-0.819718	0.320609	0.076737	1.322177	-95.940200	-58.292837	100.774039
59851		8.620642	-4.874241	-0.448210	0.218141	0.089845	1.297877	-95.614394	-57.556114	100.539180
59852		8.661217	-5.011608	-0.714808	0.205974	0.035402	1.273515	-95.357131	-56.829570	100.375660
59853		8.648988	-4.974805	-0.811154	0.223165	0.021661	1.250484	-95.112216	-56.115175	100.237421
59854		8.521489	-5.107461	-0.821315	0.176526	0.004612	1.216998	-94.917877	-55.418698	100.126868
59855		8.425962	-5.284287	-0.821383	0.213720	0.000245	1.190745	-94.713366	-54.736841	100.028997
59856		8.358376	-5.330689	-0.657683	0.257695	0.018976	1.177270	-94.475349	-54.063326	99.920047
59857		8.274657	-5.345462	-0.526058	0.266617	0.040431	1.174714	-94.221668	-53.391939	99.797117
59858		8.182526	-5.368158	-0.464553	0.272006	0.057938	1.165116	-93.958656	-52.726484	99.665258
59859		8.111202	-5.380910	-0.472651	0.291043	0.041823	1.157797	-93.703349	-52.064193	99.555771
59860		8.002404	-5.419316	-0.554598	0.283605	0.048810	1.124550	-93.454593	-51.420994	99.448173
59861		7.961550	-5.570427	-0.593512	0.333478	0.056191	1.080141	-93.179252	-50.803026	99.342233
59862		7.890584	-5.551418	-0.341734	0.346377	0.090811	1.031613	-92.879955	-50.213731	99.213851
59863		7.665854	-5.518383	-0.183659	0.345931	0.112218	0.988266	-92.573299	-49.649218	99.074501
59864		7.548417	-5.450181	-0.043386	0.387893	0.107530	0.956784	-92.252458	-49.102390	98.946928
59865		7.451735	-5.288898	-0.002149	0.406013	0.102095	0.922041	-91.930792	-48.574624	98.831068
59866		7.465959	-5.361266	-0.395885	0.439237	0.103062	0.891185	-91.595186	-48.064463	98.721065
59867		7.332441	-5.358355	-0.504007	0.476136	0.109057	0.857978	-91.239875	-47.572630	98.612169
59868		7.021031	-5.334795	-0.206782	0.393712	0.139162	0.796440	-90.918442	-47.116391	98.484243
59869		6.670370	-5.306241	-0.164014	0.338311	0.155631	0.729536	-90.623112	-46.697708	98.347738
59870		6.444475	-5.235971	-0.171353	0.325732	0.155478	0.673077	-90.339167	-46.311421	98.216030
59871		6.327150	-5.221250	-0.171542	0.254609	0.088646	0.633258	-90.138678	-45.946894	98.142788
59872		6.290029	-5.376368	-0.119838	0.142061	0.028434	0.595459	-90.039971	-45.604414	98.121090
59873		6.291611	-5.545739	-0.327596	0.108219	-0.017949	0.551184	-89.988100	-45.286699	98.137849
59874		6.295273	-5.470483	-0.471241	0.132831	-0.025570	0.509382	-89.926904	-44.993574	98.161354
59875		6.086863	-5.159941	-0.649820	0.120150	-0.016158	0.455618	-89.867482	-44.730638	98.177270
59876		5.991668	-5.066135	-0.626671	0.012582	-0.083562	0.400677	-89.907980	-44.499940	98.247637
59877		5.993425	-5.297206	-0.329329	-0.181466	-0.155034	0.356407	-90.098630	-44.293822	98.374113
59878		6.113974	-5.849162	-0.438394	-0.245227	-0.181175	0.319297	-90.339467	-44.109312	98.520438
59879		6.178108	-6.288008	-0.378753	-0.208675	-0.175536	0.290850	-90.554654	-43.939969	98.660636
59880		6.079745	-6.917619	-0.326852	-0.141768	-0.154232	0.258097	-90.719314	-43.789949	98.783427
59881		5.986667	-7.412278	0.065002	-0.057199	-0.164243	0.234706	-90.839974	-43.652277	98.913204
59882		5.849741	-7.622649	0.511937	-0.040272	-0.172858	0.195348	-90.955731	-43.537568	99.050003
59883		5.653809	-7.664372	0.755670	-0.079553	-0.217557	0.166999	-91.117519	-43.437711	99.221488
59884		5.607443	-7.477990	0.519632	-0.043544	-0.253272	0.133077	-91.278087	-43.357077	99.421338
59885		5.630757	-6.956859	0.312640	0.023618	-0.279079	0.096045	-91.413730	-43.296364	99.641381
59886		5.696656	-6.206657	0.019445	-0.012299	-0.315228	0.044978	-91.590012	-43.264398	99.890744
59887		5.790007	-5.732239	-0.420972	-0.061316	-0.333966	-0.020892	-91.805104	-43.268743	100.155947
59888		5.893007	-5.468645	-0.588423	-0.104375	-0.329441	-0.095237	-92.044200	-43.315462	100.419919
59889		5.859252	-5.318079	-0.647447	-0.168651	-0.316582	-0.182293	-92.315356	-43.410970	100.676734
59890		5.825766	-5.376995	-0.723690	-0.214007	-0.321457	-0.272411	-92.618769	-43.557537	100.941912
59891		5.752444	-5.556740	-0.465697	-0.297327	-0.325772	-0.367403	-92.976401	-43.756703	101.215812
59892		5.609459	-5.944069	-0.265184	-0.346895	-0.326001	-0.469759	-93.368816	-44.013684	101.497578
59893		5.397090	-6.227090	-0.151398	-0.315322	-0.345507	-0.571152	-93.760765	-44.325989	101.803395
59894		5.219260	-6.305263	0.027726	-0.279464	-0.393482	-0.679700	-94.168410	-44.697434	102.158853
59895		5.142653	-6.207820	0.559848	-0.181049	-0.433656	-0.796481	-94.553342	-45.131553	102.559679
59896		5.209661	-5.898246	0.956465	-0.075617	-0.447830	-0.929763	-94.900207	-45.639743	102.988498
59897		5.435500	-5.462739	0.791345	0.050062	-0.420736	-1.082591	-95.175542	-46.234425	103.414093
59898		5.554205	-5.469023	0.590528	0.143653	-0.375528	-1.258708	-95.389549	-46.931125	103.824505
59899		5.425432	-6.767561	0.263616	-0.146329	-0.484456	-1.411231	-95.858543	-47.706564	104.350871
59900		5.552378	-9.814278	-0.762530	-0.884664	-0.869790	-1.424824	-97.018620	-48.460195	105.231142
59901		8.041407	-12.160156	-1.046942	-1.378107	-1.363169	-1.094827	-98.787235	-48.972060	106.536323
59902		14.603799	-12.412826	-1.743321	-1.945332	-1.925134	-0.436706	-101.200853	-49.024884	108.259947
59903		18.341191	-10.997314	-4.539820	-1.182102	-1.272765	-0.017717	-102.699430	-48.881627	109.351301
59904		15.278857	-8.267895	-2.114887	-0.095092	0.124593	-0.025531	-102.677220	-48.909524	109.251930
59905		11.429974	-6.707929	-0.569040	0.475849	0.567620	-0.073374	-102.049400	-49.018029	108.783454
59906		9.020528	-5.402890	-0.074137	0.720778	0.514522	-0.129968	-101.320184	-49.148931	108.367419
59907		7.688342	-5.234071	-1.320654	1.068149	0.519780	-0.117908	-100.383504	-49.269184	107.940968
59908		6.435063	-4.839161	-0.539661	1.285883	0.428288	-0.072997	-99.373391	-49.350937	107.582951
59909		5.341183	-4.359137	0.460441	0.936086	0.121673	-0.063670	-98.763139	-49.395822	107.487946
59910		4.911110	-3.985013	0.650198	0.348256	-0.123287	-0.103626	-98.655021	-49.442325	107.610860
59911		4.619046	-4.005406	-0.198027	-0.376307	-0.244240	-0.219811	-99.054819	-49.543103	107.855489
59912		4.223570	-4.062646	-0.961357	-1.085737	-0.349896	-0.405467	-99.953953	-49.737630	108.221669
59913		4.404816	-4.276043	-1.418603	-1.585677	-0.495033	-0.604061	-101.268537	-50.023423	108.755026
59914		5.192250	-4.987720	-1.947828	-1.791265	-0.704088	-0.760630	-102.876871	-50.363619	109.515154
59915		6.644598	-6.212988	-2.239592	-1.802717	-0.919636	-0.887944	-104.678309	-50.730035	110.512817
59916		8.717203	-7.946241	-2.472772	-1.555402	-1.028987	-1.005389	-106.458754	-51.124979	111.660638
59917		11.105100	-9.646562	-2.159025	-0.994605	-0.995399	-1.107556	-107.943669	-51.560257	112.834710
59918		12.953779	-10.516900	-2.016026	-0.257358	-0.755910	-1.132080	-108.872766	-52.037069	113.831731
59919		13.730662	-10.166542	-2.307891	0.470334	-0.374408	-1.033644	-109.114057	-52.524941	114.479725
59920		13.253439	-9.061458	-2.822412	1.059727	0.085826	-0.842570	-108.650161	-52.995739	114.662136
59921		11.390550	-7.899135	-2.812172	1.499123	0.487140	-0.662983	-107.593811	-53.441275	114.417917
59922		9.213543	-6.430453	-2.321751	1.758937	0.641318	-0.577783	-106.238267	-53.863074	113.988579
59923		7.623350	-4.988347	-1.657883	1.751502	0.587782	-0.579433	-104.909646	-54.271038	113.589338
59924		6.732842	-3.875215	-1.527455	1.478711	0.420363	-0.649269	-103.864375	-54.689427	113.348396
59925		6.357453	-2.944980	-1.506369	1.093873	0.220030	-0.788025	-103.213317	-55.155679	113.320898
59926		6.473300	-2.352897	-1.093696	0.502079	-0.043605	-0.953368	-103.141101	-55.680151	113.584885
59927		7.036055	-2.524569	-1.303752	-0.078051	-0.284805	-1.110295	-103.638841	-56.259013	114.133694
59928		7.846831	-3.076859	-1.541561	-0.459623	-0.434172	-1.245785	-104.530631	-56.889264	114.888896
59929		8.615035	-3.759279	-1.682383	-0.618403	-0.488291	-1.332865	-105.612606	-57.551695	115.756495
59930		9.417519	-4.502289	-1.745034	-0.644290	-0.476021	-1.363379	-106.745791	-58.224489	116.660655
59931		9.991804	-5.186949	-1.999377	-0.515014	-0.420110	-1.347577	-107.791349	-58.888073	117.542400
59932		10.072006	-5.604749	-2.008158	-0.299450	-0.330813	-1.250398	-108.640483	-59.507939	118.333310
59933		9.791559	-5.931124	-2.242665	-0.048696	-0.193920	-1.138158	-109.211983	-60.086464	118.964376
59934		9.126900	-5.902534	-2.094521	0.179115	-0.076582	-1.016725	-109.521461	-60.620026	119.440600
59935		8.209482	-5.885160	-1.935340	0.224940	-0.035635	-0.902540	-109.738330	-61.097916	119.838525
59936		7.472872	-5.625651	-2.303205	0.296614	-0.012308	-0.809320	-109.867622	-61.530211	120.181656
59937		6.838679	-5.098480	-2.466070	0.400472	-0.050314	-0.771986	-109.968500	-61.933927	120.558768
59938		6.618685	-4.624912	-2.390623	0.478718	-0.124858	-0.771594	-110.107893	-62.322959	121.028714
59939		6.610792	-4.125934	-2.265672	0.514757	-0.216724	-0.804946	-110.343181	-62.710471	121.628422
59940		6.757283	-3.696384	-2.194147	0.503969	-0.310628	-0.862485	-110.719442	-63.108905	122.377320
59941		7.103924	-3.400172	-2.337847	0.440830	-0.401024	-0.917119	-111.267833	-63.514852	123.275811
59942		7.533848	-3.299343	-2.457949	0.399009	-0.457060	-0.960979	-111.943483	-63.928340	124.286181
59943		8.041878	-3.330040	-2.391590	0.360875	-0.524651	-0.988869	-112.754088	-64.335725	125.418840
59944		8.631709	-3.262365	-2.090798	0.389901	-0.539808	-0.999838	-113.602059	-64.738569	126.607302
59945		9.188115	-3.270538	-1.822398	0.355473	-0.508308	-0.994059	-114.462822	-65.137790	127.784351
59946		9.563283	-3.303331	-1.519891	0.343357	-0.455158	-0.969148	-115.290764	-65.529788	128.913712
59947		9.894434	-3.458771	-1.620525	0.361338	-0.399724	-0.939910	-116.058098	-65.913547	129.984588
59948		9.990161	-3.299044	-1.774198	0.426974	-0.352479	-0.904031	-116.742170	-66.285669	131.002206
59949		9.985989	-3.070175	-1.749566	0.481930	-0.308890	-0.878807	-117.353193	-66.651247	131.971787
59950		9.944187	-2.723748	-1.615873	0.487730	-0.264749	-0.855228	-117.919727	-67.012988	132.893772
59951		9.741782	-2.387014	-1.591744	0.496531	-0.215792	-0.836872	-118.432187	-67.374878	133.760269
59952		9.627789	-2.016416	-1.561355	0.468658	-0.197339	-0.831929	-118.958714	-67.736785	134.622261
59953		9.549618	-1.727764	-1.544340	0.423448	-0.180063	-0.837334	-119.514904	-68.102624	135.486238
59954		9.554353	-1.568001	-1.500625	0.327495	-0.155735	-0.848232	-120.129760	-68.478080	136.351767
59955		9.575947	-1.401532	-1.471817	0.252194	-0.119336	-0.852673	-120.769414	-68.862173	137.195517
59956		9.532334	-1.351621	-1.586923	0.164119	-0.076487	-0.850692	-121.432502	-69.255205	138.007931
59957		9.496608	-1.381299	-1.638571	0.076898	-0.053447	-0.843338	-122.135886	-69.647383	138.808087
59958		9.437841	-1.304769	-1.686032	-0.047435	-0.060713	-0.826228	-122.937678	-70.026201	139.634997
59959		9.353249	-1.339336	-1.911759	-0.150865	-0.047654	-0.801121	-123.787874	-70.392115	140.448612
59960		9.144328	-1.373525	-1.864400	-0.263702	-0.066883	-0.777448	-124.741060	-70.737198	141.300876
59961		9.021779	-1.457151	-2.041695	-0.350887	-0.090588	-0.761453	-125.790557	-71.061003	142.200671
59962		8.952389	-1.547168	-2.278816	-0.421020	-0.098504	-0.747100	-126.913190	-71.370866	143.133341
59963		8.931933	-1.668792	-2.324724	-0.450823	-0.121736	-0.747097	-128.115311	-71.665479	144.130384
59964		8.984502	-1.740359	-2.313229	-0.471957	-0.147318	-0.742693	-129.398339	-71.943023	145.197954
59965		9.051493	-1.882692	-2.204483	-0.500174	-0.167521	-0.742680	-130.756912	-72.204381	146.326539
59966		9.096504	-1.791457	-2.261068	-0.548114	-0.175710	-0.735407	-132.185545	-72.451936	147.497964
59967		9.152835	-1.853763	-2.331327	-0.586693	-0.171724	-0.735969	-133.663698	-72.691264	148.696803
59968		9.229066	-1.870050	-2.324191	-0.558406	-0.149781	-0.734576	-135.135721	-72.930386	149.904371
59969		9.221281	-1.817993	-2.228495	-0.552687	-0.153519	-0.731360	-136.637193	-73.156491	151.144908
59970		9.248478	-1.753528	-2.049234	-0.553250	-0.146657	-0.724869	-138.161924	-73.374160	152.407679
59971		9.189030	-1.624146	-2.009742	-0.587716	-0.151833	-0.708734	-139.719990	-73.572878	153.683517
59972		9.092742	-1.502989	-2.125754	-0.592791	-0.154840	-0.690754	-141.295720	-73.754479	154.973218
59973		9.151869	-1.407156	-2.078829	-0.527163	-0.121441	-0.682057	-142.805692	-73.937548	156.232676
59974		9.105949	-1.233675	-2.024970	-0.483478	-0.089659	-0.681512	-144.288371	-74.126570	157.488338
59975		9.147818	-1.251562	-2.237276	-0.451892	-0.042680	-0.677412	-145.718388	-74.326788	158.707136
59976		8.952614	-1.325743	-2.238888	-0.507259	-0.031554	-0.670496	-147.194712	-74.522312	159.939628
59977		8.847036	-1.439058	-2.166807	-0.565881	-0.052224	-0.647522	-148.714164	-74.691484	161.181196
59978		8.697694	-1.304232	-2.003793	-0.635643	-0.064147	-0.604061	-150.242256	-74.833868	162.389104
59979		8.604307	-1.379112	-2.285301	-0.691124	-0.089534	-0.563050	-151.770090	-74.943093	163.563364
59980		8.703198	-1.459444	-2.439075	-0.543522	-0.046715	-0.539210	-153.150601	-75.060439	164.671775
59981		8.684590	-1.275629	-2.477529	-0.447823	-0.020521	-0.514203	-154.415766	-75.177814	165.717224
59982		8.856453	-1.383969	-2.525053	-0.491725	-0.033928	-0.495533	-155.704953	-75.278077	166.760728
59983		8.941262	-1.444494	-2.368593	-0.563014	-0.062156	-0.489378	-157.056338	-75.355608	167.826129
59984		9.138397	-1.627887	-2.332985	-0.632643	-0.100125	-0.486450	-158.490713	-75.406052	168.935518
59985		9.224035	-1.699540	-2.312420	-0.613331	-0.105953	-0.477813	-159.902787	-75.444409	170.033311
59986		9.257502	-1.548577	-2.198642	-0.593075	-0.098953	-0.450787	-161.253303	-75.474910	171.079105
59987		9.290742	-1.442195	-2.346866	-0.581228	-0.067928	-0.434573	-162.540863	-75.513218	172.066943
59988		9.363217	-1.349922	-2.179220	-0.491647	-0.044235	-0.421214	-163.744622	-75.557023	173.020850
59989		9.439945	-1.139156	-2.112498	-0.383918	0.032398	-0.398372	-164.793117	-75.634766	173.878131
59990		9.366161	-1.007034	-2.173641	-0.381063	0.076440	-0.362308	-165.752060	-75.727987	174.644153
59991		9.292650	-1.044130	-2.151940	-0.374186	0.056939	-0.325632	-166.642343	-75.802221	175.343318
59992		9.260167	-0.998133	-2.264319	-0.399345	0.050831	-0.281765	-167.465810	-75.864879	175.958307
59993		9.258973	-1.084410	-2.440009	-0.424818	0.063966	-0.258644	-168.247270	-75.929965	176.514948
59994		9.233633	-1.097573	-2.506167	-0.439272	0.079714	-0.244839	-169.009826	-76.000508	177.043229
59995		9.146694	-1.027845	-2.575902	-0.459222	0.078989	-0.238281	-169.770836	-76.068253	177.558153
59996		9.156016	-1.033052	-2.557179	-0.448203	0.087325	-0.244556	-170.547338	-76.139589	178.095227
59997		9.108038	-0.996701	-2.568219	-0.371965	0.075478	-0.253514	-171.307011	-76.203367	178.659956
59998		9.083295	-0.880092	-2.570104	-0.205412	0.011406	-0.237904	-171.966261	-76.227728	179.219294
59999		9.285480	-0.653161	-2.396057	-0.108935	-0.053233	-0.216156	-172.537164	-76.212409	179.744712
60000		9.703972	-0.636602	-2.401412	-0.157886	-0.064972	-0.201505	-173.108307	-76.187956	-179.758590
60001		9.885829	-0.669069	-2.375950	-0.191745	-0.008460	-0.190250	-173.652194	-76.193946	-179.309784
60002		9.789845	-0.564697	-2.250925	-0.203540	0.044732	-0.189569	-174.192900	-76.229003	-178.871376
60003		9.762614	-0.448109	-2.037201	-0.217047	0.072927	-0.219507	-174.803726	-76.280926	-178.368706
60004		9.812851	-0.383854	-2.072423	-0.272489	0.106975	-0.262609	-175.549219	-76.352769	-177.760379
60005		9.754984	-0.402970	-2.256194	-0.288011	0.176128	-0.309989	-176.408576	-76.464210	-177.044177
60006		9.644548	-0.281663	-2.295708	-0.299140	0.238276	-0.342083	-177.360780	-76.609352	-176.239556
60007		9.568618	-0.264663	-2.384497	-0.356040	0.286739	-0.352823	-178.383578	-76.779417	-175.396312
60008		9.375006	-0.274084	-2.372456	-0.357878	0.321005	-0.335728	-179.391794	-76.965245	-174.569838
60009		9.094457	-0.291953	-2.334109	-0.239513	0.302595	-0.296526	179.744440	-77.137587	-173.822492
60010		8.923094	-0.158558	-2.075633	-0.034562	0.204276	-0.254217	179.085261	-77.251352	-173.165041
60011		8.923016	0.067235	-1.753219	0.075239	0.096734	-0.242992	178.517129	-77.302341	-172.536561
60012		9.111456	0.128176	-1.844248	0.000427	-0.005384	-0.248157	177.894250	-77.293057	-171.896035
60013		9.407870	-0.014970	-2.220055	-0.126712	-0.041457	-0.236534	177.236918	-77.262099	-171.294733
60014		9.470927	-0.031681	-2.447302	-0.193886	-0.024298	-0.213175	176.597217	-77.239915	-170.750988
60015		9.505553	0.108798	-2.561241	-0.226035	-0.010230	-0.183104	176.017978	-77.225884	-170.288002
60016		9.569812	0.162895	-2.545349	-0.284403	0.013899	-0.159803	175.457032	-77.225303	-169.878130
60017		9.649386	0.138697	-2.582711	-0.367638	0.048420	-0.143789	174.884489	-77.244626	-169.505203
60018		9.767179	0.009848	-2.672530	-0.430817	0.099365	-0.109042	174.346230	-77.293722	-169.204656
60019		9.643374	-0.164755	-2.509830	-0.433186	0.163266	-0.084637	173.851492	-77.380438	-168.950115
60020		9.436493	-0.323371	-1.981284	-0.323239	0.153795	-0.057927	173.482799	-77.462628	-168.760318
60021		9.442668	-0.129299	-1.389806	-0.190796	0.068080	-0.040056	173.261684	-77.497404	-168.643945
60022		9.744825	0.039692	-1.275201	-0.251562	0.038689	-0.029507	173.038087	-77.515730	-168.560758
60023		9.771815	-0.133230	-1.683746	-0.428712	0.045494	-0.012795	172.756216	-77.539386	-168.521793
60024		9.549281	-0.376936	-2.103335	-0.487153	0.022191	0.006995	172.496131	-77.550932	-168.539492
60025		9.317364	-0.426887	-2.211699	-0.444013	-0.018688	0.028770	172.333403	-77.541207	-168.631522
60026		9.295939	-0.415693	-2.146585	-0.414310	-0.051091	0.023658	172.183347	-77.512465	-168.719156
60027		9.416027	-0.282224	-2.243167	-0.375033	-0.047106	-0.001006	171.993931	-77.484378	-168.743384
60028		9.518240	-0.138938	-2.350893	-0.357848	-0.006318	-0.024316	171.738196	-77.477273	-168.689632
60029		9.595746	-0.061983	-2.372660	-0.352273	0.043397	-0.045117	171.416050	-77.496827	-168.564545
60030		9.622104	0.018620	-2.404232	-0.380989	0.098038	-0.056672	171.023425	-77.545838	-168.384170
60031		9.425226	-0.047409	-2.304390	-0.370727	0.127897	-0.060824	170.613200	-77.611391	-168.179763
60032		9.317586	-0.157671	-2.050182	-0.261290	0.097991	-0.085357	170.210647	-77.657067	-167.919081
60033		9.489930	-0.193211	-1.702844	-0.191166	0.047539	-0.118837	169.784496	-77.670867	-167.593125
60034		9.669509	-0.388219	-1.706578	-0.209707	0.058208	-0.139430	169.287070	-77.687671	-167.205122
60035		9.568239	-0.721541	-1.924561	-0.177418	0.086388	-0.142672	168.785787	-77.719556	-166.794258
60036		9.465257	-0.767211	-2.066502	-0.085306	0.074651	-0.123884	168.388702	-77.746029	-166.436067
60037		9.438683	-0.749238	-2.231600	-0.045002	0.042544	-0.114104	168.057073	-77.755418	-166.121246
60038		9.478135	-0.723703	-2.353536	0.008665	0.025345	-0.101774	167.796635	-77.756048	-165.847803
60039		9.502790	-0.559542	-2.339348	0.078524	0.026660	-0.090522	167.605000	-77.758814	-165.603820
60040		9.494411	-0.275587	-2.090550	0.116533	0.050766	-0.086819	167.430699	-77.775096	-165.355268
60041		9.517635	-0.116521	-2.031096	0.099201	0.072983	-0.081330	167.247044	-77.804585	-165.107359
60042		9.458542	-0.163028	-2.014674	0.080228	0.087992	-0.088015	167.025497	-77.841168	-164.831797
60043		9.480061	-0.187603	-1.923218	0.079780	0.079144	-0.094141	166.791379	-77.872038	-164.543714
60044		9.499576	-0.213841	-1.791973	0.109645	0.035440	-0.111644	166.555426	-77.875748	-164.236222
60045		9.610272	-0.131198	-1.809651	0.112139	0.005538	-0.127308	166.298480	-77.860652	-163.905839
60046		9.700568	0.049188	-1.794997	0.077128	0.014184	-0.138000	165.989944	-77.848360	-163.543132
60047		9.644135	0.198599	-1.899137	0.042551	0.037596	-0.139018	165.643320	-77.848690	-163.161776
60048		9.641091	0.440727	-2.021783	0.017841	0.062198	-0.124459	165.304435	-77.864110	-162.802772
60049		9.533605	0.656703	-2.062664	-0.058111	0.080562	-0.097038	164.978041	-77.893456	-162.501141
60050		9.351319	0.754640	-1.900319	-0.158366	0.075466	-0.082401	164.635084	-77.921643	-162.241292
60051		9.321436	0.805835	-1.792686	-0.278693	0.044965	-0.088330	164.227483	-77.931894	-161.985913
60052		9.370737	0.656756	-1.767194	-0.398639	0.036506	-0.108986	163.704636	-77.933619	-161.682916
60053		9.407202	0.409633	-1.778850	-0.448488	0.036728	-0.146325	163.056211	-77.928862	-161.280759
60054		9.499571	0.172691	-1.861140	-0.442855	0.029138	-0.186789	162.315225	-77.911889	-160.780578
60055		9.647785	-0.148460	-1.979532	-0.380074	0.023824	-0.220747	161.529436	-77.884734	-160.197797
60056		9.726826	-0.233671	-2.012695	-0.274088	0.021984	-0.234697	160.775156	-77.852240	-159.585009
60057		9.813656	-0.200048	-1.993179	-0.169792	0.018996	-0.228706	160.100720	-77.817795	-158.992749
60058		9.783110	-0.044764	-1.924418	-0.097344	0.021749	-0.210832	159.514722	-77.786910	-158.448361
60059		9.696749	0.128129	-1.897472	-0.064450	0.029133	-0.162169	159.061880	-77.768884	-158.020950
60060		9.664429	0.491470	-2.005016	-0.024228	0.051791	-0.099286	158.768285	-77.775294	-157.732818
60061		9.581826	0.852136	-2.168431	0.023245	0.080830	-0.044543	158.606530	-77.808410	-157.551843
60062		9.614098	1.211550	-2.184897	0.030923	0.071099	-0.024278	158.509810	-77.840437	-157.432845
60063		9.769054	1.438711	-2.010854	-0.022756	0.055994	-0.022243	158.399655	-77.864854	-157.331654
60064		9.996794	1.608418	-1.668772	-0.120959	0.049435	-0.023450	158.237956	-77.885383	-157.235229
60065		10.268719	1.552066	-1.541673	-0.247307	0.056203	-0.040511	157.952578	-77.905872	-157.086431
60066		10.470006	1.334276	-1.700530	-0.384798	0.047935	-0.059586	157.550091	-77.917574	-156.898383
60067		10.652240	1.060643	-1.910117	-0.499771	0.028090	-0.074401	157.063846	-77.915280	-156.692107
60068		10.744146	0.802458	-2.124882	-0.586338	0.031147	-0.065630	156.547567	-77.916135	-156.505790
60069		10.897473	0.679509	-2.099000	-0.623532	0.003312	-0.052392	156.071275	-77.905156	-156.382207
60070		11.103424	0.459392	-2.029800	-0.653121	-0.024463	-0.033591	155.655936	-77.883806	-156.338244
60071		11.272690	0.252125	-1.992306	-0.657559	-0.009131	-0.011129	155.275167	-77.875778	-156.332288
60072		11.328699	0.044293	-2.100591	-0.667316	0.044227	0.015760	154.895539	-77.901947	-156.333164
60073		11.170239	-0.055480	-2.241238	-0.649876	0.119478	0.058527	154.541245	-77.977577	-156.349780
60074		10.946341	-0.106347	-2.344062	-0.600584	0.159069	0.106379	154.285700	-78.085557	-156.438401
60075		10.644953	-0.014714	-2.298378	-0.511697	0.172511	0.153956	154.179523	-78.212348	-156.627630
60076		10.509151	0.130035	-2.264374	-0.416389	0.153882	0.186145	154.234489	-78.337619	-156.925504
60077		10.592656	0.268286	-2.306014	-0.311193	0.148090	0.190331	154.369086	-78.460793	-157.243080
60078		10.752407	0.347428	-2.266571	-0.205570	0.148254	0.173409	154.528668	-78.579750	-157.524177
60079		10.994919	0.455435	-2.233086	-0.120178	0.122942	0.141641	154.687839	-78.677600	-157.754926
60080		11.311241	0.568557	-2.256287	-0.020078	0.065177	0.092389	154.853292	-78.733392	-157.933441
60081		11.526487	0.827242	-2.282153	0.105285	0.019703	0.039024	155.005117	-78.752493	-158.024893
60082		11.514503	1.198871	-2.209029	0.227943	-0.018151	0.002026	155.180106	-78.742975	-158.068209
60083		11.384123	1.632528	-1.954933	0.305978	-0.068423	-0.021118	155.396226	-78.701690	-158.107976
60084		11.348202	1.912719	-1.627573	0.347633	-0.095359	-0.033616	155.637663	-78.643370	-158.149135
60085		11.194779	1.967599	-1.244307	0.359526	-0.081122	-0.055160	155.809085	-78.587376	-158.112025
60086		11.020086	1.769307	-0.811063	0.368088	-0.024477	-0.073050	155.875431	-78.556839	-157.962630
60087		10.892530	1.301750	-0.247816	0.435319	0.082226	-0.074726	155.849877	-78.581687	-157.680247
60088		10.611239	0.875528	0.173077	0.504042	0.242391	-0.044707	155.754511	-78.697366	-157.286524
60089		10.199365	0.720204	0.428136	0.499613	0.391865	0.012996	155.621971	-78.904414	-156.857755
60090		9.793119	0.555063	0.222656	0.374568	0.452535	0.080737	155.516056	-79.159322	-156.529425
60091		9.469439	0.326406	-0.153984	0.201476	0.450349	0.148411	155.489238	-79.428762	-156.382809
60092		9.179145	0.238763	-0.612945	0.051391	0.411311	0.229586	155.655771	-79.697598	-156.520399
60093		8.973343	0.197697	-1.109164	-0.082778	0.338578	0.287446	156.017948	-79.941373	-156.934718
60094		8.852264	0.222723	-1.513546	-0.191903	0.244497	0.340203	156.621201	-80.147862	-157.657032
60095		8.846714	0.292832	-1.753823	-0.271634	0.167723	0.381339	157.431960	-80.320937	-158.635798
60096		8.942677	0.329936	-1.894831	-0.321937	0.123512	0.412560	158.402556	-80.475207	-159.805461
60097		9.079741	0.346031	-1.894109	-0.354046	0.109192	0.448224	159.520729	-80.625038	-161.142825
60098		9.243408	0.247367	-1.948699	-0.388677	0.119802	0.486104	160.774393	-80.783871	-162.637016
60099		9.414581	0.093965	-1.836051	-0.391032	0.158106	0.540208	162.214980	-80.967166	-164.321146
60100		9.442791	-0.139338	-1.757402	-0.379429	0.210141	0.590112	163.852051	-81.180519	-166.196524
60101		9.466472	-0.293731	-1.620407	-0.368876	0.257948	0.630185	165.679911	-81.417036	-168.257639
60102		9.464045	-0.492845	-1.516941	-0.327653	0.301190	0.655280	167.702963	-81.670752	-170.490886
60103		9.400071	-0.727732	-1.321162	-0.245592	0.338395	0.677121	169.960835	-81.935016	-172.912389
60104		9.310533	-0.915603	-1.146994	-0.129794	0.349936	0.705743	172.556917	-82.193800	-175.606815
60105		9.273135	-1.058218	-1.045261	-0.008907	0.334254	0.744249	175.563716	-82.427148	-178.644204
60106		9.275414	-1.021047	-0.911492	0.066281	0.308808	0.796289	179.035228	-82.624297	177.894686
60107		9.376898	-0.888768	-0.824694	0.082098	0.272124	0.857175	-177.047622	-82.770170	173.994776
60108		9.435641	-0.727298	-0.827886	0.051204	0.223905	0.913105	-172.773239	-82.850083	169.717943
60109		9.502803	-0.504956	-0.795863	0.009055	0.190750	0.953672	-168.307151	-82.866250	165.224021
60110		9.496225	-0.214870	-0.751171	-0.036661	0.186730	0.949851	-163.888235	-82.837443	160.751181
60111		9.436242	0.000227	-0.855636	-0.028211	0.177657	0.912979	-159.704121	-82.768607	156.519402
60112		9.386141	0.231629	-1.116729	0.034334	0.173257	0.853944	-155.825438	-82.673116	152.630888
60113		9.275367	0.417840	-1.265402	0.087432	0.179273	0.798783	-152.241928	-82.562794	149.069786
60114		9.139400	0.544211	-1.312937	0.078265	0.182613	0.752095	-148.939172	-82.439894	145.785614
60115		8.992242	0.559145	-1.236188	0.040676	0.169007	0.707334	-145.968692	-82.301113	142.813955
60116		8.932896	0.471461	-1.134425	-0.020603	0.149562	0.675407	-143.294519	-82.144434	140.104882
60117		9.055493	0.239566	-1.055397	-0.067995	0.139864	0.649219	-140.870291	-81.976630	137.619693
60118		9.221574	0.015710	-0.939527	-0.113162	0.142958	0.637249	-138.599281	-81.800542	135.262081
60119		9.405360	-0.376327	-0.928804	-0.162146	0.162427	0.649693	-136.373592	-81.615121	132.920830
60120		9.576206	-0.864211	-1.289856	-0.123515	0.203198	0.684247	-134.021656	-81.418832	130.473172
60121		9.852246	-1.348271	-1.786079	0.049206	0.227132	0.750164	-131.458393	-81.188971	127.910465
60122		10.015332	-1.766175	-1.836533	0.196432	0.245364	0.820739	-128.733388	-80.917030	125.267686
60123		9.427956	-2.127316	-1.307482	0.220058	0.251798	0.849216	-126.082605	-80.615648	122.711695
60124		8.728015	-2.216494	-0.871968	0.170248	0.097570	0.857560	-124.036012	-80.242696	120.736994
60125		8.833464	-2.087634	-0.749424	0.121204	-0.105577	0.869921	-122.695832	-79.790678	119.448570
60126		9.234880	-1.851033	-0.906101	0.132234	-0.156898	0.876104	-121.581658	-79.314892	118.394518
60127		9.335218	-1.687184	-1.138074	0.206112	-0.090045	0.873528	-120.357329	-78.856745	117.269757
60128		9.421505	-1.844231	-1.561985	0.354301	-0.041547	0.868610	-119.028575	-78.409680	116.123353
60129		9.731514	-2.014957	-1.652319	0.543802	-0.017034	0.869563	-117.628073	-77.964058	115.012725
60130		9.954424	-2.147516	-1.314438	0.606207	0.020059	0.892071	-116.168309	-77.510452	113.876198
60131		9.937075	-2.361871	-1.050090	0.589347	0.042585	0.921551	-114.728989	-77.041750	112.748681
60132		9.961793	-2.593249	-1.062927	0.621310	0.042979	0.984202	-113.298911	-76.533674	111.647273
60133		9.965566	-2.745353	-1.139994	0.696657	0.037234	1.060260	-111.866459	-75.978583	110.585398
60134		10.056601	-2.907703	-1.442929	0.824786	-0.010311	1.156310	-110.478593	-75.355636	109.642599
60135		10.010637	-3.096539	-1.196201	0.871963	-0.048853	1.244038	-109.175394	-74.673279	108.812602
60136		9.753348	-3.034024	-0.802666	0.793168	-0.049304	1.316398	-107.961298	-73.946264	108.025474
60137		9.694250	-3.070320	-0.913036	0.765948	-0.079202	1.364935	-106.876817	-73.184200	107.354255
60138		9.754108	-2.974393	-1.085158	0.837736	-0.072603	1.403889	-105.795420	-72.397566	106.726597
60139		9.756408	-2.698252	-0.735802	0.833861	-0.050433	1.424786	-104.743056	-71.600177	106.124351
60140		9.800397	-2.594671	-0.445362	0.697555	-0.048458	1.450008	-103.820910	-70.785219	105.574361
60141		9.895448	-2.682106	-0.523655	0.589578	-0.045073	1.485876	-103.001177	-69.948880	105.064626
60142		9.855605	-2.750312	-0.627634	0.520969	-0.038283	1.531656	-102.246826	-69.084835	104.579987
60143		9.673997	-2.944892	-0.799080	0.430415	-0.041886	1.586621	-101.581515	-68.188206	104.132354
60144		9.511893	-3.279360	-0.992821	0.388577	-0.057808	1.642158	-100.988989	-67.256237	103.734645
60145		9.357095	-3.485685	-1.201152	0.398746	-0.057085	1.678995	-100.419854	-66.302744	103.365933
60146		9.274875	-3.569275	-1.255683	0.374579	-0.032776	1.696561	-99.865439	-65.339842	102.995498
60147		9.302345	-3.859464	-1.338222	0.321952	-0.013507	1.693576	-99.352844	-64.379675	102.635048
60148		9.407549	-4.271029	-1.181829	0.330172	0.027507	1.688377	-98.820375	-63.424263	102.254834
60149		9.464702	-4.483978	-0.863456	0.363873	0.097313	1.671396	-98.226508	-62.483344	101.824181
60150		9.410848	-4.650192	-0.574189	0.373622	0.123857	1.669598	-97.632190	-61.543045	101.395659
60151		9.397912	-4.789528	-0.464306	0.339270	0.121277	1.677735	-97.090805	-60.596507	101.001269
60152		9.326060	-5.040867	-0.655896	0.404179	0.112225	1.693531	-96.547858	-59.638118	100.644280
60153		9.185552	-5.059264	-0.543044	0.495226	0.122523	1.686541	-95.971184	-58.683150	100.305237
60154		8.890205	-5.048556	-0.356113	0.512338	0.131918	1.674606	-95.403065	-57.733375	99.984371
60155		8.701392	-5.055213	-0.350660	0.534986	0.116051	1.663019	-94.861288	-56.788265	99.706856
60156		8.543704	-5.035442	-0.344456	0.531558	0.104565	1.637813	-94.354059	-55.855273	99.465535
60157		8.613381	-5.092278	-0.553368	0.519753	0.067882	1.626110	-93.903073	-54.926786	99.281622
60158		8.290796	-5.093033	-0.294085	0.420510	0.048340	1.608904	-93.539668	-54.006336	99.133395
60159		8.245467	-5.271811	-0.359459	0.341372	0.039011	1.588633	-93.241113	-53.097037	99.007651
60160		8.466738	-5.386918	-0.992216	0.506062	0.034924	1.594619	-92.861207	-52.183473	98.896810
60161		8.129995	-5.079675	-0.415717	0.532523	0.095842	1.572391	-92.433831	-51.284082	98.743405
60162		7.888447	-5.087292	0.049655	0.396656	0.144488	1.541886	-92.062337	-50.402409	98.559775
60163		7.894113	-5.081830	0.120385	0.423509	0.181990	1.535168	-91.661584	-49.524719	98.355653
60164		7.830933	-5.019746	0.201624	0.433264	0.197353	1.521648	-91.257073	-48.654005	98.151331
60165		7.590141	-5.176559	0.363232	0.415757	0.175156	1.503166	-90.888378	-47.792849	97.978798
60166		7.173582	-5.202735	0.744541	0.298506	0.131104	1.454769	-90.623461	-46.958496	97.853760
60167		7.014530	-5.322049	0.713464	0.214209	0.109486	1.396763	-90.426559	-46.156898	97.754103
60168		6.892366	-5.439891	0.469925	0.259122	0.122235	1.345760	-90.201308	-45.384440	97.649641
60169		6.717682	-5.453556	0.648792	0.184997	0.124597	1.274784	-90.022190	-44.652274	97.548825
60170		6.725967	-5.682536	0.198557	0.154722	0.114104	1.217292	-89.869742	-43.953061	97.460304
60171		6.729348	-5.673962	-0.025190	0.182329	0.069777	1.172274	-89.729098	-43.279361	97.410484
60172		6.491484	-5.709403	0.069176	0.083794	0.082819	1.113354	-89.639476	-42.639601	97.352334
60173		6.210657	-5.703216	0.103243	0.043014	0.117889	1.037482	-89.556699	-42.042814	97.268712
60174		5.891604	-5.465668	0.042238	0.078178	0.164765	0.953152	-89.431153	-41.494361	97.150475
60175		5.650183	-5.256657	0.030460	0.089698	0.173361	0.858559	-89.297023	-40.999483	97.027729
60176		5.588827	-5.234094	0.200541	0.038679	0.156330	0.774607	-89.201848	-40.553083	96.918993
60177		5.539809	-5.320969	0.334883	-0.039913	0.179246	0.683652	-89.141802	-40.158052	96.793739
60178		5.393431	-5.578275	0.184335	-0.061479	0.202300	0.612504	-89.083563	-39.803988	96.651413
60179		5.375347	-5.939152	0.075021	-0.058351	0.166799	0.552150	-89.041612	-39.484228	96.536095
60180		5.380195	-6.247682	0.155694	-0.178745	0.095098	0.495363	-89.102268	-39.198228	96.473413
60181		5.255421	-6.610940	0.045215	-0.236688	0.079206	0.421733	-89.203411	-38.954066	96.421598
60182		5.034256	-6.684641	0.191288	-0.217133	0.093125	0.353440	-89.286100	-38.749538	96.358317
60183		4.861180	-6.713242	0.525226	-0.232374	0.117835	0.281273	-89.366185	-38.585710	96.276297
60184		4.582300	-6.649433	0.503160	-0.234735	0.127757	0.215149	-89.442484	-38.460308	96.186137
60185		4.421721	-6.669689	0.124092	-0.193747	0.087740	0.164500	-89.513750	-38.363711	96.125081
60186		4.501911	-7.049683	-0.581270	-0.167480	-0.002266	0.142198	-89.610242	-38.280806	96.129254
60187		4.765582	-7.399714	-0.974649	-0.123705	-0.029394	0.110468	-89.694123	-38.215719	96.153179
60188		4.813006	-7.462887	-0.949761	-0.158485	0.043221	0.044750	-89.764645	-38.188432	96.123606
60189		4.634621	-7.443429	-0.455778	-0.269767	0.078495	-0.018029	-89.883220	-38.196723	96.068323
60190		4.466647	-7.519858	0.108496	-0.365210	0.040627	-0.087431	-90.073318	-38.245182	96.040504
60191		4.454777	-7.522817	0.342440	-0.344164	0.000259	-0.156994	-90.270017	-38.333223	96.042628
60192		4.546388	-7.402537	0.470973	-0.213395	-0.026283	-0.229992	-90.403996	-38.463161	96.064627
60193		4.754690	-7.302588	0.857122	-0.207590	-0.074831	-0.290082	-90.557622	-38.627081	96.123191
60194		4.897060	-7.598474	0.862900	-0.348047	-0.157503	-0.347759	-90.830413	-38.823378	96.243668
60195		5.012401	-8.023622	0.510328	-0.422284	-0.249771	-0.396449	-91.190618	-39.046035	96.434717
60196		5.076648	-8.364030	-0.134535	-0.390868	-0.315697	-0.428632	-91.565665	-39.285241	96.677185
