// General information: 
//  MT Manager version: 2022.2.0 
//  XDA version: 2022.2.0 build 7381 rev 124627 built on 2023-07-19
// Device information: 
//  DeviceId: 00B4BAF3
//  ProductCode: MTW2-3A7G6
//  Firmware Version: 4.6.0
//  Hardware Version: 2.0.0
// Device settings: 
//  Filter Profile: human(46.1)
//  Option Flags: Orientation Smoother Disabled, Position/Velocity Smoother Disabled, Continuous Zero Rotation Update Disabled, AHS Disabled, ICC Disabled
// Coordinate system: ENU
PacketCounter	SampleTimeFine	Acc_X	Acc_Y	Acc_Z	Gyr_X	Gyr_Y	Gyr_Z	Roll	Pitch	Yaw
60827		9.514582	-1.639449	-0.348786	0.116681	0.056025	0.004883	-104.060640	-80.272079	139.580849
60828		9.609919	-1.687305	-0.367055	0.117956	0.050215	0.002749	-103.843454	-80.276476	139.428647
60829		9.643789	-1.741802	-0.416074	0.132071	0.047176	0.001079	-103.632730	-80.281266	139.291118
60830		9.581306	-1.776812	-0.392218	0.156189	0.052808	0.004131	-103.383788	-80.285040	139.128927
60831		9.513776	-1.766822	-0.329275	0.170110	0.047559	0.007861	-103.144479	-80.285874	138.984512
60832		9.519506	-1.731682	-0.225341	0.172832	0.039436	0.009059	-102.925667	-80.284943	138.862566
60833		9.496282	-1.687650	-0.105540	0.154630	0.031754	0.012537	-102.743185	-80.280942	138.766811
60834		9.555040	-1.582303	-0.125809	0.131954	0.028777	0.011495	-102.580909	-80.277177	138.678459
60835		9.457827	-1.450946	-0.073072	0.111198	0.036849	0.004830	-102.412169	-80.278023	138.571405
60836		9.452186	-1.391097	-0.109967	0.066544	0.028383	0.002278	-102.295376	-80.279288	138.491175
60837		9.496124	-1.342297	-0.127555	0.033804	0.035161	-0.002122	-102.181117	-80.283781	138.394410
60838		9.594627	-1.350323	-0.163954	-0.007745	0.028308	-0.000318	-102.108881	-80.286441	138.316203
60839		9.614041	-1.477028	-0.132436	-0.036053	0.030400	-0.000218	-102.048602	-80.289309	138.233601
60840		9.653045	-1.577067	-0.223810	-0.061710	0.028876	0.001960	-102.003765	-80.290734	138.151823
60841		9.624750	-1.680296	-0.181113	-0.077068	0.028759	0.003908	-101.969273	-80.291095	138.071545
60842		9.580271	-1.715013	-0.238484	-0.059250	0.018107	0.010756	-101.952197	-80.286295	138.019362
60843		9.632758	-1.688129	-0.232917	-0.039437	0.013527	0.013336	-101.939367	-80.279542	137.982938
60844		9.567851	-1.639001	-0.192439	-0.015946	0.010795	0.023966	-101.912369	-80.266466	137.945859
60845		9.546768	-1.541923	-0.173181	-0.005806	0.004567	0.032688	-101.896176	-80.247796	137.925575
60846		9.520182	-1.385087	-0.195254	0.002026	0.003653	0.036234	-101.873931	-80.226995	137.903764
60847		9.526163	-1.309801	-0.225387	0.001998	-0.000833	0.035314	-101.869034	-80.206248	137.899480
60848		9.609061	-1.282105	-0.204777	-0.002576	0.005680	0.039349	-101.840883	-80.183936	137.868996
60849		9.635623	-1.306837	-0.252889	-0.009086	0.014242	0.036431	-101.792829	-80.164402	137.814465
60850		9.597880	-1.392756	-0.236784	-0.015264	0.015897	0.043874	-101.736223	-80.140737	137.747718
60851		9.575378	-1.533676	-0.201366	-0.012441	0.006336	0.051797	-101.705712	-80.111708	137.709032
60852		9.600079	-1.587057	-0.202629	-0.019564	0.006533	0.056433	-101.673871	-80.079894	137.664913
60853		9.543016	-1.659849	-0.192267	-0.006896	0.002116	0.063647	-101.646155	-80.043742	137.632286
60854		9.540401	-1.693162	-0.145171	-0.009375	-0.004689	0.066508	-101.638126	-80.004970	137.618263
60855		9.565888	-1.705894	-0.274881	-0.020415	-0.013477	0.069786	-101.663751	-79.963569	137.631933
60856		9.646272	-1.694011	-0.288415	-0.028001	-0.014004	0.073025	-101.691579	-79.920062	137.643484
60857		9.602620	-1.737313	-0.236698	-0.027606	-0.007823	0.070854	-101.702436	-79.878711	137.637976
60858		9.601423	-1.743733	-0.238038	-0.043648	-0.007158	0.064628	-101.722973	-79.840710	137.633015
60859		9.584716	-1.807487	-0.235407	-0.047869	-0.008392	0.065980	-101.750115	-79.802021	137.632260
60860		9.563260	-1.825703	-0.194148	-0.048353	-0.004151	0.063256	-101.764749	-79.765142	137.618561
60861		9.492135	-1.816885	-0.252490	-0.055095	-0.007213	0.066131	-101.791929	-79.726484	137.613643
60862		9.487322	-1.862436	-0.239237	-0.055475	-0.008432	0.066998	-101.821378	-79.687007	137.610851
60863		9.537030	-1.853539	-0.268487	-0.051111	-0.012674	0.069260	-101.860694	-79.645925	137.620595
60864		9.602455	-1.787276	-0.301824	-0.042936	-0.011934	0.069705	-101.891700	-79.604518	137.626689
60865		9.670841	-1.793658	-0.325946	-0.031857	-0.003179	0.066448	-101.892435	-79.566112	137.608429
60866		9.589740	-1.789848	-0.362801	-0.031345	-0.014509	0.046603	-101.939251	-79.537350	137.637353
60867		9.668914	-1.803385	-0.329424	-0.033936	-0.015846	0.045872	-101.992587	-79.508966	137.671373
60868		9.697041	-1.832307	-0.268325	-0.025167	-0.005427	0.049587	-102.006111	-79.479607	137.670044
60869		9.637322	-1.915685	-0.291567	-0.021665	-0.002157	0.050890	-102.007550	-79.450027	137.658437
60870		9.585285	-1.935639	-0.265077	-0.008433	-0.007725	0.050921	-102.017511	-79.419645	137.663237
60871		9.563103	-1.852621	-0.278526	0.000196	-0.001300	0.051438	-102.003401	-79.389828	137.648558
60872		9.543562	-1.842496	-0.282946	0.016583	-0.000341	0.054554	-101.974705	-79.358289	137.628610
60873		9.533647	-1.741796	-0.284936	0.018319	-0.005925	0.056064	-101.961139	-79.325309	137.625054
60874		9.528052	-1.686914	-0.325581	0.009746	0.003374	0.064687	-101.919238	-79.288528	137.587676
60875		9.615370	-1.723895	-0.263879	-0.014213	0.006908	0.063506	-101.881856	-79.252904	137.540910
60876		9.657692	-1.793402	-0.260874	-0.031158	0.010712	0.055405	-101.847995	-79.222183	137.487852
60877		9.747255	-1.886830	-0.270176	-0.022342	0.009870	0.050934	-101.814674	-79.193959	137.440472
60878		9.687105	-1.970238	-0.291900	-0.012717	0.012742	0.055599	-101.764673	-79.163353	137.381729
60879		9.628672	-1.957151	-0.256970	0.009135	0.013548	0.056145	-101.699755	-79.132598	137.320537
60880		9.654133	-1.914861	-0.201074	0.022271	0.014698	0.063437	-101.619985	-79.097796	137.251881
60881		9.531836	-1.835549	-0.204941	0.026857	0.013922	0.071159	-101.535492	-79.058604	137.181088
60882		9.556971	-1.763765	-0.307825	0.017180	0.017812	0.073766	-101.444541	-79.018320	137.098054
60883		9.563861	-1.692125	-0.335905	0.007740	0.013960	0.073641	-101.370427	-78.977705	137.026661
60884		9.546346	-1.671533	-0.306952	-0.006192	0.010393	0.068063	-101.318650	-78.939748	136.969873
60885		9.575888	-1.759982	-0.314652	-0.015723	0.007043	0.065670	-101.283263	-78.902846	136.924225
60886		9.658647	-1.821809	-0.317319	-0.019446	0.011533	0.067111	-101.237027	-78.865536	136.865331
60887		9.688207	-1.841037	-0.221471	-0.009566	0.011604	0.067734	-101.184494	-78.827983	136.805792
60888		9.692990	-1.881185	-0.226457	-0.008372	0.021997	0.072456	-101.099982	-78.788804	136.714333
60889		9.710028	-1.903719	-0.220130	-0.011291	0.018966	0.074844	-101.024390	-78.748043	136.630267
60890		9.700579	-1.889455	-0.243914	-0.015070	0.028933	0.072701	-100.925232	-78.709431	136.519935
60891		9.594566	-1.922345	-0.299319	-0.006267	0.019377	0.081744	-100.842947	-78.664787	136.431961
60892		9.568805	-1.881171	-0.295297	-0.005402	0.026776	0.078732	-100.742515	-78.622480	136.325947
60893		9.546719	-1.900931	-0.250442	-0.004735	0.021518	0.086021	-100.652448	-78.575599	136.230907
60894		9.608284	-1.961547	-0.288776	-0.009144	0.016342	0.084166	-100.581835	-78.529067	136.153095
60895		9.641164	-2.012504	-0.311040	-0.002097	0.006115	0.082164	-100.536133	-78.482693	136.104844
60896		9.623426	-1.992676	-0.282447	0.008442	0.009573	0.076556	-100.479072	-78.439712	136.051123
60897		9.565981	-2.053729	-0.238930	0.016435	0.017969	0.079753	-100.392148	-78.395891	135.971620
60898		9.484615	-2.050634	-0.272584	0.028911	0.014327	0.082461	-100.308369	-78.350041	135.902577
60899		9.485435	-2.031110	-0.317650	0.040838	0.015437	0.080161	-100.215290	-78.305657	135.831049
60900		9.473451	-2.044968	-0.293682	0.056980	0.019493	0.085135	-100.101359	-78.258774	135.747614
60901		9.525467	-2.026860	-0.285133	0.065748	0.024043	0.077083	-99.973481	-78.216906	135.655100
60902		9.547849	-2.083502	-0.283222	0.064578	0.025376	0.078340	-99.844108	-78.174365	135.560311
60903		9.607776	-2.086559	-0.248103	0.065862	0.029002	0.075801	-99.704899	-78.133596	135.456261
60904		9.627505	-2.170095	-0.198370	0.065308	0.028774	0.072134	-99.570426	-78.094796	135.356660
60905		9.554200	-2.187087	-0.204039	0.073623	0.027118	0.066268	-99.437508	-78.059107	135.263564
60906		9.454522	-2.181677	-0.160760	0.077493	0.027066	0.065810	-99.304863	-78.023628	135.172941
60907		9.414658	-2.168992	-0.198292	0.083527	0.022128	0.068297	-99.179789	-77.986201	135.093651
60908		9.391722	-2.114048	-0.160897	0.077290	0.018093	0.063984	-99.073119	-77.950859	135.029443
60909		9.427235	-2.136791	-0.227711	0.079540	0.018174	0.065615	-98.962890	-77.914497	134.962986
60910		9.386902	-2.138566	-0.186505	0.072509	0.016696	0.061669	-98.864598	-77.880292	134.904528
60911		9.403252	-2.087197	-0.187704	0.062891	0.018896	0.055622	-98.766910	-77.849570	134.841132
60912		9.418112	-2.120283	-0.211922	0.054702	0.023741	0.051548	-98.665237	-77.821667	134.768765
60913		9.404483	-2.142929	-0.219407	0.054127	0.023507	0.047865	-98.564210	-77.795669	134.696810
60914		9.416601	-2.202143	-0.195966	0.046713	0.025800	0.043411	-98.465674	-77.772497	134.622954
60915		9.385340	-2.281250	-0.199103	0.052724	0.020857	0.045910	-98.373691	-77.747297	134.559425
60916		9.443777	-2.292889	-0.197123	0.056960	0.013408	0.028698	-98.307834	-77.731388	134.525006
60917		9.509725	-2.251894	-0.178891	0.051277	0.007801	0.019436	-98.261042	-77.720027	134.506877
60918		9.522423	-2.307991	-0.156482	0.040237	0.017788	0.006390	-98.201960	-77.717114	134.469584
60919		9.504276	-2.292830	-0.158939	0.037870	0.013219	0.003856	-98.154491	-77.714972	134.442909
60920		9.498854	-2.259457	-0.150781	0.035993	0.014821	-0.000894	-98.108312	-77.715936	134.416332
60921		9.439661	-2.251303	-0.147777	0.035488	0.014101	-0.002310	-98.062009	-77.717301	134.389465
60922		9.403567	-2.220002	-0.155359	0.034463	0.014483	0.003475	-98.015970	-77.715750	134.362134
60923		9.421278	-2.163327	-0.158040	0.037649	0.009220	0.000669	-97.979858	-77.714982	134.346973
60924		9.436019	-2.133205	-0.113647	0.028605	0.006213	0.001907	-97.959310	-77.713657	134.342295
60925		9.456746	-2.049741	-0.164592	0.023388	0.008594	-0.000960	-97.933404	-77.713739	134.329226
60926		9.510638	-2.024056	-0.158308	0.012967	0.007908	-0.003060	-97.919205	-77.715366	134.321876
60927		9.477914	-2.038449	-0.204913	0.005853	0.013717	-0.002066	-97.890255	-77.716485	134.295414
60928		9.501454	-2.087540	-0.204373	0.001653	0.017539	-0.002098	-97.857076	-77.718321	134.262006
60929		9.507038	-2.120545	-0.208562	0.002602	0.017634	-0.010157	-97.822575	-77.724333	134.227961
60930		9.512636	-2.153509	-0.212797	0.011838	0.014226	-0.003192	-97.792564	-77.726523	134.203768
60931		9.550956	-2.172034	-0.169020	0.016961	0.017776	-0.006236	-97.747929	-77.730293	134.167775
60932		9.556192	-2.132579	-0.182725	0.028872	0.008384	-0.003492	-97.723494	-77.732197	134.159277
60933		9.637809	-2.130835	-0.112558	0.037762	0.012352	-0.009277	-97.682009	-77.737250	134.138713
60934		9.539331	-2.044390	-0.081668	0.034260	0.014097	-0.011949	-97.642511	-77.744390	134.117959
60935		9.503529	-2.011670	-0.090275	0.007114	0.003245	-0.016881	-97.644807	-77.753066	134.124236
60936		9.513984	-1.932397	-0.121224	-0.015459	-0.001111	-0.009044	-97.672539	-77.757396	134.143129
60937		9.524723	-1.925962	-0.142940	-0.024525	0.001327	-0.011455	-97.695921	-77.762870	134.152440
60938		9.517726	-1.976628	-0.160268	-0.028275	-0.004539	-0.005072	-97.738597	-77.764676	134.179109
60939		9.461917	-2.014302	-0.198265	-0.028814	0.002017	-0.001511	-97.759000	-77.764586	134.182862
60940		9.444248	-2.071098	-0.193951	-0.022745	0.002046	-0.000356	-97.779592	-77.764220	134.190176
60941		9.449325	-2.032071	-0.209764	-0.009052	-0.003009	0.001228	-97.800763	-77.762186	134.206303
60942		9.479938	-2.030063	-0.194263	-0.008390	0.002194	0.003569	-97.811332	-77.759603	134.211777
60943		9.484935	-1.991486	-0.209452	-0.009864	0.006825	0.006572	-97.805242	-77.755305	134.199537
60944		9.522988	-2.011024	-0.167201	-0.020201	0.005652	0.006743	-97.812393	-77.751189	134.194589
60945		9.528271	-2.045361	-0.173217	-0.023609	0.001468	0.009984	-97.826874	-77.744553	134.195343
60946		9.530136	-2.033850	-0.141280	-0.035074	0.006613	0.010024	-97.838855	-77.738650	134.186616
60947		9.553407	-2.084139	-0.142299	-0.037475	0.009317	0.012472	-97.839753	-77.731225	134.165345
60948		9.501391	-2.098466	-0.115338	-0.037894	0.008112	0.013334	-97.848253	-77.723560	134.151404
60949		9.522197	-2.088819	-0.158326	-0.043941	0.002633	0.015818	-97.868917	-77.713710	134.146577
60950		9.514350	-2.069205	-0.185135	-0.039498	0.002806	0.019057	-97.890094	-77.702383	134.144668
60951		9.485357	-2.060778	-0.169307	-0.039917	0.001600	0.019919	-97.909517	-77.690123	134.140936
60952		9.477491	-2.041288	-0.196035	-0.039060	0.004008	0.018207	-97.927593	-77.679373	134.136109
60953		9.482232	-2.004042	-0.212042	-0.042888	-0.001385	0.022306	-97.955470	-77.665528	134.139293
60954		9.496391	-1.976377	-0.169766	-0.025736	-0.000938	0.031542	-97.973871	-77.646819	134.142613
60955		9.535961	-1.969436	-0.287618	-0.013781	0.000082	0.029287	-97.978614	-77.629152	134.139189
60956		9.523590	-1.919606	-0.196062	0.005090	-0.001922	0.030091	-97.982390	-77.611188	134.145619
60957		9.528115	-1.883857	-0.211411	0.006363	-0.001951	0.039773	-97.977040	-77.587447	134.143680
60958		9.516597	-1.820831	-0.199467	0.004913	-0.002781	0.046420	-97.977216	-77.560150	134.146321
60959		9.522995	-1.774296	-0.182804	0.003551	-0.004098	0.055348	-97.973367	-77.527465	134.144270
60960		9.557766	-1.739292	-0.183216	-0.013506	-0.012303	0.072917	-97.998927	-77.484376	134.162101
60961		9.578655	-1.737603	-0.115783	-0.025516	-0.018279	0.076541	-98.040142	-77.438629	134.189155
60962		9.624698	-1.829562	-0.200941	-0.046558	-0.032698	0.085032	-98.131611	-77.387017	134.255122
60963		9.720348	-1.865448	-0.163605	-0.051475	-0.026315	0.085405	-98.203979	-77.335669	134.298872
60964		9.736419	-1.962497	-0.152509	-0.050325	-0.012662	0.091936	-98.243544	-77.281749	134.309450
60965		9.685179	-2.175686	-0.147537	-0.053175	-0.003418	0.098008	-98.254103	-77.225197	134.288856
60966		9.570819	-2.187016	-0.233075	-0.053809	-0.001359	0.100690	-98.264055	-77.167242	134.267022
60967		9.566356	-2.208869	-0.266640	-0.034070	-0.006494	0.103406	-98.269345	-77.107374	134.252252
60968		9.465341	-2.277889	-0.219877	-0.027612	0.002446	0.106454	-98.253011	-77.046465	134.218838
60969		9.495825	-2.274148	-0.172536	-0.036094	0.000185	0.109147	-98.241154	-76.983868	134.185279
60970		9.478247	-2.314107	-0.216888	-0.035997	-0.007572	0.106436	-98.254523	-76.922144	134.177408
60971		9.490887	-2.294494	-0.174866	-0.028764	-0.001205	0.109116	-98.242042	-76.859420	134.147513
60972		9.482656	-2.343958	-0.160788	-0.027118	-0.006830	0.110680	-98.247127	-76.795350	134.136355
60973		9.490656	-2.348958	-0.183255	-0.027829	-0.004278	0.111085	-98.240974	-76.731227	134.113508
60974		9.424083	-2.316793	-0.177311	-0.029915	-0.004846	0.111783	-98.242641	-76.666695	134.097186
60975		9.457992	-2.286807	-0.177979	-0.036259	-0.006527	0.113817	-98.245812	-76.600809	134.078956
60976		9.412742	-2.243931	-0.215162	-0.037925	-0.011358	0.117287	-98.265730	-76.532621	134.076671
60977		9.395804	-2.212147	-0.269401	-0.030465	-0.019231	0.125429	-98.291491	-76.459099	134.085086
60978		9.394185	-2.094167	-0.210286	-0.030366	-0.028416	0.141399	-98.338568	-76.375828	134.115195
60979		9.419541	-2.061049	-0.159599	-0.014505	-0.036800	0.154606	-98.385546	-76.284327	134.154869
60980		9.401399	-1.915139	-0.185873	0.005700	-0.047805	0.178794	-98.443013	-76.178223	134.216974
60981		9.440273	-1.735659	-0.175120	0.041995	-0.059558	0.207099	-98.490492	-76.055121	134.290556
60982		9.435868	-1.502273	-0.311494	0.086062	-0.056096	0.240000	-98.498285	-75.913611	134.348986
60983		9.442903	-1.284918	-0.277701	0.098642	-0.059160	0.279901	-98.486344	-75.749476	134.394851
60984		9.570529	-1.198442	-0.244829	0.112760	-0.083806	0.330087	-98.509010	-75.554570	134.484508
60985		9.752777	-1.033462	-0.250231	0.140947	-0.098390	0.375579	-98.525789	-75.333204	134.585161
60986		9.866361	-0.869562	-0.233854	0.165688	-0.086897	0.434045	-98.488542	-75.079124	134.644398
60987		9.763996	-0.791264	-0.203172	0.147753	-0.048435	0.479081	-98.361969	-74.803767	134.600868
60988		9.587920	-0.914770	-0.478703	0.035391	-0.072207	0.489049	-98.352614	-74.519771	134.611767
60989		9.786738	-0.856182	-0.470201	0.023258	-0.058424	0.504181	-98.313613	-74.229807	134.584969
60990		9.982728	-1.133970	-0.368562	-0.004816	0.003574	0.511362	-98.171761	-73.939389	134.434165
60991		9.870249	-1.635184	-0.076347	-0.051561	0.011863	0.537888	-98.034429	-73.636421	134.260226
60992		9.807142	-2.378434	-0.089266	-0.113359	0.012247	0.568399	-97.932945	-73.314146	134.086193
60993		9.687802	-3.043455	-0.277647	-0.092850	0.007294	0.591234	-97.824439	-72.980580	133.917103
60994		9.541999	-3.440377	-0.305490	0.003103	-0.006606	0.611559	-97.691013	-72.632152	133.778866
60995		9.437523	-3.649393	-0.184590	0.071906	-0.017770	0.616428	-97.538588	-72.282052	133.662117
60996		9.371520	-3.757640	-0.215342	0.152775	-0.037947	0.623230	-97.382967	-71.924455	133.590136
60997		9.489031	-3.647309	-0.329500	0.209518	-0.058319	0.618161	-97.231291	-71.570029	133.556773
60998		9.590210	-3.439944	-0.516250	0.259275	-0.061845	0.627082	-97.062805	-71.208423	133.535308
60999		9.689564	-3.312184	-0.468200	0.333781	-0.047748	0.654088	-96.823100	-70.834122	133.484022
61000		9.657976	-3.073882	-0.296379	0.439772	-0.036728	0.691963	-96.507750	-70.437219	133.416408
61001		9.747536	-2.741651	-0.156624	0.545812	-0.032336	0.732713	-96.121947	-70.018990	133.338734
61002		9.802569	-2.448914	0.095743	0.604965	-0.002673	0.762916	-95.665237	-69.583387	133.220993
61003		9.687706	-2.290403	0.292635	0.557228	0.023016	0.778934	-95.202691	-69.141702	133.067912
61004		9.636405	-1.943027	0.158472	0.393033	0.033377	0.802758	-94.831239	-68.684592	132.910716
61005		9.730027	-1.639874	-0.304492	0.162532	0.015910	0.813388	-94.621170	-68.222683	132.785066
61006		9.957629	-1.414049	-0.385142	0.040886	0.006838	0.820293	-94.502755	-67.753914	132.682166
61007		10.250039	-1.318252	0.045889	0.002016	0.030891	0.827303	-94.373647	-67.285108	132.543764
61008		10.356553	-1.729514	0.482298	-0.137173	0.033831	0.829933	-94.328254	-66.811866	132.408670
61009		10.326177	-2.236768	0.615184	-0.263491	0.031857	0.838213	-94.356182	-66.337493	132.274712
61010		10.130393	-2.709621	-0.056047	-0.510398	0.026412	0.858061	-94.535170	-65.847942	132.150165
61011		9.924793	-3.456249	-0.497083	-0.613269	0.006365	0.874055	-94.791196	-65.352706	132.045677
61012		9.670542	-4.390014	-0.158976	-0.487787	-0.012449	0.896828	-94.997819	-64.839535	131.964895
61013		9.515959	-5.249653	-0.227476	-0.346285	-0.052261	0.906812	-95.164448	-64.323050	131.929957
61014		9.496662	-5.537891	-1.146574	-0.225360	-0.073040	0.888267	-95.289915	-63.811807	131.925434
61015		9.398356	-5.413239	-1.297604	0.042689	-0.043320	0.803757	-95.232532	-63.354372	131.888923
61016		9.058114	-5.581066	0.017365	0.583352	0.005007	0.618082	-94.836961	-63.001257	131.819733
61017		8.552549	-5.286122	1.013149	0.978927	0.103281	0.356947	-94.131888	-62.805177	131.658020
61018		8.102067	-4.312301	0.660144	0.984926	0.161998	0.093737	-93.386369	-62.757133	131.453796
61019		8.203182	-3.249663	0.107730	0.840088	0.190942	-0.153280	-92.703107	-62.853732	131.227209
61020		8.776805	-2.777308	0.570312	0.886821	0.215534	-0.367267	-91.975850	-63.068555	130.980709
61021		9.086209	-2.419049	1.267125	0.895380	0.239696	-0.548487	-91.209365	-63.389962	130.697304
61022		8.835739	-2.434859	1.634720	0.744267	0.251856	-0.705559	-90.510527	-63.795939	130.392711
61023		8.419757	-2.579858	1.647034	0.483203	0.236116	-0.867235	-89.960300	-64.297371	130.089353
61024		8.529840	-2.753021	1.261696	0.253697	0.203052	-1.038786	-89.571087	-64.891726	129.818939
61025		8.992953	-2.880430	0.864331	0.151672	0.190063	-1.214287	-89.231719	-65.590612	129.541730
61026		9.278080	-2.811628	0.741246	0.192266	0.209308	-1.363209	-88.829451	-66.369225	129.221487
61027		9.370852	-2.894636	0.668676	0.213084	0.237858	-1.500645	-88.338722	-67.230025	128.821243
61028		9.431115	-3.197192	0.501829	0.184259	0.277171	-1.608034	-87.777466	-68.145194	128.328254
61029		9.375082	-3.457043	0.549187	0.212022	0.296134	-1.708893	-87.109318	-69.120589	127.742042
61030		9.407066	-3.591344	0.652193	0.272567	0.293061	-1.813976	-86.349681	-70.148465	127.097929
61031		9.336165	-3.213635	0.722092	0.347902	0.286820	-1.906540	-85.457340	-71.231079	126.364369
61032		9.180618	-2.765689	0.783055	0.391017	0.256602	-1.985521	-84.494031	-72.351361	125.585738
61033		9.052268	-2.103176	0.576014	0.294409	0.215702	-2.057925	-83.520409	-73.515878	124.744417
61034		8.963905	-1.685428	0.417769	0.201937	0.193261	-2.109456	-82.512596	-74.702095	123.816487
61035		9.070355	-1.400606	0.717198	0.176307	0.195615	-2.151862	-81.322396	-75.911924	122.691081
61036		9.362175	-1.291361	0.813222	0.066420	0.201260	-2.208395	-79.962651	-77.141835	121.331649
61037		9.660748	-1.474363	0.580809	-0.099392	0.226527	-2.246086	-78.305606	-78.386324	119.578351
61038		9.871629	-1.941695	0.324384	-0.176026	0.253947	-2.261434	-76.220640	-79.618556	117.351351
61039		9.856327	-2.414824	0.266426	-0.132008	0.287286	-2.262267	-73.390404	-80.831520	114.403151
61040		9.578722	-2.819926	0.265001	-0.001780	0.300092	-2.257744	-69.608629	-82.004887	110.577340
61041		9.165583	-2.976011	0.266184	0.157830	0.313921	-2.252573	-64.361739	-83.127826	105.377641
61042		8.570907	-2.900050	0.248576	0.290118	0.261219	-2.251516	-57.391331	-84.184822	98.531523
61043		8.371256	-2.762991	0.463653	0.472539	0.215986	-2.271734	-47.531988	-85.147987	88.901773
61044		8.309301	-2.248112	0.535992	0.592308	0.173147	-2.274501	-33.681215	-85.928167	75.349588
61045		8.384089	-1.481260	0.350678	0.584894	0.109374	-2.285294	-14.993904	-86.418121	56.957102
61046		8.768752	-0.685729	-0.000725	0.465556	0.042271	-2.278161	6.434999	-86.495413	35.754934
61047		9.314247	-0.496251	-0.257068	0.329556	0.019516	-2.251404	25.911385	-86.118885	16.427795
61048		9.946691	-0.358960	-0.543367	0.257341	0.041340	-2.210340	40.256016	-85.404753	2.191946
61049		10.382141	-0.157100	-0.856844	0.206087	0.101541	-2.144926	49.770698	-84.489194	-7.241278
61050		10.451538	-0.097219	-0.459497	0.312084	0.137329	-2.058749	56.130410	-83.500847	-13.456393
61051		10.228619	-0.154827	-0.070924	0.484453	0.147230	-1.967149	60.649024	-82.493914	-17.729605
61052		9.811419	-0.094798	0.175498	0.629160	0.159506	-1.881613	64.010538	-81.497937	-20.760437
61053		9.267368	0.087780	0.458286	0.661351	0.135500	-1.766810	66.628642	-80.543558	-23.027870
61054		8.708495	0.157339	0.617409	0.665305	0.051724	-1.610264	68.870183	-79.679685	-24.916624
61055		8.332975	0.188956	0.572995	0.732029	-0.036896	-1.438649	70.901611	-78.911148	-26.557780
61056		8.152089	0.458472	0.581532	0.791240	-0.135432	-1.252760	72.838199	-78.254296	-28.071350
61057		8.331095	0.819945	0.421079	0.842791	-0.208333	-1.070188	74.670154	-77.697476	-29.451386
61058		8.702903	1.938787	0.069920	0.813158	-0.210564	-0.908770	76.259922	-77.224749	-30.603116
61059		9.177464	3.380781	-0.031139	0.610044	-0.170234	-0.761567	77.457278	-76.820572	-31.473914
61060		9.479721	4.450112	0.378509	0.358315	-0.108507	-0.643412	78.255988	-76.474176	-32.084232
61061		9.365886	4.924228	0.997894	0.056751	-0.031902	-0.570986	78.636737	-76.155407	-32.443379
61062		8.751059	4.629120	1.137612	-0.350040	0.015351	-0.530607	78.651926	-75.856505	-32.666150
61063		8.337925	3.459394	0.875687	-0.738055	0.047109	-0.527604	78.366725	-75.552292	-32.808994
61064		8.135727	1.963977	0.876351	-0.879125	0.101345	-0.529679	77.894174	-75.244273	-32.841611
61065		7.951295	0.786662	0.904710	-0.907325	0.109975	-0.514391	77.384621	-74.940179	-32.853087
61066		7.755011	-0.132932	0.707997	-0.813652	0.083245	-0.467602	76.975276	-74.669319	-32.912417
61067		7.633295	-0.297242	0.421282	-0.605712	0.039942	-0.398023	76.738797	-74.439842	-33.028004
61068		7.777461	0.248580	0.135669	-0.344541	-0.005772	-0.314222	76.709371	-74.266358	-33.202878
61069		8.004669	1.062912	0.211485	-0.108392	-0.045194	-0.224411	76.843529	-74.145532	-33.407742
61070		8.137387	1.645966	0.611784	0.094359	-0.074248	-0.177524	77.132255	-74.056978	-33.652166
61071		8.273177	1.973747	0.918615	0.149887	-0.072549	-0.159597	77.433009	-73.975602	-33.876596
61072		8.310515	2.066637	0.704315	0.085074	-0.040356	-0.175369	77.644059	-73.883424	-34.045931
61073		8.316637	1.948483	0.235926	-0.014629	-0.012240	-0.210982	77.750769	-73.765562	-34.166715
61074		8.430065	1.651307	-0.050533	-0.010038	0.003368	-0.255359	77.852797	-73.623081	-34.279440
61075		8.458838	1.328489	-0.047865	0.089436	0.004237	-0.260437	78.004630	-73.475602	-34.385250
61076		8.411904	1.203207	0.130107	0.200083	-0.031581	-0.233087	78.279250	-73.349538	-34.552607
61077		8.397609	1.358339	0.446085	0.308803	-0.101711	-0.168687	78.714049	-73.265741	-34.822729
61078		8.665269	1.814428	0.733178	0.360177	-0.163206	-0.080270	79.262997	-73.239335	-35.180915
61079		8.802444	2.338243	0.979733	0.358998	-0.191808	0.000531	79.830511	-73.259090	-35.559705
61080		8.691217	2.684991	1.164639	0.288546	-0.208749	0.060061	80.376974	-73.314373	-35.958084
61081		8.679433	2.998038	0.994180	0.099358	-0.169629	0.078822	80.732001	-73.374370	-36.270222
61082		8.560458	2.879224	0.529821	-0.085303	-0.093990	0.091458	80.841877	-73.435513	-36.436303
61083		8.500662	2.563912	0.311686	-0.191277	-0.052111	0.083115	80.808190	-73.486677	-36.516485
61084		8.575406	2.093016	0.072374	-0.211465	-0.042359	0.079894	80.751778	-73.536545	-36.584440
61085		8.765848	1.404261	-0.028300	-0.079286	-0.053834	0.101760	80.780329	-73.598511	-36.662544
61086		9.013313	0.817017	0.206196	0.131670	-0.059954	0.126007	80.940895	-73.676040	-36.751691
61087		9.110343	0.461748	0.399825	0.322559	-0.078151	0.156633	81.232263	-73.771512	-36.863650
61088		9.100762	0.416915	0.401941	0.476615	-0.121910	0.201613	81.693291	-73.896880	-37.059764
61089		9.131238	0.593189	0.490201	0.615891	-0.177430	0.244155	82.331472	-74.049966	-37.357568
61090		9.149115	1.210019	0.570404	0.642151	-0.201085	0.291026	83.035954	-74.230733	-37.707870
61091		9.131588	1.793864	0.589510	0.563084	-0.176774	0.329415	83.641459	-74.430775	-38.002649
61092		9.112978	2.198912	0.742283	0.402875	-0.166718	0.354765	84.146854	-74.643698	-38.287951
61093		9.175167	2.334806	0.821290	0.208393	-0.150043	0.404839	84.498144	-74.883946	-38.529279
61094		9.245427	2.104204	0.746014	0.064627	-0.113111	0.453022	84.694636	-75.149074	-38.694782
61095		9.015913	1.694846	0.665306	-0.047786	-0.090003	0.483728	84.767575	-75.430763	-38.799507
61096		8.895126	1.195461	0.663154	-0.136348	-0.083328	0.509656	84.781062	-75.726517	-38.894521
61097		8.847954	0.792511	0.804189	-0.191298	-0.098366	0.537369	84.784595	-76.039446	-39.012200
61098		8.883765	0.678016	0.816772	-0.204846	-0.142056	0.591728	84.883812	-76.385038	-39.235634
61099		8.978793	0.810357	0.678788	-0.211941	-0.147648	0.634310	84.981523	-76.756088	-39.461968
61100		9.059772	1.157483	0.516928	-0.232577	-0.132242	0.672148	85.040764	-77.146928	-39.659991
61101		9.053815	1.460259	0.362649	-0.263476	-0.116294	0.699320	85.031404	-77.553728	-39.806133
61102		9.014803	1.484553	0.416676	-0.247908	-0.104000	0.742349	85.004935	-77.983227	-39.924812
61103		8.964680	1.476117	0.485341	-0.241520	-0.098110	0.789439	84.945255	-78.440715	-40.006197
61104		8.834222	1.452211	0.626441	-0.275116	-0.096349	0.819648	84.867147	-78.913987	-40.087718
61105		8.572753	1.343129	0.766225	-0.303493	-0.192413	0.865500	85.039060	-79.419729	-40.440753
61106		8.462822	1.352760	0.637824	-0.198001	-0.331444	0.942631	85.742706	-79.973923	-41.271646
61107		8.571623	1.484227	-0.031755	0.005580	-0.424192	1.050808	86.937509	-80.592425	-42.481503
61108		8.618981	1.348043	-0.694915	0.196645	-0.376023	1.150049	88.241277	-81.260343	-43.688089
61109		8.119825	0.744973	0.149787	0.570891	-0.302877	1.257331	89.658269	-81.985914	-44.790537
61110		7.846494	-1.270200	-0.160345	0.797930	-0.348557	1.494680	91.711998	-82.840260	-46.401546
61111		5.739627	4.509618	-0.541507	0.617547	-0.988373	1.989108	97.750845	-83.933058	-52.125031
61112		12.164191	10.966616	-9.710181	-2.568792	-1.856397	2.015812	109.593239	-84.809520	-65.503278
61113		15.999735	9.299303	-2.362773	0.538106	-0.916053	2.022970	121.593925	-85.632210	-77.236353
61114		17.597720	10.692788	10.441822	0.265871	-0.807684	1.621502	134.750528	-86.078041	-90.274743
61115		22.074122	10.095458	0.017223	-3.280033	-0.223641	1.103460	141.322239	-86.404876	-98.744568
61116		24.445283	2.452571	-1.376132	-2.014775	-0.150005	0.805857	147.158052	-86.603295	-105.748170
61117		24.487774	3.794034	9.478753	1.023612	0.249143	1.132868	156.808226	-87.033899	-114.826404
61118		18.156906	0.677465	8.492532	0.469188	-0.542584	1.655499	176.117146	-86.949933	-133.892689
61119		14.587650	-1.311170	6.159952	-0.618242	-0.301613	2.227733	-161.989932	-86.618096	-156.174648
61120		9.295569	-4.536863	-0.243288	-0.959946	0.266436	2.322291	-142.746941	-86.126297	-176.006861
61121		3.899546	-5.009383	-5.604183	-0.454868	-0.701286	2.129995	-134.588178	-85.019968	175.548662
61122		4.675816	-4.595080	-9.654062	-1.334161	-1.270432	1.850862	-133.224815	-83.748761	173.410307
61123		4.420798	-8.027180	-9.994851	-1.433368	-0.424814	1.469531	-130.762030	-82.961787	170.103873
61124		2.977245	-9.932317	-7.132950	0.048609	-0.267008	0.921257	-129.020767	-82.456580	168.376098
61125		5.689411	-9.639539	-4.940221	0.990850	-0.323112	0.418727	-128.412162	-82.152336	168.334638
61126		9.200386	-9.584035	-2.836810	1.387190	-0.055135	0.143968	-127.445837	-82.065876	168.161058
61127		12.106783	-8.525663	-0.528495	1.465373	0.122162	-0.054838	-126.334439	-82.129433	167.886564
61128		13.134131	-5.423839	0.758092	1.173830	0.233502	-0.242811	-125.481078	-82.318670	167.703666
61129		12.455893	-1.722123	0.799964	0.822454	0.233092	-0.319171	-124.970227	-82.540552	167.663725
61130		11.490414	1.888691	0.669707	0.510127	0.087594	-0.203249	-124.890838	-82.662890	167.877989
61131		10.729795	3.452763	0.469195	-0.074366	-0.115841	0.002519	-125.333766	-82.619606	168.281654
61132		10.053272	2.982302	0.194877	-0.631864	-0.152618	0.092490	-126.019557	-82.523660	168.607738
61133		9.067276	1.305345	-0.318866	-1.126763	-0.094143	0.048910	-126.857941	-82.466262	168.802170
61134		8.534077	-0.325135	-0.460927	-1.384135	-0.060973	-0.075167	-128.074375	-82.477233	169.228819
61135		8.616336	-1.964694	-0.277306	-1.383815	-0.062326	-0.189458	-129.586811	-82.536914	169.954529
61136		8.821804	-3.167859	-0.037846	-1.121721	-0.023678	-0.250485	-131.037365	-82.635518	170.768778
61137		8.913492	-3.852727	-0.271293	-0.850559	-0.054053	-0.250659	-132.435113	-82.719347	171.686654
61138		9.291122	-3.832342	-1.051666	-0.531347	-0.116121	-0.199875	-133.749019	-82.755378	172.703869
61139		9.525088	-3.066204	-1.384875	-0.117140	-0.156633	-0.156352	-134.794811	-82.753661	173.690456
61140		9.942736	-1.778006	-1.390117	0.183211	-0.200837	-0.119536	-135.720602	-82.717926	174.729143
61141		10.205034	-0.724207	-1.246461	0.348875	-0.183746	-0.093109	-136.370077	-82.675674	175.585515
61142		9.982590	-0.141916	-0.819871	0.392424	-0.146042	-0.075361	-136.848088	-82.642279	176.293761
61143		9.504455	-0.005737	-0.550561	0.306837	-0.130789	-0.072471	-137.282133	-82.612365	176.908743
61144		9.140813	-0.024780	-0.599450	0.139037	-0.159501	-0.082254	-137.956819	-82.574346	177.669023
61145		9.032260	-0.035507	-0.582655	0.056140	-0.260753	-0.079220	-138.921088	-82.489619	178.674021
61146		9.610847	-0.340344	-0.819006	0.048941	-0.291076	-0.084084	-139.997687	-82.391861	179.787928
61147		10.166499	-0.867248	-1.065234	0.126247	-0.203327	-0.078881	-140.720791	-82.328182	-179.409475
61148		9.804124	-0.634542	-1.344432	-0.017647	-0.143244	-0.085752	-141.407163	-82.292848	-178.727493
61149		9.624297	-0.537404	-1.802687	-0.238256	-0.153908	-0.097889	-142.252690	-82.255429	-178.011952
61150		9.522901	-0.515000	-1.584625	-0.211989	-0.138297	-0.090362	-143.039432	-82.221445	-177.340936
61151		9.573242	-0.564877	-1.462321	-0.124140	-0.146415	-0.069206	-143.691597	-82.174994	-176.754458
61152		9.741019	-0.890242	-1.473900	-0.068464	-0.125969	-0.056921	-144.240423	-82.133372	-176.240460
61153		9.871468	-1.369700	-1.028708	0.030638	-0.078694	-0.070802	-144.635159	-82.117463	-175.824242
61154		9.936892	-1.436705	-0.551721	0.108307	-0.080455	-0.070781	-145.013645	-82.100685	-175.379905
61155		9.977965	-1.258084	-0.660507	0.085133	-0.093806	-0.062434	-145.379846	-82.074166	-174.960917
61156		9.958092	-1.194938	-0.980684	0.121971	-0.113827	-0.023077	-145.661860	-82.025413	-174.606021
61157		9.969231	-1.000641	-1.176143	0.214065	-0.116673	0.001496	-145.784172	-81.966929	-174.358612
61158		9.790037	-0.737789	-1.366934	0.215414	-0.110174	0.008540	-145.891680	-81.909465	-174.125792
61159		9.549987	-0.557767	-1.359990	0.188501	-0.091937	-0.009132	-146.003743	-81.865981	-173.903465
61160		9.318638	-0.475070	-1.267424	0.128040	-0.072722	-0.047151	-146.258430	-81.843950	-173.572490
61161		9.261797	-0.532025	-1.334693	0.008572	-0.067208	-0.078193	-146.645797	-81.833871	-173.176175
61162		9.326365	-0.638332	-1.293564	-0.083040	-0.058361	-0.099227	-147.161364	-81.834396	-172.703808
61163		9.537165	-0.725235	-1.198333	-0.147537	-0.051524	-0.118054	-147.738144	-81.843176	-172.206515
61164		9.663978	-0.789070	-1.046638	-0.163923	-0.030939	-0.119090	-148.310417	-81.861743	-171.723701
61165		9.800812	-0.886040	-0.899286	-0.172708	-0.030817	-0.112188	-148.841483	-81.877504	-171.287198
61166		9.973547	-0.818489	-1.176026	-0.196794	-0.034669	-0.090841	-149.346990	-81.884643	-170.890885
61167		10.053651	-0.736840	-1.373692	-0.171923	-0.022804	-0.065036	-149.700610	-81.889646	-170.633189
61168		9.953861	-0.491236	-1.454959	-0.131859	0.004534	-0.054069	-149.963090	-81.904895	-170.444790
61169		9.701036	-0.497886	-1.384856	-0.098334	0.021146	-0.050316	-150.136459	-81.927137	-170.326599
61170		9.544744	-0.597189	-1.358144	-0.053884	0.015832	-0.055671	-150.338911	-81.948273	-170.153725
61171		9.532541	-0.717692	-1.394037	0.011890	0.009852	-0.043547	-150.450094	-81.962844	-170.034582
61172		9.529302	-0.653164	-1.325211	0.071477	0.005828	-0.039881	-150.546265	-81.974426	-169.896516
61173		9.560249	-0.568215	-1.212694	0.098636	0.001134	-0.027998	-150.571163	-81.980182	-169.814333
61174		9.600794	-0.517066	-1.106216	0.116439	-0.013301	-0.017818	-150.601924	-81.975978	-169.716311
61175		9.706455	-0.566569	-1.057291	0.166869	-0.026171	-0.000821	-150.546463	-81.960483	-169.675809
61176		9.698867	-0.438798	-1.214101	0.211172	-0.035814	0.020506	-150.432458	-81.934261	-169.669168
61177		9.630248	-0.223505	-1.370339	0.229899	-0.052657	0.044174	-150.236753	-81.892890	-169.733843
61178		9.718427	0.088254	-1.264775	0.254205	-0.047793	0.051649	-150.014792	-81.851835	-169.811345
61179		9.752686	0.307757	-1.016576	0.256031	-0.051937	0.060424	-149.750847	-81.806146	-169.929868
61180		9.672410	0.311851	-1.019189	0.171107	-0.037437	0.061961	-149.523642	-81.767132	-170.060791
61181		9.598804	0.268885	-1.056152	0.043595	-0.030633	0.075986	-149.291068	-81.727451	-170.270656
61182		9.625746	0.200782	-1.090495	-0.082657	-0.021337	0.093981	-149.072133	-81.686812	-170.540180
61183		9.688073	-0.013787	-1.173860	-0.162113	-0.013000	0.111155	-148.809776	-81.645288	-170.899333
61184		9.748369	-0.122897	-1.364050	-0.216986	-0.005695	0.122318	-148.547063	-81.603525	-171.290959
61185		9.770383	-0.259908	-1.441205	-0.209666	0.005438	0.133136	-148.209544	-81.563947	-171.753731
61186		9.724807	-0.395315	-1.302112	-0.157833	0.005336	0.138811	-147.843524	-81.521896	-172.215616
61187		9.607914	-0.628729	-1.264350	-0.117267	0.003070	0.155190	-147.395715	-81.473528	-172.736491
61188		9.544203	-0.748761	-1.286725	-0.071025	-0.016785	0.171704	-146.930161	-81.409588	-173.248858
61189		9.596911	-0.825097	-1.152781	0.007033	-0.023439	0.186543	-146.380569	-81.337360	-173.800819
61190		9.726604	-0.855039	-0.954202	0.069414	-0.032147	0.191022	-145.822905	-81.258540	-174.325160
61191		9.771975	-0.674101	-0.996961	0.065477	-0.030222	0.200017	-145.231978	-81.177152	-174.885286
61192		9.694610	-0.378141	-1.079674	0.030745	-0.025047	0.220370	-144.613518	-81.090383	-175.493814
61193		9.654263	-0.191363	-1.097259	-0.018345	-0.023093	0.229187	-143.991748	-81.000835	-176.134049
61194		9.663099	-0.025823	-1.129105	-0.079203	-0.007953	0.247766	-143.344493	-80.910623	-176.835822
61195		9.631937	-0.078861	-1.226872	-0.139386	0.000187	0.259606	-142.682014	-80.819156	-177.587867
61196		9.574726	-0.331325	-1.249450	-0.155685	0.003785	0.273057	-142.009782	-80.722893	-178.359703
61197		9.568847	-0.630115	-1.239604	-0.120650	-0.008053	0.284999	-141.315093	-80.616008	-179.133944
61198		9.558338	-0.814799	-1.283670	-0.091388	-0.025282	0.297585	-140.635178	-80.495025	-179.876700
61199		9.623205	-0.855063	-1.213671	-0.039721	-0.035552	0.311979	-139.918853	-80.363165	179.373598
61200		9.669881	-0.724892	-0.895874	0.045690	-0.043474	0.322045	-139.175642	-80.222158	178.645732
61201		9.646963	-0.436917	-0.908776	0.047572	-0.051407	0.339492	-138.417186	-80.069975	177.903402
61202		9.664205	-0.108092	-1.137719	-0.027572	-0.061593	0.375133	-137.670911	-79.897740	177.129118
61203		9.669408	0.113859	-1.184215	-0.073669	-0.043143	0.415933	-136.833799	-79.716108	176.235506
61204		9.613805	0.167436	-1.184613	-0.123323	-0.035051	0.443157	-135.985420	-79.524241	175.300761
61205		9.548908	0.047328	-1.467498	-0.148328	-0.029359	0.454915	-135.138719	-79.328251	174.352767
61206		9.498469	-0.193853	-1.641677	-0.152442	-0.032798	0.470261	-134.309318	-79.121387	173.419151
61207		9.645354	-0.378080	-1.680012	-0.124145	-0.036625	0.504835	-133.429906	-78.896983	172.450608
61208		9.804377	-0.614575	-1.299545	-0.077075	-0.007321	0.540565	-132.435305	-78.665211	171.391192
61209		9.847196	-0.893565	-1.283253	-0.086311	0.027029	0.581296	-131.335125	-78.426392	170.217940
61210		9.677406	-1.242429	-1.565817	-0.167221	0.075161	0.633380	-130.138918	-78.177434	168.898102
61211		9.556418	-1.246201	-1.721131	-0.097853	0.052382	0.667314	-128.941920	-77.900567	167.616973
61212		9.821835	-0.316383	-1.598432	0.027910	0.047807	0.710908	-127.673545	-77.595916	166.334985
61213		9.872597	0.435812	-0.931501	0.129925	0.069440	0.773334	-126.267475	-77.264856	164.970384
61214		9.554614	0.229281	-0.061745	0.180161	0.063796	0.836071	-124.829819	-76.894434	163.600878
61215		9.015619	-0.522119	0.126771	0.061373	0.017994	0.864323	-123.588010	-76.490261	162.360662
61216		8.607384	-1.121492	-0.667352	-0.171911	-0.024423	0.870159	-122.628398	-76.063174	161.271044
61217		8.618286	-1.241200	-1.341999	-0.392159	-0.086388	0.860701	-121.980147	-75.619811	160.370510
61218		8.989282	-1.405926	-1.609383	-0.533566	-0.136788	0.839949	-121.577629	-75.167662	159.638206
61219		9.447548	-1.981861	-1.275407	-0.593020	-0.121712	0.810273	-121.244860	-74.735089	158.941522
61220		9.633946	-3.131426	-1.333683	-0.598880	-0.100108	0.796244	-120.922964	-74.313031	158.251050
61221		9.703487	-3.919141	-1.622274	-0.452870	-0.115060	0.802642	-120.561634	-73.883994	157.605319
61222		9.657356	-3.857483	-1.431362	-0.164924	-0.087690	0.820407	-120.003223	-73.451032	156.924533
61223		9.359637	-2.762165	-0.981006	0.096951	-0.086073	0.852331	-119.293083	-73.001840	156.240686
61224		9.272843	-0.903616	-1.218810	0.222973	-0.117709	0.904727	-118.555342	-72.513857	155.601571
61225		9.333716	0.137041	-1.304386	0.101532	-0.133177	0.967137	-117.892994	-71.989323	154.967057
61226		9.166154	-0.540103	-1.264435	-0.126911	-0.138091	1.015461	-117.368629	-71.435562	154.337790
61227		8.857499	-1.501003	-1.337017	-0.332900	-0.171361	1.039938	-117.022576	-70.861018	153.770381
61228		8.645643	-2.382617	-1.678217	-0.392194	-0.196974	1.070143	-116.753694	-70.261545	153.246521
61229		8.562263	-2.907863	-1.549368	-0.323965	-0.187915	1.116176	-116.423739	-69.641893	152.697490
61230		8.287766	-3.457127	-1.335648	-0.433636	-0.148325	1.135898	-116.117182	-69.019127	152.103862
61231		7.915660	-3.695973	-0.987537	-0.454724	-0.120270	1.114740	-115.823302	-68.415079	151.508697
61232		7.845812	-3.381556	-1.312799	-0.403856	-0.115955	1.094435	-115.533468	-67.819630	150.946561
61233		8.027434	-2.856230	-1.948583	-0.400377	-0.073190	1.087551	-115.212862	-67.238843	150.351264
61234		8.574613	-1.928167	-1.773659	-0.334405	-0.131579	1.073346	-114.958222	-66.648407	149.865841
61235		9.581285	-2.098614	-1.146686	0.020156	-0.228333	1.049573	-114.645954	-66.047937	149.537407
61236		10.905279	-0.921422	-3.773861	-1.293326	-0.057436	1.103956	-114.870840	-65.458292	148.970883
61237		9.671457	-4.859612	-0.716443	-0.944334	-0.016469	1.104552	-114.859991	-64.880845	148.362487
61238		8.774865	-3.987037	-1.687970	-0.747891	-0.281101	1.096036	-115.043902	-64.242045	148.091171
61239		7.932290	-5.797384	-1.883103	-1.046801	-0.229458	1.149426	-115.318305	-63.590753	147.728733
61240		7.328489	-6.754081	-0.400126	-0.417235	-0.329482	1.158947	-115.337370	-62.908291	147.481914
61241		7.893473	-5.865372	-1.234385	-0.151625	-0.409921	1.114930	-115.309762	-62.230518	147.352948
61242		8.895158	-4.506777	-0.931166	0.230347	-0.409894	1.050875	-115.100301	-61.584226	147.264655
61243		10.549435	-2.321359	-0.720786	0.446451	-0.482043	0.998905	-114.862485	-60.948752	147.285341
61244		12.227862	-1.783266	-1.097968	0.317919	-0.464652	1.013939	-114.681914	-60.308234	147.286687
61245		12.313517	-3.159323	-1.622135	-0.037085	-0.416448	1.102420	-114.624634	-59.635396	147.196207
61246		10.298157	-5.238004	-2.394626	-0.207356	-0.368369	1.278360	-114.558016	-58.880077	146.979989
61247		7.286930	-6.717717	-2.601392	-0.102489	-0.375649	1.439818	-114.381190	-58.041178	146.703879
61248		4.986367	-6.851154	-2.655144	0.117152	-0.424236	1.483995	-114.117140	-57.164641	146.470171
61249		3.325529	-6.580502	-2.193912	0.319709	-0.395974	1.402019	-113.754859	-56.338814	146.256363
61250		2.815012	-6.066198	-1.818041	0.416138	-0.429391	1.190084	-113.449909	-55.614050	146.175610
61251		4.364624	-5.130190	-1.742581	0.409248	-0.475189	0.923947	-113.274639	-55.019685	146.248074
61252		6.910308	-5.089630	-2.062150	0.172538	-0.474416	0.769376	-113.286409	-54.505905	146.383013
61253		9.036087	-5.275316	-2.906965	0.092324	-0.454372	0.708846	-113.343641	-54.029194	146.519190
61254		10.347993	-5.573955	-3.385938	0.039215	-0.390149	0.743362	-113.374489	-53.548134	146.584759
61255		10.466339	-5.882594	-3.756411	0.059920	-0.321270	0.861076	-113.306181	-53.021658	146.542787
61256		10.053344	-5.390323	-3.630584	0.261995	-0.240383	1.019913	-113.023962	-52.428810	146.376255
61257		9.425807	-4.678312	-3.173755	0.305962	-0.198043	1.140608	-112.658947	-51.782128	146.136108
61258		8.846433	-4.354352	-2.805658	0.314002	-0.179207	1.181543	-112.276883	-51.115914	145.877096
61259		8.281790	-4.143292	-2.294277	0.295875	-0.165523	1.173224	-111.907372	-50.457365	145.619096
61260		7.677870	-4.741855	-1.763683	0.217921	-0.193833	1.178711	-111.609635	-49.787604	145.393293
61261		7.302399	-5.716191	-1.606709	0.209569	-0.230994	1.198652	-111.341810	-49.100323	145.198929
61262		6.825169	-6.524509	-1.870772	0.235326	-0.250409	1.247355	-111.067975	-48.380803	145.013476
61263		6.350303	-6.832849	-1.939939	0.386440	-0.248863	1.313149	-110.698477	-47.627254	144.814464
61264		5.838032	-6.624105	-1.518781	0.591968	-0.201172	1.386973	-110.179106	-46.841056	144.568460
61265		5.161258	-6.386392	-1.477750	0.674485	-0.152997	1.436199	-109.586567	-46.037443	144.284487
61266		4.577523	-5.716011	-1.507495	0.731123	-0.108864	1.452844	-108.949970	-45.229822	143.979411
61267		4.346499	-5.746143	-1.570105	0.666011	-0.076008	1.422239	-108.351534	-44.443622	143.672468
61268		4.811133	-5.629587	-1.808602	0.678275	-0.066586	1.370909	-107.765195	-43.683819	143.387596
61269		5.639872	-5.700993	-1.809358	0.499541	-0.030567	1.326595	-107.280072	-42.953381	143.098332
61270		6.124205	-6.573117	-1.947219	0.318334	-0.018493	1.332672	-106.903462	-42.219270	142.810725
61271		6.066154	-7.328548	-2.673645	0.187105	-0.026672	1.389891	-106.604925	-41.451967	142.524579
61272		5.424805	-7.404572	-2.840160	0.168151	-0.011753	1.496189	-106.305443	-40.626791	142.214572
61273		4.418401	-7.993465	-2.765727	0.111886	-0.027213	1.594399	-106.040226	-39.744535	141.903525
61274		3.843550	-8.581612	-3.079505	0.149772	-0.043328	1.629478	-105.767111	-38.838743	141.607118
61275		3.406872	-8.813323	-3.313919	0.245206	0.011244	1.564978	-105.431764	-37.975779	141.293983
61276		3.443187	-8.945414	-3.101022	0.328711	0.064000	1.424275	-105.053435	-37.197005	140.981837
61277		3.915085	-9.180389	-2.731215	0.453475	0.134043	1.251336	-104.601764	-36.521873	140.662323
61278		4.945751	-9.024728	-2.358368	0.579266	0.182811	1.087062	-104.084748	-35.943364	140.348436
61279		6.257453	-8.725021	-1.837850	0.719666	0.209130	0.956006	-103.496416	-35.437872	140.047013
61280		7.573816	-8.487573	-1.487382	0.780438	0.221127	0.863713	-102.884760	-34.983990	139.761011
61281		8.668755	-8.303984	-1.365208	0.716136	0.227289	0.827498	-102.315706	-34.547781	139.482984
61282		9.319910	-8.536169	-1.166489	0.511521	0.196959	0.821421	-101.882109	-34.110320	139.233090
61283		9.779088	-9.247760	-1.345206	0.283419	0.127504	0.820827	-101.608491	-33.663420	139.034135
61284		10.123478	-9.699602	-1.680851	0.155371	0.058684	0.796558	-101.439642	-33.222041	138.888537
61285		10.323163	-9.695896	-1.987859	0.194721	0.033118	0.776122	-101.260115	-32.789117	138.764489
61286		10.157070	-9.437571	-1.922676	0.312084	0.052318	0.758997	-101.010940	-32.367337	138.633046
61287		9.564100	-9.399105	-1.531282	0.391509	0.071063	0.744638	-100.711879	-31.956055	138.493373
61288		8.846547	-9.326445	-1.234108	0.407613	0.070990	0.731239	-100.408114	-31.550779	138.359163
61289		8.182696	-9.037763	-1.103429	0.406539	0.030104	0.709301	-100.121550	-31.154611	138.256991
61290		7.500577	-8.728542	-1.067100	0.377228	0.013946	0.688785	-99.861619	-30.766508	138.171061
61291		6.673033	-8.536107	-0.994574	0.332839	0.000021	0.645599	-99.634575	-30.403045	138.100758
61292		5.791056	-8.341266	-0.972475	0.314492	-0.012579	0.590521	-99.427836	-30.067370	138.047220
61293		4.929678	-8.336378	-0.840203	0.316016	-0.021374	0.535234	-99.225686	-29.764088	138.006247
61294		4.236845	-8.350908	-0.801766	0.363808	-0.022170	0.479035	-99.001577	-29.490284	137.973731
61295		3.526460	-8.513065	-0.793764	0.420230	-0.015345	0.410386	-98.745699	-29.257881	137.944448
61296		2.816163	-8.749944	-0.818107	0.505542	-0.011047	0.355898	-98.444439	-29.054545	137.919780
61297		2.313920	-8.901216	-0.856202	0.566297	-0.013149	0.299177	-98.110741	-28.884800	137.902405
61298		1.941502	-8.910753	-0.844239	0.607380	-0.040362	0.240833	-97.766741	-28.744206	137.909857
61299		1.834608	-8.714247	-0.986778	0.677697	-0.103291	0.179106	-97.403355	-28.635143	137.963552
61300		2.029840	-8.648983	-1.212394	0.720426	-0.169916	0.137055	-97.039716	-28.544299	138.065370
61301		2.399593	-8.388093	-1.232747	0.844590	-0.220619	0.104500	-96.620328	-28.469795	138.202353
61302		3.065033	-8.067121	-1.143772	0.856671	-0.254002	0.069646	-96.207284	-28.413220	138.364828
61303		3.856520	-8.015254	-1.281693	0.780286	-0.219420	0.018598	-95.827518	-28.389136	138.507989
61304		4.534732	-7.744169	-1.120250	0.758594	-0.167905	-0.043727	-95.447841	-28.403991	138.622699
61305		5.222445	-7.603703	-1.016482	0.540691	-0.071430	-0.094569	-95.163244	-28.453866	138.677099
61306		5.669633	-7.851809	-1.145960	0.437462	0.030103	-0.136528	-94.908885	-28.532704	138.668454
61307		5.770562	-7.901774	-1.044230	0.313507	0.097237	-0.157548	-94.703675	-28.627271	138.616278
61308		5.742057	-7.989592	-1.091168	0.098409	0.151961	-0.198676	-94.606761	-28.747214	138.530988
61309		5.318020	-8.040889	-0.946591	-0.025437	0.201755	-0.229028	-94.564378	-28.887458	138.413950
61310		4.705570	-7.760670	-0.663009	-0.042315	0.139190	-0.257422	-94.553029	-29.040246	138.339596
61311		4.475283	-7.550603	-0.928650	-0.100620	0.066878	-0.325307	-94.598408	-29.229396	138.315426
61312		4.165865	-7.857381	-0.947576	-0.157055	0.030509	-0.438556	-94.691983	-29.480680	138.321905
61313		3.359540	-7.919251	-0.597667	-0.235650	-0.020454	-0.618403	-94.851278	-29.833072	138.371843
61314		2.805318	-7.392437	-0.972908	-0.384827	-0.069736	-0.822177	-95.120496	-30.298294	138.468281
61315		2.535386	-6.828426	-1.183866	-0.405288	-0.011171	-1.007402	-95.388659	-30.872491	138.539687
61316		2.216443	-6.789740	-0.097958	-0.051762	0.061742	-1.194804	-95.438168	-31.556731	138.577195
61317		2.104814	-7.010525	1.029756	0.287327	0.179401	-1.399034	-95.257323	-32.364110	138.547234
61318		1.831298	-7.097883	0.842572	0.316418	0.364853	-1.643874	-94.998128	-33.320292	138.402845
61319		1.767248	-6.876243	0.099459	0.158388	0.489768	-1.921672	-94.783424	-34.440542	138.181547
61320		2.210202	-6.363999	-0.100732	0.155381	0.542758	-2.220606	-94.551712	-35.733363	137.932625
61321		3.053199	-5.630797	0.488411	0.387290	0.422414	-2.461982	-94.232145	-37.157256	137.769276
61322		4.655839	-4.798416	0.774280	0.550712	0.299143	-2.657531	-93.869727	-38.687659	137.692360
61323		6.085496	-4.523451	0.516618	0.568696	0.409619	-2.890797	-93.438437	-40.354468	137.527806
61324		6.300057	-4.316535	0.469258	0.549806	0.574480	-3.128218	-92.925161	-42.161805	137.226616
61325		5.981695	-4.290404	0.901291	0.427300	0.566601	-3.297155	-92.460531	-44.063435	136.906158
61326		5.887707	-4.755593	0.928187	0.274901	0.537558	-3.422042	-92.075589	-46.034312	136.584277
61327		5.689008	-4.799167	0.492741	0.069864	0.541587	-3.541403	-91.776259	-48.072253	136.231187
61328		5.670871	-4.708465	0.477830	-0.164545	0.522545	-3.651913	-91.599554	-50.172126	135.872298
61329		5.999430	-5.148365	1.103309	-0.404755	0.505078	-3.778162	-91.545692	-52.343610	135.506917
61330		6.643687	-5.657080	1.204089	-0.590926	0.518255	-3.865704	-91.569133	-54.565324	135.114165
61331		7.431436	-5.980713	0.602274	-0.628343	0.599275	-3.931543	-91.515495	-56.825886	134.614369
61332		8.099653	-6.322805	-0.396439	-0.652066	0.791936	-4.011611	-91.257432	-59.134292	133.868963
61333		8.326621	-6.738400	-0.835716	-0.548829	0.959985	-4.098691	-90.677477	-61.491009	132.840288
61334		8.513101	-6.722205	-1.032676	-0.389766	0.990138	-4.179268	-89.828239	-63.887786	131.632948
61335		8.716534	-6.679523	-1.247005	-0.177183	0.928559	-4.164712	-88.721382	-66.266142	130.301140
61336		9.091693	-6.701752	-0.661427	0.309933	0.850715	-4.054088	-87.179629	-68.569968	128.823584
61337		8.713031	-5.850955	-0.055498	0.727988	0.832232	-3.894086	-85.074850	-70.762564	127.024229
61338		8.283442	-4.659028	-0.141607	0.844076	0.673350	-3.724167	-82.744028	-72.843598	125.079749
61339		8.271303	-3.771864	-0.233071	0.891497	0.465871	-3.579761	-80.282381	-74.831309	123.048850
61340		8.618586	-2.712430	0.101898	0.910118	0.258419	-3.464508	-77.700861	-76.752020	120.923725
61341		9.364463	-1.844830	0.555781	0.828261	0.069852	-3.366190	-74.968539	-78.615243	118.612832
61342		10.332459	-1.162822	1.073707	0.629898	-0.061636	-3.266184	-71.923534	-80.420071	115.883146
61343		11.241922	-0.713945	1.372391	0.198515	-0.136896	-3.147599	-68.301031	-82.141955	112.333402
61344		11.859548	-0.415391	1.053793	-0.304270	-0.192728	-2.978710	-63.701975	-83.748212	107.523683
61345		12.274081	-0.180303	0.634943	-0.695646	-0.243906	-2.764909	-57.312134	-85.197377	100.703688
61346		12.611442	-0.112654	0.136027	-0.928531	-0.271541	-2.536916	-47.390523	-86.449908	90.222571
61347		12.880857	-0.302647	-0.487692	-1.026369	-0.169467	-2.354484	-29.455950	-87.376242	71.673525
61348		12.616958	-0.522358	-0.942564	-0.993810	0.005409	-2.228184	-0.937990	-87.721556	42.560338
61349		11.975397	-0.395228	-0.892191	-0.817948	0.119476	-2.148661	26.515413	-87.373713	14.613205
61350		11.931208	-0.405325	-0.870819	-0.600853	0.151741	-2.053413	43.661286	-86.619948	-2.900665
61351		11.865796	-0.237283	-0.824589	-0.318253	0.222282	-1.928389	53.024846	-85.709110	-12.468248
61352		11.891344	0.299355	-0.768321	-0.084191	0.249469	-1.772619	58.461428	-84.789996	-17.972184
61353		11.687000	1.022426	-0.320994	0.081743	0.240125	-1.584325	61.880964	-83.936364	-21.361840
61354		11.466820	1.180637	0.023523	0.202657	0.194534	-1.401863	64.351826	-83.170965	-23.731927
61355		11.123607	1.232154	0.301225	0.357546	0.170412	-1.210126	66.168155	-82.502950	-25.356722
61356		10.701198	1.248070	0.328415	0.438203	0.092515	-1.000421	67.723932	-81.956146	-26.673917
61357		10.201552	1.442655	0.410678	0.454978	0.078415	-0.806540	68.881526	-81.512723	-27.580924
61358		9.685741	1.652268	0.579417	0.435142	0.016715	-0.573138	69.849051	-81.203332	-28.307792
61359		9.264321	1.642333	0.519664	0.529481	-0.046767	-0.342027	70.744844	-81.030347	-28.908097
61360		8.816831	1.854391	0.778032	0.637560	-0.068318	-0.147756	71.532014	-80.964119	-29.335651
61361		8.556974	2.203532	0.972284	0.596129	-0.100426	0.009691	72.215572	-80.989624	-29.682625
61362		8.640869	2.392836	0.910076	0.483463	-0.124577	0.110151	72.819381	-81.072433	-30.013893
61363		8.599076	2.475582	0.953873	0.307363	-0.105915	0.152455	73.212472	-81.175765	-30.234185
61364		8.625615	2.181008	0.831837	0.139209	-0.115087	0.174452	73.532550	-81.291540	-30.477760
61365		8.874326	1.563388	0.464941	0.106667	-0.127086	0.184982	73.866595	-81.415521	-30.754493
61366		8.984204	0.920868	0.224426	0.166627	-0.100448	0.179212	74.159077	-81.531185	-30.954123
61367		8.995772	0.281524	0.027550	0.285762	-0.075309	0.173766	74.430874	-81.640510	-31.064025
61368		9.006302	-0.230270	0.181483	0.468356	-0.097654	0.170623	74.909007	-81.750658	-31.276450
61369		9.181044	-0.607322	0.314981	0.698425	-0.153329	0.199680	75.708283	-81.885602	-31.680326
61370		9.229723	-0.776362	0.394757	0.929102	-0.202231	0.216894	76.846782	-82.034816	-32.292921
61371		9.163485	-0.473818	0.495571	1.066349	-0.205138	0.206397	78.110494	-82.178009	-32.952593
61372		9.008549	0.315701	0.479132	1.112779	-0.242376	0.202922	79.602981	-82.319809	-33.815801
61373		9.132367	1.239051	0.490318	1.135368	-0.295125	0.206134	81.366638	-82.466627	-34.939524
61374		9.335257	2.185526	0.520877	1.018754	-0.231823	0.183958	82.863342	-82.589988	-35.860758
61375		9.098434	2.755929	0.641917	0.749646	-0.143447	0.129992	83.869070	-82.675625	-36.442458
61376		8.920582	3.009366	0.753461	0.425300	-0.092744	0.075146	84.512142	-82.724473	-36.845530
61377		8.831356	2.883452	0.943864	0.081665	-0.070680	0.042694	84.868979	-82.754343	-37.158761
61378		8.855116	2.371918	0.705402	-0.251001	-0.058551	0.040240	84.993424	-82.780873	-37.429586
61379		8.866438	1.732646	0.385596	-0.482296	-0.033057	0.042946	84.859830	-82.808518	-37.574140
61380		8.800894	1.194495	0.217063	-0.591348	-0.010577	0.050494	84.568913	-82.838495	-37.622834
61381		8.484650	0.799479	0.265961	-0.638992	-0.001619	0.061690	84.193204	-82.875172	-37.613839
61382		8.101923	0.524308	0.310000	-0.634709	0.010304	0.079056	83.765593	-82.920244	-37.549811
61383		7.684361	0.347136	0.467318	-0.569469	-0.035521	0.101206	83.561662	-82.981623	-37.673773
61384		7.626247	0.207178	0.271100	-0.516029	-0.029582	0.109353	83.366843	-83.046469	-37.775786
61385		7.478998	0.001324	0.100563	-0.465875	0.011364	0.110797	82.994867	-83.110361	-37.670656
61386		7.514483	-0.324834	0.365650	-0.371613	-0.002703	0.105826	82.754173	-83.171416	-37.643095
61387		7.721438	-0.773429	0.480061	-0.168885	-0.061178	0.116172	82.889776	-83.243668	-37.877807
61388		8.037693	-0.730561	0.409417	0.059252	-0.115083	0.151094	83.415025	-83.338168	-38.372910
61389		8.022754	-0.592129	0.211394	0.217460	-0.174039	0.198613	84.301535	-83.464079	-39.140630
61390		8.032888	-0.214054	0.274490	0.390050	-0.217997	0.259110	85.531806	-83.623628	-40.154257
61391		8.112538	0.271651	0.418603	0.398585	-0.209683	0.339661	86.742253	-83.828158	-41.142976
61392		8.275401	0.793637	0.303307	0.407740	-0.210747	0.447026	88.030827	-84.090019	-42.204234
61393		8.568914	0.845913	0.188995	0.410163	-0.141469	0.527355	89.004506	-84.396409	-42.947367
61394		8.558316	0.539077	0.245938	0.388031	-0.104587	0.588173	89.849802	-84.734380	-43.573562
61395		8.807541	0.165757	0.355339	0.376115	-0.092199	0.662103	90.695026	-85.115678	-44.206463
61396		9.066563	-0.345970	0.283447	0.408189	-0.091361	0.754213	91.714463	-85.546924	-44.995047
61397		9.294364	-0.668631	0.354149	0.491083	-0.097265	0.827328	93.035597	-86.020518	-46.038311
61398		9.391984	-0.847597	0.561974	0.556182	-0.150461	0.891126	95.284676	-86.523724	-47.973205
61399		9.488212	-1.106303	0.754380	0.664736	-0.178848	0.930944	98.653113	-87.043298	-50.966131
61400		9.089340	-1.390078	1.268864	0.750955	-0.182346	0.955224	103.555176	-87.560446	-55.443251
61401		8.727708	-2.481811	1.461620	0.920256	-0.176517	0.981288	111.046648	-88.070505	-62.413102
61402		8.385591	-3.115873	0.813193	1.045168	-0.365496	1.104585	128.451402	-88.519832	-79.226632
61403		9.087460	1.124251	-1.076024	0.455874	-0.618532	1.555255	168.510535	-88.695182	-119.035991
61404		11.838117	2.772773	-8.188994	-0.870998	-0.848058	1.581627	-160.305928	-88.121109	-150.730239
61405		15.615261	4.343697	-0.029473	0.589581	-0.912970	1.792757	-143.781932	-87.165272	-166.929885
61406		15.102273	3.059976	6.984660	-0.373272	0.104051	1.829606	-129.515079	-86.481286	178.567179
61407		10.893479	-1.234953	-1.620651	-1.447252	-0.697428	1.463824	-127.336094	-85.573367	175.551401
61408		13.701034	-1.582817	-5.276213	-1.453410	-0.969962	0.963383	-129.304993	-84.793691	176.691130
61409		14.899965	-1.705240	-3.146696	-0.324225	-0.800156	0.804210	-130.090407	-84.143648	177.293206
61410		15.946349	0.243750	1.893139	1.378476	-0.459216	0.906176	-128.170487	-83.572810	176.156177
61411		15.701748	1.563085	4.349404	1.035457	-0.021577	0.977478	-124.806984	-83.112527	173.366854
61412		14.674007	0.692538	4.864836	0.248138	0.652865	0.941516	-119.770488	-82.854301	168.435244
61413		8.774040	-0.725014	0.235209	-0.221359	0.226442	0.956915	-116.990645	-82.431840	165.504244
61414		9.395658	2.112063	-3.469475	-1.120969	-0.806924	0.937075	-118.782798	-81.739402	166.664741
61415		12.840530	1.326747	-3.435862	-1.828642	-0.338245	0.866368	-119.350708	-81.209896	166.179357
61416		12.758605	-1.228627	-2.101669	-0.996885	-0.085760	0.781293	-118.833109	-80.793161	165.076605
61417		12.920374	-2.762913	-1.259853	-0.732049	-0.175969	0.738672	-118.562357	-80.372091	164.376793
61418		11.886952	-5.724612	-1.424420	-1.115935	-0.054861	0.651308	-118.345868	-80.027385	163.507829
61419		10.136334	-5.827229	-0.360677	-0.703369	-0.039577	0.589266	-117.969963	-79.717161	162.716417
61420		9.217441	-4.338608	-0.778077	-0.389130	-0.217793	0.542323	-118.012354	-79.382604	162.532388
61421		9.374609	-3.752432	-1.582615	-0.365855	-0.232675	0.449697	-118.201417	-79.090129	162.511321
61422		9.225387	-3.878162	-1.943014	-0.435713	-0.133415	0.332491	-118.345333	-78.884522	162.403189
61423		8.841274	-3.862339	-2.005540	-0.521793	-0.113371	0.238513	-118.602892	-78.730595	162.360838
61424		8.765042	-4.107370	-2.097424	-0.587882	-0.100476	0.164303	-118.976887	-78.618725	162.398319
61425		8.984581	-4.344950	-1.891400	-0.492077	-0.066648	0.093738	-119.293756	-78.549900	162.433798
61426		9.218221	-4.309755	-1.076059	-0.276490	-0.026732	0.008426	-119.517716	-78.536508	162.500253
61427		9.436831	-3.877407	-0.593136	-0.090344	-0.063598	-0.097913	-119.861475	-78.563416	162.798019
61428		9.967424	-3.364391	-0.477684	0.099968	-0.101157	-0.139274	-120.261868	-78.601756	163.264508
61429		10.245206	-2.490713	-0.399114	0.271786	-0.098744	-0.125250	-120.526039	-78.631037	163.692690
61430		10.248790	-1.654536	-0.802421	0.369421	-0.146588	-0.087023	-120.811410	-78.629369	164.199252
61431		10.320007	-0.563099	-0.989733	0.427157	-0.178362	-0.049454	-121.070803	-78.597181	164.713389
61432		9.957617	0.313877	-0.958923	0.287699	-0.175469	-0.022653	-121.375881	-78.554428	165.192383
61433		9.547491	0.315422	-1.181526	0.024362	-0.177368	-0.002348	-121.789104	-78.498698	165.628152
61434		9.289460	-0.108404	-1.171342	-0.115778	-0.173596	-0.008918	-122.293109	-78.448494	166.074409
61435		9.182940	-0.594206	-1.088677	-0.163836	-0.185519	0.002845	-122.817845	-78.386532	166.514098
61436		9.151661	-0.896734	-1.136210	-0.198574	-0.173149	0.008318	-123.333108	-78.326592	166.923601
61437		9.270722	-1.051932	-1.106907	-0.191370	-0.173498	0.030179	-123.794644	-78.253963	167.282835
61438		9.527411	-1.262610	-1.167554	-0.200673	-0.164003	0.050769	-124.215416	-78.175457	167.594793
61439		9.675848	-1.510522	-1.273121	-0.199401	-0.144891	0.060417	-124.561285	-78.096815	167.831336
61440		9.704485	-1.681308	-1.540917	-0.168531	-0.147389	0.068289	-124.890749	-78.014686	168.068971
61441		9.745470	-1.900812	-1.627161	-0.120967	-0.128590	0.075622	-125.125446	-77.933740	168.237933
61442		9.571136	-2.020805	-1.536217	-0.076599	-0.107799	0.083835	-125.285485	-77.857001	168.356304
61443		9.365014	-2.050350	-1.544457	-0.024987	-0.097068	0.072222	-125.398095	-77.787822	168.456719
61444		9.455334	-1.894900	-1.573901	-0.009473	-0.100647	0.062572	-125.533897	-77.723271	168.589707
61445		9.654419	-1.914684	-1.565876	-0.035635	-0.076073	0.051575	-125.637151	-77.670556	168.674345
61446		9.724358	-2.009842	-1.378754	-0.054718	-0.053510	0.039063	-125.732308	-77.632593	168.739240
61447		9.615326	-1.923376	-1.434955	-0.063459	-0.049369	0.037181	-125.815734	-77.595410	168.787278
61448		9.626217	-1.810726	-1.522453	-0.014943	-0.051078	0.039471	-125.881466	-77.558034	168.845397
61449		9.666952	-1.653755	-1.459663	0.024273	-0.031948	0.045404	-125.865143	-77.522835	168.842767
61450		9.630650	-1.756408	-1.228628	-0.014583	-0.024429	0.037259	-125.877785	-77.495428	168.846735
61451		9.567534	-1.829041	-1.185676	0.018482	-0.032122	0.034185	-125.882285	-77.465389	168.862032
61452		9.418012	-1.876095	-1.221366	0.006134	-0.028659	0.037440	-125.891554	-77.436477	168.874706
61453		9.397320	-2.154460	-1.353290	-0.019051	-0.033177	0.044692	-125.903836	-77.401206	168.875947
61454		9.424596	-2.141173	-1.291409	0.014256	-0.035165	0.041234	-125.916125	-77.368346	168.896487
61455		9.522596	-2.132512	-1.414300	0.004478	-0.026542	0.034031	-125.917072	-77.340198	168.899928
61456		9.486186	-2.041528	-1.361113	0.034759	-0.014366	0.026207	-125.897057	-77.321301	168.899404
61457		9.403650	-1.934685	-1.188952	0.086928	-0.000633	0.024072	-125.812305	-77.306430	168.863422
61458		9.311269	-1.685869	-1.049703	0.107829	-0.011338	0.029201	-125.739922	-77.287155	168.852132
61459		9.373818	-1.331915	-0.971636	0.112211	-0.018174	0.035887	-125.659596	-77.260920	168.835533
61460		9.537152	-0.929321	-1.035534	0.051092	-0.026554	0.045482	-125.627249	-77.228978	168.831960
61461		9.702664	-0.846985	-1.070580	-0.039677	-0.019231	0.059660	-125.601651	-77.191436	168.782236
61462		9.725940	-1.024916	-1.065411	-0.125820	-0.024435	0.070636	-125.629571	-77.148485	168.736513
61463		9.686195	-1.253687	-1.222958	-0.149845	-0.046687	0.079294	-125.694882	-77.092789	168.715274
61464		9.663122	-1.621486	-1.371999	-0.121680	-0.055294	0.085768	-125.760890	-77.032495	168.711046
61465		9.615267	-1.631389	-1.054869	-0.118156	-0.034092	0.091362	-125.765204	-76.975471	168.645827
61466		9.414037	-1.421046	-0.966291	-0.118788	-0.076009	0.105449	-125.842306	-76.899090	168.654686
61467		9.550390	-1.003675	-1.121466	-0.085859	-0.102898	0.125166	-125.916576	-76.803368	168.680276
61468		9.599247	-0.705279	-1.142495	-0.147320	-0.078155	0.148454	-125.951960	-76.706310	168.629488
61469		9.449844	-0.722101	-1.202853	-0.202992	-0.074203	0.158403	-125.989478	-76.604978	168.548351
61470		9.455404	-0.760781	-1.475357	-0.166011	-0.103928	0.171388	-126.053371	-76.488625	168.515822
61471		9.671289	-0.982189	-1.494814	-0.180649	-0.059288	0.192637	-126.003131	-76.376623	168.357492
61472		9.565358	-1.505155	-1.385218	-0.154613	-0.054287	0.213249	-125.909176	-76.257547	168.169195
61473		9.571475	-1.825605	-1.359790	-0.068661	-0.058445	0.224915	-125.753837	-76.130789	167.968546
61474		9.509682	-2.087151	-1.528839	0.011786	-0.052599	0.252131	-125.515248	-75.993922	167.729253
61475		9.470858	-2.067561	-1.510977	0.088339	-0.061165	0.266501	-125.228124	-75.846449	167.485241
61476		9.351729	-2.065312	-1.470508	0.133749	-0.069202	0.275442	-124.930301	-75.692632	167.256624
61477		9.307244	-2.082865	-1.119681	0.163929	-0.068186	0.280001	-124.606940	-75.535878	167.019584
61478		9.260358	-2.167567	-1.145345	0.155883	-0.068911	0.280108	-124.301510	-75.379348	166.795890
61479		9.249492	-2.005043	-1.303598	0.153291	-0.076067	0.280149	-124.009717	-75.219381	166.584860
61480		9.303572	-1.625878	-1.251915	0.166559	-0.082508	0.287168	-123.724984	-75.054583	166.388580
61481		9.371358	-1.216644	-1.141282	0.129396	-0.079600	0.299836	-123.440662	-74.883622	166.170791
61482		9.503081	-1.051990	-1.332714	0.083317	-0.075800	0.329884	-123.152936	-74.699985	165.921666
61483		9.559149	-1.106173	-1.398985	0.042841	-0.063185	0.358392	-122.835167	-74.505594	165.617367
61484		9.521075	-1.256935	-1.536277	0.013684	-0.062332	0.385904	-122.515448	-74.298406	165.293137
61485		9.513397	-1.403240	-1.505360	-0.009665	-0.049635	0.405333	-122.170028	-74.084684	164.928216
61486		9.443601	-1.650745	-1.431010	-0.011555	-0.059578	0.426174	-121.834870	-73.857756	164.572184
61487		9.428304	-1.766854	-1.397853	0.048700	-0.079992	0.449932	-121.480254	-73.612087	164.231679
61488		9.402444	-1.743917	-1.218356	0.111942	-0.079579	0.483759	-121.070063	-73.349781	163.870298
61489		9.302974	-1.376725	-1.121591	0.204961	-0.095327	0.524611	-120.600993	-73.061627	163.502831
61490		9.374404	-0.610236	-1.230536	0.236260	-0.116151	0.577219	-120.116483	-72.740914	163.137112
61491		9.436958	-0.313084	-1.458452	0.157602	-0.110591	0.653626	-119.611204	-72.382768	162.701979
61492		9.529723	-0.360871	-1.381049	0.089882	-0.100567	0.731163	-119.084416	-71.987699	162.202323
61493		9.426701	-0.605311	-1.338389	0.037630	-0.071250	0.818130	-118.490332	-71.555735	161.599377
61494		9.101942	-1.313999	-1.605349	-0.193366	-0.128162	0.887273	-118.087055	-71.071651	161.056273
61495		9.186590	-2.423644	-1.675407	-0.205512	-0.102936	0.926438	-117.645895	-70.573603	160.464342
61496		8.986419	-2.792029	-1.519533	-0.131051	-0.064166	0.917553	-117.142378	-70.088327	159.849455
61497		9.051384	-2.970483	-1.899201	-0.148442	-0.091573	0.873499	-116.741339	-69.617213	159.331503
61498		9.328605	-3.393956	-1.561594	-0.217065	-0.069969	0.854805	-116.385260	-69.159659	158.817760
61499		9.229604	-4.025686	-1.583496	-0.280611	-0.090401	0.828323	-116.125951	-68.709915	158.367410
61500		8.975167	-4.575236	-1.391598	-0.257189	-0.081267	0.815392	-115.866246	-68.268055	157.929430
61501		8.405104	-4.810783	-1.243039	-0.127644	-0.082292	0.799722	-115.555539	-67.833416	157.515442
61502		8.237281	-4.505523	-1.336180	0.009419	-0.113897	0.790804	-115.227653	-67.394597	157.166227
61503		8.395293	-3.785994	-1.041641	0.152414	-0.142273	0.798587	-114.859231	-66.944017	156.861132
61504		8.697234	-2.835891	-0.680163	0.268322	-0.174475	0.830817	-114.461079	-66.468221	156.594581
61505		9.047139	-2.278116	-1.021385	0.219744	-0.177025	0.883651	-114.076027	-65.963510	156.311329
61506		9.177376	-2.318961	-1.158647	0.193782	-0.180619	0.925567	-113.704579	-65.435278	156.025146
61507		9.181825	-2.467690	-1.269733	0.176377	-0.185472	0.936510	-113.354309	-64.899663	155.750517
61508		9.305002	-2.785763	-1.122547	0.155059	-0.209189	0.961693	-113.045565	-64.344577	155.506677
61509		9.448856	-3.313978	-0.827387	0.171867	-0.206359	0.994329	-112.718707	-63.772731	155.252706
61510		9.361005	-3.501745	-0.759152	0.259931	-0.195575	1.031220	-112.328907	-63.182641	154.983050
61511		9.031851	-3.061344	-0.548763	0.332120	-0.241499	1.079564	-111.936706	-62.556737	154.756258
61512		8.903540	-3.104759	-0.537207	0.339786	-0.275614	1.128773	-111.570413	-61.896173	154.561844
61513		8.625215	-3.799670	-0.709162	0.250999	-0.301720	1.169990	-111.274143	-61.208428	154.388621
61514		8.146949	-4.865478	-0.980045	0.148028	-0.309358	1.210081	-111.041793	-60.496534	154.219226
61515		7.395883	-5.846557	-1.654577	0.142677	-0.286009	1.234870	-110.788804	-59.776606	154.022032
61516		6.700184	-5.614367	-1.923331	0.341472	-0.314329	1.250882	-110.455848	-59.041089	153.862053
61517		6.469330	-4.792027	-2.412536	0.405382	-0.304037	1.212992	-110.098134	-58.328026	153.715526
61518		6.582041	-4.824247	-2.002077	0.301280	-0.286426	1.127289	-109.823881	-57.663637	153.595196
61519		7.329430	-4.572172	-1.862175	0.284177	-0.302462	1.023681	-109.608757	-57.052107	153.533367
61520		8.503206	-4.394709	-2.240787	0.302055	-0.287161	0.987516	-109.388377	-56.462575	153.476305
61521		9.444080	-4.888755	-1.853594	0.195746	-0.248317	1.018662	-109.190914	-55.863807	153.373868
61522		9.545167	-5.535646	-1.865346	0.183063	-0.218770	1.107686	-108.960429	-55.221794	153.221048
61523		9.079131	-5.482004	-2.143364	0.324284	-0.217354	1.206998	-108.627432	-54.526233	153.041379
61524		8.829671	-5.112215	-1.899524	0.403166	-0.208834	1.282531	-108.235812	-53.790049	152.842735
61525		8.512968	-5.257227	-1.585693	0.368052	-0.184226	1.304127	-107.850229	-53.046250	152.625488
61526		7.911004	-5.637897	-1.853710	0.224653	-0.180212	1.301862	-107.556748	-52.303083	152.417780
61527		7.040116	-5.729393	-2.311223	0.077218	-0.131838	1.305266	-107.320148	-51.566385	152.173810
61528		5.976511	-6.167112	-2.428623	-0.065390	-0.126778	1.308025	-107.171124	-50.827939	151.933985
61529		5.057953	-6.928799	-2.491109	-0.148524	-0.163062	1.278141	-107.104785	-50.099881	151.737933
61530		4.852808	-7.020706	-2.660825	0.041574	-0.201473	1.191045	-106.978472	-49.412444	151.603121
61531		5.463095	-6.336668	-2.257858	0.257215	-0.205632	1.074340	-106.756929	-48.788073	151.505240
61532		6.899499	-5.667534	-2.139620	0.374406	-0.202439	0.970476	-106.491499	-48.220957	151.436720
61533		8.125721	-5.102750	-2.186136	0.303415	-0.160552	0.907253	-106.254926	-47.695078	151.352455
61534		8.867023	-4.831842	-2.507849	0.117446	-0.120220	0.914491	-106.103885	-47.171560	151.238183
61535		9.375086	-4.498889	-2.447600	0.045919	-0.076903	1.005336	-105.954949	-46.604842	151.070324
61536		9.332238	-5.222210	-1.921622	-0.074774	-0.031820	1.144061	-105.831461	-45.968307	150.839639
61537		8.336893	-6.845542	-1.799416	-0.186584	-0.004434	1.315002	-105.733684	-45.242058	150.553245
61538		7.030807	-7.451485	-1.879361	-0.040427	0.007165	1.465972	-105.530816	-44.433201	150.232103
61539		5.874724	-7.328233	-1.506600	0.168217	0.009597	1.542919	-105.204984	-43.581750	149.901956
61540		5.042493	-7.466784	-1.189548	0.300837	-0.005715	1.522574	-104.826455	-42.737256	149.599974
61541		4.869824	-7.306200	-1.177762	0.445436	-0.056085	1.412446	-104.415164	-41.945422	149.368475
61542		6.005913	-6.494857	-1.127931	0.617246	-0.107870	1.279318	-103.957981	-41.218611	149.211878
61543		7.649281	-5.792824	-0.700446	0.700877	-0.133638	1.192291	-103.482096	-40.536091	149.098660
61544		8.935062	-6.480857	-0.896478	0.503246	-0.165424	1.190462	-103.141604	-39.849527	149.017215
61545		9.531819	-6.685694	-1.636038	0.519999	-0.147692	1.301565	-102.775199	-39.103467	148.910027
61546		9.156398	-6.713629	-1.699559	0.439059	-0.101412	1.468698	-102.424551	-38.268605	148.750856
61547		8.226903	-7.591913	-1.921672	0.305129	-0.113038	1.640221	-102.144991	-37.336699	148.580548
61548		7.200005	-7.839819	-2.200610	0.366177	-0.098019	1.747472	-101.822961	-36.344707	148.392706
61549		5.988611	-8.155016	-2.370336	0.348987	-0.048874	1.765626	-101.496375	-35.348639	148.177030
61550		4.950379	-8.813030	-2.709186	0.287262	-0.009463	1.698967	-101.204230	-34.392278	147.953216
61551		4.419245	-8.744853	-3.127065	0.342207	0.045864	1.565213	-100.876463	-33.517363	147.717848
61552		4.170590	-8.587613	-2.987964	0.306283	0.114231	1.399559	-100.563795	-32.740778	147.466102
61553		4.130933	-9.260319	-2.801884	0.174629	0.148376	1.241125	-100.330340	-32.056914	147.217241
61554		4.413561	-9.300957	-2.974975	0.178000	0.184469	1.120730	-100.095581	-31.442854	146.964144
61555		4.548723	-9.367832	-2.816369	0.211473	0.261097	1.061832	-99.823345	-30.869335	146.671959
61556		4.021415	-10.109914	-2.251214	0.246668	0.314789	1.058705	-99.518680	-30.300843	146.350147
61557		3.491247	-10.475921	-2.055619	0.398497	0.352297	1.054332	-99.120453	-29.737037	146.010108
61558		2.803635	-10.544648	-1.941292	0.555815	0.403377	1.050523	-98.622513	-29.177194	145.644312
61559		2.352211	-10.644497	-1.572024	0.679771	0.423879	1.005291	-98.055898	-28.641786	145.277344
61560		2.311132	-10.260624	-1.155272	0.875433	0.444676	0.918635	-97.381452	-28.153709	144.913027
61561		2.417020	-9.899081	-0.870877	0.994867	0.460499	0.817278	-96.643890	-27.720029	144.554809
61562		2.630223	-9.586472	-0.524389	0.980340	0.469936	0.732107	-95.920614	-27.331888	144.204299
61563		2.759215	-9.407355	-0.381574	0.845840	0.465524	0.657111	-95.282504	-26.981810	143.867496
61564		3.285831	-9.144486	-0.469998	0.688278	0.411035	0.572934	-94.756755	-26.674810	143.575453
61565		3.996713	-9.141182	-0.429819	0.513573	0.355487	0.474757	-94.351729	-26.418238	143.327132
61566		4.827014	-9.207242	-0.298601	0.422129	0.287567	0.374528	-94.022602	-26.215693	143.129367
61567		5.691080	-9.030131	-0.292812	0.340495	0.270352	0.303131	-93.747308	-26.051338	142.946880
61568		6.395724	-8.895482	-0.319520	0.288968	0.282363	0.272928	-93.499995	-25.904967	142.759317
61569		6.739254	-8.831803	-0.048303	0.263179	0.318976	0.289510	-93.257511	-25.748838	142.548537
61570		6.776569	-9.055525	0.235299	0.213530	0.339601	0.327396	-93.038607	-25.571713	142.324601
61571		6.496097	-9.234257	0.207159	0.164068	0.336698	0.399057	-92.848504	-25.352326	142.100969
61572		6.352208	-8.899386	0.017194	0.152711	0.307309	0.438378	-92.674133	-25.109437	141.896201
61573		6.246085	-8.593073	-0.103799	0.167240	0.306683	0.444354	-92.492280	-24.862375	141.692625
61574		5.952997	-8.469817	-0.002825	0.192731	0.300248	0.440454	-92.299467	-24.616951	141.494778
61575		5.507228	-8.362282	0.113245	0.196492	0.250690	0.426381	-92.118239	-24.378035	141.329456
61576		5.164617	-8.305935	0.134566	0.128507	0.189513	0.409303	-91.993556	-24.147111	141.204211
61577		4.831423	-8.483667	0.281288	0.044900	0.112192	0.396477	-91.936663	-23.922170	141.128082
61578		4.462105	-8.548564	0.130669	0.017424	-0.004806	0.379465	-91.926284	-23.704333	141.126080
61579		4.549445	-8.683573	-0.514410	0.069910	-0.088831	0.351315	-91.906374	-23.501458	141.176966
61580		4.649361	-8.864647	-0.685300	0.065061	-0.013761	0.308154	-91.871589	-23.324286	141.182202
61581		4.393565	-8.736131	-0.284329	0.056226	0.034374	0.219982	-91.830063	-23.199057	141.159097
61582		4.416223	-8.440594	-0.297400	-0.010695	-0.008193	0.125269	-91.838801	-23.126723	141.164687
61583		4.646373	-8.456694	-0.846659	-0.086205	0.019933	0.049339	-91.883831	-23.099042	141.154043
61584		4.724065	-8.534310	-1.153088	-0.167701	0.098263	-0.011471	-91.957589	-23.107047	141.096091
61585		4.503566	-8.631325	-0.952284	-0.279418	0.146693	-0.059438	-92.083348	-23.144375	141.008891
61586		4.208022	-8.791970	-0.734545	-0.400054	0.123276	-0.113127	-92.284987	-23.211374	140.937784
61587		4.118865	-9.043070	-0.707744	-0.462696	0.123766	-0.162440	-92.522433	-23.307726	140.867789
61588		3.851480	-9.178899	-0.589200	-0.503488	0.160607	-0.195350	-92.775028	-23.423300	140.776272
61589		3.355767	-9.754774	-0.262507	-0.481980	0.140806	-0.246662	-93.020430	-23.568887	140.699097
61590		2.774532	-9.779060	-0.383496	-0.468755	0.097166	-0.319156	-93.270657	-23.754020	140.652347
61591		2.411024	-8.847503	-1.035669	-0.415027	0.041843	-0.428591	-93.505439	-24.000738	140.644907
61592		2.220831	-7.252925	-1.511957	-0.307137	0.032086	-0.605924	-93.684590	-24.347846	140.651650
61593		2.103524	-6.406672	-0.897050	-0.037030	0.114468	-0.874739	-93.691930	-24.852186	140.618034
61594		1.805886	-6.344885	0.773027	0.383471	0.270634	-1.202160	-93.421190	-25.548737	140.497233
61595		1.271638	-5.722284	1.768303	0.481474	0.386340	-1.593701	-93.064033	-26.472771	140.311695
61596		1.002136	-5.101081	1.098474	0.008929	0.430524	-1.978229	-92.965400	-27.617116	140.105124
61597		1.498371	-5.331169	0.550498	-0.235685	0.396227	-2.328088	-93.017084	-28.960698	139.929496
61598		2.645375	-5.704227	0.545904	-0.133776	0.361348	-2.635767	-93.023103	-30.479190	139.786202
61599		4.205207	-5.674944	0.189753	-0.041181	0.342221	-2.899110	-92.981735	-32.147774	139.661594
61600		5.635045	-5.850770	-0.231629	-0.108325	0.441160	-3.082477	-92.941172	-33.924105	139.472598
61601		5.909128	-5.708273	0.208102	-0.194687	0.642213	-3.172380	-92.862355	-35.757733	139.139777
61602		5.275764	-5.342438	1.300481	-0.379631	0.743857	-3.222339	-92.833495	-37.622406	138.726761
61603		5.033652	-5.052579	2.091061	-0.645060	0.727732	-3.243286	-92.947265	-39.499208	138.316854
61604		5.320892	-5.009756	1.876294	-0.820997	0.747538	-3.290131	-93.141113	-41.403901	137.889966
61605		5.569664	-5.370968	1.259207	-0.868583	0.852639	-3.440568	-93.295685	-43.399487	137.381941
61606		5.753693	-5.812508	0.475038	-0.836035	0.942811	-3.621268	-93.367045	-45.501704	136.799256
61607		6.062163	-6.599088	-0.019917	-0.911795	1.003304	-3.769814	-93.419144	-47.691868	136.152725
61608		6.239878	-7.120800	-0.653962	-1.031782	1.102607	-3.851210	-93.444140	-49.931816	135.399885
61609		6.070782	-7.578762	-0.905134	-0.976196	1.102999	-3.879859	-93.388222	-52.188339	134.609575
61610		6.218698	-7.974602	-0.254542	-0.402762	0.978614	-3.922400	-93.040476	-54.463138	133.887870
61611		6.922276	-7.007085	0.338734	-0.032825	1.059045	-4.014191	-92.332668	-56.788502	133.008115
61612		6.820141	-6.641374	-0.798555	-0.370544	1.115889	-4.105118	-91.659064	-59.161036	131.962889
61613		6.929815	-6.600143	-0.808337	-0.114388	1.112492	-4.202474	-90.693344	-61.580738	130.777003
61614		7.069378	-5.884986	-0.395510	0.205175	1.078048	-4.287346	-89.382147	-64.037409	129.434942
61615		7.518704	-5.094022	-0.353492	0.368911	1.004231	-4.341604	-87.791665	-66.509141	127.917047
61616		8.165417	-4.285246	-0.192326	0.352129	0.971031	-4.380897	-85.901607	-68.984897	126.092920
61617		8.904222	-3.596259	-0.018255	0.280027	0.918646	-4.395489	-83.651097	-71.444258	123.872143
61618		9.673207	-2.853152	0.058630	0.155333	0.838550	-4.373159	-80.973218	-73.863770	121.160149
61619		10.500512	-2.548567	0.345395	-0.054948	0.739110	-4.316244	-77.744224	-76.216095	117.785761
61620		11.326854	-2.894114	0.672432	-0.313230	0.657242	-4.189727	-73.674495	-78.451317	113.431054
61621		12.005280	-3.500270	0.225741	-0.650415	0.591067	-4.013821	-68.293352	-80.517177	107.579627
61622		12.340265	-4.080486	-0.664118	-0.786708	0.537279	-3.829908	-60.619476	-82.369915	99.364462
61623		12.302629	-4.083039	-1.140642	-0.594709	0.458033	-3.648302	-49.156907	-83.937049	87.477489
61624		12.180352	-3.469615	-1.093531	-0.294562	0.396127	-3.514739	-31.800586	-85.087067	69.873400
61625		12.154958	-2.713045	-1.022633	0.055366	0.356977	-3.387280	-8.466442	-85.574463	46.495010
61626		12.035771	-1.570028	-0.977898	0.421051	0.342067	-3.223038	14.828934	-85.272962	23.368816
61627		11.595374	-0.243322	-0.360751	0.627744	0.227113	-3.005990	32.238365	-84.460041	6.251048
61628		11.349244	0.643873	0.019420	0.717113	0.031481	-2.751206	44.282030	-83.467003	-5.446107
61629		11.425646	1.740123	0.307020	0.781817	-0.201414	-2.404088	52.855393	-82.511611	-13.633044
61630		11.795078	2.412586	0.148131	0.779070	-0.289621	-2.078774	59.087414	-81.618069	-19.474749
61631		12.040869	2.318438	-0.424831	0.777539	-0.191583	-1.835179	63.422719	-80.751594	-23.411679
61632		11.435031	1.879739	-0.390803	0.834235	-0.071916	-1.660210	66.496299	-79.908485	-26.045010
61633		10.995272	1.662468	-0.486936	0.952533	-0.098097	-1.448038	69.033082	-79.164647	-28.070387
61634		10.201386	2.196332	-0.229657	1.051065	-0.047768	-1.199356	70.969947	-78.529501	-29.431116
61635		9.547730	2.317534	0.263821	1.155045	-0.137227	-0.909482	72.784582	-78.061549	-30.609131
61636		9.232271	2.501706	0.939797	1.368168	-0.195806	-0.660078	74.577571	-77.731220	-31.641572
61637		8.964507	2.967141	1.216472	1.410142	-0.187224	-0.439342	76.158209	-77.517386	-32.433323
61638		8.755936	3.172675	1.091007	1.281206	-0.146169	-0.273178	77.430507	-77.385116	-32.985137
61639		8.802417	3.177241	0.748064	1.091384	-0.123433	-0.148023	78.452695	-77.319276	-33.392552
61640		8.964419	3.116825	0.648121	0.870661	-0.095095	-0.053346	79.226506	-77.300721	-33.674817
61641		9.192931	2.777768	0.700643	0.661164	-0.100325	0.033292	79.850934	-77.331988	-33.927221
61642		9.470816	2.442104	0.786518	0.544518	-0.108115	0.117038	80.395389	-77.409504	-34.165876
61643		9.584759	2.091077	0.882560	0.451019	-0.110530	0.189512	80.865315	-77.528877	-34.383196
61644		9.606636	1.837196	0.942601	0.366482	-0.107044	0.241207	81.264998	-77.675710	-34.577851
61645		9.492346	1.590047	0.948669	0.293866	-0.069700	0.276972	81.515727	-77.840485	-34.662786
61646		9.280418	1.443755	1.001057	0.202430	-0.024133	0.285486	81.595461	-78.005073	-34.626137
61647		9.051612	1.556043	1.065400	0.088408	-0.027584	0.293196	81.613637	-78.175495	-34.593636
61648		9.168933	1.719527	0.833500	-0.049290	-0.034887	0.313397	81.566630	-78.356809	-34.574890
61649		9.279605	1.892415	0.495205	-0.140499	0.026683	0.321952	81.287141	-78.538878	-34.372499
61650		9.107949	1.967781	0.339862	-0.207747	0.089462	0.329982	80.782713	-78.718431	-33.979805
61651		8.641101	2.022818	0.378308	-0.308371	0.083542	0.335514	80.216626	-78.902084	-33.583567
61652		8.483587	2.029974	0.352871	-0.389178	0.055864	0.339556	79.670105	-79.088892	-33.254387
61653		8.479731	1.931562	0.341540	-0.424996	0.046578	0.332067	79.115943	-79.272924	-32.938810
61654		8.783611	1.782697	0.265251	-0.435584	0.041579	0.315838	78.569193	-79.446741	-32.636851
61655		9.039144	1.481768	0.122891	-0.461336	0.050384	0.294149	77.976771	-79.607827	-32.303887
61656		9.101771	1.165053	-0.031447	-0.456151	0.089316	0.280246	77.265779	-79.754635	-31.847278
61657		8.897966	0.970899	-0.109269	-0.444770	0.112140	0.278575	76.470656	-79.897508	-31.299045
61658		8.636752	0.904908	-0.011179	-0.395736	0.083565	0.303337	75.759216	-80.055751	-30.807251
61659		8.362497	0.708619	0.149117	-0.318380	0.017571	0.322175	75.265693	-80.234123	-30.492171
61660		8.235561	0.360265	0.213954	-0.236005	-0.101196	0.328725	75.192408	-80.432076	-30.555418
61661		8.366867	0.308519	0.341331	-0.156407	-0.215349	0.335340	75.539338	-80.651441	-30.998672
61662		8.586271	0.571860	0.148717	-0.102011	-0.267018	0.349332	76.107374	-80.883993	-31.633794
61663		8.771642	0.975134	-0.187700	-0.024890	-0.214952	0.350398	76.561190	-81.110544	-32.108407
61664		8.361763	1.222437	-0.095370	0.014582	-0.153064	0.320537	76.864982	-81.310422	-32.407772
61665		8.038883	1.181324	0.234596	0.084206	-0.153744	0.290879	77.247468	-81.494959	-32.746494
61666		8.079205	1.198366	0.305810	0.090917	-0.160761	0.281043	77.688387	-81.673084	-33.139971
61667		8.260620	1.100226	0.187718	0.066277	-0.139856	0.284037	78.045396	-81.851367	-33.463009
61668		8.306772	1.043089	0.102844	0.046900	-0.129301	0.277399	78.373072	-82.023005	-33.767232
61669		8.523277	1.104567	-0.034083	0.032273	-0.118851	0.253707	78.679307	-82.181322	-34.058400
61670		8.733496	1.139813	0.042060	0.003707	-0.107867	0.238519	78.951272	-82.328263	-34.331141
61671		8.833467	1.070190	0.315221	-0.032092	-0.113685	0.229265	79.242199	-82.471864	-34.643856
61672		8.796383	0.866373	0.457910	-0.116787	-0.125718	0.231662	79.549444	-82.616445	-35.021621
61673		8.689531	0.509145	0.413478	-0.175705	-0.124180	0.225750	79.830729	-82.758715	-35.407369
61674		8.562611	0.280280	0.395601	-0.212619	-0.127447	0.216762	80.129228	-82.894555	-35.831420
61675		8.563451	0.146258	0.268917	-0.240994	-0.129417	0.199591	80.444060	-83.022119	-36.288445
61676		8.668300	0.302914	0.301086	-0.226497	-0.122748	0.187902	80.762773	-83.140622	-36.740637
61677		8.894981	0.602768	0.375857	-0.195405	-0.123017	0.189606	81.109158	-83.261416	-37.202910
61678		9.245242	0.774035	0.360029	-0.173816	-0.128402	0.196433	81.507925	-83.384561	-37.705083
61679		9.600950	0.657597	0.179668	-0.113084	-0.131843	0.203417	81.967109	-83.513173	-38.233191
61680		9.779065	0.562863	-0.022528	-0.039844	-0.137970	0.214629	82.516284	-83.646422	-38.809219
61681		9.825613	0.574582	-0.284191	0.035549	-0.155160	0.235645	83.205965	-83.793867	-39.483260
61682		9.812441	0.740779	-0.364365	0.120120	-0.174622	0.254686	84.075184	-83.950641	-40.288668
61683		9.581055	0.888352	0.002260	0.193042	-0.192534	0.295362	85.107722	-84.131925	-41.216287
61684		9.363761	0.995323	0.526176	0.254344	-0.236224	0.346463	86.472947	-84.340406	-42.442392
61685		9.162255	0.946089	0.678778	0.267016	-0.250220	0.394151	88.014939	-84.575165	-43.838586
61686		9.013050	0.752050	0.679471	0.260033	-0.240920	0.436190	89.625896	-84.828308	-45.307237
61687		8.928522	0.382500	0.527809	0.300148	-0.258939	0.446966	91.536372	-85.085029	-47.053159
61688		9.116158	-0.061477	0.373472	0.402340	-0.247613	0.449545	93.629735	-85.336211	-48.922933
61689		9.366602	-0.210173	0.381576	0.558791	-0.244382	0.474786	96.030874	-85.597531	-51.011101
61690		9.364895	-0.596885	0.197308	0.774601	-0.211674	0.506917	98.620703	-85.870189	-53.163484
61691		8.980289	-1.004178	0.450602	1.046415	-0.214590	0.541374	101.783178	-86.155662	-55.733292
61692		8.321170	-1.572080	1.049018	1.374374	-0.257094	0.599689	106.109165	-86.453452	-59.279586
61693		7.882184	-2.740296	-0.088973	1.577761	-0.355685	0.698700	112.546147	-86.765850	-64.822936
61694		8.293299	-0.610247	-1.676618	0.899021	-0.667004	0.952912	124.180500	-87.065149	-75.958587
61695		11.380462	3.983195	-7.019309	-1.053902	-1.207929	1.152807	142.413023	-87.071893	-94.819879
61696		15.965071	3.274576	-4.121831	0.335122	-0.870944	1.411069	161.069899	-87.012093	-113.309360
61697		14.235405	-0.144188	3.646045	2.409889	-0.903670	1.721041	-178.419313	-86.641293	-132.468635
61698		12.817327	-1.843771	5.518714	0.638931	-0.783549	1.739628	-163.719431	-86.035539	-146.831654
61699		12.339692	-2.500373	2.058686	-1.621953	-1.083170	1.175765	-158.876463	-85.227838	-152.621128
61700		15.251390	1.214586	2.564597	-0.368000	-1.181775	0.590464	-158.340339	-84.471267	-153.371528
61701		19.095963	7.403812	5.986244	0.412968	-0.059028	0.649050	-154.756419	-84.289604	-156.735459
61702		15.154142	7.825273	1.680923	0.170263	0.480878	0.811283	-149.258417	-84.312143	-162.163107
61703		13.540997	4.876178	-1.313069	-0.644170	0.306320	0.862756	-144.555835	-84.187633	-167.260771
61704		12.280825	0.718465	-2.049881	-1.256491	0.425561	0.895530	-139.894383	-84.063518	-172.670923
61705		8.458410	-2.373458	-2.930800	-1.573262	0.241068	0.818257	-136.621891	-83.852930	-176.868459
61706		7.475627	-3.891923	-6.207116	-1.809008	-0.557424	0.716111	-136.957315	-83.336968	-177.574338
61707		9.891012	-5.540247	-5.936131	-1.506676	-0.588244	0.649008	-137.460346	-82.834952	-177.937580
61708		10.296167	-6.574376	-3.444402	-0.127002	-0.002431	0.549774	-135.760594	-82.615274	-179.724892
61709		8.749988	-5.934003	-1.733968	0.865372	0.088879	0.525749	-133.378800	-82.433432	178.372544
61710		8.388018	-5.803825	-0.531215	1.024249	-0.090377	0.615078	-131.335412	-82.135978	176.902294
61711		8.051379	-5.188321	-0.160120	0.873800	-0.147816	0.732988	-129.368929	-81.757595	175.421421
61712		7.560276	-3.989769	-0.244565	0.577803	-0.110175	0.725930	-127.636736	-81.390776	174.004591
61713		7.470684	-1.237681	-0.040075	0.299878	-0.114981	0.529479	-126.615458	-81.105331	173.144675
61714		9.183672	2.604352	-0.163974	0.047953	-0.309046	0.342328	-126.757162	-80.840320	173.315558
61715		14.150573	2.970370	-1.531616	-0.337000	-0.344979	0.076544	-127.753552	-80.682221	174.129005
61716		18.453629	2.137546	1.318902	-0.089481	0.237446	-0.152665	-127.483195	-80.832582	173.802732
61717		15.176065	0.284452	2.268376	-0.340092	0.387338	-0.099716	-126.787638	-81.009226	172.900648
61718		10.849848	-1.640249	-0.055759	-1.233796	0.033843	0.035470	-127.332356	-81.002745	172.736016
61719		9.219884	-2.335367	-2.263336	-1.545005	-0.190614	0.136928	-128.455536	-80.871137	172.976652
61720		8.285516	-1.975305	-3.032449	-1.156754	-0.203849	0.183784	-129.283897	-80.713847	173.143985
61721		8.003145	-1.338516	-2.747059	-0.707829	-0.193600	0.117695	-129.947387	-80.588247	173.405034
61722		8.273331	-1.707736	-2.492689	-0.546033	-0.101140	0.020313	-130.492952	-80.539886	173.640519
61723		8.743333	-2.682601	-2.108768	-0.274308	-0.015460	-0.046231	-130.794872	-80.551072	173.786882
61724		9.638032	-3.030449	-1.600952	0.052910	-0.003663	0.000899	-130.783624	-80.547237	173.805794
61725		10.235600	-2.825427	-1.039542	0.356197	-0.011393	0.097677	-130.391624	-80.497102	173.614875
61726		10.221947	-2.036329	-0.652385	0.574837	-0.027731	0.158675	-129.797876	-80.415271	173.346356
61727		9.714246	-0.886794	-0.557169	0.641551	-0.045957	0.155875	-129.215260	-80.326160	173.127847
61728		9.339283	0.041587	-0.625569	0.532718	-0.108553	0.129852	-128.929741	-80.227181	173.147422
61729		9.482724	0.580375	-0.918948	0.311070	-0.160223	0.115844	-128.923468	-80.114570	173.321557
61730		9.727505	0.614113	-1.284240	0.104024	-0.162439	0.120632	-129.039905	-80.000280	173.499861
61731		9.976637	0.051930	-1.471613	-0.026568	-0.065576	0.100758	-129.016123	-79.928694	173.459877
61732		9.530693	-0.573711	-1.024934	-0.180320	0.005829	0.072938	-128.968230	-79.896300	173.305876
61733		9.118735	-1.433695	-0.629443	-0.316713	-0.013252	0.044613	-129.094747	-79.868686	173.249691
61734		9.071818	-2.063751	-0.703596	-0.480722	-0.045077	0.009361	-129.474015	-79.846158	173.354755
61735		9.232495	-2.232548	-0.978877	-0.581405	-0.075891	-0.013356	-130.022507	-79.821231	173.573196
61736		9.476669	-2.241278	-0.937557	-0.534724	-0.087248	-0.035779	-130.625579	-79.802453	173.874228
61737		9.683396	-2.067140	-0.851060	-0.436301	-0.091997	-0.031246	-131.162749	-79.778369	174.165674
61738		9.903620	-2.120182	-1.193708	-0.394618	-0.088164	-0.020666	-131.652605	-79.751746	174.433276
61739		10.002728	-2.063816	-1.480297	-0.311645	-0.077742	-0.020188	-132.057312	-79.727459	174.662741
61740		9.845121	-1.982770	-1.377551	-0.194593	-0.061060	-0.020706	-132.365946	-79.710622	174.862680
61741		9.614766	-1.963730	-1.389133	-0.090513	-0.073158	-0.018206	-132.626526	-79.686727	175.074456
61742		9.498181	-1.903399	-1.376387	0.019981	-0.097782	-0.005156	-132.861936	-79.648735	175.324965
61743		9.548383	-1.910207	-1.366659	0.082558	-0.083799	-0.013289	-133.034733	-79.618251	175.548352
61744		9.540157	-1.768342	-1.190432	0.103815	-0.074579	-0.032842	-133.225527	-79.600622	175.802381
61745		9.426457	-1.475657	-1.155875	0.086387	-0.060672	-0.055198	-133.431339	-79.596381	176.061590
61746		9.287561	-1.301608	-1.231977	0.027283	-0.054935	-0.064286	-133.688171	-79.599222	176.338188
61747		9.333161	-1.286556	-1.403588	0.021037	-0.067447	-0.060083	-133.956988	-79.593906	176.623390
61748		9.574468	-1.276029	-1.400311	0.026280	-0.060365	-0.056021	-134.208608	-79.590724	176.894109
61749		9.783331	-1.282499	-1.305812	0.036974	-0.048850	-0.053974	-134.413228	-79.589897	177.123327
61750		9.817239	-1.227371	-1.183233	0.006753	-0.041347	-0.061938	-134.646565	-79.596392	177.364081
61751		9.742025	-1.264688	-1.117191	-0.000453	-0.043347	-0.065553	-134.886135	-79.602181	177.607024
61752		9.593276	-1.325275	-1.187042	0.016242	-0.042917	-0.061896	-135.117966	-79.607664	177.851766
61753		9.484349	-1.192813	-1.127303	0.045176	-0.049028	-0.052789	-135.316015	-79.605663	178.079072
61754		9.512196	-0.854179	-1.191177	0.052805	-0.058010	-0.044909	-135.522334	-79.597834	178.319177
61755		9.582938	-0.527320	-1.216004	0.025811	-0.054635	-0.030081	-135.692827	-79.584193	178.507200
61756		9.626150	-0.182045	-1.325595	-0.034693	-0.043769	-0.016804	-135.854775	-79.570711	178.651234
61757		9.614025	-0.115102	-1.478983	-0.093425	-0.029265	-0.000461	-135.972173	-79.555614	178.715821
61758		9.599302	-0.224932	-1.481185	-0.117712	-0.022567	0.009537	-136.076357	-79.540281	178.752761
61759		9.675047	-0.514268	-1.616605	-0.118609	-0.024164	0.022920	-136.145274	-79.518046	178.753376
61760		9.737453	-0.808749	-1.573610	-0.049962	-0.023286	0.039824	-136.144309	-79.490379	178.722861
61761		9.697832	-0.899020	-1.527533	-0.004389	-0.028950	0.052467	-136.092886	-79.454464	178.667634
61762		9.651373	-0.802070	-1.421608	0.019949	-0.027590	0.066459	-136.002590	-79.414420	178.586990
61763		9.623478	-0.617469	-1.266082	0.043086	-0.033250	0.075870	-135.883054	-79.367408	178.490122
61764		9.604154	-0.467406	-1.114211	0.027582	-0.032352	0.093211	-135.741680	-79.314664	178.361927
61765		9.611101	-0.435066	-1.159048	-0.060045	-0.025343	0.109031	-135.595200	-79.257615	178.177470
61766		9.635802	-0.609991	-1.236598	-0.140430	-0.026235	0.125970	-135.469531	-79.194109	177.967222
61767		9.608833	-0.854014	-1.293231	-0.169321	-0.023486	0.141712	-135.316161	-79.124589	177.711928
61768		9.596939	-1.052793	-1.415016	-0.157174	-0.023285	0.156140	-135.134718	-79.049898	177.435012
61769		9.559807	-1.200972	-1.404045	-0.127363	-0.015373	0.160452	-134.907281	-78.975797	177.128631
61770		9.525917	-1.297052	-1.381473	-0.094566	-0.023146	0.172116	-134.663479	-78.894265	176.824582
61771		9.575049	-1.346608	-1.452090	-0.053855	-0.028902	0.177174	-134.395723	-78.807402	176.519865
61772		9.575992	-1.385501	-1.405456	-0.030679	-0.022557	0.181444	-134.103818	-78.721735	176.203914
61773		9.577052	-1.387105	-1.377291	-0.022146	-0.021650	0.181698	-133.803113	-78.635296	175.883940
61774		9.613797	-1.367306	-1.305848	-0.036039	-0.016359	0.181662	-133.510302	-78.551357	175.563743
61775		9.511994	-1.390937	-1.291688	-0.066236	-0.012076	0.182593	-133.222681	-78.467679	175.231153
61776		9.477909	-1.401849	-1.409692	-0.087672	-0.022059	0.185041	-132.973375	-78.379482	174.924974
61777		9.562969	-1.329724	-1.391023	-0.070876	-0.021843	0.188684	-132.705643	-78.288837	174.609768
61778		9.595863	-1.326511	-1.350803	-0.044685	-0.021069	0.200636	-132.409458	-78.193866	174.280663
61779		9.581375	-1.301368	-1.296772	-0.040562	-0.031035	0.213639	-132.106810	-78.088471	173.947308
61780		9.569276	-1.389092	-1.342784	-0.065908	-0.026834	0.206097	-131.834731	-77.988282	173.630169
61781		9.621318	-1.426852	-1.382595	-0.071158	-0.017095	0.197627	-131.560769	-77.894408	173.307977
61782		9.654714	-1.412077	-1.445065	-0.110772	-0.010543	0.196428	-131.308264	-77.803939	172.984342
61783		9.623482	-1.283372	-1.535101	-0.151766	-0.006090	0.205097	-131.054548	-77.710405	172.635385
61784		9.565649	-1.281869	-1.500612	-0.146315	-0.002687	0.217973	-130.778603	-77.612944	172.266680
61785		9.517035	-1.376040	-1.401299	-0.104895	0.001665	0.226926	-130.455760	-77.512104	171.874173
61786		9.493231	-1.421101	-1.387993	-0.049711	-0.003034	0.244582	-130.091848	-77.402004	171.471764
61787		9.536065	-1.233325	-1.595517	-0.019195	-0.015580	0.265641	-129.703090	-77.276778	171.061685
61788		9.594903	-0.716869	-1.734131	0.015874	-0.014525	0.293981	-129.259361	-77.139448	170.615567
61789		9.624563	-0.207989	-1.594690	0.030143	-0.006032	0.323927	-128.750060	-76.990381	170.110359
61790		9.639802	0.053140	-1.506930	-0.028769	0.010818	0.352689	-128.213523	-76.834052	169.542169
61791		9.583444	-0.011097	-1.637013	-0.087240	0.019617	0.365371	-127.684650	-76.673405	168.947117
61792		9.534243	-0.243469	-1.532228	-0.160773	0.018692	0.383731	-127.189269	-76.503375	168.342727
61793		9.504824	-0.600736	-1.681651	-0.255060	0.013243	0.408905	-126.733969	-76.318437	167.723588
61794		9.552836	-0.868615	-1.733929	-0.252248	0.016145	0.439048	-126.246819	-76.119766	167.072765
61795		9.563540	-1.060639	-1.625380	-0.202403	0.034684	0.470289	-125.669807	-75.911149	166.358231
61796		9.433299	-0.960267	-1.536656	-0.139006	0.037087	0.501149	-125.032912	-75.687355	165.618682
61797		9.428415	-0.568101	-1.663352	-0.084861	0.011293	0.546230	-124.376212	-75.431695	164.889958
61798		9.553505	-0.399659	-1.572705	-0.099822	0.040121	0.582598	-123.657371	-75.166027	164.087235
61799		9.432616	-0.298315	-1.160156	-0.095437	0.056669	0.618909	-122.890940	-74.885512	163.236858
61800		9.262393	-0.205082	-1.429624	-0.157208	0.013165	0.664465	-122.215767	-74.566879	162.443169
61801		9.382004	-0.544125	-1.726928	-0.260972	-0.001510	0.732855	-121.581978	-74.208343	161.629447
61802		9.358200	-1.094533	-1.294823	-0.216359	0.027669	0.785874	-120.851716	-73.829733	160.740457
61803		9.152796	-1.560523	-0.911608	-0.164497	0.027041	0.825105	-120.092635	-73.428745	159.850664
61804		9.059202	-1.706871	-0.982295	-0.086228	-0.007726	0.878456	-119.335773	-72.987723	159.008065
61805		9.134576	-1.822153	-0.928618	-0.040059	-0.004299	0.948427	-118.527034	-72.509712	158.136809
61806		8.948756	-2.187547	-0.565400	-0.016486	0.003019	0.993629	-117.700685	-72.006760	157.258856
61807		8.704908	-1.990734	-0.496894	-0.003129	-0.040032	1.008609	-116.967243	-71.481790	156.484291
61808		8.825033	-1.906665	-1.159882	-0.052595	-0.061050	1.036382	-116.313958	-70.933774	155.761963
61809		9.058947	-2.827854	-0.993708	-0.128552	-0.051749	1.074377	-115.701856	-70.366620	155.034810
61810		8.540932	-4.436660	-0.620401	-0.258985	-0.083382	1.090886	-115.234668	-69.780263	154.379604
61811		8.313628	-5.275453	-1.067765	-0.137985	-0.152679	1.061108	-114.844151	-69.191468	153.877920
61812		8.610204	-4.856119	-2.214815	0.067140	-0.161632	1.074878	-114.366071	-68.591490	153.406254
61813		8.883241	-3.911502	-1.771750	0.316077	-0.080471	1.090296	-113.657889	-68.000928	152.838642
61814		8.630465	-3.306636	-0.845202	0.331003	-0.035079	1.062690	-112.931934	-67.432310	152.258618
61815		8.352954	-2.844427	-0.808007	0.161493	-0.090502	1.002621	-112.432568	-66.881132	151.816849
61816		8.717652	-3.114878	-1.636932	-0.037284	-0.120286	0.963983	-112.123247	-66.342529	151.456119
61817		8.976643	-3.189450	-1.877247	-0.119693	-0.091650	0.963071	-111.841234	-65.810114	151.072277
61818		9.209208	-2.669600	-1.918614	0.001888	-0.104487	0.991236	-111.507171	-65.258866	150.706001
61819		9.448460	-1.971614	-1.804296	0.066332	-0.090742	1.034847	-111.116578	-64.686621	150.316555
61820		9.415484	-1.768076	-1.357463	-0.088154	-0.053116	1.102585	-110.760985	-64.084402	149.865743
61821		9.008751	-2.144620	-1.364171	-0.282037	-0.066908	1.157115	-110.526282	-63.449789	149.423609
61822		8.831955	-2.100404	-1.471742	-0.277560	-0.084088	1.219668	-110.298924	-62.776746	148.989935
61823		8.311002	-3.762838	-0.719377	-0.305517	-0.093877	1.262729	-110.097380	-62.078737	148.564758
61824		7.511519	-4.342261	-1.385812	-0.574425	-0.210253	1.283639	-110.171242	-61.345457	148.274413
61825		7.426302	-6.310692	-3.250749	-1.393446	-0.033102	1.261346	-110.552714	-60.660871	147.797434
61826		6.770847	-7.331256	-1.084417	-0.078417	-0.189895	1.186282	-110.364357	-59.984721	147.528457
61827		7.763649	-6.003061	-2.553539	-0.161117	-0.232406	1.085982	-110.304888	-59.354181	147.352267
61828		7.812188	-6.985885	-1.629102	-0.098775	-0.106977	1.007769	-110.128966	-58.789873	147.080733
61829		7.655514	-5.908061	-1.570886	0.139877	-0.113309	0.971866	-109.841810	-58.243313	146.837634
61830		8.087971	-3.965131	-2.038533	0.180858	-0.100040	0.975621	-109.527838	-57.696414	146.589033
61831		8.517929	-3.482262	-1.567940	-0.090982	-0.091617	0.994181	-109.364673	-57.140720	146.333166
61832		8.803129	-3.483505	-1.582444	-0.271722	-0.145366	0.997185	-109.354852	-56.572817	146.135010
61833		8.847070	-3.616759	-1.925584	-0.493646	-0.190655	1.017959	-109.505264	-55.985559	145.975429
61834		9.034944	-4.218399	-1.739232	-0.568314	-0.195162	1.073415	-109.687101	-55.367392	145.800829
61835		9.025674	-5.385863	-1.552103	-0.426436	-0.195946	1.138198	-109.771545	-54.714919	145.605364
61836		8.486652	-6.552533	-1.828813	-0.452493	-0.196442	1.172711	-109.864510	-54.043367	145.400285
61837		7.791900	-7.013184	-1.982101	-0.234974	-0.190151	1.198754	-109.824797	-53.359607	145.183624
61838		7.660106	-6.314774	-1.892147	0.097887	-0.179328	1.198855	-109.593240	-52.677033	144.963451
61839		7.941419	-5.809632	-1.834550	0.243723	-0.140801	1.186353	-109.262529	-52.008333	144.721791
61840		8.067354	-5.315355	-1.783480	0.348654	-0.109229	1.158542	-108.866796	-51.359263	144.471504
61841		7.994135	-4.766821	-1.786529	0.214890	-0.100332	1.148973	-108.553049	-50.716526	144.226052
61842		7.766875	-5.210606	-1.798776	0.008709	-0.107591	1.174005	-108.364812	-50.057744	143.987651
61843		7.064345	-6.134113	-2.161441	-0.235159	-0.122647	1.237537	-108.318107	-49.361952	143.749488
61844		6.171162	-6.883545	-2.670768	-0.383438	-0.137088	1.299870	-108.357339	-48.629080	143.509812
61845		5.312752	-7.358441	-3.045386	-0.350446	-0.127942	1.324556	-108.371120	-47.884942	143.258830
61846		4.899198	-7.013235	-3.294567	-0.106633	-0.064836	1.286723	-108.221067	-47.172103	142.972016
61847		5.253683	-6.114857	-2.734789	0.196589	0.005701	1.187708	-107.883170	-46.525024	142.662766
61848		6.140627	-5.434520	-2.215102	0.292673	0.067569	1.071731	-107.485233	-45.950563	142.343395
61849		6.876842	-5.580087	-1.926122	0.084582	0.087071	1.010991	-107.214133	-45.411405	142.031633
61850		7.388880	-6.036149	-2.056470	-0.099254	0.078006	1.028261	-107.056632	-44.860417	141.728607
61851		7.693099	-6.648944	-2.195275	-0.140514	0.075556	1.121335	-106.914508	-44.257578	141.410700
61852		7.808672	-7.535027	-2.302751	-0.073062	0.056450	1.236324	-106.731959	-43.587749	141.086607
61853		7.797793	-8.133965	-2.695607	0.088510	0.071410	1.301435	-106.447065	-42.883832	140.744117
61854		7.107196	-7.997094	-2.579531	0.311616	0.162894	1.349435	-105.991012	-42.166384	140.332951
61855		5.704721	-8.050926	-2.206854	0.375983	0.231136	1.382743	-105.472326	-41.438738	139.877315
61856		4.418259	-8.887367	-1.973395	0.342820	0.248346	1.344097	-104.982476	-40.731963	139.430208
61857		4.200795	-8.996157	-2.106636	0.353706	0.190403	1.201371	-104.543314	-40.092961	139.064693
61858		5.374500	-8.506091	-1.753077	0.401924	0.141263	0.991814	-104.132830	-39.561406	138.782705
61859		6.848562	-8.102438	-1.497828	0.397478	0.126240	0.831511	-103.755999	-39.115030	138.546790
61860		7.494467	-8.064911	-1.336964	0.278651	0.151551	0.780349	-103.445871	-38.699882	138.306554
61861		7.081014	-8.600099	-1.061630	0.180031	0.157906	0.826600	-103.188430	-38.258508	138.057956
61862		6.552402	-9.068827	-1.122616	0.244614	0.074027	0.897987	-102.927566	-37.765913	137.861277
61863		6.837329	-9.017302	-1.341762	0.452807	-0.012992	0.910459	-102.587457	-37.254162	137.728306
61864		7.334627	-8.794462	-1.234729	0.687399	-0.061512	0.880143	-102.140555	-36.753085	137.639480
61865		7.477250	-9.153533	-1.022210	0.614204	-0.102400	0.832500	-101.760033	-36.273024	137.591026
61866		7.347928	-9.940164	-1.390907	0.562954	-0.166768	0.793282	-101.441408	-35.807670	137.596998
61867		7.601118	-9.632411	-1.874889	0.694097	-0.200472	0.751769	-101.066024	-35.361615	137.635093
61868		8.056090	-8.878894	-1.709014	0.929390	-0.158750	0.715220	-100.544608	-34.941169	137.653635
61869		8.107405	-8.349871	-1.280097	1.112257	-0.072677	0.683106	-99.889406	-34.547582	137.621968
61870		7.759896	-7.746029	-0.992107	1.129443	0.003220	0.633049	-99.202131	-34.189390	137.550114
61871		7.530918	-7.415442	-0.848567	0.978979	0.042503	0.597395	-98.590975	-33.854286	137.460187
61872		7.440576	-7.170382	-0.524623	0.811874	0.026775	0.578013	-98.085861	-33.528079	137.387438
61873		7.369065	-7.029071	-0.274801	0.640240	-0.007177	0.592926	-97.692653	-33.190626	137.339461
61874		7.130362	-7.066853	-0.209624	0.463735	-0.040354	0.610914	-97.414104	-32.839877	137.315127
61875		6.678752	-7.189601	-0.331661	0.315126	-0.081344	0.633557	-97.235015	-32.473825	137.318018
61876		6.112132	-7.420575	-0.459588	0.229063	-0.100939	0.652628	-97.112633	-32.094900	137.333839
61877		5.449447	-7.578025	-0.586188	0.184101	-0.108920	0.646803	-97.018710	-31.719575	137.356026
61878		4.796784	-7.845479	-0.687167	0.161778	-0.116521	0.627950	-96.941916	-31.353647	137.385634
61879		4.146160	-8.158505	-0.695339	0.171470	-0.127049	0.594464	-96.863931	-31.006932	137.425156
61880		3.597702	-8.469244	-0.765489	0.207794	-0.135234	0.545977	-96.770666	-30.686440	137.474656
61881		3.087778	-8.677468	-0.755841	0.246306	-0.161988	0.488529	-96.665842	-30.397642	137.546517
61882		2.740719	-8.818250	-0.853380	0.288309	-0.197660	0.416016	-96.552292	-30.147157	137.648135
61883		2.681862	-8.798690	-1.006426	0.341720	-0.244307	0.336111	-96.425536	-29.939795	137.786463
61884		2.938612	-8.786336	-1.066071	0.419172	-0.278109	0.253774	-96.269016	-29.777006	137.953649
61885		3.392512	-8.733651	-1.009295	0.460700	-0.279037	0.167419	-96.091079	-29.663988	138.127551
61886		3.831113	-8.682861	-0.962292	0.434828	-0.268710	0.088806	-95.927948	-29.596620	138.300680
61887		4.119691	-8.724312	-0.956695	0.360509	-0.276725	0.030102	-95.811106	-29.562671	138.482763
61888		4.483259	-8.806072	-1.241366	0.311049	-0.287800	-0.004594	-95.728016	-29.548078	138.674782
61889		4.780574	-8.794078	-1.443864	0.291728	-0.277040	-0.034368	-95.652748	-29.551287	138.861354
61890		5.003851	-8.790260	-1.568409	0.266613	-0.288902	-0.073970	-95.597738	-29.576612	139.058633
61891		5.263625	-8.794150	-1.548205	0.284617	-0.278396	-0.116976	-95.529881	-29.627199	139.251506
61892		5.390715	-8.712569	-1.459513	0.353769	-0.259750	-0.147625	-95.418108	-29.696578	139.434398
61893		5.535427	-8.528638	-1.462719	0.444652	-0.210720	-0.180657	-95.238961	-29.787821	139.586789
61894		5.283666	-8.410512	-1.127423	0.517672	-0.180707	-0.194291	-95.009179	-29.888844	139.720263
61895		5.003152	-8.375861	-0.724492	0.509994	-0.191838	-0.207949	-94.787455	-29.997642	139.861315
61896		4.708387	-8.520700	-0.600714	0.468191	-0.233259	-0.221328	-94.604266	-30.112503	140.030341
61897		4.473462	-8.251134	-0.303443	0.490588	-0.380609	-0.235870	-94.457314	-30.229485	140.297082
61898		4.801338	-7.759296	-0.040907	0.546944	-0.476694	-0.219837	-94.310578	-30.333627	140.626736
61899		4.976503	-7.412168	-0.059671	0.561481	-0.419220	-0.260868	-94.137368	-30.464500	140.920137
61900		4.648685	-6.508905	-0.296010	0.411638	-0.326891	-0.370341	-94.022777	-30.662271	141.157797
61901		4.418122	-6.853791	-0.221627	0.066422	-0.176027	-0.517670	-94.058655	-30.950626	141.302178
61902		4.175458	-8.926608	0.898433	-0.052417	-0.038062	-0.611890	-94.118974	-31.298210	141.359972
61903		3.241269	-10.347632	0.648549	-0.489203	-0.139332	-0.614509	-94.465516	-31.642874	141.487056
61904		2.449826	-10.171361	-3.095842	-1.206936	-0.439988	-0.562947	-95.331899	-31.942119	141.818168
61905		2.946541	-7.982446	-4.966028	-0.898597	-0.664293	-0.494982	-96.103177	-32.185487	142.301214
61906		4.131866	-6.186195	-3.454651	-0.125127	-0.701246	-0.546640	-96.451316	-32.452223	142.817519
61907		5.026606	-6.730862	0.166909	0.864980	-0.508797	-0.713982	-96.172136	-32.825720	143.218099
61908		5.064749	-6.221243	3.621544	1.459349	-0.191610	-0.963984	-95.445779	-33.363453	143.418424
61909		4.188165	-4.090984	2.576241	0.544574	0.072622	-1.300711	-95.153773	-34.108466	143.454313
61910		3.971751	-2.758961	0.895546	-0.288080	0.429391	-1.708024	-95.213056	-35.104709	143.267345
61911		3.484812	-2.472430	1.019862	-0.695214	0.607752	-2.093035	-95.443695	-36.330385	142.980318
61912		3.983749	-3.123809	0.542892	-1.034720	0.521078	-2.390829	-95.917207	-37.722418	142.781423
61913		5.165274	-3.918574	-0.406152	-1.288560	0.502125	-2.580227	-96.557432	-39.222706	142.624112
61914		6.007154	-5.116071	-0.974525	-1.401229	0.514249	-2.697806	-97.273705	-40.791965	142.488745
61915		6.196517	-6.203501	-1.368501	-1.287713	0.523922	-2.750433	-97.934292	-42.393245	142.372666
61916		5.984563	-7.082165	-1.663653	-0.938421	0.514562	-2.773154	-98.413016	-44.007167	142.285903
61917		5.870501	-7.832445	-1.248243	-0.593926	0.504514	-2.834182	-98.711595	-45.655454	142.226869
61918		5.849058	-7.896501	-1.094867	-0.503224	0.569783	-2.940812	-98.935546	-47.369771	142.137554
61919		5.764524	-7.572392	-1.186323	-0.440956	0.643178	-3.086569	-99.093149	-49.173397	142.010269
61920		5.619727	-6.954354	-1.072894	-0.253590	0.714721	-3.264360	-99.112210	-51.084178	141.845259
61921		5.692323	-6.253461	-1.241863	0.104200	0.712980	-3.420985	-98.931835	-53.083085	141.692323
61922		6.110526	-5.619361	-1.223761	0.451002	0.754033	-3.537268	-98.512017	-55.151094	141.492660
61923		6.539648	-5.178306	-0.919074	0.697786	0.815371	-3.660291	-97.870803	-57.292340	141.202215
61924		7.036498	-4.786903	-0.666173	0.778708	0.839475	-3.753799	-97.110038	-59.486745	140.832458
61925		7.664928	-4.234822	-0.448306	0.706663	0.848089	-3.840771	-96.308667	-61.727933	140.377362
61926		8.429697	-3.776765	-0.096145	0.500347	0.867767	-3.864093	-95.507487	-63.980696	139.798865
61927		9.024387	-3.478032	0.159132	0.223928	0.882080	-3.837082	-94.721682	-66.214501	139.073907
61928		9.676721	-3.219240	0.065743	-0.078818	0.869827	-3.751392	-93.975094	-68.394980	138.215414
61929		10.127756	-2.949851	0.010392	-0.345302	0.864500	-3.635601	-93.208039	-70.504168	137.184863
61930		10.412084	-2.922229	0.131350	-0.515937	0.882205	-3.522603	-92.290831	-72.544023	135.905875
61931		10.483504	-2.953041	0.048010	-0.697880	0.922018	-3.444049	-91.108925	-74.531587	134.256458
61932		10.522759	-3.100627	-0.331453	-0.889600	0.914679	-3.379570	-89.652614	-76.471292	132.225600
61933		10.549252	-3.152697	-0.673922	-0.936507	0.874744	-3.301761	-87.764033	-78.351066	129.740693
61934		10.511539	-3.194870	-0.956630	-0.862466	0.802175	-3.201956	-85.268252	-80.154764	126.697313
61935		10.318923	-3.181612	-1.017781	-0.749027	0.725815	-3.105295	-81.833816	-81.876421	122.785770
61936		10.238161	-3.115135	-0.812009	-0.574780	0.670179	-3.032617	-76.717143	-83.514205	117.295397
61937		10.255379	-2.933488	-0.549067	-0.314936	0.615780	-2.990250	-68.431593	-85.047137	108.787460
61938		10.480107	-2.507673	-0.269480	-0.080247	0.551588	-2.954871	-53.862552	-86.389434	94.132558
61939		11.062590	-2.184018	-0.355977	0.155200	0.494795	-2.888348	-27.572497	-87.278337	67.892958
61940		11.756773	-1.272623	-0.628370	0.405100	0.484795	-2.755942	6.956821	-87.290804	33.559058
61941		12.200664	-0.265676	-0.699562	0.600139	0.466661	-2.556493	31.509683	-86.542099	9.315879
61942		11.961282	0.973411	0.042293	0.745313	0.384981	-2.325181	45.113300	-85.538867	-3.891845
61943		11.703715	1.841572	0.632413	0.755111	0.247418	-2.092189	53.345896	-84.538996	-11.721364
61944		11.249222	2.751582	1.131042	0.607538	0.146348	-1.854737	58.763318	-83.611526	-16.818118
61945		10.779497	3.114097	1.221116	0.253565	0.067355	-1.610281	62.439893	-82.790784	-20.374920
61946		10.368572	2.622659	0.724541	-0.033313	0.062645	-1.365050	64.811425	-82.075523	-22.786902
61947		9.890448	2.337276	0.760117	-0.167103	0.058841	-1.142152	66.386132	-81.467613	-24.475275
61948		10.084679	1.696919	0.155813	-0.193940	-0.009022	-0.959725	67.708737	-80.964649	-25.926417
61949		10.363920	1.595832	-0.131426	-0.144844	0.036282	-0.837663	68.614816	-80.513267	-26.929097
61950		10.224611	2.334911	0.079450	-0.181831	0.007592	-0.676495	69.317391	-80.151246	-27.747889
61951		10.126245	3.047485	0.163935	-0.134719	-0.070497	-0.476688	70.008122	-79.910980	-28.528115
61952		10.025385	3.469783	0.720272	0.008872	-0.050532	-0.324051	70.527899	-79.747257	-29.051444
61953		9.744984	3.353873	1.365870	0.025533	0.053106	-0.235160	70.643474	-79.611647	-29.154541
61954		9.171009	2.736805	1.654392	-0.080542	0.107573	-0.177851	70.479057	-79.496300	-29.034697
61955		8.827125	2.064191	1.321635	-0.212454	0.113721	-0.130120	70.174641	-79.405545	-28.849337
61956		8.816872	1.401968	0.786201	-0.247040	0.107689	-0.068522	69.808346	-79.348824	-28.621085
61957		8.897245	0.960011	0.493579	-0.149817	0.065755	0.031053	69.513261	-79.353779	-28.408646
61958		8.790462	0.873010	0.353853	0.023946	0.027932	0.126420	69.323848	-79.417270	-28.202396
61959		8.599687	0.946130	0.287780	0.189129	-0.006788	0.200262	69.244954	-79.527432	-28.012421
61960		8.610732	1.132400	0.365806	0.287285	-0.047470	0.248353	69.286614	-79.671453	-27.887843
61961		8.604316	1.035221	0.527718	0.277193	-0.053172	0.266634	69.316393	-79.826653	-27.757203
61962		8.534749	0.673203	0.760061	0.224761	-0.082189	0.234868	69.439887	-79.970493	-27.752253
61963		8.748673	0.452807	0.526150	0.159486	-0.083057	0.200275	69.568415	-80.096217	-27.790481
61964		8.851936	0.256842	0.102168	0.135271	-0.044345	0.168761	69.602575	-80.196998	-27.746906
61965		8.873368	0.119103	0.005090	0.226864	-0.058761	0.132536	69.775176	-80.281603	-27.790682
61966		9.068640	0.284823	0.076067	0.315182	-0.076589	0.104038	70.091515	-80.353935	-27.928815
61967		9.162986	0.658371	0.021765	0.357301	-0.077654	0.100551	70.441315	-80.425028	-28.076518
61968		9.104598	0.951679	0.144349	0.375400	-0.095697	0.101097	70.864451	-80.499099	-28.287899
61969		8.949123	1.380833	0.488143	0.348325	-0.133925	0.094922	71.407353	-80.577271	-28.636524
61970		8.849725	1.691424	0.585956	0.223764	-0.141753	0.106326	71.900887	-80.661869	-29.007220
61971		8.747889	1.844024	0.487969	0.058510	-0.118143	0.116007	72.216338	-80.747792	-29.293457
61972		8.651299	1.717210	0.419103	-0.126836	-0.067777	0.086856	72.293135	-80.808208	-29.445299
61973		8.709169	1.563131	0.425068	-0.272697	-0.036579	0.043470	72.227373	-80.840088	-29.537500
61974		8.899700	1.152939	0.355880	-0.399059	-0.017978	0.000874	72.073781	-80.844909	-29.613938
61975		8.871723	0.556140	0.252400	-0.470423	-0.009785	-0.022824	71.876342	-80.835990	-29.687506
61976		8.691868	0.168493	0.224953	-0.436132	-0.039250	-0.026696	71.803537	-80.829667	-29.867295
61977		8.493630	-0.013894	0.283562	-0.317953	-0.093374	-0.006348	71.957468	-80.844756	-30.208307
61978		8.315888	0.096109	0.337754	-0.172632	-0.156445	0.017791	72.384979	-80.883092	-30.741910
61979		8.382410	0.646144	0.154033	-0.088498	-0.198957	0.052111	72.973229	-80.947559	-31.389572
61980		8.515706	1.229492	0.043479	-0.065708	-0.213494	0.076699	73.610122	-81.025956	-32.072963
61981		8.598036	1.566341	0.134317	-0.094007	-0.204335	0.089600	74.196049	-81.109763	-32.721195
61982		8.693362	1.688675	0.213903	-0.159270	-0.174656	0.092107	74.648844	-81.188559	-33.272219
61983		8.878736	1.450361	0.153979	-0.244104	-0.139895	0.099574	74.928597	-81.266589	-33.697374
61984		9.041126	0.826165	0.229856	-0.276785	-0.134735	0.107507	75.170280	-81.347076	-34.102712
61985		9.171293	0.083871	0.271518	-0.213199	-0.156716	0.112845	75.529869	-81.434283	-34.590518
61986		9.151393	-0.363743	0.027414	-0.136578	-0.185332	0.119437	76.043492	-81.527721	-35.189414
61987		9.173114	-0.396268	-0.073391	-0.054086	-0.203273	0.141732	76.664281	-81.636193	-35.848891
61988		9.167231	-0.278836	0.210153	0.040108	-0.246794	0.198548	77.475703	-81.779680	-36.646077
61989		9.162349	0.077181	0.434520	0.156260	-0.316730	0.275973	78.596813	-81.974198	-37.688738
61990		9.227205	0.702155	0.441982	0.156784	-0.357012	0.354214	79.879384	-82.212656	-38.893339
61991		9.457432	1.140204	0.345066	0.147188	-0.341400	0.432509	81.114659	-82.491564	-40.055248
61992		9.585047	0.968005	0.297832	0.153180	-0.288411	0.494079	82.170461	-82.796431	-41.031729
61993		9.598272	0.269776	0.245637	0.221343	-0.276905	0.559786	83.264397	-83.136800	-42.006809
61994		9.770440	-0.393351	-0.164226	0.331468	-0.313081	0.623438	84.680687	-83.511534	-43.241961
61995		9.990815	-0.887243	-0.456089	0.486505	-0.316227	0.685345	86.345157	-83.919321	-44.636703
61996		9.834040	-1.408799	-0.246950	0.712133	-0.308797	0.709985	88.313277	-84.334441	-46.205434
61997		9.523983	-1.621354	0.361709	0.980397	-0.357052	0.747697	91.023578	-84.766268	-48.364425
61998		9.202480	-1.580920	0.733475	1.259360	-0.417329	0.812066	94.770722	-85.219243	-51.401978
61999		8.837425	-1.332498	0.915956	1.476745	-0.460259	0.869515	99.734544	-85.682543	-55.533363
62000		8.774545	-0.694975	0.938655	1.478746	-0.457319	0.903482	105.790070	-86.129730	-60.755301
62001		9.178649	-0.912551	-0.998104	0.973781	-0.467237	0.948922	113.189964	-86.555340	-67.611861
62002		9.204461	0.190293	-1.192592	0.146513	-0.669948	1.103767	124.602132	-86.924318	-78.958680
62003		10.666996	3.700880	-3.956068	-0.915178	-1.005945	0.910981	138.677154	-86.931739	-93.579549
62004		13.117435	3.259406	1.421398	1.770855	-0.873899	0.712778	151.024893	-86.754532	-104.930164
62005		14.899519	2.946499	10.957949	1.455502	-0.908481	0.740074	161.962941	-86.443506	-115.052571
62006		16.957608	-1.816668	2.274179	-1.691668	-0.271469	0.944150	170.040649	-86.420780	-124.117449
62007		13.352890	-1.558159	-0.145889	-1.093524	0.129239	1.133524	179.896998	-86.550395	-134.620555
62008		9.712336	-0.472941	0.237151	0.230932	-0.554630	1.174643	-169.852905	-86.170658	-144.759033
62009		12.307769	1.998910	3.716915	0.434396	-0.688458	1.054165	-162.684240	-85.640840	-151.696932
62010		13.749825	4.552961	2.572526	-0.070432	-0.021646	0.892065	-156.634667	-85.448565	-157.805688
62011		12.494683	7.439033	-1.549038	-0.726274	0.437472	0.841690	-150.200579	-85.454918	-164.677937
62012		10.060048	6.075675	-3.202837	-1.868587	0.520911	0.839378	-144.172586	-85.442603	-171.799370
62013		8.070319	1.355490	-6.281605	-2.118965	0.198802	0.729965	-140.451587	-85.275033	-176.751031
62014		8.199885	-1.307418	-7.645418	-1.318260	-0.201229	0.687950	-138.599165	-84.929051	-179.368719
62015		9.192618	-5.361385	-4.875268	-1.584072	-0.560344	0.746461	-138.364957	-84.402691	179.484079
62016		12.483978	-6.737910	-0.428645	-0.183861	-0.498343	0.733929	-137.313448	-83.906475	178.320775
62017		17.645593	-4.367784	1.660545	1.405163	-0.562459	0.561976	-136.382571	-83.448091	178.193742
62018		21.897801	-0.089754	4.635215	1.814661	0.150730	0.407430	-133.406648	-83.341460	176.244196
62019		14.811340	1.801167	6.138667	0.781289	0.708987	0.423458	-128.948613	-83.423730	172.206514
62020		8.716781	3.150142	0.889510	-0.482531	0.038764	0.362257	-127.985767	-83.273029	170.958386
62021		7.942744	4.158478	-3.804899	-1.486787	-0.451862	0.270541	-129.706797	-82.987985	171.833522
62022		7.838917	3.304292	-4.502192	-1.832253	-0.467053	0.288945	-131.530485	-82.686035	172.613072
62023		7.600173	1.047749	-4.614908	-1.748176	-0.280224	0.329365	-132.485578	-82.436512	172.565820
62024		8.078927	-2.193488	-4.167508	-1.543176	0.007208	0.322863	-132.428797	-82.300689	171.616041
62025		8.558980	-5.523483	-1.807888	-1.092609	0.158163	0.323408	-131.655892	-82.221592	170.203878
62026		9.666501	-6.878439	-0.536037	-0.564401	0.012418	0.314046	-131.090993	-82.089172	169.306795
62027		10.684827	-6.070090	-0.681375	-0.230792	-0.057949	0.277491	-130.666923	-81.944551	168.744622
62028		10.433831	-4.187884	-0.338016	0.078642	-0.062770	0.207455	-130.286007	-81.828725	168.404954
62029		9.614580	-2.168050	-0.091929	0.209271	-0.133150	0.127951	-130.245134	-81.720469	168.484366
62030		9.163575	-1.037961	-0.526695	0.183695	-0.212006	0.089446	-130.557467	-81.600650	168.905994
62031		9.285553	-0.526008	-1.224172	0.181621	-0.228859	0.109157	-130.850363	-81.464717	169.306902
62032		9.556379	-0.177136	-1.356144	0.171419	-0.180626	0.151163	-130.907327	-81.329424	169.463431
62033		9.576457	0.107470	-0.844782	0.118642	-0.156253	0.188743	-130.823219	-81.186109	169.446691
62034		9.711801	-0.201590	-0.744033	0.065361	-0.160330	0.212956	-130.733267	-81.031642	169.393132
62035		9.904994	-0.577691	-0.826406	0.043637	-0.154852	0.242867	-130.565965	-80.865439	169.248636
62036		10.005460	-0.961053	-0.920357	-0.013050	-0.154070	0.272122	-130.375681	-80.687469	169.047868
62037		9.698036	-0.851575	-0.916275	-0.033471	-0.136838	0.254819	-130.190125	-80.522634	168.839961
62038		9.256035	-0.676277	-1.061199	-0.160559	-0.174636	0.223261	-130.256784	-80.358293	168.813852
62039		9.158802	-0.646881	-1.186188	-0.144483	-0.179914	0.207681	-130.353569	-80.198150	168.827677
62040		9.224811	-0.358678	-1.096178	-0.133066	-0.218600	0.211823	-130.536049	-80.022474	168.935100
62041		9.680793	-0.278319	-1.367386	-0.178144	-0.275085	0.240879	-130.809162	-79.812413	169.108453
62042		10.052192	-0.304872	-1.458156	-0.248233	-0.217367	0.248896	-130.966426	-79.621004	169.123317
62043		10.031515	-0.401755	-1.371326	-0.457719	-0.188537	0.259305	-131.146469	-79.435431	169.039345
62044		9.906267	-0.806507	-1.408647	-0.540036	-0.151710	0.258725	-131.294292	-79.264562	168.874498
62045		9.700666	-0.951336	-1.489099	-0.493670	-0.144513	0.269956	-131.373301	-79.091196	168.666598
62046		9.520571	-1.312559	-1.727176	-0.440255	-0.123211	0.280191	-131.361953	-78.921967	168.397655
62047		9.302343	-1.575968	-1.570280	-0.326969	-0.088153	0.278703	-131.212962	-78.766099	168.054474
62048		9.221498	-1.297752	-1.636610	-0.273447	-0.079215	0.285188	-131.013051	-78.611061	167.690407
62049		9.287236	-1.082790	-1.578619	-0.334935	-0.073645	0.284400	-130.841494	-78.457720	167.319165
62050		9.466993	-0.967331	-1.530147	-0.347404	-0.077926	0.285523	-130.694902	-78.302593	166.965873
62051		9.595076	-1.081471	-1.297302	-0.418252	-0.083361	0.274385	-130.622873	-78.149647	166.647120
62052		9.735059	-1.570263	-1.335719	-0.418693	-0.088040	0.264486	-130.586317	-77.999697	166.364151
