// General information: 
//  MT Manager version: 2022.2.0 
//  XDA version: 2022.2.0 build 7381 rev 124627 built on 2023-07-19
// Device information: 
//  DeviceId: 00B4BAF3
//  ProductCode: MTW2-3A7G6
//  Firmware Version: 4.6.0
//  Hardware Version: 2.0.0
// Device settings: 
//  Filter Profile: human(46.1)
//  Option Flags: Orientation Smoother Disabled, Position/Velocity Smoother Disabled, Continuous Zero Rotation Update Disabled, AHS Disabled, ICC Disabled
// Coordinate system: ENU
PacketCounter	SampleTimeFine	Acc_X	Acc_Y	Acc_Z	Gyr_X	Gyr_Y	Gyr_Z	Roll	Pitch	Yaw
07932		9.615998	-1.696882	0.018413	-0.027636	0.000929	0.054438	-87.240536	-81.694660	30.011221
07933		9.593214	-1.649297	0.000171	-0.019607	0.003807	0.050543	-87.265811	-81.665394	30.024985
07934		9.539303	-1.612405	-0.078600	-0.013122	-0.001114	0.046302	-87.304022	-81.638736	30.055603
07935		9.533262	-1.602850	-0.098317	-0.007321	-0.000976	0.042015	-87.338980	-81.614477	30.086271
07936		9.526969	-1.546027	-0.145760	0.008762	0.002386	0.036801	-87.349151	-81.593136	30.101221
07937		9.522861	-1.624374	-0.227954	0.000678	0.009073	0.030376	-87.338342	-81.575270	30.090260
07938		9.599009	-1.809967	-0.193670	0.021185	0.006699	0.019418	-87.321803	-81.563744	30.085402
07939		9.654453	-2.082045	-0.092531	0.069084	0.007303	0.002733	-87.273720	-81.561745	30.076381
07940		9.730707	-2.218356	-0.084236	0.128317	0.008342	-0.006030	-87.185047	-81.564678	30.060647
07941		9.714499	-2.178409	-0.078482	0.189046	0.011546	-0.017687	-87.047914	-81.574237	30.031087
07942		9.604132	-1.968069	0.102858	0.231893	0.011193	-0.033664	-86.883235	-81.592798	29.998502
07943		9.563858	-1.738695	0.184864	0.224581	0.006686	-0.041777	-86.738910	-81.616270	29.982257
07944		9.653949	-1.587014	0.114361	0.180505	0.003255	-0.046246	-86.630875	-81.642219	29.977166
07945		9.798169	-1.472520	0.002266	0.155983	0.005090	-0.047834	-86.529920	-81.669199	29.965032
07946		9.814142	-1.414996	0.007146	0.150087	0.016832	-0.056503	-86.382991	-81.700520	29.903020
07947		9.739604	-1.412404	0.090237	0.147635	0.024892	-0.060298	-86.204860	-81.733884	29.808065
07948		9.638877	-1.388223	0.103844	0.144990	0.019771	-0.069419	-86.044077	-81.772425	29.729114
07949		9.627883	-1.357495	0.187546	0.149089	0.011024	-0.064416	-85.916792	-81.808626	29.686390
07950		9.514184	-1.216638	0.222133	0.157093	0.009108	-0.063090	-85.791313	-81.843941	29.650126
07951		9.484747	-1.008597	0.218059	0.144787	0.000312	-0.058426	-85.709679	-81.877149	29.651036
07952		9.610482	-0.857231	0.223072	0.110627	-0.004798	-0.052102	-85.668797	-81.906800	29.673341
07953		9.741432	-0.672536	0.158116	0.064859	-0.003007	-0.045060	-85.650033	-81.932515	29.691496
07954		9.785381	-0.679452	0.078950	0.010908	0.004393	-0.035008	-85.634315	-81.952072	29.681514
07955		9.756359	-0.732824	-0.071181	-0.017464	0.009743	-0.034989	-85.614242	-81.971478	29.650711
07956		9.756577	-0.776957	0.018593	-0.028877	0.011468	-0.027575	-85.594870	-81.986555	29.614023
07957		9.815944	-0.873861	0.147968	-0.031371	0.011451	-0.014074	-85.582185	-81.993935	29.582636
07958		9.876413	-1.017358	0.247321	-0.008262	0.023963	0.001605	-85.509306	-81.991845	29.503850
07959		9.759623	-1.100446	0.346066	-0.001856	0.013286	0.012186	-85.480584	-81.984136	29.473346
07960		9.599761	-1.078081	0.285689	-0.021612	0.005053	0.019949	-85.497858	-81.972443	29.477881
07961		9.569594	-0.877703	0.219215	-0.060849	0.002779	0.031210	-85.551533	-81.954339	29.496452
07962		9.627994	-0.839359	0.140474	-0.124747	0.005113	0.036729	-85.632573	-81.933096	29.505713
07963		9.666075	-0.840305	0.040559	-0.189736	0.007747	0.036015	-85.741099	-81.912026	29.505100
07964		9.653192	-0.986005	-0.023353	-0.220779	0.013572	0.030162	-85.840668	-81.894233	29.477506
07965		9.546329	-1.216742	-0.120641	-0.234908	0.020485	0.026512	-85.920773	-81.878069	29.422041
07966		9.486433	-1.475199	-0.099820	-0.222825	0.008947	0.024407	-86.038230	-81.863793	29.411332
07967		9.535445	-1.595560	-0.045619	-0.182825	-0.003315	0.023616	-86.182536	-81.850241	29.450864
07968		9.609651	-1.644183	0.020271	-0.143832	-0.011972	0.022366	-86.337350	-81.837900	29.523610
07969		9.769603	-1.669290	0.018946	-0.101463	0.003588	0.014322	-86.404641	-81.829387	29.532434
07970		9.778341	-1.607080	0.059735	-0.076090	-0.000513	0.023328	-86.474892	-81.816024	29.558962
07971		9.818283	-1.485399	0.073737	-0.061707	0.009964	0.028666	-86.497430	-81.799081	29.545586
07972		9.687788	-1.360099	0.076537	-0.077800	0.008974	0.031276	-86.532776	-81.780820	29.535858
07973		9.607675	-1.398023	0.103016	-0.109487	-0.008825	0.028579	-86.656827	-81.764571	29.597389
07974		9.687893	-1.458742	0.129004	-0.117949	-0.014861	0.015274	-86.805283	-81.756247	29.678707
07975		9.683239	-1.539764	0.162983	-0.134297	-0.005858	0.006094	-86.926307	-81.752727	29.722818
07976		9.599632	-1.653003	0.165239	-0.149597	0.002773	0.003180	-87.020396	-81.750727	29.730880
07977		9.516957	-1.714723	0.019753	-0.134852	-0.003689	0.010132	-87.133867	-81.744810	29.767039
07978		9.507239	-1.732532	-0.053659	-0.097148	-0.012592	0.010582	-87.259859	-81.738966	29.837700
07979		9.570193	-1.659322	-0.082787	-0.062193	-0.022840	0.006203	-87.406230	-81.735784	29.949172
07980		9.666142	-1.712991	-0.027210	-0.031859	-0.024510	0.003514	-87.540416	-81.734202	30.065912
07981		9.666811	-1.710259	-0.088865	-0.020258	-0.005824	-0.006233	-87.593502	-81.737661	30.107400
07982		9.633529	-1.681073	0.000755	-0.011032	-0.010186	-0.014095	-87.656553	-81.745741	30.164311
07983		9.687493	-1.718618	0.018866	0.000943	-0.002811	-0.019023	-87.683658	-81.756441	30.191819
07984		9.617935	-1.685718	0.029118	-0.000943	-0.004085	-0.019054	-87.716284	-81.767175	30.223822
07985		9.591442	-1.664122	0.019103	0.026138	-0.012885	-0.023253	-87.768359	-81.780519	30.291143
07986		9.564553	-1.595213	-0.018664	0.047373	-0.009060	-0.027619	-87.791968	-81.796230	30.342001
07987		9.585017	-1.506652	-0.024709	0.054523	-0.006243	-0.036283	-87.799729	-81.816878	30.380977
07988		9.641993	-1.420101	0.049496	0.053798	-0.004395	-0.042164	-87.799189	-81.840793	30.411150
07989		9.626541	-1.374560	-0.008950	0.038704	-0.012209	-0.044977	-87.838838	-81.866547	30.473179
07990		9.574586	-1.375130	-0.060746	0.022029	-0.020652	-0.055875	-87.920188	-81.898651	30.567678
07991		9.617837	-1.383481	-0.023163	0.019449	-0.030470	-0.059896	-88.043363	-81.933291	30.702918
07992		9.608524	-1.446422	0.051571	0.042230	-0.023610	-0.058760	-88.126410	-81.967054	30.810804
07993		9.597432	-1.418397	0.130485	0.057520	-0.026633	-0.052583	-88.215052	-81.997373	30.933177
07994		9.612302	-1.264655	0.014926	0.037270	-0.026911	-0.055525	-88.316401	-82.029285	31.056657
07995		9.665488	-1.204595	-0.024435	0.012245	-0.022945	-0.053091	-88.417511	-82.059776	31.165408
07996		9.682170	-1.191735	-0.055729	0.004722	-0.016849	-0.046677	-88.498840	-82.086421	31.249829
07997		9.657771	-1.259017	-0.070172	0.017725	-0.015433	-0.048637	-88.567683	-82.114207	31.329158
07998		9.611903	-1.320681	-0.074171	0.038118	-0.013214	-0.046802	-88.615921	-82.140858	31.399479
07999		9.616703	-1.285332	-0.023795	0.063468	-0.015699	-0.048870	-88.660559	-82.168761	31.480821
08000		9.578829	-1.236742	-0.012960	0.067457	-0.012767	-0.038924	-88.691708	-82.190883	31.550850
08001		9.525268	-1.194375	-0.032484	0.066431	-0.017182	-0.040003	-88.742460	-82.213711	31.640068
08002		9.523930	-1.097377	-0.089632	0.053423	-0.013002	-0.034781	-88.783697	-82.233459	31.712156
08003		9.642047	-1.103098	-0.129873	0.029486	-0.015037	-0.029350	-88.848269	-82.250138	31.793949
08004		9.760631	-1.157891	-0.081881	0.026524	-0.004737	-0.029122	-88.871244	-82.266556	31.832048
08005		9.834387	-1.323173	-0.067079	0.022300	0.006376	-0.036614	-88.849342	-82.287143	31.822414
08006		9.753432	-1.479329	-0.032303	0.025313	0.010763	-0.042450	-88.806414	-82.311028	31.793307
08007		9.660214	-1.563347	-0.004807	0.027866	0.009369	-0.044950	-88.767598	-82.336352	31.769825
08008		9.635300	-1.584229	-0.044329	0.045137	0.008767	-0.048277	-88.720867	-82.363571	31.748341
08009		9.710125	-1.528680	-0.150219	0.049844	0.006672	-0.038283	-88.681202	-82.385107	31.736710
08010		9.808992	-1.403618	-0.183400	0.068979	0.012974	-0.038339	-88.603390	-82.406544	31.697650
08011		9.779455	-1.291683	-0.127613	0.088140	0.016896	-0.035807	-88.497577	-82.426509	31.641424
08012		9.744760	-1.164222	-0.150446	0.094539	0.027984	-0.038712	-88.339636	-82.447898	31.536306
08013		9.668495	-1.120582	-0.036222	0.087162	0.030384	-0.036675	-88.174845	-82.468087	31.420028
08014		9.719967	-1.066018	0.049343	0.079488	0.028939	-0.032411	-88.020935	-82.485788	31.310288
08015		9.757860	-1.061109	0.013560	0.067221	0.031309	-0.021330	-87.864590	-82.497088	31.191013
08016		9.811206	-1.050888	0.008186	0.063634	0.033909	-0.016669	-87.699700	-82.505610	31.061044
08017		9.821868	-1.028411	-0.037098	0.063197	0.031391	-0.007494	-87.547073	-82.508901	30.943198
08018		9.770538	-0.912004	-0.030211	0.057683	0.040709	-0.002225	-87.358331	-82.508913	30.785737
08019		9.694723	-0.868603	-0.035225	0.053294	0.041705	0.008654	-87.169732	-82.502583	30.625885
08020		9.681979	-0.798096	-0.038884	0.046479	0.042768	0.015089	-86.982603	-82.492534	30.463575
08021		9.760406	-0.766209	-0.002657	0.042971	0.043897	0.030741	-86.796421	-82.473364	30.300188
08022		9.820445	-0.819631	-0.018186	0.033203	0.052891	0.039935	-86.580711	-82.448678	30.101365
08023		9.758643	-0.896116	-0.045347	0.017616	0.051967	0.035949	-86.377703	-82.426093	29.906332
08024		9.782988	-0.875318	0.060296	-0.001016	0.049057	0.035211	-86.199315	-82.404116	29.725363
08025		9.781481	-1.049780	0.100976	-0.020900	0.059069	0.041594	-85.991961	-82.377855	29.503660
08026		9.723128	-1.095822	0.124193	-0.026254	0.050925	0.056591	-85.828944	-82.343461	29.323591
08027		9.740229	-1.186742	0.156816	-0.006041	0.048886	0.062212	-85.665865	-82.305675	29.155119
08028		9.733108	-1.181393	0.201580	-0.010974	0.048870	0.071256	-85.510699	-82.262874	28.991777
08029		9.708215	-1.091529	0.218105	-0.041752	0.047062	0.074594	-85.383145	-82.217982	28.838476
08030		9.700352	-1.040769	0.233440	-0.064325	0.045325	0.078120	-85.278835	-82.171345	28.695580
08031		9.669674	-1.059370	0.116634	-0.087420	0.045822	0.085635	-85.189452	-82.120131	28.554362
08032		9.628004	-1.099394	0.048803	-0.107822	0.049209	0.086958	-85.100019	-82.068225	28.401294
08033		9.676015	-1.084910	-0.035905	-0.127526	0.050790	0.094182	-85.019350	-82.011828	28.245636
08034		9.648561	-1.121364	-0.013574	-0.144019	0.056278	0.097052	-84.928899	-81.953768	28.070556
08035		9.665699	-1.214239	-0.042501	-0.137519	0.046577	0.098065	-84.875620	-81.895310	27.936735
08036		9.697943	-1.301581	-0.041354	-0.108284	0.049337	0.103544	-84.798359	-81.833865	27.795611
08037		9.649865	-1.377600	-0.040842	-0.081613	0.052638	0.103095	-84.693972	-81.772169	27.642477
08038		9.642098	-1.376123	0.003367	-0.063311	0.051586	0.106139	-84.586757	-81.709058	27.497077
08039		9.671114	-1.375252	0.068492	-0.055463	0.053359	0.111837	-84.471787	-81.642254	27.348340
08040		9.704976	-1.295410	0.097149	-0.040425	0.056358	0.119909	-84.342364	-81.570943	27.193695
08041		9.666454	-1.353815	0.109751	-0.050059	0.061656	0.124780	-84.202013	-81.496190	27.022374
08042		9.602425	-1.390610	0.052930	-0.055921	0.063892	0.126470	-84.060432	-81.420598	26.846397
08043		9.568851	-1.415911	0.057035	-0.055258	0.063589	0.121378	-83.919857	-81.347544	26.671768
08044		9.573466	-1.439175	0.022019	-0.058383	0.061581	0.124630	-83.793003	-81.273019	26.509195
08045		9.581540	-1.478791	0.066345	-0.057222	0.065493	0.127229	-83.654092	-81.196392	26.335042
08046		9.580696	-1.535500	0.040329	-0.053140	0.069464	0.127708	-83.501863	-81.119491	26.149758
08047		9.599822	-1.600551	0.064696	-0.030548	0.068630	0.126878	-83.341729	-81.042719	25.969521
08048		9.619326	-1.618844	0.061279	-0.025096	0.070469	0.128141	-83.175979	-80.965337	25.786732
08049		9.601057	-1.592205	0.068747	-0.020173	0.068914	0.130140	-83.016128	-80.886533	25.612724
08050		9.677836	-1.573514	0.108698	-0.019882	0.073556	0.136391	-82.846117	-80.804070	25.428567
08051		9.618249	-1.624060	0.072058	-0.020266	0.066485	0.132762	-82.701765	-80.723798	25.270127
08052		9.601891	-1.594905	0.019131	-0.004012	0.055694	0.125216	-82.585299	-80.648843	25.149357
08053		9.685409	-1.587144	0.017787	0.021140	0.050978	0.124512	-82.471450	-80.574304	25.045812
08054		9.644870	-1.600926	0.062350	0.035527	0.061263	0.130051	-82.319558	-80.496096	24.912038
08055		9.637284	-1.555385	0.081333	0.052109	0.066270	0.135318	-82.145309	-80.414152	24.765191
08056		9.647474	-1.546874	0.040090	0.071801	0.067648	0.134092	-81.958268	-80.333015	24.616781
08057		9.642700	-1.517644	0.139178	0.089903	0.066829	0.135777	-81.766308	-80.250610	24.473863
08058		9.698026	-1.493773	0.190457	0.093263	0.071037	0.141404	-81.565124	-80.164891	24.323505
08059		9.665119	-1.473458	0.169183	0.089790	0.075565	0.144980	-81.355116	-80.076361	24.162128
08060		9.689818	-1.416637	0.191450	0.067797	0.082674	0.152364	-81.142737	-79.983253	23.985508
08061		9.687484	-1.431276	0.200461	0.053559	0.085518	0.152291	-80.932078	-79.889495	23.802295
08062		9.643683	-1.386388	0.200135	0.036740	0.089805	0.154691	-80.723288	-79.794222	23.611143
08063		9.653694	-1.335863	0.191960	0.032650	0.088580	0.161586	-80.527017	-79.694696	23.430267
08064		9.582241	-1.318416	0.209309	0.024567	0.088549	0.172754	-80.345773	-79.589144	23.259909
08065		9.568730	-1.309813	0.238655	0.023712	0.092010	0.183781	-80.162960	-79.476546	23.087389
08066		9.572095	-1.250708	0.270109	0.029421	0.082365	0.201384	-80.019776	-79.355301	22.958459
08067		9.622734	-1.220871	0.302379	0.032426	0.085790	0.226549	-79.880266	-79.219032	22.834953
08068		9.635345	-1.221005	0.201884	0.052351	0.067460	0.252485	-79.800680	-79.070423	22.784047
08069		9.728768	-1.210253	0.214503	0.092461	0.065275	0.281644	-79.720740	-78.905103	22.756147
08070		9.819120	-1.171699	0.069516	0.133485	0.081870	0.312960	-79.589017	-78.720956	22.699430
08071		9.899076	-1.099078	0.196439	0.202016	0.089421	0.343956	-79.415652	-78.517989	22.640226
08072		9.933341	-1.030698	0.152486	0.280249	0.088240	0.397263	-79.233206	-78.285718	22.617494
08073		9.867124	-0.839487	0.096863	0.353282	0.086146	0.451299	-79.045680	-78.022633	22.632276
08074		9.729148	-0.515437	0.147849	0.408669	0.065418	0.514303	-78.916571	-77.727122	22.739321
08075		9.649247	-0.147061	0.218242	0.398489	0.063382	0.584616	-78.832764	-77.391621	22.886873
08076		9.661571	0.127474	0.238856	0.347230	0.062437	0.631916	-78.801903	-77.030566	23.058858
08077		9.879423	0.214163	0.367810	0.300638	0.096002	0.658840	-78.725836	-76.649774	23.157205
08078		9.925928	0.332369	0.788980	0.220195	0.096856	0.684561	-78.704822	-76.255577	23.265012
08079		10.004185	0.049404	0.640847	0.093403	0.070672	0.717354	-78.825437	-75.844728	23.443998
08080		10.172563	-0.226337	0.365793	-0.055038	0.042753	0.741111	-79.092112	-75.424801	23.686414
08081		10.485915	-0.353961	0.495475	-0.134997	0.025869	0.779557	-79.440251	-74.983354	23.966053
08082		10.629107	-0.482266	0.685972	-0.226216	0.047465	0.837320	-79.799466	-74.508272	24.203752
08083		10.544294	-0.994565	0.713518	-0.324028	0.055008	0.898720	-80.202430	-73.995809	24.429094
08084		10.538482	-1.796090	0.562677	-0.375685	0.094744	0.951785	-80.556407	-73.450945	24.573352
08085		10.545651	-2.287291	0.353416	-0.363501	0.097115	0.975329	-80.890593	-72.890544	24.704457
08086		11.014674	-2.108136	-0.129820	-0.203503	0.105916	1.002201	-81.111784	-72.315829	24.813814
08087		11.446981	-0.878669	-0.363173	-0.007751	0.136785	1.064463	-81.175922	-71.701204	24.876135
08088		11.271846	-0.551374	0.050292	0.117629	0.172128	1.149866	-81.128819	-71.037164	24.897303
08089		10.585055	-0.988530	0.663312	0.135063	0.153378	1.187092	-81.111675	-70.351660	24.960687
08090		10.293014	-0.756691	0.292403	-0.057488	0.080692	1.214995	-81.319333	-69.659000	25.146391
08091		10.661373	-0.868076	-0.404195	-0.236880	0.100757	1.219257	-81.586616	-68.959642	25.286567
08092		10.801553	-1.629559	-0.161375	-0.232203	0.139871	1.236449	-81.786348	-68.249693	25.357984
08093		10.963327	-2.320414	0.075283	-0.161232	0.140698	1.274077	-81.943832	-67.515666	25.427802
08094		10.840389	-3.174584	-0.026754	-0.161362	0.184645	1.307356	-82.042507	-66.761989	25.434346
08095		10.371705	-3.917820	0.289635	-0.047794	0.157122	1.298161	-82.107328	-66.012905	25.474742
08096		9.874540	-4.463993	0.675906	0.046381	0.115301	1.261540	-82.161589	-65.290736	25.563244
08097		9.233450	-4.737835	0.822281	0.069514	0.056457	1.197046	-82.258482	-64.606833	25.713695
08098		8.973390	-5.190781	0.308844	0.004579	0.010449	1.137623	-82.430325	-63.962856	25.907100
08099		8.710419	-4.840607	-0.303037	-0.019206	-0.032638	1.089479	-82.648504	-63.346336	26.137812
08100		8.601820	-4.455049	-0.780902	-0.113647	-0.087626	1.039686	-82.964720	-62.764329	26.419189
08101		8.792549	-4.015072	-0.501013	-0.077717	-0.093114	0.947359	-83.241967	-62.231831	26.681078
08102		8.579922	-3.779749	-0.261232	-0.125281	-0.051991	0.820603	-83.478051	-61.770952	26.866779
08103		8.150198	-3.769451	0.194226	-0.128520	0.019979	0.661092	-83.614927	-61.393233	26.938203
08104		7.600898	-4.482132	0.747555	-0.126000	0.087067	0.485138	-83.659218	-61.114175	26.905969
08105		7.165519	-4.674850	0.856500	-0.168399	0.131288	0.316146	-83.662290	-60.925778	26.798703
08106		7.227395	-4.542951	0.239662	-0.364037	0.079420	0.171897	-83.815113	-60.825558	26.734478
08107		7.780523	-4.230475	0.243568	-0.359167	-0.007440	0.005379	-84.034498	-60.822871	26.749568
08108		8.408230	-3.768760	0.655242	-0.257599	-0.038790	-0.157949	-84.211326	-60.917755	26.782621
08109		8.313463	-3.340720	1.095800	-0.272985	-0.002142	-0.335980	-84.340743	-61.109330	26.751281
08110		7.809253	-3.412442	1.354407	-0.368239	0.020652	-0.501329	-84.485442	-61.396692	26.675305
08111		7.491864	-3.943547	1.387096	-0.465731	-0.003999	-0.661342	-84.696059	-61.774036	26.610896
08112		7.556183	-4.377120	1.060515	-0.513663	-0.035076	-0.811105	-84.955277	-62.241312	26.570854
08113		7.670638	-4.654602	0.806674	-0.462831	-0.049077	-0.955150	-85.189738	-62.788836	26.535747
08114		7.728703	-4.611462	0.914322	-0.286955	-0.060700	-1.100363	-85.325969	-63.422549	26.503875
08115		7.655258	-4.445141	1.113620	-0.165359	-0.079349	-1.241601	-85.402061	-64.135138	26.482613
08116		7.646540	-4.503973	1.287601	-0.106807	-0.102937	-1.373221	-85.461587	-64.926570	26.480526
08117		7.722656	-4.635532	1.273057	-0.040173	-0.123835	-1.480470	-85.499586	-65.777622	26.496545
08118		7.797995	-4.579275	1.088655	0.029914	-0.154274	-1.582427	-85.528250	-66.690737	26.546392
08119		7.887933	-4.371006	0.954435	0.147944	-0.192594	-1.680820	-85.533624	-67.659296	26.643732
08120		8.068979	-3.961245	1.059141	0.314132	-0.221391	-1.775138	-85.477577	-68.685377	26.777059
08121		8.198204	-3.434806	1.277952	0.444873	-0.239807	-1.871038	-85.365918	-69.764804	26.929804
08122		8.289841	-3.013065	1.437689	0.493770	-0.241646	-1.953241	-85.219901	-70.893640	27.075025
08123		8.339196	-2.696894	1.387935	0.488184	-0.239712	-2.031177	-85.063221	-72.064738	27.204333
08124		8.414339	-2.439207	1.344673	0.459943	-0.232262	-2.098642	-84.895838	-73.276317	27.304926
08125		8.540975	-2.205355	1.390495	0.468561	-0.240132	-2.155954	-84.725055	-74.518852	27.406164
08126		8.774179	-1.973372	1.437966	0.483185	-0.251168	-2.198334	-84.554419	-75.788464	27.515939
08127		8.936684	-1.749708	1.479583	0.459176	-0.249534	-2.230870	-84.382429	-77.074388	27.609225
08128		9.091451	-1.623842	1.596165	0.419310	-0.241699	-2.257385	-84.194983	-78.377281	27.663178
08129		9.300946	-1.527960	1.613418	0.356590	-0.220969	-2.279747	-83.959814	-79.689491	27.631327
08130		9.527011	-1.308116	1.464368	0.279479	-0.192521	-2.299182	-83.619691	-81.013196	27.448686
08131		9.691502	-1.072191	1.185803	0.162749	-0.136496	-2.294433	-83.032952	-82.327959	26.949545
08132		9.854491	-0.768908	1.011351	0.085636	-0.089589	-2.276347	-82.038198	-83.630085	25.996685
08133		10.012899	-0.367101	1.052015	0.022275	-0.034594	-2.252214	-80.271495	-84.908423	24.233623
08134		10.023945	0.002243	0.994796	-0.074544	0.030134	-2.223059	-76.893057	-86.156440	20.802154
08135		9.966385	0.401264	0.923648	-0.203705	0.088514	-2.186777	-69.889137	-87.345339	13.670041
08136		10.044030	0.422729	0.904228	-0.310976	0.145463	-2.143674	-52.026693	-88.394474	-4.382220
08137		10.200096	0.422519	0.822271	-0.419756	0.204438	-2.099892	-3.507199	-88.898592	-53.154254
08138		10.575136	0.463261	0.424983	-0.570971	0.273821	-2.045469	41.178539	-88.329661	-98.178624
08139		10.747761	0.527535	0.301530	-0.649001	0.354701	-1.966254	56.477251	-87.340712	-113.860096
08140		10.635867	0.490338	0.531366	-0.644814	0.402688	-1.885913	62.455897	-86.290418	-120.217868
08141		10.267414	0.551180	0.630609	-0.728508	0.443399	-1.805590	65.161834	-85.251146	-123.350039
08142		10.005525	0.237914	0.491174	-0.827245	0.453958	-1.732425	66.549639	-84.237809	-125.219763
08143		9.795350	0.279736	0.233095	-0.888805	0.480156	-1.663806	67.171852	-83.254479	-126.358393
08144		9.459804	0.085877	-0.029309	-0.919496	0.514541	-1.603754	67.323083	-82.292037	-127.042036
08145		9.269765	-0.147074	0.247388	-0.804680	0.526166	-1.553941	67.330995	-81.355692	-127.516232
08146		9.231065	-0.053723	0.189205	-0.731531	0.537264	-1.470603	67.188124	-80.458710	-127.796195
08147		9.220356	-0.159393	-0.038042	-0.691427	0.539127	-1.349792	66.903086	-79.627524	-127.909446
08148		9.322021	-0.072289	0.131903	-0.511560	0.489428	-1.223847	66.719036	-78.871840	-128.020653
08149		9.448365	0.347971	0.392715	-0.402441	0.454515	-1.118961	66.574014	-78.181449	-128.108389
08150		9.382258	0.659509	0.478676	-0.324022	0.434669	-1.034561	66.435929	-77.538025	-128.157271
08151		9.152824	0.772896	0.567482	-0.267693	0.400021	-0.958430	66.336681	-76.944502	-128.213203
08152		8.939186	0.638353	0.610945	-0.241470	0.358912	-0.881777	66.270176	-76.398848	-128.287287
08153		8.701110	0.374393	0.519322	-0.178411	0.325272	-0.800137	66.234140	-75.905619	-128.355889
08154		8.432270	0.163180	0.416884	-0.105122	0.273936	-0.711062	66.262759	-75.469268	-128.447859
08155		8.278894	0.053955	0.301328	-0.008374	0.202776	-0.622483	66.406538	-75.097416	-128.601909
08156		8.321030	0.149845	0.234077	0.103880	0.122233	-0.515263	66.672398	-74.798662	-128.815887
08157		8.404742	0.146075	0.392635	0.266365	0.033846	-0.401897	67.098417	-74.580688	-129.099786
08158		8.583007	0.322393	0.376096	0.394978	-0.019472	-0.283231	67.595242	-74.435336	-129.380841
08159		8.625616	0.515623	0.275589	0.468439	-0.068273	-0.173916	68.136099	-74.359154	-129.664165
08160		8.795263	0.810354	0.213380	0.487023	-0.104576	-0.079731	68.681796	-74.338977	-129.941450
08161		8.909582	0.956827	0.145266	0.458788	-0.113522	0.010123	69.162241	-74.369118	-130.167838
08162		8.989718	0.890817	0.180299	0.397289	-0.113156	0.104060	69.539874	-74.448141	-130.323948
08163		8.915925	0.695074	0.240693	0.356697	-0.127105	0.194850	69.859457	-74.579417	-130.443937
08164		8.781457	0.624171	-0.111087	0.293062	-0.153027	0.297971	70.122998	-74.770339	-130.543481
08165		9.002241	2.299173	-1.364876	0.122559	-0.334297	0.341450	70.626974	-75.020218	-130.993193
08166		10.378708	4.156946	-3.640821	-0.191744	-0.691910	0.177173	71.816813	-75.244530	-132.338277
08167		12.758072	4.304981	-0.617306	0.772523	-0.738124	-0.225368	73.947737	-75.246768	-134.084570
08168		13.109689	6.103564	3.338998	1.382988	-0.341442	-0.362554	75.669265	-75.097939	-135.045989
08169		11.899173	5.744084	2.326558	0.849970	-0.228614	-0.149840	76.719573	-75.046840	-135.629411
08170		10.655310	4.663365	1.805362	0.946284	-0.281434	0.143081	77.794953	-75.162353	-136.181441
08171		9.343794	5.524330	1.812757	0.755015	-0.456041	0.390830	79.041450	-75.435103	-137.023325
08172		9.257892	6.307092	1.770223	0.179359	-0.609159	0.596962	80.254868	-75.833936	-138.170110
08173		9.956667	6.282833	3.340429	-0.222700	-0.542383	0.657176	81.126635	-76.256607	-139.200293
08174		10.449489	5.742713	4.587964	-0.698085	-0.342442	0.619838	81.316173	-76.636719	-139.806988
08175		10.190661	4.231649	3.199029	-1.334557	-0.167537	0.585415	80.743954	-76.983794	-140.005062
08176		9.830793	3.190499	1.433085	-1.596865	-0.099035	0.567205	79.843125	-77.312649	-140.019875
08177		9.991922	2.611545	0.304189	-1.629031	-0.090005	0.610376	78.858432	-77.666744	-139.967735
08178		10.366808	2.392062	0.122445	-1.483365	-0.165225	0.728061	78.061293	-78.093381	-140.022041
08179		10.943189	2.307205	-0.903064	-1.614784	-0.210149	0.841661	77.218122	-78.591159	-140.106237
08180		10.932376	1.727700	-1.562287	-1.426697	-0.217842	0.875957	76.447883	-79.107358	-140.154654
08181		10.216291	1.186331	-2.245054	-1.121545	-0.246291	0.833284	75.941669	-79.605690	-140.293856
08182		9.729437	0.136425	-3.141921	-0.866692	-0.319115	0.817903	75.809715	-80.104003	-140.664541
08183		9.765100	-0.495351	-3.015955	-0.523488	-0.429543	0.877371	76.216665	-80.652315	-141.381936
08184		9.790895	-1.425230	-2.327590	-0.381196	-0.478366	0.919387	76.918746	-81.227825	-142.314292
08185		10.176668	-3.292929	-0.960301	0.102255	-0.539271	0.937785	78.244015	-81.820001	-143.595369
08186		10.719779	-3.429216	-0.279356	0.536643	-0.616657	1.029847	80.289994	-82.465349	-145.350601
08187		10.926441	-4.252168	-0.478129	0.860345	-0.696436	1.080908	83.227594	-83.136377	-147.815056
08188		10.572166	-3.854376	0.487140	1.423307	-0.732827	1.064173	87.275185	-83.778979	-151.068616
08189		9.933802	-2.144475	1.042852	1.533681	-0.713553	1.045328	92.091710	-84.380891	-155.027861
08190		9.877496	-0.292616	0.863909	1.222665	-0.637891	1.006613	97.213591	-84.926401	-159.468855
08191		9.867037	1.369201	1.189534	0.814115	-0.480664	0.957488	102.015008	-85.421554	-163.819605
08192		9.505670	2.493215	1.280110	0.279119	-0.379235	0.912517	106.676577	-85.874114	-168.334638
08193		9.154874	2.697840	0.333266	-0.272393	-0.366484	0.878463	111.875091	-86.279780	-173.702169
08194		9.179583	2.598876	-0.523290	-0.675907	-0.350234	0.812558	117.602120	-86.618074	-179.828584
08195		9.372841	1.771926	-0.850600	-0.936914	-0.340936	0.724118	123.794254	-86.874444	173.431222
08196		9.490321	0.452332	-1.166036	-1.103118	-0.276503	0.630307	129.682545	-87.067779	166.901409
08197		9.209936	-0.995265	-1.547221	-1.139764	-0.289715	0.574163	135.971053	-87.194831	159.950756
08198		9.156633	-2.182655	-2.139560	-0.960969	-0.338929	0.542000	142.919968	-87.247288	152.442053
08199		9.160282	-2.662081	-2.004669	-0.534121	-0.398541	0.529037	150.496042	-87.220624	144.550362
08200		9.400537	-2.389491	-1.348310	-0.014511	-0.470288	0.522392	158.314376	-87.104251	136.713733
08201		9.710362	-1.450606	-1.160133	0.260238	-0.481904	0.520295	165.573872	-86.931283	129.593312
08202		9.865130	-0.332781	-0.735170	0.404133	-0.486849	0.531300	172.173652	-86.713312	123.214888
08203		10.072260	0.884573	-0.626967	0.363629	-0.448938	0.557615	178.114143	-86.481042	117.472225
08204		10.752951	0.826517	-0.128020	0.618161	-0.295354	0.594150	-176.173078	-86.303069	112.102587
08205		8.926450	3.654560	1.187997	0.391289	-0.234354	0.564892	-171.302642	-86.131360	107.445793
08206		9.854981	0.601724	-4.407017	-1.074648	-0.448791	0.562583	-168.071097	-85.817819	103.588616
08207		9.531991	1.645947	0.935556	-0.155360	-0.282712	0.530593	-164.738883	-85.586037	100.157329
08208		9.827995	0.558063	-1.794970	-0.876241	-0.269657	0.540860	-162.062403	-85.346681	96.968426
08209		9.574287	-0.713960	-2.023037	-0.760212	-0.173485	0.520052	-159.512709	-85.151965	93.972457
08210		9.659752	-1.784322	-1.466932	-0.542045	-0.213485	0.501286	-157.277497	-84.929751	91.416704
08211		9.732534	-2.224223	-1.628784	-0.336469	-0.188649	0.488341	-155.134974	-84.715242	89.071414
08212		9.579387	-2.241240	-1.457573	-0.184819	-0.234984	0.464561	-153.338297	-84.475539	87.159929
08213		9.737669	-1.958745	-1.285910	0.011348	-0.228044	0.447216	-151.652306	-84.238663	85.471842
08214		9.678009	-1.334209	-1.066957	0.154737	-0.211476	0.441356	-150.004503	-84.006815	83.904028
08215		9.766911	-0.820907	-1.022357	0.163718	-0.210243	0.438082	-148.481930	-83.772353	82.466675
08216		9.785524	-0.418605	-1.086242	0.112895	-0.174166	0.423626	-147.059646	-83.555740	81.100294
08217		9.756041	-0.181012	-1.105172	0.022091	-0.131561	0.413041	-145.703600	-83.359422	79.747679
08218		9.669099	-0.122434	-1.234152	-0.107832	-0.109511	0.392915	-144.517930	-83.176504	78.491124
08219		9.600687	-0.449500	-1.246608	-0.167380	-0.098445	0.378218	-143.452737	-83.000998	77.321108
08220		9.540940	-0.794957	-1.285094	-0.146288	-0.105575	0.360371	-142.516736	-82.825773	76.292995
08221		9.733383	-0.876153	-1.290730	-0.084512	-0.120374	0.354844	-141.650938	-82.644012	75.370952
08222		9.765608	-1.071796	-1.154568	-0.062128	-0.105602	0.354823	-140.777302	-82.466906	74.453539
08223		9.742772	-1.107408	-1.194965	-0.035223	-0.105231	0.355120	-139.925788	-82.288284	73.573649
08224		9.700077	-1.109486	-1.083515	0.005367	-0.102599	0.361294	-139.066048	-82.106567	72.708524
08225		9.547718	-1.126550	-0.864096	0.034094	-0.103000	0.362554	-138.224415	-81.922695	71.877952
08226		9.498743	-0.985598	-0.895414	0.042425	-0.105423	0.364776	-137.417067	-81.735073	71.086423
08227		9.476490	-0.771991	-1.045951	0.028903	-0.091674	0.369992	-136.600254	-81.549822	70.277156
08228		9.499533	-0.780802	-1.112080	-0.033139	-0.082437	0.373772	-135.820688	-81.365061	69.469185
08229		9.506894	-1.126549	-1.256734	-0.077793	-0.081630	0.364996	-135.119003	-81.182828	68.713764
08230		9.584587	-1.293521	-1.473218	-0.076283	-0.085863	0.347915	-134.501925	-81.004315	68.044449
08231		9.636057	-1.458472	-1.350503	-0.029806	-0.079747	0.340449	-133.884592	-80.830411	67.401557
08232		9.628808	-1.579181	-1.192061	0.019219	-0.065524	0.337088	-133.236499	-80.662167	66.755605
08233		9.658733	-1.610692	-1.138617	0.083047	-0.063538	0.340748	-132.559961	-80.492211	66.117621
08234		9.609849	-1.419952	-1.042164	0.114358	-0.062186	0.343789	-131.880037	-80.319992	65.494029
08235		9.520881	-1.175835	-0.983211	0.122662	-0.076658	0.355106	-131.227991	-80.136490	64.903272
08236		9.663359	-0.850793	-1.048749	0.098590	-0.071640	0.357990	-130.595323	-79.952247	64.317807
08237		9.626000	-0.889740	-1.297296	0.055271	-0.056507	0.357521	-129.971936	-79.772977	63.716277
08238		9.631091	-0.856417	-1.309444	0.059540	-0.057815	0.349309	-129.388182	-79.595515	63.157127
08239		9.747481	-1.091578	-1.242260	-0.004836	-0.048207	0.343411	-128.847037	-79.423400	62.603538
08240		9.724267	-1.217792	-1.151975	0.025076	-0.045013	0.345871	-128.295923	-79.250169	62.056875
08241		9.727338	-1.134133	-1.182841	0.051662	-0.037680	0.366038	-127.691595	-79.069606	61.471278
08242		9.663167	-1.022597	-1.190925	0.045864	-0.017222	0.382116	-127.035702	-78.887458	60.829346
08243		9.577413	-1.040407	-1.283088	0.041072	0.000914	0.390282	-126.345974	-78.706510	60.149780
08244		9.410013	-1.373009	-1.157796	0.015141	-0.004887	0.387766	-125.711875	-78.523123	59.511313
08245		9.466656	-1.568156	-1.236502	0.008518	-0.017631	0.379606	-125.141736	-78.338133	58.933902
08246		9.534655	-1.798811	-1.140806	-0.012343	-0.019735	0.373802	-124.616930	-78.153957	58.390137
08247		9.459368	-2.042239	-1.222391	0.004089	-0.041596	0.363381	-124.161713	-77.966817	57.926819
08248		9.459897	-1.902516	-1.231842	0.045117	-0.047876	0.356328	-123.723111	-77.780136	57.504148
08249		9.494227	-1.801640	-1.220958	0.063339	-0.050824	0.357774	-123.289733	-77.591301	57.097278
08250		9.470488	-1.739985	-1.336256	0.076430	-0.052109	0.357690	-122.866018	-77.401311	56.707622
08251		9.519990	-1.879839	-1.395709	0.087242	-0.052810	0.361801	-122.442483	-77.208650	56.324281
08252		9.464143	-1.833350	-1.367963	0.106495	-0.042436	0.376653	-121.980176	-77.011155	55.912107
08253		9.420594	-1.821830	-1.306320	0.137612	-0.043589	0.387726	-121.499811	-76.807321	55.499443
08254		9.470951	-1.713094	-1.465623	0.157626	-0.044223	0.394859	-121.015746	-76.598869	55.094328
08255		9.573934	-1.702381	-1.453753	0.186787	-0.033660	0.393843	-120.506684	-76.393366	54.680424
08256		9.683350	-1.816707	-1.283692	0.187564	-0.048605	0.391626	-120.045368	-76.183687	54.315669
08257		9.731236	-2.076002	-1.239722	0.196753	-0.044059	0.391397	-119.580555	-75.974867	53.952499
08258		9.679397	-2.149773	-1.151775	0.203972	-0.044696	0.387970	-119.130512	-75.766756	53.608400
08259		9.610565	-2.227951	-1.134160	0.209912	-0.036574	0.384743	-118.674327	-75.561984	53.261255
08260		9.617785	-2.205534	-1.183240	0.203322	-0.031447	0.374773	-118.235202	-75.362840	52.927421
08261		9.552293	-2.236957	-1.228018	0.148337	-0.029644	0.373137	-117.834226	-75.164526	52.600253
08262		9.502087	-2.319220	-1.365490	0.171322	-0.041489	0.375493	-117.451457	-74.961178	52.305154
08263		9.537751	-2.151256	-1.208375	0.233272	-0.061900	0.392988	-117.062229	-74.743178	52.039946
08264		9.617659	-1.946991	-0.956902	0.298742	-0.076839	0.420401	-116.648616	-74.506696	51.787958
08265		9.642465	-1.566891	-0.934621	0.368142	-0.083023	0.448626	-116.189690	-74.253773	51.530015
08266		9.621436	-1.576180	-1.071771	0.246838	-0.073362	0.463448	-115.782217	-73.995063	51.252878
08267		9.546741	-1.828336	-1.116130	0.202082	-0.058368	0.462534	-115.383582	-73.740065	50.957995
08268		9.583278	-2.217794	-1.048559	0.176771	-0.051646	0.466018	-114.996923	-73.484353	50.659990
08269		9.583424	-2.504422	-1.182794	0.203990	-0.062615	0.480059	-114.611386	-73.218130	50.379136
08270		9.633887	-2.385766	-1.038008	0.227170	-0.075286	0.501312	-114.229767	-72.937318	50.115748
08271		9.803225	-2.116479	-0.987682	0.270658	-0.082171	0.515057	-113.833582	-72.647156	49.862901
08272		10.028625	-1.789646	-1.033483	0.252313	-0.073919	0.533003	-113.433304	-72.349038	49.594228
08273		10.048134	-1.617918	-1.031077	0.218778	-0.061753	0.547226	-113.031936	-72.045539	49.303888
08274		9.866654	-1.793508	-1.274257	0.112713	-0.043050	0.566326	-112.660909	-71.735713	48.980924
08275		9.637283	-2.193404	-1.306732	0.098854	-0.027110	0.579206	-112.274268	-71.421708	48.632656
08276		9.418533	-2.509644	-1.365892	0.072132	-0.018859	0.590401	-111.896627	-71.103079	48.276968
08277		9.384623	-2.726994	-1.481485	0.090452	-0.026790	0.601128	-111.524788	-70.776046	47.937947
08278		9.391534	-2.817896	-1.517987	0.144429	-0.032673	0.615151	-111.136287	-70.439870	47.613244
08279		9.319371	-2.810261	-1.643452	0.188095	-0.027593	0.630455	-110.717247	-70.095494	47.282111
08280		9.395015	-2.729258	-1.593140	0.216846	-0.024997	0.636146	-110.289206	-69.748078	46.958073
08281		9.297943	-3.002256	-1.565631	0.218630	-0.004787	0.643928	-109.838058	-69.399289	46.609877
08282		9.288852	-3.026120	-1.523013	0.240540	0.002528	0.651260	-109.375240	-69.047322	46.261672
08283		9.278519	-3.019447	-1.312957	0.231307	0.016971	0.655869	-108.906971	-68.694246	45.901283
08284		9.367327	-2.991954	-1.206285	0.195780	0.023791	0.661504	-108.461935	-68.338695	45.542952
08285		9.344855	-2.949970	-1.232924	0.165545	0.030595	0.667688	-108.033363	-67.979649	45.182971
08286		9.379873	-2.798465	-1.065696	0.120247	0.038827	0.674053	-107.631028	-67.618017	44.822207
08287		9.353337	-2.959797	-1.284424	0.084746	0.042270	0.685204	-107.250233	-67.249551	44.461967
08288		9.363796	-2.905641	-1.371837	0.096611	0.063342	0.705229	-106.841054	-66.873180	44.077127
08289		9.622347	-2.941144	-1.210507	0.071743	0.076406	0.728178	-106.431902	-66.484817	43.675880
08290		9.855268	-3.266339	-0.905435	0.127630	0.084784	0.746910	-105.988474	-66.086864	43.270781
08291		9.830951	-3.308872	-0.726456	0.190401	0.073561	0.755415	-105.532307	-65.680656	42.890057
08292		9.800713	-3.343828	-0.705987	0.177717	0.094176	0.775404	-105.067071	-65.265912	42.489962
08293		9.701460	-3.422367	-0.846857	0.216625	0.122409	0.796832	-104.552283	-64.841390	42.058631
08294		9.567399	-3.678466	-1.077586	0.231167	0.148950	0.803422	-104.013245	-64.416023	41.608008
08295		9.523156	-3.771661	-1.066231	0.255362	0.138434	0.792626	-103.489970	-63.992738	41.188859
08296		9.634341	-3.714580	-1.201429	0.246661	0.137530	0.783003	-102.991279	-63.573868	40.789878
08297		9.523429	-3.828964	-1.172590	0.181049	0.131725	0.776917	-102.550228	-63.155452	40.412045
08298		9.391642	-3.930823	-1.234027	0.206422	0.117420	0.769808	-102.125618	-62.738839	40.067420
08299		9.253122	-3.707651	-1.265026	0.205702	0.105388	0.768388	-101.724637	-62.319632	39.747845
08300		9.086481	-3.774097	-1.262731	0.209227	0.115790	0.772876	-101.321557	-61.898978	39.426754
08301		9.023938	-3.840153	-1.202651	0.213736	0.108618	0.781157	-100.930785	-61.470936	39.121502
08302		8.921623	-3.842279	-1.214508	0.238191	0.099839	0.787132	-100.545277	-61.038595	38.836774
08303		8.891953	-3.924908	-1.237594	0.248872	0.096008	0.793967	-100.164538	-60.600123	38.563531
08304		8.761122	-4.067742	-1.144909	0.281084	0.088168	0.802719	-99.782384	-60.156099	38.308470
08305		8.661795	-4.156953	-1.005309	0.336172	0.077444	0.808449	-99.386017	-59.705923	38.072547
08306		8.525289	-4.187716	-0.876574	0.425990	0.068528	0.818154	-98.955815	-59.249699	37.855743
08307		8.509863	-4.287184	-0.742444	0.537172	0.082105	0.827960	-98.455885	-58.787118	37.631127
08308		8.389641	-4.376903	-0.561667	0.590994	0.076237	0.838586	-97.940696	-58.318178	37.423404
08309		8.406609	-4.486457	-0.300078	0.685611	0.089830	0.845091	-97.367188	-57.844415	37.210044
08310		8.368375	-4.627969	-0.127370	0.698121	0.082103	0.858758	-96.803909	-57.362442	37.015916
08311		8.330240	-4.672764	0.096640	0.773104	0.098462	0.868494	-96.191750	-56.873736	36.813938
08312		8.088131	-4.553328	0.134466	0.728503	0.096560	0.875527	-95.618110	-56.381052	36.626128
08313		7.911762	-4.578757	0.236671	0.609506	0.112705	0.874701	-95.107763	-55.887492	36.431579
08314		7.815698	-4.714674	0.278944	0.541269	0.133723	0.878402	-94.628875	-55.393227	36.226451
08315		7.785948	-4.862045	0.220347	0.477042	0.157612	0.875100	-94.175337	-54.899665	36.006335
08316		7.790348	-4.996757	0.140768	0.390726	0.155391	0.859750	-93.783119	-54.415216	35.799289
08317		7.689939	-5.129381	0.177510	0.303028	0.170974	0.852208	-93.435700	-53.933532	35.584421
08318		7.316171	-5.204052	0.112496	0.253493	0.177581	0.841507	-93.119533	-53.458838	35.371686
08319		6.997638	-5.244538	-0.084241	0.198084	0.171585	0.844640	-92.845119	-52.980156	35.170247
08320		6.977244	-5.245310	-0.169993	0.165562	0.168127	0.851040	-92.597995	-52.498543	34.978305
08321		7.204550	-5.039760	-0.077312	0.156704	0.144519	0.852691	-92.377920	-52.013556	34.813008
08322		7.559436	-4.966158	-0.009890	0.103356	0.135195	0.859311	-92.199986	-51.525601	34.661251
08323		7.905040	-5.242879	0.163514	0.053120	0.145863	0.856476	-92.046548	-51.037842	34.503063
08324		8.032753	-5.830742	0.141068	-0.019714	0.137192	0.849133	-91.945074	-50.555341	34.356925
08325		7.911802	-6.638975	0.043122	-0.050706	0.132929	0.827680	-91.867103	-50.083453	34.217318
08326		7.485590	-7.323339	-0.158341	-0.007342	0.108275	0.804875	-91.784512	-49.625511	34.103171
08327		7.216704	-7.626283	-0.359023	0.119017	0.101329	0.781278	-91.636653	-49.179356	33.997693
08328		6.982660	-7.793250	-0.416063	0.225205	0.104741	0.771083	-91.429153	-48.740252	33.893040
08329		6.842037	-7.695128	-0.223465	0.372130	0.107661	0.753224	-91.138772	-48.309750	33.789488
08330		6.774648	-7.229626	-0.171366	0.492192	0.083301	0.752346	-90.799399	-47.880396	33.711752
08331		6.807309	-6.762227	-0.284604	0.565432	0.090568	0.735474	-90.417008	-47.459181	33.632159
08332		6.803050	-6.591655	-0.256747	0.537904	0.092413	0.719173	-90.053546	-47.048159	33.556218
08333		6.784467	-6.623266	0.164302	0.517765	0.091154	0.700855	-89.705453	-46.646130	33.485138
08334		6.708036	-6.793331	0.322353	0.486491	0.092930	0.680764	-89.377750	-46.256488	33.416881
08335		6.525554	-7.165975	0.137154	0.442769	0.086080	0.652922	-89.081391	-45.881434	33.357045
08336		6.281771	-8.158137	0.143770	0.411561	0.082922	0.595801	-88.806999	-45.540049	33.302436
08337		5.928491	-8.873735	0.321797	0.463291	0.072618	0.549277	-88.510098	-45.224149	33.257656
08338		5.619614	-9.017129	0.006550	0.584500	0.069822	0.496521	-88.147013	-44.939287	33.217112
08339		5.449953	-8.670043	-0.272498	0.742303	0.056868	0.471045	-87.702252	-44.668131	33.188911
08340		5.428347	-7.940673	0.025112	0.849548	0.040938	0.454692	-87.207408	-44.407333	33.176575
08341		5.599814	-6.960478	0.359758	0.868855	-0.016810	0.430790	-86.734826	-44.161145	33.212115
08342		5.981246	-5.749445	0.705199	0.678942	-0.056952	0.404557	-86.394320	-43.932156	33.281031
08343		6.522684	-5.062009	0.644089	0.438819	-0.068037	0.415672	-86.198073	-43.696824	33.360122
08344		6.816995	-5.113833	0.648007	0.137670	-0.012109	0.418926	-86.144503	-43.458306	33.396021
08345		6.505127	-6.010408	0.698638	-0.193495	0.065445	0.388519	-86.237062	-43.233521	33.368738
08346		5.880947	-7.225174	0.820694	-0.372682	0.067741	0.347681	-86.429628	-43.032823	33.337287
08347		5.615961	-7.971221	0.474396	-0.392831	0.004876	0.345092	-86.666198	-42.835093	33.353543
08348		5.988346	-8.544784	-0.299615	-0.247761	0.012013	0.342918	-86.815452	-42.639014	33.363507
08349		6.225338	-8.584054	-0.346815	0.034163	0.055153	0.336967	-86.779797	-42.444272	33.339100
08350		6.272612	-8.022952	0.103593	0.291699	0.036788	0.330265	-86.606815	-42.254503	33.329531
08351		6.495776	-7.133812	0.454955	0.479871	-0.028492	0.362280	-86.361083	-42.048129	33.372436
08352		6.948773	-6.134995	0.543398	0.505409	-0.081933	0.432450	-86.131501	-41.804303	33.461315
08353		7.424874	-5.288613	0.476950	0.337888	-0.042008	0.458090	-85.978255	-41.543941	33.521367
08354		7.566820	-4.761173	0.596750	0.130761	-0.001516	0.459597	-85.923794	-41.281817	33.551402
08355		7.442415	-4.629681	1.133819	-0.082350	0.008887	0.441729	-85.985001	-41.028827	33.572071
08356		7.136659	-5.080830	1.302572	-0.302377	0.001181	0.397725	-86.174356	-40.802125	33.595833
08357		6.742750	-6.322614	1.027849	-0.370498	0.033369	0.329498	-86.383580	-40.612309	33.590501
08358		6.122914	-7.752615	0.660560	-0.329038	0.081390	0.223532	-86.542107	-40.482395	33.543613
08359		5.860465	-8.756594	-0.130072	-0.234815	0.079633	0.132773	-86.644473	-40.403545	33.493366
08360		6.076763	-9.119041	-0.821992	-0.051536	0.043410	0.110663	-86.659108	-40.339505	33.469596
08361		6.698242	-8.800823	-0.779963	0.244981	-0.044756	0.148418	-86.547506	-40.255935	33.513415
08362		7.517580	-7.769744	-0.387713	0.493975	-0.151041	0.240970	-86.347874	-40.124134	33.641723
08363		8.206528	-6.383051	-0.108055	0.575422	-0.234354	0.362353	-86.144884	-39.925574	33.838080
08364		8.871735	-5.048493	0.060659	0.433014	-0.237287	0.468655	-86.028297	-39.667733	34.042558
08365		9.147283	-4.011390	0.376749	0.088355	-0.171634	0.531123	-86.078598	-39.370738	34.200497
08366		8.944375	-3.583825	0.761689	-0.319632	-0.108709	0.560252	-86.332990	-39.055667	34.312228
08367		8.618329	-3.760090	0.875101	-0.685594	-0.107097	0.569767	-86.793676	-38.733282	34.419647
08368		8.456660	-4.615492	0.330475	-0.948086	-0.050021	0.564655	-87.375932	-38.413070	34.481368
08369		8.244766	-5.436442	-0.869571	-1.025603	0.075058	0.495616	-87.941429	-38.127333	34.444954
08370		7.908851	-5.777409	-1.689394	-1.034534	0.158774	0.439088	-88.472370	-37.874695	34.343648
08371		7.108850	-6.834312	-1.320799	-0.770480	0.109035	0.412918	-88.872271	-37.636426	34.275097
08372		6.670417	-7.648975	-0.315420	-0.390764	-0.113703	0.375448	-89.152265	-37.424256	34.366102
08373		7.377977	-7.853124	-0.694821	-0.443892	-0.367710	0.300069	-89.571308	-37.254352	34.636970
08374		8.563245	-7.716322	-1.601939	-0.268317	-0.406002	0.254974	-89.905275	-37.111139	34.934007
08375		8.763487	-7.341228	-1.378449	0.191023	-0.295359	0.287177	-89.926174	-36.946487	35.149753
08376		8.001495	-7.466553	-0.781608	0.352177	-0.302574	0.347256	-89.858008	-36.749838	35.371202
08377		7.160019	-8.086128	-0.920272	0.429502	-0.341574	0.382687	-89.760503	-36.530871	35.619464
08378		6.494792	-8.581475	-1.215278	0.547529	-0.388202	0.332896	-89.615260	-36.343449	35.901621
08379		5.848300	-8.800752	-1.414711	0.606950	-0.450618	0.193799	-89.460187	-36.234154	36.226470
08380		6.015864	-8.491100	-2.447122	0.824760	-0.391770	-0.036297	-89.155658	-36.259738	36.508961
08381		6.089346	-7.157663	-0.823653	1.115216	-0.277223	-0.235001	-88.634014	-36.397111	36.706300
08382		6.442118	-6.886488	2.063467	1.274023	-0.202056	-0.396918	-87.988639	-36.629965	36.846586
08383		6.282030	-5.897368	2.893636	1.164573	-0.055108	-0.652639	-87.336086	-37.004622	36.870415
08384		5.485336	-5.381789	2.787957	0.670684	-0.094018	-0.932546	-86.976293	-37.543215	36.909274
08385		5.116448	-5.434695	2.475690	0.368856	-0.143269	-1.171305	-86.802974	-38.217575	36.970512
08386		5.402315	-6.126103	0.815238	0.023104	-0.047506	-1.383709	-86.779577	-39.013003	36.952995
08387		5.875130	-7.407370	0.160149	0.154341	0.100683	-1.621689	-86.602251	-39.937080	36.812512
08388		5.864362	-7.807288	0.672282	0.279627	0.163909	-1.861895	-86.309530	-40.998376	36.607236
08389		6.144088	-7.310854	1.659585	0.081672	0.128281	-2.051777	-86.131794	-42.166377	36.409323
08390		6.935819	-6.347171	2.609441	-0.072890	0.149377	-2.121597	-86.021474	-43.375581	36.184418
08391		7.431667	-5.691951	3.183712	-0.299722	0.201292	-2.096087	-86.004766	-44.565457	35.912409
08392		7.359511	-6.173591	3.136828	-0.386105	0.261707	-2.134953	-85.993419	-45.777650	35.583851
08393		6.910355	-6.191953	2.188046	-0.213534	0.311687	-2.266219	-85.834712	-47.059913	35.195307
08394		6.579124	-5.952994	1.353152	-0.172049	0.296288	-2.425592	-85.636891	-48.435643	34.794508
08395		7.094226	-5.875665	1.274211	-0.203964	0.234692	-2.493522	-85.474388	-49.849468	34.424608
08396		8.135711	-5.795393	1.554070	-0.353286	0.223259	-2.444919	-85.390225	-51.238108	34.053189
08397		8.965551	-5.566659	1.644867	-0.578123	0.263228	-2.370040	-85.394493	-52.579402	33.637212
08398		9.312637	-4.735520	1.839236	-0.860130	0.338438	-2.345905	-85.489536	-53.906343	33.140591
08399		9.283740	-4.277913	1.659168	-1.128908	0.402317	-2.364452	-85.670874	-55.239139	32.568833
08400		9.283804	-4.565143	1.295485	-1.265353	0.448549	-2.398144	-85.871435	-56.593094	31.935629
08401		9.169796	-5.341576	0.666224	-1.376756	0.470777	-2.412567	-86.095681	-57.952946	31.264018
08402		9.116929	-6.402983	0.104173	-1.360493	0.465601	-2.413393	-86.292210	-59.317606	30.581351
08403		9.197923	-6.904013	0.088886	-1.196297	0.427933	-2.393090	-86.408029	-60.670182	29.923106
08404		9.206150	-7.140618	-0.195730	-1.055465	0.394252	-2.355989	-86.451205	-62.005898	29.283205
08405		9.123520	-6.846442	0.012283	-0.757608	0.391391	-2.296048	-86.297431	-63.304452	28.620950
08406		8.915305	-6.237091	0.152279	-0.540845	0.381578	-2.240502	-85.989903	-64.572914	27.933728
08407		8.890547	-5.857748	0.171994	-0.375425	0.340317	-2.228766	-85.587568	-65.831998	27.253146
08408		8.944926	-5.603149	0.351126	-0.193984	0.297189	-2.235930	-85.075333	-67.097217	26.573264
08409		8.783972	-5.307747	0.420982	-0.099000	0.259457	-2.231736	-84.494022	-68.357013	25.883373
08410		8.602208	-5.278352	0.356351	-0.058867	0.217193	-2.226309	-83.875293	-69.615554	25.184477
08411		8.531237	-5.305369	0.186476	0.000770	0.196887	-2.226547	-83.170267	-70.870380	24.435421
08412		8.484382	-5.229272	-0.054223	0.071034	0.197592	-2.241675	-82.316064	-72.132197	23.577622
08413		8.368000	-4.996928	0.052817	0.177560	0.203572	-2.280023	-81.249369	-73.408555	22.566953
08414		8.169072	-4.472615	0.303420	0.261949	0.202506	-2.327859	-79.943888	-74.707381	21.365361
08415		8.085329	-3.897573	0.486542	0.269991	0.194117	-2.371229	-78.404719	-76.021189	19.934126
08416		8.108680	-3.457481	0.548800	0.248134	0.176097	-2.410263	-76.592750	-77.349556	18.218231
08417		8.275906	-2.987468	0.570855	0.208581	0.144653	-2.437865	-74.464035	-78.681870	16.163981
08418		8.547890	-2.702409	0.487854	0.166411	0.114297	-2.453294	-71.883715	-80.010548	13.635483
08419		8.749697	-2.493081	0.441872	0.107750	0.100116	-2.459893	-68.612560	-81.318770	10.382798
08420		8.876294	-2.418394	0.580036	0.078773	0.076709	-2.455805	-64.319241	-82.594141	6.092561
08421		8.956516	-2.311891	0.502465	0.029018	0.048424	-2.447107	-58.485937	-83.814494	0.234708
08422		9.105184	-2.357514	0.328724	0.000551	0.034626	-2.434294	-50.056761	-84.940474	-8.234525
08423		9.221087	-2.404590	0.190207	0.033787	0.016332	-2.419689	-37.457328	-85.900087	-20.854552
08424		9.228485	-2.124702	-0.027478	0.074601	0.019918	-2.387467	-18.999407	-86.548051	-39.309030
08425		9.245944	-1.987233	-0.221225	0.106379	0.023669	-2.333377	3.751766	-86.718001	-62.037861
08426		9.462886	-1.798209	-0.163936	0.219912	0.030627	-2.277874	24.898141	-86.374702	-83.095782
08427		9.733323	-1.363398	-0.203691	0.300246	0.075124	-2.202230	40.079369	-85.657010	-98.141050
08428		9.867584	-0.958405	-0.281150	0.351898	0.111061	-2.112116	49.979527	-84.754224	-107.873449
08429		10.146457	-0.495032	-0.071176	0.416768	0.139331	-2.046375	56.579698	-83.767085	-114.266990
08430		10.227996	0.260675	0.201517	0.383789	0.165421	-1.971363	61.081960	-82.752006	-118.579255
08431		10.084156	0.818022	0.276909	0.245831	0.185308	-1.883334	64.190814	-81.746127	-121.574918
08432		9.895368	1.120730	0.547852	0.111423	0.198808	-1.786590	66.381918	-80.769364	-123.727400
08433		9.798993	1.413424	0.518461	-0.051009	0.213061	-1.680012	67.896553	-79.836295	-125.294013
08434		9.640260	1.699413	0.699358	-0.274287	0.227826	-1.549706	68.853597	-78.963519	-126.427824
08435		9.632693	1.572207	0.802244	-0.453730	0.205307	-1.388878	69.462122	-78.179270	-127.314298
08436		9.745547	1.376818	0.621484	-0.609840	0.235578	-1.245561	69.692647	-77.464109	-127.907882
08437		9.725055	1.057497	0.372872	-0.720228	0.279087	-1.132487	69.621500	-76.801424	-128.258623
08438		9.742427	0.679601	0.412108	-0.724127	0.306915	-1.050694	69.408661	-76.176766	-128.466739
08439		9.735842	0.418527	0.626655	-0.711601	0.322630	-0.958996	69.096928	-75.598769	-128.566147
08440		9.462614	0.292100	0.705393	-0.676537	0.294600	-0.846259	68.782977	-75.086616	-128.642633
08441		9.247753	0.165294	0.792396	-0.611690	0.225125	-0.719732	68.551599	-74.656916	-128.766440
08442		9.172859	0.310930	0.714903	-0.534879	0.181619	-0.597830	68.358481	-74.301276	-128.884439
08443		9.134857	0.522299	0.788492	-0.472562	0.149167	-0.458931	68.159390	-74.026736	-128.959372
08444		9.154934	0.657921	1.009083	-0.378735	0.109052	-0.345510	68.006045	-73.821106	-129.026013
08445		9.045452	0.943150	0.831931	-0.373511	0.092228	-0.246567	67.814222	-73.671708	-129.049559
08446		8.738576	1.075189	0.525417	-0.350646	0.068079	-0.159301	67.616294	-73.573952	-129.053090
08447		8.649736	1.157021	0.463465	-0.280195	0.022639	-0.064107	67.470448	-73.536444	-129.068849
08448		8.648366	1.066848	0.655361	-0.188436	-0.033784	0.038600	67.402230	-73.565906	-129.110733
08449		8.708849	0.876891	0.572952	-0.142060	-0.061205	0.128800	67.342136	-73.648914	-129.133374
08450		8.725001	0.444522	0.541480	-0.089176	-0.077074	0.213111	67.277241	-73.780336	-129.119454
08451		8.640730	0.043382	0.543467	-0.008666	-0.099548	0.279222	67.248287	-73.951335	-129.094919
08452		8.501450	-0.089392	0.525323	0.086655	-0.136420	0.335217	67.298587	-74.160591	-129.096081
08453		8.392804	0.021311	0.247924	0.122634	-0.188601	0.390956	67.425041	-74.410328	-129.154890
08454		8.394208	0.529933	-0.132166	0.223821	-0.276158	0.453636	67.732174	-74.713024	-129.340990
08455		9.341732	2.880643	-1.106575	0.239197	-0.483740	0.424316	68.494166	-75.043308	-129.988781
08456		11.117589	3.507103	-1.092986	0.628825	-0.701978	0.195939	70.134900	-75.292515	-131.313828
08457		12.943779	5.093628	2.837058	1.509546	-0.627897	-0.221524	72.462040	-75.288876	-132.826034
08458		12.711346	5.895326	3.494588	1.293301	-0.167140	-0.492008	73.867415	-75.048604	-133.513735
08459		11.182506	6.392865	3.636409	0.929767	0.122270	-0.348901	74.362159	-74.838265	-133.474847
08460		9.539898	5.939482	1.985574	0.248995	0.090908	-0.020129	74.340521	-74.814558	-133.305070
08461		9.098324	4.664128	0.307952	0.310565	-0.278189	0.318308	74.918685	-75.033744	-133.719994
08462		9.834682	4.708992	0.384813	0.291970	-0.484912	0.599604	75.785922	-75.437549	-134.444264
08463		10.374786	4.342167	0.324728	-0.054379	-0.391491	0.641211	76.268347	-75.849252	-134.974832
08464		10.139117	3.954987	1.684238	-0.258181	-0.138598	0.519451	76.155795	-76.158187	-135.011676
08465		9.323269	3.299127	2.132641	-0.576525	-0.006474	0.407547	75.617313	-76.386577	-134.797832
08466		8.811563	2.182185	1.282063	-0.704609	-0.024193	0.363268	75.060687	-76.592315	-134.640966
08467		8.643723	1.808342	0.764552	-0.512457	-0.123270	0.397094	74.816009	-76.831440	-134.691684
08468		8.909525	1.524612	0.306488	-0.347271	-0.234026	0.464871	74.886425	-77.124461	-134.968595
08469		9.237531	1.188045	-0.285825	-0.201824	-0.286386	0.517044	75.144959	-77.454125	-135.352595
08470		9.215911	1.585433	-0.388622	-0.050401	-0.326211	0.534328	75.599511	-77.798478	-135.847929
08471		9.376675	2.062075	-0.278225	-0.051325	-0.388990	0.515218	76.259527	-78.140035	-136.553262
08472		9.921820	2.842040	0.009723	-0.081079	-0.383689	0.506456	76.933996	-78.474171	-137.289852
08473		10.615577	3.726364	-0.064138	-0.257603	-0.374444	0.531283	77.505692	-78.819463	-138.023926
08474		11.006249	3.620375	0.239960	-0.342957	-0.355899	0.568226	77.992906	-79.181640	-138.720799
08475		10.964001	3.019622	0.266616	-0.535720	-0.312840	0.585506	78.266204	-79.547735	-139.311610
08476		10.549057	2.194897	0.187281	-0.679825	-0.264182	0.588418	78.332494	-79.909182	-139.775180
08477		9.972304	1.488748	0.475310	-0.754123	-0.265638	0.604768	78.368035	-80.280201	-140.250304
08478		9.831273	0.913923	1.027455	-0.756450	-0.337057	0.639062	78.644409	-80.678101	-140.970352
08479		9.964137	0.195916	1.376680	-0.760394	-0.357313	0.685835	79.002413	-81.104187	-141.774589
08480		9.931218	-0.435799	1.340839	-0.744891	-0.347081	0.705502	79.376144	-81.539185	-142.584760
08481		9.825323	-0.876975	0.851526	-0.746407	-0.325785	0.696376	79.733812	-81.966275	-143.378715
08482		9.582794	-1.007765	0.355329	-0.653141	-0.287031	0.660123	80.073323	-82.368251	-144.099589
08483		9.354760	-0.938376	-0.066027	-0.521549	-0.300571	0.625100	80.635040	-82.751031	-144.967860
08484		9.329261	-0.694891	-0.483205	-0.410795	-0.316838	0.575346	81.452289	-83.105850	-146.028989
08485		9.365039	-0.394218	-0.686604	-0.324955	-0.336750	0.539285	82.543641	-83.439454	-147.315802
08486		9.461794	0.036546	-1.048458	-0.346985	-0.359989	0.521524	83.879830	-83.761542	-148.860870
08487		9.548416	0.179859	-1.038262	-0.300772	-0.393415	0.510414	85.587311	-84.074100	-150.751737
08488		9.685683	-0.345235	-0.495802	-0.140216	-0.435808	0.489718	87.839593	-84.369483	-153.096705
08489		9.839730	-0.769271	-0.455609	0.012741	-0.442681	0.470926	90.471032	-84.643489	-155.733363
08490		9.794506	-1.136200	-0.851658	0.074706	-0.427627	0.444558	93.311829	-84.890798	-158.543508
08491		9.755517	-1.142688	-0.540352	0.295087	-0.434708	0.417089	96.584092	-85.107602	-161.658968
08492		9.690530	-0.612901	0.029769	0.437388	-0.453312	0.405945	100.341867	-85.300090	-165.178910
08493		9.862594	-0.134772	0.269420	0.433967	-0.463340	0.405145	104.454672	-85.469666	-169.056048
08494		10.059347	0.398327	0.371766	0.370506	-0.433709	0.411311	108.628869	-85.625145	-173.030411
08495		10.024429	0.597865	0.308733	0.258641	-0.398537	0.397248	112.715291	-85.756928	-176.980216
08496		9.970535	0.842467	-0.075940	0.077113	-0.353212	0.384237	116.570639	-85.872527	179.197964
08497		9.881856	0.795452	-0.411733	-0.079789	-0.308918	0.370406	120.161707	-85.974236	175.551541
08498		9.837871	0.623356	-0.532792	-0.172195	-0.288703	0.365336	123.715505	-86.063817	171.889787
08499		9.834860	0.437940	-0.786859	-0.223886	-0.271967	0.366390	127.275733	-86.142981	168.192320
08500		9.766993	0.209598	-0.945155	-0.212294	-0.269387	0.374617	131.018248	-86.211047	164.319096
08501		9.730916	0.078201	-1.037911	-0.123217	-0.277704	0.371152	134.953323	-86.256529	160.304338
08502		9.683049	0.078340	-1.047356	-0.004156	-0.280899	0.359065	138.983891	-86.277878	156.262367
08503		9.624884	0.104003	-1.133003	0.084482	-0.281021	0.350046	143.016837	-86.277040	152.268985
08504		9.587687	0.245684	-1.128758	0.181377	-0.289881	0.344338	147.096668	-86.252053	148.284169
08505		9.619159	0.433424	-1.049676	0.217516	-0.298158	0.348068	151.174537	-86.205505	144.321934
08506		9.644827	0.493872	-0.871385	0.248073	-0.286562	0.348245	155.126368	-86.146872	140.503303
08507		9.698829	0.582997	-0.749855	0.246007	-0.277921	0.351789	158.932978	-86.076479	136.828773
08508		9.794582	0.493705	-0.800124	0.192446	-0.254816	0.362466	162.601462	-86.004448	133.261609
08509		9.772000	0.364259	-0.859260	0.172733	-0.237787	0.371351	166.142132	-85.927960	129.810944
08510		9.785655	0.271772	-0.902108	0.157719	-0.225767	0.374114	169.548758	-85.843790	126.485690
08511		9.778792	0.273619	-0.886971	0.117377	-0.213514	0.374703	172.770329	-85.753190	123.322454
08512		9.815334	0.273567	-0.893589	0.039151	-0.205532	0.371308	175.785449	-85.654189	120.320908
08513		9.669581	0.173201	-0.865098	-0.011116	-0.192753	0.364508	178.568813	-85.551393	117.522521
08514		9.636012	-0.007407	-0.925519	-0.023046	-0.196094	0.372991	-178.717261	-85.436144	114.786511
08515		9.627365	-0.195690	-1.039373	0.029966	-0.200138	0.375597	-176.105260	-85.309057	112.182776
08516		9.679175	-0.192047	-1.014769	0.093448	-0.200691	0.378508	-173.572485	-85.171753	109.694542
08517		9.706527	-0.010336	-0.959544	0.100284	-0.180732	0.370410	-171.219081	-85.038210	107.389772
08518		9.725129	0.299234	-0.993568	0.032450	-0.167743	0.366347	-169.032071	-84.904195	105.212554
08519		9.753986	0.311515	-0.913351	-0.040566	-0.172845	0.364092	-167.028496	-84.761247	103.177046
08520		9.835704	0.097873	-0.953253	-0.107113	-0.165139	0.361296	-165.170544	-84.616315	101.249025
08521		9.729465	-0.129930	-1.123991	-0.116441	-0.136511	0.363400	-163.363837	-84.481793	99.366672
08522		9.546386	-0.415313	-0.964340	-0.050678	-0.140320	0.362890	-161.614224	-84.339197	97.579103
08523		9.528892	-0.501013	-0.844079	-0.008266	-0.150606	0.365838	-159.937860	-84.185952	95.889119
08524		9.668053	-0.471802	-0.867307	-0.012558	-0.145608	0.367032	-158.331000	-84.029734	94.266067
08525		9.661548	-0.359354	-0.817702	-0.053019	-0.169769	0.380416	-156.819731	-83.853961	92.715342
08526		9.773491	-0.273136	-1.055244	-0.064185	-0.179972	0.389788	-155.374877	-83.665860	91.224459
08527		9.770299	-0.302244	-1.271586	-0.037288	-0.127676	0.381292	-153.926890	-83.503550	89.745426
08528		9.500141	-0.175889	-0.945366	-0.047729	-0.137034	0.358999	-152.671946	-83.337669	88.454209
08529		9.554197	-0.279088	-0.945107	-0.121901	-0.161625	0.345359	-151.637716	-83.160738	87.342005
08530		9.546281	-0.561479	-1.013699	-0.152233	-0.174496	0.346788	-150.695948	-82.974059	86.305008
08531		9.709788	-0.835784	-1.226950	-0.196092	-0.168723	0.329569	-149.887178	-82.793924	85.376313
08532		9.523490	-1.379163	-1.390081	-0.113165	-0.148650	0.321293	-149.057275	-82.623794	84.473849
08533		9.516981	-1.530493	-1.134433	0.023789	-0.201702	0.305862	-148.368431	-82.431467	83.792428
08534		9.798748	-1.407792	-1.036076	0.103293	-0.190015	0.322282	-147.581441	-82.237959	83.057630
08535		9.767155	-1.346379	-1.407949	0.195410	-0.156652	0.328068	-146.686910	-82.058039	82.267230
08536		9.678171	-1.248116	-1.786821	0.234573	-0.155700	0.297000	-145.906249	-81.886105	81.614145
08537		9.553872	-1.081186	-1.420313	0.289242	-0.137592	0.276475	-145.152555	-81.728967	81.019687
08538		9.438125	-1.079692	-1.142756	0.275530	-0.137939	0.249677	-144.514629	-81.578649	80.534060
08539		9.387271	-1.247960	-1.193038	0.250395	-0.151222	0.246395	-143.952764	-81.423373	80.110589
08540		9.638923	-1.451703	-1.447296	0.207741	-0.166654	0.248404	-143.458443	-81.258853	79.730538
08541		9.829056	-1.485701	-1.274360	0.255359	-0.153605	0.249593	-142.923323	-81.100273	79.336649
08542		9.884520	-1.315517	-1.095923	0.296893	-0.116992	0.243605	-142.315175	-80.958942	78.892754
08543		9.707264	-1.305276	-1.305037	0.314414	-0.105977	0.226385	-141.739439	-80.828862	78.491689
08544		9.755149	-1.083164	-1.491419	0.325894	-0.116175	0.220204	-141.207564	-80.694882	78.141573
08545		9.727259	-0.779358	-1.640793	0.292972	-0.114144	0.235914	-140.662912	-80.556542	77.759254
08546		9.824555	-0.784022	-1.776362	0.253165	-0.108320	0.234462	-140.143255	-80.419786	77.378997
08547		9.758879	-0.993959	-1.540324	0.304477	-0.066826	0.222444	-139.549816	-80.305986	76.953586
08548		9.594025	-1.201197	-1.464426	0.263897	-0.076858	0.209116	-139.044666	-80.191170	76.594017
08549		9.559917	-1.619359	-1.529380	0.280767	-0.072041	0.199964	-138.553705	-80.082323	76.258544
08550		9.648455	-1.848683	-1.547288	0.333913	-0.081251	0.192284	-138.078129	-79.970985	75.969491
08551		9.726316	-1.799932	-1.485682	0.426287	-0.084797	0.190293	-137.572327	-79.859482	75.703401
08552		9.760287	-1.403364	-1.476958	0.428221	-0.079288	0.181794	-137.079875	-79.752149	75.451904
08553		9.705455	-1.063944	-1.550921	0.394694	-0.075315	0.173114	-136.627248	-79.650566	75.221284
08554		9.658128	-0.912940	-1.689837	0.376695	-0.054237	0.159459	-136.175242	-79.561738	74.980733
08555		9.618703	-0.758371	-1.626477	0.333002	-0.022879	0.155362	-135.697215	-79.488170	74.688206
08556		9.522317	-1.085601	-1.711981	0.243762	-0.013838	0.160122	-135.244313	-79.414893	74.369146
08557		9.565676	-1.520237	-1.810510	0.258701	-0.017990	0.163594	-134.790932	-79.339129	74.058241
08558		9.498513	-1.764253	-1.634108	0.294705	-0.007773	0.166557	-134.292995	-79.264697	73.722894
08559		9.418441	-1.833543	-1.305424	0.367300	-0.018704	0.165639	-133.785888	-79.186839	73.420482
08560		9.384835	-1.682552	-1.179710	0.421698	-0.022475	0.153120	-133.286203	-79.111065	73.157271
08561		9.443270	-1.340738	-1.366926	0.400178	-0.014169	0.134405	-132.824799	-79.047098	72.920443
08562		9.649679	-1.129371	-1.260793	0.335973	-0.011066	0.122623	-132.419757	-78.987821	72.703490
08563		9.664466	-1.206107	-1.445813	0.257248	-0.000637	0.113192	-132.059911	-78.937432	72.486603
08564		9.696362	-1.411723	-1.642642	0.191152	0.020125	0.105514	-131.709299	-78.896874	72.240485
08565		9.564191	-1.632557	-1.522120	0.218019	0.035703	0.107282	-131.308938	-78.862294	71.959341
08566		9.485065	-1.644029	-1.548086	0.249719	0.029459	0.106199	-130.907539	-78.824300	71.695595
08567		9.527524	-1.573833	-1.457581	0.319892	0.026586	0.117043	-130.454899	-78.781294	71.420584
08568		9.527491	-1.249161	-1.212660	0.390716	0.028213	0.134198	-129.928553	-78.729751	71.111730
08569		9.404189	-0.907110	-1.037216	0.420394	0.033508	0.150624	-129.348047	-78.673494	70.764950
08570		9.347193	-0.392657	-1.079147	0.341818	0.036337	0.161839	-128.790248	-78.611456	70.395315
08571		9.393366	-0.180215	-1.203303	0.220445	0.048802	0.165884	-128.272497	-78.552516	69.995538
08572		9.505708	-0.353343	-1.328317	0.104203	0.053793	0.169673	-127.808168	-78.491901	69.582197
08573		9.633398	-0.912325	-1.338574	-0.007887	0.059301	0.169222	-127.401053	-78.433843	69.161645
08574		9.634881	-1.516502	-1.240606	-0.007068	0.059764	0.172532	-126.991328	-78.372849	68.738784
08575		9.474862	-1.929568	-1.258304	0.003031	0.030915	0.178237	-126.634562	-78.299754	68.375839
08576		9.589690	-2.118025	-1.366502	0.083329	0.016105	0.186847	-126.255550	-78.216184	68.037024
08577		9.618950	-2.071789	-1.290704	0.199869	0.009630	0.207934	-125.795323	-78.121154	67.683380
08578		9.679090	-1.811650	-1.122699	0.289215	0.007978	0.215223	-125.283108	-78.020531	67.328756
08579		9.657125	-1.407688	-1.069810	0.339347	0.008923	0.230748	-124.723329	-77.913283	66.954770
08580		9.648744	-1.022001	-0.940424	0.303175	0.025805	0.239212	-124.143092	-77.805717	66.538468
08581		9.491799	-0.800342	-0.978812	0.224246	0.038032	0.239362	-123.589216	-77.702138	66.102739
08582		9.541011	-0.837549	-1.129577	0.094094	0.026772	0.234184	-123.150333	-77.595751	65.708173
08583		9.701934	-1.283277	-1.120767	0.001869	0.040783	0.239343	-122.732941	-77.491561	65.281385
08584		9.639002	-1.771876	-1.065327	0.004168	0.040282	0.250386	-122.307909	-77.380329	64.847893
08585		9.556665	-1.978055	-1.044004	0.030525	0.038404	0.258924	-121.867195	-77.264549	64.413662
08586		9.357055	-1.915541	-0.968597	0.060593	0.048003	0.265034	-121.389356	-77.147039	63.958778
08587		9.236885	-1.785147	-0.996305	0.064083	0.037468	0.269558	-120.933910	-77.024243	63.528750
08588		9.217829	-1.558029	-1.209720	0.042455	0.009091	0.269470	-120.560089	-76.891623	63.169518
08589		9.468274	-1.372358	-1.199170	0.064268	-0.015690	0.274029	-120.226982	-76.749930	62.864786
08590		9.660835	-1.179456	-1.193682	0.004465	0.013574	0.289439	-119.855974	-76.607736	62.485662
08591		9.536701	-1.118414	-1.147455	-0.079266	0.039336	0.290820	-119.484661	-76.472424	62.056731
08592		9.292288	-0.920140	-1.083898	-0.129064	0.045099	0.293722	-119.135505	-76.335897	61.620935
08593		9.096941	-0.695477	-1.302633	-0.255213	0.058690	0.297586	-118.832838	-76.201381	61.158402
08594		8.946294	-1.204085	-1.116191	-0.432351	0.045127	0.304720	-118.659540	-76.058425	60.724241
08595		9.016311	-1.754041	-0.784997	-0.436708	0.046500	0.308112	-118.487164	-75.914489	60.288252
08596		8.981712	-1.889186	-0.676823	-0.471496	-0.023030	0.326782	-118.460472	-75.741360	59.981591
08597		9.539605	-1.722998	-1.197770	-0.351105	-0.028756	0.342109	-118.362975	-75.559479	59.672873
08598		9.588352	-1.028404	-1.092618	-0.372171	0.058141	0.342218	-118.115187	-75.400290	59.196130
08599		9.482807	0.019795	-1.450458	-0.481066	0.037815	0.352077	-117.965069	-75.230805	58.755569
08600		9.641612	0.547311	-1.951962	-0.656293	0.063258	0.369461	-117.857398	-75.058649	58.254628
08601		9.612442	0.040413	-1.712207	-0.799326	0.090228	0.404085	-117.751876	-74.876356	57.670723
08602		9.670495	-1.264424	-1.456658	-0.866842	0.070110	0.447376	-117.690938	-74.666268	57.092295
08603		9.801777	-2.563737	-1.238197	-0.821980	0.076961	0.481278	-117.566408	-74.440800	56.474053
08604		9.798053	-3.498454	-1.207953	-0.716967	0.047757	0.506502	-117.424365	-74.194194	55.899299
08605		9.827743	-4.309538	-0.855777	-0.578572	-0.015229	0.520954	-117.311051	-73.923508	55.436260
08606		9.964077	-4.494484	-0.543141	-0.262516	-0.044419	0.530527	-117.071968	-73.639610	55.030081
08607		10.118505	-3.960132	-0.853541	0.004176	-0.090634	0.526441	-116.773159	-73.345581	54.720483
08608		9.986048	-2.878341	-0.842358	0.124783	-0.059163	0.529472	-116.362173	-73.057128	54.365325
08609		9.770942	-1.996234	-1.051086	0.139320	-0.065731	0.536251	-115.959664	-72.763201	54.027294
08610		9.515716	-1.547117	-1.506944	0.056390	-0.061412	0.543008	-115.605544	-72.465862	53.689542
08611		9.451496	-1.561567	-1.765780	-0.022355	-0.062212	0.552110	-115.300687	-72.163392	53.355678
08612		9.330413	-2.063164	-1.711804	-0.087379	-0.036394	0.567456	-114.992583	-71.858443	52.978547
08613		9.298579	-2.734191	-1.737057	-0.067159	-0.037688	0.578350	-114.676982	-71.547153	52.605170
08614		9.288544	-3.218446	-1.597789	0.006345	-0.040771	0.585439	-114.332410	-71.230517	52.244850
08615		9.278437	-3.452567	-1.564338	0.097381	-0.050894	0.587982	-113.959728	-70.909710	51.909402
08616		9.467238	-3.411560	-1.495477	0.181951	-0.060473	0.583698	-113.569235	-70.587936	51.605622
08617		9.652759	-3.275230	-1.402358	0.223889	-0.062485	0.577814	-113.171183	-70.268398	51.318860
08618		9.855420	-3.442482	-1.318243	0.234876	-0.048431	0.580961	-112.756910	-69.949368	51.020824
08619		9.828642	-3.199577	-1.103677	0.248158	-0.028416	0.594307	-112.308130	-69.627212	50.693662
08620		9.615057	-3.037478	-1.219294	0.237085	-0.033866	0.593681	-111.887034	-69.303076	50.388454
08621		9.255782	-2.827057	-1.259676	0.246015	-0.024164	0.600957	-111.453005	-68.976614	50.074374
08622		9.234254	-2.600543	-1.231076	0.220271	-0.032324	0.616236	-111.049405	-68.639239	49.776257
08623		9.225783	-2.800738	-1.255581	0.221619	-0.036700	0.640857	-110.647738	-68.287287	49.480498
08624		9.326725	-2.749075	-1.639401	0.240811	-0.046134	0.668626	-110.246410	-67.917598	49.196053
08625		9.643171	-2.659190	-1.730735	0.224657	-0.033461	0.699625	-109.832782	-67.533150	48.887716
08626		9.858923	-2.660530	-1.282239	0.210459	-0.020580	0.723464	-109.413338	-67.137357	48.563205
08627		9.864062	-2.980482	-1.237520	0.230860	-0.034491	0.732545	-109.006841	-66.733252	48.264702
08628		9.637571	-2.821099	-1.053794	0.243409	-0.016228	0.735620	-108.582598	-66.329992	47.953588
08629		9.357746	-2.752144	-0.876697	0.222064	-0.016353	0.754751	-108.173542	-65.915434	47.644930
08630		9.206996	-2.931353	-0.976881	0.181685	-0.029209	0.769855	-107.810392	-65.489624	47.360042
08631		9.332715	-2.964265	-1.030056	0.141324	-0.032536	0.777896	-107.480521	-65.058054	47.085559
08632		9.532436	-3.023138	-1.050790	0.085026	-0.014170	0.789767	-107.168671	-64.622673	46.794178
08633		9.621371	-3.206470	-1.128217	0.026600	-0.007457	0.803139	-106.886415	-64.180269	46.497635
08634		9.640707	-3.626595	-1.337297	-0.014081	0.002797	0.803809	-106.626617	-63.738883	46.198829
08635		9.633295	-3.938764	-1.382972	0.022461	-0.000504	0.798363	-106.359165	-63.299057	45.913936
08636		9.700940	-4.298638	-1.316811	0.035811	-0.000228	0.791799	-106.096041	-62.862661	45.641155
08637		9.621656	-4.604234	-1.213816	0.154978	-0.007369	0.788203	-105.780763	-62.426145	45.385686
08638		9.493556	-4.617625	-1.203943	0.244604	-0.014927	0.776442	-105.435739	-61.994671	45.153396
08639		9.324062	-4.638031	-0.998290	0.323302	-0.009028	0.771776	-105.048390	-61.565592	44.923547
08640		9.208956	-4.523213	-0.939782	0.402483	-0.017622	0.762104	-104.637278	-61.140270	44.717155
08641		9.257161	-4.484937	-0.866192	0.444622	-0.022183	0.761065	-104.214354	-60.713752	44.524257
08642		9.254868	-4.410101	-0.754777	0.495411	-0.010668	0.753776	-103.762601	-60.292629	44.330643
08643		9.170055	-4.180513	-0.824854	0.532498	-0.009629	0.761270	-103.294474	-59.866264	44.142062
08644		9.081340	-4.127259	-0.818970	0.543535	0.014575	0.757217	-102.807735	-59.445046	43.938213
08645		8.858705	-4.037972	-0.742657	0.514584	0.039779	0.751859	-102.322909	-59.028581	43.716624
08646		8.581579	-4.214469	-0.853547	0.484994	0.046536	0.745306	-101.859868	-58.616288	43.499505
08647		8.305263	-4.307096	-0.898495	0.478987	0.050042	0.740424	-101.405367	-58.205637	43.287630
08648		8.084391	-4.401423	-0.856097	0.466902	0.058710	0.738321	-100.959347	-57.796946	43.076436
08649		7.906279	-4.459993	-0.632973	0.465980	0.075914	0.728401	-100.507177	-57.394132	42.856604
08650		7.680943	-4.528065	-0.667462	0.442042	0.091867	0.730631	-100.063057	-56.991500	42.628831
08651		7.469524	-4.691850	-0.718373	0.370565	0.106800	0.734894	-99.653022	-56.586297	42.392011
08652		7.394702	-4.958891	-0.701239	0.336702	0.111816	0.725918	-99.267477	-56.186486	42.159996
08653		7.374612	-4.969347	-0.763362	0.382168	0.119838	0.719337	-98.856222	-55.789499	41.927515
08654		7.477598	-5.030910	-0.741547	0.356966	0.127355	0.713189	-98.461676	-55.396468	41.696485
08655		7.557091	-4.969584	-0.594702	0.299002	0.160515	0.717073	-98.078672	-55.002358	41.438177
08656		7.527902	-4.852535	-0.683972	0.212846	0.162899	0.719951	-97.750107	-54.606636	41.184624
08657		7.475075	-4.709910	-1.068544	0.062963	0.126067	0.701095	-97.543487	-54.217392	40.974392
08658		7.616371	-4.504601	-1.106739	-0.061324	0.119037	0.691636	-97.419273	-53.833422	40.776749
08659		7.579928	-4.443624	-1.049384	-0.191832	0.123765	0.688653	-97.368764	-53.450542	40.577026
08660		7.476050	-4.845193	-1.323179	-0.348329	0.096645	0.685632	-97.431840	-53.068237	40.405914
08661		7.511034	-5.383400	-1.587990	-0.470097	0.084299	0.680903	-97.574600	-52.687034	40.246627
08662		7.448043	-5.941595	-1.421020	-0.479089	0.071711	0.656201	-97.735574	-52.320024	40.102712
08663		7.496656	-6.198320	-1.295127	-0.359288	0.043990	0.630558	-97.850169	-51.964760	39.986589
08664		7.355290	-6.541286	-1.307512	-0.365718	0.055161	0.616986	-97.962954	-51.619058	39.862579
08665		7.110672	-7.018631	-1.214726	-0.257206	0.029357	0.614853	-98.031724	-51.271794	39.761532
08666		6.938419	-7.130261	-1.195982	-0.081113	0.015307	0.601685	-98.012534	-50.931658	39.676245
08667		6.969884	-6.993648	-1.239059	0.021175	-0.007813	0.594004	-97.951676	-50.593250	39.612792
08668		7.048851	-7.072508	-1.128469	0.158151	-0.004978	0.585509	-97.813472	-50.260459	39.550103
08669		7.163935	-6.939012	-0.838457	0.274149	-0.028349	0.572499	-97.626594	-49.932501	39.510705
08670		7.203241	-6.941793	-0.720624	0.322765	-0.056187	0.560285	-97.434231	-49.609865	39.500000
08671		7.147210	-7.133445	-0.508916	0.356768	-0.068078	0.554203	-97.231243	-49.289236	39.501321
08672		6.995999	-7.346525	-0.383741	0.370728	-0.081787	0.541220	-97.032522	-48.975504	39.518456
08673		6.834099	-7.475530	-0.440553	0.425122	-0.076674	0.513245	-96.801829	-48.677593	39.535012
08674		6.846597	-7.302983	-0.494310	0.480777	-0.061168	0.494396	-96.532842	-48.391878	39.542703
08675		6.935868	-7.032174	-0.433850	0.507990	-0.021225	0.479006	-96.224619	-48.117107	39.519131
08676		6.984482	-6.540302	-0.274839	0.519388	0.018965	0.465733	-95.887979	-47.852560	39.465621
08677		6.956792	-6.017240	-0.106987	0.473764	0.043964	0.452434	-95.563927	-47.596503	39.393957
08678		6.875018	-5.709805	0.038134	0.325632	0.043232	0.440765	-95.328411	-47.347147	39.326621
08679		6.799602	-5.730668	0.085096	0.136472	0.026775	0.444511	-95.211794	-47.094330	39.273696
08680		6.811188	-5.996394	-0.045478	-0.039252	0.013646	0.440107	-95.205354	-46.843662	39.233234
08681		6.922143	-6.627690	-0.192806	-0.120216	0.035775	0.429022	-95.232124	-46.600120	39.174817
08682		6.861613	-7.122720	-0.386880	-0.152849	0.054099	0.427169	-95.267428	-46.358982	39.101871
08683		6.799373	-7.460917	-0.437318	-0.099170	0.073163	0.424293	-95.260634	-46.120136	39.013209
08684		6.667028	-7.467261	-0.432628	0.025526	0.065249	0.418021	-95.188589	-45.884724	38.932539
08685		6.687928	-7.348501	-0.374045	0.052844	0.047131	0.410665	-95.112208	-45.652194	38.867609
08686		6.795268	-7.232748	-0.424463	0.099480	0.063223	0.405846	-95.001196	-45.423402	38.791087
08687		6.706331	-7.074569	-0.286521	0.144085	0.071049	0.391038	-94.861345	-45.203082	38.709905
08688		6.487822	-6.869017	-0.165972	0.123477	0.026880	0.381887	-94.760344	-44.985961	38.666362
08689		6.502016	-6.497235	-0.204285	0.075796	-0.073923	0.383296	-94.743965	-44.763003	38.704101
08690		6.912308	-5.872215	-0.461251	0.138164	-0.125619	0.413629	-94.719793	-44.520493	38.781553
08691		7.380574	-4.923634	-0.356579	0.204097	-0.134166	0.472061	-94.659286	-44.244054	38.861631
08692		7.714602	-4.267136	-0.177444	0.125883	-0.124154	0.501886	-94.636684	-43.951408	38.931993
08693		7.955636	-4.039903	-0.255989	0.022921	-0.108611	0.530910	-94.662421	-43.642589	38.987544
08694		8.059318	-3.827063	-0.095844	-0.072695	-0.106744	0.582155	-94.739269	-43.305128	39.037910
08695		8.073393	-3.683302	0.000157	-0.199655	-0.149050	0.653136	-94.906855	-42.924458	39.115118
08696		8.139101	-3.777790	-0.184557	-0.232233	-0.195875	0.732888	-95.112486	-42.496611	39.221343
08697		8.441913	-3.887569	-0.579187	-0.137827	-0.237003	0.804557	-95.279303	-42.024618	39.351343
08698		8.673769	-4.471504	-0.980182	-0.094871	-0.194101	0.836034	-95.395922	-41.537900	39.444016
08699		8.658117	-4.981710	-0.672293	-0.082042	-0.196175	0.839840	-95.503875	-41.047582	39.535733
08700		8.860284	-5.471641	-0.761639	-0.060668	-0.210054	0.866715	-95.603636	-40.542522	39.634406
08701		8.986478	-5.929725	-0.986432	0.039103	-0.222912	0.881478	-95.649720	-40.026751	39.739676
08702		9.111416	-6.335070	-1.074835	0.137195	-0.207260	0.855879	-95.632418	-39.528183	39.834635
08703		9.067925	-6.849085	-1.139376	0.368137	-0.262162	0.802866	-95.509922	-39.055135	39.973613
08704		9.134505	-7.115751	-0.999739	0.619198	-0.303450	0.715188	-95.266587	-38.632213	40.150368
08705		9.337551	-6.647856	-1.222778	0.778444	-0.277422	0.626594	-94.923535	-38.259896	40.315288
08706		9.283132	-5.827142	-1.290643	0.825682	-0.227840	0.608395	-94.532928	-37.903385	40.448007
08707		8.686911	-6.097278	-0.938479	0.987177	-0.227045	0.565131	-94.051491	-37.570193	40.584852
08708		8.086967	-6.444636	-0.340930	1.068877	-0.246288	0.486034	-93.535813	-37.284977	40.742950
08709		7.559077	-7.305189	-0.576874	0.881969	-0.244827	0.438653	-93.128034	-37.025397	40.903769
08710		7.421960	-8.154136	-1.126249	0.843635	-0.230179	0.412417	-92.737564	-36.784861	41.057354
08711		7.826836	-8.247974	-1.537873	0.907964	-0.262015	0.406736	-92.323792	-36.544933	41.234925
08712		8.484433	-8.565972	-1.797024	0.953574	-0.368342	0.409822	-91.929792	-36.304778	41.490260
08713		8.826951	-9.207176	-1.969493	1.092666	-0.346222	0.416502	-91.446064	-36.059957	41.730627
08714		7.878168	-9.189852	-1.027932	1.252661	-0.312408	0.424416	-90.857851	-35.815742	41.949806
08715		6.797202	-8.831437	-0.276644	1.175233	-0.412090	0.383567	-90.354907	-35.593097	42.241090
08716		6.395835	-8.663084	-0.254133	1.073071	-0.415017	0.304914	-89.912830	-35.420432	42.536915
08717		5.940021	-8.331071	-0.193998	1.115770	-0.339999	0.200673	-89.414657	-35.306254	42.780013
08718		5.351291	-7.562234	-0.358440	1.192282	-0.250214	0.054101	-88.836756	-35.280075	42.960462
08719		4.606604	-7.024348	-0.347655	1.082498	-0.223971	-0.182224	-88.308020	-35.387353	43.117929
08720		4.749243	-7.098919	-0.657360	0.974802	-0.166535	-0.488368	-87.814353	-35.672879	43.227788
08721		5.120163	-6.873765	0.032516	0.948480	-0.058537	-0.752048	-87.284260	-36.104565	43.249839
08722		5.595544	-6.358680	1.510835	0.645427	-0.036996	-0.937938	-86.913674	-36.645016	43.246767
08723		5.864170	-6.206674	2.360176	0.261461	0.085276	-1.139530	-86.702297	-37.293978	43.143690
08724		5.554018	-5.891415	2.612083	-0.072306	0.232933	-1.377409	-86.608813	-38.076795	42.921527
08725		5.151496	-6.158671	2.231046	-0.502725	0.313227	-1.592177	-86.714551	-38.976848	42.628173
08726		5.049561	-6.932458	1.534326	-0.687966	0.351202	-1.750161	-86.900733	-39.969625	42.299850
08727		5.205540	-7.604411	1.053750	-0.671912	0.308257	-1.857226	-87.090266	-41.022802	41.998235
08728		5.646398	-7.757325	0.806120	-0.616011	0.265746	-1.944098	-87.263136	-42.130505	41.725925
08729		5.856315	-7.627231	0.735056	-0.649162	0.244198	-2.016171	-87.460005	-43.277788	41.467159
08730		5.994330	-7.373382	0.790124	-0.737671	0.259693	-2.114491	-87.694083	-44.484481	41.194275
08731		6.051419	-7.160737	0.978785	-0.758736	0.352234	-2.264187	-87.879129	-45.772750	40.841370
08732		5.956290	-6.757911	1.227153	-0.819533	0.508127	-2.436930	-87.993313	-47.160073	40.350494
08733		5.526867	-6.319466	1.551549	-1.028202	0.542328	-2.591118	-88.187533	-48.633234	39.817675
08734		5.679857	-6.116655	1.489790	-1.233928	0.402560	-2.735569	-88.577656	-50.195795	39.399895
08735		6.675820	-6.517955	1.073716	-1.240123	0.328738	-2.830680	-89.017456	-51.813038	39.050974
08736		7.662770	-6.739709	-0.246398	-1.282917	0.437852	-2.875354	-89.398251	-53.459060	38.604832
08737		7.804387	-7.245001	-1.278160	-1.280190	0.607299	-2.880243	-89.632728	-55.105988	37.989689
08738		7.485871	-7.636082	-0.945922	-0.976053	0.620331	-2.879942	-89.655835	-56.755917	37.342100
08739		7.162981	-7.670619	-0.444739	-0.614761	0.586418	-2.904427	-89.463548	-58.417081	36.696630
08740		6.977823	-7.419161	0.163722	-0.220237	0.547861	-2.956849	-89.029572	-60.108835	36.044589
08741		6.899403	-6.634425	0.651595	0.087943	0.506125	-3.018491	-88.392071	-61.831069	35.372716
08742		6.897027	-5.792823	1.102002	0.287405	0.472479	-3.062171	-87.589640	-63.576686	34.654792
08743		7.143118	-5.007281	1.246576	0.343368	0.416231	-3.114456	-86.715011	-65.346897	33.903138
08744		7.683329	-4.311701	1.244970	0.312314	0.363031	-3.189072	-85.799478	-67.158237	33.098231
08745		8.130053	-3.548510	1.262814	0.210285	0.340422	-3.246417	-84.825543	-68.996059	32.177932
08746		8.492432	-3.057720	1.265625	0.011319	0.302999	-3.264674	-83.848681	-70.841979	31.144623
08747		8.769694	-2.778350	1.096458	-0.313149	0.266090	-3.244529	-82.928103	-72.671090	29.986097
08748		8.847213	-2.620222	0.801860	-0.556559	0.233615	-3.206964	-81.986998	-74.476842	28.672392
08749		8.982347	-2.566665	0.686434	-0.723714	0.199862	-3.171524	-80.946196	-76.257082	27.167855
08750		9.247800	-2.311669	0.698604	-0.851711	0.190610	-3.138276	-79.645708	-78.012964	25.333261
08751		9.566402	-2.397501	0.388136	-1.008782	0.185943	-3.101857	-77.950944	-79.736168	23.016775
08752		10.009129	-2.775652	-0.181369	-1.113971	0.187824	-3.066286	-75.542508	-81.423932	19.928484
08753		10.439280	-3.172404	-0.843465	-1.129910	0.243529	-3.021091	-71.641578	-83.046703	15.338104
08754		10.560292	-3.541274	-1.072746	-0.966896	0.323850	-2.985102	-64.765133	-84.571033	7.864538
08755		10.361214	-3.739625	-0.975835	-0.664447	0.412343	-2.961400	-52.067163	-85.902562	-5.258635
08756		9.998130	-3.818997	-0.784335	-0.352566	0.495340	-2.968308	-28.909949	-86.812391	-28.663439
08757		9.574328	-3.609468	-0.530707	-0.065199	0.545362	-2.962846	2.821133	-86.896992	-60.477798
08758		9.214470	-3.220249	-0.424676	0.158219	0.514750	-2.947212	28.557575	-86.139947	-86.169212
08759		9.089354	-2.485366	-0.489577	0.296584	0.435078	-2.907123	44.107983	-84.943913	-101.595384
08760		8.928615	-1.885743	-0.399886	0.416431	0.344112	-2.847109	53.587432	-83.583108	-110.882220
08761		8.956790	-1.233815	0.095223	0.593793	0.256458	-2.760900	59.908645	-82.179554	-116.909543
08762		9.021811	-0.639622	0.552397	0.632285	0.172809	-2.637355	64.418431	-80.797515	-121.103233
08763		9.347255	-0.046954	0.543428	0.481555	0.081662	-2.475331	67.768885	-79.482938	-124.224055
08764		9.684891	0.125493	0.629139	0.341891	0.016287	-2.278166	70.307750	-78.261613	-126.612138
08765		9.878208	-0.053964	0.660409	0.204732	-0.040817	-2.082390	72.292442	-77.140049	-128.523721
08766		9.923066	0.180519	-0.279246	-0.015623	-0.029664	-1.926801	73.718663	-76.090327	-129.999291
08767		9.847891	0.735146	-1.049977	-0.194157	0.040977	-1.769940	74.606924	-75.109377	-131.031614
08768		9.625466	0.839408	-0.379723	-0.021675	-0.029682	-1.579046	75.515313	-74.240847	-131.986708
08769		9.452440	0.890279	0.337977	0.141265	-0.052516	-1.406922	76.381693	-73.467169	-132.804819
08770		9.060249	0.802099	0.649358	0.182260	0.005163	-1.236475	77.022703	-72.778376	-133.365896
08771		8.669367	1.030031	0.670880	0.121018	0.038789	-1.040400	77.448592	-72.193053	-133.740216
08772		8.682577	1.055350	0.398507	0.077722	-0.045245	-0.773428	77.870381	-71.767140	-134.137304
08773		9.155598	1.113383	0.181972	0.182379	-0.147545	-0.434271	78.386252	-71.541955	-134.571150
08774		9.468932	1.368135	-0.006847	0.294633	-0.164307	-0.093856	78.871141	-71.509360	-134.904778
08775		9.223483	1.807612	-0.109218	0.367609	-0.146730	0.215579	79.266804	-71.647458	-135.100255
08776		9.114502	2.149380	0.044193	0.333046	-0.173198	0.491777	79.605580	-71.944304	-135.256369
08777		9.067562	1.911518	0.280583	0.282178	-0.177714	0.739356	79.851719	-72.380140	-135.345538
08778		8.762773	1.652386	0.078632	0.148726	-0.162163	0.952842	79.931966	-72.935628	-135.340695
08779		8.986012	2.852270	-1.358628	-0.121312	-0.344924	0.974159	80.197245	-73.520343	-135.690791
08780		10.355863	3.771931	-3.480852	-0.276688	-0.594459	0.709522	80.973398	-73.978856	-136.664684
08781		12.012902	5.678177	0.151542	0.569211	-0.674926	0.070749	82.625512	-74.074895	-138.044347
08782		12.498854	6.393846	2.109191	0.649429	-0.241966	-0.599035	83.628500	-73.752205	-138.701163
08783		11.691661	6.441015	4.474659	0.966865	0.091572	-0.601550	84.138855	-73.404569	-138.656129
08784		10.456024	6.831854	3.563799	-0.143611	0.261557	-0.060086	83.579697	-73.355459	-138.158766
08785		8.548237	3.691607	-0.095093	-0.555129	-0.028874	0.333056	83.251998	-73.547600	-138.149156
08786		8.873891	3.371213	0.816139	0.097421	-0.469283	0.580662	84.107735	-73.908804	-138.982790
08787		9.753668	4.098945	0.827789	-0.155291	-0.532367	0.667117	84.966974	-74.318973	-139.969087
08788		10.397813	4.454699	1.463079	-0.439195	-0.264522	0.547039	85.172380	-74.645019	-140.443778
08789		10.385576	4.521765	3.352036	-0.650652	0.002839	0.435565	84.722496	-74.894069	-140.364322
08790		9.648358	4.122489	2.476433	-1.196848	0.095150	0.412777	83.755391	-75.124526	-140.073472
08791		9.311642	3.070891	0.619277	-1.388258	0.008124	0.416785	82.846527	-75.361832	-139.956588
08792		9.441254	2.455547	-0.430268	-1.258050	-0.055012	0.448696	82.126269	-75.621420	-139.957618
08793		9.929773	1.763601	-1.058296	-1.201319	-0.093601	0.515614	81.491493	-75.922222	-140.013277
08794		10.249320	1.112860	-1.005823	-0.945507	-0.170997	0.560086	81.155837	-76.254926	-140.226007
08795		10.236582	1.188056	-1.087979	-0.730011	-0.250559	0.584314	81.122320	-76.608616	-140.622235
08796		10.160665	1.161722	-1.240733	-0.490193	-0.295891	0.577261	81.352030	-76.962168	-141.147078
08797		9.870454	1.016554	-0.478628	-0.181606	-0.306833	0.575381	81.809592	-77.314791	-141.723574
08798		9.710222	0.655019	-0.006223	-0.012066	-0.337817	0.585929	82.473032	-77.674737	-142.410573
08799		9.919923	-0.009149	0.038640	0.082794	-0.351983	0.578963	83.271044	-78.029628	-143.178766
08800		9.983715	-0.135941	0.550506	0.236934	-0.358456	0.578186	84.225575	-78.382310	-144.015563
08801		10.088116	0.588945	0.313551	0.082054	-0.361201	0.621893	85.141523	-78.756898	-144.902504
08802		10.370711	1.370788	0.316125	-0.067376	-0.392662	0.677624	86.115722	-79.162254	-145.934783
08803		10.463210	1.730769	0.642850	-0.190698	-0.376246	0.678561	87.042901	-79.563753	-146.989767
08804		10.404102	1.229510	0.925207	-0.268285	-0.343015	0.665235	87.898808	-79.954233	-148.016124
08805		10.329626	0.765313	0.613906	-0.404023	-0.281677	0.665654	88.543431	-80.340909	-148.905773
08806		10.007903	0.065314	0.005760	-0.591977	-0.206099	0.655397	88.878439	-80.720013	-149.589687
08807		9.635804	-0.398124	0.233364	-0.565390	-0.195124	0.623945	89.232399	-81.079714	-150.276657
08808		9.371096	-0.495974	0.212265	-0.553608	-0.192274	0.599689	89.627502	-81.425544	-150.997761
08809		9.243978	-0.326764	-0.136190	-0.517778	-0.224056	0.586024	90.214716	-81.761862	-151.891662
08810		9.393574	-0.099317	-0.704640	-0.405042	-0.264288	0.560012	91.095758	-82.082240	-153.016362
08811		9.638980	0.522712	-0.808998	-0.228124	-0.273494	0.531355	92.197437	-82.382354	-154.260580
08812		9.764847	1.023600	-0.909914	-0.157935	-0.266024	0.502562	93.397069	-82.663775	-155.562179
08813		9.700548	1.294238	-0.993032	-0.115104	-0.261329	0.475410	94.685998	-82.925118	-156.928263
08814		9.543299	1.277111	-0.955031	-0.075535	-0.265924	0.457457	96.115269	-83.172830	-158.412108
08815		9.453890	1.144257	-0.711186	-0.027340	-0.268057	0.456343	97.686801	-83.413996	-160.010660
08816		9.401690	1.064188	-0.381038	0.046337	-0.295058	0.473016	99.576655	-83.657490	-161.886258
08817		9.489758	1.141136	-0.031584	0.123740	-0.312837	0.490088	101.765672	-83.900127	-164.017340
08818		9.655603	1.315443	0.127495	0.171140	-0.319323	0.517134	104.235743	-84.148342	-166.402679
08819		9.751850	1.561102	0.244054	0.177536	-0.315398	0.533429	106.918026	-84.393890	-168.996608
08820		9.837914	1.652648	0.090491	0.113932	-0.281978	0.557801	109.663014	-84.646977	-171.688984
08821		9.804699	1.585880	-0.088396	0.022859	-0.242325	0.573799	112.413417	-84.903398	-174.438123
08822		9.664276	1.458204	-0.259338	-0.062361	-0.213395	0.581959	115.251969	-85.158967	-177.323616
08823		9.518108	1.285431	-0.493245	-0.117489	-0.204884	0.591927	118.339713	-85.407946	179.510193
08824		9.492819	1.145595	-0.693166	-0.150139	-0.212271	0.590368	121.805088	-85.639305	175.947564
08825		9.520826	0.820898	-0.767751	-0.178106	-0.205953	0.575718	125.512951	-85.847345	172.126706
08826		9.565114	0.401128	-0.795748	-0.195844	-0.201038	0.563298	129.501619	-86.032353	168.015151
08827		9.577202	-0.219047	-0.871956	-0.186475	-0.186869	0.551140	133.694603	-86.195965	163.705008
08828		9.532045	-0.839512	-0.828074	-0.097942	-0.188299	0.546080	138.281512	-86.334413	159.051747
08829		9.513872	-1.379237	-0.835099	0.063998	-0.220112	0.542949	143.427415	-86.431170	153.931907
08830		9.551604	-1.536162	-0.860259	0.287236	-0.253479	0.535610	149.061352	-86.479062	148.451713
08831		9.587626	-1.349572	-0.808726	0.472893	-0.290524	0.517357	154.876395	-86.469150	142.896699
08832		9.706547	-0.713747	-0.704979	0.584761	-0.330608	0.503073	160.687022	-86.400283	137.410158
08833		9.811101	-0.014802	-0.552708	0.603111	-0.333607	0.488546	166.109208	-86.294432	132.322790
08834		9.828147	0.720006	-0.113202	0.499704	-0.359747	0.484019	171.157915	-86.144034	127.549670
08835		9.999922	1.005222	-0.356851	0.343395	-0.301192	0.465222	175.512924	-86.000763	123.381213
08836		9.818504	0.945853	-0.640348	0.128873	-0.193502	0.438500	179.225834	-85.898398	119.732682
08837		9.543750	0.589151	-0.553349	-0.109325	-0.164234	0.410795	-177.608459	-85.798173	116.495426
08838		9.414302	0.020263	-0.403100	-0.220209	-0.170396	0.397764	-174.753355	-85.682304	113.505540
08839		9.496293	-0.690703	-0.561320	-0.225422	-0.193489	0.388562	-172.163599	-85.543971	110.778220
08840		9.602131	-1.104967	-0.830207	-0.137298	-0.190080	0.384670	-169.700158	-85.398337	108.227797
08841		9.675252	-1.163247	-1.066339	-0.005086	-0.200570	0.386121	-167.337489	-85.238864	105.853877
08842		9.553631	-0.759990	-1.079051	0.160786	-0.212919	0.384237	-165.059959	-85.064428	103.660276
08843		9.611901	-0.138073	-1.225544	0.178900	-0.225098	0.378059	-162.999117	-84.878047	101.693950
08844		9.635483	0.298809	-1.142918	0.116671	-0.213950	0.367860	-161.143674	-84.693021	99.897579
08845		9.678065	0.560266	-0.780070	0.038316	-0.207824	0.354815	-159.526641	-84.509733	98.294973
08846		9.713384	0.712738	-0.830149	-0.101342	-0.200525	0.354558	-158.070478	-84.325642	96.773187
08847		9.861101	0.598872	-1.074108	-0.249940	-0.162138	0.354723	-156.714677	-84.159044	95.266159
08848		9.880103	0.142231	-1.208429	-0.381741	-0.117296	0.338352	-155.486023	-84.015590	93.810695
08849		9.810762	-0.299342	-1.296549	-0.467460	-0.092965	0.319823	-154.408450	-83.887070	92.457331
08850		9.667964	-0.933581	-1.418328	-0.484408	-0.077884	0.325556	-153.322916	-83.761368	91.085946
08851		9.596988	-1.454767	-1.483777	-0.375703	-0.095801	0.321246	-152.292664	-83.625798	89.832427
08852		9.692537	-1.553507	-1.704642	-0.279627	-0.098502	0.316459	-151.278072	-83.486802	88.649806
08853		9.725695	-1.501675	-1.869642	-0.143323	-0.095267	0.315838	-150.232351	-83.348168	87.514060
08854		9.760327	-1.203380	-1.785759	-0.009892	-0.096476	0.319364	-149.139043	-83.204450	86.407138
08855		9.740883	-0.761998	-1.688056	0.033449	-0.110940	0.322833	-148.094112	-83.051302	85.373526
08856		9.806166	-0.368985	-1.532367	0.034549	-0.124641	0.323092	-147.122237	-82.888133	84.413900
08857		9.863819	-0.146627	-1.350361	0.032861	-0.117192	0.326063	-146.169477	-82.726814	83.472138
08858		9.765954	-0.187415	-1.124221	0.038960	-0.083313	0.316060	-145.202102	-82.581623	82.518929
08859		9.587624	-0.368957	-1.052449	-0.019189	-0.075254	0.319071	-144.277352	-82.438405	81.574708
08860		9.582367	-0.625876	-1.050827	-0.039551	-0.068406	0.327861	-143.348992	-82.292237	80.614840
08861		9.514791	-0.838755	-1.018865	-0.027187	-0.061988	0.327222	-142.437515	-82.148371	79.678750
08862		9.537025	-0.922376	-1.014245	0.022162	-0.076418	0.320979	-141.585450	-81.997085	78.830940
08863		9.605712	-0.744220	-1.107562	0.028379	-0.092015	0.309378	-140.839224	-81.842560	78.093230
08864		9.553261	-0.593142	-1.109691	-0.022307	-0.125584	0.309979	-140.229649	-81.670575	77.464028
08865		9.638149	-0.687752	-1.044811	-0.121613	-0.103107	0.312414	-139.640595	-81.507794	76.797709
08866		9.496460	-1.024207	-1.302816	-0.136171	-0.085565	0.316832	-139.025766	-81.348810	76.096682
08867		9.488650	-1.362027	-1.720104	-0.049605	-0.089991	0.305254	-138.430141	-81.192367	75.464896
08868		9.595814	-1.551347	-1.677372	0.092970	-0.082301	0.288043	-137.801060	-81.043563	74.881742
08869		9.773991	-1.328871	-1.193347	0.246890	-0.083481	0.290292	-137.102705	-80.893568	74.317427
08870		9.810930	-0.918190	-0.824564	0.224654	-0.062747	0.309315	-136.337408	-80.742374	73.672232
08871		9.678552	-0.750662	-0.973896	0.162115	-0.049798	0.333380	-135.540798	-80.586792	72.958636
08872		9.684139	-0.383702	-1.204279	0.165956	-0.040865	0.343991	-134.718563	-80.427708	72.221033
08873		9.682492	-0.461297	-1.040866	0.074449	-0.011277	0.345184	-133.900884	-80.279474	71.434468
08874		9.710977	-0.903309	-0.937599	-0.023822	0.007682	0.332584	-133.145478	-80.140997	70.653681
08875		9.676843	-1.120619	-1.121524	-0.080666	0.025205	0.326619	-132.415259	-80.011303	69.865023
08876		9.485990	-1.454806	-1.282187	-0.110392	0.031557	0.324003	-131.711502	-79.882333	69.085681
08877		9.484091	-1.838139	-1.292292	-0.056990	-0.018048	0.306719	-131.150853	-79.741625	68.482446
08878		9.570709	-1.512867	-1.320498	0.036039	-0.020766	0.306328	-130.559986	-79.597833	67.902455
08879		9.652897	-1.174874	-1.265508	0.022023	-0.025556	0.323082	-129.971462	-79.445050	67.316354
08880		9.734038	-1.140891	-1.445125	-0.045658	-0.021504	0.324952	-129.425035	-79.290703	66.733383
08881		9.805268	-1.442630	-1.206424	-0.032407	0.009067	0.320740	-128.823893	-79.149385	66.102112
08882		9.881364	-1.448353	-0.216754	0.493531	0.177288	0.327544	-127.534257	-79.061482	65.076380
08883		9.338904	-1.523732	-2.735269	-0.600301	-0.209672	0.342649	-127.761783	-78.830682	64.957329
08884		9.838800	-1.848419	-0.240761	0.260065	0.132420	0.340810	-126.723818	-78.717999	64.050635
08885		9.194312	-1.167626	-1.199769	-0.076163	-0.081697	0.346721	-126.376777	-78.528594	63.651697
08886		9.547510	-0.882308	-1.620089	-0.036384	0.043809	0.372656	-125.694437	-78.367627	62.933573
08887		9.523450	-1.054622	-1.394251	-0.046964	0.010564	0.387248	-125.088535	-78.188354	62.286854
08888		9.634847	-1.387332	-1.360574	-0.056236	0.034200	0.377481	-124.469739	-78.018897	61.621136
08889		9.629445	-1.706908	-1.480482	-0.083161	0.025170	0.341839	-123.956253	-77.863181	61.046910
08890		9.713242	-1.926834	-1.238915	-0.029285	0.019041	0.326133	-123.463094	-77.710851	60.524742
08891		9.666669	-2.344480	-0.928243	-0.003167	0.020603	0.329396	-122.958439	-77.557592	60.005812
08892		9.523660	-2.311312	-0.989897	0.082021	0.014777	0.355731	-122.395078	-77.387680	59.476429
08893		9.482030	-2.006253	-1.006079	0.122705	0.013712	0.366723	-121.809733	-77.212085	58.948040
08894		9.453240	-1.830293	-1.142093	0.102728	0.022663	0.367671	-121.231407	-77.036404	58.414749
08895		9.595675	-1.718006	-1.155164	0.084115	0.011123	0.349358	-120.724954	-76.866331	57.943912
08896		9.732699	-2.000859	-0.882162	0.033661	0.022442	0.339208	-120.249328	-76.702538	57.474726
08897		9.677621	-2.259033	-0.999211	0.066691	0.022327	0.337151	-119.768079	-76.539958	57.018897
08898		9.611358	-2.283009	-0.900930	0.104587	0.010231	0.346746	-119.291118	-76.367193	56.589491
08899		9.521371	-2.080821	-0.860599	0.171375	-0.002526	0.358338	-118.799555	-76.185336	56.184125
08900		9.557481	-1.548693	-1.133888	0.203387	-0.020691	0.379020	-118.316328	-75.986182	55.805907
08901		9.718589	-1.165127	-1.072066	0.181504	-0.006925	0.397172	-117.810012	-75.781884	55.390626
08902		9.596543	-0.962628	-1.053231	0.115369	-0.007226	0.413150	-117.339505	-75.567509	54.972794
08903		9.551297	-0.933474	-1.415459	0.028258	-0.027879	0.424796	-116.959325	-75.342059	54.596318
08904		9.474405	-1.200597	-1.263730	-0.023672	-0.020509	0.443717	-116.588848	-75.107305	54.198679
08905		9.357222	-1.577499	-1.266001	-0.029097	-0.021300	0.468497	-116.210419	-74.859885	53.789175
08906		9.281935	-1.928307	-1.357553	-0.043955	-0.023257	0.498297	-115.831128	-74.595099	53.369412
08907		9.247604	-2.367771	-1.472711	0.017477	-0.025498	0.513597	-115.419689	-74.321929	52.952316
08908		9.452631	-2.599614	-1.396556	0.078463	-0.014944	0.511552	-114.971797	-74.050738	52.533037
08909		9.548082	-2.774275	-1.234708	0.116570	0.001135	0.514629	-114.483793	-73.781697	52.094226
08910		9.732659	-2.767419	-1.231111	0.165638	-0.002857	0.513499	-113.992428	-73.510438	51.680545
08911		9.884434	-2.267865	-1.240014	0.206412	0.007938	0.519373	-113.467589	-73.238401	51.255794
08912		9.944319	-1.871882	-1.147669	0.190544	0.029644	0.540867	-112.915296	-72.957992	50.792158
08913		9.801905	-1.573990	-1.089916	0.185476	0.046432	0.563516	-112.336269	-72.668802	50.296865
08914		9.656865	-1.458458	-1.226754	0.172279	0.039076	0.603154	-111.769677	-72.354822	49.805778
08915		9.598093	-1.604865	-1.349433	0.196716	0.041462	0.648841	-111.172736	-72.016204	49.296720
08916		9.731968	-1.680148	-1.448200	0.228242	0.043984	0.688214	-110.551935	-71.654800	48.780435
08917		9.975137	-1.704933	-1.552576	0.257913	0.047182	0.726673	-109.906944	-71.272176	48.255571
08918		10.057446	-1.805273	-1.417897	0.252074	0.058757	0.754850	-109.256992	-70.874244	47.720567
08919		10.171427	-2.050258	-1.017804	0.266055	0.071017	0.779455	-108.589525	-70.463736	47.174325
08920		10.101030	-2.284589	-0.930015	0.233227	0.086179	0.795529	-107.936869	-70.044829	46.622261
08921		9.911317	-2.553758	-0.751228	0.189325	0.105319	0.809973	-107.296704	-69.619587	46.055399
08922		9.710712	-2.788728	-0.608744	0.175404	0.093378	0.824844	-106.701702	-69.181914	45.526490
08923		9.599280	-3.048789	-0.703697	0.157864	0.071597	0.836967	-106.163425	-68.732424	45.046217
08924		9.513025	-3.180755	-0.857388	0.116373	0.068059	0.837731	-105.676016	-68.280308	44.593400
08925		9.437350	-3.280047	-1.018689	0.089204	0.076766	0.840080	-105.208422	-67.826976	44.143928
08926		9.384485	-3.413725	-1.214855	0.056307	0.075247	0.838123	-104.782182	-67.373130	43.717140
08927		9.343053	-3.514795	-1.418122	0.055903	0.083291	0.828461	-104.363699	-66.924684	43.297321
08928		9.357071	-3.638331	-1.453746	0.044658	0.090411	0.816961	-103.963773	-66.482430	42.889070
08929		9.399006	-3.841318	-1.367584	0.054280	0.086578	0.797817	-103.581923	-66.049254	42.505456
08930		9.381515	-4.136912	-1.289413	0.090466	0.087682	0.792943	-103.194862	-65.617893	42.137312
08931		9.443748	-4.276346	-0.952671	0.150306	0.093751	0.775476	-102.782331	-65.196041	41.777875
08932		9.384741	-4.278256	-0.839087	0.217042	0.075610	0.765520	-102.370581	-64.776408	41.460000
08933		9.427202	-4.088904	-0.796792	0.247697	0.068636	0.753758	-101.962350	-64.361585	41.164652
08934		9.459172	-3.775806	-0.582567	0.275413	0.066109	0.756239	-101.553373	-63.944185	40.884807
08935		9.383715	-3.549797	-0.467407	0.284128	0.068549	0.758559	-101.145008	-63.524888	40.610494
08936		9.179526	-3.386983	-0.398594	0.305614	0.074760	0.756727	-100.729902	-63.106529	40.341129
08937		8.966659	-3.272800	-0.566232	0.259498	0.068893	0.770218	-100.353296	-62.679033	40.084608
08938		8.943405	-3.375152	-0.513924	0.226926	0.085703	0.784350	-99.985498	-62.244727	39.815685
08939		8.891683	-3.591054	-0.490392	0.264724	0.073790	0.796251	-99.614646	-61.801533	39.567031
08940		8.850850	-3.716496	-0.707618	0.302940	0.077589	0.806921	-99.227058	-61.352223	39.322909
08941		8.686966	-3.861574	-0.774595	0.352258	0.078397	0.818503	-98.816717	-60.895308	39.084311
08942		8.464144	-3.919239	-0.704018	0.392568	0.065605	0.828604	-98.405829	-60.431167	38.870199
08943		8.325210	-3.927785	-0.658525	0.477314	0.045984	0.852618	-97.970502	-59.950632	38.683190
08944		8.220883	-3.947063	-0.652810	0.524727	0.024954	0.876845	-97.536059	-59.454504	38.527415
08945		8.151382	-4.023403	-0.629690	0.546307	0.027584	0.887266	-97.093111	-58.951576	38.375660
08946		8.011197	-4.088054	-0.566120	0.556648	0.016015	0.896216	-96.664308	-58.442735	38.246239
08947		7.938298	-4.126341	-0.421257	0.558199	0.004640	0.904830	-96.251031	-57.927223	38.135770
08948		7.863940	-4.274838	-0.302031	0.539057	-0.003047	0.917594	-95.863321	-57.404193	38.041588
08949		7.835999	-4.510823	-0.096526	0.515118	-0.026259	0.930919	-95.514142	-56.871317	37.976757
08950		7.733987	-4.811170	0.025305	0.473943	-0.044888	0.932289	-95.211498	-56.337136	37.938647
08951		7.663995	-5.092362	0.007784	0.431279	-0.055873	0.924052	-94.946592	-55.806332	37.916686
08952		7.680749	-5.265047	0.042610	0.383995	-0.062885	0.921086	-94.719614	-55.277515	37.907376
08953		7.711010	-5.454039	0.126561	0.370644	-0.057162	0.919846	-94.497712	-54.748971	37.895221
08954		7.707367	-5.585494	0.251852	0.345951	-0.038222	0.920875	-94.278763	-54.221322	37.868897
08955		7.586432	-5.663482	0.227171	0.345932	-0.052048	0.913130	-94.073255	-53.696792	37.859344
08956		7.605694	-5.709346	0.263530	0.335975	-0.049425	0.906773	-93.875252	-53.176648	37.851660
08957		7.409163	-6.031797	0.265741	0.281283	-0.036922	0.885824	-93.701691	-52.668275	37.835594
08958		7.217253	-6.421743	0.455676	0.221849	-0.048757	0.860522	-93.574846	-52.174559	37.835119
08959		7.160375	-6.680288	0.177985	0.244593	-0.060807	0.841601	-93.445334	-51.690598	37.848085
08960		7.028928	-6.801366	0.052913	0.324568	-0.060158	0.818783	-93.272497	-51.220297	37.864092
08961		7.003403	-6.888682	0.234301	0.422373	-0.055921	0.795384	-93.042810	-50.762988	37.879399
08962		7.048087	-6.857093	0.210314	0.464666	-0.069490	0.783007	-92.801330	-50.312876	37.910706
08963		7.190637	-6.769410	0.118122	0.510819	-0.066191	0.761674	-92.533375	-49.874686	37.942387
08964		7.340915	-6.523091	0.253509	0.520173	-0.031506	0.749177	-92.239576	-49.444978	37.947216
08965		7.364304	-6.347834	0.179781	0.520068	-0.023923	0.741236	-91.943126	-49.019601	37.948676
08966		7.364586	-6.009207	0.209363	0.544879	-0.016185	0.748790	-91.630117	-48.590429	37.946882
08967		7.326476	-5.825509	0.132036	0.521052	0.000313	0.762190	-91.322242	-48.153443	37.933831
08968		7.221242	-5.826854	0.159005	0.467674	0.015930	0.770798	-91.037824	-47.712094	37.910964
08969		7.220205	-5.830972	0.225068	0.457719	0.022189	0.777634	-90.757524	-47.266391	37.885913
08970		7.292697	-5.823060	0.249690	0.417809	0.031084	0.775342	-90.497373	-46.822458	37.856859
08971		7.323661	-6.472244	-0.023098	0.299485	0.023187	0.759878	-90.311826	-46.386803	37.837076
08972		7.337404	-7.047474	0.206110	0.201499	0.042142	0.728980	-90.172848	-45.969386	37.803788
08973		7.043553	-7.491262	0.036228	0.173303	0.053350	0.718325	-90.044623	-45.557508	37.762821
08974		6.827908	-7.656483	-0.297936	0.228087	0.046975	0.711553	-89.890292	-45.149942	37.728907
08975		6.720338	-7.719909	-0.461216	0.336858	0.071640	0.712281	-89.661099	-44.741327	37.677086
08976		6.681707	-7.400239	-0.290641	0.462036	0.090574	0.706776	-89.352083	-44.336033	37.613219
08977		6.696917	-6.739010	-0.080169	0.542869	0.091530	0.703164	-88.998903	-43.932115	37.552101
08978		6.809806	-6.092296	0.018970	0.564759	0.109615	0.680363	-88.626273	-43.541184	37.480397
08979		6.912180	-5.996090	0.105883	0.423130	0.127753	0.657648	-88.327259	-43.162279	37.397366
08980		6.899307	-6.242076	0.422398	0.246742	0.107666	0.630011	-88.142033	-42.799795	37.332264
08981		6.889734	-6.360104	0.515765	0.071862	0.077246	0.634891	-88.074188	-42.434496	37.292252
08982		6.922298	-6.508840	0.082577	-0.004690	0.070683	0.651656	-88.054705	-42.060269	37.258511
08983		7.067488	-6.729070	-0.083100	0.050250	0.100695	0.675381	-87.989125	-41.671277	37.202756
08984		7.214896	-6.729201	-0.030219	0.176817	0.134423	0.692632	-87.835661	-41.272266	37.123203
08985		7.430892	-6.539321	0.264234	0.267378	0.137094	0.688061	-87.630496	-40.874986	37.043466
08986		7.668268	-6.381800	0.295624	0.339559	0.115539	0.677306	-87.396607	-40.484923	36.982295
08987		8.057719	-6.002648	0.226795	0.398815	0.081121	0.672761	-87.147079	-40.097454	36.949133
08988		8.103322	-5.608469	0.396280	0.253358	0.059976	0.697403	-86.993273	-39.697365	36.934817
08989		7.836273	-5.630826	0.434277	0.115683	0.017205	0.742448	-86.940143	-39.271834	36.954837
08990		7.594534	-5.392152	1.051699	-0.105377	-0.043864	0.804302	-87.043375	-38.813940	37.022024
08991		7.659702	-5.650001	1.156603	-0.296666	-0.093916	0.863053	-87.278381	-38.322495	37.125650
08992		8.412055	-6.520654	0.475552	-0.297243	-0.097928	0.894392	-87.513527	-37.814331	37.230025
08993		9.168316	-7.148590	-1.116386	-0.433085	0.051770	0.870135	-87.757256	-37.314735	37.222097
08994		8.395618	-7.490250	-2.536537	-0.586095	0.273801	0.727338	-87.988884	-36.893923	37.048533
08995		7.246949	-7.077692	-1.508937	-0.509432	0.304626	0.553730	-88.161041	-36.570706	36.847643
08996		6.803508	-7.078658	0.182864	-0.413872	0.246365	0.432080	-88.302541	-36.320533	36.685508
08997		6.752751	-7.587376	0.956594	-0.379644	0.171026	0.363307	-88.455102	-36.109401	36.574845
08998		6.959434	-8.051287	0.437221	-0.504120	0.091179	0.329954	-88.712201	-35.920833	36.519753
08999		7.148043	-8.299998	-0.269428	-0.507899	0.067395	0.311904	-88.980355	-35.741078	36.479997
09000		6.973236	-8.162086	-0.513897	-0.374609	0.045361	0.268818	-89.180920	-35.588432	36.454734
09001		6.757145	-8.313107	-0.315900	-0.182588	0.099238	0.235149	-89.248672	-35.452612	36.390558
09002		6.514781	-8.533464	-0.169151	0.080577	0.245185	0.245203	-89.107018	-35.311957	36.224448
09003		6.532717	-8.482323	-0.811737	0.208340	0.307082	0.267269	-88.867690	-35.155425	36.015788
09004		6.674096	-8.243495	-1.478749	0.261866	0.192701	0.273843	-88.645409	-34.998056	35.888798
09005		6.614861	-8.049644	-1.453256	0.336166	0.001597	0.268520	-88.457238	-34.843940	35.895815
09006		6.480200	-7.688907	-1.510309	0.364120	-0.166388	0.252376	-88.320661	-34.704054	36.020630
09007		6.441032	-7.258787	-1.337775	0.518898	-0.341346	0.186034	-88.163084	-34.603238	36.265625
09008		6.853211	-6.602830	0.218466	0.608012	-0.423583	0.082095	-87.986309	-34.566466	36.566152
09009		6.821681	-5.839780	1.192380	0.550160	-0.375953	-0.110198	-87.820345	-34.637184	36.828243
09010		6.565543	-5.472284	1.815181	0.410051	-0.275033	-0.356605	-87.692304	-34.849808	37.014101
09011		6.409664	-5.790180	1.752850	0.262113	-0.163432	-0.646529	-87.599429	-35.223529	37.113183
09012		6.396113	-6.325551	0.954660	0.082162	0.018942	-0.952627	-87.531196	-35.770886	37.075266
09013		6.202079	-7.025410	0.267132	0.038962	0.136524	-1.230954	-87.431676	-36.471814	36.943601
09014		6.144279	-7.883823	0.002516	0.112498	0.123361	-1.417036	-87.289371	-37.282214	36.812520
09015		6.211013	-8.445541	-0.191660	0.275501	0.050705	-1.529736	-87.078345	-38.155978	36.724919
09016		6.292417	-8.351374	0.081229	0.483651	-0.026259	-1.590017	-86.777605	-39.069105	36.685734
09017		6.520639	-7.694899	0.853491	0.599560	-0.130317	-1.612818	-86.453287	-39.995779	36.715253
09018		6.783602	-6.893933	1.443113	0.605827	-0.185577	-1.652024	-86.148135	-40.949829	36.778649
09019		6.771591	-6.027234	2.022468	0.538073	-0.111806	-1.742029	-85.837557	-41.949807	36.774571
09020		6.297085	-5.329059	2.526496	0.314183	-0.001535	-1.905917	-85.587094	-43.041546	36.669240
09021		5.826589	-5.040215	2.707092	-0.024239	0.083396	-2.099903	-85.469177	-44.237171	36.477649
09022		5.662393	-4.385378	2.457329	-0.500637	0.122736	-2.297507	-85.587388	-45.546848	36.237940
09023		5.829682	-3.951218	2.415989	-1.063012	0.130113	-2.460814	-86.014312	-46.947386	35.985180
09024		6.233266	-3.854256	2.464404	-1.517142	0.107862	-2.595310	-86.715678	-48.430297	35.757564
09025		6.815474	-4.283904	2.152170	-1.716957	0.083214	-2.711971	-87.558013	-49.979581	35.570155
09026		7.268209	-5.065673	1.528798	-1.813330	0.113885	-2.803321	-88.451971	-51.585352	35.382573
09027		7.441728	-5.991400	0.481284	-1.875517	0.165785	-2.912863	-89.365962	-53.251859	35.179312
09028		7.816485	-7.082459	-0.435647	-1.766463	0.232158	-3.031357	-90.188461	-54.990915	34.944946
09029		7.948114	-7.745691	-0.688172	-1.393344	0.327575	-3.123520	-90.735586	-56.781624	34.640983
09030		7.711946	-8.000204	-0.274565	-0.940200	0.396678	-3.192792	-90.961775	-58.616660	34.270945
09031		7.369689	-7.664385	0.157341	-0.493621	0.371072	-3.242827	-90.940613	-60.477536	33.917841
09032		7.323828	-7.000415	0.338278	-0.166993	0.303389	-3.294609	-90.773644	-62.369832	33.618481
09033		7.519898	-6.233522	0.433256	0.045703	0.254533	-3.359359	-90.505792	-64.295725	33.347617
09034		7.695294	-5.493602	0.298029	0.171117	0.262138	-3.411355	-90.109617	-66.253061	33.019152
09035		7.857010	-4.840579	0.005507	0.185881	0.268048	-3.440969	-89.633519	-68.223899	32.617957
09036		8.063930	-4.171671	0.075167	0.136499	0.250386	-3.440595	-89.127521	-70.195412	32.160136
09037		8.257038	-3.680184	0.396612	0.044560	0.229348	-3.420065	-88.611777	-72.151705	31.641847
09038		8.474751	-3.256800	0.775054	-0.012473	0.204541	-3.401235	-88.053337	-74.098041	31.050567
09039		8.656609	-3.135290	0.660149	-0.164290	0.198248	-3.379767	-87.447881	-76.028341	30.326172
09040		8.848899	-3.506740	0.246964	-0.268792	0.227258	-3.367883	-86.615989	-77.950476	29.314081
09041		9.011768	-4.010769	-0.285854	-0.239386	0.276688	-3.356546	-85.267306	-79.857594	27.799705
09042		9.016992	-4.303744	-0.510177	-0.108822	0.308569	-3.351797	-83.048092	-81.752085	25.488383
09043		9.096439	-4.288415	-0.669666	0.103106	0.309393	-3.339009	-79.367936	-83.616630	21.837667
09044		9.270550	-4.282305	-0.451337	0.337082	0.345675	-3.353361	-72.275484	-85.435873	14.907306
09045		9.449479	-3.789191	-0.379706	0.485746	0.379562	-3.372961	-56.085489	-87.097712	-1.036519
09046		9.559878	-3.055697	-0.589827	0.487521	0.387376	-3.365359	-14.339744	-88.095227	-42.535303
09047		9.539288	-2.443956	-0.377361	0.528944	0.365413	-3.323506	35.122002	-87.494108	-91.725908
09048		9.583868	-1.509412	0.328733	0.551090	0.333861	-3.253469	56.134125	-86.004937	-112.453614
09049		9.687452	-0.644841	0.620065	0.419691	0.297370	-3.141712	65.115464	-84.349571	-121.224915
09050		10.048779	0.199107	0.439032	0.203577	0.290898	-2.988224	69.695505	-82.704203	-125.716925
09051		10.395769	0.960542	-0.121049	-0.138826	0.335214	-2.814032	72.071906	-81.118771	-128.197732
09052		10.747041	1.263585	-0.324744	-0.455697	0.377180	-2.617894	73.244144	-79.622978	-129.651923
09053		11.177885	1.317492	-0.009679	-0.679989	0.411245	-2.379027	73.695411	-78.250289	-130.509104
09054		11.258146	1.112272	0.104907	-0.866494	0.464141	-2.092415	73.586269	-77.025600	-130.906094
09055		10.722095	0.456522	0.345621	-0.933012	0.472776	-1.810583	73.214915	-75.955199	-131.074404
09056		9.986396	-0.198012	0.686855	-0.941524	0.436258	-1.537610	72.757099	-75.040385	-131.159215
09057		9.259837	-0.693510	1.070130	-0.953695	0.343049	-1.275712	72.335175	-74.285332	-131.288760
09058		8.708735	-1.197623	0.726188	-0.895662	0.258485	-1.013949	71.959120	-73.688017	-131.431933
09059		8.141715	-1.157728	0.021571	-0.760514	0.183286	-0.721066	71.630262	-73.263956	-131.543863
09060		8.207796	-1.468534	-0.427349	-0.446646	0.008126	-0.388344	71.598620	-73.052774	-131.778716
09061		8.734478	-1.313467	-0.844453	0.021752	-0.122002	-0.031287	71.855242	-73.058879	-132.034396
09062		9.228755	-0.192185	-1.414510	0.189447	-0.247285	0.334002	72.221441	-73.286437	-132.304086
09063		10.050567	1.334469	-2.783839	0.146265	-0.403582	0.598645	72.708487	-73.684346	-132.725115
09064		10.588095	2.839627	-1.631500	0.442466	-0.575234	0.672485	73.678406	-74.150565	-133.471093
09065		10.883279	4.022861	-0.476728	0.486685	-0.654789	0.457678	75.001287	-74.505439	-134.555865
09066		11.794182	2.965254	1.087581	1.273633	-0.652238	0.146018	76.983222	-74.679012	-135.855047
09067		12.133508	4.558688	3.320374	1.400456	-0.408811	0.067179	78.603213	-74.767097	-136.703020
09068		11.098336	4.303245	2.482497	0.712614	-0.237927	0.139425	79.458645	-74.873159	-137.166679
09069		10.168286	4.350890	3.103992	0.550253	-0.317217	0.333371	80.325476	-75.093942	-137.738175
09070		10.178220	4.585437	2.286635	-0.047373	-0.494913	0.555317	81.178261	-75.454984	-138.648418
09071		10.684476	4.228965	1.759533	-0.370484	-0.483915	0.647976	81.834232	-75.863904	-139.545015
09072		10.636372	3.967348	2.240418	-0.642755	-0.304835	0.624218	81.969092	-76.243766	-140.063913
09073		10.222808	2.666221	2.033237	-1.084025	-0.124259	0.549028	81.462595	-76.566066	-140.182255
09074		9.839627	1.489693	1.564103	-1.303271	-0.096093	0.484400	80.774196	-76.849880	-140.242727
09075		9.806656	0.428707	0.661322	-1.329268	-0.127415	0.461279	80.145695	-77.123430	-140.379784
09076		9.808629	-0.040844	-0.082143	-1.199062	-0.194428	0.492949	79.735293	-77.422262	-140.663932
09077		10.045250	-0.562033	-0.776109	-0.918235	-0.286283	0.538117	79.704216	-77.755754	-141.171240
09078		10.127296	-0.369049	-1.349058	-0.525659	-0.361732	0.562753	80.103351	-78.111082	-141.887919
09079		10.040107	-0.042908	-1.692666	-0.210978	-0.371377	0.552037	80.753168	-78.459179	-142.675438
09080		9.758101	0.190977	-1.534174	0.135763	-0.373833	0.504448	81.675143	-78.779296	-143.537033
09081		9.376744	0.239828	-1.426537	0.428872	-0.388853	0.472986	82.876402	-79.078523	-144.511110
09082		9.160292	0.462002	-1.119947	0.655738	-0.458242	0.478583	84.479121	-79.381826	-145.760528
09083		9.391999	1.063263	-0.735207	0.736626	-0.508204	0.494639	86.364528	-79.688175	-147.249051
09084		9.823740	1.902428	-0.228826	0.689750	-0.498820	0.493921	88.294683	-79.985964	-148.808836
09085		10.243211	2.639403	0.114214	0.545522	-0.439057	0.487169	90.044839	-80.269130	-150.268459
09086		10.253682	2.902764	0.114089	0.336002	-0.362105	0.489066	91.504875	-80.548053	-151.554303
09087		10.014820	2.808239	0.220906	0.148009	-0.316321	0.493916	92.774990	-80.824353	-152.755871
09088		9.839933	2.506056	0.139489	-0.089727	-0.286336	0.509510	93.879015	-81.107545	-153.926174
09089		9.859089	2.192176	0.220603	-0.291397	-0.263486	0.520655	94.855444	-81.393659	-155.083447
09090		9.855401	1.941428	0.202212	-0.474467	-0.250718	0.538177	95.757272	-81.688489	-156.270393
09091		9.857068	1.336182	-0.093344	-0.575572	-0.222085	0.543422	96.561334	-81.984472	-157.416262
09092		9.752489	0.904869	-0.355357	-0.520508	-0.227711	0.548207	97.500289	-82.281207	-158.665564
09093		9.660597	0.511260	-0.638490	-0.366528	-0.245216	0.553007	98.693036	-82.575098	-160.081076
09094		9.520714	0.435218	-0.806876	-0.214458	-0.251841	0.553242	100.114299	-82.865143	-161.638110
09095		9.326674	0.770368	-0.814876	-0.138046	-0.266182	0.550737	101.766201	-83.145874	-163.382503
09096		9.294215	0.891860	-0.536150	-0.119647	-0.269367	0.541065	103.580477	-83.415231	-165.278681
09097		9.420652	0.940364	-0.576320	-0.093682	-0.260542	0.533456	105.506276	-83.673291	-167.271205
09098		9.408788	0.442034	-0.539241	0.012228	-0.295027	0.536236	107.844719	-83.919651	-169.616688
09099		9.677860	0.301001	-0.629325	0.157113	-0.325192	0.522151	110.584668	-84.140323	-172.281482
09100		9.870850	0.259325	-0.285866	0.273297	-0.282623	0.530052	113.396101	-84.361576	-174.950049
09101		9.765593	0.137533	-0.252308	0.252885	-0.278694	0.535789	116.397590	-84.572035	-177.820431
09102		9.614408	-0.049755	-0.376681	0.275792	-0.293831	0.536139	119.732808	-84.763899	178.988266
09103		9.806492	-0.334967	-0.211895	0.322001	-0.291782	0.533460	123.299718	-84.936007	175.591728
09104		10.089090	-0.569950	-0.079931	0.450491	-0.274195	0.566672	127.223165	-85.110104	171.912235
09105		10.225770	-0.525286	-0.445137	0.474010	-0.263362	0.592839	131.471740	-85.275729	167.920803
09106		9.994204	-0.116898	-0.698679	0.522480	-0.263089	0.587548	136.009467	-85.414030	163.668131
09107		9.709272	0.427067	-0.800391	0.471651	-0.243807	0.545889	140.421005	-85.516521	159.513415
09108		9.575762	0.924923	-0.590051	0.379361	-0.213145	0.495367	144.532628	-85.591301	155.607123
09109		9.595976	1.005457	-0.590009	0.154884	-0.185406	0.474323	148.370000	-85.650881	151.847104
09110		9.537664	0.565105	-0.802391	-0.037916	-0.161645	0.464760	152.053468	-85.701085	148.131058
09111		9.530469	0.009885	-0.994384	-0.122679	-0.157669	0.450274	155.627112	-85.731429	144.476500
09112		9.472468	-0.672525	-1.038505	-0.119122	-0.162298	0.425366	159.092149	-85.737299	140.933125
09113		9.511968	-1.005111	-1.033563	-0.007786	-0.177363	0.404770	162.482552	-85.715149	137.528377
09114		9.684476	-1.102472	-1.010801	0.150397	-0.214029	0.406639	166.018023	-85.657884	134.069024
09115		9.885024	-0.964148	-0.857399	0.275660	-0.212846	0.412312	169.541187	-85.586039	130.693537
09116		9.953782	-0.442815	-0.877015	0.352163	-0.206540	0.417150	173.036135	-85.502477	127.390144
09117		9.908752	0.071829	-0.917508	0.381385	-0.211292	0.420950	176.421365	-85.401322	124.213012
09118		9.740311	0.657360	-0.791763	0.336912	-0.198369	0.415136	179.609571	-85.292914	121.207709
09119		9.625859	0.996914	-0.518462	0.219761	-0.182899	0.396633	-177.556448	-85.181259	118.489840
09120		9.504266	1.031502	-0.526320	0.021043	-0.156216	0.379770	-175.044727	-85.074691	115.980872
09121		9.559975	0.708203	-0.644319	-0.162612	-0.145289	0.372984	-172.799557	-84.966472	113.633253
09122		9.724914	0.301578	-0.901952	-0.247681	-0.132944	0.382497	-170.614534	-84.856190	111.296862
09123		9.780754	-0.030573	-1.060677	-0.265455	-0.126954	0.396552	-168.459308	-84.740586	108.979580
09124		9.698778	-0.130827	-1.215669	-0.222140	-0.121055	0.390463	-166.392421	-84.620788	106.775675
09125		9.565418	-0.110739	-1.227944	-0.196403	-0.120364	0.381791	-164.468491	-84.496223	104.729575
09126		9.444604	-0.113985	-1.102340	-0.155949	-0.123860	0.375124	-162.642148	-84.363823	102.804542
09127		9.415664	-0.198574	-1.368508	-0.164356	-0.127455	0.362890	-160.992561	-84.226802	101.051687
09128		9.481532	-0.207804	-1.521817	-0.172419	-0.128355	0.357962	-159.443825	-84.084628	99.395306
09129		9.632133	-0.160128	-1.472455	-0.193188	-0.115740	0.346845	-158.023877	-83.948026	97.855862
09130		9.727314	-0.261436	-1.384384	-0.241687	-0.106876	0.339169	-156.706404	-83.813090	96.391323
09131		9.711417	-0.519144	-1.306855	-0.247360	-0.091100	0.327317	-155.483395	-83.686688	95.018004
09132		9.612526	-0.588751	-1.276791	-0.224010	-0.087394	0.320037	-154.314988	-83.559885	93.712931
09133		9.507930	-0.460235	-1.415691	-0.221527	-0.077240	0.296361	-153.284267	-83.442557	92.547374
09134		9.437387	-0.029295	-1.360980	-0.271568	-0.056735	0.274564	-152.360682	-83.338077	91.460726
09135		9.373993	0.213125	-1.292911	-0.432960	-0.030065	0.253472	-151.595826	-83.252023	90.440403
09136		9.411135	-0.240109	-1.367710	-0.562813	-0.033212	0.239058	-150.988250	-83.165830	89.503536
09137		9.648748	-0.892200	-1.431393	-0.542448	-0.044905	0.244200	-150.401382	-83.072315	88.598931
09138		9.865852	-1.332101	-1.383413	-0.404600	-0.050846	0.244352	-149.763269	-82.973494	87.722257
09139		9.759081	-1.267349	-1.346923	-0.321296	-0.038713	0.239488	-149.095273	-82.882036	86.863215
09140		9.680203	-1.262686	-1.137286	-0.356090	-0.040640	0.220342	-148.538991	-82.792946	86.096683
09141		9.811788	-1.442946	-0.902544	-0.307749	-0.052082	0.237222	-147.940565	-82.693484	85.315249
09142		10.141652	-1.855029	-0.911196	-0.151293	-0.068499	0.279278	-147.149313	-82.570666	84.429765
09143		10.125277	-1.742786	-1.029251	0.035363	-0.058274	0.296742	-146.197902	-82.446840	83.490175
09144		9.802899	-1.113057	-0.874784	0.162467	-0.041535	0.281774	-145.210384	-82.332350	82.587566
09145		9.506928	-0.514914	-0.927727	0.090084	-0.041836	0.271604	-144.333458	-82.220530	81.754274
09146		9.484151	-0.134469	-1.246118	-0.021901	-0.033087	0.278415	-143.494543	-82.107425	80.894553
09147		9.618819	-0.270626	-1.431422	-0.081805	-0.019676	0.291581	-142.643738	-81.995598	79.987745
09148		9.726743	-0.630315	-1.595545	-0.096572	-0.004192	0.296875	-141.765563	-81.885668	79.044684
09149		9.687260	-1.088905	-1.686046	-0.080664	0.005471	0.279945	-140.935502	-81.785547	78.159008
09150		9.577512	-1.412555	-1.633963	-0.033000	-0.007373	0.264897	-140.172432	-81.682049	77.368575
09151		9.531668	-1.556338	-1.519138	0.060595	-0.020055	0.261198	-139.422111	-81.574320	76.644840
09152		9.558646	-1.494856	-1.386771	0.163169	-0.010697	0.266307	-138.589896	-81.465748	75.897706
09153		9.478641	-1.113396	-1.504989	0.191529	0.005775	0.262241	-137.734839	-81.365683	75.143517
09154		9.418327	-0.654286	-1.462970	0.161223	0.002777	0.256446	-136.935446	-81.263405	74.428054
09155		9.424823	-0.381120	-1.239822	0.154214	0.001298	0.249261	-136.183936	-81.163483	73.756601
09156		9.517026	-0.256676	-0.810078	0.095739	0.001397	0.249077	-135.479090	-81.060803	73.098457
09157		9.613891	-0.586558	-0.574249	-0.015840	-0.015635	0.263260	-134.863511	-80.945890	72.465596
09158		9.839211	-0.692794	-0.595779	-0.063614	-0.002403	0.278394	-134.217269	-80.827530	71.773912
09159		9.867376	-0.489952	-0.677387	-0.148393	-0.005658	0.282859	-133.636157	-80.706372	71.098607
09160		10.100084	-0.469972	-1.094098	-0.160461	0.007860	0.278519	-133.052081	-80.589819	70.413210
09161		9.878201	-0.439510	-0.792930	-0.149318	0.052742	0.262993	-132.401684	-80.497484	69.666695
09162		9.633538	-0.855514	-0.673531	-0.249374	0.059926	0.235888	-131.863300	-80.416810	68.975577
09163		9.522853	-1.174514	-0.861766	-0.365606	0.043011	0.239185	-131.438497	-80.328675	68.331810
09164		9.574767	-1.183090	-0.974939	-0.395540	0.012057	0.252029	-131.088787	-80.221276	67.746769
09165		9.701981	-1.091744	-1.299933	-0.406659	-0.002747	0.261265	-130.774153	-80.105062	67.190538
09166		9.736761	-1.234809	-1.394034	-0.454799	0.050268	0.258851	-130.369540	-80.007759	66.514893
09167		9.646728	-1.453251	-1.272841	-0.448084	0.047438	0.248237	-130.001603	-79.914575	65.880083
09168		9.689254	-1.790863	-1.380642	-0.396582	0.037421	0.248640	-129.636423	-79.815514	65.277977
09169		9.716128	-2.046823	-1.546992	-0.282074	0.019988	0.250902	-129.254341	-79.709736	64.725054
09170		9.759138	-2.118734	-1.750715	-0.095405	0.038195	0.251713	-128.728606	-79.608001	64.134763
09171		9.666278	-1.873539	-1.392863	0.044675	0.065740	0.246048	-128.078302	-79.518917	63.499118
