// General information: 
//  MT Manager version: 2022.2.0 
//  XDA version: 2022.2.0 build 7381 rev 124627 built on 2023-07-19
// Device information: 
//  DeviceId: 00B4BB4F
//  ProductCode: MTW2-3A7G6
//  Firmware Version: 4.6.0
//  Hardware Version: 2.0.0
// Device settings: 
//  Filter Profile: human(46.1)
//  Option Flags: Orientation Smoother Disabled, Position/Velocity Smoother Disabled, Continuous Zero Rotation Update Disabled, AHS Disabled, ICC Disabled
// Coordinate system: ENU
PacketCounter	SampleTimeFine	Acc_X	Acc_Y	Acc_Z	Gyr_X	Gyr_Y	Gyr_Z	Roll	Pitch	Yaw
45786		-0.373374	9.728401	1.429744	-0.045316	0.008529	-0.010396	81.095047	1.900164	113.682792
45787		-0.369550	9.567163	1.536539	-0.039909	0.009401	0.000447	81.073166	1.902181	113.687690
45788		-0.396744	9.775370	1.506850	-0.016047	0.005280	-0.005663	81.064956	1.907774	113.692904
45789		-0.328579	9.597524	1.525791	-0.052305	0.012404	0.005092	81.036042	1.907433	113.699916
45790		-0.279474	9.666909	1.497311	-0.021560	0.001814	-0.006249	81.024699	1.912948	113.699088
45791		-0.399011	9.682508	1.519154	-0.042840	0.004608	0.007446	81.001069	1.910581	113.701897
45792		-0.356849	9.623075	1.550309	-0.024917	0.004232	0.011472	80.987868	1.906214	113.703807
45793		-0.337960	9.718646	1.494070	-0.042727	0.007236	-0.002832	80.964322	1.909902	113.707181
45794		-0.340933	9.608783	1.571840	-0.051916	0.007372	0.009969	80.935711	1.906708	113.711176
45795		-0.336171	9.644974	1.475479	-0.019791	0.004122	0.002372	80.925263	1.907172	113.713254
45796		-0.424172	9.707924	1.593154	-0.033131	0.009848	0.002124	80.907455	1.908645	113.717179
45797		-0.317635	9.559657	1.509672	-0.015775	0.007119	0.006176	80.899376	1.907230	113.721299
45798		-0.287611	9.696142	1.520729	-0.009397	0.003947	-0.001791	80.895219	1.910465	113.717040
45799		-0.404284	9.640513	1.556233	-0.016402	0.008650	0.005613	80.886808	1.909508	113.721975
45800		-0.333941	9.644658	1.525869	-0.002197	0.005785	-0.006013	80.886644	1.915147	113.720571
45801		-0.356293	9.692297	1.597176	-0.016084	0.007456	0.009940	80.878407	1.911634	113.725222
45802		-0.365232	9.652639	1.570891	0.001447	0.003480	0.004306	80.880267	1.911406	113.729096
45803		-0.390850	9.698448	1.557799	-0.021412	0.011393	0.004432	80.869034	1.911368	113.735476
45804		-0.326411	9.681815	1.472505	-0.013084	-0.001099	0.006819	80.862487	1.909130	113.733909
45805		-0.348361	9.638913	1.588899	-0.021844	0.009963	0.010366	80.850998	1.905606	113.740021
45806		-0.364536	9.650817	1.534978	-0.021782	0.006097	0.010936	80.839474	1.901821	113.749414
45807		-0.337692	9.604615	1.550661	-0.013454	0.003105	0.010010	80.832660	1.897876	113.751613
45808		-0.344509	9.656243	1.522707	-0.008256	0.007766	0.006278	80.828947	1.896785	113.758903
45809		-0.388142	9.679236	1.637113	0.003267	0.012258	0.002109	80.831861	1.898145	113.765560
45810		-0.306358	9.595328	1.466709	-0.014838	0.005265	0.002959	80.824340	1.898878	113.772574
45811		-0.338910	9.675936	1.536869	0.016416	-0.000884	0.007273	80.834558	1.896117	113.772266
45812		-0.376627	9.663587	1.524097	-0.006564	0.005276	0.009558	80.831693	1.893029	113.781593
45813		-0.350858	9.689936	1.565554	-0.007940	0.006571	0.010603	80.828105	1.889065	113.785809
45814		-0.367414	9.611659	1.554453	-0.007189	0.006808	0.008995	80.825070	1.886332	113.789744
45815		-0.369413	9.683179	1.539295	0.000512	0.005343	0.007512	80.826292	1.884005	113.792982
45816		-0.387103	9.677368	1.554568	-0.007189	0.006809	0.008994	80.823368	1.881468	113.795477
45817		-0.331442	9.604230	1.554390	-0.004747	0.004553	0.010668	80.821571	1.877284	113.798557
45818		-0.328381	9.695540	1.552626	0.001012	0.002044	0.010241	80.823172	1.873632	113.801451
45819		-0.355169	9.650281	1.540535	-0.000674	0.003674	0.015051	80.823706	1.866889	113.804435
45820		-0.353990	9.650212	1.541238	-0.014264	0.006749	0.011035	80.816674	1.863150	113.808414
45821		-0.348202	9.669851	1.555720	-0.006122	0.005851	0.011711	80.814115	1.858495	113.812324
45822		-0.318235	9.642621	1.542017	-0.015639	0.008047	0.012078	80.806161	1.854124	113.820564
45823		-0.346039	9.669562	1.557995	-0.010631	0.005300	0.013258	80.801012	1.848544	113.824306
45824		-0.329674	9.656233	1.573174	-0.019213	0.005633	0.010420	80.790901	1.844975	113.833866
45825		-0.351818	9.630494	1.576113	-0.012630	0.008130	0.013740	80.784659	1.839383	113.839255
45826		-0.288433	9.595897	1.561114	-0.007500	0.008014	0.004664	80.781564	1.839133	113.839079
45827		-0.365660	9.643490	1.563600	0.000827	0.004144	0.011836	80.782954	1.834253	113.842038
45828		-0.346624	9.649440	1.547727	0.017800	0.007308	0.002930	80.794111	1.835110	113.850251
45829		-0.360291	9.663613	1.574938	0.007972	0.010706	-0.001031	80.799676	1.838108	113.855742
45830		-0.363045	9.735387	1.558144	0.019927	0.006249	0.000278	80.812228	1.840363	113.856510
45831		-0.297073	9.557153	1.529581	0.005645	0.005226	-0.001566	80.816359	1.843161	113.858852
45832		-0.370704	9.787489	1.527239	0.007844	0.008940	0.001134	80.821999	1.845148	113.862363
45833		-0.364633	9.572055	1.530892	-0.000240	0.005973	0.001025	80.822780	1.846549	113.865364
45834		-0.340421	9.761221	1.554632	-0.005558	0.009919	-0.004484	80.820663	1.851757	113.870969
45835		-0.331439	9.564573	1.530307	-0.002183	0.004931	0.002078	80.820315	1.852466	113.873478
45836		-0.277567	9.654242	1.512435	-0.001304	0.007797	-0.009785	80.820545	1.860508	113.878874
45837		-0.368633	9.626191	1.629420	0.000511	0.006209	-0.000582	80.821757	1.862838	113.881862
45838		-0.391766	9.691209	1.586105	0.011035	0.007781	-0.006885	80.829148	1.869405	113.886336
45839		-0.387552	9.565366	1.503363	-0.003431	0.008859	-0.007137	80.828131	1.875685	113.890226
45840		-0.368621	9.717726	1.625642	0.021063	0.011794	-0.007829	80.841286	1.882938	113.896680
45841		-0.326568	9.531199	1.485158	0.009333	0.000768	-0.006856	80.847434	1.888320	113.896018
45842		-0.324724	9.696040	1.550272	0.031701	0.005631	-0.012992	80.866658	1.898007	113.895819
45843		-0.366261	9.592715	1.537250	0.022240	0.003097	-0.003968	80.880253	1.901969	113.896740
45844		-0.378821	9.698484	1.560542	0.043050	0.012226	-0.015564	80.905950	1.913746	113.905101
45845		-0.347182	9.618221	1.487548	0.015917	0.004133	-0.011632	80.915919	1.922136	113.905918
45846		-0.332614	9.695949	1.453897	0.049607	-0.003417	-0.013705	80.945206	1.931542	113.902276
45847		-0.383065	9.609496	1.595336	0.021688	0.010277	-0.007289	80.958612	1.938029	113.906969
45848		-0.345988	9.639453	1.490829	0.053059	-0.001892	-0.017985	80.989869	1.949830	113.903453
45849		-0.382539	9.629549	1.558562	0.038345	0.004293	-0.009127	81.012700	1.956816	113.904599
45850		-0.351604	9.622022	1.510045	0.068352	0.002086	-0.014023	81.052727	1.966614	113.905198
45851		-0.400504	9.644309	1.533521	0.057206	0.002897	-0.016377	81.086315	1.977578	113.904916
45852		-0.342153	9.682205	1.496130	0.066104	0.002258	-0.017321	81.125058	1.989356	113.905623
45853		-0.372468	9.710167	1.505051	0.049629	0.005293	-0.008996	81.154375	1.996353	113.907363
45854		-0.352415	9.645282	1.500173	0.068803	0.002713	-0.011917	81.194627	2.005027	113.910281
45855		-0.394918	9.704979	1.466559	0.043181	0.004548	-0.014496	81.220219	2.015072	113.911125
45856		-0.383947	9.673824	1.505119	0.042115	0.004664	-0.009127	81.245338	2.022435	113.912508
45857		-0.381684	9.693096	1.472429	0.037038	0.001768	-0.007556	81.267376	2.028307	113.912391
45858		-0.361346	9.627955	1.469379	0.046503	0.003473	-0.008520	81.294842	2.035187	113.917605
45859		-0.310264	9.626993	1.448880	0.045629	0.002321	-0.012839	81.321798	2.044099	113.917349
45860		-0.403222	9.689313	1.473983	0.054967	0.002270	-0.011632	81.354148	2.052595	113.919384
45861		-0.412413	9.651489	1.484407	0.050085	0.006766	-0.015006	81.383741	2.063117	113.921471
45862		-0.367664	9.703326	1.476214	0.051278	0.007586	-0.014469	81.414216	2.073741	113.922402
45863		-0.386627	9.625737	1.459795	0.057926	0.007095	-0.018692	81.448298	2.086377	113.924372
45864		-0.388312	9.626616	1.453543	0.071277	0.010082	-0.013705	81.490263	2.096722	113.926957
45865		-0.392557	9.699019	1.429956	0.080244	0.005601	-0.014074	81.537117	2.106611	113.928489
45866		-0.383227	9.667162	1.423528	0.065453	0.006974	-0.010538	81.575723	2.114928	113.928863
45867		-0.394741	9.700949	1.416201	0.071282	0.009306	-0.005654	81.617548	2.120353	113.933216
45868		-0.385179	9.669041	1.410173	0.066716	0.013439	-0.012807	81.657015	2.130433	113.936461
45869		-0.379160	9.618631	1.433015	0.074432	0.012016	-0.014317	81.700676	2.140988	113.941640
45870		-0.399377	9.614085	1.440333	0.084223	0.013401	-0.019087	81.749912	2.154534	113.951245
45871		-0.388839	9.673764	1.428857	0.099966	0.009390	-0.017766	81.808139	2.166820	113.954669
45872		-0.402942	9.706279	1.376822	0.084608	0.017902	-0.017595	81.857730	2.179979	113.966820
45873		-0.429358	9.680223	1.327810	0.091511	0.010644	-0.014707	81.911151	2.190626	113.971227
45874		-0.361996	9.668479	1.359669	0.082110	0.014552	-0.016537	81.959293	2.202985	113.980507
45875		-0.412859	9.689655	1.337823	0.097168	0.015954	-0.016407	82.016069	2.215013	113.987813
45876		-0.412267	9.781951	1.326119	0.065356	0.014076	-0.003818	82.054662	2.220047	113.997060
45877		-0.466357	9.530918	1.359005	0.090154	0.021513	-0.017186	82.107542	2.232943	114.007481
45878		-0.356580	9.893660	1.303065	0.085078	0.009132	-0.012164	82.157308	2.242394	114.013795
45879		-0.514613	9.735413	1.322459	0.059094	0.019868	-0.006219	82.192394	2.248920	114.024159
45880		-0.322920	9.563090	1.332724	0.030945	0.018907	-0.015702	82.211311	2.260984	114.036016
45881		-0.447097	9.651242	1.326424	0.110765	-0.001156	-0.014400	82.275509	2.270515	114.033810
45882		-0.411768	9.663312	1.288079	0.060500	0.019388	-0.015419	82.311354	2.282579	114.047295
45883		-0.458186	9.704383	1.279189	0.116878	0.005547	-0.022090	82.379182	2.296993	114.048328
45884		-0.398200	9.922558	1.187108	0.070548	0.014046	-0.013081	82.420704	2.307187	114.058072
45885		-0.389324	9.533210	1.370857	0.003632	0.017568	-0.004686	82.423977	2.312623	114.067273
45886		-0.520940	9.597121	1.266621	0.141005	-0.001273	-0.021745	82.505625	2.326585	114.063866
45887		-0.367542	9.830487	1.255107	0.042880	0.018490	-0.015133	82.531379	2.338009	114.072821
45888		-0.401887	9.600997	1.204015	0.101855	0.004239	-0.022323	82.590598	2.352864	114.076422
45889		-0.396935	9.863598	1.340367	0.014473	0.017286	0.001335	82.600102	2.354831	114.085925
45890		-0.533088	9.400050	1.276829	0.128965	0.006266	-0.015667	82.674960	2.366002	114.089659
45891		-0.361073	9.981461	1.174823	0.069967	0.016421	-0.021913	82.716172	2.381102	114.096979
45892		-0.438507	9.540554	1.193182	0.079132	0.009127	-0.015718	82.762592	2.392474	114.101079
45893		-0.443415	10.014244	1.233738	0.025622	0.015912	0.011698	82.778488	2.388423	114.110554
45894		-0.528558	9.190497	1.303390	0.088529	0.023519	-0.012795	82.830622	2.399054	114.123503
45895		-0.378935	10.088455	1.126165	0.126304	0.005140	-0.013084	82.903876	2.408309	114.125078
45896		-0.492533	9.548081	1.222432	0.036404	0.025643	-0.007961	82.926175	2.416758	114.141464
45897		-0.541814	10.075305	1.144348	0.121681	0.007004	0.004066	82.996876	2.416390	114.145320
45898		-0.333681	9.295614	1.276765	-0.047030	0.038274	-0.002019	82.971621	2.422107	114.170891
45899		-0.426039	9.878108	1.126086	0.201427	-0.023399	-0.011184	83.087236	2.428293	114.156379
45900		-0.436139	9.749761	1.139452	-0.027176	0.034325	-0.004460	83.073344	2.435260	114.177366
45901		-0.489544	9.825284	1.176455	0.081523	0.004134	0.018356	83.121010	2.426557	114.180573
45902		-0.442926	9.459536	1.176341	0.044324	0.021429	-0.002992	83.147774	2.431794	114.193347
45903		-0.378279	10.023225	1.091981	0.082840	0.002580	0.003261	83.196113	2.431568	114.194628
45904		-0.479701	9.627472	1.100236	0.014246	0.014599	-0.002496	83.205436	2.435856	114.205218
45905		-0.416425	9.909467	1.235729	0.000943	0.024625	0.024649	83.207444	2.424956	114.220504
45906		-0.508722	9.311290	1.143862	0.083606	0.002812	0.001629	83.256257	2.425926	114.224384
45907		-0.363416	10.083399	1.072328	0.028209	0.015565	0.011073	83.273629	2.422127	114.233586
45908		-0.516668	9.436345	1.127834	0.043053	0.014309	0.007436	83.299518	2.420842	114.243109
45909		-0.412371	10.000213	1.171209	0.019854	0.022653	0.025364	83.312312	2.409377	114.257301
45910		-0.515947	9.257918	1.172504	0.105645	0.011482	0.006349	83.373811	2.408175	114.271596
45911		-0.304992	10.175066	1.028906	0.064653	0.012901	0.013547	83.412004	2.402770	114.279436
45912		-0.529274	9.436640	1.163353	0.029839	0.017055	0.013698	83.430306	2.398119	114.293715
45913		-0.388951	9.932302	1.065281	0.078048	0.007366	0.013802	83.476040	2.392200	114.298412
45914		-0.464760	9.653510	1.066782	0.021542	0.016104	0.015276	83.489665	2.386527	114.309065
45915		-0.435753	9.775941	1.141526	0.001967	0.018915	0.022067	83.492103	2.376650	114.320876
45916		-0.451079	9.621541	1.062543	0.097756	-0.003159	0.008329	83.548799	2.373413	114.325479
45917		-0.372716	9.901419	1.051313	-0.005672	0.017141	0.016124	83.546799	2.366794	114.335886
45918		-0.472060	9.508484	1.106797	0.045745	0.005476	0.016319	83.574125	2.359848	114.338266
45919		-0.393327	9.788388	1.095288	0.049395	0.013588	0.014979	83.603587	2.353647	114.346570
45920		-0.455378	9.659185	1.086608	0.056962	0.005579	0.010434	83.637288	2.349946	114.349094
45921		-0.391283	9.789698	1.084256	0.060675	0.009829	0.009759	83.673110	2.346470	114.354918
45922		-0.422802	9.723958	1.056182	0.047741	0.007242	0.007060	83.701607	2.344992	114.356586
45923		-0.466305	9.764569	1.049751	0.054821	0.006697	0.013053	83.734010	2.339437	114.360828
45924		-0.400941	9.733162	1.073464	0.043447	0.009437	0.012340	83.759987	2.334818	114.367951
45925		-0.405841	9.710279	1.014607	0.040634	0.007133	0.009160	83.784261	2.331504	114.372194
45926		-0.430206	9.670744	1.084556	0.047554	0.009407	0.008572	83.812660	2.329151	114.377958
45927		-0.409116	9.767506	1.058157	0.051329	0.009792	0.008571	83.843121	2.326332	114.383677
45928		-0.446757	9.754889	1.041179	0.048946	0.008118	0.007531	83.872088	2.324496	114.393666
45929		-0.402289	9.877125	1.012229	0.047913	0.004476	0.013591	83.900481	2.318487	114.396658
45930		-0.451746	9.556100	1.077456	-0.010927	0.017063	0.011185	83.895468	2.315274	114.408239
45931		-0.420106	9.869647	0.979657	0.083533	-0.008201	0.007228	83.943961	2.312119	114.403613
45932		-0.434501	9.632506	1.037406	-0.035929	0.022555	0.006524	83.924888	2.311693	114.414963
45933		-0.428278	9.741310	0.998310	0.092235	-0.007254	0.015870	83.978411	2.303675	114.411397
45934		-0.423964	9.586227	1.104843	-0.015870	0.025295	0.007059	83.970667	2.303095	114.429991
45935		-0.410884	9.817995	0.954377	0.135057	-0.014205	0.004455	84.048538	2.301169	114.421770
45936		-0.432294	9.796287	0.992650	-0.003729	0.022781	0.006123	84.047931	2.300779	114.433252
45937		-0.412999	9.801698	0.973998	0.076234	-0.006134	0.010855	84.092299	2.295692	114.430011
45938		-0.386965	9.669064	1.036732	-0.013116	0.013248	0.008601	84.086006	2.293490	114.438004
45939		-0.421946	9.835108	0.966251	0.063487	-0.010895	0.006653	84.122952	2.290520	114.431798
45940		-0.445138	9.721915	1.016527	-0.034430	0.013521	0.006872	84.104381	2.289316	114.442275
45941		-0.409908	9.802543	0.966775	0.038691	-0.012083	0.009284	84.127100	2.284778	114.435546
45942		-0.416985	9.764780	0.984150	-0.041296	0.007390	0.008160	84.104603	2.282567	114.438493
45943		-0.427514	9.709543	1.032861	0.004610	-0.007787	0.007880	84.107889	2.279081	114.434132
45944		-0.436544	9.830142	0.982711	-0.026459	-0.003309	0.008103	84.093628	2.276175	114.431422
45945		-0.424808	9.797076	0.988093	-0.038819	-0.008082	0.014164	84.072040	2.269089	114.427265
45946		-0.387252	9.718788	1.011187	-0.046714	-0.003893	0.009102	84.046129	2.265510	114.425776
45947		-0.439434	9.717555	0.989089	-0.046126	-0.006047	0.017814	84.020410	2.256461	114.423003
45948		-0.394811	9.750807	1.017708	-0.037870	-0.001217	0.015506	83.999774	2.249448	114.419032
45949		-0.428989	9.666700	1.028987	-0.045609	0.000180	0.017027	83.974490	2.241220	114.419770
45950		-0.419205	9.704278	1.014899	-0.017266	-0.005579	0.019544	83.965427	2.231580	114.417519
45951		-0.419605	9.774774	0.997902	-0.027723	-0.005434	0.023797	83.950283	2.219156	114.415469
45952		-0.468505	9.864975	0.967272	-0.026043	-0.007819	0.027128	83.936258	2.204845	114.409983
45953		-0.429968	9.948427	0.964196	-0.054350	-0.024128	0.024340	83.905452	2.190976	114.397315
45954		-0.440066	10.051197	0.951734	-0.116456	-0.046568	0.028042	83.838540	2.174004	114.376119
45955		-0.233765	9.843582	0.991618	-0.232795	-0.019837	0.037658	83.705625	2.152783	114.366762
45956		-0.415358	9.552284	1.124909	-0.240586	-0.019323	0.033103	83.568347	2.134582	114.357888
45957		-0.365701	9.600882	1.140545	-0.185029	-0.012829	0.030415	83.462939	2.117896	114.352150
45958		-0.417437	9.510119	1.178872	-0.165923	-0.003614	0.025302	83.368743	2.105121	114.352393
45959		-0.391813	9.534240	1.187950	-0.072688	-0.015751	0.022576	83.327627	2.092686	114.344520
45960		-0.388876	9.622145	1.145981	-0.049648	-0.008403	0.016043	83.299795	2.084873	114.344093
45961		-0.357343	9.682678	1.088061	-0.017291	-0.010491	0.014203	83.290509	2.077548	114.338666
45962		-0.412768	9.740542	1.158582	-0.014772	-0.015860	0.008459	83.282678	2.073340	114.329077
45963		-0.434285	9.889601	1.024623	-0.014381	-0.033454	0.009542	83.274578	2.067125	114.310265
45964		-0.434500	10.036102	1.076307	-0.062124	-0.045681	0.019238	83.239090	2.054837	114.283302
45965		-0.396806	9.954352	1.061347	-0.125507	-0.061642	0.028893	83.166802	2.035677	114.249764
45966		-0.056924	9.875695	1.029023	-0.209892	-0.043504	0.045381	83.046701	2.008625	114.227535
45967		-0.428936	9.832433	1.214802	-0.389226	0.005848	0.050292	82.824735	1.981896	114.233995
45968		-0.395012	8.743127	1.497925	-0.231626	-0.008902	0.031374	82.692998	1.965108	114.226728
45969		-0.285470	9.477051	1.383778	-0.023103	-0.012868	0.009246	82.680338	1.960369	114.219665
45970		-0.395061	9.385929	1.336581	0.002177	0.008379	-0.006112	82.682719	1.966122	114.221478
45971		-0.353047	9.668464	1.246037	0.087411	0.000110	-0.013675	82.733575	1.975356	114.220126
45972		-0.363182	9.631303	1.254158	0.082935	0.001036	-0.028307	82.781965	1.993300	114.217894
45973		-0.400426	9.888743	1.134464	0.095307	-0.006821	-0.038247	82.837145	2.016007	114.210852
45974		-0.435803	9.899131	1.170281	0.049754	-0.011295	-0.026720	82.866226	2.032080	114.202784
45975		-0.470221	9.995979	1.119264	0.045325	-0.033632	-0.011631	82.892291	2.037759	114.182410
45976		-0.488259	9.990901	1.133102	-0.017360	-0.046889	0.011872	82.882283	2.029376	114.157327
45977		-0.153589	9.982279	1.028984	-0.097581	-0.046706	0.037555	82.826336	2.006153	114.133020
45978		-0.303189	9.991232	1.180699	-0.297234	0.001253	0.037671	82.656986	1.986510	114.137579
45979		-0.469486	8.875658	1.478183	-0.216549	-0.012251	0.026171	82.533543	1.972188	114.132125
45980		-0.260297	9.498681	1.407784	0.015226	-0.023570	0.006086	82.542828	1.968689	114.116344
45981		-0.353998	9.484278	1.326726	-0.006763	0.000282	-0.009767	82.539738	1.975712	114.115354
45982		-0.342282	9.705213	1.298978	0.062187	-0.010216	-0.017998	82.576079	1.986836	114.106200
45983		-0.350243	9.683675	1.238705	0.043073	-0.002056	-0.017847	82.601476	1.998277	114.103289
45984		-0.409172	9.828520	1.214960	0.052723	-0.011177	-0.025087	82.632263	2.013432	114.095421
45985		-0.405694	9.775912	1.199176	0.030949	-0.008148	-0.021601	82.650580	2.026562	114.088781
45986		-0.438561	9.874908	1.192122	0.037615	-0.022740	-0.013652	82.672514	2.034299	114.074692
45987		-0.446311	9.925937	1.160526	-0.013266	-0.032851	-0.004175	82.665044	2.035723	114.055285
45988		-0.297627	9.791835	1.179074	-0.048883	-0.035724	0.016578	82.637219	2.025277	114.036327
45989		-0.346172	9.794967	1.246568	-0.140507	-0.010114	0.019971	82.557368	2.014637	114.031629
45990		-0.364418	9.285195	1.409836	-0.090981	-0.012014	0.015581	82.505936	2.006638	114.025905
45991		-0.323986	9.548872	1.357265	0.013320	-0.015134	0.003697	82.514081	2.004860	114.017155
45992		-0.387158	9.509103	1.303090	0.027925	-0.001046	-0.002410	82.530903	2.007833	114.016998
45993		-0.346066	9.702752	1.259555	0.068067	-0.011688	-0.012579	82.570440	2.015564	114.008996
45994		-0.380920	9.710924	1.254650	0.052095	-0.001671	-0.012964	82.601241	2.024474	114.003491
45995		-0.392427	9.744420	1.248400	0.052017	-0.007263	-0.010150	82.631676	2.031160	113.998191
45996		-0.408382	9.757730	1.229656	0.042169	-0.004730	-0.005992	82.656751	2.035904	113.991486
45997		-0.382181	9.801621	1.194862	0.028034	-0.008749	-0.001173	82.673438	2.037384	113.986004
45998		-0.395594	9.816646	1.221486	0.001168	-0.008637	0.003985	82.674771	2.036144	113.982254
45999		-0.373920	9.750812	1.224709	-0.015776	-0.006191	0.010250	82.666438	2.031321	113.979062
46000		-0.331828	9.692154	1.256720	-0.033599	-0.004956	0.012225	82.647981	2.025641	113.977107
46001		-0.374025	9.659047	1.234440	-0.021931	-0.008177	0.009163	82.636080	2.021288	113.972709
46002		-0.364384	9.609979	1.308788	-0.012552	0.001273	0.006867	82.629826	2.018977	113.972371
46003		-0.375396	9.640888	1.265026	0.019813	-0.005542	0.013761	82.641907	2.012204	113.969809
46004		-0.361607	9.699507	1.259592	0.023534	-0.000596	0.005057	82.656245	2.010920	113.969965
46005		-0.369003	9.661705	1.273212	0.032132	-0.000823	0.007824	82.675463	2.007867	113.969649
46006		-0.353826	9.736445	1.194723	0.043045	-0.004260	0.006374	82.700838	2.005415	113.968621
46007		-0.353712	9.809964	1.216769	0.009789	-0.000138	0.011391	82.707277	2.000385	113.968953
46008		-0.382946	9.673380	1.209760	0.008903	-0.002087	0.015200	82.713452	1.993383	113.964561
46009		-0.340518	9.777274	1.217167	-0.009984	0.000064	0.014459	82.708574	1.986624	113.965229
46010		-0.379950	9.673441	1.210215	0.001810	-0.002163	0.017297	82.710425	1.978181	113.965689
46011		-0.353367	9.700836	1.251676	-0.031182	0.005437	0.017928	82.693516	1.969842	113.969667
46012		-0.372788	9.604341	1.272146	0.015815	0.000112	0.014663	82.703505	1.963170	113.970216
46013		-0.316082	9.782606	1.203114	0.015688	-0.000888	0.008761	82.713303	1.959579	113.969928
46014		-0.349167	9.627880	1.226368	-0.017925	0.008237	0.008813	82.704029	1.956701	113.975670
46015		-0.340289	9.666232	1.208693	0.045484	-0.006494	0.008056	82.730788	1.953105	113.972143
46016		-0.361062	9.805483	1.228865	-0.006490	0.010995	0.006684	82.728219	1.951790	113.977738
46017		-0.368687	9.605227	1.266638	0.024418	0.000618	0.009331	82.743050	1.947984	113.978347
46018		-0.350759	9.770882	1.184848	0.019981	0.005659	0.008096	82.755460	1.945591	113.983843
46019		-0.364509	9.696889	1.258804	-0.000415	0.007390	0.010584	82.756196	1.941563	113.988392
46020		-0.365403	9.694885	1.215712	0.018345	0.004228	0.005425	82.768004	1.940634	113.984149
46021		-0.336795	9.740537	1.225511	0.000654	0.007209	0.005213	82.769336	1.939645	113.988207
46022		-0.367700	9.677095	1.243671	0.006861	0.005335	0.006922	82.774324	1.937916	113.991367
46023		-0.343838	9.702609	1.240534	0.012579	0.006713	0.005857	82.782480	1.936525	113.995189
46024		-0.340030	9.720795	1.209820	0.016167	0.009183	0.007439	82.792927	1.934667	113.998281
46025		-0.324552	9.708219	1.222613	0.012452	0.005707	-0.000042	82.800976	1.936556	114.001106
46026		-0.351060	9.665059	1.252660	0.016709	0.002797	0.002754	82.811589	1.936917	114.000616
46027		-0.358316	9.716203	1.219964	0.026022	0.007371	-0.004824	82.827435	1.941641	114.004046
46028		-0.360112	9.714289	1.175481	0.020430	0.007003	0.002138	82.840219	1.942619	114.006403
46029		-0.340116	9.721939	1.200571	0.020745	0.006606	-0.001619	82.853034	1.945466	114.009628
46030		-0.338802	9.724384	1.240791	0.019549	0.005784	-0.002148	82.865185	1.948893	114.014305
46031		-0.348767	9.684269	1.213283	0.015781	0.005443	-0.002169	82.875133	1.951969	114.016831
46032		-0.382783	9.691981	1.212676	0.013964	0.006138	-0.003278	82.884168	1.955865	114.018095
46033		-0.354298	9.664582	1.196354	0.038967	0.009844	-0.002106	82.907486	1.959215	114.023130
46034		-0.352209	9.756134	1.188224	0.026207	0.005251	-0.006396	82.923438	1.964908	114.026194
46035		-0.345895	9.705582	1.216474	0.023541	0.013458	-0.007169	82.937977	1.971388	114.032930
46036		-0.351811	9.685631	1.201475	0.019695	0.008241	-0.012448	82.950401	1.980836	114.034498
46037		-0.349952	9.703749	1.170008	0.023599	0.010317	-0.014628	82.964895	1.991334	114.038927
46038		-0.365075	9.719017	1.195289	0.030381	0.010797	-0.012977	82.983247	2.001211	114.047254
46039		-0.371200	9.699106	1.179760	0.023858	0.013067	-0.010936	82.997955	2.009800	114.053512
46040		-0.374727	9.770370	1.159065	0.032200	0.010111	-0.011875	83.017287	2.018955	114.062519
46041		-0.335174	9.712265	1.187098	0.006784	0.014510	-0.010570	83.022244	2.027433	114.069627
46042		-0.359720	9.686989	1.188105	0.017700	0.011075	-0.012012	83.033611	2.036647	114.070685
46043		-0.376378	9.699892	1.171627	0.026751	0.012195	-0.015208	83.049953	2.047599	114.076157
46044		-0.343293	9.781461	1.120907	0.025605	0.007509	-0.015092	83.065722	2.058561	114.078113
46045		-0.401299	9.677262	1.211682	0.010871	0.014458	-0.014317	83.073016	2.069160	114.084940
46046		-0.384331	9.682721	1.193856	0.045075	0.007741	-0.014419	83.099782	2.079590	114.089755
46047		-0.354528	9.746571	1.171333	0.030523	0.012556	-0.015204	83.118297	2.090558	114.095446
46048		-0.407655	9.675818	1.160235	0.026501	0.009460	-0.018922	83.134531	2.103613	114.098608
46049		-0.390842	9.681323	1.141786	0.042271	0.014233	-0.013019	83.159820	2.113449	114.105411
46050		-0.400925	9.717103	1.178051	0.047590	0.010444	-0.007494	83.188178	2.120245	114.111487
46051		-0.393251	9.682242	1.133130	0.039447	0.011968	-0.016222	83.211796	2.131743	114.116793
46052		-0.371802	9.708080	1.126532	0.048553	0.009240	-0.018779	83.240804	2.144858	114.117452
46053		-0.379370	9.761657	1.133226	0.043406	0.010199	-0.017773	83.266651	2.157115	114.121656
46054		-0.371164	9.729111	1.131274	0.028346	0.009489	-0.025945	83.283990	2.174221	114.123148
46055		-0.415642	9.698751	1.145895	0.027911	0.008874	-0.028090	83.300907	2.192257	114.125915
46056		-0.410440	9.736993	1.126285	0.031682	0.009235	-0.028080	83.319874	2.210524	114.133636
46057		-0.402966	9.704409	1.124432	0.038974	0.007200	-0.031749	83.343085	2.230530	114.135218
46058		-0.405737	9.704819	1.119888	0.054036	0.007940	-0.023594	83.375060	2.246208	114.137813
46059		-0.408000	9.705351	1.114438	0.057675	0.006583	-0.021383	83.409001	2.260271	114.139749
46060		-0.409999	9.705875	1.109130	0.050956	0.010977	-0.017799	83.439426	2.272865	114.141451
46061		-0.461461	9.637850	1.137888	0.060941	0.009510	-0.016083	83.475320	2.284100	114.145417
46062		-0.424000	9.740042	1.094449	0.092736	0.005118	-0.017922	83.529368	2.296277	114.147529
46063		-0.436314	9.773713	1.084568	0.073888	0.003324	-0.018001	83.572535	2.308200	114.147865
46064		-0.435778	9.703636	1.095978	0.073591	0.004439	-0.022370	83.615578	2.322877	114.149678
46065		-0.440367	9.775195	1.069472	0.087464	-0.004362	-0.019331	83.666344	2.335069	114.145568
46066		-0.463831	9.753232	1.106980	0.058681	0.000184	-0.015877	83.700809	2.345949	114.145475
46067		-0.393849	9.594945	1.093942	0.088702	-0.008027	-0.010074	83.752222	2.352645	114.139875
46068		-0.437992	9.724383	1.035149	0.101710	-0.000525	-0.002201	83.811594	2.355581	114.133721
46069		-0.377606	9.675714	1.083183	0.101551	0.002314	-0.008803	83.870614	2.362200	114.134107
46070		-0.432808	9.676062	1.047267	0.094249	0.009564	-0.022061	83.925784	2.377048	114.135237
46071		-0.462781	9.631243	1.026507	0.129199	-0.002282	-0.021005	84.000507	2.390342	114.132281
46072		-0.583050	9.663846	0.958518	0.144256	-0.014428	-0.030825	84.083719	2.408739	114.119541
46073		-0.511935	9.838729	1.014255	0.144141	-0.060629	-0.043239	84.165542	2.431291	114.082032
46074		-0.394364	9.587561	0.987101	0.140042	-0.046572	-0.051942	84.245509	2.459947	114.050149
46075		-0.529657	9.638632	0.986470	0.188145	-0.062082	-0.063254	84.352425	2.493942	114.010738
46076		-0.470017	9.696234	0.946544	0.214658	-0.081961	-0.055602	84.474026	2.522761	113.962308
46077		-0.354340	9.758586	0.972276	0.237721	-0.075611	-0.046321	84.609012	2.546527	113.916240
46078		-0.336275	9.782624	0.904920	0.222117	-0.029236	-0.034841	84.736075	2.566594	113.903238
46079		-0.566009	9.798874	0.847570	0.231454	-0.016929	-0.022026	84.869006	2.579752	113.892057
46080		-0.376320	9.702716	0.869442	0.221037	-0.007277	-0.021483	84.996101	2.593545	113.891882
46081		-0.448395	9.702334	0.877195	0.262318	-0.002878	-0.010120	85.147104	2.600650	113.889379
46082		-0.428354	9.639164	0.856336	0.276985	0.011511	-0.016997	85.306910	2.612386	113.894529
46083		-0.458400	9.508521	0.869524	0.324904	0.006228	-0.028634	85.493972	2.630498	113.896421
46084		-0.516817	9.757380	0.727179	0.404015	-0.003141	-0.040985	85.726136	2.655760	113.894429
46085		-0.492889	9.892655	0.646864	0.356159	0.001574	-0.035907	85.930976	2.677820	113.893491
46086		-0.464236	9.710416	0.673302	0.346947	-0.002136	-0.036562	86.130340	2.700236	113.893543
46087		-0.478837	9.659173	0.686948	0.379816	-0.000007	-0.043894	86.348684	2.726808	113.891558
46088		-0.478561	9.596738	0.712309	0.422633	-0.000707	-0.047524	86.591598	2.755791	113.889904
46089		-0.523760	9.666309	0.563054	0.479811	-0.009742	-0.060238	86.866948	2.791411	113.882036
46090		-0.416680	9.705237	0.507268	0.492862	-0.003119	-0.073463	87.150012	2.835313	113.878572
46091		-0.496601	9.615251	0.501602	0.512553	-0.007496	-0.093241	87.444147	2.889958	113.871452
46092		-0.676971	9.731817	0.355036	0.570354	-0.029747	-0.105621	87.770661	2.951034	113.853465
46093		-0.552287	9.870312	0.304848	0.549536	-0.059213	-0.097746	88.084456	3.007261	113.817201
46094		-0.601062	9.766580	0.253698	0.547334	-0.061793	-0.097408	88.396615	3.063894	113.785531
46095		-0.544281	9.828574	0.217042	0.552333	-0.073809	-0.087315	88.711534	3.114329	113.741660
46096		-0.585717	9.752485	0.219895	0.542723	-0.065165	-0.087072	89.021074	3.165413	113.706163
46097		-0.640222	9.785498	0.119411	0.576067	-0.081004	-0.079589	89.349320	3.211842	113.658782
46098		-0.682373	9.702353	0.080198	0.554628	-0.094371	-0.078933	89.664602	3.258289	113.608280
46099		-0.592713	9.660114	0.128652	0.598450	-0.141371	-0.089985	90.003637	3.311107	113.526763
46100		-0.669311	9.590521	0.013528	0.642382	-0.162923	-0.106685	90.366907	3.374268	113.435783
46101		-0.539947	9.763739	-0.074506	0.699226	-0.199955	-0.123892	90.761553	3.447876	113.321504
46102		-0.568506	9.682908	-0.138908	0.681344	-0.172108	-0.132835	91.146816	3.527384	113.224269
46103		-0.567635	9.841396	-0.268149	0.723168	-0.165253	-0.127135	91.556176	3.603941	113.130955
46104		-0.597823	9.835296	-0.320075	0.674267	-0.118215	-0.109331	91.939200	3.670368	113.064706
46105		-0.626085	9.650546	-0.331788	0.697045	-0.092830	-0.099251	92.336085	3.730682	113.013396
46106		-0.602148	9.640672	-0.400923	0.741782	-0.066983	-0.100982	92.759623	3.791940	112.977242
46107		-0.682410	9.637257	-0.441640	0.784669	-0.063102	-0.105031	93.207810	3.855425	112.944043
46108		-0.702234	9.676703	-0.559472	0.854988	-0.070014	-0.107654	93.696091	3.921161	112.907347
46109		-0.650061	9.635318	-0.651196	0.866597	-0.066508	-0.117715	94.191116	3.992576	112.873762
46110		-0.533999	9.567037	-0.640323	0.925219	-0.052656	-0.146468	94.720444	4.080341	112.849887
46111		-0.682133	9.784554	-0.844250	0.988645	-0.056560	-0.154771	95.285937	4.173016	112.825175
46112		-0.696198	9.873731	-1.068385	0.928669	-0.020731	-0.145099	95.818625	4.258662	112.821159
46113		-0.748142	9.846154	-1.166379	0.899552	-0.005154	-0.131323	96.335222	4.335306	112.826131
46114		-0.715354	9.984251	-1.255694	0.847064	0.004809	-0.120807	96.822253	4.405503	112.836633
46115		-0.904843	9.956324	-1.423856	0.741502	-0.000454	-0.106222	97.248476	4.467450	112.843805
46116		-1.027546	9.813285	-1.342705	0.678870	-0.040529	-0.089796	97.637044	4.523225	112.827220
46117		-0.980572	9.725066	-1.356406	0.681422	-0.111812	-0.066432	98.023652	4.571175	112.768731
46118		-0.882048	9.719672	-1.413395	0.674749	-0.160566	-0.049410	98.404158	4.614097	112.681284
46119		-0.818627	9.806958	-1.498631	0.653939	-0.190829	-0.039928	98.771170	4.654558	112.576241
46120		-0.775159	9.969827	-1.740112	0.577992	-0.171767	-0.026327	99.095478	4.686501	112.480908
46121		-0.740246	9.981859	-1.888888	0.429975	-0.112881	-0.011273	99.337496	4.704749	112.417902
46122		-0.775824	9.986394	-1.851022	0.286247	-0.072678	0.001532	99.499011	4.712454	112.376417
46123		-0.819646	9.838212	-1.788996	0.175815	-0.043951	0.018943	99.598371	4.707442	112.349714
46124		-0.866198	9.763515	-1.788629	0.111193	-0.035440	0.028211	99.661119	4.696656	112.326801
46125		-0.834883	9.824526	-1.760473	0.050207	-0.036034	0.039822	99.688723	4.679148	112.302557
46126		-0.871087	9.798779	-1.734725	-0.020148	-0.038488	0.047723	99.675940	4.657657	112.276022
46127		-0.838951	9.761796	-1.702976	-0.066911	-0.049779	0.050331	99.635745	4.635525	112.242984
46128		-0.855482	9.747869	-1.717762	-0.092058	-0.070950	0.049092	99.580289	4.616331	112.197949
46129		-0.843050	9.705182	-1.735304	-0.137055	-0.089840	0.042205	99.498167	4.602528	112.143022
46130		-0.817790	9.737802	-1.658251	-0.140514	-0.101923	0.037791	99.413654	4.592519	112.081546
46131		-0.796494	9.750944	-1.692580	-0.163265	-0.110412	0.037996	99.315637	4.582846	112.015390
46132		-0.768266	9.706826	-1.614239	-0.194682	-0.110018	0.033712	99.199776	4.575677	111.949737
46133		-0.831573	9.645660	-1.596794	-0.202000	-0.110667	0.028289	99.079644	4.571260	111.884362
46134		-0.855402	9.606174	-1.500160	-0.191335	-0.119786	0.033489	98.965276	4.564827	111.813218
46135		-0.890664	9.596889	-1.415913	-0.149606	-0.140794	0.039698	98.873739	4.556378	111.729737
46136		-0.907662	9.497455	-1.395146	-0.113542	-0.159263	0.040527	98.802132	4.549210	111.635571
46137		-0.922255	9.597563	-1.359688	-0.033672	-0.196093	0.051959	98.774472	4.538469	111.519625
46138		-0.847854	9.517764	-1.394340	0.013016	-0.227857	0.050900	98.772249	4.531321	111.385593
46139		-0.782712	9.586813	-1.499396	0.051908	-0.242356	0.043448	98.791635	4.529433	111.244120
46140		-0.788469	9.740308	-1.496946	0.078346	-0.249700	0.042733	98.825931	4.528909	111.098396
46141		-0.861178	9.638334	-1.549409	0.048124	-0.253617	0.034119	98.842706	4.533423	110.951348
46142		-0.929533	9.545720	-1.455275	0.081595	-0.285065	0.038961	98.877283	4.538285	110.785872
46143		-0.894196	9.533731	-1.357565	0.141169	-0.341882	0.045748	98.943293	4.544244	110.587674
46144		-0.864529	9.625143	-1.539883	0.167641	-0.369260	0.045928	99.023289	4.553056	110.373777
46145		-0.770347	9.675862	-1.625551	0.156144	-0.379105	0.047063	99.096135	4.562144	110.154343
46146		-0.801441	9.767547	-1.487139	0.145302	-0.378357	0.047660	99.162842	4.571347	109.935144
46147		-0.838819	9.607456	-1.648888	0.155277	-0.386193	0.043244	99.234824	4.583776	109.712056
46148		-0.796319	9.718729	-1.540050	0.142802	-0.383279	0.048734	99.299783	4.593352	109.489980
46149		-0.789890	9.698315	-1.680896	0.145762	-0.392346	0.043633	99.365945	4.606653	109.263389
46150		-0.871977	9.740395	-1.696214	0.104346	-0.390788	0.047474	99.408445	4.618105	109.037186
46151		-0.907433	9.568248	-1.711564	0.096111	-0.411869	0.051080	99.445118	4.629398	108.798838
46152		-0.872591	9.625768	-1.577228	0.103242	-0.438542	0.052345	99.484668	4.642905	108.545104
46153		-0.806238	9.602479	-1.555961	0.142383	-0.462310	0.059895	99.545365	4.654361	108.277330
46154		-0.829389	9.576496	-1.554144	0.146241	-0.465740	0.057442	99.608146	4.668076	108.007708
46155		-0.805953	9.638931	-1.639352	0.187694	-0.462420	0.060423	99.694678	4.679879	107.739840
46156		-0.702538	9.708290	-1.619850	0.177794	-0.436052	0.062801	99.776759	4.688436	107.486548
46157		-0.684959	9.755368	-1.746898	0.178663	-0.405147	0.060335	99.860690	4.695473	107.251160
46158		-0.723266	9.785357	-1.855170	0.094278	-0.357443	0.052030	99.898588	4.703011	107.043471
46159		-0.815132	9.664860	-1.815871	0.064536	-0.336353	0.052481	99.920333	4.708069	106.847827
46160		-0.776772	9.623812	-1.688793	0.069299	-0.329117	0.058126	99.945155	4.709556	106.655581
46161		-0.830619	9.597311	-1.644334	0.085207	-0.330865	0.052239	99.978980	4.714386	106.463071
46162		-0.760233	9.683066	-1.649929	0.100288	-0.332209	0.058029	100.021389	4.716460	106.269084
46163		-0.752581	9.676044	-1.747729	0.094727	-0.324093	0.057381	100.060924	4.717976	106.079898
46164		-0.782557	9.596351	-1.718078	0.075750	-0.299889	0.055572	100.090787	4.718449	105.904456
46165		-0.752282	9.625890	-1.664927	0.100769	-0.294041	0.053209	100.135213	4.719532	105.732701
46166		-0.750475	9.595309	-1.768688	0.098537	-0.269127	0.053727	100.179575	4.718184	105.574856
46167		-0.631161	9.634704	-1.738193	0.106031	-0.234790	0.047533	100.229825	4.716727	105.437206
46168		-0.595755	9.665759	-1.812440	0.103520	-0.168482	0.037566	100.281867	4.714488	105.337954
46169		-0.607633	9.695151	-1.829348	0.065094	-0.098925	0.025459	100.315173	4.711783	105.279422
46170		-0.700678	9.660822	-1.819804	0.073228	-0.056606	0.017700	100.355234	4.709369	105.245496
46171		-0.800845	9.680653	-1.813596	0.043262	-0.035422	0.013141	100.379088	4.707129	105.224148
46172		-0.877499	9.686862	-1.881254	0.027922	-0.047856	0.008536	100.393677	4.709003	105.196120
46173		-0.943672	9.653082	-1.779468	0.008424	-0.075328	0.012252	100.395724	4.711399	105.152298
46174		-1.004407	9.543763	-1.802321	0.024087	-0.123706	0.022315	100.404474	4.713363	105.079949
46175		-0.947056	9.621339	-1.753615	0.042548	-0.174635	0.029962	100.421303	4.716077	104.978135
46176		-0.951118	9.550059	-1.667502	0.080719	-0.228662	0.039556	100.457466	4.719277	104.844647
46177		-0.862224	9.598038	-1.756981	0.089118	-0.254704	0.046995	100.497097	4.720851	104.695790
46178		-0.762572	9.692184	-1.837207	0.092417	-0.253965	0.047747	100.538702	4.722268	104.547140
46179		-0.768273	9.707138	-1.908909	0.044050	-0.247979	0.036309	100.552902	4.729333	104.403209
46180		-0.864434	9.712194	-1.829483	0.006671	-0.249508	0.042922	100.545603	4.733078	104.257588
46181		-0.866109	9.603998	-1.800665	0.019196	-0.269027	0.048086	100.544457	4.735715	104.100519
46182		-0.845324	9.627842	-1.813582	0.008026	-0.274315	0.051109	100.536692	4.737429	103.940013
46183		-0.859500	9.589557	-1.855789	0.013720	-0.279756	0.052211	100.531860	4.738836	103.776445
46184		-0.794553	9.651837	-1.738668	0.006220	-0.272756	0.053518	100.523106	4.738993	103.616567
46185		-0.790206	9.605939	-1.767148	0.026772	-0.277091	0.055609	100.525846	4.738180	103.454148
46186		-0.772891	9.675579	-1.752517	0.023258	-0.272650	0.050983	100.526877	4.739750	103.294596
46187		-0.738955	9.630165	-1.820580	0.031315	-0.257400	0.047828	100.533203	4.741273	103.144125
46188		-0.667439	9.677908	-1.888426	0.020952	-0.229986	0.043283	100.534963	4.742730	103.009499
46189		-0.682733	9.715894	-1.805719	-0.011474	-0.186126	0.033122	100.520223	4.745070	102.900859
46190		-0.692061	9.701341	-1.839984	-0.048584	-0.148742	0.027009	100.486074	4.747130	102.813868
46191		-0.712770	9.640906	-1.881521	-0.068718	-0.111970	0.025036	100.442069	4.746190	102.747995
46192		-0.637421	9.720697	-1.844057	-0.103655	-0.069147	0.018514	100.380165	4.744652	102.706896
46193		-0.706093	9.668148	-1.856071	-0.128265	-0.034835	0.011665	100.305768	4.743175	102.686032
46194		-0.768917	9.677192	-1.798169	-0.156921	-0.007843	0.003168	100.216348	4.743919	102.681196
46195		-0.815977	9.609505	-1.759646	-0.148687	-0.013726	0.003358	100.131308	4.744928	102.673126
46196		-0.830896	9.611609	-1.726120	-0.143951	-0.016632	0.001630	100.048921	4.747407	102.663470
46197		-0.823784	9.597518	-1.646568	-0.120526	-0.016981	0.003832	99.979859	4.748451	102.653506
46198		-0.823539	9.599364	-1.635891	-0.099224	-0.014747	0.006706	99.923143	4.747854	102.644408
46199		-0.777163	9.562801	-1.623820	-0.076989	-0.008915	0.005098	99.879393	4.747370	102.638885
46200		-0.814748	9.656600	-1.643718	-0.061453	0.000219	0.004379	99.845038	4.746603	102.638494
46201		-0.811054	9.611876	-1.667637	-0.056596	-0.004054	0.005072	99.813201	4.745650	102.635728
46202		-0.794474	9.722143	-1.707887	-0.062531	-0.002048	0.006499	99.778104	4.743906	102.633847
46203		-0.805727	9.677125	-1.711191	-0.081963	-0.003262	0.001958	99.731795	4.744632	102.631835
46204		-0.835223	9.677384	-1.664291	-0.086594	-0.009698	0.005795	99.682559	4.744020	102.625691
46205		-0.813003	9.625485	-1.671472	-0.090809	-0.004483	0.007059	99.631083	4.741979	102.622494
46206		-0.827139	9.626322	-1.643973	-0.077530	-0.007978	0.010507	99.587084	4.738530	102.616875
46207		-0.793515	9.697804	-1.639609	-0.086637	-0.004755	0.018485	99.537898	4.730053	102.612435
46208		-0.819233	9.729752	-1.619881	-0.098850	-0.005218	0.020245	99.481739	4.720830	102.607463
46209		-0.820844	9.740219	-1.642472	-0.118513	-0.018492	0.024318	99.413605	4.710339	102.594700
46210		-0.841635	9.836355	-1.673666	-0.162271	-0.029094	0.029212	99.319932	4.698260	102.575370
46211		-0.797950	9.850749	-1.745450	-0.229265	-0.030244	0.035602	99.187721	4.682428	102.554932
46212		-0.758920	9.802969	-1.755402	-0.288237	-0.038555	0.028408	99.021459	4.671574	102.530363
46213		-0.773160	9.812483	-1.613017	-0.355450	-0.026546	0.031404	98.817167	4.657671	102.512493
46214		-0.811629	9.770866	-1.548367	-0.396866	-0.021124	0.036868	98.589432	4.640341	102.497176
46215		-0.824795	9.744394	-1.461355	-0.423254	-0.015173	0.049388	98.346710	4.615147	102.484361
46216		-0.787830	9.634470	-1.402000	-0.422229	-0.013620	0.060658	98.104654	4.583584	102.471506
46217		-0.794448	9.671880	-1.369894	-0.404006	-0.011003	0.065968	97.873075	4.548545	102.459953
46218		-0.785241	9.710325	-1.357933	-0.400924	-0.001870	0.078368	97.643682	4.505917	102.452677
46219		-0.765700	9.762098	-1.306814	-0.401829	-0.003876	0.079854	97.413624	4.462364	102.444423
46220		-0.736238	9.867359	-1.365637	-0.433436	-0.001293	0.075192	97.165685	4.421441	102.438061
46221		-0.695700	9.867033	-1.325385	-0.499535	-0.000962	0.072179	96.879857	4.381977	102.432395
46222		-0.730801	9.902867	-1.241209	-0.566881	0.000856	0.070040	96.555623	4.343778	102.428020
46223		-0.756764	9.840715	-1.182690	-0.619106	0.000102	0.069633	96.201385	4.305636	102.423571
46224		-0.706815	9.776652	-1.093705	-0.643507	-0.002895	0.067766	95.833140	4.268908	102.417663
46225		-0.732244	9.746947	-0.965965	-0.651654	0.002481	0.070097	95.460394	4.230313	102.415037
46226		-0.724637	9.676737	-0.910228	-0.648204	0.009633	0.080295	95.089980	4.185704	102.416116
46227		-0.655544	9.678116	-0.802031	-0.623789	0.015360	0.078984	94.733744	4.141374	102.420921
46228		-0.594128	9.700964	-0.760793	-0.605150	0.026727	0.066767	94.388784	4.103728	102.432967
46229		-0.561529	9.752902	-0.706798	-0.605011	0.052233	0.041189	94.044959	4.079502	102.461030
46230		-0.533445	9.770208	-0.627612	-0.604066	0.077890	0.023824	93.702842	4.064567	102.504520
46231		-0.655367	9.781895	-0.571667	-0.594760	0.085028	0.013053	93.366298	4.055608	102.552666
46232		-0.639937	9.757889	-0.600408	-0.588521	0.099776	0.001802	93.034023	4.053079	102.609591
46233		-0.663587	9.778054	-0.497445	-0.588291	0.098419	-0.010851	92.701780	4.057974	102.666208
46234		-0.688034	9.797263	-0.395052	-0.572125	0.080817	-0.010597	92.378160	4.063676	102.712598
46235		-0.716878	9.875860	-0.381083	-0.567112	0.085851	-0.016501	92.057557	4.072725	102.762068
46236		-0.655127	9.848789	-0.437180	-0.573750	0.086868	-0.010616	91.733260	4.078844	102.811868
46237		-0.558851	9.899852	-0.293940	-0.622239	0.111867	-0.019395	91.382146	4.089713	102.876215
46238		-0.623982	9.825390	-0.201220	-0.637519	0.136327	-0.026868	91.023371	4.105143	102.954545
46239		-0.720160	9.716180	-0.139219	-0.636954	0.142469	-0.032969	90.665119	4.124329	103.036446
46240		-0.798614	9.622963	-0.000605	-0.582261	0.126489	-0.039169	90.337640	4.147810	103.108999
46241		-0.842395	9.656703	-0.005271	-0.518411	0.094785	-0.046737	90.045374	4.175905	103.163313
46242		-0.919306	9.647388	0.044526	-0.457533	0.051056	-0.041663	89.786242	4.201495	103.192287
46243		-0.850874	9.705691	0.029410	-0.410333	0.011330	-0.038660	89.552409	4.225179	103.198428
46244		-0.707358	9.910349	0.070298	-0.381043	0.002194	-0.037581	89.335038	4.248401	103.199141
46245		-0.610836	9.890584	0.092773	-0.454796	0.027909	-0.033112	89.076431	4.269087	103.214659
46246		-0.554182	10.057236	0.097377	-0.505521	0.042580	-0.023689	88.789467	4.284785	103.238517
46247		-0.676587	9.898654	0.147913	-0.608172	0.086256	-0.020639	88.445496	4.299291	103.287509
46248		-0.677114	9.770820	0.242928	-0.612395	0.090566	-0.002763	88.099392	4.304102	103.339112
46249		-0.562515	9.853649	0.352364	-0.634471	0.125692	0.013213	87.742100	4.300638	103.411274
46250		-0.597696	9.820706	0.442312	-0.658703	0.164105	0.019940	87.372662	4.294886	103.505591
46251		-0.783176	9.695072	0.579320	-0.675640	0.179426	0.036543	86.994121	4.280510	103.609285
46252		-0.899535	9.437053	0.540090	-0.598064	0.147849	0.037131	86.658735	4.265607	103.694888
46253		-0.816660	9.725957	0.636912	-0.495303	0.115669	0.043306	86.380777	4.246344	103.762411
46254		-0.834007	9.878020	0.610451	-0.482479	0.086385	0.049611	86.109002	4.222872	103.813388
46255		-0.663274	10.121949	0.639583	-0.549913	0.088989	0.061990	85.798645	4.192518	103.866562
46256		-0.877945	9.880383	0.510879	-0.619129	0.081146	0.076359	85.448407	4.154089	103.915961
46257		-0.855340	9.903128	0.625671	-0.661847	0.064298	0.097125	85.072972	4.103148	103.957026
46258		-0.830131	9.722006	0.750357	-0.687058	0.040202	0.124160	84.682279	4.035997	103.985945
46259		-0.752173	9.744039	0.946836	-0.715581	0.039328	0.150844	84.275221	3.953607	104.016390
46260		-0.848049	9.237198	1.095648	-0.688945	0.042228	0.170459	83.883696	3.860602	104.050139
46261		-0.946850	8.968873	1.268395	-0.525049	-0.000345	0.178755	83.584390	3.760236	104.060752
46262		-0.740100	9.016882	1.321397	-0.331652	-0.046033	0.168315	83.394248	3.663079	104.044955
46263		-0.410102	9.332466	1.286060	-0.195341	-0.032178	0.152153	83.282601	3.575812	104.036336
46264		-0.485148	9.463973	1.267187	-0.130365	-0.002789	0.147302	83.209286	3.493457	104.044188
46265		-0.547154	9.619852	1.195990	-0.089573	0.009969	0.150721	83.159720	3.409848	104.059729
46266		-0.549406	9.687535	1.144927	-0.073858	0.010234	0.149912	83.119210	3.326912	104.075333
46267		-0.572125	9.802592	1.124176	-0.092706	0.010657	0.156802	83.067856	3.239916	104.091816
46268		-0.645921	9.715551	1.128786	-0.097645	-0.002175	0.155707	83.013308	3.152849	104.100897
46269		-0.605869	9.723775	1.162068	-0.106497	-0.011927	0.171897	82.953371	3.055720	104.105742
46270		-0.497687	9.718967	1.182698	-0.104199	-0.018798	0.185054	82.894659	2.950814	104.107606
46271		-0.546934	9.896750	1.124812	-0.118893	-0.012863	0.200924	82.827691	2.837127	104.114194
46272		-0.756091	9.907239	1.143023	-0.164749	-0.036188	0.215178	82.733920	2.713850	104.108597
46273		-0.455211	9.820159	1.208559	-0.190767	-0.067788	0.213951	82.624358	2.588772	104.085251
46274		-0.293418	9.793964	1.244570	-0.234432	-0.035722	0.185294	82.490622	2.482492	104.078179
46275		-0.403112	9.583178	1.290038	-0.218749	-0.048945	0.164401	82.365435	2.386877	104.062353
46276		-0.365478	9.698135	1.300578	-0.213737	-0.048660	0.152919	82.243197	2.297954	104.045917
46277		-0.379214	9.575044	1.390280	-0.200887	-0.041368	0.144350	82.128417	2.214245	104.033238
46278		-0.369616	9.534576	1.425104	-0.166605	-0.036124	0.137949	82.033469	2.134742	104.023089
46279		-0.336472	9.485874	1.408138	-0.125805	-0.036757	0.129296	81.961805	2.059901	104.012103
46280		-0.293633	9.496268	1.382131	-0.080745	-0.035880	0.109031	81.916003	1.996797	103.999966
46281		-0.253016	9.523127	1.424020	-0.050936	-0.031399	0.083570	81.887241	1.948308	103.988454
46282		-0.315728	9.573487	1.382970	-0.024421	-0.022010	0.071579	81.873894	1.907555	103.981222
46283		-0.288796	9.617684	1.349436	-0.003081	-0.023085	0.063958	81.872673	1.870858	103.972864
46284		-0.225229	9.618270	1.365659	0.010895	-0.013182	0.057825	81.879695	1.838618	103.969532
46285		-0.299528	9.683766	1.349766	0.018289	-0.012172	0.039945	81.890862	1.816427	103.965417
46286		-0.298881	9.828150	1.357947	0.007502	-0.008922	0.042492	81.895981	1.793228	103.963255
46287		-0.310594	9.731234	1.380441	-0.022182	-0.003666	0.045989	81.884128	1.768295	103.964454
46288		-0.297087	9.716773	1.351995	-0.012606	-0.007015	0.050562	81.877781	1.740672	103.964033
46289		-0.257784	9.599921	1.379823	-0.023322	-0.006118	0.047597	81.865236	1.714629	103.963979
46290		-0.357165	9.582674	1.418491	-0.002281	-0.014529	0.046249	81.864669	1.688841	103.958953
46291		-0.218135	9.812431	1.307181	0.030303	-0.014311	0.041633	81.882698	1.665517	103.953766
46292		-0.326688	9.718334	1.380166	-0.064065	0.010559	0.060447	81.847179	1.633709	103.964129
46293		-0.258736	9.555893	1.417782	0.033830	-0.022956	0.049708	81.867115	1.605103	103.954699
46294		-0.255629	9.866698	1.348147	-0.028758	0.003235	0.038561	81.851650	1.585115	103.959132
46295		-0.280731	9.619960	1.379842	-0.002666	-0.005424	0.043321	81.850942	1.561554	103.959133
46296		-0.238110	9.541640	1.388869	0.003730	-0.010274	0.031290	81.853864	1.544593	103.955314
46297		-0.190035	9.794222	1.338765	0.037088	-0.012900	0.033014	81.875797	1.526271	103.950232
46298		-0.279981	9.744591	1.375444	-0.041987	0.004634	0.036345	81.852763	1.507650	103.955280
46299		-0.222499	9.671670	1.367594	0.019941	-0.008513	0.026878	81.864927	1.493165	103.952191
46300		-0.296861	9.718913	1.382825	-0.030158	0.004821	0.022467	81.848641	1.482430	103.956222
46301		-0.216708	9.762836	1.365351	0.010303	-0.003116	0.024006	81.855357	1.470011	103.955963
46302		-0.277866	9.633117	1.370458	-0.030294	0.008876	0.025866	81.839059	1.457678	103.962573
46303		-0.247634	9.713051	1.420057	0.012912	-0.004910	0.029153	81.847254	1.442194	103.961717
46304		-0.279352	9.613164	1.359080	-0.012472	0.002674	0.028626	81.841080	1.427792	103.965033
46305		-0.255994	9.673204	1.395701	0.011461	-0.000312	0.026179	81.848504	1.414369	103.966543
46306		-0.243093	9.640646	1.393089	0.020930	-0.002705	0.021051	81.861376	1.403826	103.966189
46307		-0.191615	9.730523	1.362721	0.017084	-0.002042	0.011625	81.871968	1.398517	103.965533
46308		-0.260233	9.672388	1.350078	0.001990	-0.002355	0.003010	81.873958	1.398233	103.963914
46309		-0.204563	9.690741	1.337031	0.006415	-0.003835	-0.000621	81.878388	1.399725	103.961247
46310		-0.251595	9.674051	1.390625	0.001274	-0.001933	-0.008821	81.879950	1.406186	103.958910
46311		-0.238836	9.698047	1.343447	0.000191	-0.006418	-0.008902	81.880761	1.412166	103.954108
46312		-0.255139	9.692418	1.361649	-0.004456	0.000442	-0.007763	81.879076	1.418218	103.953204
46313		-0.240210	9.697912	1.344178	-0.006002	-0.007963	-0.005788	81.876322	1.422307	103.947777
46314		-0.254302	9.673819	1.391746	-0.003084	-0.002476	-0.006891	81.875385	1.427628	103.945289
46315		-0.256794	9.692170	1.363105	-0.006755	-0.004480	-0.004524	81.872250	1.431281	103.941940
46316		-0.222258	9.666392	1.385862	-0.003084	-0.002476	-0.006891	81.871312	1.436602	103.939452
46317		-0.222839	9.666327	1.386227	-0.004378	-0.001235	-0.005667	81.869583	1.441166	103.937852
46318		-0.258597	9.691941	1.364386	-0.004389	-0.001580	-0.009466	81.867904	1.448018	103.935663
46319		-0.252528	9.711844	1.377062	-0.005683	-0.000340	-0.008241	81.865434	1.454115	103.934362
46320		-0.275620	9.686164	1.383384	-0.004919	-0.003477	-0.005708	81.863431	1.458681	103.931402
46321		-0.242976	9.678827	1.377070	-0.006068	-0.005939	-0.004089	81.860668	1.461969	103.927260
46322		-0.241345	9.660328	1.406523	-0.000697	0.001115	-0.004235	81.861154	1.466072	103.927025
46323		-0.243741	9.678778	1.377284	0.003198	-0.002261	-0.004111	81.863753	1.469671	103.924968
46324		-0.292523	9.680509	1.401496	0.010165	-0.003506	-0.000894	81.870400	1.471503	103.922383
46325		-0.235215	9.680596	1.416703	0.015817	-0.004200	-0.004051	81.880201	1.474911	103.919231
46326		-0.254784	9.712101	1.374830	0.017674	-0.002507	0.002363	81.891171	1.474978	103.917477
46327		-0.219727	9.686640	1.395603	0.013295	-0.003743	-0.003304	81.899536	1.478000	103.914647
46328		-0.246774	9.698026	1.342160	0.007543	-0.002061	-0.009843	81.904682	1.485026	103.912160
46329		-0.250507	9.641276	1.387404	0.010144	-0.004195	-0.008495	81.911222	1.490956	103.908655
46330		-0.255119	9.694246	1.399548	0.012047	-0.005215	-0.011382	81.918898	1.498601	103.904256
46331		-0.273880	9.707187	1.387381	0.009367	-0.001403	-0.014830	81.925021	1.508351	103.901827
46332		-0.264533	9.674514	1.384992	0.018858	-0.003099	-0.012364	81.936627	1.516723	103.898552
46333		-0.267465	9.693140	1.354123	0.017034	-0.003755	-0.007380	81.947123	1.522059	103.895390
46334		-0.259379	9.694954	1.393848	0.015581	0.000841	-0.010353	81.956914	1.529607	103.894517
46335		-0.251549	9.680694	1.362327	0.012531	-0.000599	-0.005844	81.964880	1.534326	103.893270
46336		-0.276602	9.673687	1.337452	0.020245	-0.005666	-0.007696	81.977249	1.539845	103.888918
46337		-0.263290	9.713981	1.359864	0.018813	-0.000377	-0.003069	81.988823	1.543007	103.888022
46338		-0.268546	9.675816	1.375084	0.018194	-0.000942	-0.005208	82.000095	1.547493	103.886554
46339		-0.237853	9.687239	1.337061	0.023397	-0.005204	-0.002510	82.014224	1.549954	103.882963
46340		-0.279810	9.709187	1.372117	0.016899	0.000299	-0.003985	82.024775	1.553845	103.882297
46341		-0.236325	9.669351	1.362704	0.015683	-0.000137	-0.000661	82.034565	1.555661	103.881731
46342		-0.266574	9.733554	1.321736	0.017598	-0.000809	0.000250	82.045508	1.557060	103.880775
46343		-0.259415	9.753756	1.332698	0.006362	-0.001451	0.004875	82.049949	1.555630	103.879902
46344		-0.255066	9.700940	1.319360	-0.001204	-0.000087	0.007125	82.050147	1.553184	103.879901
46345		-0.263057	9.715417	1.349615	-0.001136	-0.002111	0.005425	82.050283	1.551391	103.878697
46346		-0.269234	9.695355	1.337818	-0.005561	-0.000634	0.009062	82.047981	1.547802	103.878540
46347		-0.275115	9.675316	1.325929	0.000722	-0.000410	0.011836	82.049221	1.542504	103.878810
46348		-0.275619	9.709862	1.368186	-0.000573	0.000831	0.013061	82.049807	1.536761	103.879804
46349		-0.250340	9.700906	1.320513	-0.009378	0.001063	0.011036	82.045282	1.532035	103.880847
46350		-0.247129	9.682517	1.350132	0.000114	-0.000627	0.013497	82.046241	1.525928	103.881046
46351		-0.263681	9.695332	1.339089	-0.002431	-0.000870	0.006648	82.045657	1.523539	103.880644
46352		-0.280513	9.708084	1.328475	-0.008702	-0.000743	0.007673	82.041551	1.520729	103.880320
46353		-0.260134	9.676817	1.369645	-0.008770	0.001283	0.009372	82.037373	1.516964	103.881356
46354		-0.254253	9.715130	1.353362	-0.006709	-0.003092	0.010683	82.034380	1.512257	103.879934
46355		-0.251316	9.696658	1.383434	-0.011910	0.001173	0.007984	82.028399	1.509271	103.880798
46356		-0.241850	9.682070	1.354283	-0.008623	-0.002417	0.009769	82.024317	1.505137	103.879688
46357		-0.265489	9.674782	1.331778	-0.007407	-0.001982	0.006446	82.020865	1.502774	103.878640
46358		-0.247489	9.661872	1.343649	-0.007419	-0.002331	0.002647	82.017458	1.502686	103.877024
46359		-0.247646	9.661772	1.344344	-0.006835	-0.002811	-0.006613	82.014294	1.507666	103.874466
46360		-0.234499	9.701706	1.369235	-0.005687	-0.000350	-0.008236	82.011889	1.513911	103.873087
46361		-0.282335	9.668798	1.352581	-0.009988	-0.003268	-0.011800	82.006901	1.521797	103.869856
46362		-0.238533	9.719868	1.341304	0.000651	-0.002503	-0.010961	82.008086	1.529414	103.867050
46363		-0.279303	9.707015	1.336519	-0.010584	-0.003138	-0.006340	82.002769	1.534212	103.864327
46364		-0.262200	9.694095	1.348301	-0.002534	0.000108	-0.003050	82.002187	1.537549	103.863633
46365		-0.276019	9.670099	1.395679	-0.001779	-0.003374	-0.004314	82.001915	1.541179	103.860937
46366		-0.236555	9.666778	1.329557	0.000687	-0.001458	0.000436	82.003160	1.542411	103.859643
46367		-0.255746	9.714089	1.360534	0.003209	-0.001914	-0.000313	82.005776	1.543888	103.858095
46368		-0.271266	9.692483	1.306845	0.002006	-0.002003	0.006809	82.007785	1.541461	103.856979
46369		-0.259773	9.675764	1.377136	0.001453	-0.004593	0.002971	82.009362	1.540862	103.854172
46370		-0.276855	9.688609	1.365900	0.000632	0.000914	0.005937	82.010625	1.539162	103.854654
46371		-0.260787	9.694243	1.347517	0.007049	-0.002915	0.005309	82.015439	1.537370	103.852986
46372		-0.284081	9.703251	1.395011	0.006994	-0.000542	0.010809	82.020335	1.532786	103.853034
46373		-0.241393	9.681680	1.357152	0.010203	-0.002457	0.010495	82.026974	1.528088	103.852038
46374		-0.273503	9.689107	1.363046	0.010124	-0.000780	0.008396	82.033656	1.524856	103.851742
46375		-0.267624	9.727629	1.345315	0.004473	-0.000084	0.011557	82.037050	1.519743	103.852176
46376		-0.238402	9.682055	1.355001	0.005227	-0.003567	0.010293	82.040887	1.515215	103.850454
46377		-0.268667	9.654982	1.318792	0.011364	0.000353	0.012668	82.048238	1.509506	103.851224
46378		-0.225519	9.649509	1.352268	0.008223	0.000244	0.011281	82.053849	1.504716	103.851761
46379		-0.239983	9.644199	1.368826	0.022137	-0.002933	0.010102	82.067318	1.500203	103.850461
46380		-0.256603	9.657451	1.354825	0.036989	0.002076	0.008599	82.089432	1.497078	103.851815
46381		-0.259317	9.710851	1.364347	0.036527	-0.001837	0.010655	82.111164	1.492339	103.851177
46382		-0.239188	9.664012	1.329696	0.037135	-0.001618	0.008989	82.133308	1.488704	103.850460
46383		-0.265821	9.600677	1.348714	0.045784	0.001498	0.006804	82.160384	1.486412	103.851410
46384		-0.237282	9.555809	1.353370	0.070870	0.000983	0.002680	82.201884	1.486561	103.851654
46385		-0.249955	9.608125	1.316670	0.104275	-0.004378	-0.004977	82.262363	1.490501	103.848352
46386		-0.261243	9.642372	1.307185	0.110936	0.001104	-0.010212	82.326791	1.497975	103.847700
46387		-0.226133	9.709512	1.314208	0.117201	0.000647	-0.015082	82.394730	1.508043	103.846490
46388		-0.284969	9.710940	1.286941	0.106577	0.000258	-0.012139	82.456645	1.516551	103.845214
46389		-0.255216	9.723160	1.239889	0.118587	-0.002206	-0.014283	82.525337	1.525954	103.842466
46390		-0.210301	9.757375	1.246323	0.101017	-0.004513	-0.027611	82.583961	1.542897	103.837384
46391		-0.257138	9.798567	1.245310	0.073209	-0.001321	-0.038315	82.626617	1.566026	103.833385
46392		-0.290175	9.753607	1.233161	0.056981	-0.003437	-0.037647	82.660009	1.588758	103.828157
46393		-0.254724	9.675834	1.237651	0.056388	-0.003269	-0.032198	82.693008	1.608274	103.823526
46394		-0.297795	9.663655	1.226582	0.067103	-0.004491	-0.033107	82.732186	1.628355	103.818083
46395		-0.236889	9.684791	1.248146	0.072059	-0.004089	-0.040547	82.774130	1.652562	103.812408
46396		-0.247992	9.665478	1.228638	0.085895	-0.005911	-0.047693	82.824017	1.680840	103.805144
46397		-0.307131	9.739349	1.228155	0.087115	-0.005470	-0.051057	82.874538	1.710933	103.797975
46398		-0.273778	9.771134	1.195464	0.084082	-0.006496	-0.042749	82.923380	1.736371	103.790790
46399		-0.307037	9.726132	1.182594	0.066406	-0.003708	-0.041254	82.962081	1.761027	103.785362
46400		-0.321406	9.759679	1.176057	0.078063	-0.011335	-0.035400	83.007405	1.781959	103.775923
46401		-0.274461	9.740468	1.174647	0.045117	-0.005347	-0.042842	83.033873	1.807411	103.769486
46402		-0.257774	9.675296	1.169006	0.053643	-0.017031	-0.059043	83.065039	1.841397	103.755234
46403		-0.330907	9.799185	1.142706	0.047287	-0.015261	-0.060116	83.092522	1.875996	103.741987
46404		-0.299814	9.756411	1.192295	0.006662	-0.006698	-0.071174	83.096922	1.917610	103.732789
46405		-0.320242	9.715756	1.167773	0.014482	-0.013374	-0.070932	83.105603	1.958496	103.719885
46406		-0.344775	9.728147	1.155302	0.009263	-0.009157	-0.073656	83.111415	2.001351	103.709263
46407		-0.351989	9.727967	1.154647	0.004971	-0.012123	-0.077192	83.114638	2.045887	103.696648
46408		-0.320174	9.740784	1.160368	-0.019497	-0.015100	-0.091531	83.103806	2.098500	103.681178
46409		-0.355866	9.676400	1.186761	-0.026562	-0.012264	-0.096865	83.088884	2.154212	103.667112
46410		-0.378406	9.726413	1.159373	-0.006869	-0.017622	-0.099221	83.085177	2.211020	103.649725
46411		-0.381105	9.655048	1.177763	-0.014520	-0.014255	-0.095267	83.077088	2.265682	103.634620
46412		-0.375071	9.751258	1.154308	0.011522	-0.022071	-0.104197	83.083765	2.325012	103.614402
46413		-0.457097	9.835500	1.151770	-0.032963	-0.007334	-0.084905	83.065269	2.374257	103.603947
46414		-0.369956	9.684832	1.156476	-0.006184	-0.015464	-0.081953	83.061986	2.421386	103.589021
46415		-0.400277	9.840840	1.153957	-0.035056	-0.016299	-0.085022	83.042056	2.470072	103.573434
46416		-0.469485	9.618306	1.170645	-0.052915	-0.009570	-0.080110	83.012126	2.516550	103.561939
46417		-0.426370	9.780729	1.167979	-0.022271	-0.018601	-0.071525	82.999477	2.557388	103.545943
46418		-0.447847	9.683289	1.195077	-0.049638	-0.009960	-0.065210	82.971444	2.595360	103.535240
46419		-0.437140	9.744104	1.134093	-0.036555	-0.021503	-0.069912	82.950517	2.635064	103.517673
46420		-0.424462	9.804172	1.174709	-0.068422	-0.013252	-0.079015	82.911574	2.680640	103.504076
46421		-0.469361	9.771433	1.206469	-0.078787	-0.019852	-0.081100	82.866428	2.726800	103.486603
46422		-0.481757	9.584425	1.284260	-0.085746	-0.017969	-0.076697	82.817414	2.770701	103.470416
46423		-0.464183	9.721793	1.188938	-0.013283	-0.023314	-0.080733	82.809674	2.816381	103.450938
46424		-0.413035	9.795422	1.234762	-0.094258	-0.012959	-0.090608	82.755844	2.868534	103.436556
46425		-0.546599	9.493995	1.271585	-0.041207	-0.017994	-0.085946	82.732202	2.917538	103.419670
46426		-0.475764	9.906817	1.176248	-0.026743	-0.019049	-0.091024	82.716847	2.969469	103.401744
46427		-0.515934	9.582355	1.249771	-0.073693	-0.009986	-0.093424	82.674768	3.023293	103.388827
46428		-0.480145	9.854117	1.215172	-0.030030	-0.029817	-0.103156	82.657120	3.081311	103.363829
46429		-0.523414	9.711655	1.280287	-0.102273	-0.005993	-0.108469	82.598700	3.143962	103.352011
46430		-0.520350	9.642822	1.244271	-0.034392	-0.020393	-0.119518	82.578724	3.211938	103.331081
46431		-0.426454	9.659604	1.310916	-0.054371	-0.001836	-0.139714	82.547719	3.292635	103.319235
46432		-0.526350	9.610200	1.291790	-0.002078	0.004355	-0.157572	82.546850	3.384051	103.309507
46433		-0.571908	9.818572	1.299836	0.031235	0.027681	-0.152557	82.565805	3.474234	103.313494
46434		-0.584262	9.783099	1.256371	-0.004160	0.021438	-0.146619	82.564360	3.560695	103.314329
46435		-0.777485	9.959447	1.099630	-0.032117	0.007327	-0.128954	82.546411	3.635958	103.308485
46436		-0.740623	9.770059	1.250957	-0.113680	0.006714	-0.122851	82.481794	3.707821	103.302640
46437		-0.590055	9.586170	1.336379	-0.086253	-0.009569	-0.109289	82.432275	3.770633	103.288530
46438		-0.530656	9.610796	1.313334	-0.083653	-0.000284	-0.110903	82.384635	3.835171	103.279475
46439		-0.584314	9.556588	1.331097	-0.032840	0.022012	-0.113286	82.366873	3.902633	103.282944
46440		-0.779680	9.467537	1.379727	-0.041277	0.039962	-0.089574	82.345168	3.958114	103.298368
46441		-0.855497	9.407266	1.269387	0.010181	0.015447	-0.031563	82.352233	3.978670	103.304318
46442		-0.822634	9.417825	1.333511	-0.005636	0.002486	0.026306	82.350095	3.965497	103.307260
46443		-0.722136	9.305765	1.373279	0.070812	0.009693	0.065803	82.392182	3.930320	103.317366
46444		-0.662724	9.549136	1.323425	0.154333	0.011224	0.075970	82.482286	3.889596	103.329012
46445		-0.599843	9.960960	1.228641	0.174231	0.011524	0.044115	82.583570	3.866849	103.338442
46446		-0.515187	10.272420	1.090237	0.133792	-0.003032	-0.030872	82.660807	3.885746	103.333958
46447		-0.581819	10.028082	1.182595	0.006960	0.008173	-0.113750	82.665335	3.952442	103.329850
46448		-0.545701	9.880105	1.206253	0.051769	-0.001787	-0.178127	82.694870	4.055112	103.315325
46449		-0.674477	9.894406	1.183542	-0.008515	0.014302	-0.222117	82.690201	4.183841	103.306825
46450		-0.706745	9.591707	1.305244	0.002120	0.014123	-0.236895	82.691585	4.321068	103.297089
46451		-0.870327	9.537355	1.266421	0.009639	0.017720	-0.206822	82.697513	4.441354	103.291656
46452		-0.923416	9.542703	1.171056	0.021365	0.016933	-0.145282	82.710532	4.526724	103.290236
46453		-0.833056	9.653513	1.226133	0.029814	-0.002998	-0.100995	82.727681	4.585363	103.280750
46454		-0.918899	9.549813	1.191792	-0.031493	-0.004138	-0.062395	82.709935	4.622099	103.273373
46455		-0.907788	9.218528	1.355924	-0.006983	-0.027557	0.003071	82.705472	4.619807	103.257465
46456		-0.782554	9.470175	1.310980	0.068210	-0.030263	0.042906	82.744267	4.594806	103.242856
46457		-0.713933	9.775612	1.197651	0.097171	-0.022924	0.024165	82.799823	4.580876	103.231113
46458		-0.742646	10.118094	1.115473	0.084968	-0.023024	-0.022135	82.848177	4.593390	103.215920
46459		-0.641465	10.048502	1.078675	-0.010293	-0.014031	-0.086988	82.841920	4.643299	103.201273
46460		-0.652654	10.064031	1.249618	0.029733	-0.010566	-0.189926	82.858203	4.752093	103.181190
46461		-0.605022	9.904328	1.286714	-0.006667	0.018986	-0.277007	82.854411	4.912386	103.171798
46462		-0.812627	9.724545	1.177340	0.011351	0.053923	-0.350056	82.862267	5.116804	103.177080
46463		-0.898761	9.514747	1.256821	0.051043	0.044487	-0.355211	82.892300	5.323374	103.176721
46464		-0.855900	9.599298	1.213829	0.063979	0.049572	-0.352182	82.930116	5.528688	103.179560
46465		-1.149133	9.512103	1.125499	0.052624	0.036643	-0.303842	82.960993	5.705496	103.178599
46466		-1.107231	9.555106	1.160677	0.039998	0.015761	-0.245474	82.983920	5.847759	103.169853
46467		-1.040704	9.625984	1.189802	0.049611	0.007118	-0.215136	83.011987	5.972060	103.158402
46468		-0.905504	9.837824	1.193266	0.054330	0.010674	-0.235024	83.042871	6.108036	103.147609
46469		-0.994460	9.810552	1.159442	0.059200	0.026757	-0.295186	83.076999	6.279238	103.141948
46470		-1.119179	9.975356	1.103359	0.050982	0.018653	-0.329997	83.105695	6.469793	103.129286
46471		-1.109639	9.708541	1.141327	-0.020158	0.018832	-0.350937	83.093369	6.672165	103.115339
46472		-1.257304	9.355298	1.151368	-0.023916	-0.002231	-0.315890	83.077773	6.853253	103.091668
46473		-1.257401	9.305456	1.222914	-0.000642	-0.014215	-0.245488	83.075135	6.993360	103.066031
46474		-1.209427	9.388512	1.243361	0.040276	-0.012404	-0.199534	83.096472	7.107568	103.044598
46475		-1.180609	9.727813	1.172686	0.065860	-0.001745	-0.184895	83.133255	7.214082	103.030386
46476		-1.118040	10.045434	1.122988	0.064671	0.010636	-0.243845	83.169785	7.355095	103.019236
46477		-1.331623	10.017820	1.088695	0.001897	0.021673	-0.291443	83.170656	7.523832	103.011233
46478		-1.248938	10.120077	1.157736	-0.023813	0.019936	-0.344956	83.156214	7.722999	102.998488
46479		-1.237471	9.796838	1.149192	-0.080107	0.035768	-0.414104	83.109975	7.962472	102.989979
46480		-1.594363	9.401805	1.110247	-0.071418	0.011724	-0.396941	83.066949	8.190620	102.968623
46481		-1.557525	9.370624	1.132252	-0.058991	-0.004751	-0.338813	83.030094	8.384449	102.941735
46482		-1.450710	9.312867	1.227109	-0.015775	-0.013934	-0.306609	83.017525	8.559422	102.911696
46483		-1.455654	9.490100	1.249696	0.041093	-0.014554	-0.286553	83.037540	8.722839	102.882749
46484		-1.495176	9.786370	1.221439	0.074414	-0.000568	-0.306356	83.077660	8.898611	102.860495
46485		-1.510117	10.326531	1.148153	0.090526	0.002890	-0.389347	83.126295	9.121735	102.834619
46486		-1.553815	10.818980	1.212141	0.039656	0.032293	-0.543697	83.146756	9.434796	102.815060
46487		-1.573822	11.158625	1.327851	-0.028064	0.067212	-0.769379	83.128971	9.878522	102.800003
46488		-1.545242	10.938409	1.251888	-0.071225	0.110566	-0.996146	83.087974	10.454306	102.793877
46489		-1.751521	11.593511	1.340835	-0.036137	0.135450	-1.219596	83.066640	11.158803	102.786148
46490		-1.743227	12.083821	1.534920	-0.047597	0.190523	-1.488555	83.041246	12.020164	102.791041
46491		-1.813098	11.930326	1.318760	-0.007592	0.220317	-1.778751	83.038025	13.048559	102.792464
46492		-1.963002	12.678600	1.246278	0.034057	0.233687	-2.091758	83.055373	14.255954	102.779514
46493		-1.467673	14.009899	1.550351	0.038996	0.237467	-2.380119	83.070517	15.627572	102.748408
46494		-1.049384	15.994937	1.842635	-0.186216	0.350157	-2.583024	82.970269	17.122399	102.768151
46495		-4.670629	18.956807	2.741037	-0.347702	0.345753	-2.642009	82.774547	18.650500	102.776904
46496		-3.186515	13.283976	0.849060	-0.720423	0.481271	-2.957230	82.381829	20.367648	102.834467
46497		-2.871446	13.335601	1.339321	-0.240719	0.317350	-3.223361	82.218327	22.223662	102.761819
46498		-1.644153	14.229428	2.368507	-0.655961	0.449750	-3.423690	81.835947	24.203360	102.743155
46499		-2.717643	11.004616	1.031161	-0.663619	0.484991	-3.604409	81.444344	26.288437	102.714660
46500		-2.516267	11.064879	0.981470	-0.516004	0.441505	-3.718946	81.111538	28.434124	102.632144
46501		-3.961944	12.428462	2.008195	-0.480526	0.504729	-3.740398	80.807782	30.597474	102.572840
46502		-2.215808	13.723791	3.328526	-0.702261	0.521582	-3.698054	80.374222	32.737715	102.512069
46503		-3.321322	10.243233	2.883074	-1.335122	0.720803	-3.689842	79.636319	34.892851	102.559383
46504		-6.039140	8.669906	2.177932	-1.431758	0.807781	-3.740629	78.856229	37.085676	102.626915
46505		-6.228575	6.933043	1.319764	-1.545992	0.895614	-3.765756	78.026141	39.303760	102.715832
46506		-6.101960	5.039978	0.905010	-1.492485	0.999938	-3.746610	77.256675	41.524160	102.847143
46507		-8.600770	4.680156	0.541403	-1.375895	1.077579	-3.931942	76.552418	43.859688	102.970060
46508		-9.324355	3.243872	-0.263198	-1.218958	1.232562	-4.127742	75.979183	46.325701	103.146004
46509		-9.592572	2.920594	-0.673322	-0.908225	1.327081	-4.265252	75.609402	48.882767	103.348877
46510		-10.471319	2.979070	-0.705797	-0.692697	1.512231	-4.554442	75.437162	51.627131	103.640127
46511		-11.387132	3.051648	-0.844493	-0.331222	1.649621	-4.795445	75.549205	54.525284	104.016570
46512		-11.067445	4.667523	-0.260947	-0.141419	1.734718	-4.857297	75.878269	57.468817	104.510136
46513		-11.053604	5.348056	0.421188	-0.003227	1.799159	-4.766872	76.453506	60.368738	105.182784
46514		-9.540670	6.780290	0.844461	-0.071152	1.820187	-4.533581	77.201386	63.137033	106.076848
46515		-8.519116	6.602030	1.301460	-0.282641	1.820776	-4.122698	78.112611	65.669111	107.265625
46516		-7.410318	6.636864	1.272830	-0.506094	1.779284	-3.632620	79.199249	67.911787	108.762366
46517		-6.782250	6.558026	1.124027	-0.703633	1.697841	-3.074854	80.468438	69.819243	110.554204
46518		-6.573801	5.796899	0.905360	-0.873233	1.574538	-2.472531	81.881561	71.358932	112.582104
46519		-6.241638	5.152677	0.626029	-0.959720	1.417741	-1.882850	83.378375	72.534666	114.733802
46520		-5.662314	4.410542	0.442350	-1.007437	1.230015	-1.346657	84.829491	73.375756	116.854678
46521		-5.473398	3.782214	0.274341	-0.967763	1.025213	-0.918336	86.130876	73.948130	118.787763
46522		-5.808107	3.384072	0.311382	-0.891337	0.799403	-0.573058	87.160835	74.303719	120.388988
46523		-5.999905	2.892303	0.392288	-0.805573	0.547638	-0.324259	87.792785	74.504634	121.523442
46524		-5.971742	2.248861	0.445341	-0.706155	0.274008	-0.158342	87.943985	74.602065	122.099610
46525		-5.678538	1.653074	0.441437	-0.573141	-0.016852	-0.088143	87.573091	74.653640	122.054675
46526		-5.190840	1.261222	0.398509	-0.418526	-0.290316	-0.109647	86.715481	74.709012	121.413658
46527		-4.355651	1.371135	0.488751	-0.221453	-0.576884	-0.185536	85.351614	74.793682	120.130689
46528		-3.093572	1.811664	0.715338	-0.031788	-0.825356	-0.233511	83.548551	74.882023	118.281029
46529		-1.878584	2.544591	1.075074	0.114901	-1.041521	-0.194639	81.366881	74.915712	115.952309
46530		-0.650053	3.603660	1.327051	0.154036	-1.222038	-0.058384	78.881596	74.829376	113.286000
46531		0.306252	4.491424	1.432603	0.143936	-1.356961	0.177034	76.267529	74.564365	110.489532
46532		1.013904	5.247816	1.535943	0.118137	-1.435608	0.486671	73.760001	74.082814	107.814545
46533		1.759067	6.014777	1.707714	0.069184	-1.447959	0.853591	71.584018	73.370064	105.505662
46534		2.086595	6.657156	1.892768	-0.025856	-1.385156	1.286062	69.923325	72.413050	103.783430
46535		1.809930	6.901146	1.931242	-0.158002	-1.270148	1.770356	68.845243	71.208702	102.743135
46536		1.199463	7.007225	1.962825	-0.286906	-1.141866	2.235493	68.282779	69.777429	102.320773
46537		0.108403	6.717837	1.705705	-0.402410	-1.012571	2.636564	68.109392	68.160676	102.381161
46538		-1.157634	6.227772	1.511840	-0.461032	-0.915123	2.933384	68.177320	66.405386	102.741184
46539		-2.339162	5.571906	1.235477	-0.420497	-0.881300	3.100244	68.349573	64.569670	103.194355
46540		-3.562973	5.364819	1.207761	-0.342191	-0.889225	3.162682	68.540755	62.696739	103.626621
46541		-4.502732	5.601410	1.245635	-0.163273	-0.947384	3.163611	68.734692	60.812236	103.952000
46542		-5.682901	6.168806	1.584673	-0.035652	-1.022488	3.129527	68.890007	58.928116	104.155277
46543		-6.660788	6.760319	1.991532	0.030368	-1.132081	3.092479	68.958091	57.042847	104.214076
46544		-7.438731	6.816329	2.201089	0.090593	-1.274373	3.062953	68.934595	55.142147	104.123313
46545		-7.900680	6.794517	2.162004	0.141668	-1.426158	3.030481	68.826212	53.229324	103.888573
46546		-7.916477	6.788976	2.059488	0.224923	-1.570106	2.972589	68.669872	51.315224	103.528007
46547		-8.027417	6.594334	1.706870	0.359444	-1.665511	2.902424	68.535477	49.420032	103.085064
46548		-7.668648	6.623927	1.875597	0.467054	-1.710723	2.813007	68.441207	47.560448	102.601712
46549		-7.203485	6.879689	1.676996	0.632674	-1.719784	2.714712	68.438334	45.753057	102.098211
46550		-6.654521	7.066466	1.997655	0.732216	-1.668765	2.604555	68.518112	44.013346	101.616426
46551		-6.432352	7.270813	1.993723	0.797252	-1.582305	2.516576	68.676730	42.341358	101.179464
46552		-6.507981	7.997640	2.202279	0.888380	-1.435757	2.446407	68.955935	40.736425	100.832378
46553		-6.632226	8.582875	2.700055	0.898557	-1.230428	2.394495	69.328237	39.204698	100.609194
46554		-6.676200	8.839769	3.015508	0.843704	-0.988454	2.348618	69.764761	37.745256	100.533074
46555		-7.028103	8.707640	3.183122	0.752060	-0.759186	2.286813	70.225776	36.366588	100.581651
46556		-7.287039	8.509649	3.222376	0.670764	-0.557889	2.171217	70.693862	35.086586	100.724161
46557		-7.403375	8.260324	3.081102	0.618986	-0.374721	2.045525	71.172527	33.910088	100.941632
46558		-7.488959	8.206162	2.992058	0.588152	-0.203076	1.906760	71.667328	32.836774	101.227409
46559		-7.226422	8.217326	2.806595	0.584367	-0.052155	1.765516	72.183355	31.867203	101.564480
46560		-6.943371	8.219987	2.650467	0.562854	0.084026	1.645715	72.708813	30.982074	101.952505
46561		-6.943353	8.409335	2.441572	0.566930	0.193544	1.564450	73.251699	30.158786	102.379612
46562		-7.153855	8.806134	2.380258	0.598895	0.292191	1.518852	73.828832	29.371070	102.849541
46563		-7.585711	9.072968	2.344582	0.617429	0.354710	1.515210	74.422884	28.592986	103.343739
46564		-7.992150	9.466337	2.723634	0.633012	0.363416	1.538016	75.018906	27.797287	103.836015
46565		-8.128474	9.435483	2.681127	0.598052	0.331277	1.569499	75.575440	26.977035	104.299147
46566		-8.284470	9.130611	2.688754	0.580570	0.259199	1.585304	76.092293	26.132295	104.709454
46567		-7.800997	9.137991	2.410904	0.586686	0.157744	1.570250	76.573607	25.280834	105.042207
46568		-8.010009	8.481269	2.460664	0.526896	0.095299	1.516350	76.993320	24.447260	105.320462
46569		-8.748374	9.374467	1.896335	0.671738	-0.033742	1.367887	77.447775	23.680064	105.489068
46570		-8.014547	8.112570	2.298719	0.728231	-0.056269	1.188901	77.915288	23.007580	105.613697
46571		-8.189989	9.041175	2.268720	0.709407	-0.015627	0.953552	78.365736	22.472473	105.725362
46572		-8.134859	7.895093	1.967520	0.817195	-0.031737	0.806255	78.865089	22.016097	105.805171
46573		-8.460614	8.584509	1.569807	0.883139	-0.070356	0.619314	79.382676	21.661450	105.834106
46574		-7.616685	8.414458	1.773402	1.028392	-0.127876	0.436247	79.962279	21.402689	105.805244
46575		-7.056069	8.767051	1.851456	0.987298	-0.138729	0.387291	80.512732	21.171958	105.761040
46576		-7.899121	9.793123	1.807349	1.136697	-0.195294	0.399723	81.136694	20.928463	105.682191
46577		-7.782205	10.538137	2.223408	1.097551	-0.221868	0.420127	81.732064	20.672944	105.585594
46578		-6.323050	10.705994	2.638746	1.038508	-0.279828	0.577556	82.286067	20.323562	105.465509
46579		-6.029109	10.161258	2.787088	0.834835	-0.302600	0.801133	82.724100	19.847306	105.345783
46580		-6.548252	10.305424	2.739587	0.716674	-0.298624	0.942596	83.099157	19.290959	105.236551
46581		-6.645128	10.017369	3.041370	0.594458	-0.278311	0.953329	83.407988	18.731249	105.136501
46582		-6.953319	9.336208	3.070499	0.517517	-0.271460	0.934163	83.674054	18.182748	105.037181
46583		-8.129819	9.648820	3.322225	0.411841	-0.271744	0.811308	83.876915	17.705222	104.927054
46584		-7.986887	8.762287	3.069286	0.259466	-0.275105	0.623558	83.988965	17.334311	104.802267
46585		-7.686406	8.140132	2.756040	0.214022	-0.294847	0.452346	84.068636	17.060431	104.654207
46586		-7.504340	7.908429	2.372064	0.163092	-0.300860	0.306218	84.116140	16.869411	104.493629
46587		-6.900743	8.157249	2.322647	0.197701	-0.295237	0.185084	84.182552	16.748138	104.328735
46588		-6.150328	8.539399	2.399912	0.114662	-0.243672	0.091975	84.208925	16.683037	104.188933
46589		-5.583700	8.778225	2.436387	-0.025553	-0.161986	0.037991	84.168006	16.653447	104.094453
46590		-5.386116	9.164416	2.331631	-0.204405	-0.050610	-0.020466	84.042615	16.663720	104.062628
46591		-4.809552	8.719695	1.872123	-0.403058	0.078927	-0.143334	83.823278	16.751626	104.100112
46592		-4.398576	7.800204	1.219646	-0.462181	0.222538	-0.304377	83.591711	16.940633	104.212002
46593		-3.947456	7.923835	0.893346	-0.393101	0.325657	-0.382525	83.416464	17.180964	104.379573
46594		-4.102952	7.887507	0.897147	-0.281425	0.404038	-0.360378	83.320047	17.414564	104.594825
46595		-4.050239	8.469278	1.424908	-0.198251	0.459207	-0.304385	83.283208	17.619920	104.847088
46596		-3.829050	9.312120	2.029076	-0.196215	0.463748	-0.234485	83.250618	17.786327	105.106890
46597		-3.673877	9.507013	2.305197	-0.333317	0.446018	-0.162525	83.138485	17.910530	105.361450
46598		-3.466359	9.375276	2.180878	-0.474038	0.399379	-0.132069	82.938127	18.015238	105.589882
46599		-3.194579	9.052480	1.765873	-0.557564	0.339736	-0.104880	82.679865	18.100678	105.784662
46600		-2.940762	8.655077	1.251912	-0.574492	0.277783	-0.062967	82.401379	18.158984	105.945040
46601		-2.585661	8.451805	0.850945	-0.491780	0.203012	0.058499	82.159554	18.142844	106.070626
46602		-2.604453	8.765750	0.835265	-0.413310	0.143555	0.140806	81.953570	18.076176	106.167308
46603		-2.828447	9.166954	1.104620	-0.305109	0.090936	0.224659	81.802125	17.957556	106.240210
46604		-2.853664	9.302726	1.384441	-0.339441	0.059331	0.270862	81.626265	17.810737	106.298309
46605		-2.947742	9.455002	1.364102	-0.387733	0.040656	0.284692	81.419844	17.654281	106.347272
46606		-2.819123	9.180458	0.967050	-0.455771	0.035332	0.280039	81.173291	17.500588	106.392978
46607		-2.434883	8.196808	0.225681	-0.466863	0.042131	0.278715	80.921758	17.348038	106.443534
46608		-2.396014	7.853515	-0.194660	-0.352581	0.040360	0.275906	80.735268	17.197500	106.493088
46609		-2.619151	7.501787	-0.326823	-0.220949	0.045414	0.270286	80.624987	17.050334	106.545707
46610		-3.005408	7.099179	-0.067622	-0.057344	0.035082	0.221989	80.605197	16.929968	106.587424
46611		-3.132712	7.470783	0.497386	0.106397	0.007008	0.164207	80.672684	16.839228	106.607066
46612		-3.488370	7.984222	1.116190	0.163327	-0.027790	0.093402	80.764844	16.785732	106.598971
46613		-3.533734	8.232540	1.497389	0.141522	-0.066975	0.036036	80.836188	16.760655	106.562368
46614		-3.421131	8.039225	1.473771	0.085216	-0.101037	-0.008933	80.868278	16.758442	106.501114
46615		-3.247232	8.112125	1.347237	0.090060	-0.132251	-0.030319	80.897197	16.765026	106.419617
46616		-3.088627	8.479357	1.349157	0.093170	-0.151591	-0.042651	80.924284	16.777415	106.325273
46617		-2.884899	9.038692	1.365332	0.045097	-0.170764	-0.047425	80.920372	16.790251	106.219398
46618		-2.696065	8.775797	1.132289	-0.018992	-0.180821	-0.040253	80.878229	16.798632	106.107988
46619		-2.698576	8.473264	0.883729	0.010094	-0.201372	-0.021119	80.849729	16.793699	105.986506
46620		-2.892048	8.513524	0.880337	0.061139	-0.226030	-0.008833	80.846677	16.780097	105.851381
46621		-3.093341	8.587756	0.958409	0.115687	-0.240645	-0.024968	80.871917	16.773757	105.706342
46622		-3.260981	8.781765	1.207755	0.155938	-0.273973	-0.065318	80.913489	16.787883	105.537534
46623		-3.254048	8.785579	1.286927	0.162641	-0.306478	-0.111596	80.951938	16.824790	105.345383
46624		-3.005465	8.967313	1.293787	0.175349	-0.339367	-0.133493	80.991372	16.871866	105.131458
46625		-2.628449	9.132109	1.225521	0.148053	-0.356681	-0.139784	81.011765	16.920447	104.906930
46626		-2.323130	9.052510	0.954535	0.109267	-0.357226	-0.133864	81.009891	16.966277	104.682334
46627		-2.140581	8.854499	0.651706	0.106453	-0.348303	-0.130001	81.007790	17.010099	104.463576
46628		-2.020288	8.534028	0.363301	0.151040	-0.343568	-0.117440	81.032347	17.047867	104.248536
46629		-2.046727	8.439436	0.319927	0.234396	-0.335251	-0.103513	81.106258	17.078079	104.039932
46630		-2.250760	8.876626	0.632249	0.327019	-0.330386	-0.101825	81.234186	17.108678	103.834207
46631		-2.457353	9.283951	1.226858	0.352940	-0.315773	-0.112885	81.378960	17.146710	103.636358
46632		-2.425020	9.545882	1.620988	0.308895	-0.287253	-0.116832	81.503443	17.190398	103.454964
46633		-2.529666	9.885990	1.948778	0.239277	-0.238640	-0.102857	81.596647	17.230045	103.303844
46634		-2.576193	10.270740	2.010969	0.143019	-0.175032	-0.069073	81.646846	17.256548	103.193304
46635		-2.439576	10.223944	1.786297	0.003518	-0.100116	-0.038763	81.630903	17.271626	103.130026
46636		-2.353391	9.691544	1.435312	-0.120597	-0.024051	-0.023590	81.557768	17.284909	103.113068
46637		-2.164252	8.898664	0.993261	-0.173063	0.052816	-0.005130	81.468473	17.293727	103.143490
46638		-2.209797	8.426024	0.606772	-0.162775	0.122453	-0.006693	81.397467	17.309863	103.214962
46639		-2.455020	8.303974	0.694072	-0.108655	0.165407	-0.026724	81.364407	17.340648	103.310240
46640		-2.865093	8.315443	0.992388	-0.051708	0.183454	-0.037965	81.367106	17.379812	103.415128
46641		-3.276641	8.347159	1.297856	-0.017856	0.178326	-0.058291	81.387652	17.429595	103.515273
46642		-3.387071	8.189254	1.464894	0.006658	0.153097	-0.074267	81.417610	17.486681	103.598951
46643		-3.668657	8.147493	1.591149	0.053472	0.110420	-0.073553	81.466688	17.539214	103.657505
46644		-3.942848	8.129814	1.770137	0.065593	0.068764	-0.088989	81.515070	17.597416	103.689862
46645		-4.127725	8.006045	1.929065	0.076894	0.026080	-0.113299	81.561468	17.665269	103.694877
46646		-4.414847	8.042544	2.064181	0.072276	-0.016693	-0.135412	81.597047	17.742636	103.672369
46647		-4.590419	8.132805	2.150853	0.065435	-0.059860	-0.120449	81.621111	17.807351	103.625695
46648		-4.706125	8.155091	2.351714	0.030624	-0.082905	-0.095491	81.621738	17.856672	103.567236
46649		-5.020734	8.065536	2.469780	-0.029466	-0.084979	-0.095258	81.587422	17.905003	103.507782
46650		-5.411479	7.762021	2.378771	-0.098349	-0.061357	-0.126142	81.517070	17.973553	103.459264
46651		-5.896893	7.370149	2.340921	-0.145738	-0.029572	-0.182223	81.423752	18.075736	103.424885
46652		-6.394842	7.115145	2.206905	-0.169158	0.006349	-0.257874	81.321363	18.224745	103.404424
46653		-5.501613	7.101282	1.824182	-0.151138	0.041003	-0.373608	81.232375	18.441336	103.394207
46654		13.422192	21.909822	-2.110453	1.348226	-0.289963	1.064649	81.980768	17.816193	103.313935
46655		-6.964054	30.422661	9.635693	-1.691896	0.542872	2.986141	81.182584	16.170681	103.897096
46656		3.012485	-5.593993	1.384691	-0.417636	0.326453	2.795847	81.062843	14.618792	104.344411
46657		-4.264012	19.638258	1.056174	-0.280008	0.139472	2.777466	80.983731	13.060819	104.680950
46658		-4.355622	1.316285	-0.066110	-0.576813	0.297213	2.587797	80.742171	11.625882	105.093339
46659		-7.331088	21.393745	-0.833320	1.462199	-0.126943	2.594529	81.610764	10.147218	105.251883
46660		0.796174	16.043576	1.107340	-0.150577	-0.584108	2.647685	81.507377	8.599628	105.141324
46661		-2.944301	16.764451	2.028239	1.154195	-0.780793	2.156873	82.132154	7.314203	104.871319
46662		-1.572873	13.420516	1.915846	-0.734315	-0.068034	1.776590	81.724714	6.302946	104.975718
46663		-0.262020	10.288784	1.844118	0.345218	-0.454894	1.479748	81.909184	5.428095	104.837249
46664		-0.808218	11.670210	1.250464	-0.232987	-0.242858	1.317622	81.773836	4.663063	104.805860
46665		-0.435294	9.708414	1.573006	-0.008437	-0.278041	1.175491	81.765164	3.975135	104.743995
46666		-0.110832	11.189475	1.334791	0.005240	-0.181756	0.989146	81.767619	3.401326	104.721388
46667		0.489784	9.423291	1.967911	-0.167757	0.003567	0.752694	81.675869	2.976299	104.785159
46668		0.572065	9.044591	1.590444	0.386965	-0.015838	0.272997	81.899123	2.822147	104.797897
46669		-0.485843	10.667394	1.130640	0.330773	0.002550	0.065513	82.089769	2.786629	104.804143
46670		-0.528442	9.351429	1.442095	0.099239	0.063744	0.051331	82.149445	2.764432	104.843782
46671		-0.519696	9.578856	1.290413	0.460635	-0.020745	0.032511	82.413724	2.745828	104.834065
46672		-0.430750	10.398587	1.087107	0.261403	0.015340	0.052855	82.564965	2.718887	104.846142
46673		-0.496631	9.701522	1.184487	0.151979	0.022375	0.042367	82.653593	2.697917	104.861574
46674		-0.536943	9.944024	1.136549	0.177566	-0.004773	0.056665	82.756271	2.667301	104.862385
46675		-0.443082	9.974287	1.177241	0.080613	0.000771	0.071484	82.803519	2.628179	104.867560
46676		-0.419296	9.963943	1.082946	0.025928	-0.010915	0.059207	82.819167	2.595677	104.865003
46677		-0.475530	9.832690	1.189163	-0.049428	-0.010520	0.063288	82.791585	2.560402	104.863147
46678		-0.452014	9.728545	1.210890	-0.059281	-0.015793	0.070856	82.758336	2.520926	104.858679
46679		-0.453136	9.726054	1.175569	-0.065288	-0.021791	0.066758	82.721402	2.482860	104.850702
46680		-0.425831	9.676620	1.252758	-0.074724	-0.021437	0.070088	82.679175	2.443405	104.843021
46681		-0.375119	9.636133	1.252748	-0.060960	-0.019508	0.062672	82.644776	2.407818	104.836096
46682		-0.409082	9.622695	1.251919	-0.045116	-0.022334	0.052837	82.619449	2.378089	104.826685
46683		-0.374824	9.668133	1.262699	-0.039965	-0.025262	0.049688	82.596913	2.349448	104.815564
46684		-0.396171	9.585630	1.318678	-0.040970	-0.015036	0.042436	82.574109	2.326160	104.809559
46685		-0.379204	9.627503	1.244094	0.006428	-0.023126	0.037910	82.578179	2.304363	104.798797
46686		-0.367803	9.738964	1.252151	-0.010150	-0.016159	0.035431	82.572989	2.284970	104.791639
46687		-0.369266	9.700654	1.270263	-0.008927	-0.015364	0.035905	82.568438	2.264887	104.785143
46688		-0.312837	9.645996	1.234735	-0.013850	-0.017206	0.028071	82.561089	2.249596	104.776850
46689		-0.374702	9.733333	1.273481	-0.014547	-0.013816	0.008190	82.553274	2.245371	104.769180
46690		-0.401046	9.669085	1.298992	-0.043055	-0.007353	0.015715	82.529378	2.237826	104.765578
46691		-0.356932	9.537531	1.298811	-0.005364	-0.008061	0.009881	82.526960	2.233066	104.761309
46692		-0.373862	9.659933	1.252534	0.030337	-0.006065	0.004799	82.545109	2.231818	104.757627
46693		-0.410638	9.720477	1.268616	0.030053	0.001369	0.003937	82.563175	2.231137	104.758275
46694		-0.373045	9.660768	1.246323	0.038241	0.000582	0.003894	82.585997	2.230898	104.758304
46695		-0.371765	9.752553	1.237719	0.048984	-0.001017	-0.000677	82.614844	2.232662	104.757255
46696		-0.387692	9.747518	1.251946	0.023198	0.000560	-0.001035	82.629034	2.235222	104.756910
46697		-0.373236	9.771449	1.202842	0.018881	-0.001669	0.002987	82.640628	2.234856	104.755760
46698		-0.393969	9.727745	1.237298	-0.009578	0.004072	0.002930	82.636131	2.235421	104.757706
46699		-0.399201	9.689302	1.255560	-0.013139	-0.000701	-0.003985	82.629381	2.239088	104.756593
46700		-0.355602	9.649133	1.249487	-0.001140	-0.002829	-0.002161	82.629551	2.242039	104.754241
46701		-0.373151	9.661890	1.237563	0.008669	0.003143	-0.002134	82.635387	2.244937	104.755451
46702		-0.360425	9.702251	1.260572	0.017590	0.000173	-0.009317	82.646334	2.252173	104.754283
46703		-0.380068	9.623937	1.251520	0.022532	0.002620	-0.015003	82.660064	2.262345	104.754253
46704		-0.373840	9.735667	1.255767	0.047864	-0.003234	-0.016363	82.688259	2.273336	104.750637
46705		-0.387461	9.787006	1.223812	0.017616	-0.000185	-0.013121	82.699114	2.282234	104.749156
46706		-0.413821	9.688465	1.203269	0.010507	0.005107	-0.013035	82.706104	2.291942	104.750533
46707		-0.379011	9.754402	1.220837	0.010828	-0.003637	-0.006252	82.713012	2.296686	104.747591
46708		-0.417980	9.723363	1.243856	-0.003163	0.001190	-0.007325	82.712099	2.302863	104.747158
46709		-0.421662	9.759632	1.185286	0.001417	-0.003647	-0.006685	82.713613	2.307853	104.744179
46710		-0.412410	9.743262	1.257408	-0.028918	0.001429	-0.001755	82.697967	2.310883	104.744288
46711		-0.371344	9.629878	1.227980	-0.014362	-0.001504	-0.004460	82.690496	2.314764	104.742689
46712		-0.385186	9.697277	1.271843	-0.012430	-0.002533	-0.007326	82.684189	2.320671	104.740138
46713		-0.400821	9.675009	1.219478	-0.012405	-0.002894	-0.011126	82.677786	2.328237	104.737260
46714		-0.378264	9.682289	1.243932	-0.003088	0.000111	-0.018724	82.676858	2.340814	104.735380
46715		-0.413118	9.689384	1.250415	-0.002883	-0.005280	-0.016175	82.675839	2.351075	104.730775
46716		-0.411396	9.745749	1.204155	-0.001610	-0.005207	-0.023298	82.675619	2.365862	104.725536
46717		-0.375301	9.776649	1.181820	-0.019064	-0.008154	-0.023257	82.665238	2.379937	104.718777
46718		-0.431420	9.739628	1.225445	-0.031714	-0.005892	-0.019623	82.647765	2.392582	104.713416
46719		-0.440939	9.735556	1.287850	-0.033473	-0.008935	-0.020129	82.629115	2.404819	104.706434
46720		-0.406929	9.693115	1.243288	-0.041514	-0.011868	-0.019660	82.605882	2.417044	104.697664
46721		-0.403544	9.730826	1.230445	-0.045889	-0.012421	-0.017758	82.580039	2.427671	104.688866
46722		-0.399610	9.659072	1.251222	-0.041340	-0.015927	-0.023047	82.556794	2.441510	104.677527
46723		-0.384214	9.645723	1.267224	-0.050298	-0.011645	-0.021781	82.528427	2.454472	104.668861
46724		-0.498284	9.717579	1.260804	-0.020586	-0.016911	-0.025054	82.517036	2.469367	104.656803
46725		-0.391224	9.679271	1.316176	-0.048127	-0.002977	-0.025489	82.490109	2.485078	104.652779
46726		-0.392166	9.552865	1.281393	-0.016846	-0.015581	-0.035035	82.480853	2.505736	104.640720
46727		-0.375610	9.706074	1.214274	-0.004882	-0.016362	-0.039132	82.478321	2.528190	104.628055
46728		-0.484213	9.688596	1.251273	-0.018145	-0.013703	-0.047363	82.468319	2.555986	104.616135
46729		-0.442386	9.721350	1.270743	-0.008264	-0.009742	-0.049019	82.463973	2.584551	104.606485
46730		-0.413756	9.713920	1.265903	-0.020050	-0.013025	-0.048312	82.452882	2.612935	104.594872
46731		-0.452182	9.629277	1.277864	-0.011391	-0.009851	-0.050450	82.446727	2.642302	104.585044
46732		-0.445595	9.778714	1.269459	0.001398	-0.014801	-0.063407	82.447813	2.679123	104.571278
46733		-0.457060	9.648535	1.292410	-0.038016	-0.002518	-0.065236	82.426534	2.717439	104.564496
46734		-0.446470	9.544189	1.309135	0.014456	-0.011367	-0.071285	82.435148	2.758988	104.552078
46735		-0.448565	9.673782	1.286042	0.027689	-0.012005	-0.082540	82.451180	2.806419	104.538599
46736		-0.509141	9.711525	1.248926	0.028868	-0.009854	-0.088010	82.468011	2.857586	104.525804
46737		-0.470586	9.819681	1.189363	0.016015	-0.016664	-0.097114	82.477143	2.912951	104.508603
46738		-0.486399	9.797024	1.278319	-0.024839	-0.014277	-0.112162	82.462959	2.977507	104.491486
46739		-0.473845	9.621148	1.313271	-0.035724	-0.022431	-0.127983	82.442113	3.049966	104.468658
46740		-0.437998	9.619205	1.291427	-0.008463	-0.027084	-0.151806	82.436710	3.136062	104.441228
46741		-0.481160	9.736578	1.305874	0.009975	-0.016780	-0.184949	82.441916	3.241297	104.417292
46742		-0.367121	9.873392	1.301100	0.001821	-0.014277	-0.229582	82.442384	3.372529	104.391279
46743		-0.294453	9.868787	1.355452	-0.040998	0.018626	-0.298785	82.418966	3.545087	104.378860
46744		-0.607908	10.046450	1.205918	-0.051093	0.036405	-0.355654	82.390182	3.751723	104.372033
46745		-0.638627	10.211290	1.177262	-0.137174	0.029018	-0.381429	82.311529	3.971987	104.358965
46746		-0.996665	9.907556	1.213631	-0.202872	0.026112	-0.369325	82.195211	4.185568	104.344679
46747		-0.681074	9.473398	1.424283	-0.135348	0.009435	-0.362412	82.116727	4.393461	104.321197
46748		-0.838007	9.406085	1.404919	-0.099729	0.033175	-0.328957	82.059921	4.584655	104.313501
46749		-0.963579	9.255953	1.407671	-0.032558	0.029078	-0.262721	82.041701	4.737492	104.308733
46750		-0.906214	9.412523	1.400257	0.010608	0.027068	-0.197888	82.048634	4.853831	104.307836
46751		-0.984774	9.518278	1.348622	0.018184	0.021623	-0.135566	82.059969	4.933922	104.308938
46752		-0.967406	9.621458	1.307710	0.020523	0.010033	-0.082880	82.072531	4.983658	104.307508
46753		-0.963815	9.606991	1.277345	-0.014735	-0.001550	-0.045726	82.064479	5.010935	104.302560
46754		-0.931675	9.785349	1.306034	0.005475	-0.015684	-0.019528	82.067580	5.022694	104.291507
46755		-0.822577	9.808682	1.313331	-0.033743	-0.009332	-0.040295	82.048283	5.046272	104.282553
46756		-0.733235	9.955147	1.318923	-0.011877	-0.012353	-0.103961	82.041006	5.106201	104.266673
46757		-0.738830	10.012644	1.317577	-0.049604	0.015229	-0.186336	82.012811	5.214593	104.260043
46758		-0.780896	9.907953	1.402746	-0.051936	0.029010	-0.262897	81.983523	5.367974	104.254954
46759		-0.754479	9.908059	1.423956	-0.029845	0.054312	-0.344797	81.967513	5.569388	104.257767
46760		-0.822265	9.933099	1.343680	-0.013859	0.068102	-0.426924	81.960897	5.818942	104.261674
46761		-1.062248	9.683619	1.353626	-0.080675	0.084244	-0.448536	81.916675	6.081614	104.273050
46762		-1.095624	9.212826	1.491605	-0.005735	0.064072	-0.433822	81.914422	6.334755	104.273895
46763		-1.145132	9.225098	1.417689	0.063544	0.058303	-0.389382	81.951802	6.561785	104.275233
46764		-1.292544	9.216303	1.274713	0.075298	0.044832	-0.312351	81.995864	6.744475	104.275126
46765		-1.467392	9.282276	1.264576	0.059809	0.013772	-0.203259	82.029904	6.862352	104.266260
46766		-1.393179	9.503550	1.290272	0.020258	-0.022235	-0.103006	82.039865	6.920945	104.244754
46767		-1.334837	9.509287	1.349214	-0.007953	-0.030143	-0.040872	82.033603	6.943196	104.223817
46768		-1.074827	9.771362	1.243620	-0.004314	-0.037104	-0.034668	82.029096	6.961843	104.199270
46769		-1.128837	9.877018	1.378734	-0.024287	-0.020530	-0.057278	82.013965	6.994161	104.182506
46770		-1.060757	9.964802	1.348319	-0.033624	-0.015405	-0.115394	81.993360	7.060321	104.163873
46771		-1.090209	9.994493	1.352188	-0.025339	0.016698	-0.206756	81.978730	7.180411	104.156337
46772		-1.069713	9.916503	1.364601	-0.037256	0.032732	-0.282964	81.957735	7.345469	104.151668
46773		-1.241596	9.719732	1.405054	-0.048690	0.047524	-0.329386	81.930670	7.537597	104.151744
46774		-1.243539	9.672196	1.417194	0.002345	0.050231	-0.357076	81.932853	7.746094	104.150972
46775		-1.309344	9.598783	1.397227	-0.010947	0.069565	-0.381194	81.928557	7.969385	104.159418
46776		-1.492008	9.532041	1.312231	0.009503	0.050914	-0.368514	81.934758	8.184420	104.158109
46777		-1.501196	9.613771	1.302794	-0.023689	0.040280	-0.346383	81.921212	8.385608	104.152596
46778		-1.496287	9.625197	1.311194	-0.031524	0.035963	-0.336323	81.903012	8.581183	104.145260
46779		-1.445021	9.826766	1.373542	-0.044609	0.030283	-0.350613	81.876503	8.783959	104.133523
46780		-1.567496	9.628548	1.391207	-0.076667	0.038087	-0.357149	81.832283	8.991510	104.125493
46781		-1.492264	9.521518	1.381089	-0.038502	0.037328	-0.377012	81.809442	9.209817	104.115362
46782		-1.586118	9.469613	1.382391	-0.029353	0.041702	-0.381370	81.792248	9.431390	104.107199
46783		-1.692215	9.642955	1.301130	-0.024331	0.029705	-0.378616	81.776676	9.649977	104.092398
46784		-1.789490	9.608082	1.274547	-0.065242	0.023779	-0.376643	81.737149	9.867393	104.074136
46785		-1.749969	9.710943	1.360887	-0.061896	0.004410	-0.376246	81.697407	10.082531	104.044693
46786		-1.727438	9.847992	1.349960	-0.106806	0.010019	-0.399191	81.632126	10.311561	104.016225
46787		-1.861699	9.696258	1.386314	-0.129910	0.006658	-0.425081	81.552570	10.554503	103.983398
46788		-1.773285	9.766562	1.512873	-0.106351	0.009769	-0.456744	81.486255	10.816056	103.949207
46789		-1.652318	9.820397	1.559278	-0.078817	0.026371	-0.515703	81.436226	11.111947	103.919281
46790		-1.978524	9.698721	1.349575	-0.085490	0.042147	-0.557423	81.383341	11.433230	103.894434
46791		-2.122994	9.640114	1.360657	-0.067545	0.016445	-0.572525	81.337168	11.760402	103.853177
46792		-2.195357	9.460049	1.409255	-0.094054	0.000762	-0.561683	81.273948	12.080473	103.803347
46793		-2.149301	9.031344	1.365326	-0.073324	-0.016494	-0.533163	81.220557	12.382403	103.745759
46794		-2.233790	9.232490	1.408349	-0.021796	-0.034961	-0.486900	81.195048	12.656929	103.681245
46795		-2.197681	9.520152	1.422068	-0.004343	-0.031900	-0.489378	81.179420	12.932656	103.618204
46796		-2.118890	9.906965	1.590668	0.038460	-0.028529	-0.534465	81.187634	13.234655	103.552878
46797		-2.071849	9.739004	1.493037	0.013045	0.001481	-0.601216	81.183440	13.576633	103.499007
46798		-2.445986	9.556123	1.313675	0.024551	0.001367	-0.631755	81.184947	13.936326	103.442140
46799		-2.413203	9.648991	1.445049	0.035762	-0.000861	-0.662573	81.191387	14.312841	103.381199
46800		-2.157858	9.771120	1.674735	0.073891	0.020445	-0.720325	81.221214	14.724378	103.327434
46801		-2.249535	10.146365	1.686818	0.083592	0.059636	-0.785550	81.260526	15.175864	103.290975
46802		-2.382573	10.524806	1.645121	0.059062	0.097168	-0.870928	81.289478	15.679390	103.268997
46803		-2.427469	10.963901	1.623599	0.049485	0.130459	-1.003728	81.314779	16.260619	103.254920
46804		-2.234249	11.179132	1.559387	0.016054	0.170329	-1.161302	81.323606	16.934910	103.250272
46805		-2.052007	11.258985	1.535178	-0.015793	0.218718	-1.331240	81.317976	17.709276	103.258996
46806		-2.714332	11.809396	1.502200	-0.079119	0.256108	-1.505400	81.278219	18.585797	103.273822
46807		-2.974252	12.016283	1.327120	-0.131391	0.248816	-1.684329	81.201499	19.562746	103.266909
46808		-3.286233	14.466979	2.435659	-0.230376	0.197561	-1.791909	81.053314	20.596244	103.216931
46809		-3.873149	13.391382	1.683529	-0.613650	0.284586	-1.931096	80.696747	21.715978	103.200911
46810		-4.086246	11.965053	1.308273	-0.490385	0.214587	-2.139364	80.383632	22.946801	103.113799
46811		-2.691224	12.152755	1.895671	-0.523678	0.233871	-2.353962	80.041658	24.300106	103.007159
46812		-2.268303	11.408620	2.145180	-0.632117	0.312631	-2.511330	79.644121	25.749429	102.921320
46813		-2.522392	10.661627	2.035729	-0.674938	0.385878	-2.659393	79.227010	27.289284	102.851454
46814		-2.494944	8.825581	1.738825	-0.683588	0.470207	-2.776627	78.815525	28.903565	102.807451
46815		-3.228873	8.845583	1.803461	-0.530952	0.477957	-2.869898	78.480294	30.571052	102.743311
46816		-4.010999	8.379884	1.885912	-0.524271	0.532047	-2.894540	78.157856	32.257940	102.699321
46817		-4.521214	7.344358	1.629180	-0.445435	0.551266	-2.905807	77.879192	33.953560	102.654923
46818		-4.212655	6.655042	1.540532	-0.382248	0.543110	-2.877300	77.629159	35.631639	102.599061
46819		-4.018373	6.298405	1.516424	-0.333809	0.555610	-2.811042	77.410800	37.274396	102.552092
46820		-4.215892	6.404992	1.758457	-0.349797	0.578465	-2.748660	77.193072	38.884573	102.522675
46821		-4.430158	5.999960	1.646750	-0.403107	0.612404	-2.674881	76.961835	40.458227	102.520981
46822		-4.508981	5.547263	1.440571	-0.392004	0.628310	-2.586679	76.749608	41.984245	102.538543
46823		-4.894055	5.636783	1.394029	-0.339389	0.630572	-2.532737	76.570891	43.481005	102.560539
46824		-4.843222	5.274685	1.211568	-0.339176	0.639755	-2.459651	76.403383	44.937816	102.597884
46825		-4.606023	5.257856	1.060782	-0.274214	0.612233	-2.366101	76.267554	46.339389	102.626513
46826		-4.891346	5.502260	1.473153	-0.238635	0.652312	-2.344525	76.177502	47.733924	102.689235
46827		-5.688501	6.488356	2.078523	-0.291244	0.718988	-2.340772	76.099479	49.136122	102.806887
46828		-5.050763	6.435168	1.946826	-0.313593	0.755938	-2.243721	76.051579	50.488916	102.978412
46829		-5.364445	5.865461	1.470852	-0.461301	0.810720	-2.093846	75.986982	51.766686	103.233870
46830		-5.750290	5.444433	1.196553	-0.438310	0.819491	-2.010500	75.964998	52.998739	103.522278
46831		-6.451195	4.776032	1.059226	-0.406287	0.833281	-2.022553	75.979689	54.240144	103.828639
46832		-5.979879	5.193210	0.845029	-0.267726	0.789771	-1.955802	76.065607	55.437493	104.120529
46833		-6.640615	5.267584	0.839305	-0.179084	0.720305	-1.908709	76.168059	56.599582	104.366822
46834		-5.760372	4.976509	0.745824	-0.129865	0.603445	-1.860378	76.219928	57.717797	104.516327
46835		-6.509362	4.432337	0.651051	-0.088475	0.498044	-1.818104	76.215965	58.798882	104.570308
46836		-5.989648	4.543817	0.261986	0.019956	0.312272	-1.784703	76.108166	59.835090	104.430918
46837		-6.575166	5.497750	0.744407	0.107194	0.127391	-1.662997	75.889296	60.778668	104.107326
46838		-5.975014	6.151325	0.835092	0.033004	-0.047274	-1.391244	75.503084	61.544843	103.644135
46839		-5.817435	6.238719	0.886022	0.187019	-0.279113	-1.072200	75.029557	62.099694	102.984459
46840		-5.182142	5.807684	1.040300	0.117375	-0.426781	-0.710513	74.444651	62.428319	102.246963
46841		-4.483272	6.570789	1.060891	0.204868	-0.578083	-0.331604	73.850628	62.521992	101.443834
46842		-3.519420	6.336793	1.371417	0.160160	-0.672236	0.025959	73.242491	62.398648	100.653849
46843		-3.340161	6.978558	1.529145	0.120747	-0.725757	0.411857	72.687596	62.052564	99.947584
46844		-3.314350	6.883847	1.593730	0.023920	-0.759555	0.774254	72.178314	61.497974	99.353429
46845		-3.021320	6.852062	1.607656	-0.069566	-0.765569	1.105459	71.737381	60.761230	98.894503
46846		-3.326118	6.771713	1.558210	-0.108404	-0.769655	1.403321	71.388219	59.858343	98.563512
46847		-3.613220	6.457894	1.396088	-0.182604	-0.748157	1.659739	71.114108	58.821406	98.365538
46848		-3.848294	6.157909	1.167570	-0.159336	-0.739822	1.869717	70.938726	57.669580	98.266085
46849		-4.291378	5.850126	1.073776	-0.098189	-0.742788	2.033204	70.850032	56.430849	98.226458
46850		-4.782195	5.667411	0.968568	0.003454	-0.762244	2.158296	70.842950	55.118247	98.214888
46851		-5.181275	5.621008	0.959096	0.131431	-0.798034	2.240707	70.902249	53.756809	98.194200
46852		-5.525125	5.644110	0.990140	0.256250	-0.822593	2.285787	71.025750	52.363771	98.164320
46853		-5.677818	5.768973	1.163047	0.401600	-0.840611	2.302820	71.219329	50.960832	98.116700
46854		-5.774971	6.052488	1.409917	0.510887	-0.832643	2.285868	71.473476	49.565989	98.065711
46855		-5.955657	6.530159	1.781725	0.577215	-0.813350	2.253061	71.763958	48.195340	98.011191
46856		-5.925484	6.770416	1.955456	0.580811	-0.788716	2.213106	72.058906	46.848267	97.958937
46857		-5.908204	7.060970	2.055717	0.572972	-0.751078	2.162304	72.354835	45.538474	97.912941
46858		-5.806694	7.318775	2.117344	0.560038	-0.710669	2.125365	72.654914	44.253158	97.882392
46859		-5.729968	7.694766	2.174353	0.508261	-0.636789	2.103108	72.953663	42.995527	97.892108
46860		-5.795335	7.772046	2.102653	0.463153	-0.557946	2.072845	73.256285	41.764652	97.946172
46861		-6.454820	8.383141	2.209853	0.484156	-0.499248	1.992920	73.579199	40.590014	98.014032
46862		-6.378283	7.498167	2.176929	0.384308	-0.402321	1.872275	73.867551	39.494026	98.118640
46863		-6.893101	7.357311	1.834704	0.442766	-0.398157	1.809110	74.174957	38.436106	98.202744
46864		-7.516300	7.566529	1.761366	0.527381	-0.418921	1.660713	74.498691	37.453505	98.236332
46865		-6.643323	7.139600	1.668291	0.593813	-0.429235	1.504811	74.832374	36.558352	98.224078
46866		-5.817420	7.834926	1.849381	0.615654	-0.396412	1.342405	75.171753	35.755109	98.199763
46867		-5.808789	7.720439	1.548129	0.659329	-0.319604	1.271188	75.554798	35.005526	98.207448
46868		-5.796643	8.054418	1.294407	0.648750	-0.202541	1.115318	75.959013	34.356080	98.262763
46869		-5.444229	8.406232	1.326744	0.707361	-0.081208	1.001268	76.426775	33.789267	98.372800
46870		-6.060478	8.776768	1.417878	0.708943	0.045791	0.966990	76.936043	33.254667	98.557469
46871		-7.094607	9.405046	1.574450	0.748504	0.129201	1.009899	77.495311	32.708170	98.795505
46872		-8.090906	9.646906	1.672538	0.823363	0.141224	1.070454	78.101258	32.124346	99.043719
46873		-8.366627	9.599519	2.015636	0.909965	0.098346	1.158672	78.740006	31.486717	99.264854
46874		-8.735221	10.072126	2.426253	0.947226	0.001436	1.304786	79.370570	30.751572	99.432540
46875		-8.756167	10.531887	2.903946	0.907667	-0.102505	1.450466	79.944673	29.924906	99.537894
46876		-8.415498	10.703323	3.082700	0.773732	-0.176705	1.584180	80.420678	29.012125	99.601921
46877		-7.847952	11.078335	3.320325	0.572647	-0.200156	1.664068	80.772537	28.054197	99.649916
46878		-7.403537	10.711227	3.042555	0.315594	-0.167648	1.687920	80.985377	27.083084	99.716592
46879		-7.151844	10.008828	2.569516	0.103872	-0.092180	1.665523	81.093807	26.133670	99.823962
46880		-7.250442	9.383231	2.054839	0.016733	-0.008913	1.589561	81.169876	25.232137	99.974754
46881		-7.227046	9.038093	1.752745	-0.023767	0.087569	1.497580	81.240451	24.393288	100.173413
46882		-7.146789	8.884106	1.550087	0.045113	0.173686	1.406981	81.365716	23.610778	100.415023
46883		-6.834787	8.908756	1.717436	0.070935	0.276556	1.341085	81.523384	22.875958	100.709472
46884		-6.864470	8.953733	1.662702	0.072378	0.365194	1.271819	81.696137	22.185118	101.049101
46885		-6.970042	9.605866	2.010546	0.069272	0.422938	1.222721	81.872833	21.527811	101.414900
46886		-6.859155	9.793184	2.237442	0.036124	0.450102	1.195644	82.031067	20.885356	101.791988
46887		-7.420454	9.864521	2.615233	-0.115236	0.478418	1.124669	82.101080	20.286418	102.176543
46888		-7.882495	9.334655	2.237189	-0.284282	0.496890	1.002101	82.070903	19.756907	102.560994
46889		-7.565569	7.890988	1.756792	-0.363467	0.500246	0.865276	81.988401	19.307119	102.934655
46890		-7.668013	7.255258	1.432780	-0.321606	0.490707	0.739917	81.922255	18.927009	103.292132
46891		-7.283707	7.430389	1.520591	-0.180908	0.480629	0.619051	81.928875	18.615960	103.632255
46892		-7.288075	7.040042	1.837704	-0.078646	0.487320	0.512720	81.991029	18.364807	103.967025
46893		-7.355927	7.521399	2.299746	-0.082431	0.481325	0.413101	82.045477	18.170151	104.288779
46894		-7.175333	7.692149	2.495206	-0.157076	0.472134	0.303807	82.051866	18.036207	104.595764
46895		-6.648576	7.799263	2.483339	-0.280318	0.474218	0.189109	81.984265	17.968082	104.894052
46896		-5.928503	7.346676	2.342494	-0.405442	0.483212	0.068196	81.843459	17.969689	105.187629
46897		-5.372865	7.382210	2.156093	-0.498503	0.479833	-0.014166	81.646510	18.018640	105.472007
46898		-4.747095	7.241054	1.656926	-0.584154	0.472594	-0.041806	81.398662	18.083832	105.749487
46899		-4.138231	7.460055	1.291860	-0.622614	0.442726	-0.002120	81.124513	18.125012	106.012593
46900		-3.934081	7.085133	0.845331	-0.595084	0.412619	0.038165	80.861828	18.142152	106.261340
46901		-3.792574	6.790315	0.596690	-0.516666	0.382851	0.036997	80.638561	18.157927	106.492276
46902		-3.882080	6.919266	0.504400	-0.380808	0.331879	0.025321	80.483422	18.176641	106.691619
46903		-4.341357	6.984055	0.645502	-0.233739	0.261557	0.017597	80.399260	18.193019	106.848431
46904		-4.701665	7.165619	1.131093	-0.062909	0.161814	-0.008783	80.393765	18.215423	106.943183
46905		-4.358008	7.383834	1.411011	-0.008894	0.048705	-0.052375	80.396750	18.251101	106.966380
46906		-4.381807	8.187607	1.694464	0.037325	-0.070734	-0.095888	80.402671	18.300644	106.914011
46907		-4.328034	7.996993	1.667436	0.073768	-0.164913	-0.120459	80.410930	18.354385	106.803248
46908		-3.363464	7.735840	1.337632	0.028297	-0.240716	-0.133136	80.378454	18.408835	106.645854
46909		-3.270532	8.465454	1.245923	0.091077	-0.301326	-0.127157	80.370515	18.453231	106.453092
46910		-2.914093	8.084965	1.151049	0.118651	-0.326584	-0.087159	80.374841	18.473467	106.249100
46911		-2.800470	7.957897	1.031269	0.063439	-0.313932	-0.057384	80.350764	18.477205	106.055826
46912		-3.077790	8.417455	1.002694	0.143543	-0.318228	-0.018446	80.373126	18.459402	105.863759
46913		-3.280772	8.033425	0.969704	0.172848	-0.300125	-0.005095	80.416105	18.435022	105.684011
46914		-3.234897	7.999771	1.018496	0.172038	-0.288013	-0.017178	80.460686	18.419650	105.510094
46915		-3.244615	8.282581	1.070366	0.240640	-0.290535	-0.032595	80.543534	18.412037	105.333304
46916		-3.195550	8.475826	1.255844	0.276910	-0.292996	-0.036388	80.646728	18.407547	105.154498
46917		-3.149473	9.061095	1.462943	0.235235	-0.293338	-0.010970	80.726670	18.387987	104.978143
46918		-2.995545	9.246229	1.479684	0.185254	-0.291659	0.022780	80.779538	18.350641	104.805900
46919		-2.931466	8.672552	1.242668	0.115218	-0.282978	0.051814	80.794792	18.296817	104.641824
46920		-3.130542	8.277637	0.965386	0.114665	-0.276646	0.055181	80.811303	18.242657	104.481716
46921		-3.438365	8.012837	0.852865	0.156838	-0.266358	0.036970	80.853349	18.198869	104.326164
46922		-3.729973	7.832746	1.016327	0.207755	-0.262383	0.000183	80.924450	18.177388	104.169291
46923		-3.818274	8.037740	1.194420	0.241222	-0.247305	-0.048693	81.015935	18.184142	104.016904
46924		-3.789784	8.325356	1.274994	0.235689	-0.229402	-0.088950	81.106519	18.216580	103.871233
46925		-3.728745	8.491933	1.314360	0.208973	-0.207367	-0.127894	81.184506	18.272137	103.735264
46926		-3.401546	8.407196	1.186027	0.195579	-0.191211	-0.155167	81.257082	18.345866	103.606257
46927		-3.313675	8.679995	1.139768	0.208578	-0.188890	-0.155107	81.337241	18.418779	103.478877
46928		-3.349623	8.740938	1.212968	0.213403	-0.192774	-0.142187	81.419840	18.485393	103.350214
46929		-3.473287	8.801713	1.387120	0.196711	-0.201945	-0.144757	81.490766	18.551664	103.216074
46930		-3.418495	8.490059	1.320608	0.170520	-0.216446	-0.137218	81.544166	18.613788	103.073764
46931		-3.577010	8.261793	1.271163	0.166930	-0.223593	-0.143530	81.593653	18.677797	102.926822
46932		-3.588157	8.007072	1.257141	0.182395	-0.220151	-0.174287	81.651766	18.760918	102.779018
46933		-3.647247	8.032075	1.297943	0.196586	-0.198698	-0.210623	81.720751	18.865312	102.641108
46934		-3.479161	8.046553	1.341107	0.204844	-0.166922	-0.239785	81.799717	18.990342	102.519532
46935		-3.405375	8.144091	1.391026	0.194220	-0.119853	-0.236596	81.881546	19.116230	102.426796
46936		-3.377934	8.271997	1.488027	0.177977	-0.055524	-0.213271	81.967383	19.235558	102.374560
46937		-3.380909	8.233061	1.534649	0.116610	0.031162	-0.188270	82.035800	19.346312	102.376929
46938		-3.663029	8.169225	1.491043	0.037757	0.134636	-0.185609	82.079927	19.465142	102.441619
46939		-3.945386	7.832498	1.330874	-0.030192	0.246591	-0.205540	82.107199	19.602672	102.572460
46940		-4.262620	7.534328	1.098715	-0.061688	0.352492	-0.236680	82.137513	19.767593	102.764436
46941		-4.900880	7.618396	0.933716	-0.039192	0.429033	-0.262627	82.196277	19.951615	103.001096
46942		-5.258509	7.579175	0.910602	0.007751	0.476594	-0.300854	82.291759	20.162318	103.263590
46943		-5.606462	7.461126	0.812080	0.053859	0.507550	-0.371649	82.419359	20.413501	103.540218
46944		-6.246585	7.423800	0.939925	0.110520	0.514683	-0.460221	82.580239	20.716675	103.814921
46945		-6.535644	7.019523	0.756005	0.153897	0.507680	-0.573438	82.763239	21.081105	104.078432
46946		-5.373604	11.197013	2.839483	0.281931	0.487796	-0.544815	83.018430	21.428977	104.333715
46947		14.625380	40.104220	9.288266	1.226599	-0.536965	2.050351	83.657509	20.227918	104.152160
46948		-1.706004	5.669670	2.044546	-4.501853	0.848176	3.451971	81.337313	18.332988	104.935359
46949		-9.510589	1.613459	0.905384	2.139174	0.177245	2.781374	82.665683	16.770486	105.272935
46950		-4.126804	12.341234	-2.259610	-1.338424	0.335890	2.665057	82.012574	15.285537	105.682326
46951		-2.481183	5.335342	-1.831171	2.058227	-0.745517	2.382284	83.128351	13.878290	105.426612
46952		-0.418949	18.202831	1.818477	-0.315464	-0.118256	2.236192	82.969078	12.601067	105.516118
46953		-4.060378	22.064120	5.273854	1.173827	-0.803410	2.542720	83.582270	11.101781	105.222910
46954		-2.651167	15.871188	0.081819	-1.517483	0.101301	2.551024	82.755920	9.660058	105.457543
46955		-0.705378	9.791245	1.810629	1.297258	-0.885540	2.173784	83.443828	8.364098	105.098644
46956		-0.162941	16.516433	0.494613	-0.269946	-0.165630	1.744754	83.292891	7.362725	105.119381
46957		-2.045408	8.874851	1.282233	-0.444748	-0.275545	1.451544	83.031809	6.519629	105.060809
46958		-0.233076	12.483466	0.997427	0.117241	-0.411324	1.177676	83.083373	5.823845	104.906913
46959		-0.706168	9.673221	1.423821	-0.802067	-0.122999	1.017535	82.624853	5.238060	104.909106
46960		-0.424642	10.095359	1.401949	0.122752	-0.302069	0.846461	82.686501	4.737379	104.798415
46961		-0.157637	10.976164	1.281165	-0.393961	-0.061890	0.630928	82.462487	4.375786	104.809585
46962		-0.031159	9.601915	1.444370	-0.136940	-0.137987	0.362393	82.381111	4.161934	104.757844
46963		-0.530828	11.222685	0.900197	-0.160444	-0.085646	0.138675	82.287236	4.078095	104.719283
46964		-1.177577	9.248743	1.527550	-0.517645	0.084178	0.103702	81.995518	4.028182	104.774722
46965		0.781150	9.108255	1.627702	0.088598	-0.228734	0.011254	82.038022	4.005044	104.645079
46966		-1.886989	10.125775	1.017276	-0.275377	0.037667	-0.003892	81.882601	4.012579	104.665583
46967		-0.148978	8.809842	1.764452	-0.026568	0.028418	-0.084637	81.868824	4.064335	104.674432
46968		0.050046	9.345495	1.657913	0.145190	-0.040714	-0.103058	81.950643	4.121846	104.642334
46969		-0.946378	9.554229	1.410416	0.099311	0.036268	-0.115791	82.009158	4.191889	104.653247
46970		-1.098144	9.748720	1.200842	0.185486	0.026193	-0.070885	82.116976	4.236498	104.661920
46971		-0.834528	9.678564	1.268051	0.088774	0.046797	-0.032573	82.170414	4.260101	104.685563
46972		-0.802284	9.746116	1.279062	0.082689	0.025390	0.009158	82.219788	4.259208	104.700126
46973		-0.699103	9.504558	1.379842	0.024169	0.005429	0.086466	82.235151	4.211993	104.709504
46974		-0.901825	9.597363	1.283228	0.062110	-0.008297	0.144155	82.272075	4.131841	104.715341
46975		-0.804562	9.756851	1.270796	0.035246	0.022248	0.173382	82.294917	4.036563	104.740948
46976		-0.763897	9.693578	1.266041	0.025263	0.018184	0.196130	82.312033	3.928936	104.765782
46977		-0.682110	9.716877	1.292292	0.054167	0.018441	0.191998	82.345566	3.822776	104.790568
46978		-0.608073	10.069071	1.218724	0.053202	0.002664	0.173534	82.377900	3.726774	104.804729
46979		-0.671602	9.784936	1.289771	-0.079216	0.020760	0.147013	82.334790	3.646324	104.827342
46980		-0.566859	9.505819	1.316095	0.004751	-0.000594	0.127976	82.338995	3.575945	104.836205
46981		-0.484013	9.695937	1.307545	0.028265	-0.001137	0.090564	82.356374	3.525883	104.842053
46982		-0.556235	9.761104	1.288874	0.020187	0.002387	0.057468	82.369179	3.495757	104.847203
46983		-0.569140	9.774220	1.275101	0.025047	-0.004430	0.035228	82.384336	3.476867	104.846938
46984		-0.574311	9.864076	1.229058	-0.007379	-0.006495	0.020381	82.380867	3.467119	104.844203
46985		-0.594946	9.837983	1.236311	-0.031915	-0.016983	0.008055	82.362831	3.462705	104.834728
46986		-0.583405	9.895982	1.236938	-0.068658	-0.021317	-0.002787	82.323642	3.464975	104.821801
46987		-0.603873	9.850374	1.281007	-0.125062	-0.022923	0.000156	82.251997	3.464576	104.808344
46988		-0.609891	9.828578	1.282025	-0.143955	-0.034693	-0.001779	82.169216	3.465202	104.787889
46989		-0.607818	9.716562	1.331158	-0.193801	-0.028300	0.001446	82.058008	3.463607	104.771478
46990		-0.583440	9.538870	1.379340	-0.174249	-0.029941	-0.001017	81.958039	3.464105	104.753787
46991		-0.549680	9.621236	1.385909	-0.150507	-0.028357	0.004000	81.871647	3.461000	104.737556
46992		-0.573336	9.611838	1.376561	-0.150188	-0.019548	-0.008293	81.785783	3.466411	104.725179
46993		-0.577047	9.643728	1.432912	-0.132066	-0.017989	-0.007781	81.710253	3.470791	104.713876
46994		-0.552378	9.542684	1.400153	-0.122850	-0.012812	-0.013646	81.640252	3.479759	104.704868
46995		-0.598235	9.671648	1.415849	-0.100259	-0.012709	-0.016679	81.583079	3.489597	104.695808
46996		-0.587137	9.618547	1.453777	-0.111523	-0.012322	-0.022001	81.519537	3.503317	104.686358
46997		-0.609914	9.572068	1.497144	-0.086635	-0.007233	-0.028231	81.470296	3.520148	104.679406
46998		-0.609523	9.628381	1.459611	-0.069470	-0.012248	-0.029466	81.430800	3.538085	104.669338
46999		-0.613702	9.646129	1.437282	-0.064712	-0.007076	-0.025767	81.394133	3.553522	104.662662
47000		-0.612232	9.607294	1.500878	-0.057327	-0.005474	-0.014743	81.361906	3.563686	104.657685
47001		-0.626100	9.566631	1.480736	-0.050982	-0.007272	-0.013567	81.333160	3.572189	104.651933
47002		-0.614093	9.514486	1.511472	-0.017965	-0.003797	-0.006151	81.323585	3.577624	104.648643
47003		-0.608949	9.629735	1.423101	-0.013137	0.000765	-0.010067	81.316825	3.584837	104.647751
47004		-0.610738	9.552886	1.497500	-0.000692	0.001470	-0.000446	81.317364	3.587493	104.647945
47005		-0.623496	9.604586	1.469353	0.016162	0.002470	0.003489	81.327525	3.587175	104.649195
47006		-0.627612	9.566156	1.483161	0.031971	-0.001038	0.007310	81.346729	3.585220	104.648637
47007		-0.638032	9.599228	1.482048	0.020461	0.003658	0.009257	81.359426	3.581736	104.651059
47008		-0.656831	9.463566	1.514261	0.053087	0.001454	0.020823	81.390888	3.572338	104.653079
47009		-0.612297	9.627037	1.467293	0.078820	0.000226	0.025211	81.436985	3.559520	104.654916
47010		-0.639431	9.601272	1.423411	0.071743	0.002705	0.037121	81.479260	3.540991	104.659019
47011		-0.618389	9.681218	1.424898	0.085816	-0.003823	0.040358	81.529301	3.519244	104.659822
47012		-0.600231	9.707434	1.371471	0.058734	-0.001042	0.040981	81.564008	3.498204	104.662095
47013		-0.608745	9.664673	1.441712	0.046970	-0.004327	0.041556	81.591779	3.475735	104.662684
47014		-0.598412	9.594338	1.451300	0.066334	-0.002344	0.038812	81.630783	3.455810	104.664012
47015		-0.540998	9.633648	1.404470	0.073867	-0.001946	0.034547	81.674008	3.437511	104.665340
47016		-0.596467	9.558294	1.452756	0.096817	0.004111	0.031167	81.730656	3.422447	104.669670
47017		-0.568555	9.643434	1.391733	0.125197	0.001536	0.023325	81.803351	3.410795	104.672016
47018		-0.544887	9.762570	1.371326	0.134685	0.002034	0.006414	81.881498	3.409587	104.673112
47019		-0.597172	9.802297	1.325524	0.102217	0.000479	-0.004704	81.940855	3.413743	104.672565
47020		-0.589684	9.622343	1.363310	0.095680	0.006339	-0.002503	81.996761	3.417930	104.675390
47021		-0.552100	9.838173	1.324347	0.112618	-0.006981	-0.008921	82.061804	3.423888	104.670276
47022		-0.594826	9.753165	1.284337	0.047069	0.001912	-0.020823	82.089623	3.438112	104.669143
47023		-0.565230	9.671204	1.348094	0.052234	-0.000985	-0.023966	82.120200	3.453087	104.666260
47024		-0.550334	9.659192	1.353931	0.064308	-0.003733	-0.029717	82.157664	3.471914	104.661236
47025		-0.582219	9.705141	1.337457	0.059353	-0.003820	-0.039740	82.192146	3.495624	104.655525
47026		-0.563672	9.640336	1.330081	0.054980	-0.004396	-0.037865	82.224199	3.519025	104.649513
47027		-0.581071	9.692058	1.295809	0.071475	-0.005828	-0.059083	82.265461	3.553569	104.641191
47028		-0.607475	9.739361	1.320694	0.053462	-0.009386	-0.061320	82.296350	3.589905	104.630563
47029		-0.637665	9.732095	1.292023	0.046599	-0.008814	-0.072295	82.323179	3.631731	104.619565
47030		-0.677558	9.738792	1.294604	0.027447	-0.002501	-0.064364	82.339385	3.670327	104.612652
47031		-0.689483	9.718668	1.279456	0.030737	-0.007122	-0.052769	82.357271	3.701202	104.604138
47032		-0.638227	9.737979	1.266293	0.005739	-0.011265	-0.034966	82.360856	3.722441	104.594501
47033		-0.642070	9.571269	1.343800	0.020525	-0.005759	-0.032504	82.373037	3.741914	104.588317
47034		-0.640107	9.776561	1.245838	0.030419	-0.015485	-0.036707	82.390589	3.763822	104.576155
47035		-0.618713	9.765652	1.297597	-0.003694	-0.008921	-0.051155	82.388676	3.793650	104.566760
47036		-0.626914	9.710836	1.243183	0.000583	-0.018668	-0.059894	82.388886	3.828482	104.551026
47037		-0.616757	9.789046	1.252144	-0.021415	-0.015151	-0.083942	82.376402	3.876455	104.535586
47038		-0.698163	9.781026	1.255173	-0.038312	-0.014897	-0.093742	82.354275	3.930782	104.519404
47039		-0.703145	9.818327	1.242947	-0.052135	-0.026226	-0.103016	82.323621	3.988729	104.496160
47040		-0.695293	9.637463	1.340335	-0.094782	-0.025977	-0.107352	82.268592	4.049911	104.472559
47041		-0.678653	9.369723	1.380695	-0.029492	-0.026236	-0.110046	82.250817	4.111816	104.448682
47042		-0.635323	9.480107	1.365207	0.043649	-0.018992	-0.127191	82.275217	4.184784	104.427483
47043		-0.726012	9.452450	1.347487	0.073296	-0.009868	-0.124012	82.316887	4.255891	104.411885
47044		-0.789667	9.562860	1.328957	0.132939	-0.010758	-0.117696	82.392800	4.324124	104.396213
47045		-0.658671	9.688627	1.283375	0.128936	-0.005651	-0.120105	82.466530	4.393366	104.383475
47046		-0.747266	9.791274	1.237826	0.132922	-0.008171	-0.133651	82.542427	4.470891	104.368256
47047		-0.727460	10.006409	1.195772	0.092797	-0.006410	-0.158304	82.595171	4.561811	104.352412
47048		-0.727636	9.920798	1.174838	0.052701	-0.003958	-0.196605	82.624892	4.675437	104.335082
47049		-0.797778	9.919649	1.194899	0.024777	0.004844	-0.227953	82.638716	4.806778	104.320616
47050		-0.799586	9.796242	1.238545	-0.002272	0.008801	-0.254631	82.637128	4.954314	104.306340
47051		-0.812536	9.410994	1.284228	-0.003662	0.011861	-0.255756	82.634757	5.101969	104.293830
47052		-0.875765	9.133634	1.416291	0.102109	0.025844	-0.221710	82.694002	5.232043	104.291761
47053		-0.871187	9.347023	1.328837	0.204567	0.031059	-0.176728	82.812446	5.336193	104.296243
47054		-1.048340	9.603490	1.153929	0.211800	0.031101	-0.120937	82.935514	5.409354	104.304840
47055		-1.038373	10.038116	1.035666	0.154333	0.011763	-0.079679	83.024830	5.456946	104.305542
