// General information: 
//  MT Manager version: 2022.2.0 
//  XDA version: 2022.2.0 build 7381 rev 124627 built on 2023-07-19
// Device information: 
//  DeviceId: 00B4BB52
//  ProductCode: MTW2-3A7G6
//  Firmware Version: 4.6.0
//  Hardware Version: 2.0.0
// Device settings: 
//  Filter Profile: human(46.1)
//  Option Flags: Orientation Smoother Disabled, Position/Velocity Smoother Disabled, Continuous Zero Rotation Update Disabled, AHS Disabled, ICC Disabled
// Coordinate system: ENU
PacketCounter	SampleTimeFine	Acc_X	Acc_Y	Acc_Z	Gyr_X	Gyr_Y	Gyr_Z	Roll	Pitch	Yaw
39282		-0.541255	-9.790271	0.701196	-0.005987	-0.000671	-0.001873	-85.935720	3.057330	146.752891
39283		-0.517352	-9.772062	0.683144	-0.008055	-0.001256	-0.004413	-85.936297	3.053875	146.750881
39284		-0.548271	-9.770015	0.710864	-0.005607	-0.003486	-0.002678	-85.935323	3.051202	146.751302
39285		-0.539702	-9.778755	0.677812	-0.007656	-0.002460	-0.006174	-85.935674	3.046673	146.749796
39286		-0.539618	-9.790561	0.698393	-0.009488	-0.000347	-0.003921	-85.937022	3.043417	146.748370
39287		-0.515725	-9.772351	0.680226	-0.007039	-0.002577	-0.002187	-85.937001	3.041282	146.749261
39288		-0.561857	-9.785544	0.671270	-0.010957	-0.002664	-0.001518	-85.939116	3.039305	146.749258
39289		-0.523840	-9.775561	0.732371	-0.005968	0.000941	-0.002827	-85.938645	3.036885	146.747407
39290		-0.515787	-9.796013	0.720670	-0.008054	-0.001258	-0.004412	-85.939144	3.033311	146.746482
39291		-0.561551	-9.797465	0.690502	-0.006060	-0.007124	0.001950	-85.938473	3.033297	146.749713
39292		-0.523115	-9.775746	0.730420	-0.006602	-0.000555	-0.005858	-85.938165	3.028925	146.748327
39293		-0.514639	-9.784461	0.697337	-0.007056	-0.004192	-0.001231	-85.938182	3.027285	146.751113
39294		-0.545629	-9.782432	0.725190	-0.004153	-0.002785	-0.004125	-85.936400	3.023814	146.751074
39295		-0.522303	-9.775910	0.728805	-0.004989	-0.003606	0.001310	-85.935116	3.023677	146.752372
39296		-0.521483	-9.752485	0.685356	-0.008489	-0.003283	-0.000738	-85.935796	3.022121	146.752755
39297		-0.537207	-9.791208	0.691141	-0.003138	-0.004105	-0.001899	-85.933512	3.020003	146.753368
39298		-0.513715	-9.784701	0.694651	-0.008053	-0.001259	-0.004410	-85.934011	3.016431	146.752444
39299		-0.544092	-9.759183	0.679812	-0.001125	-0.008359	0.003505	-85.930527	3.017213	146.756520
39300		-0.506094	-9.805121	0.682924	-0.004970	-0.001994	0.000355	-85.929227	3.016334	146.756210
39301		-0.490755	-9.778215	0.697454	-0.006439	-0.004312	0.002757	-85.928990	3.016879	146.758785
39302		-0.537285	-9.791372	0.688762	-0.006420	-0.002699	0.001803	-85.928498	3.016798	146.758938
39303		-0.545047	-9.771036	0.699205	-0.006021	-0.003901	0.000041	-85.927976	3.015677	146.758786
39304		-0.537834	-9.803179	0.709173	-0.002521	-0.004224	0.002088	-85.925203	3.015698	146.759823
39305		-0.514888	-9.796648	0.712647	-0.009285	-0.000881	0.002788	-85.926569	3.016457	146.760255
39306		-0.522167	-9.764581	0.701571	-0.005604	-0.003489	-0.002676	-85.925595	3.013785	146.760677
39307		-0.545991	-9.794695	0.739659	-0.008505	-0.004899	0.000219	-85.926297	3.012919	146.762009
39308		-0.513836	-9.773304	0.667848	-0.004570	-0.003197	-0.001407	-85.924736	3.010985	146.762316
39309		-0.545367	-9.783040	0.717143	-0.006002	-0.002288	-0.000914	-85.924038	3.009578	146.761708
39310		-0.544824	-9.771345	0.695051	-0.008469	-0.001672	-0.001690	-85.924758	3.007543	146.761130
39311		-0.545084	-9.783158	0.715748	-0.006002	-0.002288	-0.000914	-85.924301	3.006297	146.766165
39312		-0.536478	-9.780073	0.661144	-0.009901	-0.000764	-0.001197	-85.925867	3.004582	146.765088
39313		-0.513465	-9.785336	0.685824	-0.005585	-0.001876	-0.003630	-85.925147	3.001666	146.767456
39314		-0.513324	-9.785393	0.685126	-0.008885	-0.002086	0.001027	-85.926087	3.001167	146.767226
39315		-0.521496	-9.776838	0.716831	-0.006400	-0.001088	0.000849	-85.925806	3.000871	146.768817
39316		-0.544978	-9.795203	0.733654	-0.004551	-0.001583	-0.002361	-85.924285	2.998456	146.768161
39317		-0.520868	-9.765167	0.694335	-0.007434	-0.001381	-0.000420	-85.924696	2.997294	146.769399
39318		-0.513496	-9.797344	0.704019	-0.006001	-0.002289	-0.000913	-85.923982	2.995679	146.769207
39319		-0.551942	-9.763229	0.721523	-0.006001	-0.002290	-0.000913	-85.923540	2.994287	146.772486
39320		-0.520886	-9.777081	0.713950	-0.005602	-0.003491	-0.002676	-85.922565	2.991615	146.772910
39321		-0.536170	-9.804059	0.698179	-0.008484	-0.003289	-0.000734	-85.923296	2.990248	146.773058
39322		-0.520034	-9.765441	0.691098	-0.008050	-0.001261	-0.004405	-85.923795	2.986679	146.772135
39323		-0.543489	-9.783820	0.707870	-0.003951	-0.003319	0.002580	-85.922105	2.987214	146.775801
39324		-0.496684	-9.758978	0.693915	-0.009482	-0.000353	-0.003911	-85.923450	2.983964	146.774379
39325		-0.520031	-9.777391	0.710320	-0.009916	-0.002382	-0.000240	-85.925292	2.982938	146.778983
39326		-0.542761	-9.772236	0.684062	-0.007432	-0.001383	-0.000418	-85.925425	2.981642	146.778292
39327		-0.489081	-9.791312	0.701608	-0.009915	-0.002382	-0.000240	-85.927086	2.980601	146.779879
39328		-0.542608	-9.772365	0.682337	-0.008465	-0.001676	-0.001687	-85.927805	2.978568	146.779304
39329		-0.519745	-9.777653	0.706913	-0.008864	-0.000476	0.000076	-85.928846	2.977929	146.780371
39330		-0.519531	-9.765922	0.684656	-0.009297	-0.002505	0.003747	-85.930005	2.978968	146.780493
39331		-0.543175	-9.784322	0.701137	-0.008465	-0.001676	-0.001687	-85.930820	2.976939	146.777736
39332		-0.519984	-9.777823	0.704384	-0.007830	-0.000184	0.001346	-85.931212	2.976700	146.776432
39333		-0.535070	-9.792990	0.667140	-0.007413	0.000231	-0.001371	-85.931574	2.975099	146.776371
39334		-0.519829	-9.777941	0.702866	-0.008464	-0.001677	-0.001686	-85.932291	2.973067	146.775798
39335		-0.542828	-9.784551	0.698202	-0.004567	-0.003200	-0.001406	-85.930814	2.971340	146.776553
39336		-0.527156	-9.757699	0.712779	-0.007032	-0.002585	-0.002181	-85.930686	2.968988	146.776479
39337		-0.518701	-9.766320	0.679588	-0.008030	0.000352	-0.005356	-85.931347	2.965172	146.776199
39338		-0.518630	-9.778178	0.700446	-0.002735	-0.005307	-0.003665	-85.928679	2.961861	146.777623
39339		-0.549073	-9.764454	0.706989	-0.008047	-0.001263	-0.004402	-85.929214	2.958560	146.777190
39340		-0.518053	-9.778292	0.699282	-0.005346	0.000814	0.001168	-85.928213	2.958260	146.775308
39341		-0.502205	-9.739607	0.692810	0.000382	-0.002815	-0.000811	-85.923992	2.956968	146.778715
39342		-0.548701	-9.764573	0.705622	-0.010546	-0.003879	-0.003270	-85.925841	2.953941	146.779337
39343		-0.479088	-9.812546	0.679542	-0.007429	-0.001387	-0.000416	-85.926185	2.952807	146.781415
39344		-0.540627	-9.785046	0.692960	-0.007013	-0.000971	-0.003133	-85.926095	2.949977	146.780379
39345		-0.525076	-9.758199	0.707454	-0.006413	-0.002710	0.001806	-85.925685	2.949981	146.779082
39346		-0.540524	-9.785123	0.691953	-0.001016	0.001323	-0.002222	-85.922226	2.947765	146.776770
39347		-0.517624	-9.790402	0.717021	-0.006014	-0.003910	0.000042	-85.921716	2.946811	146.780811
39348		-0.516792	-9.766819	0.673839	-0.003515	-0.001294	-0.001090	-85.919609	2.945135	146.780043
39349		-0.502300	-9.775395	0.752645	-0.005615	-0.005109	-0.001722	-85.918928	2.943163	146.786588
39350		-0.524642	-9.758378	0.705309	-0.006395	-0.001096	0.000854	-85.918473	2.942606	146.785786
39351		-0.494174	-9.784014	0.718933	-0.007428	-0.001388	-0.000415	-85.918722	2.941302	146.782965
39352		-0.525079	-9.770300	0.725144	-0.010308	-0.001191	0.001528	-85.920505	2.941126	146.782245
39353		-0.517075	-9.778872	0.691858	-0.006378	0.000519	-0.000099	-85.920289	2.940254	146.783160
39354		-0.501532	-9.819618	0.668544	-0.015872	-0.001455	-0.003051	-85.925261	2.937451	146.782404
39355		-0.547667	-9.765276	0.696649	-0.008876	-0.002099	0.001033	-85.926404	2.937114	146.784858
39356		-0.501625	-9.764050	0.725246	-0.008443	-0.000066	-0.002635	-85.927160	2.934605	146.783325
39357		-0.524197	-9.758853	0.699029	-0.008460	-0.001682	-0.001683	-85.927874	2.932652	146.779815
39358		-0.531760	-9.806133	0.671923	-0.008443	-0.000067	-0.002635	-85.928629	2.930142	146.778282
39359		-0.500632	-9.752426	0.701552	-0.005995	-0.002297	-0.000910	-85.928111	2.928636	146.779516
39360		-0.523827	-9.770890	0.718062	-0.010491	0.000964	-0.006124	-85.930078	2.924174	146.777251
39361		-0.492672	-9.784740	0.710031	-0.008858	-0.000485	0.000082	-85.931297	2.923470	146.780309
39362		-0.507775	-9.744189	0.731224	-0.012972	-0.000039	-0.005944	-85.934655	2.919071	146.778627
39363		-0.522796	-9.771188	0.714764	-0.013386	-0.000458	-0.003227	-85.938299	2.916416	146.777898
39364		-0.499314	-9.764772	0.717072	-0.022242	-0.000945	-0.003143	-85.946937	2.913580	146.776848
39365		-0.545271	-9.778050	0.707076	-0.016898	-0.001755	-0.004315	-85.952613	2.910313	146.778637
39366		-0.506329	-9.812265	0.687047	-0.019759	0.000055	-0.003321	-85.959857	2.907416	146.777008
39367		-0.536740	-9.798651	0.692541	-0.012968	-0.000042	-0.005941	-85.963226	2.903198	146.774720
39368		-0.489871	-9.785626	0.699685	-0.006609	-0.002173	-0.004894	-85.962874	2.899312	146.774304
39369		-0.513031	-9.804116	0.716243	-0.008439	-0.000071	-0.002632	-85.963812	2.897013	146.776092
39370		-0.535415	-9.798880	0.690316	-0.002698	-0.002075	-0.005571	-85.961224	2.892744	146.775592
39371		-0.527287	-9.751764	0.716136	-0.008455	-0.001688	-0.001681	-85.961964	2.890786	146.772708
39372		-0.488752	-9.797742	0.718486	-0.006609	-0.002174	-0.004894	-85.961612	2.886900	146.772292
39373		-0.510845	-9.780650	0.671039	-0.008455	-0.001689	-0.001680	-85.962302	2.885019	146.770093
39374		-0.487948	-9.786004	0.695728	-0.006008	-0.003918	0.000041	-85.961545	2.883883	146.770874
39375		-0.487953	-9.786049	0.695087	-0.007439	-0.003013	0.000539	-85.961782	2.883209	146.772275
39376		-0.519280	-9.784221	0.722870	-0.006406	-0.002721	0.001807	-85.961285	2.883130	146.772443
39377		-0.519017	-9.772381	0.701070	-0.003544	-0.004530	0.000813	-85.959185	2.882602	146.774900
39378		-0.519519	-9.784268	0.722056	-0.003943	-0.003334	0.002578	-85.957257	2.882940	146.775449
39379		-0.519302	-9.772418	0.700350	-0.003910	-0.000100	0.000677	-85.955496	2.882614	146.776650
39380		-0.512250	-9.804610	0.710001	-0.006837	-0.004758	0.005474	-85.955179	2.884549	146.778132
39381		-0.520337	-9.784324	0.720708	-0.002894	-0.001425	0.002896	-85.952800	2.885210	146.777456
39382		-0.512359	-9.792776	0.687785	-0.005991	-0.002302	-0.000908	-85.952082	2.883597	146.777274
39383		-0.519726	-9.760651	0.676914	-0.008885	-0.003727	0.001988	-85.952977	2.883852	146.778273
39384		-0.520510	-9.784456	0.718786	-0.007421	-0.001397	-0.000410	-85.953104	2.882560	146.777594
39385		-0.497266	-9.777950	0.722186	-0.005991	-0.002302	-0.000908	-85.952510	2.881118	146.779136
39386		-0.520287	-9.784558	0.717562	-0.005974	-0.000685	-0.001858	-85.951831	2.879028	146.777990
39387		-0.520150	-9.784610	0.716955	-0.006357	0.002128	-0.001042	-85.951645	2.877713	146.778279
39388		-0.520651	-9.796526	0.737710	-0.005389	-0.004048	0.004026	-85.950522	2.878850	146.779296
39389		-0.512556	-9.793075	0.683373	-0.005373	-0.002431	0.003076	-85.949455	2.879688	146.779051
39390		-0.497265	-9.766256	0.698033	-0.006389	-0.001106	0.000858	-85.948996	2.879133	146.778257
39391		-0.466187	-9.768150	0.668887	-0.007835	-0.001820	0.002307	-85.949398	2.879570	146.778126
39392		-0.513090	-9.793179	0.681478	-0.005356	-0.000814	0.002127	-85.948353	2.879752	146.777216
39393		-0.521090	-9.772903	0.692195	-0.004340	-0.002140	0.004345	-85.946759	2.881288	146.777398
39394		-0.498608	-9.778260	0.717053	-0.006420	-0.004342	0.002759	-85.946221	2.881688	146.778532
39395		-0.506172	-9.746101	0.706433	-0.003941	-0.003336	0.002579	-85.944440	2.882127	146.780019
39396		-0.491151	-9.786693	0.683670	-0.004355	-0.003758	0.005295	-85.942731	2.884000	146.780921
39397		-0.499724	-9.778310	0.715579	-0.008264	-0.003860	0.005974	-85.943349	2.886421	146.782880
39398		-0.515660	-9.805186	0.699502	-0.009280	-0.002534	0.003757	-85.944500	2.887464	146.783020
39399		-0.546762	-9.791498	0.705701	-0.010296	-0.001208	0.001539	-85.946211	2.887564	146.782065
39400		-0.492664	-9.786850	0.680334	-0.009296	-0.004153	0.004707	-85.947322	2.889085	146.783170
39401		-0.516854	-9.817240	0.718048	-0.008881	-0.003731	0.001990	-85.948337	2.889242	146.785625
39402		-0.501005	-9.778569	0.711143	-0.008451	-0.001691	-0.001675	-85.949048	2.887216	146.785062
39403		-0.492918	-9.787013	0.677791	-0.008865	-0.002114	0.001041	-85.950020	2.886799	146.783539
39404		-0.516308	-9.793605	0.672871	-0.009278	-0.002537	0.003758	-85.951169	2.887843	146.783680
39405		-0.501306	-9.778739	0.708577	-0.008467	-0.003309	-0.000725	-85.951899	2.886423	146.783687
39406		-0.516371	-9.793721	0.671132	-0.009896	-0.002406	-0.000226	-85.953415	2.885196	146.783592
39407		-0.493162	-9.787248	0.674220	-0.009896	-0.002406	-0.000226	-85.954926	2.884160	146.783170
39408		-0.524471	-9.785469	0.701913	-0.006417	-0.004346	0.002760	-85.954386	2.884561	146.784306
39409		-0.501448	-9.778964	0.705374	-0.006020	-0.005541	0.000993	-85.953625	2.884076	146.786250
39410		-0.509151	-9.758732	0.715907	-0.008481	-0.004929	0.000225	-85.954257	2.883004	146.787617
39411		-0.501640	-9.779064	0.703842	-0.009276	-0.002540	0.003760	-85.955487	2.884221	146.788567
39412		-0.501691	-9.779132	0.702864	-0.010911	-0.001080	-0.002441	-85.957628	2.881781	146.787624
39413		-0.501549	-9.779212	0.701855	-0.009895	-0.002408	-0.000224	-85.959148	2.880763	146.787905
39414		-0.463016	-9.813286	0.682615	-0.007433	-0.003020	0.000544	-85.959233	2.879951	146.788193
39415		-0.501550	-9.779317	0.700382	-0.006003	-0.003924	0.000044	-85.958501	2.878972	146.788914
39416		-0.509640	-9.771001	0.732437	-0.003923	-0.001723	0.001630	-85.956610	2.878833	146.788504
39417		-0.501896	-9.779370	0.699398	-0.006813	-0.003154	0.004528	-85.956413	2.880486	146.790158
39418		-0.502357	-9.779393	0.698751	-0.006828	-0.004774	0.005477	-85.956091	2.882423	146.791649
39419		-0.510747	-9.771068	0.730774	-0.003938	-0.003342	0.002579	-85.954300	2.882900	146.793443
39420		-0.479901	-9.772901	0.701704	-0.008241	-0.002252	0.005029	-85.954862	2.884682	146.793473
39421		-0.519006	-9.806269	0.681620	-0.007860	-0.005065	0.004210	-85.955147	2.886076	146.795522
39422		-0.503488	-9.767566	0.674853	-0.007844	-0.003447	0.003262	-85.955450	2.886800	146.796164
39423		-0.504504	-9.791473	0.716739	-0.006796	-0.001537	0.003581	-85.955229	2.887993	146.796419
39424		-0.527689	-9.786094	0.690706	-0.007859	-0.005066	0.004210	-85.955491	2.889194	146.798027
39425		-0.505128	-9.791542	0.715359	-0.006399	-0.002731	0.001813	-85.955033	2.889275	146.798297
39426		-0.504687	-9.767700	0.672023	-0.009272	-0.002545	0.003763	-85.956179	2.890323	146.798443
39427		-0.505809	-9.791618	0.713836	-0.006826	-0.004777	0.005478	-85.955934	2.892407	146.800511
39428		-0.512936	-9.747496	0.681892	-0.005971	-0.000686	-0.001852	-85.955253	2.890320	146.799366
39429		-0.505633	-9.779756	0.691266	-0.007827	-0.001829	0.002314	-85.955618	2.890700	146.798559
39430		-0.505757	-9.779801	0.690532	-0.007430	-0.003022	0.000546	-85.955701	2.889889	146.798849
39431		-0.505880	-9.779847	0.689798	-0.007826	-0.001829	0.002315	-85.956049	2.890242	146.797376
39432		-0.513755	-9.759623	0.700296	-0.007826	-0.001830	0.002315	-85.956391	2.890491	146.797054
39433		-0.475862	-9.805613	0.702551	-0.003952	-0.004965	0.003528	-85.954426	2.891462	146.798343
39434		-0.537871	-9.778150	0.716360	-0.009270	-0.002547	0.003765	-85.955570	2.892510	146.798491
39435		-0.506719	-9.779990	0.687144	-0.005589	-0.003499	-0.002672	-85.954560	2.890003	146.798298
39436		-0.514514	-9.759766	0.697747	-0.008252	-0.003878	0.005981	-85.955079	2.892263	146.799297
39437		-0.507695	-9.792021	0.706931	-0.009284	-0.004169	0.004714	-85.956248	2.894028	146.802360
39438		-0.530923	-9.786619	0.680723	-0.009269	-0.002549	0.003766	-85.957392	2.895077	146.802508
39439		-0.516001	-9.771853	0.716434	-0.008872	-0.003742	0.001997	-85.958294	2.895255	146.803691
39440		-0.485069	-9.773692	0.686977	-0.010681	-0.000027	0.003320	-85.960322	2.896151	146.802378
39441		-0.508967	-9.792211	0.703371	-0.006807	-0.003162	0.004532	-85.960110	2.897773	146.803625
39442		-0.516818	-9.771986	0.714035	-0.006000	-0.003927	0.000046	-85.959349	2.896640	146.804411
39443		-0.509031	-9.780310	0.680848	-0.007172	0.001271	0.004406	-85.959414	2.898297	146.801041
39444		-0.509748	-9.792321	0.701276	-0.010315	-0.004461	0.003447	-85.961102	2.899087	146.802271
39445		-0.510014	-9.792378	0.700285	-0.010299	-0.002841	0.002500	-85.962848	2.899586	146.802975
39446		-0.517504	-9.760208	0.689296	-0.010284	-0.001221	0.001553	-85.964616	2.899423	146.802274
39447		-0.533902	-9.810976	0.715644	-0.007823	-0.001833	0.002318	-85.965012	2.899860	146.802854
39448		-0.487304	-9.786040	0.701636	-0.008840	-0.000503	0.000103	-85.965977	2.898898	146.801684
39449		-0.518349	-9.772335	0.708128	-0.006805	-0.003165	0.004532	-85.965688	2.900548	146.802426
39450		-0.510433	-9.780652	0.674866	-0.008064	-0.004507	-0.002488	-85.966098	2.897943	146.803443
39451		-0.487660	-9.730889	0.758892	-0.001458	-0.002340	0.002397	-85.962785	2.898346	146.802836
39452		-0.518640	-9.772471	0.706029	-0.018089	-0.001436	0.002926	-85.969016	2.898960	146.802314
39453		-0.526366	-9.807581	0.656638	-0.012742	-0.000611	0.000791	-85.972272	2.898512	146.801320
39454		-0.495438	-9.754151	0.686185	-0.010296	-0.002845	0.002502	-85.973999	2.898826	146.801586
39455		-0.526653	-9.807706	0.654545	-0.009901	-0.004036	0.000732	-85.975522	2.898242	146.803023
39456		-0.519278	-9.772751	0.701670	-0.006423	-0.005981	0.003710	-85.974937	2.899120	146.805133
39457		-0.520033	-9.784764	0.722401	-0.004708	0.000653	0.005174	-85.973590	2.901274	146.803989
39458		-0.496343	-9.754317	0.683159	-0.010918	-0.002705	-0.001481	-85.975685	2.899317	146.804015
39459		-0.511981	-9.781121	0.666845	-0.009262	-0.002557	0.003770	-85.976902	2.900492	146.804388
39460		-0.489125	-9.774673	0.669942	-0.010310	-0.004469	0.003450	-85.978587	2.901283	146.805622
39461		-0.520491	-9.772990	0.697434	-0.011327	-0.003137	0.001237	-85.980914	2.901003	146.805730
39462		-0.513051	-9.793286	0.685202	-0.007834	-0.003460	0.003267	-85.981211	2.901731	146.806380
39463		-0.489886	-9.774817	0.667284	-0.006801	-0.003171	0.004534	-85.980960	2.903342	146.807066
39464		-0.498245	-9.766619	0.699083	-0.009261	-0.002559	0.003771	-85.982099	2.904393	146.807220
39465		-0.522156	-9.785155	0.715529	-0.006801	-0.003172	0.004535	-85.981812	2.906037	146.808006
39466		-0.514316	-9.781399	0.660943	-0.009290	-0.005804	0.005665	-85.982871	2.908040	146.810094
39467		-0.522592	-9.773226	0.692530	-0.011325	-0.003138	0.001239	-85.985214	2.907812	146.811273
39468		-0.499924	-9.778819	0.716819	-0.009245	-0.000939	0.002826	-85.986393	2.908388	146.810462
39469		-0.523416	-9.785368	0.711694	-0.013145	-0.001048	0.003515	-85.989783	2.909502	146.809157
39470		-0.515766	-9.793638	0.678104	-0.007832	-0.003463	0.003268	-85.990079	2.910230	146.809808
39471		-0.500843	-9.778989	0.713848	-0.010306	-0.004473	0.003452	-85.991819	2.911212	146.812167
39472		-0.523957	-9.773494	0.687699	-0.007817	-0.001841	0.002323	-85.992155	2.911465	146.811852
39473		-0.516452	-9.793794	0.675319	-0.013782	-0.002528	0.000478	-85.995908	2.910806	146.812173
39474		-0.501880	-9.791206	0.732041	-0.009666	-0.002997	0.006491	-85.997262	2.913394	146.812687
39475		-0.525218	-9.785694	0.705853	-0.009257	-0.002564	0.003774	-85.998444	2.914592	146.813174
39476		-0.494476	-9.787466	0.676270	-0.012110	-0.000763	0.004784	-86.001266	2.916294	146.812340
39477		-0.526038	-9.785808	0.703662	-0.011730	-0.003575	0.003959	-86.003864	2.917575	146.814109
39478		-0.495950	-9.811669	0.716384	-0.013156	-0.002675	0.004464	-86.007231	2.919019	146.814357
39479		-0.503223	-9.767423	0.684129	-0.010288	-0.002854	0.002508	-86.008988	2.919450	146.814229
39480		-0.526698	-9.773936	0.679271	-0.006782	-0.001556	0.003591	-86.008737	2.920439	146.813802
39481		-0.503969	-9.779565	0.703689	-0.010927	-0.004331	-0.000530	-86.010858	2.919138	146.816028
39482		-0.519755	-9.806309	0.687452	-0.006811	-0.004803	0.005482	-86.010525	2.921078	146.817534
39483		-0.504267	-9.767590	0.680966	-0.006781	-0.001557	0.003592	-86.010263	2.922175	146.816157
39484		-0.504574	-9.767607	0.680502	-0.002882	-0.001446	0.002902	-86.007782	2.922774	146.815639
39485		-0.528386	-9.786145	0.697185	-0.007828	-0.003468	0.003271	-86.008114	2.923654	146.816588
39486		-0.482414	-9.773231	0.704725	-0.003290	-0.001882	0.005619	-86.005848	2.925789	146.816429
39487		-0.505996	-9.779708	0.700232	-0.006402	-0.004369	0.002765	-86.005327	2.926400	146.818764
39488		-0.506294	-9.779724	0.699796	-0.002896	-0.003070	0.003847	-86.002805	2.927474	146.819214
39489		-0.498865	-9.799978	0.687866	-0.008831	-0.000509	0.000115	-86.003782	2.926622	146.817282
39490		-0.522110	-9.794407	0.661952	-0.004744	-0.004230	0.008016	-86.002277	2.930033	146.818562
39491		-0.506939	-9.767740	0.676825	-0.006372	-0.001122	0.000875	-86.001848	2.929707	146.819315
39492		-0.507488	-9.779819	0.697608	-0.002896	-0.003071	0.003847	-85.999326	2.930782	146.819765
39493		-0.531400	-9.798341	0.714460	-0.004321	-0.002171	0.004354	-85.997642	2.932332	146.819478
39494		-0.507602	-9.755699	0.654556	-0.001485	-0.005595	0.004286	-85.994236	2.933557	146.821391
39495		-0.524256	-9.806496	0.681335	-0.004321	-0.002171	0.004354	-85.992637	2.935124	146.822465
39496		-0.509462	-9.791875	0.717720	-0.000815	-0.000873	0.005436	-85.988983	2.937195	146.821721
39497		-0.509265	-9.767743	0.675030	-0.004321	-0.002171	0.004354	-85.987302	2.938734	146.821351
39498		-0.517800	-9.771660	0.728487	-0.003550	-0.006171	0.001753	-85.985067	2.938487	146.823491
39499		-0.532833	-9.774224	0.670289	-0.003898	-0.000111	0.000692	-85.983213	2.938052	146.822409
39500		-0.502618	-9.800067	0.683843	-0.002910	-0.004696	0.004793	-85.980649	2.939602	146.823828
39501		-0.517873	-9.747551	0.685231	-0.000422	-0.002061	0.003663	-85.976763	2.940764	146.824022
39502		-0.511247	-9.791897	0.716144	-0.002880	-0.001448	0.002903	-85.974281	2.941365	146.823506
39503		-0.518694	-9.759619	0.706049	-0.002488	-0.002635	0.001130	-85.971581	2.941068	146.824328
39504		-0.511426	-9.779837	0.694475	-0.001876	-0.004410	0.006059	-85.968430	2.943353	146.825635
39505		-0.488180	-9.761344	0.676771	-0.008829	-0.000509	0.000118	-85.969436	2.942562	146.825354
39506		-0.512036	-9.779877	0.693456	-0.001891	-0.006035	0.007004	-85.966244	2.945321	146.827628
39507		-0.512864	-9.791958	0.714153	-0.009250	-0.002570	0.003781	-85.967359	2.946610	146.829007
39508		-0.489604	-9.773472	0.696374	-0.002865	0.000176	0.001959	-85.964918	2.946736	146.827524
39509		-0.520635	-9.759712	0.703337	-0.005352	-0.002460	0.003089	-85.963908	2.947533	146.828565
39510		-0.513380	-9.779951	0.691415	-0.005729	0.000352	0.003918	-85.963109	2.948786	146.827060
39511		-0.513728	-9.779965	0.690954	-0.003942	-0.004985	0.003527	-85.961246	2.949733	146.830106
39512		-0.521653	-9.759760	0.701912	-0.005367	-0.004085	0.004034	-85.960109	2.950873	146.831145
39513		-0.514374	-9.779995	0.690058	-0.004289	0.001076	0.002466	-85.958574	2.951448	146.829525
39514		-0.515080	-9.792090	0.710739	-0.006806	-0.004810	0.005486	-85.958237	2.953389	146.831038
39515		-0.499471	-9.753388	0.704289	-0.006747	0.001689	0.001707	-85.958167	2.953558	146.829918
39516		-0.538609	-9.786500	0.684262	-0.005381	-0.005711	0.004979	-85.956988	2.955172	146.831926
39517		-0.515839	-9.780082	0.687715	-0.006791	-0.003186	0.004542	-85.956681	2.956734	146.831578
39518		-0.500141	-9.741390	0.681176	-0.008842	-0.002134	0.001065	-85.957600	2.956256	146.831381
39519		-0.516282	-9.780160	0.686282	-0.005351	-0.002462	0.003090	-85.956512	2.957110	146.832303
39520		-0.516874	-9.792271	0.706935	-0.006399	-0.004373	0.002768	-85.955960	2.957515	146.833456
39521		-0.539957	-9.786655	0.680977	-0.008856	-0.003760	0.002010	-85.956890	2.957677	146.835439
39522		-0.493942	-9.785922	0.709644	-0.003520	-0.002923	-0.000136	-85.954738	2.956481	146.835645
39523		-0.485928	-9.794083	0.676576	-0.005963	-0.000684	-0.001839	-85.954035	2.954557	146.834409
39524		-0.525084	-9.784303	0.737212	-0.005741	-0.001276	0.004864	-85.953194	2.956286	146.833875
39525		-0.516901	-9.768257	0.661652	-0.005350	-0.002463	0.003090	-85.952114	2.957075	146.833820
39526		-0.517869	-9.792467	0.703481	-0.006774	-0.001563	0.003598	-85.951859	2.958069	146.833399
39527		-0.518125	-9.792508	0.702730	-0.008855	-0.003761	0.002010	-85.952709	2.958263	146.834585
39528		-0.525668	-9.760239	0.692191	-0.006788	-0.003189	0.004543	-85.952412	2.959730	146.835132
39529		-0.518249	-9.780475	0.680286	-0.003505	-0.001298	-0.001080	-85.950307	2.958200	146.834427
39530		-0.518388	-9.780491	0.679942	-0.003954	-0.006615	0.004471	-85.948285	2.959488	146.836932
39531		-0.511383	-9.812829	0.689124	-0.008840	-0.002136	0.001067	-85.949233	2.959141	146.836985
39532		-0.526512	-9.760336	0.690175	-0.003282	-0.001892	0.005623	-85.946964	2.961278	146.836834
39533		-0.527253	-9.772454	0.710848	-0.007821	-0.003476	0.003278	-85.947296	2.962169	146.838337
39534		-0.527508	-9.772494	0.710098	-0.007806	-0.001851	0.002334	-85.947627	2.962428	146.838029
39535		-0.497000	-9.786317	0.702022	-0.006411	-0.006003	0.003713	-85.947087	2.963484	146.841445
39536		-0.527988	-9.772556	0.708894	-0.004958	-0.003650	0.001317	-85.945735	2.963089	146.842126
39537		-0.527845	-9.760479	0.687134	-0.006758	0.000061	0.002657	-85.945556	2.963711	146.840616
39538		-0.520849	-9.792816	0.696391	-0.003924	-0.003365	0.002583	-85.943617	2.964051	146.841185
39539		-0.505239	-9.754094	0.690257	-0.004329	-0.003806	0.005302	-85.941920	2.966101	146.843081
39540		-0.498285	-9.786431	0.699513	-0.006367	-0.001125	0.000882	-85.941451	2.965560	146.842299
39541		-0.544566	-9.787176	0.669717	-0.005348	-0.002466	0.003092	-85.940307	2.966407	146.842337
39542		-0.522032	-9.792898	0.694351	-0.006786	-0.003193	0.004545	-85.940008	2.967876	146.842887
39543		-0.529532	-9.760605	0.684034	-0.004957	-0.003651	0.001317	-85.938677	2.967621	146.843873
39544		-0.507147	-9.778457	0.729876	-0.006756	0.000060	0.002658	-85.938462	2.968143	146.842485
39545		-0.523136	-9.805091	0.713886	-0.004314	-0.002181	0.004358	-85.936788	2.969710	146.843022
39546		-0.500059	-9.786578	0.696185	-0.006799	-0.004820	0.005489	-85.936447	2.971651	146.844542
39547		-0.530978	-9.760687	0.681743	-0.007146	0.001244	0.004434	-85.936558	2.973426	146.844340
39548		-0.500930	-9.786638	0.694713	-0.009241	-0.002580	0.003789	-85.937687	2.974487	146.844509
39549		-0.547745	-9.799481	0.685908	-0.006784	-0.003195	0.004546	-85.937481	2.976039	146.845454
39550		-0.509298	-9.766505	0.704622	-0.009255	-0.004208	0.004733	-85.938567	2.977574	146.846593
39551		-0.532871	-9.772939	0.699909	-0.005346	-0.002468	0.003093	-85.937488	2.978379	146.846936
39552		-0.526025	-9.805291	0.708997	-0.008207	-0.002296	0.005056	-85.938030	2.980176	146.846994
39553		-0.502616	-9.774660	0.669923	-0.006783	-0.003196	0.004546	-85.937714	2.981811	146.847787
39554		-0.534482	-9.785134	0.719202	-0.004326	-0.003811	0.005302	-85.935987	2.983688	146.848721
39555		-0.534844	-9.773015	0.697334	-0.010047	-0.003468	0.009229	-85.937512	2.987945	146.849075
39556		-0.504993	-9.798981	0.710224	-0.007816	-0.003481	0.003281	-85.937798	2.988680	146.849739
39557		-0.513055	-9.778815	0.720891	-0.008609	-0.002741	0.007776	-85.938591	2.992154	146.850738
39558		-0.506095	-9.799035	0.708695	-0.006782	-0.003197	0.004547	-85.938290	2.993624	146.851291
39559		-0.498118	-9.740133	0.713853	-0.005748	-0.002913	0.005813	-85.937408	2.995945	146.851551
39560		-0.538118	-9.797399	0.736197	-0.005359	-0.004097	0.004037	-85.936266	2.997087	146.852599
39561		-0.514970	-9.778893	0.718457	-0.006782	-0.003198	0.004548	-85.935963	2.998691	146.853143
39562		-0.531098	-9.805516	0.702066	-0.012083	-0.000785	0.004813	-85.938770	3.000411	146.852327
39563		-0.515822	-9.778991	0.716511	-0.009237	-0.002584	0.003793	-85.939901	3.001615	146.852702
39564		-0.539528	-9.785391	0.711900	-0.003291	-0.003530	0.006569	-85.937586	3.004227	146.853527
39565		-0.508910	-9.787069	0.682745	-0.007815	-0.003483	0.003282	-85.937860	3.005111	146.854381
39566		-0.532423	-9.793477	0.678102	-0.005344	-0.002471	0.003095	-85.936760	3.005781	146.854459
39567		-0.517017	-9.766926	0.693079	-0.005344	-0.002471	0.003095	-85.935661	3.006604	146.854976
39568		-0.494379	-9.772725	0.717709	-0.006392	-0.004383	0.002772	-85.935105	3.007011	146.856135
39569		-0.541074	-9.785513	0.709052	-0.006751	0.000056	0.002663	-85.934902	3.007665	146.854977
39570		-0.510707	-9.799354	0.700937	-0.006794	-0.004829	0.005491	-85.934557	3.009608	146.856502
39571		-0.526508	-9.771162	0.744299	-0.009235	-0.002586	0.003794	-85.935685	3.010778	146.856338
39572		-0.511037	-9.787279	0.678128	-0.008833	-0.002141	0.001075	-85.936598	3.010307	146.856145
39573		-0.519139	-9.779288	0.710029	-0.006779	-0.003202	0.004549	-85.936318	3.011894	146.856743
39574		-0.542682	-9.785694	0.705317	-0.007798	-0.001857	0.002341	-85.936644	3.012158	146.856440
39575		-0.527173	-9.759183	0.720017	-0.008846	-0.003770	0.002018	-85.937492	3.012232	146.856032
39576		-0.489453	-9.805388	0.721541	-0.005342	-0.002473	0.003096	-85.936391	3.012901	146.856111
39577		-0.550897	-9.765617	0.714746	-0.006750	0.000054	0.002665	-85.936162	3.013568	146.854888
39578		-0.497309	-9.773094	0.710630	-0.006792	-0.004832	0.005492	-85.935816	3.015511	146.856415
39579		-0.521384	-9.791661	0.726965	-0.009980	0.003033	0.005466	-85.937555	3.017900	146.853911
39580		-0.528847	-9.759350	0.716519	-0.005988	-0.003939	0.000053	-85.936786	3.016771	146.854706
39581		-0.544784	-9.785935	0.700335	-0.008199	-0.002306	0.005062	-85.937319	3.018741	146.855532
39582		-0.521968	-9.779601	0.703625	-0.006763	-0.001576	0.003608	-85.937058	3.019740	146.855118
39583		-0.545875	-9.798168	0.720077	-0.007825	-0.005117	0.004227	-85.937318	3.021038	146.856421
39584		-0.530161	-9.759483	0.713732	-0.006748	0.000053	0.002667	-85.937100	3.021565	146.855038
39585		-0.522989	-9.779693	0.701577	-0.006777	-0.003206	0.004551	-85.936783	3.023185	146.855936
39586		-0.530888	-9.759547	0.712314	-0.009232	-0.002590	0.003797	-85.937905	3.024251	146.856112
39587		-0.523674	-9.779765	0.700064	-0.006389	-0.004388	0.002773	-85.937357	3.024784	146.857450
39588		-0.547400	-9.786131	0.695532	-0.004722	-0.004270	0.008024	-85.935835	3.028197	146.858758
39589		-0.524948	-9.791973	0.720173	-0.006374	-0.002759	0.001832	-85.935336	3.028275	146.859471
39590		-0.509476	-9.765473	0.735063	-0.006761	-0.001578	0.003610	-85.935074	3.029275	146.859058
39591		-0.548401	-9.786202	0.693751	-0.006388	-0.004388	0.002774	-85.934526	3.029792	146.860148
39592		-0.517727	-9.787872	0.664357	-0.009258	-0.005851	0.005682	-85.935561	3.031803	146.862266
39593		-0.526336	-9.792101	0.717413	-0.006775	-0.003208	0.004552	-85.935258	3.033432	146.863429
39594		-0.533770	-9.759765	0.707149	-0.006359	-0.001130	0.000891	-85.934785	3.032896	146.862650
39595		-0.526615	-9.792175	0.716190	-0.005987	-0.003941	0.000054	-85.934062	3.031889	146.864005
39596		-0.510818	-9.753491	0.709939	-0.007146	-0.000398	0.005389	-85.934053	3.033954	146.862990
39597		-0.526959	-9.780043	0.693689	-0.007808	-0.003492	0.003287	-85.934317	3.034817	146.863598
39598		-0.519809	-9.800253	0.681394	-0.008180	-0.000681	0.004124	-85.934894	3.036147	146.862694
39599		-0.527615	-9.780117	0.692144	-0.007794	-0.001862	0.002346	-85.935201	3.036531	146.862214
39600		-0.535777	-9.772180	0.724045	-0.008194	-0.002312	0.005066	-85.935734	3.038333	146.862281
39601		-0.512676	-9.753665	0.706194	-0.006773	-0.003210	0.004553	-85.935372	3.039960	146.862817
39602		-0.536534	-9.772249	0.722555	-0.009199	0.000665	0.001918	-85.936578	3.040084	146.861053
39603		-0.528983	-9.780249	0.689222	-0.004290	-0.000566	0.003423	-85.934936	3.041138	146.860130
39604		-0.513840	-9.765981	0.725203	-0.010261	-0.002878	0.002536	-85.936642	3.041471	146.860418
39605		-0.537290	-9.772363	0.720443	-0.005324	-0.000849	0.002157	-85.935572	3.041777	146.859295
39606		-0.499323	-9.806399	0.700748	-0.007806	-0.003494	0.003288	-85.935852	3.042515	146.859967
39607		-0.514619	-9.766109	0.722931	-0.010633	-0.000068	0.003374	-85.937854	3.043588	146.859200
39608		-0.537745	-9.760288	0.696840	-0.008826	-0.002146	0.001082	-85.938763	3.043121	146.859011
39609		-0.530749	-9.792715	0.705679	-0.006743	0.000048	0.002672	-85.938518	3.043772	146.857490
39610		-0.538807	-9.784797	0.737727	-0.006385	-0.004393	0.002774	-85.937957	3.044180	146.858656
39611		-0.507619	-9.774248	0.687077	-0.011294	-0.003162	0.001272	-85.940224	3.043905	146.858975
39612		-0.531015	-9.780635	0.682148	-0.007791	-0.001865	0.002348	-85.940546	3.044172	146.858677
39613		-0.508030	-9.774335	0.685527	-0.005337	-0.002481	0.003099	-85.939429	3.044956	146.858629
39614		-0.531863	-9.792923	0.701946	-0.009211	-0.000968	0.002862	-85.940590	3.045553	146.857837
39615		-0.531769	-9.780748	0.679945	-0.008839	-0.003779	0.002024	-85.941458	3.045660	146.858469
39616		-0.539758	-9.772872	0.711638	-0.011664	-0.000353	0.002112	-85.944045	3.045854	146.857295
39617		-0.532190	-9.780856	0.678054	-0.006742	0.000046	0.002673	-85.943838	3.046502	146.856168
39618		-0.516688	-9.754400	0.692993	-0.006384	-0.004395	0.002775	-85.943277	3.046910	146.857334
39619		-0.555896	-9.787251	0.672662	-0.009195	0.000661	0.001923	-85.944479	3.047154	146.855661
39620		-0.532876	-9.780966	0.675920	-0.006384	-0.004396	0.002775	-85.943917	3.047563	146.856828
39621		-0.540551	-9.760853	0.686686	-0.010243	-0.001252	0.001599	-85.945633	3.047529	146.855667
39622		-0.510084	-9.774740	0.678190	-0.009222	-0.002602	0.003804	-85.946749	3.048599	146.855849
39623		-0.518102	-9.766873	0.710011	-0.008823	-0.002150	0.001084	-85.947672	3.048261	146.856100
39624		-0.534141	-9.793384	0.693729	-0.005720	-0.001306	0.004880	-85.946819	3.049998	146.855584
39625		-0.511016	-9.787116	0.696933	-0.010877	-0.001081	-0.002385	-85.948920	3.047705	146.854451
39626		-0.542024	-9.785598	0.724634	-0.009193	0.000659	0.001925	-85.950123	3.047833	146.852691
39627		-0.511341	-9.787224	0.695181	-0.006782	-0.004852	0.005495	-85.949747	3.049903	146.854273
39628		-0.511925	-9.799506	0.715624	-0.007403	-0.003048	0.000570	-85.949814	3.049106	146.854579
39629		-0.519211	-9.767151	0.705356	-0.007787	-0.001870	0.002350	-85.950112	3.049485	146.854076
39630		-0.511953	-9.787345	0.693024	-0.007787	-0.001870	0.002351	-85.950432	3.049753	146.853780
39631		-0.542947	-9.773544	0.699893	-0.006753	-0.001589	0.003616	-85.950151	3.050883	146.853573
39632		-0.512148	-9.775161	0.670531	-0.007416	-0.004680	0.001510	-85.950174	3.050558	146.854852
39633		-0.535840	-9.793767	0.686979	-0.006368	-0.002768	0.001836	-85.949633	3.050604	146.854858
39634		-0.520586	-9.779596	0.723082	-0.006381	-0.004400	0.002775	-85.949069	3.051013	146.856028
39635		-0.544117	-9.785938	0.718446	-0.006752	-0.001590	0.003617	-85.948780	3.052155	146.855944
39636		-0.536614	-9.793861	0.685044	-0.007786	-0.001872	0.002352	-85.949099	3.052424	146.855649
39637		-0.521372	-9.779708	0.721002	-0.007786	-0.001872	0.002352	-85.949399	3.052832	146.855710
39638		-0.521316	-9.767485	0.699146	-0.007800	-0.003504	0.003291	-85.949674	3.053572	146.856388
39639		-0.514668	-9.812208	0.728967	-0.008820	-0.002153	0.001087	-85.950563	3.053222	146.856175
39640		-0.544906	-9.773888	0.693539	-0.007785	-0.001873	0.002352	-85.950882	3.053492	146.855881
39641		-0.537492	-9.794067	0.681397	-0.003501	-0.001297	-0.001074	-85.948744	3.051933	146.854877
39642		-0.521524	-9.755384	0.675290	-0.009217	-0.002609	0.003808	-85.949858	3.053004	146.855063
39643		-0.545738	-9.786266	0.712720	-0.006750	-0.001593	0.003618	-85.949584	3.054108	146.854516
39644		-0.545753	-9.774012	0.691113	-0.003927	-0.005018	0.003524	-85.947593	3.054920	146.856069
39645		-0.522773	-9.767734	0.694568	-0.007784	-0.001874	0.002353	-85.947875	3.055275	146.855078
39646		-0.522967	-9.767780	0.693771	-0.008832	-0.003787	0.002028	-85.948735	3.055281	146.855866
39647		-0.531220	-9.772246	0.746737	-0.008832	-0.003787	0.002028	-85.949573	3.055388	146.856366
39648		-0.546652	-9.774164	0.688249	-0.005345	-0.004123	0.004041	-85.948421	3.056532	146.857428
39649		-0.524037	-9.780177	0.712658	-0.009202	-0.000978	0.002871	-85.949502	3.057240	146.855981
39650		-0.539943	-9.806651	0.696425	-0.003515	-0.002930	-0.000135	-85.947347	3.056045	146.856191
39651		-0.524443	-9.792540	0.732579	-0.008447	-0.004965	0.000247	-85.947916	3.055082	146.857096
39652		-0.523838	-9.768027	0.689632	-0.007399	-0.003052	0.000573	-85.947981	3.054287	146.857404
39653		-0.547460	-9.786648	0.706136	-0.004946	-0.003668	0.001321	-85.946600	3.054001	146.857996
39654		-0.524318	-9.780379	0.709677	-0.004946	-0.003668	0.001321	-85.945240	3.053608	146.858687
39655		-0.500875	-9.761831	0.692006	-0.007412	-0.004685	0.001512	-85.945241	3.053388	146.859828
39656		-0.524892	-9.792763	0.729269	-0.011653	-0.000365	0.002125	-85.947821	3.053589	146.858661
39657		-0.501386	-9.774229	0.711444	-0.003500	-0.001298	-0.001073	-85.945690	3.052044	146.858047
39658		-0.540745	-9.806961	0.691422	-0.004706	-0.004303	0.008026	-85.944158	3.055458	146.859374
39659		-0.532771	-9.760419	0.718179	-0.005980	-0.003949	0.000057	-85.943362	3.054432	146.859990
39660		-0.517964	-9.800725	0.694265	-0.007781	-0.001877	0.002356	-85.943678	3.054704	146.859699
39661		-0.548880	-9.786927	0.701139	-0.007781	-0.001877	0.002356	-85.943971	3.055095	146.859541
39662		-0.502506	-9.774383	0.708535	-0.004932	-0.002036	0.000383	-85.942654	3.054232	146.859260
39663		-0.533324	-9.760581	0.715554	-0.007781	-0.001878	0.002357	-85.942958	3.054606	146.858934
39664		-0.526159	-9.780755	0.703101	-0.009212	-0.002616	0.003813	-85.944068	3.055681	146.859124
39665		-0.526537	-9.780772	0.702571	-0.001828	-0.001196	0.004176	-85.940975	3.057130	146.858578
39666		-0.550025	-9.787075	0.698174	-0.006349	-0.001140	0.000901	-85.940496	3.056600	146.857806
39667		-0.526559	-9.768531	0.680360	-0.008815	-0.002158	0.001093	-85.941377	3.056246	146.857605
39668		-0.527281	-9.793194	0.721723	-0.007766	-0.000245	0.001419	-85.941736	3.056048	146.856341
39669		-0.519389	-9.788740	0.667307	-0.004958	-0.005304	0.002259	-85.940320	3.056247	146.858319
39670		-0.527344	-9.780940	0.699621	-0.003910	-0.003391	0.002586	-85.938371	3.056589	146.858903
39671		-0.535251	-9.773160	0.731740	-0.008814	-0.002159	0.001093	-85.939246	3.056228	146.858529
39672		-0.527984	-9.793331	0.719339	-0.006731	0.000034	0.002684	-85.939018	3.056765	146.857156
39673		-0.528333	-9.793369	0.718569	-0.009223	-0.004253	0.004752	-85.940066	3.058410	146.858235
39674		-0.505101	-9.774829	0.700485	-0.011648	-0.000369	0.002131	-85.942644	3.058613	146.857071
39675		-0.552053	-9.799771	0.712561	-0.008813	-0.002160	0.001094	-85.943529	3.058260	146.856957
39676		-0.528604	-9.781222	0.694712	-0.007409	-0.004690	0.001513	-85.943548	3.057936	146.858241
39677		-0.528748	-9.781269	0.693941	-0.008826	-0.003795	0.002032	-85.944387	3.058051	146.859074
39678		-0.528943	-9.781315	0.693144	-0.007778	-0.001882	0.002359	-85.944700	3.058324	146.858785
39679		-0.529330	-9.793687	0.713484	-0.007382	-0.001422	-0.000361	-85.944791	3.057165	146.858142
39680		-0.544878	-9.807805	0.676039	-0.007408	-0.004691	0.001514	-85.944809	3.056842	146.859427
39681		-0.529433	-9.793798	0.711878	-0.011263	-0.001546	0.000350	-85.947119	3.056084	146.858891
39682		-0.552008	-9.775479	0.664899	-0.005951	-0.000683	-0.001817	-85.946432	3.054019	146.857746
39683		-0.536826	-9.773798	0.722001	-0.008838	-0.005432	0.002970	-85.947221	3.054603	146.859495
39684		-0.529091	-9.781640	0.688436	-0.008402	-0.000067	-0.002562	-85.947959	3.052137	146.857968
39685		-0.536723	-9.773930	0.720292	-0.009858	-0.004077	0.000769	-85.949388	3.051518	146.858936
39686		-0.536695	-9.773987	0.719536	-0.005963	-0.002318	-0.000879	-85.948656	3.049923	146.858765
39687		-0.528467	-9.769486	0.664990	-0.009449	-0.001982	-0.002888	-85.949912	3.047296	146.858265
39688		-0.528744	-9.794243	0.706247	-0.008388	0.001567	-0.003498	-85.950693	3.044361	146.855765
39689		-0.535619	-9.761856	0.696187	-0.005593	-0.005127	-0.001726	-85.949649	3.042273	146.857224
39690		-0.504736	-9.775737	0.687962	-0.005950	-0.000684	-0.001816	-85.948961	3.040209	146.856080
39691		-0.535486	-9.774302	0.716149	-0.005580	-0.003493	-0.002663	-85.947960	3.037651	146.856548
39692		-0.504339	-9.775840	0.686788	-0.007379	-0.001425	-0.000359	-85.948065	3.036389	146.855887
39693		-0.504614	-9.788244	0.707061	-0.008796	-0.000531	0.000160	-85.948990	3.035565	146.854787
39694		-0.535287	-9.774474	0.713958	-0.007379	-0.001425	-0.000359	-85.949095	3.034303	146.854126
39695		-0.527359	-9.782290	0.680471	-0.008030	-0.002878	-0.003407	-85.949519	3.031344	146.854228
39696		-0.519699	-9.802459	0.667993	-0.008426	-0.003340	-0.000686	-85.950166	3.029818	146.854650
39697		-0.527042	-9.782410	0.678994	-0.005962	-0.002320	-0.000879	-85.949416	3.028326	146.854518
39698		-0.527137	-9.794814	0.699500	-0.005579	-0.003493	-0.002662	-85.948431	3.025664	146.854948
39699		-0.534553	-9.774756	0.710630	-0.006370	-0.004418	0.002778	-85.947845	3.026177	146.856188
39700		-0.526760	-9.782555	0.677121	-0.009433	-0.000349	-0.003822	-85.949167	3.022980	146.854771
39701		-0.526877	-9.794981	0.697359	-0.007390	-0.003062	0.000578	-85.949209	3.022290	146.855114
39702		-0.511160	-9.768651	0.712402	-0.006356	-0.002784	0.001842	-85.948682	3.022231	146.855321
39703		-0.527108	-9.795053	0.696165	-0.004940	-0.003678	0.001322	-85.947300	3.021941	146.856066
39704		-0.511394	-9.768711	0.711403	-0.004939	-0.003678	0.001322	-85.945936	3.021549	146.856763
39705		-0.550654	-9.801392	0.691021	-0.009189	-0.000997	0.002884	-85.947067	3.022260	146.856043
39706		-0.527300	-9.782804	0.673100	-0.008806	-0.002170	0.001100	-85.947963	3.021801	146.855867
39707		-0.504573	-9.788929	0.697547	-0.003930	-0.006671	0.004458	-85.945906	3.023182	146.858445
39708		-0.512149	-9.768861	0.708795	-0.005960	-0.002321	-0.000877	-85.945172	3.021588	146.858276
39709		-0.511918	-9.756527	0.687206	-0.005308	-0.000870	0.002171	-85.944085	3.021895	146.857447
39710		-0.551404	-9.801553	0.688127	-0.003522	-0.004572	0.000802	-85.941883	3.021169	146.858634
39711		-0.535961	-9.787583	0.724536	-0.003892	-0.001764	0.001650	-85.939958	3.021143	146.858300
39712		-0.505115	-9.789048	0.695476	-0.002476	-0.002657	0.001129	-85.937213	3.020682	146.858405
39713		-0.543434	-9.755153	0.714496	-0.006380	-0.006058	0.003715	-85.936580	3.021662	146.860608
39714		-0.505391	-9.789105	0.694479	-0.005948	-0.000685	-0.001813	-85.935890	3.019599	146.859465
39715		-0.520276	-9.748966	0.717323	-0.006367	-0.004422	0.002780	-85.935300	3.020109	146.860675
39716		-0.536482	-9.787743	0.721995	-0.007376	-0.001428	-0.000355	-85.935402	3.018850	146.860017
39717		-0.536077	-9.763034	0.679114	-0.009199	-0.002636	0.003822	-85.936486	3.020029	146.860269
39718		-0.506081	-9.801662	0.712740	-0.005960	-0.002322	-0.000876	-85.935752	3.018435	146.860100
39719		-0.521332	-9.803290	0.654378	-0.005984	-0.005595	0.000995	-85.934910	3.017878	146.861923
39720		-0.513588	-9.781669	0.723124	-0.010220	-0.001279	0.001624	-85.936643	3.017755	146.861259
39721		-0.513328	-9.769332	0.701422	-0.003497	-0.001301	-0.001070	-85.934510	3.016191	146.860540
39722		-0.544248	-9.755526	0.708762	-0.004666	-0.001058	0.006156	-85.933058	3.018668	146.859935
39723		-0.483157	-9.783210	0.692521	-0.011241	0.000078	-0.000575	-85.935403	3.017444	146.858453
39724		-0.521313	-9.749364	0.711134	-0.006353	-0.002788	0.001845	-85.934874	3.017386	146.858661
39725		-0.506656	-9.789568	0.686992	-0.007769	-0.001895	0.002366	-85.935164	3.017761	146.858424
39726		-0.545322	-9.768101	0.726680	-0.009196	-0.002639	0.003824	-85.936264	3.018841	146.858628
39727		-0.514896	-9.781978	0.718001	-0.010218	-0.001281	0.001625	-85.937977	3.018817	146.858011
39728		-0.530485	-9.795983	0.680336	-0.008421	-0.003345	-0.000682	-85.938621	3.017293	146.858436
39729		-0.491682	-9.763416	0.699442	-0.004677	-0.002698	0.007092	-85.937105	3.020336	146.858850
39730		-0.538653	-9.788375	0.711727	-0.010846	0.000543	-0.003293	-85.939262	3.017477	146.856943
39731		-0.515125	-9.769770	0.693956	-0.004271	-0.000596	0.003437	-85.937583	3.018515	146.856006
39732		-0.546105	-9.755980	0.701051	-0.009183	-0.001004	0.002890	-85.938727	3.019128	146.855237
39733		-0.516298	-9.794657	0.734466	-0.009195	-0.002642	0.003825	-85.939808	3.020305	146.855488
39734		-0.508851	-9.802374	0.700870	-0.007754	-0.000260	0.001433	-85.940159	3.020114	146.854233
39735		-0.523739	-9.749851	0.702620	-0.007114	-0.000449	0.005417	-85.940109	3.022289	146.853292
39736		-0.539814	-9.763800	0.664993	-0.010622	-0.003387	0.005283	-85.942000	3.024173	146.853984
39737		-0.540674	-9.788674	0.706073	-0.009157	0.002269	0.001021	-85.943213	3.023946	146.851315
39738		-0.525252	-9.762406	0.720770	-0.012417	-0.001326	0.007591	-85.946190	3.027232	146.850920
39739		-0.541296	-9.776375	0.682706	-0.014092	-0.001415	0.002345	-85.950115	3.027612	146.850403
39740		-0.525814	-9.762547	0.718443	-0.007372	-0.001431	-0.000352	-85.950216	3.026354	146.849747
39741		-0.541682	-9.788932	0.701707	-0.012663	-0.000670	0.000888	-85.953348	3.025932	146.848749
39742		-0.518578	-9.782758	0.704597	-0.010226	-0.002923	0.002563	-85.955033	3.026279	146.849064
39743		-0.526359	-9.775174	0.736528	-0.007372	-0.001432	-0.000352	-85.955113	3.025118	146.848454
39744		-0.526013	-9.762807	0.714757	-0.008418	-0.003348	-0.000681	-85.955755	3.023594	146.848881
39745		-0.541694	-9.789184	0.698173	-0.008393	-0.000072	-0.002549	-85.956465	3.021232	146.847402
39746		-0.525634	-9.762947	0.713130	-0.008405	-0.001711	-0.001615	-85.957152	3.019241	146.846854
39747		-0.517916	-9.783074	0.700679	-0.005551	-0.000219	-0.004529	-85.956232	3.015740	146.845380
39748		-0.517746	-9.783142	0.699866	-0.011259	-0.003204	0.001300	-85.958503	3.015355	146.845805
39749		-0.517782	-9.783212	0.698849	-0.009831	-0.002458	-0.000157	-85.959959	3.014263	146.845789
39750		-0.517955	-9.795719	0.718973	-0.008404	-0.001712	-0.001614	-85.960645	3.012272	146.845242
39751		-0.517209	-9.770904	0.676221	-0.006989	-0.002603	-0.002137	-85.960472	3.010041	146.845228
39752		-0.517284	-9.783407	0.696484	-0.008404	-0.001712	-0.001614	-85.961158	3.008051	146.844682
39753		-0.524553	-9.763400	0.707695	-0.003495	-0.001302	-0.001069	-85.959019	3.006483	146.843967
39754		-0.517472	-9.795922	0.716563	-0.003899	-0.003410	0.002585	-85.957064	3.006824	146.844561
39755		-0.524697	-9.763471	0.706616	-0.011233	0.000070	-0.000565	-85.959399	3.005599	146.843083
39756		-0.540587	-9.802289	0.710965	-0.006608	-0.003773	-0.003924	-85.958999	3.002205	146.843623
39757		-0.524238	-9.763606	0.705087	-0.007369	-0.001436	-0.000350	-85.959074	3.001042	146.843011
39758		-0.524339	-9.776124	0.725274	-0.009437	-0.001991	-0.002876	-85.960346	2.998320	146.842573
39759		-0.516219	-9.771339	0.670671	-0.007369	-0.001436	-0.000350	-85.960420	2.997157	146.841966
39760		-0.523964	-9.776251	0.723838	-0.005562	-0.001858	-0.003594	-85.959477	2.994029	146.841422
39761		-0.546997	-9.782557	0.719168	-0.008414	-0.003353	-0.000679	-85.960093	2.992600	146.841896
39762		-0.515387	-9.759048	0.647692	-0.005942	-0.000689	-0.001807	-85.959399	2.990541	146.840757
39763		-0.546292	-9.770232	0.696688	-0.010469	-0.002270	-0.004137	-85.961233	2.987180	146.840473
39764		-0.499754	-9.770278	0.724847	-0.006999	-0.004245	-0.001203	-85.961037	2.985322	146.841392
39765		-0.515249	-9.796642	0.708272	-0.009043	-0.001523	-0.005594	-85.962078	2.981158	146.840619
39766		-0.514736	-9.796740	0.707279	-0.011514	-0.004188	-0.004466	-85.964478	2.977437	146.841374
39767		-0.514070	-9.784371	0.685233	-0.010480	-0.003911	-0.003203	-85.966266	2.974543	146.842067
39768		-0.521329	-9.776880	0.717214	-0.006594	-0.002136	-0.004856	-85.965908	2.970683	146.841633
39769		-0.527982	-9.744451	0.707332	-0.007996	0.000393	-0.005263	-85.966405	2.966784	146.839779
39770		-0.496724	-9.758350	0.698405	-0.014993	-0.003855	-0.006466	-85.970813	2.961935	146.840263
39771		-0.519252	-9.764749	0.692836	-0.017429	-0.001604	-0.008135	-85.976660	2.956314	146.839437
39772		-0.511229	-9.784938	0.679233	-0.019246	-0.002826	-0.003957	-85.983529	2.952940	146.839435
39773		-0.534141	-9.803836	0.694310	-0.019885	-0.002634	-0.007938	-85.990753	2.947390	146.839208
39774		-0.517150	-9.765239	0.687489	-0.014586	-0.001748	-0.010115	-85.994997	2.940539	146.838342
39775		-0.523927	-9.757872	0.718627	-0.019883	-0.002637	-0.007936	-86.002219	2.934991	146.838119
39776		-0.492192	-9.759332	0.687818	-0.021285	-0.000110	-0.008341	-86.010345	2.929219	146.836388
39777		-0.514876	-9.778259	0.702927	-0.017063	-0.006058	-0.008055	-86.015851	2.923466	146.838119
39778		-0.490609	-9.772199	0.704925	-0.024381	-0.000948	-0.012125	-86.025734	2.915497	146.836719
39779		-0.512555	-9.766210	0.677056	-0.034950	0.000545	-0.009627	-86.041683	2.909107	146.834608
39780		-0.504022	-9.786494	0.661986	-0.030682	0.001155	-0.013066	-86.055239	2.900683	146.831970
39781		-0.494698	-9.753021	0.707656	-0.031061	0.002317	-0.011275	-86.069014	2.893421	146.828789
39782		-0.501197	-9.745872	0.736960	-0.040852	0.003111	-0.013282	-86.088452	2.884948	146.825028
39783		-0.523814	-9.793649	0.647349	-0.041610	0.005435	-0.009700	-86.108356	2.878705	146.820124
39784		-0.499883	-9.800237	0.668430	-0.037386	-0.000512	-0.009420	-86.125696	2.872298	146.818593
39785		-0.491153	-9.807962	0.631926	-0.037350	0.004403	-0.012204	-86.143133	2.864580	146.814185
39786		-0.490155	-9.808210	0.628848	-0.025121	0.001358	-0.008532	-86.153496	2.858751	146.811621
39787		-0.496659	-9.788426	0.638570	-0.019465	-0.002189	-0.010643	-86.160495	2.851670	146.811053
39788		-0.511839	-9.827394	0.641784	-0.016731	0.003090	-0.006924	-86.166097	2.846826	146.807561
39789		-0.502689	-9.781339	0.668028	-0.015976	-0.000880	-0.009575	-86.171133	2.840405	146.806287
39790		-0.509204	-9.761518	0.678578	-0.012118	-0.002374	-0.009370	-86.173941	2.833954	146.805829
39791		-0.501076	-9.794205	0.686147	-0.017388	0.000003	-0.009045	-86.179808	2.827870	146.804067
39792		-0.491766	-9.735606	0.691151	-0.022689	-0.002544	-0.005936	-86.188661	2.823375	146.803839
39793		-0.499385	-9.781996	0.660848	-0.027204	-0.004137	-0.008263	-86.200034	2.817580	146.804486
39794		-0.475137	-9.763345	0.641276	-0.027936	0.003109	-0.007462	-86.212055	2.812427	146.800966
39795		-0.497999	-9.782415	0.655680	-0.022694	-0.004192	-0.005006	-86.220834	2.808492	146.801756
39796		-0.490407	-9.827742	0.683419	-0.021269	-0.003437	-0.006461	-86.228849	2.803663	146.802023
39797		-0.496690	-9.782757	0.651553	-0.019844	-0.002682	-0.007916	-86.236045	2.798121	146.801849
39798		-0.496241	-9.795519	0.670744	-0.015329	-0.001090	-0.005588	-86.240721	2.793879	146.800807
39799		-0.471893	-9.764144	0.631433	-0.016349	0.000272	-0.007775	-86.245994	2.788530	146.798948
39800		-0.479005	-9.756958	0.662752	-0.015347	-0.004376	-0.003734	-86.250585	2.785225	146.799857
39801		-0.494597	-9.783299	0.644967	-0.021381	0.000319	0.000178	-86.258729	2.784423	146.798283
39802		-0.463941	-9.809726	0.655796	-0.022704	-0.007488	-0.003148	-86.267448	2.781337	146.800996
39803		-0.494526	-9.796236	0.661466	-0.023841	-0.002364	0.001302	-86.276924	2.781076	146.800973
39804		-0.486824	-9.803677	0.626297	-0.023447	-0.001885	-0.001414	-86.286220	2.779191	146.800545
39805		-0.494205	-9.783891	0.636231	-0.018560	-0.003096	0.000047	-86.292652	2.778187	146.800917
39806		-0.470844	-9.777741	0.638421	-0.019579	-0.001733	-0.002138	-86.299738	2.775893	146.800375
39807		-0.494033	-9.796804	0.653375	-0.019205	-0.004538	-0.003004	-86.306506	2.773089	146.801443
39808		-0.509678	-9.823114	0.635628	-0.016114	-0.003705	0.000779	-86.311547	2.772391	146.802138
39809		-0.470506	-9.790775	0.653925	-0.020606	-0.002015	-0.003396	-86.319187	2.769457	146.801747
39810		-0.485740	-9.791744	0.594589	-0.011219	-0.003272	0.001314	-86.321434	2.769080	146.802214
39811		-0.493934	-9.809866	0.668476	-0.003864	-0.000157	0.000727	-86.319528	2.768571	146.800924
39812		-0.493554	-9.784564	0.626309	-0.004903	-0.002077	0.000391	-86.318191	2.767710	146.800673
39813		-0.462895	-9.798221	0.617927	-0.003864	-0.000157	0.000727	-86.316284	2.767203	146.799396
39814		-0.501387	-9.777367	0.658386	-0.003873	-0.001800	0.001652	-86.314363	2.767074	146.799033
39815		-0.471021	-9.803688	0.670880	-0.004912	-0.003721	0.001316	-86.312955	2.766771	146.799791
39816		-0.494042	-9.784636	0.624804	-0.001440	-0.004047	0.003306	-86.309575	2.767504	146.800775
39817		-0.471107	-9.791049	0.649372	-0.005933	-0.002356	-0.000869	-86.308792	2.766003	146.800684
39818		-0.486815	-9.804566	0.612227	0.001002	-0.004651	0.004035	-86.303995	2.767131	146.802041
39819		-0.471531	-9.791044	0.649142	-0.001431	-0.002404	0.002381	-86.300630	2.767484	146.802094
39820		-0.487365	-9.804527	0.612408	0.004865	-0.004494	0.003307	-86.293624	2.768201	146.803334
39821		-0.479356	-9.758401	0.640892	0.003453	-0.003612	0.003839	-86.287417	2.769344	146.804086
39822		-0.464901	-9.798167	0.617284	0.004474	-0.004978	0.006024	-86.280617	2.771597	146.805704
39823		-0.473123	-9.790869	0.650623	0.004475	-0.004978	0.006025	-86.273788	2.773939	146.807382
39824		-0.466447	-9.810705	0.639157	0.006153	-0.003263	0.010339	-86.266066	2.778722	146.808180
39825		-0.474859	-9.790703	0.651852	0.007566	-0.004146	0.009807	-86.257483	2.783254	146.809488
39826		-0.499002	-9.796871	0.648576	0.007576	-0.002504	0.008883	-86.248969	2.787233	146.809798
39827		-0.476876	-9.803184	0.674094	0.004752	-0.000739	0.009947	-86.242091	2.791976	146.809225
39828		-0.485108	-9.770520	0.665812	0.007195	-0.001345	0.010676	-86.233825	2.797024	146.808940
39829		-0.494538	-9.816507	0.638536	0.008236	0.000575	0.011012	-86.224987	2.802424	146.807654
39830		-0.479904	-9.790211	0.655542	0.011709	0.000246	0.013002	-86.214174	2.808862	146.806549
39831		-0.488395	-9.757497	0.647804	0.011710	0.000245	0.013003	-86.203332	2.815385	146.805460
39832		-0.459249	-9.783676	0.661940	0.013104	-0.003926	0.014323	-86.191601	2.822419	146.806795
39833		-0.468383	-9.763573	0.675334	0.015446	0.000867	0.020767	-86.178622	2.833405	146.805675
39834		-0.493558	-9.769612	0.672890	0.016550	-0.009190	0.019094	-86.164756	2.842965	146.810209
39835		-0.495481	-9.782098	0.694779	0.003606	0.001095	0.016254	-86.158573	2.851387	146.808856
39836		-0.513013	-9.808150	0.679200	0.004989	-0.004720	0.018502	-86.151459	2.860779	146.810812
39837		-0.514301	-9.782744	0.637937	0.005000	-0.003078	0.017576	-86.144353	2.869793	146.811854
39838		-0.508634	-9.815219	0.647195	0.001905	-0.003907	0.013793	-86.139038	2.876525	146.813165
39839		-0.501601	-9.781670	0.696413	0.004749	-0.002390	0.010878	-86.132112	2.881729	146.813467
39840		-0.502097	-9.756312	0.655135	0.005129	-0.003551	0.009085	-86.124969	2.885783	146.814393
39841		-0.503445	-9.781522	0.697167	-0.000137	-0.001173	0.009419	-86.120882	2.890203	146.814009
39842		-0.496557	-9.788789	0.664303	0.000263	0.000953	0.005773	-86.116663	2.892537	146.812230
39843		-0.497156	-9.788755	0.664356	0.000612	-0.005138	0.006760	-86.112044	2.895277	146.813981
39844		-0.505482	-9.781418	0.697142	-0.002569	0.001079	0.007763	-86.109447	2.898754	146.812207
39845		-0.506162	-9.768735	0.676246	0.002297	-0.003427	0.011076	-86.103890	2.904033	146.813105
39846		-0.476717	-9.795041	0.689403	0.002318	-0.000140	0.009223	-86.098456	2.908298	146.812086
39847		-0.508333	-9.781241	0.697558	0.001255	-0.005347	0.010742	-86.093437	2.913322	146.814245
39848		-0.501598	-9.775860	0.643780	-0.001934	-0.000774	0.012672	-86.090414	2.919533	146.813725
39849		-0.526299	-9.807271	0.681731	0.005509	-0.004716	0.007294	-86.083001	2.922601	146.815407
39850		-0.511073	-9.781071	0.697936	-0.001841	-0.006174	0.006959	-86.079779	2.925335	146.817754
39851		-0.488293	-9.774875	0.701551	-0.006707	-0.001666	0.003646	-86.079447	2.926431	146.817323
39852		-0.511877	-9.768447	0.676110	-0.004663	-0.004404	0.008022	-86.077890	2.929843	146.818699
39853		-0.528563	-9.807245	0.680341	-0.009160	-0.002700	0.003844	-86.078945	2.931013	146.819013
39854		-0.520505	-9.761189	0.707500	-0.008138	-0.004070	0.006032	-86.079393	2.933300	146.820120
39855		-0.505988	-9.788470	0.661882	-0.007759	-0.005230	0.004239	-86.079554	2.934612	146.821958
39856		-0.506437	-9.788501	0.661081	-0.009180	-0.005990	0.005698	-86.080543	2.936633	146.824151
39857		-0.506836	-9.788540	0.660202	-0.009148	-0.001057	0.002918	-86.081612	2.937329	146.823040
39858		-0.514839	-9.781281	0.692202	-0.009179	-0.005991	0.005698	-86.082601	2.939350	146.825233
39859		-0.523520	-9.814740	0.642582	-0.006338	-0.004472	0.002781	-86.081964	2.939829	146.826070
39860		-0.492345	-9.775155	0.694793	-0.008135	-0.004073	0.006033	-86.082411	2.942117	146.827178
39861		-0.485238	-9.782471	0.661204	-0.006715	-0.003313	0.004575	-86.082054	2.943685	146.828025
39862		-0.509144	-9.801326	0.677504	-0.005304	-0.004199	0.004042	-86.080878	2.944830	146.829128
39863		-0.516875	-9.781399	0.689011	-0.005304	-0.004199	0.004042	-86.079679	2.946066	146.830481
39864		-0.532883	-9.794885	0.651620	-0.005294	-0.002554	0.003116	-86.078547	2.946745	146.830606
39865		-0.517625	-9.781418	0.688180	-0.001828	-0.004536	0.006032	-86.075346	2.949104	146.832252
39866		-0.487382	-9.795179	0.679918	-0.003884	-0.003439	0.002584	-86.073382	2.949444	146.832862
39867		-0.541577	-9.787605	0.683529	-0.004250	-0.000635	0.003451	-86.071693	2.950489	146.832351
39868		-0.502657	-9.755336	0.702971	-0.007736	-0.001944	0.002388	-86.071980	2.950777	146.832099
39869		-0.495155	-9.762664	0.669358	-0.007349	-0.001458	-0.000332	-86.072041	2.949634	146.831924
39870		-0.518783	-9.781550	0.685426	-0.009145	-0.001060	0.002922	-86.073161	2.950261	146.831186
39871		-0.511705	-9.801536	0.672520	-0.009145	-0.001060	0.002922	-86.074259	2.950951	146.830354
39872		-0.519230	-9.781639	0.683815	-0.005959	-0.005633	0.000988	-86.073422	2.950294	146.832158
39873		-0.519392	-9.781673	0.683211	-0.006692	-0.000026	0.002724	-86.073166	2.950928	146.831174
39874		-0.519692	-9.781694	0.682678	-0.004249	-0.000637	0.003452	-86.071492	2.951875	146.830215
39875		-0.519690	-9.769038	0.661447	-0.003516	-0.006245	0.001715	-86.069224	2.951684	146.832556
39876		-0.520059	-9.781723	0.681975	-0.003872	-0.001796	0.001658	-86.067304	2.951560	146.832190
39877		-0.527571	-9.761800	0.693704	-0.002473	-0.004326	0.002050	-86.064489	2.951638	146.833407
39878		-0.520656	-9.794424	0.702140	-0.006335	-0.004476	0.002782	-86.063898	2.952051	146.834619
39879		-0.474130	-9.769440	0.688728	-0.005292	-0.002557	0.003118	-86.062762	2.952792	146.834800
39880		-0.513487	-9.789068	0.647112	-0.009520	0.000096	0.004719	-86.064126	2.954492	146.833471
39881		-0.490519	-9.782936	0.650346	-0.006325	-0.002831	0.001857	-86.063570	2.954563	146.834595
39882		-0.498601	-9.788373	0.703627	-0.003902	-0.006733	0.004435	-86.061516	2.955832	146.837164
39883		-0.545524	-9.800711	0.695244	-0.004248	-0.000638	0.003453	-86.059811	2.956846	146.836076
39884		-0.529528	-9.761963	0.689899	-0.006304	0.000460	0.000006	-86.059353	2.955867	146.834353
39885		-0.506299	-9.755835	0.693362	-0.004915	-0.003716	0.001323	-86.057956	2.955560	146.835320
39886		-0.499019	-9.775796	0.680863	-0.004905	-0.002070	0.000398	-86.056622	2.954705	146.835061
39887		-0.522594	-9.794670	0.697257	-0.004915	-0.003716	0.001323	-86.055194	2.954392	146.835575
39888		-0.499381	-9.788545	0.700674	-0.007357	-0.003105	0.000597	-86.055233	2.953610	146.835916
39889		-0.499402	-9.788592	0.700012	-0.006303	0.000460	0.000007	-86.054749	2.952716	146.834439
39890		-0.522528	-9.782105	0.674570	-0.005967	-0.007282	0.001914	-86.053867	2.952522	146.837223
39891		-0.530265	-9.774905	0.706749	-0.009131	0.000582	0.002001	-86.055052	2.952791	146.836536
39892		-0.515116	-9.789439	0.640167	-0.006970	-0.002617	-0.002123	-86.054890	2.950474	146.836491
39893		-0.506766	-9.768858	0.709346	-0.005927	-0.000698	-0.001788	-86.054179	2.948540	146.836196
39894		-0.522803	-9.807701	0.713347	-0.010841	-0.004416	-0.000464	-86.056178	2.947100	146.837245
39895		-0.498990	-9.776224	0.674718	-0.008388	-0.003380	-0.000663	-86.056793	2.945662	146.837868
39896		-0.522141	-9.782459	0.669719	-0.012229	-0.000240	-0.001779	-86.059713	2.943635	146.836476
39897		-0.521872	-9.782533	0.668855	-0.005550	-0.001856	-0.003583	-86.058734	2.940564	146.835528
39898		-0.505666	-9.756512	0.684238	-0.008378	-0.001735	-0.001588	-86.059403	2.938587	146.834999
39899		-0.521645	-9.782639	0.667480	-0.006331	-0.004482	0.002783	-86.058747	2.939163	146.837135
39900		-0.490969	-9.783736	0.637852	-0.008763	-0.002225	0.001133	-86.059617	2.938722	146.836994
39901		-0.506171	-9.769358	0.702863	-0.007710	0.001341	0.000544	-86.059984	2.938211	146.835859
39902		-0.475626	-9.783170	0.693999	-0.008763	-0.002226	0.001133	-86.060854	2.937770	146.835718
39903		-0.506470	-9.769453	0.701315	-0.006697	-0.001679	0.003654	-86.060592	2.938836	146.835793
39904		-0.499518	-9.789417	0.688298	-0.013008	-0.002869	0.004588	-86.063869	2.940345	146.836157
39905		-0.523276	-9.795607	0.683440	-0.004621	0.000513	0.005251	-86.062470	2.942532	146.836727
39906		-0.515227	-9.749636	0.711010	-0.007082	-0.002171	0.006375	-86.062368	2.945090	146.836762
39907		-0.501039	-9.789494	0.686091	-0.009147	-0.002717	0.003854	-86.063396	2.946263	146.836870
39908		-0.532142	-9.775761	0.693380	-0.007081	-0.002172	0.006375	-86.063294	2.948821	146.836905
39909		-0.502154	-9.802262	0.705550	-0.005277	-0.000917	0.002195	-86.062243	2.949169	146.837744
39910		-0.509672	-9.769653	0.696189	-0.007081	-0.002172	0.006376	-86.062141	2.951727	146.837779
39911		-0.533498	-9.775815	0.691575	-0.005662	-0.001409	0.004916	-86.061154	2.953680	146.838251
39912		-0.510560	-9.756953	0.674247	-0.004639	-0.002784	0.007101	-86.059633	2.956629	146.838665
39913		-0.504230	-9.802317	0.703302	-0.006705	-0.003329	0.004580	-86.059248	2.958159	146.838717
39914		-0.527870	-9.795762	0.677662	-0.009895	-0.000407	0.007448	-86.060808	2.961400	146.837785
39915		-0.512726	-9.769717	0.693053	-0.004668	-0.007727	0.009874	-86.059113	2.965879	146.841916
39916		-0.529380	-9.795775	0.676296	-0.009510	0.000084	0.004728	-86.060473	2.967585	146.840595
39917		-0.514206	-9.782475	0.712528	-0.004638	-0.002786	0.007102	-86.058983	2.970626	146.842078
39918		-0.538006	-9.788621	0.707986	-0.006694	-0.001682	0.003657	-86.058679	2.971649	146.841726
39919		-0.514714	-9.757046	0.669731	-0.005671	-0.003058	0.005841	-86.057668	2.973931	146.841560
39920		-0.531390	-9.795837	0.673810	-0.008101	-0.000800	0.004193	-86.058195	2.975296	146.840725
39921		-0.508508	-9.789727	0.677212	-0.004253	-0.002294	0.004381	-86.056535	2.976811	146.842463
39922		-0.530795	-9.742767	0.733828	-0.005925	-0.000697	-0.001784	-86.055830	2.974763	146.841333
39923		-0.501612	-9.809697	0.663889	-0.009548	-0.006509	0.008426	-86.057143	2.978367	146.845714
39924		-0.532644	-9.795939	0.671345	-0.003858	-0.000154	0.000737	-86.055266	2.977782	146.844372
39925		-0.524478	-9.762765	0.719785	-0.008110	-0.002449	0.005118	-86.055729	2.979641	146.844049
39926		-0.510277	-9.802613	0.694758	-0.009143	-0.002721	0.003858	-86.056797	2.980738	146.844300
39927		-0.533639	-9.796023	0.669313	-0.003878	-0.003450	0.002584	-86.054884	2.981193	146.846568
39928		-0.541207	-9.776135	0.680982	-0.005285	-0.002568	0.003121	-86.053747	2.981875	146.846702
39929		-0.518087	-9.770040	0.684452	-0.005954	-0.005642	0.000988	-86.052972	2.981372	146.850765
39930		-0.541451	-9.776198	0.679874	-0.006308	-0.001191	0.000938	-86.052467	2.980860	146.850025
39931		-0.541968	-9.788972	0.700076	-0.006711	-0.004982	0.005506	-86.052047	2.982899	146.852096
39932		-0.495469	-9.764023	0.686482	-0.009112	0.002223	0.001088	-86.053250	2.982609	146.849408
39933		-0.541983	-9.763563	0.656800	-0.008768	-0.003877	0.002062	-86.054023	2.982738	146.850362
39934		-0.511842	-9.790150	0.668526	-0.011581	-0.002112	0.003137	-86.056507	2.983448	146.850237
39935		-0.542989	-9.789173	0.696457	-0.009141	-0.002724	0.003860	-86.057525	2.984626	146.850265
39936		-0.527401	-9.763194	0.711782	-0.007054	0.001116	0.004534	-86.057509	2.986261	146.848347
39937		-0.536189	-9.796391	0.661853	-0.011217	-0.004916	0.002263	-86.059740	2.986353	146.849641
39938		-0.520226	-9.770433	0.677178	-0.005580	-0.006798	-0.000810	-86.058655	2.984621	146.852041
39939		-0.543871	-9.802121	0.714122	-0.008737	0.001068	-0.000707	-86.059593	2.983338	146.850184
39940		-0.520295	-9.770519	0.675891	-0.003896	-0.006751	0.004431	-86.057533	2.984604	146.852765
39941		-0.490169	-9.784308	0.667321	-0.005666	-0.003067	0.005844	-86.056623	2.986867	146.853718
39942		-0.521637	-9.783288	0.695776	-0.004642	-0.004445	0.008027	-86.055053	2.990280	146.855120
39943		-0.529748	-9.763377	0.707521	-0.003608	-0.004174	0.009287	-86.052847	2.994534	146.856786
39944		-0.523198	-9.783267	0.694889	-0.007071	-0.002185	0.006382	-86.052739	2.997095	146.856830
39945		-0.523613	-9.770497	0.673638	-0.002182	-0.001759	0.006904	-86.049848	3.000116	146.858291
39946		-0.525029	-9.796006	0.714902	-0.005406	-0.005439	0.013470	-86.048673	3.006601	146.860478
39947		-0.495033	-9.797031	0.685382	-0.006688	-0.001689	0.003662	-86.048348	3.007687	146.860174
39948		-0.526068	-9.770472	0.672085	-0.006419	-0.002412	0.010365	-86.047851	3.012516	146.860506
39949		-0.543332	-9.809217	0.676195	-0.005375	-0.000492	0.010702	-86.046803	3.017743	146.860942
39950		-0.512015	-9.744454	0.687143	-0.005002	-0.001646	0.008904	-86.045521	3.021768	146.860778
39951		-0.529418	-9.795975	0.712076	-0.006418	-0.002413	0.010365	-86.045002	3.026665	146.861267
39952		-0.514151	-9.757216	0.706712	-0.007813	0.000119	0.009981	-86.045382	3.031375	146.860135
39953		-0.530940	-9.783215	0.689738	-0.009509	-0.001574	0.005663	-86.046656	3.033614	146.859841
39954		-0.508349	-9.777160	0.692796	-0.009900	-0.003722	0.009307	-86.048116	3.037787	146.860882
39955		-0.509279	-9.777172	0.691939	-0.007812	0.000117	0.009982	-86.048450	3.042579	146.859802
39956		-0.556957	-9.789318	0.683272	-0.006436	-0.005717	0.012212	-86.047859	3.048333	146.862099
39957		-0.534534	-9.783238	0.686625	-0.007068	-0.002188	0.006385	-86.047681	3.051001	146.862196
39958		-0.535239	-9.783235	0.686116	-0.003594	-0.002532	0.008367	-86.045566	3.054683	146.862518
39959		-0.528654	-9.803121	0.673528	-0.005662	-0.003071	0.005847	-86.044595	3.057024	146.863847
39960		-0.543720	-9.763336	0.697408	-0.003212	-0.002035	0.005645	-86.042282	3.059170	146.863776
39961		-0.537073	-9.783229	0.684770	-0.007077	-0.003840	0.007309	-86.042115	3.062249	146.864891
39962		-0.537228	-9.770463	0.663334	-0.006304	-0.001192	0.000942	-86.041609	3.061741	146.864152
39963		-0.537319	-9.770507	0.662608	-0.008754	-0.002229	0.001144	-86.042477	3.061333	146.863823
39964		-0.537609	-9.770546	0.661797	-0.008100	-0.002460	0.005126	-86.042953	3.063166	146.863975
39965		-0.545680	-9.776278	0.714778	-0.007719	-0.001961	0.002405	-86.043214	3.063574	146.864585
39966		-0.538145	-9.770619	0.660289	-0.007709	-0.000310	0.001482	-86.043538	3.063409	146.863363
39967		-0.515301	-9.777394	0.684297	-0.008079	0.000841	0.003282	-86.044074	3.064379	146.861446
39968		-0.546070	-9.763606	0.691766	-0.006303	-0.001193	0.000943	-86.043568	3.063871	146.860708
39969		-0.515783	-9.790274	0.703769	-0.006293	0.000458	0.000021	-86.043108	3.062969	146.859337
39970		-0.569529	-9.769755	0.686406	-0.009113	0.000571	0.002022	-86.044263	3.063148	146.857631
39971		-0.562326	-9.789708	0.673211	-0.011520	0.006137	-0.001464	-86.046906	3.061628	146.852377
39972		-0.545996	-9.776661	0.709284	-0.005478	0.009712	-0.010032	-86.046283	3.055278	146.844962
39973		-0.591270	-9.788924	0.700436	-0.010615	0.013319	-0.019098	-86.048722	3.043975	146.835651
39974		-0.551635	-9.835615	0.699884	-0.007751	0.019807	-0.024784	-86.049736	3.029590	146.821875
39975		-0.540241	-9.777180	0.706528	-0.008771	0.021184	-0.026964	-86.051405	3.014100	146.808149
39976		-0.507276	-9.791178	0.697351	-0.009490	0.026781	-0.025204	-86.053618	2.999750	146.790366
39977		-0.512644	-9.784333	0.728951	-0.015107	0.030299	-0.023043	-86.059116	2.986891	146.771475
39978		-0.448057	-9.733608	0.730627	-0.018669	0.032704	-0.017440	-86.066741	2.977209	146.750611
39979		-0.424336	-9.740567	0.752873	-0.031102	0.031639	-0.001277	-86.081387	2.976774	146.730809
39980		-0.403317	-9.787528	0.692073	-0.038014	0.029118	0.020308	-86.099912	2.988519	146.713478
39981		-0.375882	-9.788562	0.659852	-0.027857	0.023968	0.046025	-86.112381	3.014835	146.700272
39982		-0.330937	-9.914598	0.552143	-0.004196	0.018583	0.081480	-86.111101	3.061133	146.691348
39983		-0.164394	-9.937285	0.599660	0.043445	0.018493	0.128964	-86.082397	3.134612	146.684096
39984		-0.128581	-10.792153	0.077975	0.071357	0.001484	0.280327	-86.036865	3.293906	146.692843
39985		0.731625	-10.530131	0.102445	0.287924	0.008429	0.521235	-85.866790	3.591213	146.707590
39986		1.593452	-9.805611	1.342416	0.264111	0.033998	0.903354	-85.710156	4.107837	146.724752
39987		-0.616709	-11.365553	0.335476	0.202093	0.067252	1.255307	-85.589011	4.826964	146.739593
39988		-0.866103	-11.129268	0.922474	0.257942	-0.041513	1.452221	-85.429045	5.653622	146.827357
39989		0.290606	-15.946987	-0.900698	0.111737	-0.264288	1.667364	-85.336335	6.592688	147.054785
39990		0.157445	-12.759366	0.016997	0.234393	-0.296135	2.035745	-85.164656	7.740053	147.321057
39991		-1.432363	-11.353446	0.229424	0.244129	-0.433328	2.324872	-84.966935	9.044660	147.684927
39992		0.741958	-10.789670	0.246637	-0.151765	-0.713335	2.470800	-84.958848	10.418009	148.222605
39993		1.510078	-16.258839	-0.295094	-0.436084	-0.925619	2.260712	-85.077834	11.660115	148.872488
39994		5.093679	-20.498158	-1.105816	0.052664	-0.993135	1.528790	-84.906237	12.482067	149.528837
39995		7.457324	-18.229695	-1.498645	0.689257	-0.857052	0.649419	-84.389462	12.804924	150.063318
39996		8.102509	-13.020257	-1.946117	1.048979	-0.734178	0.027373	-83.689270	12.775892	150.492482
39997		7.573030	-7.946406	-2.055294	0.927643	-0.661451	-0.271800	-83.073536	12.575960	150.858036
39998		7.110935	-5.665641	-2.023786	0.437466	-0.664127	-0.372459	-82.741536	12.316287	151.216199
39999		7.031115	-5.906794	-1.904397	-0.078232	-0.668094	-0.425489	-82.707614	12.024196	151.570990
40000		7.148832	-7.461527	-1.638410	-0.349886	-0.603764	-0.549011	-82.840561	11.667706	151.879670
40001		7.069249	-8.480935	-1.324966	-0.362624	-0.470942	-0.731337	-83.001136	11.216589	152.097993
40002		6.612320	-8.137694	-1.118423	-0.275797	-0.292402	-0.892768	-83.135055	10.687667	152.202972
40003		5.855014	-7.098416	-0.864801	-0.278541	-0.107143	-0.971436	-83.292121	10.125442	152.195770
40004		5.027507	-6.587649	-0.608840	-0.380658	0.064403	-0.961599	-83.523680	9.581433	152.092845
40005		4.405868	-6.724327	-0.427487	-0.470961	0.221623	-0.879943	-83.820004	9.091850	151.906242
40006		3.795836	-7.011033	-0.210896	-0.486540	0.393797	-0.739556	-84.136911	8.693175	151.632627
40007		3.162945	-6.976842	-0.135198	-0.441220	0.579989	-0.546772	-84.440712	8.411876	151.264284
40008		2.446090	-6.667428	-0.085442	-0.414673	0.770533	-0.300322	-84.741228	8.281223	150.802171
40009		1.720858	-6.600451	-0.035899	-0.436105	0.958302	-0.026660	-85.067613	8.312001	150.245643
40010		1.003362	-6.712752	0.010714	-0.476135	1.130611	0.230206	-85.430245	8.496122	149.602627
40011		0.280499	-6.602475	0.059458	-0.567253	1.285523	0.468944	-85.860517	8.817096	148.877883
40012		-0.698574	-7.093676	0.123974	-0.734020	1.420744	0.672644	-86.402192	9.255539	148.080365
40013		-1.889874	-7.776433	0.114539	-0.872671	1.526337	0.799732	-87.040573	9.760104	147.219197
40014		-3.007761	-8.560366	0.183100	-0.941129	1.599809	0.849675	-87.733840	10.287186	146.310421
40015		-4.074186	-9.205072	0.404808	-0.932918	1.642301	0.843341	-88.436898	10.798633	145.367807
40016		-5.093925	-9.776920	0.605515	-0.833506	1.657594	0.793810	-89.093867	11.272751	144.408963
40017		-6.026663	-10.155282	0.712183	-0.651330	1.640774	0.692425	-89.653450	11.676859	143.451804
40018		-6.806071	-10.108744	0.858184	-0.410621	1.596748	0.516628	-90.076264	11.973932	142.516397
40019		-7.492092	-9.769354	0.991598	-0.190369	1.531582	0.288849	-90.369237	12.133240	141.616146
40020		-8.088075	-9.437125	1.060753	0.001916	1.444519	0.047389	-90.542404	12.152696	140.767954
40021		-8.606581	-8.974510	1.072388	0.158887	1.337174	-0.181859	-90.611614	12.038165	139.983352
40022		-8.739974	-8.293614	1.074860	0.277609	1.211750	-0.366392	-90.594889	11.819822	139.274642
40023		-8.768685	-7.289426	1.167613	0.335518	1.069544	-0.493995	-90.524906	11.528386	138.649690
40024		-8.591617	-6.174161	1.373746	0.289298	0.923273	-0.535526	-90.461131	11.215897	138.111411
40025		-8.591594	-5.486993	1.665995	0.116658	0.760376	-0.483370	-90.475259	10.933192	137.667863
40026		-8.739452	-5.838379	1.651077	-0.044651	0.573080	-0.361894	-90.559387	10.721772	137.334081
40027		-8.877752	-6.563454	1.593305	-0.096391	0.375917	-0.236054	-90.650923	10.582273	137.114572
40028		-8.882992	-7.286560	1.399562	-0.021409	0.159584	-0.097848	-90.676201	10.524039	137.020835
40029		-8.902294	-7.742339	1.103009	0.120808	-0.046630	0.016409	-90.598055	10.531977	137.046206
40030		-8.556472	-7.361685	0.908167	0.255508	-0.251073	0.102119	-90.421036	10.590651	137.190607
40031		-8.031273	-6.281867	0.718095	0.277447	-0.448291	0.152246	-90.209926	10.677757	137.449862
40032		-7.757189	-5.658961	0.511663	0.158230	-0.641287	0.176818	-90.045800	10.778783	137.822191
40033		-7.429590	-5.249493	0.292950	-0.081336	-0.814160	0.193408	-89.999126	10.888447	138.295592
40034		-7.003773	-5.360429	0.098896	-0.335647	-0.979989	0.204437	-90.078963	11.004863	138.865999
40035		-6.332970	-5.867377	-0.107289	-0.486214	-1.102926	0.222934	-90.229976	11.133138	139.508145
40036		-5.502928	-6.524343	-0.245941	-0.498931	-1.185032	0.289828	-90.377483	11.301688	140.198029
40037		-4.624061	-7.003541	-0.419204	-0.427503	-1.209687	0.414737	-90.478750	11.543456	140.901963
40038		-3.891305	-7.486785	-0.519890	-0.297203	-1.184884	0.577941	-90.505026	11.879299	141.590950
40039		-3.391693	-7.772900	-0.565965	-0.144895	-1.124585	0.739408	-90.446773	12.307332	142.244987
40040		-3.191272	-7.731240	-0.500218	0.001507	-1.036595	0.854426	-90.310529	12.799691	142.848718
40041		-3.364735	-7.438086	-0.541909	0.061766	-0.947846	0.923446	-90.145663	13.330039	143.402764
40042		-4.092740	-7.092603	-0.476908	0.041909	-0.884553	0.936662	-89.995393	13.866232	143.922087
40043		-4.954362	-6.637844	-0.365661	-0.037964	-0.884101	0.980519	-89.885424	14.426657	144.443802
40044		-6.021312	-6.293247	-0.285421	-0.167848	-0.936310	1.072686	-89.836342	15.038864	144.998610
40045		-6.724861	-5.793072	-0.153323	-0.319992	-1.033327	1.242433	-89.852283	15.748382	145.613456
40046		-7.176398	-5.408916	-0.001039	-0.490766	-1.130874	1.469427	-89.941425	16.588045	146.288210
40047		-7.692665	-5.526230	0.231627	-0.651419	-1.218373	1.709511	-90.096482	17.567170	147.016968
40048		-8.249163	-6.230694	0.547042	-0.726848	-1.289295	1.910523	-90.268716	18.663078	147.789065
40049		-8.652828	-6.526627	0.900997	-0.644550	-1.336242	2.067408	-90.369057	19.851441	148.591956
40050		-8.687697	-6.058463	1.171956	-0.518159	-1.354445	2.220925	-90.375404	21.127864	149.410078
40051		-8.262792	-5.285165	1.077999	-0.524497	-1.296744	2.378711	-90.378380	22.495377	150.199661
40052		-7.444034	-5.453013	0.863825	-0.627626	-1.142120	2.508151	-90.458247	23.936088	150.898752
40053		18.786955	-96.115015	-16.162371	-7.718264	-1.978350	-2.361501	-94.365230	22.632037	152.192451
40054		15.851583	19.553382	5.134485	22.900325	7.139034	-8.595121	-82.777044	17.817808	147.713300
40055		-29.421149	-29.679241	-10.028396	-4.985243	-2.608221	-2.219575	-85.223787	16.396194	149.127709
40056		-25.569304	35.263340	19.642956	7.464212	3.071711	-5.366476	-81.504505	13.544783	146.949489
40057		19.446407	-49.694072	-30.933041	-7.949681	-4.473111	-3.640387	-85.549607	11.183526	149.313940
40058		-11.383274	-0.570822	28.985511	8.094812	1.079474	-4.605589	-81.067867	8.634468	148.377037
40059		10.685451	-31.038298	-9.308953	-5.158973	-2.780835	-2.634682	-83.831031	6.928375	149.769525
40060		-3.725232	1.118194	11.739172	3.171719	0.132851	-3.092603	-82.040749	5.178404	149.472934
40061		12.384361	-15.652126	1.036734	-3.338362	-0.669808	-1.692164	-83.927626	4.168747	149.734897
40062		-0.413649	-17.100206	-5.226833	-0.538110	-0.116557	-0.247857	-84.228185	4.019652	149.785309
40063		-0.154429	-8.952217	3.464215	0.447032	0.114038	-0.137542	-83.972976	3.947194	149.710610
40064		-0.370320	-8.751646	2.047543	-0.792829	0.021174	0.002540	-84.424002	3.948914	149.697167
40065		-0.978591	-9.983486	0.571641	-0.527501	0.090663	-0.034784	-84.725514	3.933169	149.641974
40066		-0.964446	-10.253124	0.331812	-0.478901	0.074495	-0.067277	-84.998994	3.897627	149.594424
40067		-1.078994	-10.756975	-0.210844	-0.324622	0.060672	-0.130408	-85.183359	3.825336	149.551843
40068		-0.841539	-10.371392	0.312156	-0.056767	0.056681	-0.163542	-85.214481	3.733700	149.510077
40069		-0.746966	-9.956785	0.729458	-0.047785	0.069074	-0.193071	-85.240683	3.625938	149.459893
40070		-0.531635	-9.780860	0.828726	-0.014621	0.085081	-0.179163	-85.248563	3.526698	149.401218
40071		-0.551008	-9.760266	0.870118	-0.002963	0.101259	-0.173031	-85.249950	3.431886	149.333621
40072		-0.556484	-9.628221	0.977250	-0.053899	0.105882	-0.167175	-85.280806	3.340454	149.263664
40073		-0.589619	-9.581162	1.058060	-0.088953	0.118708	-0.173892	-85.331766	3.245898	149.186140
40074		-0.588993	-9.682287	0.957212	-0.148190	0.110951	-0.172293	-85.416584	3.151645	149.113234
40075		-0.526197	-9.858823	0.719724	-0.139198	0.099101	-0.174512	-85.495386	3.055643	149.047142
40076		-0.415008	-9.732646	0.696944	-0.114779	0.071431	-0.150921	-85.559573	2.971638	148.998063
40077		-0.391056	-9.873574	0.486235	-0.071589	0.051243	-0.124005	-85.597906	2.902230	148.961788
40078		-0.357615	-9.544498	0.828036	-0.025602	0.026013	-0.096386	-85.609450	2.847320	148.941204
40079		-0.379006	-9.708015	0.782468	-0.035893	0.005971	-0.061712	-85.625846	2.811487	148.933601
40080		-0.395579	-9.774319	0.681169	-0.040638	-0.014282	-0.031170	-85.644712	2.792066	148.938944
40081		-0.388255	-9.747577	0.780854	-0.024652	-0.024047	-0.013643	-85.653706	2.782382	148.950614
40082		-0.421336	-9.786741	0.726497	-0.028331	-0.028833	-0.001515	-85.665056	2.779274	148.965575
40083		-0.405244	-9.760983	0.739939	-0.017925	-0.036701	0.019189	-85.669750	2.787801	148.985901
40084		-0.524422	-9.803991	0.744105	-0.013054	-0.049805	0.038312	-85.671672	2.806543	149.014584
40085		-0.457993	-9.772961	0.731455	-0.013070	-0.048142	0.037386	-85.673192	2.824970	149.042234
40086		-0.420422	-9.766726	0.790489	-0.012239	-0.047995	0.049869	-85.674654	2.850395	149.070381
40087		-0.456452	-9.739842	0.778268	-0.012715	-0.052001	0.065722	-85.675747	2.884843	149.101458
40088		-0.532277	-9.770489	0.788565	-0.021414	-0.052621	0.066158	-85.682265	2.919377	149.132955
40089		-0.525472	-9.797174	0.740624	-0.027425	-0.048303	0.061729	-85.691832	2.951707	149.161729
40090		-0.656906	-9.885364	0.716949	-0.005189	-0.033541	0.034065	-85.689657	2.968733	149.180921
40091		-0.545160	-9.757196	0.764461	0.004230	-0.023391	0.012252	-85.681904	2.973869	149.193305
40092		-0.543092	-9.842535	0.711393	-0.003570	-0.015299	0.009244	-85.679394	2.977497	149.200992
40093		-0.516714	-9.771009	0.755092	0.003720	-0.012137	0.008446	-85.672257	2.980942	149.206768
40094		-0.563706	-9.795785	0.769362	-0.015230	-0.005682	0.006135	-85.676720	2.983210	149.208819
40095		-0.544781	-9.842585	0.709401	-0.016462	0.004145	-0.000707	-85.681626	2.982127	149.204878
40096		-0.499947	-9.758348	0.787718	-0.015120	0.006613	-0.003142	-85.686412	2.979625	149.199494
40097		-0.493161	-9.778351	0.773459	-0.018919	0.004770	-0.001375	-85.692726	2.978187	149.195160
40098		-0.504328	-9.811206	0.723087	-0.012165	0.001847	0.006103	-85.695657	2.980760	149.192901
40099		-0.530446	-9.744756	0.793004	-0.009539	0.010152	-0.000635	-85.696734	2.979974	149.185513
40100		-0.491199	-9.700226	0.789232	-0.022589	0.001632	0.009836	-85.705623	2.984671	149.183538
40101		-0.505662	-9.824355	0.739218	-0.015554	0.000910	0.013644	-85.709799	2.991643	149.182040
40102		-0.590758	-9.789573	0.733556	-0.008052	0.004207	0.001601	-85.710454	2.991745	149.178237
40103		-0.536855	-9.797609	0.726582	0.001539	0.009724	-0.008904	-85.705135	2.986213	149.170723
40104		-0.518442	-9.784789	0.762900	0.000452	0.011138	-0.011073	-85.701151	2.979372	149.162410
40105		-0.541642	-9.777842	0.739394	0.004366	0.006250	-0.009104	-85.694089	2.973576	149.156869
40106		-0.570073	-9.776890	0.769888	0.000159	0.003496	-0.013112	-85.690050	2.965243	149.152839
40107		-0.509145	-9.791867	0.729985	0.000103	0.006861	-0.014978	-85.685438	2.956119	149.146687
40108		-0.533360	-9.725477	0.801060	0.001758	0.009850	-0.020147	-85.680684	2.944041	149.138717
40109		-0.570803	-9.770298	0.802775	-0.009478	0.007809	-0.027960	-85.681589	2.927541	149.131453
40110		-0.560667	-9.790432	0.789108	-0.011485	0.014124	-0.045403	-85.684597	2.901217	149.119947
40111		-0.510420	-9.753022	0.752340	-0.014680	0.014989	-0.050036	-85.688690	2.872414	149.107614
40112		-0.469205	-9.787083	0.728239	-0.023355	0.018138	-0.042962	-85.698597	2.847656	149.093922
40113		-0.511609	-9.812352	0.740542	-0.023033	0.024085	-0.039982	-85.707686	2.824983	149.076821
40114		-0.496759	-9.780058	0.786840	-0.027338	0.028038	-0.047712	-85.720151	2.797931	149.057272
40115		-0.473489	-9.814060	0.704972	-0.024899	0.029083	-0.047967	-85.730422	2.770902	149.036971
40116		-0.488042	-9.780911	0.781680	-0.022720	0.026249	-0.043627	-85.740165	2.746099	149.018631
40117		-0.478015	-9.788146	0.746058	-0.022625	0.021196	-0.040829	-85.748867	2.722806	149.003150
40118		-0.470270	-9.736046	0.805205	-0.024641	0.015602	-0.040503	-85.759402	2.699331	148.991041
40119		-0.447332	-9.782816	0.744311	-0.023102	0.011739	-0.030704	-85.768053	2.681418	148.981396
40120		-0.425867	-9.816523	0.663030	-0.018764	0.006100	-0.022042	-85.774922	2.668086	148.975511
40121		-0.463258	-9.723931	0.778679	-0.009229	0.001430	-0.015707	-85.775318	2.658304	148.972398
40122		-0.454295	-9.756877	0.785160	-0.023438	-0.006114	-0.015939	-85.784527	2.647944	148.973759
40123		-0.457423	-9.796521	0.701217	-0.011507	-0.008038	-0.010797	-85.785922	2.640567	148.976257
40124		-0.451997	-9.757200	0.782468	-0.010364	-0.012808	-0.006773	-85.787446	2.635162	148.981835
40125		-0.452332	-9.744350	0.760414	-0.019586	-0.021194	0.002831	-85.793077	2.635018	148.992427
40126		-0.445704	-9.764279	0.745660	-0.025865	-0.020757	0.002996	-85.803255	2.634863	149.002964
40127		-0.409216	-9.797930	0.720824	-0.029296	-0.020025	0.009598	-85.814436	2.638636	149.013162
40128		-0.442999	-9.862697	0.707630	-0.022651	-0.017875	0.014275	-85.822826	2.645050	149.022522
40129		-0.498453	-9.842113	0.691827	-0.013628	-0.016731	0.011116	-85.825107	2.649829	149.030896
40130		-0.460115	-9.797256	0.689081	-0.004590	-0.011833	0.014599	-85.823306	2.656682	149.036813
40131		-0.486975	-9.744160	0.780764	-0.001788	-0.013611	0.013462	-85.818890	2.662931	149.043503
40132		-0.452525	-9.751634	0.716616	-0.011170	-0.017352	0.011785	-85.820716	2.667945	149.052459
40133		-0.426225	-9.693316	0.780056	-0.016362	-0.018325	0.014118	-85.824493	2.674371	149.061865
40134		-0.447946	-9.784504	0.721404	-0.024981	-0.018568	0.023055	-85.834176	2.685776	149.071987
40135		-0.423448	-9.713231	0.763267	-0.021812	-0.017761	0.026760	-85.841030	2.699449	149.081585
40136		-0.412931	-9.752812	0.735475	-0.030019	-0.022537	0.035755	-85.853462	2.717950	149.094502
40137		-0.539939	-9.776139	0.751369	-0.019855	-0.020747	0.042328	-85.859044	2.740397	149.106441
40138		-0.497108	-9.751078	0.734751	-0.023477	-0.019101	0.031003	-85.867823	2.756328	149.117190
40139		-0.470055	-9.764851	0.722868	-0.023722	-0.023004	0.035597	-85.875537	2.774838	149.130130
40140		-0.490402	-9.790561	0.705214	-0.018684	-0.030992	0.040639	-85.881213	2.795790	149.148076
40141		-0.452499	-9.817637	0.627967	-0.002178	-0.033029	0.048889	-85.876255	2.821484	149.167295
40142		-0.436688	-9.739391	0.706561	0.021883	-0.047055	0.064696	-85.858167	2.855516	149.195432
40143		-0.498245	-9.868247	0.600573	0.030860	-0.054532	0.077419	-85.833602	2.896607	149.228162
40144		-0.568648	-9.872253	0.719875	0.056944	-0.039079	0.057414	-85.795635	2.926786	149.251463
40145		-0.523687	-9.781475	0.750944	0.035293	-0.039700	0.052463	-85.769019	2.954206	149.274712
40146		-0.509574	-9.827277	0.696448	0.047098	-0.033259	0.052932	-85.736851	2.982046	149.294526
40147		-0.582323	-9.719956	0.827947	0.037655	-0.033618	0.049425	-85.709047	3.007965	149.314196
40148		-0.581187	-9.713262	0.777248	0.026328	-0.030596	0.038848	-85.688873	3.027854	149.331908
40149		-0.540145	-9.792460	0.785425	0.010626	-0.032162	0.036451	-85.676561	3.046410	149.350190
40150		-0.533612	-9.733681	0.794230	0.010601	-0.030483	0.035524	-85.665396	3.064395	149.367703
40151		-0.510747	-9.812740	0.744435	0.005265	-0.023006	0.033214	-85.656396	3.081490	149.380605
40152		-0.514760	-9.799481	0.725114	0.019651	-0.023951	0.038053	-85.640230	3.101197	149.394499
40153		-0.554971	-9.765290	0.749815	0.023241	-0.027706	0.041818	-85.620761	3.122994	149.410477
40154		-0.540300	-9.811388	0.694051	0.033115	-0.031939	0.045401	-85.596603	3.146539	149.429279
40155		-0.544766	-9.764574	0.813230	0.037618	-0.026994	0.045733	-85.568917	3.170590	149.445047
40156		-0.559348	-9.822512	0.809199	0.030419	-0.026432	0.053212	-85.546441	3.198824	149.461067
40157		-0.560695	-9.743655	0.832112	0.023662	-0.016360	0.050537	-85.527028	3.226079	149.470977
40158		-0.619648	-9.722016	0.819817	0.003762	-0.015190	0.049870	-85.520181	3.252897	149.480434
40159		-0.645981	-9.799796	0.743414	0.006355	-0.013979	0.038339	-85.510737	3.273286	149.488434
40160		-0.626397	-9.734354	0.842109	0.013174	-0.010028	0.030801	-85.498708	3.289442	149.494088
40161		-0.617829	-9.688640	0.870835	-0.002429	-0.009674	0.016217	-85.494476	3.297388	149.498632
40162		-0.563192	-9.782280	0.809588	-0.015544	-0.011645	0.003229	-85.498918	3.297721	149.503972
40163		-0.540077	-9.776567	0.811518	-0.003995	-0.007446	0.007333	-85.495628	3.300691	149.506828
40164		-0.542082	-9.704342	0.884253	-0.025656	-0.002501	0.008110	-85.506151	3.304224	149.507155
40165		-0.554191	-9.796370	0.737975	-0.027906	-0.004890	0.017844	-85.516558	3.313310	149.509005
40166		-0.561881	-9.789526	0.769020	-0.019757	-0.007082	0.023799	-85.523509	3.325600	149.512655
40167		-0.575827	-9.822018	0.718651	-0.012316	-0.012385	0.027650	-85.524725	3.339952	149.519235
40168		-0.497022	-9.818427	0.660384	0.009287	-0.022595	0.040940	-85.514470	3.361338	149.532530
40169		-0.570302	-9.874063	0.716920	0.048668	-0.025733	0.056273	-85.480282	3.391436	149.548061
40170		-0.566528	-9.801895	0.709622	0.068100	-0.033120	0.065242	-85.435890	3.426211	149.568507
40171		-0.554456	-9.801248	0.773899	0.079814	-0.035751	0.073113	-85.383502	3.465443	149.590605
40172		-0.619465	-9.797589	0.843292	0.085296	-0.032641	0.067096	-85.329239	3.501262	149.610926
40173		-0.609244	-9.757963	0.846172	0.078341	-0.026479	0.069045	-85.277990	3.538562	149.627602
40174		-0.628061	-9.717059	0.878459	0.063570	-0.020940	0.064162	-85.236570	3.573225	149.641154
40175		-0.645851	-9.689184	0.929406	0.037315	-0.015795	0.061823	-85.209169	3.606887	149.651417
40176		-0.574894	-9.751327	0.833187	0.016819	-0.015592	0.066663	-85.194702	3.643221	149.662064
40177		-0.562195	-9.883259	0.724197	0.035718	-0.008343	0.069928	-85.168401	3.681859	149.668469
40178		-0.657956	-9.924822	0.705746	0.066425	-0.008828	0.083887	-85.125691	3.728344	149.676119
40179		-0.709511	-9.711000	0.875637	0.097350	-0.007304	0.074353	-85.064198	3.769550	149.682233
40180		-0.739878	-9.582619	1.048998	0.065289	-0.005947	0.060996	-85.022305	3.803097	149.687185
40181		-0.656144	-9.685156	0.929229	0.019345	-0.009349	0.052342	-85.005393	3.831628	149.693408
40182		-0.666563	-9.677535	0.963375	-0.003085	-0.005659	0.050067	-85.002718	3.858948	149.697671
40183		-0.793837	-9.735205	0.615210	-0.005013	-0.012767	0.040094	-84.999592	3.880314	149.705226
40184		-0.341749	-9.891628	1.139263	0.063803	0.010280	0.041801	-84.959235	3.903714	149.699967
40185		-0.865308	-9.894859	0.607917	-0.042813	-0.018362	0.068536	-84.977436	3.941022	149.712167
40186		-0.591656	-9.713948	0.882819	0.029785	0.002899	0.050504	-84.956254	3.969019	149.711574
40187		-0.873827	-9.871964	0.769119	0.072759	-0.001174	0.047970	-84.909090	3.995457	149.712949
40188		-0.870985	-9.745357	0.910458	0.064276	0.002253	0.012677	-84.868253	4.001835	149.710829
40189		-0.918023	-9.609931	1.057209	0.041463	-0.001658	-0.022742	-84.839297	3.987902	149.708887
40190		-0.771976	-9.529766	1.189412	-0.023376	0.000285	-0.044055	-84.848805	3.961807	149.704970
40191		-0.685108	-9.674625	0.979470	-0.068682	0.003488	-0.052526	-84.883059	3.931140	149.698508
40192		-0.591052	-9.719319	0.942607	-0.084307	0.005837	-0.048247	-84.927704	3.902931	149.691229
40193		-0.535687	-9.763757	0.790647	-0.098108	0.004574	-0.025561	-84.978694	3.887696	149.685537
40194		-0.650701	-9.890419	0.738202	-0.037578	0.000011	-0.008268	-84.996196	3.882004	149.683638
40195		-0.638550	-9.845125	0.763207	-0.020071	-0.002382	-0.007318	-85.002239	3.876830	149.682873
40196		-0.615479	-9.766863	0.839320	0.012559	-0.006339	0.013742	-84.990694	3.883383	149.685710
40197		-0.681252	-9.743357	0.913885	0.003493	-0.003984	0.015075	-84.983160	3.890911	149.686999
40198		-0.677215	-9.750394	0.881024	0.005588	-0.000094	0.015656	-84.975845	3.898868	149.686361
40199		-0.695771	-9.643239	1.033218	-0.020121	0.006254	0.007791	-84.982242	3.902751	149.681423
40200		-0.790279	-9.811072	0.871251	-0.052113	0.013134	0.000120	-85.008555	3.902502	149.672437
40201		-0.720030	-9.709419	0.927946	-0.038617	0.010268	-0.006617	-85.025688	3.898358	149.664465
40202		-0.761338	-9.655436	0.958031	-0.062363	-0.000723	-0.008360	-85.057362	3.892575	149.662986
40203		-0.672322	-9.541606	1.048129	-0.090938	-0.015502	-0.008592	-85.103409	3.886030	149.669650
40204		-0.388133	-9.911658	0.628764	-0.091472	-0.018374	0.028986	-85.150952	3.900706	149.680101
40205		-0.444593	-9.809583	0.859961	-0.047078	-0.023223	0.076782	-85.171288	3.942533	149.695330
40206		-0.566980	-9.975803	0.641056	-0.019240	-0.027517	0.117287	-85.176773	4.007190	149.715270
40207		-0.598325	-9.902062	0.660269	0.055689	-0.033261	0.139352	-85.137662	4.084246	149.739304
40208		-0.558657	-9.935700	0.701615	0.083930	-0.033537	0.163978	-85.083562	4.175242	149.765052
40209		-0.730730	-9.985753	0.627109	0.135622	-0.030628	0.188353	-84.998651	4.280349	149.790214
40210		-0.845556	-9.978825	0.592116	0.204869	-0.037224	0.197642	-84.874856	4.390293	149.820062
40211		-0.745901	-10.171910	0.605767	0.245557	-0.046679	0.220053	-84.726229	4.512556	149.856573
40212		-0.728385	-9.953124	0.738997	0.360821	-0.051864	0.263632	-84.511946	4.659189	149.898977
40213		-0.973268	-9.901292	0.837821	0.368922	-0.065162	0.283139	-84.291452	4.816139	149.950527
40214		-0.871869	-9.341714	1.376999	0.375856	-0.062837	0.258849	-84.067723	4.959080	150.000076
40215		-0.763095	-9.276647	1.467053	0.240955	-0.055283	0.248047	-83.920754	5.096255	150.044983
40216		-0.599908	-9.503635	1.372418	0.154131	-0.034390	0.265175	-83.825181	5.244273	150.079437
40217		-0.391377	-9.711095	1.453000	0.082638	0.016627	0.338164	-83.771576	5.437053	150.089224
40218		0.021418	-10.271596	1.087305	-0.008082	0.062983	0.501642	-83.772654	5.725749	150.083005
40219		-0.319757	-10.380394	0.858453	0.071869	0.105173	0.691044	-83.727879	6.124991	150.064359
40220		-0.855140	-10.318354	0.819906	0.122875	0.123097	0.825998	-83.655504	6.602197	150.044640
40221		-1.122219	-10.141728	0.819909	0.183748	0.125176	0.872225	-83.547042	7.105913	150.027254
40222		-1.475302	-9.683851	0.958968	0.258467	0.120559	0.863634	-83.396583	7.604449	150.013269
40223		-1.904002	-9.256504	1.273453	0.230970	0.104481	0.769852	-83.260567	8.048617	150.003332
40224		-1.915333	-9.286176	1.292755	0.174133	0.087078	0.675228	-83.157406	8.437752	149.997978
40225		-1.790140	-9.425258	1.194006	0.159012	0.067935	0.583331	-83.061158	8.773363	149.997794
40226		-1.908625	-9.255199	1.157085	0.174271	0.048464	0.495867	-82.956286	9.057819	150.003374
40227		-1.941376	-9.014778	1.472329	0.145988	0.022495	0.390447	-82.865337	9.280561	150.016735
40228		-1.913832	-9.158521	1.368987	0.083791	0.022607	0.284220	-82.812192	9.442834	150.022754
40229		-1.791858	-9.214908	1.483920	0.030888	0.020677	0.210169	-82.788812	9.562950	150.024464
40230		-1.575306	-9.593564	1.386035	-0.027312	0.027942	0.187941	-82.800963	9.670873	150.020519
40231		-1.468037	-9.899086	1.266294	-0.053808	0.045932	0.225110	-82.828193	9.801289	150.008699
40232		-1.563100	-10.114409	1.021294	-0.027416	0.051570	0.291924	-82.841480	9.970011	149.998585
40233		-1.621656	-10.054985	0.966419	0.032671	0.041521	0.353411	-82.817277	10.173040	149.998606
40234		-1.582812	-9.988596	1.093837	0.094760	0.041604	0.419158	-82.757920	10.413375	150.003679
40235		-1.747041	-9.691257	1.206276	0.111259	0.043840	0.464431	-82.687582	10.679669	150.010976
40236		-1.697278	-9.460876	1.457383	0.081631	0.042279	0.481468	-82.634800	10.955451	150.020850
40237		-1.820410	-9.600295	1.403167	0.065314	0.059890	0.499793	-82.591813	11.242997	150.022041
40238		-2.025931	-9.439447	1.343663	0.049134	0.059802	0.507188	-82.559090	11.534675	150.024142
40239		-2.119113	-9.547625	1.192045	0.026697	0.044885	0.502693	-82.536239	11.822749	150.034598
40240		-2.232403	-9.666616	1.005760	0.062856	0.024642	0.502555	-82.491405	12.109167	150.057088
40241		-2.119983	-9.675376	1.347148	0.065860	0.015930	0.491597	-82.442696	12.388760	150.083987
40242		-1.856098	-10.037865	1.248087	0.057543	0.025349	0.540571	-82.400022	12.696788	150.109531
40243		-2.154708	-9.954803	1.165300	0.087322	0.035785	0.587011	-82.339546	13.032021	150.132874
40244		-2.204285	-9.955807	1.306134	0.096508	0.033457	0.611693	-82.273898	13.381003	150.159993
40245		-2.007645	-10.151641	1.301857	0.096283	0.047990	0.679687	-82.207850	13.769740	150.184446
40246		-2.238993	-9.971454	1.333538	0.116052	0.047720	0.720281	-82.130326	14.181407	150.212910
40247		-2.432507	-9.633665	1.398310	0.117212	0.043012	0.725686	-82.050065	14.595778	150.245179
40248		-2.425445	-9.653955	1.392750	0.095462	0.049384	0.719118	-81.983898	15.006843	150.273806
40249		-2.464578	-9.263032	1.441085	0.121019	0.064101	0.721006	-81.904007	15.420164	150.294518
40250		-2.515135	-9.157406	1.497248	0.073839	0.078512	0.701715	-81.854542	15.823648	150.305665
40251		-2.657733	-8.829760	1.689501	0.067906	0.105386	0.670265	-81.812327	16.211503	150.298640
40252		-2.437305	-9.303216	1.870770	-0.024908	0.132293	0.658301	-81.829180	16.594738	150.274776
40253		-2.210643	-10.284864	1.744403	-0.077019	0.195591	0.719241	-81.883990	17.017669	150.218276
40254		-2.281390	-10.826889	1.430491	-0.050840	0.247649	0.843499	-81.931956	17.515227	150.140810
40255		-2.331620	-11.245446	1.162265	0.010203	0.265276	1.013133	-81.943050	18.110363	150.066675
40256		-2.611738	-11.195751	1.208674	0.097318	0.276606	1.188137	-81.904093	18.805736	150.000475
40257		-2.538070	-11.231442	1.209286	0.145446	0.266744	1.374908	-81.829764	19.606240	149.956698
40258		-2.546095	-11.054308	1.180959	0.213075	0.274107	1.561518	-81.714081	20.513301	149.925910
40259		-2.987480	-10.677085	1.247051	0.259094	0.273592	1.714152	-81.565860	21.506794	149.911144
40260		-3.198046	-10.346422	1.378782	0.284263	0.263278	1.827816	-81.397040	22.563965	149.915908
40261		-3.285912	-10.213603	1.371668	0.282811	0.258713	1.933460	-81.221862	23.680408	149.936964
40262		-3.131318	-10.087518	1.522482	0.290551	0.263030	2.030837	-81.038162	24.852441	149.968749
40263		-3.081751	-9.997906	1.638613	0.317188	0.292881	2.117628	-80.840264	26.075974	149.995190
40264		-2.676391	-9.903619	1.845200	0.339107	0.347207	2.187147	-80.639912	27.343936	149.999401
40265		-2.065331	-9.988912	2.116489	0.421120	0.468223	2.237845	-80.422974	28.651649	149.936955
40266		-1.828385	-10.607020	2.404390	0.569173	0.633438	2.308785	-80.169297	30.015882	149.780591
40267		-2.469177	-9.787491	2.532285	0.710584	0.822436	2.416434	-79.890873	31.459786	149.517982
40268		-3.372935	-8.606977	2.289090	0.706851	0.943345	2.560698	-79.653789	32.998781	149.195320
40269		-3.946235	-9.815809	2.195592	0.560918	0.981450	2.764529	-79.505573	34.656945	148.873154
40270		-3.487664	-9.927032	2.202946	0.488801	1.064850	2.979610	-79.428104	36.446078	148.517569
40271		-3.836049	-10.162295	1.640233	0.406468	1.121038	3.202876	-79.414601	38.366452	148.145783
40272		-2.851478	-10.275070	1.374179	0.438929	1.135919	3.433945	-79.388412	40.419277	147.784241
40273		-3.465566	-9.098650	1.202229	0.554381	1.179926	3.672918	-79.309237	42.610796	147.415269
40274		-3.006543	-8.563778	0.556129	0.442388	1.117417	3.939424	-79.253636	44.946794	147.123279
40275		-4.975289	-7.678320	0.597179	0.429344	1.042761	4.214802	-79.143288	47.429126	146.927763
40276		-2.760602	-8.257286	0.368417	0.452094	0.834462	4.213736	-78.892561	49.889470	146.911116
40277		0.024352	-5.192101	1.058187	0.774730	0.465484	3.646518	-78.258023	51.988312	147.150600
40278		-16.867752	-6.485180	0.813349	0.413443	0.002282	2.934067	-77.556554	53.631611	147.728482
40279		17.499281	2.713041	3.735643	-0.005263	-1.913446	1.542636	-75.812971	54.237498	149.883653
40280		-4.458174	-17.450733	1.999555	-1.486061	-1.969201	-0.005778	-75.155030	53.950744	151.741981
40281		5.284969	-12.816394	2.393582	0.201062	-2.536169	-1.792069	-73.532801	52.567446	153.615793
40282		6.104284	-8.544889	-0.008054	0.055889	-2.606577	-2.620468	-72.253508	50.692347	155.201106
40283		4.754488	-5.899045	-0.357251	0.470490	-2.578607	-2.979065	-70.964805	48.603656	156.531820
40284		4.180689	-2.591171	-0.827029	0.391303	-2.345647	-2.924080	-69.964872	46.574680	157.576638
40285		3.635731	-2.247044	-1.419399	0.176946	-2.053362	-2.844830	-69.314603	44.634368	158.339145
40286		3.338414	-2.713626	-1.689083	-0.154570	-1.696829	-2.794656	-69.075457	42.791689	158.807298
40287		3.426440	-3.701080	-1.729331	-0.477397	-1.293821	-2.847461	-69.248153	41.000503	158.954315
40288		3.321616	-5.079717	-1.701331	-0.722946	-0.856114	-2.954687	-69.771845	39.242451	158.778051
40289		2.984352	-6.194722	-1.578934	-0.881931	-0.401187	-3.061703	-70.579005	37.511534	158.290444
40290		2.357331	-7.107950	-1.115708	-1.031438	0.011075	-3.189859	-71.612140	35.783905	157.542877
40291		1.423114	-7.929262	-0.760682	-1.147540	0.366562	-3.311346	-72.817468	34.038603	156.587514
40292		0.451045	-8.263993	-0.357558	-1.241699	0.657524	-3.363189	-74.120358	32.297771	155.499127
40293		-0.687818	-8.800728	0.064058	-1.308347	0.901775	-3.296091	-75.482984	30.607542	154.329602
40294		-1.886159	-9.871587	0.489251	-1.264559	1.111830	-3.106461	-76.803219	29.031246	153.123582
40295		-3.094003	-10.797619	0.960232	-1.057996	1.285750	-2.834047	-77.993650	27.603638	151.900191
40296		-4.333414	-11.397721	1.244611	-0.802378	1.421818	-2.525573	-79.003269	26.347232	150.678950
40297		-5.278922	-11.892499	1.401283	-0.567188	1.537450	-2.190003	-79.864561	25.271149	149.457577
40298		-6.036772	-12.224274	1.291607	-0.405182	1.654873	-1.882102	-80.610044	24.368293	148.224877
40299		-6.859988	-12.664163	1.186223	-0.315797	1.772843	-1.605002	-81.308095	23.615220	146.965203
40300		-8.031425	-13.174084	1.161159	-0.247766	1.853889	-1.368136	-81.948423	22.993425	145.695040
40301		-9.465408	-13.443778	1.267542	-0.216349	1.908387	-1.180869	-82.570887	22.465391	144.418372
40302		-10.850577	-13.645206	1.467565	-0.190269	1.929312	-1.078977	-83.155990	21.988361	143.148876
40303		-12.061633	-14.276143	1.577912	-0.100402	1.890102	-1.069781	-83.676678	21.498531	141.912155
40304		-13.317765	-15.260593	1.709265	0.085619	1.760709	-1.103118	-84.040146	20.977081	140.761902
40305		-14.424485	-16.036430	1.795739	0.384203	1.536946	-1.135351	-84.181232	20.415296	139.751681
40306		-15.069271	-15.640622	1.687355	0.693225	1.205170	-1.163615	-84.057066	19.821889	138.945837
40307		-15.488585	-13.813642	1.485934	0.892583	0.796650	-1.227239	-83.736490	19.166548	138.382924
40308		-15.768755	-11.292004	1.355120	0.843310	0.311570	-1.323308	-83.339088	18.432319	138.103822
40309		-15.403601	-9.276840	1.186398	0.493236	-0.226325	-1.383184	-83.047246	17.626044	138.138583
40310		-14.596420	-8.257002	0.903937	0.013938	-0.741543	-1.389612	-82.935076	16.783033	138.476747
40311		-13.328356	-7.898632	0.486727	-0.425460	-1.189819	-1.368427	-83.009002	15.918342	139.080220
40312		-12.006361	-8.042737	0.257300	-0.701680	-1.539994	-1.324255	-83.189831	15.058143	139.893021
40313		-10.867323	-8.397566	0.228319	-0.795103	-1.798932	-1.255285	-83.399691	14.221054	140.862727
40314		-9.810144	-8.209140	0.412093	-0.769382	-1.964177	-1.147589	-83.579824	13.439216	141.935914
40315		-8.654525	-7.408889	0.638398	-0.762623	-2.033045	-1.025860	-83.762260	12.724720	143.056617
40316		-7.724057	-6.755824	0.922963	-0.869607	-2.008637	-0.889476	-84.016829	12.094513	144.171235
40317		-6.873063	-6.924743	1.178902	-1.030767	-1.908505	-0.742879	-84.387601	11.559158	145.237512
40318		-5.813585	-7.684481	1.274271	-1.091429	-1.749189	-0.601701	-84.815505	11.120673	146.220547
40319		-4.736648	-8.585999	1.442927	-0.981889	-1.537662	-0.466777	-85.211155	10.776559	147.089564
40320		-3.732564	-9.466395	1.536211	-0.710532	-1.269680	-0.321823	-85.480788	10.532761	147.810638
40321		-2.948525	-10.059239	1.479949	-0.338572	-0.964727	-0.181269	-85.572258	10.385170	148.361493
40322		-2.315523	-9.936764	1.292958	0.060377	-0.637621	-0.076123	-85.467889	10.312162	148.726777
40323		-1.904655	-9.284678	0.922426	0.369258	-0.313247	-0.001924	-85.221040	10.295618	148.907169
40324		-1.751969	-8.413289	0.740436	0.527090	-0.015863	0.038024	-84.913163	10.315563	148.916779
40325		-1.640675	-7.741121	0.627537	0.519068	0.250971	0.071848	-84.638348	10.368797	148.773671
40326		-1.595029	-7.423165	0.538025	0.417672	0.478566	0.094210	-84.444348	10.447649	148.499863
40327		-1.772606	-7.543653	0.612209	0.322050	0.648703	0.099155	-84.324531	10.539717	148.127975
40328		-2.170637	-8.049691	0.769325	0.263113	0.762136	0.113345	-84.249952	10.646845	147.691003
40329		-2.465496	-8.360894	0.872564	0.248635	0.819929	0.154911	-84.191506	10.781631	147.223055
40330		-2.448845	-8.167116	0.959956	0.249094	0.834151	0.214211	-84.133788	10.951382	146.750114
40331		-2.346976	-7.799814	1.129938	0.240400	0.805249	0.289743	-84.079597	11.163093	146.298498
40332		-2.279256	-7.723076	1.350129	0.176452	0.755710	0.374469	-84.056202	11.420297	145.880417
40333		-2.497734	-7.935878	1.474535	0.090722	0.674179	0.478750	-84.073975	11.732313	145.515772
40334		-2.703312	-8.188646	1.627350	0.018600	0.572809	0.557298	-84.121391	12.082724	145.214172
40335		-2.844638	-8.353455	1.750120	-0.054288	0.467330	0.595493	-84.199188	12.448691	144.975634
40336		-3.069541	-8.717202	1.739150	-0.117587	0.357523	0.580937	-84.300916	12.799434	144.799419
40337		-3.118926	-8.963505	1.678463	-0.160916	0.249400	0.531513	-84.414625	13.115923	144.682701
40338		-3.173907	-9.131182	1.520278	-0.173801	0.159442	0.446529	-84.526000	13.378415	144.613090
40339		-3.134575	-9.152087	1.381178	-0.161566	0.057506	0.354015	-84.616990	13.582914	144.597544
40340		-3.094516	-9.066856	1.252574	-0.133766	-0.020046	0.268120	-84.683575	13.733828	144.622528
40341		-3.067509	-8.939227	1.094276	-0.110551	-0.097998	0.216922	-84.725202	13.851916	144.690349
40342		-2.872617	-8.595557	0.809530	-0.108385	-0.158691	0.186999	-84.758674	13.949305	144.792212
40343		-2.772844	-8.143663	0.602661	-0.139592	-0.197406	0.179219	-84.802985	14.040829	144.916367
40344		-2.862505	-7.736628	0.363897	-0.193806	-0.229800	0.177625	-84.875043	14.129372	145.059478
40345		-3.083697	-7.291382	0.266862	-0.277341	-0.249612	0.206726	-84.990213	14.234301	145.215675
40346		-3.433057	-6.975298	0.210726	-0.372565	-0.276586	0.273656	-85.156203	14.375926	145.390989
40347		-3.544775	-6.582641	0.295249	-0.461208	-0.312347	0.396326	-85.364719	14.587071	145.593074
40348		-3.798977	-6.287569	0.466914	-0.560343	-0.343281	0.557501	-85.623821	14.889067	145.820253
40349		-4.160868	-6.572403	0.632751	-0.666696	-0.379752	0.717342	-85.934419	15.282658	146.074860
40350		-4.399981	-6.915596	0.745919	-0.692906	-0.413525	0.850411	-86.252827	15.751629	146.353122
40351		-4.726258	-6.989339	0.837777	-0.653513	-0.448246	0.930733	-86.539197	16.267521	146.653231
40352		-5.190472	-6.807130	0.839630	-0.581940	-0.496961	0.981760	-86.774745	16.811448	146.982461
40353		-5.964711	-6.401635	0.792162	-0.492506	-0.545183	1.042170	-86.945713	17.390517	147.341627
40354		-6.536098	-5.915811	0.749829	-0.412362	-0.609370	1.199927	-87.055350	18.057788	147.743920
40355		-7.137376	-5.615865	0.697852	-0.335394	-0.675662	1.530456	-87.097827	18.913948	148.197425
40356		-7.403112	-4.407941	0.438576	-0.247712	-0.723213	1.944652	-87.069863	20.004605	148.694916
40357		-6.872129	-2.921111	0.079508	-0.300557	-0.698171	2.419640	-87.058783	21.369075	149.196641
40358		-6.316103	-2.519986	-0.358830	-0.543991	-0.570243	2.917908	-87.199609	23.021427	149.637936
40359		1.496908	-64.698784	11.486871	-5.246957	-1.350496	0.051208	-89.871584	23.031626	150.478076
40360		22.607292	-30.646871	-24.947856	15.463172	2.789448	-7.801795	-81.735006	18.693313	148.423179
40361		-38.809371	15.097250	20.730799	-4.119837	-0.811742	-2.619066	-84.006632	17.145935	148.710841
40362		-5.645046	4.162545	-7.109173	5.918261	1.025533	-4.900229	-80.880468	14.439379	147.720472
40363		4.643883	-23.007930	-1.578665	-4.981725	-3.024801	-4.042573	-83.402192	11.908622	149.156693
40364		-3.639498	-13.595328	18.848548	3.096983	0.039882	-4.516310	-81.690818	9.344977	148.790612
40365		9.721562	-33.040095	-11.484593	-2.348099	-1.684793	-2.555479	-82.912309	7.764872	149.557344
40366		-4.652965	-0.480115	9.949647	1.878183	-0.442946	-2.337439	-81.823015	6.402888	149.630045
40367		7.990968	-13.665268	2.263755	-1.420606	-0.776823	-2.152040	-82.601751	5.120839	149.903188
40368		0.618199	-9.283354	3.813486	-1.844383	0.153222	-1.089221	-83.668113	4.510810	149.739349
40369		0.602458	-18.091186	-6.762061	0.251129	0.102290	-0.250201	-83.521336	4.374422	149.662401
40370		-0.261259	-7.545328	4.027249	-0.184778	-0.052871	-0.017378	-83.620950	4.360196	149.689970
40371		-1.012289	-9.000878	2.012652	-0.437950	0.065846	0.021581	-83.867840	4.376122	149.651644
40372		-0.933231	-9.932799	0.779815	-0.415464	0.063874	0.005236	-84.104604	4.381989	149.613960
40373		-1.127631	-10.056540	0.694545	-0.482824	0.032575	-0.032370	-84.375831	4.364931	149.591373
40374		-1.036161	-10.224069	0.433336	-0.346853	0.035612	-0.088168	-84.572429	4.315652	149.564639
40375		-0.933830	-10.249937	0.531863	-0.197763	0.043039	-0.123600	-84.681443	4.246998	149.531358
40376		-0.688775	-9.949334	0.755153	-0.143227	0.047892	-0.124955	-84.761955	4.177262	149.495873
40377		-0.676012	-9.721515	0.943490	-0.126143	0.054722	-0.115575	-84.830538	4.113712	149.456590
40378		-0.521445	-9.816575	0.724223	-0.116881	0.048604	-0.083838	-84.895746	4.067390	149.422990
40379		-0.689338	-9.710165	0.931242	-0.084125	0.056885	-0.072145	-84.940191	4.028651	149.384835
40380		-0.701366	-9.638727	0.939198	-0.109489	0.047883	-0.071441	-85.001036	3.989305	149.352362
40381		-0.705855	-9.698566	0.919989	-0.121351	0.046554	-0.074604	-85.066354	3.948578	149.320076
40382		-0.635468	-9.709779	0.813120	-0.124307	0.032117	-0.070781	-85.135018	3.908764	149.296750
40383		-0.699328	-9.812153	0.739408	-0.101938	0.030089	-0.069493	-85.188537	3.870090	149.274232
40384		-0.710216	-9.838531	0.715073	-0.071278	0.020996	-0.070783	-85.226353	3.829700	149.257346
40385		-0.674104	-9.769110	0.753445	-0.045228	0.012102	-0.075204	-85.246791	3.786887	149.244926
40386		-0.642916	-9.706084	0.847355	-0.042313	0.001765	-0.071699	-85.267264	3.745048	149.239038
40387		-0.606148	-9.792769	0.758758	-0.032487	-0.000865	-0.069087	-85.279933	3.705110	149.234365
40388		-0.612168	-9.812057	0.687144	-0.007640	-0.008529	-0.064399	-85.280130	3.666952	149.234730
40389		-0.611699	-9.604296	0.966754	0.024848	-0.017571	-0.060513	-85.259406	3.631121	149.240040
40390		-0.594285	-9.572682	1.016155	-0.021816	-0.024818	-0.048574	-85.267091	3.601228	149.250463
40391		-0.606909	-9.670157	0.921948	-0.056068	-0.026255	-0.040780	-85.292289	3.576254	149.261659
40392		-0.607793	-9.807262	0.800078	-0.058065	-0.023090	-0.036553	-85.320777	3.553314	149.271680
40393		-0.685866	-9.811321	0.853414	-0.049744	-0.017987	-0.037087	-85.342650	3.530843	149.278340
40394		-0.617089	-9.775727	0.869343	-0.062109	-0.007972	-0.044023	-85.374015	3.504348	149.279385
40395		-0.547024	-9.895980	0.756050	-0.040692	-0.009794	-0.035497	-85.390994	3.483171	149.281450
40396		-0.615238	-9.828529	0.798632	-0.032851	0.004985	-0.038857	-85.406030	3.460223	149.275338
40397		-0.635324	-9.834555	0.792661	-0.030994	0.004919	-0.033646	-85.418009	3.440779	149.269093
40398		-0.537825	-9.812805	0.800460	-0.037875	0.007671	-0.029785	-85.435985	3.423131	149.261870
40399		-0.590834	-9.764853	0.742779	-0.033855	0.006407	-0.021188	-85.449653	3.410868	149.255361
40400		-0.638518	-9.938767	0.659711	0.004405	0.012071	-0.034464	-85.443563	3.390745	149.245414
40401		-0.624378	-9.822642	0.764736	0.019244	0.017296	-0.037968	-85.427307	3.369400	149.231928
40402		-0.597826	-9.745905	0.844288	0.014441	0.013461	-0.036475	-85.415511	3.348197	149.221085
40403		-0.576679	-9.720696	0.861411	0.014958	0.017972	-0.043808	-85.401767	3.323556	149.206940
40404		-0.647983	-9.802483	0.812112	0.005450	0.021072	-0.049125	-85.395399	3.295482	149.191153
40405		-0.567007	-9.792316	0.788400	0.022839	0.020555	-0.049196	-85.377235	3.267892	149.175272
40406		-0.509901	-9.729544	0.858643	0.028496	0.020668	-0.044851	-85.357624	3.242249	149.159900
40407		-0.489844	-9.632892	0.951290	0.009642	0.020084	-0.031994	-85.346969	3.224470	149.145075
40408		-0.528238	-9.664115	0.931854	-0.024573	0.016820	-0.023287	-85.357575	3.210967	149.132901
40409		-0.554744	-9.734946	0.884454	-0.032791	0.017057	-0.017000	-85.371039	3.201604	149.120492
40410		-0.541399	-9.761574	0.834005	-0.048099	0.021448	-0.016316	-85.395249	3.192289	149.106000
40411		-0.553586	-9.767299	0.739308	-0.041167	0.009925	-0.004268	-85.413249	3.189862	149.098263
40412		-0.599741	-9.792145	0.750654	-0.027591	0.009261	-0.003470	-85.425285	3.187317	149.091337
40413		-0.564154	-9.754943	0.800042	-0.028268	0.004458	-0.004667	-85.435783	3.184412	149.086725
40414		-0.457314	-9.829765	0.687723	-0.014702	-0.003271	0.011091	-85.439999	3.189611	149.087633
40415		-0.594290	-9.825373	0.753537	0.019267	-0.011000	0.021943	-85.422760	3.201196	149.093094
40416		-0.619468	-9.830734	0.753121	0.029166	-0.011568	0.012334	-85.401572	3.206724	149.098807
40417		-0.615099	-9.778921	0.818605	0.035361	-0.008630	0.010269	-85.375271	3.211751	149.102397
40418		-0.575035	-9.747605	0.840488	0.028783	-0.015820	0.008401	-85.354176	3.214831	149.110365
40419		-0.599650	-9.681777	0.915267	0.019854	-0.011616	-0.002403	-85.336710	3.212483	149.115080
40420		-0.569493	-9.695801	0.905854	-0.006583	-0.007185	-0.001868	-85.336182	3.210097	149.117631
40421		-0.557314	-9.722105	0.858252	-0.018771	-0.007411	-0.003245	-85.340954	3.207464	149.119892
40422		-0.574341	-9.747659	0.840332	-0.025346	-0.005808	-0.001208	-85.351219	3.205519	149.121687
40423		-0.546066	-9.677472	0.882386	-0.027988	-0.010835	0.003664	-85.361150	3.206673	149.126230
40424		-0.534075	-9.717164	0.852917	-0.045907	-0.013170	0.010150	-85.382930	3.210876	149.132762
40425		-0.562677	-9.801128	0.824442	-0.043803	-0.010969	0.011691	-85.401888	3.216609	149.137749
40426		-0.564219	-9.788176	0.799389	-0.050856	-0.008516	0.007024	-85.426660	3.219244	149.141473
40427		-0.583027	-9.800482	0.758988	-0.033738	-0.011263	0.010607	-85.439867	3.224350	149.146580
40428		-0.672395	-9.771812	0.807024	-0.027035	-0.003795	0.001210	-85.451157	3.223881	149.147337
40429		-0.619092	-9.709485	0.872197	-0.032522	-0.005344	-0.013468	-85.463953	3.215512	149.147971
40430		-0.569660	-9.769645	0.798904	-0.041928	-0.007361	-0.016006	-85.483706	3.205049	149.149989
40431		-0.550140	-9.815710	0.735609	-0.035283	-0.003580	-0.012286	-85.498138	3.197437	149.149672
40432		-0.525507	-9.810381	0.735168	-0.032087	-0.002823	-0.008594	-85.512379	3.191413	149.149432
40433		-0.570582	-9.848542	0.767880	-0.018167	0.002471	-0.004796	-85.517233	3.188349	149.146006
40434		-0.554361	-9.796722	0.741244	-0.015654	-0.001568	-0.002311	-85.522082	3.185970	149.145331
40435		-0.553440	-9.810175	0.760357	-0.011175	0.003416	-0.001975	-85.522993	3.184561	149.141502
40436		-0.542869	-9.751984	0.767870	-0.009438	-0.000315	-0.003461	-85.524323	3.181582	149.140058
40437		-0.559189	-9.790710	0.771407	-0.010789	-0.001132	-0.001950	-85.524901	3.179983	149.138839
40438		-0.595377	-9.757118	0.793715	-0.008950	-0.001187	0.003249	-85.525907	3.180798	149.138195
40439		-0.501300	-9.734650	0.804095	-0.012428	-0.002512	0.002301	-85.527393	3.181568	149.137961
40440		-0.548131	-9.816837	0.721936	-0.006757	-0.004086	0.007552	-85.527040	3.184710	149.139169
40441		-0.572595	-9.764909	0.815009	0.005448	-0.005543	0.009833	-85.518199	3.189645	149.141014
40442		-0.550643	-9.745866	0.797531	-0.004245	-0.008125	0.010035	-85.516272	3.194025	149.144644
40443		-0.545469	-9.765477	0.784173	-0.002469	-0.004775	0.013393	-85.511990	3.201028	149.146212
40444		-0.604572	-9.764117	0.845086	-0.005470	0.000138	0.004200	-85.511043	3.202445	149.144853
40445		-0.569478	-9.784482	0.800621	-0.010012	-0.001440	0.002022	-85.511224	3.203103	149.144005
40446		-0.559433	-9.726268	0.808243	-0.009300	0.001656	0.004150	-85.512521	3.204559	149.141775
40447		-0.576176	-9.765003	0.811349	-0.018834	0.006453	-0.002072	-85.518029	3.203234	149.136229
40448		-0.563556	-9.804451	0.783295	-0.019184	0.009294	-0.001172	-85.525246	3.201991	149.129391
40449		-0.624553	-9.749864	0.760611	-0.026523	0.011189	-0.003091	-85.535328	3.200294	149.121094
40450		-0.573023	-9.546168	0.977012	-0.035571	0.006324	-0.006526	-85.551852	3.195859	149.115718
40451		-0.512078	-9.645532	0.875200	-0.083911	-0.011728	-0.002749	-85.594055	3.193341	149.120541
40452		-0.462452	-9.917684	0.570344	-0.077602	-0.012248	0.016831	-85.634010	3.201428	149.126821
40453		-0.565642	-9.792870	0.738584	-0.030386	-0.006950	0.021004	-85.645683	3.212689	149.129962
40454		-0.543631	-9.800797	0.758640	-0.035781	-0.010242	0.027048	-85.661714	3.226705	149.135533
40455		-0.456638	-9.913474	0.649057	-0.025527	-0.003181	0.039331	-85.670706	3.248601	149.137314
40456		-0.615771	-9.894181	0.636927	0.008624	0.001859	0.049443	-85.661630	3.275937	149.136929
40457		-0.567893	-9.831611	0.707330	0.032240	-0.000747	0.050016	-85.637654	3.304041	149.137809
40458		-0.533949	-9.645615	0.861099	0.044190	-0.004502	0.055954	-85.607971	3.334819	149.141369
40459		-0.633638	-9.667299	0.852094	0.005388	-0.011424	0.054945	-85.599013	3.365267	149.148601
40460		-0.660168	-9.827161	0.719304	0.016919	-0.012258	0.041974	-85.584726	3.387715	149.156000
40461		-0.648286	-9.518995	1.039372	0.004733	-0.021271	0.036691	-85.575861	3.407301	149.168075
40462		-0.639501	-9.602143	0.894379	-0.054170	-0.020466	0.022950	-85.602070	3.418520	149.179333
40463		-0.587609	-9.681723	0.805741	-0.061148	-0.021413	0.020144	-85.630903	3.428656	149.190732
40464		-0.516917	-9.776443	0.793373	-0.069103	-0.022717	0.035927	-85.665553	3.447202	149.203832
40465		-0.373457	-10.031875	0.468090	-0.042045	-0.022798	0.067614	-85.683260	3.484407	149.218069
40466		-0.523404	-9.936799	0.623499	0.047113	-0.017525	0.102657	-85.651312	3.541307	149.231087
40467		-0.667575	-9.856573	0.540590	0.086611	-0.030666	0.111958	-85.594998	3.603477	149.251837
40468		-0.835680	-9.657178	0.862564	0.132129	-0.047856	0.094513	-85.513229	3.654351	149.281967
40469		-0.717112	-9.546967	1.086083	0.068967	-0.047934	0.075924	-85.466497	3.695122	149.311134
40470		-0.520689	-9.791269	0.689561	0.022973	-0.054636	0.093830	-85.446967	3.745247	149.345204
40471		-0.458975	-10.110857	0.484040	0.112433	-0.054883	0.131667	-85.374807	3.817490	149.380962
40472		-0.404172	-10.164229	0.434016	0.222946	-0.061821	0.185389	-85.240036	3.919473	149.423582
40473		-0.640285	-9.750031	0.880244	0.291100	-0.047415	0.218863	-85.065550	4.041681	149.459677
40474		-0.670225	-9.757820	0.784753	0.278954	-0.062899	0.230742	-84.898263	4.169253	149.505785
40475		-0.844034	-9.797923	0.906921	0.328599	-0.069398	0.237431	-84.701097	4.300684	149.556198
40476		-0.916870	-9.933684	0.764865	0.333059	-0.079880	0.231211	-84.501796	4.427300	149.612909
40477		-1.182689	-9.599436	1.016898	0.404113	-0.083036	0.201207	-84.260676	4.536947	149.670076
40478		-0.934722	-9.504268	1.216273	0.305773	-0.119258	0.166715	-84.075220	4.624076	149.746514
40479		-0.452257	-9.866491	1.058490	0.238622	-0.104589	0.205764	-83.927583	4.734664	149.817011
40480		-0.663171	-9.928514	1.104110	0.235849	-0.089837	0.258092	-83.782787	4.875235	149.882754
40481		-0.649357	-10.227605	1.114946	0.295823	-0.089566	0.281760	-83.602317	5.029644	149.950091
40482		-0.366512	-9.653489	1.311397	0.232021	-0.048049	0.413354	-83.460490	5.260932	150.002840
40483		-0.120178	-9.966729	1.302106	0.162344	0.008537	0.523538	-83.359634	5.559040	150.030868
40484		-0.918311	-9.825850	1.214639	0.153721	0.066604	0.613150	-83.267251	5.911472	150.032376
40485		-0.811081	-9.619947	1.401170	0.090813	0.085498	0.643244	-83.210724	6.282760	150.025415
40486		-1.373462	-9.697235	0.818839	0.062078	0.085988	0.656108	-83.171662	6.660945	150.019521
40487		-1.872598	-9.452976	1.086399	0.158771	0.036549	0.537893	-83.073767	6.968962	150.034091
40488		-1.456688	-9.738164	0.950859	0.160685	0.006271	0.467939	-82.974119	7.234599	150.061793
40489		-1.273044	-9.446189	1.452053	0.205550	0.010452	0.433739	-82.848259	7.481532	150.085091
40490		-0.967314	-9.577967	1.441372	0.100721	0.034385	0.454918	-82.784851	7.741680	150.096729
40491		-1.283104	-9.674400	1.329728	0.086697	0.062189	0.490079	-82.730192	8.024295	150.095134
40492		-1.318926	-9.531967	1.501160	0.049504	0.079310	0.486769	-82.699281	8.305788	150.083799
40493		-1.275154	-9.650006	1.258339	-0.014190	0.096967	0.514389	-82.705011	8.604743	150.064285
40494		-1.663296	-9.690768	1.220803	-0.014694	0.102574	0.526048	-82.712593	8.910253	150.042474
40495		-1.579099	-9.876322	1.104602	-0.032206	0.090825	0.541069	-82.728023	9.223918	150.028342
40496		-1.769178	-9.775181	1.097518	0.034852	0.096628	0.551187	-82.706607	9.543281	150.011723
40497		-1.801290	-9.684252	1.261319	0.026065	0.074014	0.542069	-82.687225	9.856303	150.007486
40498		-1.885708	-9.564734	1.214008	0.054358	0.070729	0.513967	-82.652653	10.152634	150.003287
40499		-2.072242	-9.290951	1.311773	0.047334	0.049012	0.465905	-82.619524	10.420557	150.008147
40500		-1.779957	-9.545349	1.228351	0.012642	0.032713	0.431112	-82.605953	10.667013	150.020005
40501		-1.874405	-9.533861	1.258236	0.040280	0.035700	0.434196	-82.575784	10.915943	150.030412
40502		-1.975223	-9.479948	1.313095	0.026903	0.032873	0.422220	-82.554045	11.157349	150.041734
40503		-1.914223	-9.722868	1.284389	0.011053	0.034220	0.423874	-82.540477	11.400301	150.052436
40504		-1.786323	-9.913766	1.232775	0.008743	0.053446	0.471250	-82.530657	11.671087	150.055700
40505		-1.961112	-9.893977	1.232486	0.027691	0.062852	0.538415	-82.509070	11.981226	150.058662
40506		-2.029180	-9.844302	1.312668	0.032378	0.063792	0.585606	-82.485057	12.317744	150.064860
40507		-1.932001	-10.028929	1.350315	0.028749	0.075715	0.645800	-82.462629	12.689835	150.068868
40508		-1.871437	-10.024224	1.298993	0.033937	0.089047	0.709606	-82.438725	13.098680	150.070223
40509		-2.481627	-9.705408	1.100705	0.089518	0.086072	0.720424	-82.381389	13.513902	150.074439
40510		-2.606700	-9.513916	1.091672	0.109111	0.046598	0.674723	-82.308980	13.899696	150.098644
40511		-2.573060	-9.627969	1.400328	0.107820	0.025865	0.620463	-82.234304	14.253533	150.131227
40512		-2.202095	-10.007645	1.443146	0.085506	0.027458	0.616771	-82.173223	14.604883	150.163061
40513		-2.010971	-10.576623	1.531650	0.070702	0.061127	0.694972	-82.122909	15.003688	150.181878
40514		-1.833464	-11.130913	1.544950	0.080146	0.113270	0.857803	-82.072349	15.498530	150.183710
40515		-1.537677	-11.800510	1.536633	0.073178	0.169829	1.109553	-82.028228	16.141097	150.173367
40516		-1.333040	-12.437183	1.462500	0.110272	0.236681	1.428247	-81.967396	16.969436	150.150529
40517		-1.504895	-12.834516	1.184958	0.197162	0.285995	1.772862	-81.856036	17.997504	150.128709
40518		-1.766417	-12.717191	1.314729	0.319168	0.323633	2.092797	-81.673476	19.209894	150.114687
40519		-1.886268	-12.656942	1.387850	0.409222	0.352038	2.385671	-81.434355	20.590759	150.114426
40520		-1.869969	-12.717419	1.599689	0.482466	0.377819	2.658869	-81.147821	22.128513	150.130699
40521		-2.032942	-12.333352	1.725536	0.564898	0.411058	2.917965	-80.807644	23.815618	150.161183
40522		-1.565738	-11.768469	1.715523	0.584601	0.438962	3.126608	-80.449164	25.623215	150.207432
40523		-0.914735	-12.104955	1.957160	0.696462	0.512958	3.238221	-80.033888	27.500304	150.233484
