// General information: 
//  MT Manager version: 2022.2.0 
//  XDA version: 2022.2.0 build 7381 rev 124627 built on 2023-07-19
// Device information: 
//  DeviceId: 00B4BAF3
//  ProductCode: MTW2-3A7G6
//  Firmware Version: 4.6.0
//  Hardware Version: 2.0.0
// Device settings: 
//  Filter Profile: human(46.1)
//  Option Flags: Orientation Smoother Disabled, Position/Velocity Smoother Disabled, Continuous Zero Rotation Update Disabled, AHS Disabled, ICC Disabled
// Coordinate system: ENU
PacketCounter	SampleTimeFine	Acc_X	Acc_Y	Acc_Z	Gyr_X	Gyr_Y	Gyr_Z	Roll	Pitch	Yaw
39282		9.672805	-1.093545	-0.143956	0.005036	-0.001844	-0.022165	-96.600826	-84.269904	127.941866
39283		9.696089	-1.018229	-0.152447	0.022985	-0.002554	-0.022018	-96.643102	-84.281587	127.997712
39284		9.694145	-0.983252	-0.086987	0.024913	-0.003558	-0.026168	-96.693207	-84.295236	128.063190
39285		9.702301	-0.960090	-0.097054	0.020874	-0.000369	-0.023607	-96.725731	-84.307961	128.108017
39286		9.717593	-0.905552	-0.095356	0.017524	-0.001887	-0.019988	-96.767008	-84.318161	128.160473
39287		9.686787	-0.917562	-0.089442	0.007513	-0.001233	-0.021343	-96.810946	-84.329534	128.209075
39288		9.672521	-0.898951	-0.125673	-0.001876	-0.002119	-0.019681	-96.863988	-84.339595	128.261167
39289		9.679996	-0.945344	-0.101369	-0.007984	0.001679	-0.019682	-96.899288	-84.350215	128.292164
39290		9.688813	-0.933602	-0.133144	-0.008019	0.003263	-0.018703	-96.925497	-84.360070	128.315265
39291		9.665913	-0.924849	-0.137328	-0.010406	-0.002123	-0.022472	-96.986325	-84.372009	128.370519
39292		9.712299	-0.936256	-0.129111	-0.004020	0.001652	-0.020290	-97.021090	-84.382641	128.404697
39293		9.727701	-0.961851	-0.114812	0.002055	-0.000561	-0.019311	-97.063877	-84.392884	128.448994
39294		9.704779	-0.953362	-0.118907	0.012031	0.000375	-0.016977	-97.093635	-84.401633	128.486175
39295		9.733646	-0.905062	-0.059236	0.009098	0.000093	-0.015091	-97.125799	-84.409517	128.523852
39296		9.687562	-0.890386	-0.067554	0.006789	-0.001725	-0.010186	-97.166503	-84.414178	128.569342
39297		9.696293	-0.879300	-0.099577	-0.001327	-0.000497	-0.014710	-97.207988	-84.421799	128.610382
39298		9.712387	-0.916584	-0.107134	0.000267	0.000835	-0.008450	-97.236675	-84.425678	128.640647
39299		9.712467	-0.915723	-0.107238	-0.007603	-0.002294	-0.009200	-97.288312	-84.430032	128.688274
39300		9.730058	-0.975040	-0.158856	-0.006532	-0.004181	-0.008898	-97.351030	-84.433821	128.749697
39301		9.705054	-1.014718	-0.085111	-0.002220	0.000203	-0.009279	-97.385229	-84.438395	128.782902
39302		9.691413	-1.008130	-0.143277	0.004962	-0.005477	-0.008978	-97.448551	-84.442136	128.850705
39303		9.689971	-0.985551	-0.100155	0.004550	-0.006712	-0.007242	-97.517830	-84.445029	128.923052
39304		9.697894	-0.963995	-0.110893	0.006032	-0.007365	-0.008676	-97.591125	-84.448376	129.000408
39305		9.697998	-0.962882	-0.111493	0.005850	-0.006181	-0.014412	-97.662349	-84.455364	129.075456
39306		9.713797	-0.920125	-0.132307	0.004994	-0.007065	-0.009960	-97.735792	-84.459451	129.152518
39307		9.683703	-0.944009	-0.148584	-0.001744	-0.001738	-0.012977	-97.784517	-84.465951	129.200589
39308		9.698327	-0.959362	-0.113180	-0.007847	-0.011464	-0.012366	-97.892875	-84.471083	129.304905
39309		9.721550	-0.964816	-0.109905	-0.004609	-0.005192	-0.013050	-97.963860	-84.477338	129.373691
39310		9.714587	-0.995295	-0.122219	-0.001052	-0.006446	-0.011920	-98.039224	-84.482553	129.449144
39311		9.690826	-0.976601	-0.105052	-0.003606	-0.003908	-0.010788	-98.100502	-84.487612	129.508753
39312		9.715173	-0.923946	-0.157699	-0.004611	-0.005194	-0.013051	-98.172302	-84.493534	129.579371
39313		9.714546	-0.911610	-0.136254	-0.006312	-0.001774	-0.016373	-98.227563	-84.501921	129.631377
39314		9.706094	-0.920127	-0.104622	-0.004646	-0.003610	-0.012072	-98.288938	-84.507444	129.690758
39315		9.730828	-0.947524	-0.144328	-0.009755	0.001465	-0.009806	-98.321685	-84.512367	129.718163
39316		9.707061	-0.928808	-0.126668	-0.009278	-0.000473	-0.013504	-98.368494	-84.518950	129.759976
39317		9.669973	-0.984182	-0.154235	0.000072	0.002014	-0.014191	-98.396322	-84.526401	129.788095
39318		9.699507	-0.946946	-0.116526	-0.001752	-0.001742	-0.012982	-98.446299	-84.532550	129.837661
39319		9.678019	-0.960988	-0.164549	0.001364	-0.002642	-0.009134	-98.496680	-84.536738	129.889179
39320		9.684385	-0.917452	-0.131067	0.005707	0.000163	-0.010496	-98.528810	-84.541677	129.924884
39321		9.716173	-0.913140	-0.159030	0.000359	-0.003929	-0.011398	-98.589588	-84.547030	129.986267
39322		9.722527	-0.869570	-0.125682	0.005297	-0.001072	-0.008760	-98.628028	-84.550828	130.028105
39323		9.716339	-0.911339	-0.159199	-0.002265	0.001779	-0.008303	-98.653780	-84.554911	130.052792
39324		9.723957	-0.958695	-0.134767	-0.003270	0.000492	-0.010567	-98.689613	-84.559884	130.087208
39325		9.708714	-0.930361	-0.149001	0.003815	-0.000421	-0.007326	-98.724168	-84.563220	130.124236
39326		9.708787	-0.929619	-0.148868	0.004188	0.002399	-0.008081	-98.742185	-84.566939	130.144974
39327		9.715879	-0.897197	-0.136879	0.005227	0.002100	-0.006799	-98.760507	-84.570194	130.166509
39328		9.717496	-0.918276	-0.180253	0.001667	0.003349	-0.007929	-98.774090	-84.573933	130.181213
39329		9.748480	-0.903402	-0.186040	-0.002675	0.000543	-0.006567	-98.806062	-84.576919	130.211912
39330		9.702060	-0.958525	-0.159504	0.000557	0.006820	-0.007250	-98.798991	-84.580567	130.205159
39331		9.702166	-0.957543	-0.158969	0.009005	0.003265	-0.013144	-98.814159	-84.587515	130.225700
39332		9.672161	-0.981376	-0.174629	0.002178	-0.000179	-0.012611	-98.853088	-84.593586	130.266241
39333		9.687055	-0.927738	-0.172979	0.005703	0.000160	-0.010499	-98.886388	-84.598760	130.303094
39334		9.678600	-0.936564	-0.140905	0.006110	0.001392	-0.012237	-98.913439	-84.604757	130.333925
39335		9.693498	-0.882699	-0.139250	0.005140	-0.001484	-0.015483	-98.961770	-84.612601	130.385551
39336		9.701991	-0.940475	-0.136892	0.000765	-0.002704	-0.013139	-99.017687	-84.618742	130.442592
39337		9.670592	-0.873552	-0.143662	0.005701	0.000158	-0.010501	-99.051332	-84.623906	130.479788
39338		9.702997	-0.949086	-0.158943	0.003285	-0.003655	-0.013292	-99.111525	-84.630031	130.541937
39339		9.709280	-0.905489	-0.125469	0.007744	0.001149	-0.006954	-99.134757	-84.633274	130.569851
39340		9.725513	-0.943018	-0.133088	0.007849	-0.003612	-0.009897	-99.189330	-84.637472	130.629568
39341		9.685352	-0.955429	-0.073498	0.011339	-0.001685	-0.006805	-99.227528	-84.640367	130.674581
39342		9.702531	-0.934792	-0.137519	0.020788	-0.003952	-0.010438	-99.277250	-84.644823	130.736604
39343		9.757572	-0.868155	-0.195740	0.009222	0.000495	-0.008392	-99.305185	-84.648811	130.770091
39344		9.741472	-0.829050	-0.188039	0.002735	0.001457	-0.007632	-99.329897	-84.652190	130.796524
39345		9.733801	-0.848964	-0.177586	0.001025	0.004870	-0.010956	-99.338721	-84.658032	130.806099
39346		9.624931	-0.921319	-0.116993	0.000989	0.006457	-0.009976	-99.336856	-84.663204	130.805252
39347		9.689083	-0.993741	-0.159177	0.016413	0.006759	-0.009688	-99.324178	-84.668504	130.802085
39348		9.658314	-1.006914	-0.152572	0.013998	0.002943	-0.012478	-99.338567	-84.674762	130.824935
39349		9.701619	-0.906152	-0.090950	0.011846	0.006710	-0.013085	-99.332190	-84.681978	130.825469
39350		9.714734	-0.899372	-0.010401	0.002239	0.008559	-0.016176	-99.322787	-84.690858	130.817479
39351		9.717403	-0.861446	-0.109818	-0.017078	0.005090	-0.017819	-99.347590	-84.700600	130.832683
39352		9.726859	-0.929635	-0.128794	-0.027056	0.004115	-0.020155	-99.386190	-84.711302	130.856163
39353		9.742456	-0.955070	-0.114389	-0.031026	0.004122	-0.019551	-99.426843	-84.721931	130.879259
39354		9.683343	-1.014483	-0.167710	-0.023574	0.006040	-0.017066	-99.448765	-84.731051	130.887996
39355		9.675811	-1.033484	-0.157334	-0.018091	0.003789	-0.020091	-99.484813	-84.741952	130.913910
39356		9.693105	-1.080593	-0.186692	-0.002555	-0.000657	-0.022742	-99.541638	-84.753660	130.969472
39357		9.661676	-1.012585	-0.193540	0.007938	-0.003211	-0.025089	-99.611433	-84.766712	131.044249
39358		9.691966	-0.984950	-0.177648	0.016199	0.001176	-0.026079	-99.650409	-84.780461	131.092945
39359		9.689745	-0.949556	-0.112016	0.019196	-0.001717	-0.029936	-99.710289	-84.796382	131.164240
39360		9.678990	-0.923839	-0.014653	0.019230	-0.003310	-0.030920	-99.781169	-84.812427	131.246800
39361		9.663829	-0.893316	-0.029243	0.009286	-0.005887	-0.034240	-99.878262	-84.830354	131.349756
39362		9.678651	-0.837567	-0.028182	-0.004097	-0.005217	-0.030984	-99.975402	-84.846220	131.445035
39363		9.684900	-0.791946	0.004696	-0.027457	-0.005539	-0.030064	-100.088091	-84.861792	131.542506
39364		9.712401	-0.780615	-0.135850	-0.054878	-0.009466	-0.037232	-100.249465	-84.880713	131.673204
39365		9.715198	-0.809798	-0.202669	-0.072281	-0.007229	-0.032397	-100.402731	-84.897382	131.785624
39366		9.710136	-0.790886	-0.293671	-0.070894	-0.004724	-0.031883	-100.539006	-84.913732	131.881799
39367		9.719936	-0.857693	-0.314008	-0.051944	-0.004033	-0.029480	-100.658516	-84.929047	131.972023
39368		9.682586	-0.900776	-0.320344	-0.024284	0.000726	-0.030774	-100.733528	-84.945304	132.033467
39369		9.711910	-0.862166	-0.282809	0.007076	-0.004071	-0.020650	-100.809804	-84.955621	132.114233
39370		9.723909	-0.775129	-0.215619	0.037910	-0.001762	-0.019069	-100.851635	-84.965024	132.178292
39371		9.729076	-0.720329	-0.159866	0.049500	0.000599	-0.010454	-100.861713	-84.970096	132.217003
39372		9.728295	-0.708453	-0.137776	0.045602	-0.002587	-0.011820	-100.895643	-84.975332	132.277355
39373		9.765935	-0.661332	-0.131653	0.022476	0.004635	-0.008710	-100.893336	-84.979858	132.288089
39374		9.759229	-0.692388	-0.142771	0.001557	0.006513	-0.005976	-100.887210	-84.982790	132.283027
39375		9.744906	-0.744350	-0.143726	-0.007022	0.008034	-0.007788	-100.878879	-84.987164	132.270747
39376		9.717077	-0.859843	-0.168217	-0.011389	0.006802	-0.005441	-100.877700	-84.989837	132.263292
39377		9.703636	-0.922792	-0.190922	-0.007101	0.011210	-0.005822	-100.846563	-84.993448	132.228072
39378		9.743351	-0.966518	-0.193473	0.004273	0.007968	-0.013617	-100.838871	-85.000843	132.222964
39379		9.711789	-0.969148	-0.164556	0.016223	0.013161	-0.005755	-100.781614	-85.004623	132.174941
39380		9.710997	-0.957577	-0.141613	0.023916	0.005576	-0.009161	-100.772516	-85.009253	132.179729
39381		9.694648	-0.918550	-0.133215	0.026399	0.006223	-0.008331	-100.757214	-85.013738	132.179673
39382		9.701479	-0.885850	-0.120787	0.025433	0.003332	-0.011585	-100.764687	-85.019491	132.201987
39383		9.707094	-0.773003	-0.121376	0.013612	0.000151	-0.011731	-100.800145	-85.025239	132.245530
39384		9.684882	-0.776455	-0.147283	0.006722	-0.000140	-0.009232	-100.837987	-85.029293	132.287567
39385		9.692580	-0.754461	-0.157511	-0.004261	-0.002450	-0.013842	-100.903341	-85.035941	132.350839
39386		9.715849	-0.759727	-0.153532	-0.004739	-0.000501	-0.010136	-100.951459	-85.040462	132.396674
39387		9.715905	-0.759004	-0.153549	-0.008140	0.001157	-0.004537	-100.984201	-85.042260	132.424979
39388		9.754709	-0.792132	-0.135407	-0.011946	-0.005201	-0.007861	-101.064120	-85.044982	132.498459
39389		9.723586	-0.736990	-0.164312	-0.009980	-0.001013	-0.002341	-101.109267	-85.045301	132.538158
39390		9.715100	-0.746844	-0.132695	-0.009294	-0.004122	-0.000298	-101.171085	-85.043884	132.594989
39391		9.716871	-0.768620	-0.176758	-0.009335	-0.002533	0.000685	-101.221821	-85.042327	132.640669
39392		9.700747	-0.799823	-0.135008	-0.010210	-0.001815	0.006132	-101.260925	-85.037552	132.674256
39393		9.693097	-0.821249	-0.125065	-0.007328	0.000065	0.005223	-101.287756	-85.033730	132.697097
39394		9.710408	-0.870748	-0.154747	-0.020193	-0.002830	0.003789	-101.342008	-85.030151	132.740102
39395		9.703675	-0.902589	-0.166943	-0.021844	-0.002610	-0.001507	-101.403083	-85.029804	132.788966
39396		9.718349	-0.919172	-0.131287	-0.006205	-0.003405	0.004541	-101.451897	-85.025732	132.834511
39397		9.710723	-0.940270	-0.121273	-0.003609	0.002817	-0.000150	-101.465686	-85.025234	132.846399
39398		9.719228	-0.930133	-0.152970	0.001840	0.002171	-0.002194	-101.482650	-85.025574	132.864603
39399		9.682256	-0.917925	-0.214975	0.004007	-0.001586	-0.001590	-101.522361	-85.025380	132.906891
39400		9.735349	-0.898909	-0.195138	0.005091	-0.003465	-0.001287	-101.572687	-85.024554	132.960541
39401		9.735362	-0.898776	-0.195082	0.017271	0.002540	-0.001896	-101.578592	-85.025003	132.976524
39402		9.681424	-0.906500	-0.193106	0.017389	-0.002228	-0.004847	-101.618625	-85.026318	133.026943
39403		9.719845	-0.870809	-0.209132	0.022359	-0.000928	-0.003186	-101.645703	-85.027089	133.067105
39404		9.694916	-0.842310	-0.169669	0.023481	-0.004398	-0.003867	-101.694905	-85.027596	133.130114
39405		9.708368	-0.778480	-0.146340	0.020914	-0.001872	-0.002733	-101.728313	-85.027998	133.175799
39406		9.693690	-0.761794	-0.182456	0.015904	-0.001585	-0.003413	-101.763186	-85.028576	133.220170
39407		9.732476	-0.795327	-0.164029	0.007932	0.000002	-0.001215	-101.789920	-85.028341	133.251689
39408		9.702582	-0.820637	-0.179835	0.008975	-0.000288	0.000070	-101.815641	-85.027114	133.282767
39409		9.671312	-0.893193	-0.117243	0.012214	0.004410	-0.001600	-101.812015	-85.027610	133.286274
39410		9.718593	-0.916660	-0.130788	0.004125	-0.006359	-0.004538	-101.885855	-85.028239	133.362848
39411		9.735565	-0.896542	-0.195234	0.003250	-0.005637	0.000910	-101.948698	-85.026139	133.427920
39412		9.740113	-0.773767	-0.175056	0.001243	-0.008239	-0.003627	-102.035110	-85.026023	133.515589
39413		9.717827	-0.777923	-0.201498	-0.006013	-0.001012	-0.002946	-102.078715	-85.026623	133.556023
39414		9.717851	-0.777591	-0.201612	-0.013547	0.000215	-0.003471	-102.118901	-85.027421	133.588653
39415		9.733475	-0.804530	-0.187239	-0.022205	0.004910	-0.003317	-102.134188	-85.028938	133.591348
39416		9.720105	-0.867578	-0.210462	-0.016720	0.002671	-0.006347	-102.164470	-85.031658	133.612323
39417		9.734861	-0.883476	-0.174288	-0.003132	0.000867	-0.003858	-102.195645	-85.032988	133.641936
39418		9.719299	-0.855841	-0.188375	-0.005697	0.003395	-0.002722	-102.210042	-85.033746	133.653447
39419		9.695254	-0.838239	-0.170511	0.001878	0.000580	-0.003179	-102.239273	-85.034660	133.683991
39420		9.695270	-0.838061	-0.170458	0.003966	0.000002	-0.000607	-102.266909	-85.033834	133.714148
39421		9.709986	-0.854380	-0.134378	0.001481	-0.000649	-0.001438	-102.301855	-85.033620	133.750200
39422		9.718465	-0.844392	-0.166286	-0.004006	0.001588	0.001591	-102.320773	-85.031745	133.767075
39423		9.733642	-0.802699	-0.186410	-0.002525	0.000938	0.000152	-102.345534	-85.030833	133.790599
39424		9.694398	-0.827050	-0.148235	-0.001771	0.004987	-0.002347	-102.346767	-85.031585	133.790938
39425		9.695290	-0.837983	-0.169689	0.000964	0.002890	0.003252	-102.352591	-85.029176	133.797461
39426		9.695287	-0.838031	-0.169612	-0.001004	-0.001300	-0.002269	-102.393769	-85.029118	133.838408
39427		9.711350	-0.807280	-0.211646	0.000567	0.001660	0.004993	-102.405238	-85.025583	133.850368
39428		9.702833	-0.817714	-0.179616	0.000607	0.000071	0.004010	-102.427812	-85.022173	133.873635
39429		9.701028	-0.796255	-0.135965	0.002088	-0.000578	0.002572	-102.456173	-85.019715	133.903426
39430		9.680486	-0.822752	-0.205684	0.004613	-0.001517	0.002420	-102.488685	-85.016999	133.938755
39431		9.711238	-0.808581	-0.211823	-0.000794	-0.002459	0.003482	-102.529397	-85.013796	133.979287
39432		9.694744	-0.770554	-0.204335	-0.002525	0.000939	0.000152	-102.553418	-85.012654	134.001962
39433		9.710318	-0.798048	-0.190143	0.008181	-0.002745	0.003553	-102.590641	-85.009372	134.044154
39434		9.702681	-0.819386	-0.180223	0.002734	-0.002097	0.005599	-102.623247	-85.004794	134.078456
39435		9.708857	-0.846295	-0.112267	0.005616	-0.000217	0.004688	-102.644042	-85.001190	134.102682
39436		9.671793	-0.835011	-0.174605	0.006989	-0.006434	0.008776	-102.697302	-84.994295	134.160324
39437		9.717678	-0.779829	-0.201300	-0.002464	-0.004198	0.012412	-102.736869	-84.985868	134.198747
39438		9.716694	-0.770140	-0.179861	-0.004989	-0.003259	0.012564	-102.771257	-84.977252	134.230894
39439		9.732165	-0.798719	-0.165990	-0.012922	-0.003261	0.013779	-102.808644	-84.968177	134.261115
39440		9.678957	-0.818901	-0.186353	-0.022983	-0.001095	0.013405	-102.837921	-84.959383	134.277394
39441		9.696171	-0.869086	-0.216399	-0.026794	-0.007456	0.010078	-102.914896	-84.951834	134.339378
39442		9.709882	-0.875791	-0.159230	-0.014368	-0.004208	0.014230	-102.957657	-84.942184	134.374459
39443		9.678107	-0.880472	-0.132165	-0.011329	-0.008686	0.009387	-103.034138	-84.934852	134.444845
39444		9.694097	-0.850584	-0.175072	-0.010325	-0.007388	0.011655	-103.097553	-84.926184	134.502299
39445		9.700736	-0.819938	-0.164274	-0.015696	-0.009920	0.011733	-103.180410	-84.917367	134.576575
39446		9.715854	-0.779337	-0.185545	-0.026158	-0.008985	0.013099	-103.260750	-84.907700	134.642648
39447		9.708988	-0.812162	-0.198120	-0.035465	-0.002769	0.010229	-103.311926	-84.900646	134.673748
39448		9.709753	-0.823911	-0.220658	-0.036873	-0.005303	0.009696	-103.379776	-84.893356	134.720731
39449		9.711666	-0.915698	-0.230925	-0.037277	-0.006541	0.011431	-103.453441	-84.885124	134.773368
39450		9.694590	-0.936950	-0.168026	-0.022241	-0.007413	0.013464	-103.520093	-84.875420	134.827588
39451		9.655501	-1.031613	-0.096784	-0.000876	-0.009635	0.008007	-103.596823	-84.868668	134.904244
39452		9.723509	-0.902586	-0.132197	0.003131	-0.011221	0.006415	-103.682641	-84.862355	134.992281
39453		9.741444	-0.766629	-0.309147	-0.021482	-0.003359	0.010972	-103.727484	-84.854787	135.025070
39454		9.753559	-0.751538	-0.207933	-0.033638	-0.000611	0.008030	-103.766128	-84.849004	135.044744
39455		9.695246	-0.824288	-0.283616	-0.043347	0.004372	0.006902	-103.781775	-84.844752	135.035640
39456		9.697977	-0.926571	-0.315137	-0.040144	0.000313	0.008781	-103.817237	-84.838687	135.048362
39457		9.714006	-1.092925	-0.232865	-0.014840	-0.000310	0.003707	-103.850193	-84.835572	135.073037
39458		9.673551	-1.038023	-0.207339	0.012689	0.000484	0.008923	-103.854019	-84.829454	135.084349
39459		9.695522	-0.965500	-0.215547	0.024882	-0.003856	0.010878	-103.875052	-84.821863	135.119905
39460		9.715583	-0.802166	-0.214240	0.021672	0.000195	0.008993	-103.875341	-84.815650	135.132845
39461		9.722326	-0.771280	-0.202256	0.002657	0.001061	0.007563	-103.883888	-84.810577	135.143079
39462		9.699939	-0.776196	-0.228210	-0.016320	0.000341	0.005147	-103.910502	-84.806538	135.160093
39463		9.707782	-0.824989	-0.204142	-0.020292	0.000337	0.005752	-103.939312	-84.802372	135.177470
39464		9.731981	-0.912049	-0.187489	-0.014589	0.007278	0.005913	-103.921784	-84.798872	135.151863
39465		9.725712	-0.886047	-0.254945	0.000093	0.003585	0.008702	-103.914598	-84.793513	135.144822
39466		9.730214	-0.891668	-0.143032	0.001007	0.001294	0.002271	-103.930304	-84.791216	135.161741
39467		9.685485	-0.900875	-0.194801	-0.000308	0.002349	0.010438	-103.928255	-84.784721	135.159628
39468		9.699889	-0.849041	-0.192815	-0.003403	0.001642	0.005598	-103.938614	-84.780652	135.167602
39469		9.684316	-0.822295	-0.206911	-0.011747	0.000401	0.008545	-103.957813	-84.774941	135.180244
39470		9.715905	-0.819437	-0.234827	-0.019252	0.000042	0.007032	-103.985164	-84.769864	135.196785
39471		9.685213	-0.903806	-0.194747	-0.023300	0.003211	0.009607	-103.992248	-84.763950	135.190614
39472		9.693627	-0.894516	-0.226539	-0.024346	0.003502	0.008321	-103.999877	-84.758564	135.184916
39473		9.723576	-0.869907	-0.210456	-0.024953	0.003444	0.004312	-104.014489	-84.755627	135.185353
39474		9.699519	-0.853304	-0.192610	-0.023707	0.001967	0.011339	-104.025862	-84.748363	135.182797
39475		9.707953	-0.843835	-0.224527	-0.024919	0.001854	0.003323	-104.051543	-84.745755	135.194370
39476		9.723420	-0.871660	-0.210400	-0.023915	0.003143	0.005593	-104.064985	-84.741853	135.194437
39477		9.724213	-0.882860	-0.232156	-0.027488	0.004373	0.004459	-104.075179	-84.738963	135.188980
39478		9.699350	-0.855298	-0.192284	-0.025402	0.003781	0.007027	-104.083303	-84.734408	135.182676
39479		9.709456	-0.867298	-0.267728	-0.021467	0.005370	0.007411	-104.079580	-84.730017	135.166707
39480		9.709397	-0.867960	-0.267729	-0.018187	-0.001858	0.007315	-104.117724	-84.724438	135.195600
39481		9.702479	-0.900433	-0.279657	-0.010388	0.004494	0.010060	-104.108922	-84.718454	135.180906
39482		9.709252	-0.869711	-0.267302	0.000052	0.005153	0.009692	-104.090362	-84.712558	135.162599
39483		9.708325	-0.860213	-0.244935	-0.006250	0.004897	0.016186	-104.067631	-84.703224	135.136296
39484		9.715088	-0.829766	-0.232363	-0.002111	0.008913	0.009096	-104.028389	-84.698226	135.095363
39485		9.691035	-0.813473	-0.213686	-0.002552	0.009258	0.011818	-103.984142	-84.691923	135.049580
39486		9.684090	-0.846359	-0.224811	-0.002956	0.008019	0.013551	-103.944227	-84.684313	135.007389
39487		9.699449	-0.875210	-0.210007	-0.001913	0.007722	0.014836	-103.904545	-84.676113	134.966557
39488		9.729363	-0.851478	-0.193248	-0.011952	0.008303	0.013466	-103.869251	-84.668593	134.925067
39489		9.707755	-0.867863	-0.240490	-0.008823	0.007413	0.017320	-103.831958	-84.658963	134.882657
39490		9.699949	-0.890097	-0.229821	-0.010065	0.008898	0.010294	-103.796361	-84.653307	134.841131
39491		9.723849	-0.908570	-0.246618	-0.005159	0.013357	0.013941	-103.726834	-84.646363	134.768454
39492		9.700608	-0.903259	-0.249643	-0.009061	0.010184	0.012565	-103.679959	-84.639568	134.716082
39493		9.731385	-0.959462	-0.220472	-0.003676	0.012713	0.012504	-103.615801	-84.633323	134.649648
39494		9.731298	-0.960616	-0.219265	0.006804	0.011783	0.011155	-103.552575	-84.627553	134.589903
39495		9.708059	-0.955253	-0.222185	0.008888	0.011188	0.013724	-103.488813	-84.620410	134.531096
39496		9.690874	-0.907461	-0.191442	0.010448	0.007378	0.010314	-103.451624	-84.614485	134.500519
39497		9.699349	-0.898546	-0.222146	0.012786	0.014355	0.015098	-103.365274	-84.606987	134.421266
39498		9.699284	-0.899555	-0.220915	0.003749	0.009503	0.005322	-103.326027	-84.604113	134.383935
39499		9.699228	-0.900438	-0.219777	0.002785	0.013358	0.012735	-103.254888	-84.597786	134.314204
39500		9.698290	-0.891046	-0.196483	0.003788	0.014643	0.015006	-103.171783	-84.590195	134.232404
39501		9.699883	-0.913888	-0.238908	0.002783	0.013356	0.012733	-103.101023	-84.583850	134.163050
39502		9.713501	-0.921092	-0.179495	0.004598	0.017117	0.011537	-103.008931	-84.578430	134.073993
39503		9.675631	-0.968111	-0.184189	0.013299	0.010834	0.010403	-102.950463	-84.573045	134.023037
39504		9.682441	-0.937662	-0.171043	0.017869	0.010880	0.013810	-102.884092	-84.565515	133.966499
39505		9.721007	-0.903604	-0.185668	0.005790	0.010485	0.008875	-102.834254	-84.560929	133.919891
39506		9.719233	-0.883094	-0.140669	0.013257	0.012412	0.011386	-102.765450	-84.554916	133.858887
39507		9.681512	-0.860808	-0.179666	0.002854	0.010186	0.010755	-102.716751	-84.549231	133.811732
39508		9.706277	-0.890012	-0.218160	-0.007257	0.013947	0.011347	-102.651058	-84.543492	133.742230
39509		9.682028	-0.942963	-0.165210	-0.004692	0.011423	0.010213	-102.600375	-84.538256	133.688738
39510		9.682804	-0.954733	-0.186073	0.002851	0.010183	0.010754	-102.552114	-84.532308	133.642738
39511		9.706688	-0.973337	-0.202771	0.007420	0.010227	0.014163	-102.496569	-84.524706	133.591332
39512		9.683453	-0.968044	-0.205835	0.015371	0.010223	0.012971	-102.438457	-84.517582	133.543081
39513		9.712551	-0.933482	-0.166417	0.016108	0.015861	0.011472	-102.348853	-84.512167	133.462460
39514		9.697165	-0.906804	-0.179160	-0.001312	0.011374	0.005607	-102.302533	-84.509287	133.415315
39515		9.673991	-0.900970	-0.182217	-0.002207	0.012062	0.011044	-102.246321	-84.503633	133.357696
39516		9.690984	-0.950865	-0.210857	-0.004210	0.009495	0.006502	-102.211824	-84.499999	133.321075
39517		9.668679	-0.955739	-0.236039	-0.004658	0.009838	0.009220	-102.172415	-84.495089	133.278925
39518		9.675261	-0.994220	-0.189072	0.000766	0.010774	0.008178	-102.125330	-84.490598	133.231797
39519		9.705245	-0.970068	-0.171971	0.006859	0.008591	0.009171	-102.086772	-84.485559	133.197130
39520		9.706370	-0.912279	-0.227044	0.002292	0.008548	0.005760	-102.055345	-84.482184	133.167528
39521		9.704587	-0.891375	-0.182414	0.003331	0.008249	0.007046	-102.023530	-84.478292	133.137605
39522		9.706288	-0.913606	-0.225191	0.006189	0.011707	0.007135	-101.969687	-84.474483	133.087161
39523		9.689748	-0.945202	-0.182346	0.006267	0.008544	0.005166	-101.936889	-84.471675	133.057940
39524		9.689711	-0.945784	-0.181287	0.010164	0.011702	0.006541	-101.881749	-84.468343	133.009075
39525		9.696595	-0.914929	-0.168377	0.007934	0.006707	0.009471	-101.853473	-84.462901	132.985355
39526		9.720523	-0.933177	-0.185106	0.006187	0.011705	0.007132	-101.799387	-84.459195	132.934172
39527		9.713015	-0.885545	-0.208047	0.007225	0.011405	0.008418	-101.745763	-84.454889	132.884577
39528		9.682025	-0.900617	-0.201108	0.000721	0.012351	0.009155	-101.688894	-84.450098	132.827529
39529		9.705081	-0.908085	-0.195743	-0.006781	0.012016	0.007622	-101.640874	-84.446300	132.775502
39530		9.681527	-0.971463	-0.164729	-0.004294	0.012654	0.008460	-101.586605	-84.441865	132.718770
39531		9.722915	-0.969528	-0.244643	0.009002	0.016737	0.008204	-101.501793	-84.438272	132.638861
39532		9.697588	-1.011188	-0.169505	0.008083	0.012292	0.003967	-101.447926	-84.436304	132.589618
39533		9.683191	-0.994957	-0.204205	0.018069	0.013262	0.006340	-101.380278	-84.433345	132.532174
39534		9.720158	-0.938980	-0.174661	0.018068	0.013260	0.006338	-101.312889	-84.430146	132.475794
39535		9.682669	-0.916179	-0.213526	0.013053	0.013564	0.005642	-101.247308	-84.427600	132.417539
39536		9.690950	-0.975919	-0.209574	0.017358	0.017954	0.005281	-101.154274	-84.425504	132.334367
39537		9.714035	-0.983082	-0.203678	0.014540	0.012917	0.004210	-101.093307	-84.423676	132.281603
39538		9.690925	-0.976849	-0.206414	0.022448	0.014481	0.004010	-101.019530	-84.421919	132.221800
39539		9.729257	-1.011431	-0.186240	0.027869	0.015406	0.002970	-100.938055	-84.421048	132.156104
39540		9.712170	-0.962907	-0.154897	0.035945	0.015776	0.008505	-100.843100	-84.416894	132.081053
39541		9.695978	-0.925354	-0.145401	0.029894	0.016379	0.006519	-100.751064	-84.414110	132.005911
39542		9.703820	-0.905066	-0.153471	0.025292	0.017919	0.004085	-100.654816	-84.412677	131.923395
39543		9.704726	-0.916349	-0.173563	0.018461	0.014476	0.004589	-100.582510	-84.410756	131.861493
39544		9.702860	-0.895185	-0.128287	0.014486	0.014485	0.005178	-100.511361	-84.408289	131.798207
39545		9.695880	-0.927425	-0.138538	0.014443	0.016064	0.006157	-100.430654	-84.405634	131.725551
39546		9.695847	-0.928058	-0.136597	0.012245	0.021403	0.006522	-100.320182	-84.403104	131.622274
39547		9.687011	-0.938560	-0.102897	0.004464	0.015102	0.003779	-100.253357	-84.401668	131.557822
39548		9.679657	-0.890715	-0.125741	0.009059	0.013556	0.006213	-100.191657	-84.398512	131.503944
39549		9.688431	-0.881488	-0.156081	0.001028	0.016741	0.009349	-100.111752	-84.394085	131.424369
39550		9.696262	-0.861538	-0.164719	-0.005759	0.011723	0.008874	-100.065197	-84.389219	131.374993
39551		9.690183	-0.905034	-0.197331	-0.006215	0.012070	0.011589	-100.014210	-84.383047	131.320306
39552		9.707185	-0.955227	-0.225579	0.000697	0.012343	0.009125	-99.960441	-84.378104	131.267572
39553		9.720399	-0.962156	-0.166294	0.007731	0.013011	0.013379	-99.894512	-84.371004	131.205898
39554		9.688360	-0.966746	-0.137675	0.009926	0.007670	0.013015	-99.857302	-84.363425	131.173262
39555		9.711314	-0.974849	-0.132173	0.017702	0.013962	0.015756	-99.778179	-84.355064	131.104068
39556		9.727011	-0.934672	-0.150759	0.015259	0.011746	0.013936	-99.715067	-84.347373	131.050234
39557		9.694003	-0.928536	-0.100049	0.011242	0.013339	0.015500	-99.643845	-84.339081	130.985259
39558		9.712567	-0.920952	-0.184200	0.006234	0.013652	0.014798	-99.574321	-84.330995	130.919119
39559		9.711749	-0.991566	-0.148532	0.004784	0.012718	0.015245	-99.510961	-84.322772	130.858324
39560		9.696708	-1.045537	-0.149094	0.004783	0.012717	0.015245	-99.447065	-84.314353	130.796339
39561		9.649492	-1.022615	-0.134516	0.010619	0.014864	0.012474	-99.371156	-84.307884	130.726290
39562		9.666225	-0.992987	-0.174825	0.016082	0.014198	0.010460	-99.297290	-84.302349	130.661138
39563		9.689187	-1.000942	-0.169204	0.014875	0.008920	0.014688	-99.250869	-84.294062	130.623174
39564		9.704005	-0.949766	-0.166295	0.014257	0.010450	0.011664	-99.198649	-84.287449	130.578973
39565		9.672908	-0.964916	-0.159465	0.017196	0.010732	0.009789	-99.145365	-84.282092	130.535447
39566		9.686992	-0.982429	-0.122052	0.011157	0.011350	0.007798	-99.093382	-84.277737	130.489417
39567		9.686926	-0.983213	-0.120929	0.012232	0.009468	0.008108	-99.051750	-84.273210	130.454743
39568		9.719804	-0.991658	-0.169282	0.012274	0.007888	0.007130	-99.019522	-84.268879	130.429336
39569		9.694772	-0.963779	-0.128952	0.011615	0.010999	0.005082	-98.972426	-84.266197	130.388814
39570		9.703648	-0.954552	-0.159600	0.016158	0.011025	0.008497	-98.919304	-84.261389	130.344892
39571		9.701652	-0.933580	-0.114873	0.005776	0.008855	0.007851	-98.885283	-84.256943	130.314147
39572		9.693619	-0.955168	-0.103923	-0.000720	0.009825	0.008572	-98.848520	-84.251984	130.276731
39573		9.671464	-0.960120	-0.129229	-0.003201	0.009196	0.007732	-98.817934	-84.247632	130.244270
39574		9.703396	-0.957717	-0.155886	-0.004650	0.008265	0.008180	-98.792235	-84.242790	130.215157
39575		9.664321	-0.993410	-0.139490	-0.003619	0.007964	0.009467	-98.767396	-84.237344	130.188231
39576		9.705198	-0.981171	-0.198031	-0.000678	0.008244	0.007595	-98.740217	-84.232783	130.159923
39577		9.712236	-1.030191	-0.172803	0.003294	0.008222	0.007010	-98.712175	-84.228748	130.133756
39578		9.696150	-0.992334	-0.164413	0.009132	0.010362	0.004242	-98.670741	-84.226327	130.097359
39579		9.688115	-1.013807	-0.153273	0.008208	0.011057	0.009666	-98.621836	-84.221029	130.053054
39580		9.695054	-0.982968	-0.140376	0.007220	0.009779	0.007401	-98.582462	-84.216707	130.017982
39581		9.702994	-0.962830	-0.149312	0.007638	0.011009	0.005665	-98.537667	-84.213665	129.977480
39582		9.680881	-0.967607	-0.174441	0.011191	0.009755	0.006817	-98.496235	-84.209620	129.941644
39583		9.702901	-0.964112	-0.147074	0.010116	0.011634	0.006504	-98.445923	-84.206148	129.897022
39584		9.693867	-0.974720	-0.113886	0.012550	0.013840	0.008319	-98.380152	-84.201652	129.838264
39585		9.718794	-1.004278	-0.152040	0.009932	0.006062	0.012025	-98.356641	-84.194578	129.820475
39586		9.679628	-0.960168	-0.148152	0.008202	0.011051	0.009661	-98.308116	-84.189051	129.776696
39587		9.686595	-0.929166	-0.135274	0.011650	0.009401	0.004103	-98.271576	-84.186743	129.746799
39588		9.704541	-0.990180	-0.184989	0.009561	0.015135	0.011161	-98.197887	-84.180720	129.677564
39589		9.695466	-1.000986	-0.151846	0.012215	0.009446	0.008102	-98.157671	-84.176141	129.644296
39590		9.672359	-0.995063	-0.155107	0.013619	0.011951	0.008628	-98.102392	-84.171309	129.597264
39591		9.687317	-1.023369	-0.139524	0.009735	0.008818	0.007260	-98.067875	-84.167151	129.568297
39592		9.671248	-0.985612	-0.131054	0.007587	0.012578	0.006631	-98.013821	-84.163489	129.518236
39593		9.694237	-0.992994	-0.125453	0.006182	0.010071	0.006104	-97.975387	-84.160082	129.483284
39594		9.695164	-1.004730	-0.146306	0.007819	0.008237	0.010418	-97.943034	-84.153960	129.456230
39595		9.686077	-1.015283	-0.113477	0.009123	0.010345	0.004233	-97.902933	-84.151632	129.421297
39596		9.693055	-0.984194	-0.100813	-0.002137	0.007314	0.008029	-97.882786	-84.146728	129.399702
39597		9.692980	-0.984991	-0.100177	-0.003586	0.006387	0.008476	-97.868695	-84.141679	129.383594
39598		9.700950	-0.964931	-0.109571	-0.008166	0.007944	0.006032	-97.850067	-84.137961	129.360044
39599		9.701899	-0.976480	-0.130613	-0.008212	0.009521	0.007005	-97.822477	-84.133990	129.327703
39600		9.716843	-1.004581	-0.115446	-0.008122	0.006365	0.005057	-97.813064	-84.130702	129.312970
39601		9.686717	-1.030188	-0.130714	-0.006898	0.015181	0.009478	-97.751696	-84.125763	129.247429
39602		9.679623	-1.062541	-0.141485	-0.006674	0.007291	0.004608	-97.737032	-84.122833	129.228821
39603		9.695694	-1.021288	-0.160800	-0.003310	0.008796	0.001003	-97.715276	-84.122208	129.205165
39604		9.687625	-1.042420	-0.149723	0.007583	0.012568	0.006632	-97.661935	-84.118489	129.155858
39605		9.677511	-1.041881	-0.094817	0.004077	0.012246	0.004501	-97.614378	-84.116136	129.110520
39606		9.709589	-1.039064	-0.120994	0.006037	0.011246	0.000369	-97.573849	-84.115889	129.073164
39607		9.716628	-1.007474	-0.108121	0.000616	0.010345	0.001395	-97.541062	-84.115150	129.040681
39608		9.672607	-1.015946	-0.159774	-0.002283	0.008492	0.002289	-97.519189	-84.113590	129.017477
39609		9.671592	-1.005147	-0.136838	-0.000082	0.015031	0.000316	-97.461787	-84.113811	128.959845
39610		9.688624	-1.054497	-0.164952	-0.005743	0.006593	-0.000817	-97.454504	-84.113887	128.949126
39611		9.696705	-1.033664	-0.174026	-0.000037	0.013453	-0.000658	-97.406467	-84.114538	128.900935
39612		9.679603	-1.064041	-0.131178	0.005145	0.006814	-0.003841	-97.394089	-84.116316	128.891579
39613		9.686681	-1.031997	-0.118521	0.010520	0.009290	-0.003892	-97.365234	-84.118494	128.868753
39614		9.686719	-1.031759	-0.117531	0.012575	0.008685	-0.001314	-97.336447	-84.119010	128.847284
39615		9.717847	-1.017450	-0.122045	0.013463	0.009564	-0.005761	-97.305687	-84.122268	128.824240
39616		9.671864	-1.003464	-0.129774	0.010847	0.013671	-0.003685	-97.252021	-84.124471	128.776726
39617		9.702988	-0.989221	-0.134079	0.005051	0.009966	-0.001897	-97.221087	-84.125557	128.748661
39618		9.719022	-1.027543	-0.140304	0.007527	0.010589	-0.001054	-97.184652	-84.126027	128.716817
39619		9.685893	-1.019398	-0.089913	0.005847	0.013997	-0.004399	-97.132690	-84.128820	128.668072
39620		9.685941	-1.019050	-0.088626	0.010470	0.010862	-0.002922	-97.093938	-84.130373	128.635020
39621		9.702108	-0.977239	-0.107378	0.010844	0.013666	-0.003687	-97.040380	-84.132730	128.587549
39622		9.686039	-1.018345	-0.085972	0.010890	0.012088	-0.004661	-96.995851	-84.135348	128.549111
39623		9.671131	-0.990454	-0.099387	0.006543	0.009311	-0.003319	-96.968555	-84.137185	128.525562
39624		9.680311	-0.980216	-0.130047	0.007339	0.013341	-0.005823	-96.919863	-84.140545	128.480949
39625		9.679294	-0.968939	-0.107200	0.004672	0.007157	-0.001135	-96.904065	-84.140989	128.467883
39626		9.694278	-0.996269	-0.091783	0.000048	0.010290	-0.002615	-96.874256	-84.142305	128.438009
39627		9.724338	-0.970937	-0.074868	-0.005181	0.003084	-0.005481	-96.889592	-84.144939	128.450564
39628		9.702431	-0.974751	-0.100615	-0.001401	0.009365	-0.002168	-96.865407	-84.145932	128.425486
39629		9.680518	-0.978689	-0.126051	-0.006399	0.009693	-0.002884	-96.843030	-84.147542	128.399429
39630		9.704643	-0.996184	-0.142540	-0.004298	0.007513	-0.001275	-96.830038	-84.147932	128.383825
39631		9.679502	-0.967320	-0.102906	-0.006725	0.005312	-0.003091	-96.832291	-84.149360	128.382340
39632		9.695560	-1.005575	-0.109641	-0.005747	0.006587	-0.000828	-96.825192	-84.149413	128.372107
39633		9.704708	-0.995809	-0.140714	-0.000845	0.009412	0.001832	-96.798047	-84.148319	128.344455
39634		9.687530	-1.026151	-0.098203	-0.002284	0.004934	-0.006376	-96.801785	-84.151422	128.347086
39635		9.670450	-0.976455	-0.068415	-0.000424	0.010638	0.000094	-96.768728	-84.151398	128.313734
39636		9.704797	-0.995257	-0.138425	0.000699	0.007183	-0.000559	-96.754218	-84.151346	128.299446
39637		9.680722	-0.977376	-0.120476	0.001169	0.006833	-0.003269	-96.743593	-84.152977	128.289561
39638		9.672676	-0.998008	-0.109784	0.001725	0.006882	0.000732	-96.729510	-84.152179	128.276616
39639		9.696797	-1.015621	-0.126500	0.000795	0.004030	-0.002503	-96.734168	-84.153187	128.281879
39640		9.688744	-1.036296	-0.116096	0.007846	0.003099	0.000796	-96.737582	-84.152078	128.290019
39641		9.697909	-1.026519	-0.147189	0.015038	0.009302	-0.000465	-96.703454	-84.152279	128.264496
39642		9.703801	-0.983886	-0.112847	0.009293	0.004024	0.000349	-96.701076	-84.151498	128.267486
39643		9.694657	-0.993557	-0.080462	0.012660	0.005523	-0.003254	-96.691123	-84.153032	128.264895
39644		9.718800	-1.011014	-0.097085	0.016209	0.004268	-0.002090	-96.685125	-84.153647	128.268379
39645		9.686638	-1.013919	-0.069134	0.013636	0.006797	-0.000993	-96.666055	-84.153979	128.257185
39646		9.725815	-0.979001	-0.083956	0.011210	0.004596	-0.002809	-96.661462	-84.155028	128.259066
39647		9.695859	-1.003726	-0.099700	0.004717	0.005576	-0.002108	-96.655008	-84.155914	128.255417
39648		9.680949	-0.975937	-0.113665	-0.003829	0.007159	-0.003991	-96.645522	-84.157822	128.243757
39649		9.705104	-0.993345	-0.130451	0.001870	0.002150	-0.002185	-96.659804	-84.158524	128.259313
39650		9.697061	-1.013891	-0.119983	0.002193	0.006529	-0.001982	-96.649106	-84.159241	128.249934
39651		9.697097	-1.013598	-0.119546	0.007337	0.001470	-0.004177	-96.665340	-84.161031	128.270601
39652		9.673015	-0.995541	-0.102031	0.007288	0.003046	-0.003206	-96.671903	-84.162220	128.281532
39653		9.688069	-0.942873	-0.099967	0.004343	0.002774	-0.001341	-96.680761	-84.162483	128.293061
39654		9.688081	-0.942768	-0.099709	0.002895	0.001849	-0.000894	-96.695066	-84.162263	128.309303
39655		9.712202	-0.960551	-0.116578	0.003822	0.004702	0.002339	-96.691087	-84.160560	128.307627
39656		9.681119	-0.974583	-0.110805	0.000422	0.001225	-0.001739	-96.710767	-84.160779	128.327741
39657		9.697202	-1.012815	-0.117645	-0.000281	0.005904	-0.002827	-96.705827	-84.162097	128.322736
39658		9.727180	-0.987873	-0.100714	0.003772	0.006279	0.003310	-96.692191	-84.159782	128.311332
39659		9.697208	-1.012909	-0.116385	0.002192	0.006528	-0.001983	-96.681810	-84.160660	128.302282
39660		9.697219	-1.012866	-0.115801	0.002796	0.005002	0.001047	-96.677296	-84.159552	128.299462
39661		9.682272	-0.985454	-0.130054	0.003921	0.001548	0.000398	-96.692073	-84.158743	128.316698
39662		9.674196	-1.006261	-0.119885	0.002473	0.000624	0.000845	-96.712256	-84.157461	128.338576
39663		9.697212	-1.013005	-0.115164	0.002895	0.001849	-0.000894	-96.726787	-84.157407	128.354973
39664		9.728292	-0.999096	-0.120357	0.004896	0.002824	0.002660	-96.732156	-84.155231	128.363343
39665		9.696074	-1.002333	-0.092570	0.004193	0.007503	0.001570	-96.712896	-84.154153	128.346520
39666		9.704153	-0.981560	-0.102287	-0.000976	-0.001276	-0.002262	-96.747652	-84.154510	128.381093
39667		9.658113	-0.968205	-0.111427	0.000504	0.001628	0.004972	-96.760905	-84.151102	128.394827
39668		9.704106	-0.982053	-0.102056	-0.004070	0.003182	0.002514	-96.769448	-84.149041	128.401181
39669		9.705206	-0.993217	-0.123645	-0.004020	0.001605	0.001543	-96.787656	-84.147581	128.417292
39670		9.690170	-1.045721	-0.125252	0.001448	0.000924	-0.000447	-96.807563	-84.147050	128.438310
39671		9.720146	-1.020734	-0.108577	0.010736	0.004944	-0.000099	-96.799868	-84.146751	128.436881
39672		9.687939	-1.023794	-0.080891	0.010363	0.002142	0.000670	-96.807142	-84.145667	128.450303
39673		9.687948	-1.023726	-0.080621	0.001870	0.002148	-0.002186	-96.821421	-84.146365	128.465856
39674		9.697132	-1.014094	-0.112274	0.003026	0.000675	0.004846	-96.838241	-84.142804	128.484656
39675		9.695994	-1.003286	-0.090618	-0.003870	-0.003124	-0.001368	-96.884496	-84.142675	128.529047
39676		9.675223	-1.018450	-0.138948	-0.003970	0.000029	0.000573	-96.911717	-84.141499	128.554273
39677		9.698233	-1.025202	-0.134447	-0.006443	-0.000594	-0.000272	-96.944673	-84.140915	128.583813
39678		9.677466	-1.040346	-0.182546	0.002895	0.001848	-0.000894	-96.958877	-84.140694	128.599920
39679		9.691309	-1.056639	-0.145988	0.005890	0.000543	-0.003729	-96.980804	-84.142153	128.625477
39680		9.691359	-1.056220	-0.145749	0.012755	0.002361	-0.005196	-96.989451	-84.144414	128.641673
39681		9.659190	-1.058917	-0.118160	0.019799	0.001430	-0.001894	-96.997261	-84.144891	128.661051
39682		9.721425	-1.030370	-0.128921	0.015847	-0.002101	-0.009973	-97.032163	-84.149552	128.705406
39683		9.690410	-1.043735	-0.123215	0.017697	0.003605	-0.003510	-97.030231	-84.151099	128.713778
39684		9.698545	-1.022436	-0.132994	0.014349	-0.001450	-0.008556	-97.061500	-84.154998	128.753658
39685		9.682513	-1.062924	-0.112757	0.015191	0.000995	-0.012036	-97.081407	-84.161209	128.782541
39686		9.714850	-1.058772	-0.139701	0.012668	0.001948	-0.011911	-97.097133	-84.167253	128.805792
39687		9.690840	-1.039876	-0.122032	0.010516	0.005701	-0.012557	-97.093964	-84.174091	128.808785
39688		9.667952	-1.032013	-0.126121	0.006176	0.002929	-0.011213	-97.107516	-84.179804	128.826100
39689		9.675031	-0.998898	-0.113996	0.010012	0.004066	-0.017529	-97.117251	-84.189353	128.841773
39690		9.706296	-0.983066	-0.119097	0.002596	0.002191	-0.020062	-97.143263	-84.200043	128.869571
39691		9.706475	-0.981342	-0.118725	0.004544	0.004748	-0.015539	-97.151026	-84.208508	128.880113
39692		9.713545	-0.948061	-0.106528	-0.000451	0.005075	-0.016259	-97.160068	-84.217242	128.889097
39693		9.675718	-0.912235	-0.125332	-0.003949	0.004747	-0.018396	-97.174781	-84.227330	128.901734
39694		9.682818	-0.958720	-0.100180	-0.009415	0.005428	-0.016406	-97.187148	-84.236174	128.908903
39695		9.691008	-0.936501	-0.110001	-0.010205	0.001405	-0.013895	-97.221177	-84.243463	128.937350
39696		9.669256	-0.939577	-0.136201	-0.002791	0.003282	-0.011362	-97.238334	-84.249287	128.953143
39697		9.700417	-0.924515	-0.141547	0.000388	-0.000768	-0.009424	-97.275471	-84.253875	128.990815
39698		9.705064	-0.869998	-0.086182	0.002757	0.003013	-0.006640	-97.287644	-84.256996	129.004793
39699		9.698246	-0.901096	-0.097609	0.005279	0.002061	-0.006765	-97.304138	-84.260276	129.024532
39700		9.691342	-0.852320	-0.122254	-0.008020	-0.000359	-0.005567	-97.340814	-84.262545	129.056942
39701		9.721372	-0.906700	-0.093020	-0.009518	0.000294	-0.004150	-97.373927	-84.264207	129.084863
39702		9.689173	-0.909605	-0.065742	-0.011538	0.002880	0.000948	-97.389546	-84.263012	129.094061
39703		9.693808	-0.953549	-0.152821	-0.020399	0.000074	-0.001140	-97.427934	-84.262946	129.121018
39704		9.739848	-0.967020	-0.143730	-0.019897	0.001707	0.003833	-97.452834	-84.260026	129.134747
39705		9.708753	-0.981475	-0.138124	-0.012063	0.004809	0.004628	-97.455405	-84.257032	129.130507
39706		9.700690	-1.002573	-0.127709	-0.009120	0.005081	0.002762	-97.455847	-84.254972	129.125854
39707		9.661489	-0.957748	-0.124939	-0.006965	0.001330	0.003407	-97.476038	-84.252413	129.142258
39708		9.702857	-0.945380	-0.183843	-0.004965	0.002311	0.006963	-97.486610	-84.247760	129.150176
39709		9.692449	-0.944767	-0.129984	-0.007069	0.004484	0.005347	-97.487612	-84.244334	129.147234
39710		9.701664	-1.015448	-0.148592	-0.005991	0.002608	0.005670	-97.498052	-84.240439	129.154433
39711		9.692427	-1.025618	-0.116554	-0.004073	0.003179	0.002512	-97.506780	-84.238526	129.160983
39712		9.677413	-0.998507	-0.130918	0.001948	0.002557	0.004527	-97.513794	-84.235274	129.169312
39713		9.677372	-0.998925	-0.130745	-0.001970	0.001006	0.004128	-97.532332	-84.232280	129.186932
39714		9.684207	-0.967682	-0.118947	-0.004914	0.000733	0.005992	-97.552407	-84.228060	129.204432
39715		9.730219	-0.981400	-0.109717	-0.006494	0.000976	0.000696	-97.576222	-84.227012	129.224751
39716		9.691103	-1.016259	-0.094262	-0.015460	0.001326	0.000545	-97.603038	-84.225930	129.242956
39717		9.700294	-1.006590	-0.126156	-0.015882	0.000101	0.002284	-97.635934	-84.223911	129.266996
39718		9.677255	-1.000074	-0.130673	-0.011595	0.004452	0.001914	-97.641931	-84.222285	129.266499
39719		9.686450	-0.990392	-0.162415	-0.014385	-0.000552	0.000865	-97.678674	-84.221021	129.295268
39720		9.679542	-1.022305	-0.174222	-0.009492	0.002277	0.003529	-97.694439	-84.218312	129.305803
39721		9.700228	-1.007245	-0.126018	-0.008968	0.000348	-0.000152	-97.723777	-84.217691	129.330249
39722		9.731286	-0.993292	-0.131359	-0.001550	0.002227	0.002388	-97.736116	-84.215625	129.341909
39723		9.708259	-0.986684	-0.135770	-0.001078	0.001875	-0.000322	-97.752490	-84.215218	129.357869
39724		9.692159	-1.028260	-0.115493	0.003868	0.003128	0.001372	-97.757447	-84.213798	129.365239
39725		9.708248	-0.986849	-0.135300	0.002473	0.000626	0.000847	-97.777882	-84.212629	129.387325
39726		9.677168	-1.001035	-0.129727	0.002421	0.002203	0.001818	-97.788491	-84.210884	129.399535
39727		9.654133	-0.994503	-0.134124	0.004945	0.001253	0.001694	-97.803337	-84.209282	129.417428
39728		9.686357	-0.991489	-0.161270	0.002524	-0.000950	-0.000124	-97.833010	-84.208393	129.448863
39729		9.694450	-1.050558	-0.158413	0.006916	0.000249	-0.002434	-97.855507	-84.209054	129.475582
39730		9.724379	-1.025366	-0.141869	0.006864	0.001825	-0.001463	-97.868198	-84.209138	129.492446
39731		9.684138	-1.048859	-0.104574	0.007440	-0.001680	-0.006115	-97.904062	-84.211734	129.532901
39732		9.701440	-1.017921	-0.146293	0.010834	0.001800	-0.002034	-97.915068	-84.212138	129.550358
39733		9.708399	-1.065851	-0.121397	0.007336	0.001472	-0.004174	-97.931864	-84.213879	129.571587
39734		9.685453	-1.058505	-0.125712	0.000709	0.003616	-0.009222	-97.944125	-84.218503	129.584479
39735		9.707417	-1.053276	-0.098991	0.002207	0.002964	-0.010639	-97.960595	-84.224030	129.602426
39736		9.715650	-1.111302	-0.095825	0.014169	0.001312	-0.013322	-97.981339	-84.230794	129.631592
39737		9.680124	-1.097907	-0.158401	0.013748	0.000087	-0.011583	-98.008184	-84.236626	129.666613
39738		9.631878	-1.061349	-0.123804	0.022107	0.001259	-0.014465	-98.025696	-84.244029	129.697103
39739		9.671142	-1.024970	-0.139176	0.019790	-0.004102	-0.018224	-98.078115	-84.253289	129.761304
39740		9.680512	-1.013616	-0.171070	0.023233	-0.002198	-0.015116	-98.115186	-84.260776	129.812100
39741		9.701348	-0.996778	-0.122964	0.022257	-0.003480	-0.017381	-98.162325	-84.269599	129.872415
39742		9.679671	-0.999411	-0.149289	0.020098	0.000267	-0.018030	-98.189880	-84.278931	129.911837
39743		9.670665	-1.007337	-0.117346	0.021645	-0.001967	-0.020419	-98.231591	-84.289593	129.966343
39744		9.677703	-0.973617	-0.105527	0.020564	-0.000095	-0.020745	-98.263423	-84.300430	130.010333
39745		9.687112	-0.961701	-0.137428	0.018249	-0.005460	-0.024501	-98.330711	-84.313108	130.088584
39746		9.702354	-0.986924	-0.123043	0.020246	-0.004478	-0.020946	-98.388254	-84.323686	130.158228
39747		9.687511	-0.957614	-0.137846	0.022661	-0.002274	-0.019134	-98.430851	-84.333575	130.214204
39748		9.700378	-0.960915	-0.079964	0.017876	-0.008270	-0.023733	-98.514277	-84.345399	130.308492
39749		9.708578	-0.937990	-0.090572	0.016324	-0.006040	-0.021348	-98.584449	-84.356207	130.388527
39750		9.688116	-0.951305	-0.139045	0.010249	-0.003849	-0.022393	-98.646364	-84.367630	130.456803
39751		9.678855	-0.878953	-0.120842	0.000977	-0.007884	-0.022735	-98.737742	-84.379045	130.549309
39752		9.687341	-0.935846	-0.118487	-0.005098	-0.005693	-0.023780	-98.820920	-84.391073	130.630110
39753		9.702282	-0.881166	-0.117623	-0.005932	-0.008134	-0.020296	-98.916239	-84.401057	130.722594
39754		9.672998	-0.984147	-0.121767	-0.013345	-0.010029	-0.022830	-99.029052	-84.412136	130.828424
39755		9.697465	-0.999453	-0.139809	-0.007575	-0.006330	-0.024629	-99.119609	-84.424702	130.915174
39756		9.652779	-0.994976	-0.171707	0.000659	-0.012269	-0.022940	-99.238336	-84.435600	131.034999
39757		9.722141	-1.012603	-0.159028	0.008122	-0.011954	-0.021379	-99.350325	-84.445775	131.152315
39758		9.712792	-0.940187	-0.141377	0.007560	-0.012024	-0.025387	-99.466959	-84.458031	131.274011
39759		9.675286	-0.983723	-0.148469	0.010389	-0.008595	-0.025319	-99.562817	-84.470707	131.376421
39760		9.714439	-0.946269	-0.164859	0.010440	-0.010178	-0.026290	-99.668919	-84.483608	131.489187
39761		9.659432	-0.940309	-0.143170	0.010490	-0.011761	-0.027263	-99.786179	-84.497038	131.613152
39762		9.682740	-0.944207	-0.139625	0.005493	-0.011452	-0.027982	-99.905400	-84.510724	131.736245
39763		9.684167	-0.952700	-0.162553	0.004665	-0.013893	-0.024496	-100.036852	-84.522331	131.871110
39764		9.684396	-0.950167	-0.163732	0.005487	-0.011458	-0.027986	-100.157311	-84.535968	131.995442
39765		9.677938	-0.979348	-0.176564	0.010120	-0.014572	-0.026498	-100.292955	-84.548578	132.137650
39766		9.678177	-0.976730	-0.177933	0.014135	-0.016176	-0.028049	-100.437680	-84.561706	132.291320
39767		9.677225	-0.962998	-0.157683	0.019179	-0.018072	-0.028308	-100.592208	-84.574901	132.457707
39768		9.692016	-0.907676	-0.157652	0.018092	-0.016204	-0.028634	-100.736961	-84.588279	132.613681
39769		9.699607	-0.952932	-0.134713	0.015009	-0.025610	-0.029871	-100.942100	-84.601451	132.828495
39770		9.706039	-0.987153	-0.090261	0.025295	-0.021850	-0.028253	-101.117566	-84.613902	133.019456
39771		9.691062	-0.957074	-0.106950	0.022872	-0.024077	-0.030069	-101.311224	-84.627224	133.227256
39772		9.660822	-0.899551	-0.138456	0.005363	-0.022217	-0.032079	-101.506725	-84.641661	133.426872
39773		9.662287	-0.907262	-0.162509	-0.011988	-0.025110	-0.036997	-101.737239	-84.658613	133.651618
39774		9.662225	-0.972526	-0.130281	-0.007303	-0.029807	-0.036487	-101.993557	-84.674479	133.905008
39775		9.650484	-1.043673	-0.178161	0.014620	-0.032053	-0.037794	-102.254613	-84.690858	134.175727
39776		9.680533	-1.014672	-0.165283	0.026875	-0.039584	-0.037681	-102.554995	-84.705963	134.493023
39777		9.687449	-0.979272	-0.157345	0.032942	-0.041773	-0.036660	-102.866071	-84.720225	134.824506
39778		9.707341	-0.949072	-0.091197	0.048264	-0.039894	-0.035328	-103.156204	-84.733663	135.143808
39779		9.691109	-0.907430	-0.087792	0.052940	-0.044603	-0.034830	-103.473647	-84.746208	135.493177
39780		9.723529	-0.832041	-0.154321	0.038626	-0.046805	-0.034882	-103.813629	-84.758139	135.856983
39781		9.719213	-0.715608	-0.106614	0.034954	-0.042417	-0.034109	-104.130192	-84.770218	136.195106
39782		9.732560	-0.648607	-0.087503	0.015553	-0.041139	-0.032908	-104.449019	-84.781483	136.524388
39783		9.743872	-0.589249	-0.202049	-0.033571	-0.040774	-0.031107	-104.793041	-84.791784	136.850647
39784		9.767325	-0.622385	-0.378552	-0.080389	-0.035024	-0.025558	-105.120389	-84.799544	137.133238
39785		9.796207	-0.750299	-0.451408	-0.094969	-0.029315	-0.020747	-105.415030	-84.805512	137.374580
39786		9.764616	-0.918084	-0.533741	-0.064933	-0.015305	-0.024777	-105.614067	-84.815616	137.537230
39787		9.696642	-1.045282	-0.500543	-0.008872	-0.011719	-0.020388	-105.752979	-84.823953	137.671730
39788		9.724347	-1.064518	-0.407470	0.037154	-0.019865	-0.022465	-105.918581	-84.831985	137.859562
39789		9.690135	-0.975374	-0.372653	0.077366	-0.016244	-0.015718	-106.028356	-84.836974	138.014415
39790		9.711873	-0.802465	-0.240626	0.094504	-0.020900	-0.013008	-106.151586	-84.839550	138.192689
39791		9.737131	-0.731601	-0.138875	0.089332	-0.015869	-0.010807	-106.243928	-84.841843	138.336920
39792		9.712915	-0.713174	-0.122603	0.056034	-0.015602	-0.011348	-106.354202	-84.844306	138.480034
39793		9.731640	-0.703933	-0.209089	0.017959	-0.007447	-0.010430	-106.435671	-84.847709	138.572287
39794		9.736143	-0.747759	-0.296535	-0.003756	-0.006348	-0.003287	-106.509482	-84.847213	138.644391
39795		9.746264	-0.817330	-0.315535	-0.012944	-0.003329	-0.008173	-106.579628	-84.850027	138.707498
39796		9.686918	-0.867930	-0.347720	-0.002371	-0.003828	-0.002775	-106.636435	-84.849649	138.763353
39797		9.688253	-0.947553	-0.334695	0.030604	-0.008512	-0.002453	-106.702834	-84.848459	138.847749
39798		9.681482	-0.910712	-0.382007	0.066090	-0.014150	-0.002279	-106.782279	-84.846089	138.965686
39799		9.688950	-0.791289	-0.251505	0.083568	-0.016005	-0.000359	-106.859918	-84.842487	139.091838
39800		9.721814	-0.700537	-0.160186	0.076676	-0.016281	0.002118	-106.937887	-84.837324	139.214361
39801		9.743597	-0.627289	-0.170584	0.051319	-0.016013	0.000416	-107.032282	-84.833264	139.338787
39802		9.743549	-0.627658	-0.171952	0.027200	-0.017127	0.005779	-107.136545	-84.825925	139.459346
39803		9.731226	-0.635050	-0.253243	0.000520	-0.015695	0.012259	-107.235493	-84.815397	139.559122
39804		9.749902	-0.696949	-0.304794	-0.009604	-0.010317	0.013793	-107.304067	-84.804808	139.622622
39805		9.695808	-0.706349	-0.304478	-0.013509	-0.011893	0.013426	-107.385293	-84.794267	139.696535
39806		9.695899	-0.776296	-0.270311	-0.003533	-0.012497	0.014797	-107.460941	-84.782741	139.770528
39807		9.681526	-0.830523	-0.272569	0.002490	-0.013083	0.016772	-107.533176	-84.770148	139.844619
39808		9.782495	-0.779373	-0.323561	-0.007935	-0.012100	0.018121	-107.602127	-84.756860	139.909459
39809		9.766824	-0.754103	-0.338856	-0.019970	0.003020	0.020175	-107.584493	-84.745187	139.880382
39810		9.792853	-0.727211	-0.434896	-0.043197	0.001156	0.020105	-107.590981	-84.733106	139.862226
39811		9.745503	-0.773898	-0.386687	-0.056245	0.006261	0.023529	-107.568826	-84.720160	139.807736
39812		9.700274	-0.842912	-0.381540	-0.049031	0.009303	0.020246	-107.530534	-84.709419	139.741271
39813		9.725688	-1.010822	-0.349346	-0.026204	0.009944	0.022069	-107.472597	-84.697899	139.668130
39814		9.726670	-1.092815	-0.335022	0.004186	0.007749	0.023473	-107.407472	-84.685109	139.605252
39815		9.695489	-1.041060	-0.363469	0.033043	0.007800	0.027279	-107.319267	-84.670357	139.535803
39816		9.752585	-0.901826	-0.322538	0.049842	0.009020	0.027126	-107.214659	-84.655761	139.459566
39817		9.725924	-0.727629	-0.331197	0.040394	0.011304	0.030724	-107.096516	-84.639692	139.364274
39818		9.731319	-0.687761	-0.296592	0.024878	0.015778	0.033315	-106.956909	-84.622813	139.238525
39819		9.722375	-0.700487	-0.262788	-0.002632	0.019855	0.030984	-106.814596	-84.607983	139.094189
39820		9.709957	-0.778396	-0.305319	-0.021554	0.020801	0.029518	-106.680664	-84.593966	138.947410
39821		9.718460	-0.909017	-0.264579	-0.028127	0.024948	0.032192	-106.522912	-84.579239	138.772885
39822		9.681762	-0.969360	-0.289645	-0.022695	0.024253	0.030158	-106.370126	-84.565357	138.606480
39823		9.675914	-1.015346	-0.320684	-0.005169	0.020775	0.031116	-106.226863	-84.550464	138.459716
39824		9.759490	-0.984962	-0.304281	-0.003688	0.020108	0.029685	-106.089501	-84.536102	138.319758
39825		9.786950	-0.940039	-0.242791	-0.011970	0.027635	0.028996	-105.915745	-84.523388	138.138439
39826		9.779189	-0.894744	-0.265319	-0.011474	0.025666	0.025306	-105.759562	-84.512232	137.975105
39827		9.725215	-0.836690	-0.296935	-0.025692	0.025556	0.032987	-105.600739	-84.496898	137.800883
39828		9.756996	-0.836759	-0.322006	-0.030784	0.029037	0.034224	-105.423682	-84.481246	137.605445
39829		9.723723	-0.832059	-0.270281	-0.033718	0.028762	0.036103	-105.248226	-84.464576	137.409882
39830		9.755505	-0.832398	-0.294962	-0.026990	0.033752	0.036523	-105.040787	-84.448242	137.186070
39831		9.700172	-0.832649	-0.269013	-0.014909	0.030944	0.039521	-104.839343	-84.429872	136.975214
39832		9.702749	-0.938824	-0.295959	-0.024828	0.033603	0.045810	-104.620400	-84.408219	136.741071
39833		9.631141	-1.049927	-0.214227	-0.001544	0.033802	0.044967	-104.390156	-84.387084	136.508956
39834		9.693517	-1.006458	-0.067465	0.018323	0.026867	0.031412	-104.208511	-84.372297	136.337137
39835		9.738808	-0.942899	-0.068741	0.021001	0.035050	0.034366	-103.976222	-84.357064	136.115933
39836		9.701335	-0.923475	-0.106273	-0.010786	0.034825	0.032360	-103.767110	-84.342719	135.899664
39837		9.634037	-0.929245	-0.160311	-0.040879	0.031217	0.033707	-103.594955	-84.327179	135.703250
39838		9.630312	-0.997379	-0.234531	-0.046759	0.027065	0.028801	-103.456734	-84.313647	135.537562
39839		9.690289	-1.029311	-0.186855	-0.047799	0.027344	0.027502	-103.320212	-84.300952	135.372962
39840		9.674678	-1.152931	-0.150853	-0.039012	0.028127	0.021863	-103.182029	-84.291352	135.211677
39841		9.660411	-1.138997	-0.185219	-0.022306	0.022182	0.026366	-103.062393	-84.278544	135.078722
39842		9.667742	-1.040562	-0.206851	-0.018450	0.021713	0.019061	-102.952898	-84.269608	134.958329
39843		9.658891	-0.903664	-0.221512	-0.022266	0.020589	0.025391	-102.844340	-84.257090	134.836525
39844		9.687474	-0.869724	-0.181975	-0.031174	0.019352	0.024294	-102.749335	-84.244882	134.723185
39845		9.671383	-0.913573	-0.160060	-0.036636	0.020031	0.026292	-102.651935	-84.231747	134.604315
39846		9.707815	-0.957118	-0.272718	-0.047654	0.020963	0.023575	-102.559263	-84.220114	134.483867
39847		9.698880	-1.048412	-0.225770	-0.027621	0.024768	0.014143	-102.446296	-84.214322	134.354538
39848		9.643602	-1.045995	-0.201138	-0.012031	0.018691	0.010656	-102.362133	-84.209589	134.263119
39849		9.621573	-1.051690	-0.226191	-0.006084	0.009374	0.016273	-102.319593	-84.200682	134.216980
39850		9.635345	-1.069688	-0.188853	0.006369	0.009353	0.018537	-102.267273	-84.190381	134.168281
39851		9.646808	-1.065909	-0.107961	0.018405	0.008110	0.022544	-102.210491	-84.177801	134.121928
39852		9.653462	-1.036085	-0.095420	0.015373	0.007415	0.017699	-102.164934	-84.167724	134.085127
39853		9.717623	-1.031671	-0.149264	0.003996	0.005562	0.015755	-102.138735	-84.158633	134.061216
39854		9.740323	-0.960099	-0.157307	-0.007949	0.007231	0.018460	-102.106889	-84.148103	134.024812
39855		9.727391	-0.956545	-0.214663	-0.017616	0.012262	0.017227	-102.054943	-84.138988	133.962571
39856		9.697333	-0.983343	-0.229881	-0.025549	0.012319	0.018382	-102.005767	-84.129109	133.898565
39857		9.660405	-1.041746	-0.256710	-0.015708	0.012820	0.014062	-101.953697	-84.121822	133.837296
39858		9.690279	-1.098239	-0.226211	0.000849	0.011601	0.021498	-101.890051	-84.110088	133.773830
39859		9.668206	-1.104383	-0.251433	0.012238	0.009867	0.014794	-101.837520	-84.102030	133.728191
39860		9.667957	-1.026206	-0.263604	0.018859	0.007721	0.019833	-101.787050	-84.090759	133.688549
39861		9.696593	-0.991842	-0.224532	0.021140	0.011081	0.015897	-101.721899	-84.082216	133.635348
39862		9.688431	-1.014080	-0.213119	0.020113	0.011376	0.014603	-101.657118	-84.074297	133.581978
39863		9.666440	-1.019653	-0.238295	0.013172	0.009141	0.009368	-101.614584	-84.069182	133.546926
39864		9.690521	-1.038364	-0.254454	0.011726	0.008218	0.009818	-101.577207	-84.063576	133.516286
39865		9.696265	-1.076149	-0.206809	0.011540	0.010954	0.005040	-101.530725	-84.061093	133.476324
39866		9.701994	-1.113996	-0.158683	0.026304	0.016274	0.011053	-101.440250	-84.055710	133.400592
39867		9.708861	-1.082799	-0.145609	0.019989	0.008942	0.000208	-101.405145	-84.055703	133.376934
39868		9.716925	-1.062139	-0.154657	0.008515	0.010264	0.000194	-101.369285	-84.055723	133.346018
39869		9.700828	-1.023716	-0.146474	-0.001564	0.014088	0.000696	-101.318237	-84.056019	133.293914
39870		9.646745	-0.951209	-0.157756	-0.013356	0.011033	0.000491	-101.290348	-84.055945	133.258284
39871		9.685873	-0.996531	-0.159254	-0.021706	0.009883	0.003385	-101.270641	-84.054252	133.226089
39872		9.672046	-0.980449	-0.195216	-0.027016	0.005836	0.002476	-101.276618	-84.052466	133.216783
39873		9.659383	-0.975420	-0.252725	-0.018872	0.013300	0.003449	-101.236813	-84.051118	133.166014
39874		9.681251	-0.971194	-0.225556	-0.013678	0.006652	0.000298	-101.233003	-84.050677	133.154494
39875		9.655935	-0.942425	-0.185987	-0.008371	0.010696	0.001207	-101.203639	-84.050295	133.120272
39876		9.670890	-0.890240	-0.183649	-0.013179	0.008290	0.005265	-101.185523	-84.047237	133.094775
39877		9.693855	-0.897563	-0.178614	-0.012895	0.002395	0.008107	-101.196158	-84.042052	133.098162
39878		9.716788	-0.905183	-0.173756	-0.009454	0.004298	0.011209	-101.190981	-84.035191	133.087555
39879		9.739701	-0.913042	-0.168659	-0.018514	0.007817	0.012998	-101.170488	-84.027860	133.056407
39880		9.700443	-0.948957	-0.152345	-0.020667	0.011568	0.012346	-101.131714	-84.021185	133.005845
39881		9.657783	-0.969932	-0.226301	-0.024301	0.004126	0.014790	-101.132581	-84.012435	132.992840
39882		9.681757	-1.068881	-0.229791	-0.010637	0.009322	0.012817	-101.099673	-84.005248	132.953814
39883		9.681612	-1.070352	-0.229038	-0.006543	0.008125	0.017986	-101.065731	-83.995140	132.916038
39884		9.672202	-1.081662	-0.196416	0.009325	0.007991	0.015698	-101.025763	-83.986170	132.881465
39885		9.685933	-1.019524	-0.172306	0.009850	0.006056	0.012021	-100.999890	-83.979186	132.861246
39886		9.655864	-1.045873	-0.187961	0.007928	0.005490	0.015177	-100.974486	-83.970250	132.840165
39887		9.709837	-1.039974	-0.188037	0.004807	0.007965	0.012266	-100.941206	-83.963334	132.809592
39888		9.677462	-1.044079	-0.160097	-0.001631	0.007377	0.011993	-100.914712	-83.956388	132.781986
39889		9.708474	-1.031135	-0.164548	-0.001911	0.013272	0.009152	-100.860416	-83.951795	132.726409
39890		9.670343	-1.077723	-0.169695	-0.004753	0.009852	0.009081	-100.825973	-83.946690	132.689311
39891		9.680714	-1.079843	-0.222342	-0.006799	0.010451	0.006495	-100.792275	-83.943281	132.651629
39892		9.702482	-1.076281	-0.195235	-0.005074	0.005477	0.008887	-100.781278	-83.937866	132.637726
39893		9.709356	-1.045351	-0.182984	-0.002181	0.007318	0.007991	-100.760109	-83.933276	132.615303
39894		9.693234	-1.007729	-0.175318	0.006352	0.005726	0.009884	-100.740672	-83.927363	132.600174
39895		9.670160	-1.001839	-0.179393	0.002860	0.005405	0.007746	-100.727044	-83.922706	132.588240
39896		9.686330	-0.961302	-0.198927	0.003830	0.006681	0.010005	-100.703244	-83.916817	132.566188
39897		9.685098	-0.951093	-0.176395	0.000711	0.009158	0.007093	-100.671733	-83.912925	132.535032
39898		9.668774	-0.993252	-0.155770	-0.005397	0.001103	0.008692	-100.683992	-83.907144	132.543746
39899		9.676789	-0.973683	-0.165899	-0.006724	-0.000984	0.014880	-100.702501	-83.897790	132.558608
39900		9.717070	-0.951462	-0.203207	-0.012788	0.001229	0.013830	-100.713563	-83.889112	132.562427
39901		9.732945	-0.991397	-0.210122	-0.014340	0.003460	0.016211	-100.711693	-83.879482	132.552405
39902		9.700496	-0.995886	-0.182814	-0.022278	0.003530	0.017348	-100.712677	-83.869132	132.540857
39903		9.715161	-1.025091	-0.168033	-0.022706	0.002306	0.019086	-100.718821	-83.857760	132.534074
39904		9.717283	-1.048978	-0.211535	-0.029199	0.003295	0.019774	-100.722644	-83.846000	132.521361
39905		9.715952	-1.039647	-0.189341	-0.029101	0.011986	0.016161	-100.684877	-83.837305	132.466727
39906		9.714638	-1.030229	-0.166848	-0.024488	0.008846	0.017656	-100.659050	-83.827290	132.426453
39907		9.692649	-1.036108	-0.192666	-0.024491	0.008843	0.017653	-100.633784	-83.817416	132.387048
39908		9.694779	-1.059941	-0.235683	-0.027869	0.007349	0.021249	-100.614510	-83.805258	132.351727
39909		9.694577	-1.061917	-0.235099	-0.018534	0.009769	0.020636	-100.578362	-83.793798	132.304807
39910		9.660912	-1.055775	-0.185520	-0.013493	0.007853	0.020393	-100.548868	-83.782171	132.266771
39911		9.683690	-1.064502	-0.180136	-0.010596	0.009692	0.019501	-100.509953	-83.771336	132.221641
39912		9.722845	-1.031781	-0.194852	-0.013445	0.006275	0.019422	-100.490048	-83.760089	132.193740
39913		9.730416	-1.092726	-0.191248	-0.008670	0.010259	0.016348	-100.450366	-83.751085	132.148946
39914		9.730240	-1.094428	-0.190479	-0.014521	0.008149	0.019094	-100.421661	-83.740233	132.111161
39915		9.668888	-1.134796	-0.200828	-0.013665	0.010596	0.015618	-100.384036	-83.731669	132.065556
39916		9.642663	-1.114269	-0.294786	-0.012003	0.007188	0.018971	-100.359633	-83.720782	132.034261
39917		9.669674	-1.149188	-0.221110	-0.001211	0.010526	0.017921	-100.313315	-83.710907	131.987087
39918		9.692467	-1.157636	-0.215510	0.004313	0.008262	0.014976	-100.277798	-83.702318	131.953541
39919		9.697669	-1.196446	-0.168068	0.010703	0.010412	0.016228	-100.227068	-83.693378	131.908795
39920		9.695030	-1.102662	-0.269672	0.014032	0.013474	0.013601	-100.160855	-83.686090	131.849954
39921		9.677857	-1.054658	-0.239110	0.007382	0.019187	0.017184	-100.066766	-83.677482	131.759668
39922		9.636562	-1.159650	-0.187555	0.020144	0.009675	0.013687	-100.017212	-83.669773	131.722021
39923		9.675265	-1.206331	-0.188679	0.036028	0.009514	0.011433	-99.961421	-83.663428	131.686780
39924		9.716908	-1.194990	-0.246067	0.032432	0.012346	0.011222	-99.893762	-83.657326	131.638048
39925		9.728646	-1.110705	-0.177233	0.047188	0.015626	0.009605	-99.802363	-83.652602	131.573412
39926		9.709749	-1.058002	-0.258061	0.052549	0.018065	0.009556	-99.695535	-83.648057	131.496613
39927		9.676152	-1.050861	-0.206726	0.042407	0.023471	0.010987	-99.566151	-83.643277	131.391000
39928		9.659591	-1.093138	-0.184105	0.039018	0.020009	0.006911	-99.459787	-83.640346	131.306845
39929		9.683664	-1.111851	-0.198941	0.037184	0.016292	0.008127	-99.372478	-83.636466	131.240554
39930		9.665894	-1.143061	-0.154800	0.042439	0.021876	0.010006	-99.252403	-83.631928	131.144718
39931		9.698229	-1.141148	-0.179477	0.048060	0.016444	0.005136	-99.160757	-83.629727	131.080332
39932		9.681125	-1.092316	-0.148785	0.054639	0.014253	0.010186	-99.071992	-83.624281	131.022142
39933		9.675831	-1.056332	-0.193425	0.052111	0.015205	0.010295	-98.980300	-83.619026	130.960045
39934		9.698679	-1.064383	-0.186662	0.049152	0.014940	0.012145	-98.889936	-83.612606	130.897461
39935		9.692208	-1.017521	-0.209518	0.043040	0.018738	0.012040	-98.784483	-83.606651	130.816287
39936		9.706767	-1.046312	-0.192441	0.037619	0.017868	0.013047	-98.686015	-83.599878	130.739305
39937		9.675451	-1.061389	-0.184545	0.042231	0.026540	0.012840	-98.541399	-83.594105	130.618253
39938		9.663138	-1.057346	-0.240454	0.039214	0.014045	0.009709	-98.463808	-83.588931	130.562816
39939		9.699388	-1.081985	-0.196852	0.043435	0.021908	0.017937	-98.338486	-83.579831	130.461870
39940		9.743901	-1.086258	-0.162728	0.048204	0.025850	0.014843	-98.193569	-83.572650	130.344748
39941		9.736683	-1.119555	-0.171087	0.038132	0.029708	0.015295	-98.034572	-83.565623	130.206853
39942		9.720764	-1.082225	-0.161305	0.032295	0.025643	0.010389	-97.903260	-83.560871	130.093791
39943		9.713585	-1.115145	-0.169828	0.032181	0.028785	0.012301	-97.754930	-83.555394	129.963197
39944		9.723054	-1.106958	-0.198537	0.029714	0.028173	0.011452	-97.612483	-83.550177	129.838090
39945		9.692958	-1.133162	-0.211454	0.034901	0.035313	0.014267	-97.428994	-83.543994	129.673679
39946		9.715802	-1.141271	-0.203114	0.032652	0.028403	0.009588	-97.284531	-83.539687	129.546552
39947		9.730289	-1.170036	-0.184350	0.045160	0.038927	0.015891	-97.076607	-83.532731	129.363460
39948		9.690231	-1.114717	-0.156789	0.045694	0.036979	0.012226	-96.881170	-83.527513	129.193891
39949		9.735971	-1.129675	-0.142768	0.052539	0.038719	0.010757	-96.673860	-83.523319	129.015669
39950		9.690084	-1.117176	-0.148159	0.058452	0.039606	0.013731	-96.457516	-83.517275	128.832153
39951		9.687429	-1.096226	-0.100485	0.059012	0.038074	0.016759	-96.246993	-83.509473	128.654425
39952		9.664403	-1.090870	-0.101201	0.055587	0.036185	0.013654	-96.049902	-83.503055	128.487867
39953		9.686837	-1.008492	-0.084476	0.054093	0.037264	0.021741	-95.844573	-83.492225	128.312525
39954		9.680866	-1.053402	-0.113569	0.044809	0.032906	0.014702	-95.670588	-83.484917	128.163472
39955		9.698847	-1.025113	-0.151802	0.042667	0.036650	0.014009	-95.479686	-83.478332	127.996057
39956		9.673535	-1.088112	-0.116996	0.040089	0.039187	0.015061	-95.277385	-83.471113	127.815686
39957		9.642112	-1.103303	-0.107655	0.044664	0.036019	0.016586	-95.088090	-83.462895	127.651035
39958		9.651682	-1.095925	-0.135625	0.047734	0.033522	0.019514	-94.908748	-83.452718	127.498462
39959		9.681486	-1.073067	-0.115360	0.052571	0.036280	0.022144	-94.712277	-83.441218	127.331141
39960		9.678646	-1.052547	-0.068052	0.051492	0.038142	0.021788	-94.508182	-83.429767	127.155612
39961		9.654234	-1.036514	-0.047467	0.043187	0.035500	0.023690	-94.321651	-83.417217	126.992876
39962		9.654012	-1.038735	-0.043853	0.035442	0.030920	0.021950	-94.163731	-83.405319	126.854982
39963		9.683758	-1.016158	-0.024274	0.024134	0.029637	0.026656	-94.017267	-83.390730	126.721583
39964		9.677549	-0.971182	-0.046513	0.020941	0.035699	0.032294	-93.841397	-83.372980	126.556495
39965		9.678595	-0.985687	-0.064784	0.006354	0.029409	0.032014	-93.705883	-83.355234	126.423855
39966		9.684075	-0.945760	-0.028971	0.001833	0.031425	0.036207	-93.562653	-83.334988	126.280921
39967		9.677917	-0.992691	-0.058877	-0.003014	0.029091	0.040251	-93.433133	-83.312447	126.148901
39968		9.640352	-0.962353	-0.076644	-0.007419	0.027961	0.042546	-93.311946	-83.288411	126.022853
39969		9.678468	-0.921426	-0.068175	-0.011651	0.022544	0.048685	-93.218543	-83.260770	125.922203
39970		9.720675	-0.824433	-0.117639	-0.008981	0.017698	0.059107	-93.144949	-83.226908	125.843038
39971		9.684648	-0.626080	-0.144075	-0.011558	0.008173	0.081053	-93.113591	-83.180272	125.804912
39972		9.713147	-0.323068	-0.196673	-0.006720	-0.014949	0.098756	-93.185213	-83.122654	125.873224
39973		9.828446	0.179395	-0.241559	-0.003388	-0.024794	0.129397	-93.291690	-83.047304	125.978648
39974		9.875424	0.710378	-0.280800	-0.018124	-0.028160	0.175815	-93.407199	-82.945263	126.084940
39975		9.987663	1.261926	-0.330215	-0.032600	-0.027175	0.248076	-93.503111	-82.801909	126.162898
39976		10.170633	1.598795	-0.265383	-0.043610	-0.002881	0.337827	-93.470167	-82.608052	126.104571
39977		10.154347	1.874080	-0.182168	-0.046416	0.019769	0.435981	-93.319277	-82.358828	125.925672
39978		10.142542	2.139014	-0.097792	-0.046270	0.014314	0.543391	-93.176679	-82.048046	125.754871
39979		10.235489	2.271316	-0.164924	-0.040005	0.031820	0.666153	-92.948571	-81.667368	125.501410
39980		10.483187	2.558478	-0.284858	-0.021092	0.059378	0.815832	-92.602328	-81.201854	125.138854
39981		10.744154	2.779040	-0.488703	0.005949	0.081619	0.992567	-92.175120	-80.635108	124.709804
39982		10.976772	2.898243	-0.293086	0.108625	0.115628	1.181370	-91.609942	-79.960663	124.199299
39983		10.883780	2.702691	0.184279	0.206514	0.143296	1.362162	-90.964987	-79.181801	123.663961
39984		10.695077	2.141309	0.818288	0.286174	0.125889	1.516332	-90.400141	-78.314002	123.255230
39985		10.674914	1.417599	0.872076	0.303791	0.066244	1.633094	-90.045462	-77.378078	123.070604
39986		11.217235	0.756958	0.222620	0.228874	-0.015825	1.694797	-89.964522	-76.407252	123.122119
39987		12.520068	0.655222	-0.301643	0.280440	-0.022200	1.687272	-89.870848	-75.440166	123.191327
39988		13.648896	0.737649	0.083089	0.495963	0.039802	1.662516	-89.530376	-74.487848	123.132985
39989		13.498110	0.194679	1.107604	0.644381	0.130391	1.702256	-88.954996	-73.511288	122.918643
39990		12.512283	-0.899003	1.912981	0.604256	-0.009353	1.742445	-88.701914	-72.513760	123.015956
39991		12.426598	-0.467855	-0.088260	-0.078287	-0.161564	1.746536	-89.099297	-71.514703	123.386708
39992		12.526195	-0.972581	-1.468977	-0.387343	-0.207452	1.697770	-89.704265	-70.543804	123.791635
39993		11.892207	-1.335358	-0.162713	-0.086012	-0.156816	1.603604	-90.015151	-69.624860	124.070001
39994		10.467146	-2.601246	0.267779	-0.068319	-0.169655	1.494518	-90.310804	-68.768901	124.344270
39995		8.881147	-5.207191	0.058057	-0.060079	-0.212730	1.336495	-90.643487	-68.001760	124.665213
39996		8.058238	-6.941347	-0.532219	0.070894	-0.299431	1.061127	-91.006271	-67.391939	125.101111
39997		7.966797	-6.730230	-1.684929	0.150669	-0.320819	0.683313	-91.344247	-66.996311	125.561527
39998		8.497769	-6.306151	-1.440555	0.600700	-0.234973	0.258825	-91.314258	-66.845376	125.902936
39999		8.609317	-4.917023	0.125781	1.082200	-0.097471	-0.139727	-90.834771	-66.923948	126.055907
40000		7.845034	-3.439138	1.539347	1.184962	0.006607	-0.459000	-90.158784	-67.187382	126.059005
40001		6.861786	-2.689435	2.267330	0.989462	0.012104	-0.724555	-89.579348	-67.602137	126.045582
40002		6.410341	-2.234795	2.073925	0.712698	-0.057797	-0.979597	-89.244951	-68.164187	126.125324
40003		6.561418	-1.775591	1.287513	0.478532	-0.083843	-1.243686	-89.073071	-68.877062	126.235391
40004		6.859748	-1.311788	0.657120	0.295848	-0.051130	-1.484599	-88.949259	-69.728558	126.284171
40005		7.172357	-1.335616	0.578168	0.168094	0.018684	-1.708253	-88.776656	-70.706592	126.203229
40006		7.401742	-1.722225	0.901149	0.001993	0.107146	-1.906169	-88.526748	-71.797555	125.940459
40007		7.496401	-2.092208	1.266306	-0.207903	0.189781	-2.074829	-88.205108	-72.982475	125.478178
40008		7.524514	-2.633713	1.317673	-0.334117	0.262904	-2.223128	-87.740061	-74.250723	124.793875
40009		7.485901	-3.116755	1.196002	-0.329500	0.338215	-2.359423	-86.989658	-75.592035	123.821378
40010		7.424213	-3.550892	0.936155	-0.274440	0.421217	-2.483842	-85.802772	-76.997925	122.437900
40011		7.174532	-3.850325	0.481586	-0.226333	0.548717	-2.592626	-83.892742	-78.449267	120.350752
40012		6.493807	-3.649808	-0.158066	-0.142138	0.671510	-2.663764	-80.936829	-79.912625	117.258668
40013		5.757233	-3.115333	0.149619	0.070094	0.652179	-2.725281	-76.862201	-81.374021	113.170304
40014		5.553875	-2.405216	0.859106	0.262710	0.547575	-2.790324	-71.400571	-82.828667	107.808819
40015		5.785925	-1.675449	1.395810	0.204614	0.449686	-2.826992	-63.752322	-84.231411	100.230369
40016		6.008230	-1.130398	1.385065	-0.045390	0.370348	-2.812170	-52.287048	-85.493734	88.693732
40017		6.404766	-0.597265	1.207161	-0.337037	0.252230	-2.751689	-34.700776	-86.487731	70.872203
40018		7.029277	-0.500665	1.109285	-0.649356	0.166548	-2.635205	-9.732945	-86.984879	45.492679
40019		7.582832	-0.672004	0.904972	-0.921820	0.120233	-2.476477	16.143080	-86.835553	19.051515
40020		8.126022	-0.891995	0.383803	-1.115062	0.104822	-2.304648	34.802154	-86.206672	-0.281162
40021		8.588372	-1.111704	-0.181676	-1.260406	0.122695	-2.116677	46.033887	-85.364568	-12.266813
40022		8.966116	-1.548283	-0.595410	-1.288054	0.151672	-1.926488	52.667275	-84.470121	-19.667038
40023		9.104510	-2.146957	-0.795616	-1.128865	0.214354	-1.757853	56.649854	-83.578656	-24.321428
40024		8.866034	-2.899959	-0.724351	-0.919127	0.216950	-1.605455	59.326865	-82.733686	-27.547966
40025		8.839664	-3.508108	-0.752058	-0.623402	0.144874	-1.468868	61.539862	-81.962192	-30.141056
40026		9.008424	-3.298549	-1.149320	-0.292649	0.147189	-1.341683	63.292772	-81.242881	-32.082390
40027		9.166805	-2.611781	-1.010184	0.077164	0.175645	-1.225965	64.709941	-80.568901	-33.472676
40028		9.129786	-1.708143	-0.320463	0.368684	0.206138	-1.128696	65.883405	-79.933219	-34.448923
40029		9.162522	-1.125765	0.290231	0.484691	0.198168	-1.010021	66.873860	-79.358932	-35.173333
40030		9.197350	-1.154137	0.736360	0.482335	0.161020	-0.876391	67.727405	-78.861302	-35.761021
40031		9.111798	-1.077719	0.723998	0.454626	0.066253	-0.709713	68.579107	-78.471097	-36.363871
40032		9.023164	-0.893290	0.193256	0.463960	-0.037864	-0.512378	69.463910	-78.205972	-36.995798
40033		8.918315	-0.585742	-0.139545	0.639901	-0.108155	-0.318770	70.417293	-78.056945	-37.595236
40034		8.812409	0.240435	-0.178788	0.860274	-0.140914	-0.148582	71.412824	-78.004111	-38.108929
40035		8.637886	1.212701	-0.193469	0.984345	-0.154673	0.006526	72.380090	-78.036402	-38.521060
40036		8.291524	1.938166	0.209302	0.991947	-0.145947	0.137203	73.228650	-78.137396	-38.807325
40037		7.965261	2.270278	0.583494	0.821115	-0.142093	0.220984	73.913809	-78.282992	-39.026521
40038		7.708452	2.010172	0.607508	0.543268	-0.142241	0.259736	74.420880	-78.449502	-39.226311
40039		7.668294	1.265349	0.277565	0.348841	-0.141585	0.256759	74.826604	-78.613938	-39.436232
40040		7.804615	0.236517	-0.124019	0.308283	-0.137180	0.219492	75.232984	-78.756794	-39.670415
40041		8.066578	-0.745411	-0.447531	0.410357	-0.118344	0.180831	75.681457	-78.875153	-39.887777
40042		8.340676	-1.510055	-0.389501	0.590355	-0.151194	0.162166	76.347647	-78.987322	-40.221800
40043		8.872209	-1.846260	-0.287383	0.872997	-0.202069	0.194479	77.312906	-79.123181	-40.695360
40044		9.363959	-1.836952	-0.159955	1.211188	-0.211596	0.246744	78.486718	-79.287918	-41.183695
40045		9.204413	-1.378631	0.266059	1.397800	-0.333520	0.278686	80.145591	-79.481125	-42.056499
40046		9.490720	-0.520169	0.323467	1.455922	-0.363523	0.314396	81.961212	-79.692512	-43.054185
40047		9.546688	0.595255	0.834925	1.414886	-0.315871	0.397446	83.627391	-79.941849	-43.923257
40048		9.330152	0.910766	0.744231	1.366861	-0.357681	0.501698	85.437233	-80.248463	-44.965278
40049		9.573989	0.914622	0.368792	1.373682	-0.353725	0.623845	87.306328	-80.618566	-46.062437
40050		9.802756	1.092821	0.428045	1.281393	-0.333722	0.790040	89.156833	-81.077709	-47.192936
40051		10.146955	1.371603	0.641691	1.209352	-0.305202	0.969789	91.023794	-81.633474	-48.380336
40052		10.023515	1.451353	0.649009	1.157746	-0.219299	1.120832	92.743869	-82.271826	-49.447354
40053		9.561877	-0.115512	0.794534	1.118420	-0.118377	1.254280	94.269037	-82.985204	-50.338936
40054		8.138118	-0.849556	-0.442053	0.815639	-0.494459	1.539307	98.014831	-83.832570	-53.638898
40055		9.628876	6.083265	-6.089849	-0.841382	-0.999237	1.813800	105.264125	-84.736806	-61.408429
40056		13.870788	11.994249	-8.955262	-0.660410	-1.341281	1.776785	117.553008	-85.407811	-74.121898
40057		18.341812	13.074391	7.236388	-0.837584	-0.362843	1.430937	125.155788	-86.000152	-82.227055
40058		13.376401	1.266489	6.748800	-1.898025	0.112663	1.083472	129.057205	-86.533280	-87.226403
40059		13.829547	-0.103926	-3.644872	-2.799047	-0.685096	1.095518	139.697284	-86.706738	-99.491278
40060		16.518199	-1.273479	-1.653262	-1.082360	-0.670796	1.371835	154.492090	-86.809921	-114.930537
40061		20.412076	2.996853	5.058924	0.872610	-0.603064	1.518122	171.598659	-86.729722	-131.563057
40062		26.416648	12.239363	5.134044	1.226632	-0.006635	1.387426	-173.728219	-86.738164	-145.555764
40063		24.595673	10.143785	0.911327	-0.482501	0.134601	1.031392	-163.629315	-86.694856	-155.947968
40064		13.960240	4.488954	6.700037	-0.543291	0.755163	0.779594	-153.637157	-86.933741	-166.267256
40065		5.162033	-0.899683	0.550444	-1.553631	-0.627928	1.063774	-148.448050	-86.320429	-172.356860
40066		7.368379	-7.526475	-10.643048	-3.389989	-1.091476	1.442505	-145.567697	-85.343133	-177.192208
40067		7.152693	-12.023152	-8.999715	-2.139977	-0.499152	1.450754	-141.157613	-84.614336	177.150126
40068		5.145570	-12.173532	-7.922216	-1.020968	-0.167458	0.955280	-138.137212	-84.184494	173.527567
40069		4.445415	-10.687835	-5.213218	-0.018845	0.171028	0.167835	-136.816528	-84.189462	172.189326
40070		7.755337	-8.794031	-1.593872	0.523546	0.195490	-0.318104	-137.099111	-84.393308	172.774964
40071		11.954390	-8.217156	0.180069	0.844759	0.176415	-0.481220	-138.042428	-84.651695	174.208959
40072		13.009245	-5.481867	0.975071	0.888530	0.194371	-0.457951	-138.888193	-84.906447	175.569714
40073		11.623248	-1.989490	1.511289	0.688686	0.137595	-0.320209	-139.508189	-85.083712	176.588303
40074		10.235889	1.740638	1.876605	0.574841	-0.047606	-0.205784	-140.451471	-85.135998	177.865880
40075		9.980664	4.324886	0.528670	0.031525	-0.188388	-0.093982	-141.732020	-85.083471	179.169358
40076		9.264618	4.469949	-0.741846	-0.541707	-0.122079	-0.096213	-143.055248	-85.059121	-179.813779
40077		8.306427	3.313124	-1.209886	-0.841426	-0.026833	-0.196821	-144.717165	-85.110750	-178.629487
40078		8.381720	1.342745	-1.345196	-0.860949	-0.033873	-0.253387	-146.762154	-85.173877	-177.071983
40079		9.076032	-0.390259	-1.087549	-0.597860	-0.040819	-0.241092	-148.657491	-85.225404	-175.513608
40080		9.895742	-1.622130	-0.917197	-0.250243	-0.060454	-0.164273	-149.993493	-85.241003	-174.316645
40081		9.950799	-1.805905	-0.580917	0.098159	-0.076784	-0.094558	-150.775078	-85.226979	-173.475789
40082		9.995928	-0.646063	-0.781696	0.366139	-0.103110	-0.029524	-151.092163	-85.180890	-172.946858
40083		10.002592	0.589315	-0.815312	0.574302	-0.115409	0.015045	-151.062557	-85.116281	-172.646214
40084		9.872927	1.694316	-0.649357	0.603010	-0.094757	0.034647	-150.830361	-85.056518	-172.532283
40085		9.745093	2.160014	-0.675461	0.459396	-0.077292	0.079769	-150.370979	-84.992946	-172.729070
40086		9.943163	2.004769	-0.680385	0.260330	-0.055548	0.125756	-149.703692	-84.926776	-173.249023
40087		10.081875	1.099263	-0.334779	0.119309	-0.034235	0.160681	-148.873542	-84.860362	-174.013727
40088		10.026807	-0.173812	-0.051714	0.020555	-0.026099	0.174040	-148.020156	-84.792890	-174.858611
40089		9.797080	-0.974420	-0.583733	-0.084201	-0.030439	0.189525	-147.183716	-84.717482	-175.746892
40090		9.515016	-1.479646	-0.900184	-0.080733	-0.048803	0.209672	-146.327965	-84.625729	-176.652646
40091		9.512890	-1.648406	-0.957369	0.014567	-0.069870	0.196188	-145.587290	-84.527165	-177.388144
40092		9.646195	-1.159586	-1.127988	0.065374	-0.048032	0.180591	-144.843255	-84.443030	-178.097829
40093		9.628002	-0.792335	-1.140072	0.068898	-0.037674	0.168181	-144.143939	-84.367058	-178.760706
40094		9.574771	-0.557868	-0.955488	0.043819	-0.051175	0.144657	-143.629748	-84.292029	-179.252011
40095		9.693175	-0.324346	-0.737198	0.024660	-0.061850	0.124790	-143.267494	-84.218571	-179.601771
40096		9.800930	0.080679	-0.683224	-0.035836	-0.060189	0.129708	-142.919423	-84.143891	-179.972101
40097		9.876394	0.210431	-0.804731	-0.135670	-0.069234	0.143080	-142.610650	-84.060311	179.639458
40098		9.915608	0.042487	-0.799577	-0.204684	-0.039598	0.149985	-142.221033	-83.987472	179.129972
40099		9.813710	-0.381875	-0.753615	-0.242682	-0.036549	0.153864	-141.838760	-83.914348	178.605856
40100		9.647395	-0.908695	-0.619270	-0.246097	-0.034475	0.150830	-141.473623	-83.842822	178.096983
40101		9.497185	-1.445996	-0.938407	-0.260549	-0.048326	0.156017	-141.152568	-83.762975	177.624003
40102		9.432968	-1.721302	-1.274218	-0.244503	-0.070037	0.136039	-140.982155	-83.680361	177.311803
40103		9.452232	-1.799692	-1.043122	-0.127136	-0.085661	0.093730	-140.970561	-83.606068	177.226965
40104		9.584282	-1.622360	-0.820057	-0.091110	-0.089509	0.057824	-141.091405	-83.542912	177.296229
40105		9.614757	-1.826306	-0.852267	-0.129842	-0.085371	0.032174	-141.321378	-83.490883	177.452931
40106		9.485314	-2.194678	-0.758204	-0.089963	-0.085906	-0.002609	-141.661316	-83.450821	177.743406
40107		9.546270	-2.225084	-0.890269	-0.065123	-0.094832	-0.041799	-142.165627	-83.420455	178.213608
40108		9.594749	-1.941389	-0.951200	-0.022109	-0.087733	-0.068093	-142.720953	-83.401861	178.760089
40109		9.624236	-1.427441	-1.034368	-0.005223	-0.107184	-0.083088	-143.382299	-83.378998	179.422970
40110		9.623737	-1.042084	-0.956436	0.009096	-0.116932	-0.101694	-144.130778	-83.356840	-179.818037
40111		9.653526	-0.708882	-0.307005	0.116720	-0.122279	-0.122532	-144.913554	-83.338099	-178.962502
40112		9.789358	-0.535588	-0.469719	-0.007459	-0.108848	-0.133057	-145.765822	-83.327561	-178.108507
40113		9.778160	-0.485954	-0.871360	-0.108697	-0.101280	-0.131172	-146.647533	-83.318667	-177.283357
40114		9.807317	-0.242785	-1.074519	-0.144264	-0.100993	-0.128260	-147.531970	-83.307401	-176.475858
40115		9.809633	-0.018362	-1.123620	-0.177437	-0.090091	-0.118937	-148.368249	-83.297306	-175.736073
40116		9.622982	-0.102544	-1.047355	-0.189928	-0.085350	-0.117865	-149.190535	-83.287854	-175.017470
40117		9.526712	-0.191926	-1.081177	-0.188270	-0.087220	-0.113680	-149.998840	-83.275182	-174.312069
40118		9.400523	-0.507200	-1.267051	-0.159765	-0.094392	-0.106512	-150.772327	-83.255666	-173.625166
40119		9.553254	-0.413668	-1.154768	-0.051569	-0.102187	-0.094358	-151.448248	-83.227959	-172.974147
40120		9.702102	-0.205902	-1.195207	-0.001710	-0.098152	-0.070504	-151.977739	-83.194904	-172.441687
40121		9.666367	0.036162	-1.116597	0.047868	-0.098588	-0.046788	-152.376423	-83.154877	-172.012413
40122		9.706295	0.033258	-1.065689	0.056748	-0.096045	-0.036653	-152.714925	-83.113044	-171.638505
40123		9.682408	0.127806	-1.128565	0.030129	-0.089950	-0.021493	-152.989589	-83.070210	-171.344320
40124		9.668525	0.000848	-1.062493	0.008917	-0.085032	-0.000042	-153.170955	-83.024099	-171.156259
40125		9.653501	-0.350592	-0.978931	0.049468	-0.085952	0.005828	-153.306086	-82.976025	-170.991435
40126		9.705354	-0.552294	-1.151902	0.064875	-0.067773	0.013194	-153.360618	-82.935253	-170.898833
40127		9.823274	-0.531479	-1.256669	0.079802	-0.062384	0.026943	-153.339902	-82.893782	-170.873510
40128		9.841201	-0.387094	-1.348877	0.041076	-0.053084	0.031161	-153.303288	-82.855908	-170.886491
40129		9.751958	-0.348677	-1.377300	-0.024909	-0.035859	0.027721	-153.285075	-82.827816	-170.919107
40130		9.738302	-0.552151	-1.432044	-0.071169	-0.026525	0.022248	-153.295044	-82.805826	-170.949960
40131		9.651874	-0.974694	-1.301705	-0.050850	-0.042154	0.010830	-153.372950	-82.778857	-170.900677
40132		9.608295	-1.204532	-1.171029	0.027995	-0.036137	-0.004675	-153.454071	-82.758842	-170.802536
40133		9.614048	-1.171564	-1.165385	0.050486	-0.045535	-0.009753	-153.562687	-82.735382	-170.663761
40134		9.764103	-0.811297	-1.126114	0.088885	-0.040987	-0.003606	-153.613089	-82.712559	-170.561400
40135		9.843768	-0.374452	-0.990179	0.107241	-0.028049	0.007339	-153.584765	-82.693690	-170.527886
40136		9.822014	-0.074351	-0.886883	0.093373	-0.017239	0.024318	-153.473405	-82.675929	-170.586012
40137		9.727638	0.042156	-1.128700	0.023252	-0.013051	0.036765	-153.346481	-82.657212	-170.700428
40138		9.632108	-0.015155	-1.268306	-0.002968	-0.019063	0.042593	-153.222508	-82.633792	-170.826941
40139		9.654628	-0.136439	-1.258036	-0.009133	-0.018406	0.052217	-153.065237	-82.608270	-170.990680
40140		9.676262	-0.296743	-1.508569	0.015410	-0.006404	0.073393	-152.786525	-82.583178	-171.262634
40141		9.616410	-0.285828	-1.803020	0.066128	0.003159	0.083927	-152.421747	-82.560070	-171.592167
40142		9.554675	0.013265	-1.559920	0.131680	-0.003794	0.095678	-151.989186	-82.529897	-171.952131
40143		9.648361	0.381344	-1.220091	0.176313	-0.019712	0.118505	-151.481307	-82.485222	-172.362372
40144		9.712659	0.695967	-0.935500	0.133599	-0.010100	0.134879	-150.920243	-82.440253	-172.850926
40145		9.767249	0.679513	-0.765118	0.045582	0.006170	0.148040	-150.333136	-82.399174	-173.416740
40146		9.716503	0.413136	-1.012597	-0.050589	-0.000575	0.172092	-149.732251	-82.347014	-174.052062
40147		9.672400	-0.110466	-1.192993	-0.059974	-0.004700	0.183586	-149.113165	-82.288653	-174.711306
40148		9.659744	-0.470191	-1.131201	-0.073577	0.005573	0.197703	-148.437796	-82.230075	-175.435269
40149		9.644177	-0.893948	-1.173697	-0.045018	0.016575	0.215127	-147.671427	-82.170407	-176.234706
40150		9.658198	-0.991094	-1.241015	0.001448	0.018995	0.233763	-146.819956	-82.104535	-177.093259
40151		9.757473	-0.764468	-1.162072	0.046356	0.019161	0.243447	-145.924513	-82.033955	-177.970408
40152		9.774854	-0.752151	-1.039360	0.038473	0.029612	0.242117	-145.028853	-81.966783	-178.852448
40153		9.702530	-0.960312	-1.038009	0.020183	0.033859	0.220872	-144.218488	-81.906898	-179.659101
40154		9.629343	-1.166826	-1.235362	-0.042997	0.030393	0.203086	-143.521037	-81.849860	179.611659
40155		9.604530	-1.497963	-1.274369	-0.107515	0.023956	0.193406	-142.917089	-81.792098	178.939393
40156		9.641698	-1.724090	-1.009016	-0.062557	0.007185	0.182383	-142.370648	-81.729483	178.351205
40157		9.737421	-1.946997	-1.002754	-0.004576	-0.001846	0.163729	-141.879508	-81.668676	177.852339
40158		9.785016	-2.170625	-1.221736	0.072765	-0.017468	0.155233	-141.414245	-81.603163	177.424393
40159		9.785339	-1.807163	-1.276842	0.134217	-0.015069	0.164887	-140.886930	-81.534823	176.969181
40160		9.493738	-1.373586	-1.081904	0.211771	-0.005980	0.170519	-140.283611	-81.467667	176.482038
40161		9.369615	-0.675911	-0.851670	0.303170	-0.028421	0.171529	-139.689575	-81.389680	176.057081
40162		9.477872	-0.127259	-0.742141	0.268825	-0.034027	0.178768	-139.116546	-81.305777	175.633446
40163		9.692932	0.259257	-0.597739	0.185592	-0.033490	0.182764	-138.588981	-81.220129	175.207396
40164		9.758132	0.236637	-0.714943	0.053707	-0.020434	0.195809	-138.077336	-81.134410	174.720946
40165		9.724322	-0.083865	-1.075550	-0.035824	-0.011106	0.207507	-137.572803	-81.047601	174.189599
40166		9.683751	-0.503137	-1.404806	-0.078742	-0.019490	0.221924	-137.084636	-80.950873	173.649836
40167		9.604114	-0.953657	-1.515614	-0.056965	-0.030242	0.236442	-136.584366	-80.843316	173.110255
40168		9.393622	-1.066154	-1.686812	0.038526	-0.067746	0.249973	-136.098371	-80.714049	172.640424
40169		9.655506	-0.718214	-1.761328	0.138885	-0.119126	0.271481	-135.639792	-80.554537	172.256424
40170		9.927320	-0.098576	-1.292696	0.270376	-0.097719	0.309320	-134.978186	-80.387802	171.742806
40171		9.750037	0.380518	-0.777681	0.319209	-0.070557	0.351344	-134.147066	-80.213830	171.085305
40172		9.716569	0.935988	-0.777749	0.228387	-0.075317	0.394729	-133.307443	-80.018354	170.366008
40173		9.735923	1.329679	-0.712540	0.098863	-0.066703	0.457414	-132.416194	-79.798123	169.518413
40174		9.647351	1.053186	-0.514756	-0.002647	-0.064142	0.519374	-131.485540	-79.550141	168.571020
40175		9.725455	0.557449	-0.738355	-0.104021	-0.050582	0.569888	-130.525143	-79.282638	167.533499
40176		9.763985	0.159253	-1.251000	-0.220253	-0.024512	0.618866	-129.528217	-79.000105	166.390002
40177		9.718630	0.144860	-1.592822	-0.271110	-0.017620	0.664254	-128.517159	-78.696050	165.201292
40178		9.638857	-0.286775	-1.506280	-0.284144	-0.022831	0.687286	-127.544142	-78.375936	164.042435
40179		9.464223	-1.182280	-0.907086	-0.221105	-0.034032	0.698360	-126.599020	-78.042971	162.947657
40180		9.163037	-1.847893	-0.842235	-0.123667	-0.048216	0.728147	-125.639362	-77.687890	161.893667
40181		9.085567	-1.375023	-0.912157	-0.077894	-0.074320	0.788769	-124.676940	-77.291997	160.862256
40182		9.073530	-0.720489	-0.699475	-0.064515	-0.083486	0.843965	-123.710991	-76.863432	159.833362
40183		9.187327	-0.318216	-0.892891	-0.168131	-0.117703	0.866937	-122.904953	-76.409455	158.906011
40184		9.411804	-0.702180	-0.487496	0.235276	-0.076458	0.854113	-121.863068	-75.971126	157.971996
40185		9.180771	0.093862	-3.274886	-0.852473	-0.181778	0.943003	-121.591806	-75.455038	157.188188
40186		9.679148	-3.140267	-1.471279	-0.495584	0.027635	0.915382	-120.802084	-75.013080	156.077893
40187		8.565527	-2.866371	-1.420859	-0.556622	-0.140665	0.884543	-120.435265	-74.534170	155.367335
40188		8.831019	-4.707903	-2.713033	-0.804272	-0.048841	0.839277	-120.126399	-74.103288	154.567951
40189		7.988269	-5.507817	-1.273262	-0.431034	-0.062249	0.794027	-119.701983	-73.689480	153.869282
40190		8.286868	-5.065755	-1.169450	-0.191843	-0.108882	0.741294	-119.297030	-73.287525	153.332348
40191		9.036781	-3.684061	-0.678210	0.028898	-0.054994	0.721731	-118.718337	-72.908947	152.744965
40192		9.446507	-2.519475	-0.209878	0.076376	-0.039719	0.706136	-118.126802	-72.540718	152.171423
40193		9.550958	-1.751250	-0.746220	-0.043857	-0.096671	0.724136	-117.702352	-72.146555	151.699750
40194		9.661189	-1.905325	-1.040117	-0.317216	-0.094661	0.746102	-117.431508	-71.740985	151.223821
40195		9.292425	-2.637533	-1.314872	-0.471049	-0.091637	0.726004	-117.275072	-71.345816	150.774506
40196		8.965443	-2.822419	-1.916596	-0.487865	-0.087471	0.691530	-117.160643	-70.969063	150.358349
40197		8.976564	-3.153644	-1.742173	-0.443424	-0.094784	0.667877	-117.059406	-70.602118	149.982218
40198		9.061535	-3.346113	-1.319913	-0.338065	-0.082086	0.652895	-116.899984	-70.245924	149.607544
40199		8.979464	-3.581662	-1.429885	-0.304609	-0.092589	0.639352	-116.755237	-69.893526	149.268059
40200		9.096882	-3.118656	-1.513486	-0.280475	-0.081418	0.653584	-116.580008	-69.536458	148.910033
40201		8.732231	-2.641934	-0.986887	-0.207942	-0.106321	0.703575	-116.373002	-69.146911	148.561605
40202		8.590583	-2.885400	-0.418671	-0.069675	-0.162186	0.757046	-116.136946	-68.715328	148.265974
40203		8.217069	-3.702161	-0.269386	0.027433	-0.188093	0.776622	-115.877575	-68.266630	148.004217
40204		8.544515	-3.299554	-1.059985	0.112666	-0.265165	0.779517	-115.676119	-67.796930	147.856729
40205		9.655606	-2.114321	-1.632412	0.229046	-0.258817	0.765221	-115.416429	-67.335894	147.717890
40206		10.235044	-0.762807	-1.437987	0.169042	-0.239426	0.781294	-115.165650	-66.871144	147.550929
40207		10.218224	0.086797	-1.870671	-0.117112	-0.266400	0.858023	-115.074928	-66.359740	147.379118
40208		9.977166	-0.169948	-2.040726	-0.325408	-0.300410	0.972153	-115.085689	-65.781002	147.186998
40209		9.485008	-1.049560	-2.657806	-0.554902	-0.305284	1.078860	-115.180335	-65.145599	146.941677
40210		8.845694	-2.359761	-3.066213	-0.699036	-0.261202	1.117321	-115.293101	-64.501503	146.623757
40211		7.945192	-3.565766	-2.500576	-0.611569	-0.249597	1.115571	-115.350289	-63.861072	146.298163
40212		7.372603	-4.607743	-2.155937	-0.381751	-0.309084	1.079396	-115.363097	-63.225152	146.068173
40213		7.360739	-5.924189	-1.866911	-0.276964	-0.335960	1.030274	-115.371737	-62.607795	145.899782
40214		7.553653	-6.566230	-1.277965	-0.062029	-0.344803	0.981636	-115.293393	-62.013646	145.771209
40215		8.180632	-5.989335	-0.870843	0.384843	-0.359950	0.984472	-114.978773	-61.413904	145.664466
40216		9.137757	-4.753250	-0.486978	0.601540	-0.330111	1.034208	-114.500169	-60.795276	145.511563
40217		9.399283	-3.545034	-0.535751	0.644923	-0.346070	1.081511	-114.004450	-60.147400	145.366664
40218		10.055269	-1.336403	-1.128904	0.613884	-0.407858	1.144508	-113.569538	-59.451868	145.270528
40219		11.078248	-1.033344	-0.939163	0.374986	-0.382643	1.226293	-113.228531	-58.718546	145.123629
40220		10.606579	-2.678595	-2.048571	-0.094085	-0.410821	1.293489	-113.163638	-57.943559	144.984111
40221		9.206164	-4.451557	-3.221633	-0.340468	-0.383666	1.371701	-113.193682	-57.133133	144.788665
40222		7.590487	-5.844230	-3.284456	-0.265906	-0.394753	1.448334	-113.168733	-56.280247	144.576584
40223		6.410710	-6.991599	-3.342870	-0.063772	-0.360620	1.434127	-113.013653	-55.441938	144.345224
40224		5.342869	-7.453192	-3.602233	0.096289	-0.299824	1.333677	-112.762967	-54.670072	144.106753
40225		4.897329	-6.737103	-3.106752	0.332764	-0.237618	1.196548	-112.384007	-53.983372	143.875115
40226		5.236209	-5.778355	-2.487074	0.376370	-0.226714	1.079510	-112.017289	-53.360466	143.687663
40227		5.689412	-5.973649	-2.601632	0.200119	-0.199026	0.996848	-111.763134	-52.786619	143.513321
40228		5.984258	-5.676125	-2.902297	0.022375	-0.149419	0.960166	-111.592165	-52.242563	143.314096
40229		6.464680	-5.533456	-2.452509	-0.039519	-0.144914	0.979188	-111.453367	-51.688843	143.109286
40230		7.312813	-5.492534	-2.147597	-0.067681	-0.135319	1.005366	-111.322388	-51.122976	142.892168
40231		7.957841	-5.567693	-2.115563	-0.107733	-0.111157	1.000519	-111.204527	-50.564314	142.660728
40232		8.175910	-5.686708	-2.175308	-0.160506	-0.119422	0.975306	-111.133212	-50.017291	142.448561
40233		8.168321	-5.880792	-2.170727	-0.182935	-0.156902	0.977607	-111.101480	-49.461062	142.269789
40234		8.003044	-6.310630	-1.809601	-0.113471	-0.195028	1.000373	-111.051369	-48.884859	142.117720
40235		7.902687	-7.166662	-1.822325	0.009139	-0.224544	1.042095	-110.942375	-48.280006	141.979525
40236		7.537462	-7.400729	-2.072445	0.176088	-0.214539	1.070664	-110.729466	-47.661774	141.828823
40237		7.209657	-6.989174	-2.037376	0.320660	-0.200617	1.077094	-110.429561	-47.042317	141.671039
40238		6.838527	-6.396560	-2.067228	0.388499	-0.174372	1.065108	-110.084520	-46.434034	141.503025
40239		6.408828	-5.917121	-1.844241	0.408951	-0.170873	1.057886	-109.733654	-45.829519	141.341528
40240		6.003374	-5.856327	-2.040335	0.305698	-0.206143	1.059786	-109.466743	-45.216717	141.213072
40241		5.842762	-6.216839	-2.397319	0.218974	-0.243907	1.056396	-109.274897	-44.598105	141.119215
40242		6.385380	-5.791527	-2.659086	0.253574	-0.253213	1.041879	-109.074292	-43.985471	141.040145
40243		7.123013	-5.572450	-2.685816	0.205289	-0.240520	1.038270	-108.898504	-43.376878	140.956104
40244		7.258949	-5.995049	-3.389268	0.088708	-0.228585	1.069933	-108.780724	-42.753286	140.858171
40245		7.262305	-5.903849	-3.416593	0.089534	-0.184235	1.129417	-108.633230	-42.105281	140.715775
40246		7.358062	-6.138476	-3.195943	0.118509	-0.143899	1.193870	-108.443090	-41.429448	140.532332
40247		7.120758	-6.930540	-3.642133	0.103988	-0.079744	1.259095	-108.225526	-40.729077	140.292100
40248		6.476894	-7.420144	-4.012970	0.140133	-0.008575	1.315720	-107.952341	-40.009923	139.994316
40249		6.087892	-7.697446	-4.037486	0.204013	0.062489	1.340628	-107.614706	-39.288249	139.648569
40250		6.047578	-8.636290	-3.806990	0.245003	0.131079	1.313982	-107.236342	-38.591407	139.269883
40251		5.970508	-9.414128	-3.458368	0.390793	0.232141	1.264438	-106.746962	-37.936277	138.841417
40252		6.032975	-9.624418	-3.220265	0.466123	0.308720	1.206351	-106.200067	-37.322590	138.383049
40253		6.488606	-8.968253	-3.016200	0.463693	0.381396	1.144708	-105.641843	-36.750715	137.897568
40254		7.410213	-8.159996	-2.177890	0.442922	0.432757	1.053443	-105.094866	-36.233420	137.404485
40255		8.295166	-7.547484	-1.826470	0.356948	0.426533	0.950787	-104.618954	-35.768473	136.942984
40256		8.739383	-7.627002	-1.558048	0.112765	0.402836	0.903574	-104.304211	-35.323892	136.512645
40257		8.741521	-8.243064	-1.382574	-0.028781	0.327297	0.927763	-104.103025	-34.853555	136.134189
40258		8.839835	-8.866702	-1.334007	0.018421	0.252569	0.976648	-103.904050	-34.344821	135.802286
40259		8.512699	-9.507913	-1.286981	0.135628	0.225021	1.004845	-103.650469	-33.815344	135.488649
40260		7.554009	-9.984702	-1.290368	0.311095	0.204569	1.027492	-103.307428	-33.269460	135.190361
40261		6.796579	-9.648277	-1.296029	0.544731	0.173641	1.024346	-102.847719	-32.719307	134.919545
40262		6.559480	-8.776875	-0.949936	0.829023	0.156423	0.986047	-102.240691	-32.186650	134.673505
40263		6.543553	-8.191538	-0.383202	0.996122	0.141643	0.909028	-101.554996	-31.692813	134.456441
40264		6.452596	-7.801640	0.064099	1.002046	0.118425	0.838014	-100.884502	-31.234498	134.271889
40265		6.069401	-7.248608	0.351827	0.908994	0.002416	0.784106	-100.314631	-30.792294	134.176922
40266		6.569276	-6.744486	0.146102	0.747794	-0.129970	0.731441	-99.887485	-30.366202	134.179646
40267		7.464039	-6.986383	0.218388	0.669316	-0.100269	0.685508	-99.499870	-29.968544	134.171684
40268		7.872389	-7.295367	0.527236	0.446987	0.009978	0.578250	-99.211005	-29.642252	134.105994
40269		8.225000	-7.571263	-0.058567	0.189474	0.034023	0.451010	-99.069676	-29.389421	134.039727
40270		8.278793	-8.079401	-0.313362	0.027977	0.071468	0.380809	-99.012971	-29.180199	133.956860
40271		8.627648	-8.227751	-0.747304	-0.017131	0.045295	0.318794	-98.993962	-29.003062	133.897827
40272		9.063197	-8.319510	-1.217834	-0.065487	0.122718	0.256490	-98.981577	-28.868836	133.794993
40273		8.787483	-8.496905	-1.714816	-0.185964	0.210711	0.190795	-99.014425	-28.778953	133.642376
40274		7.930147	-8.479233	-1.882089	-0.195269	0.246754	0.128873	-99.044503	-28.728292	133.472611
40275		6.599970	-8.254865	-1.959897	-0.150778	0.267240	0.020402	-99.048301	-28.740028	133.301067
40276		5.182353	-7.983408	-1.856847	-0.223504	0.240921	-0.121797	-99.108706	-28.830873	133.160813
40277		3.866807	-8.118569	-1.536135	-0.223108	0.186760	-0.274714	-99.193338	-29.002487	133.071724
40278		2.382673	-7.573345	-1.553699	-0.350624	0.130194	-0.431777	-99.376668	-29.258816	133.035864
40279		0.894348	-8.537363	-1.819869	-0.602886	0.058788	-0.599902	-99.736911	-29.602538	133.066260
40280		-0.603480	-10.189989	-1.591252	-0.110073	0.009277	-0.747323	-99.839964	-30.025420	133.146889
40281		-2.003720	-7.809148	-4.142245	-0.088558	-0.134893	-0.953411	-99.991519	-30.549381	133.347023
40282		-1.742552	-8.449903	-4.831753	0.354287	-0.018661	-1.282072	-99.872086	-31.270911	133.509843
40283		-0.547690	-7.925985	-1.582704	1.626061	0.180528	-1.793457	-98.982974	-32.300727	133.590902
40284		0.638357	-5.886312	-0.208941	1.977664	0.252401	-2.386074	-97.888754	-33.673926	133.662523
40285		1.968275	-3.904176	0.643055	1.824146	0.292317	-2.928270	-96.879286	-35.358571	133.725850
40286		3.016183	-2.549409	1.911112	1.800590	0.372425	-3.300118	-95.847522	-37.261089	133.725961
40287		3.433788	-2.232670	2.155135	1.600930	0.377389	-3.482220	-94.909865	-39.267092	133.693387
40288		3.562567	-2.747742	1.175655	1.144909	0.372724	-3.572984	-94.213392	-41.324594	133.631092
40289		3.200300	-3.843565	0.273757	0.728640	0.367557	-3.603057	-93.737120	-43.398063	133.544102
40290		2.912970	-4.909054	-0.417965	0.506250	0.390258	-3.665207	-93.357892	-45.507790	133.417042
40291		2.822072	-5.054467	-0.631276	0.466120	0.439396	-3.781153	-92.953828	-47.684285	133.228725
40292		3.104312	-4.390732	-0.430956	0.309639	0.460531	-3.925530	-92.602540	-49.943482	132.997931
40293		3.716234	-3.344266	0.241586	-0.090422	0.492247	-4.061830	-92.435017	-52.280401	132.716355
40294		4.367554	-2.420782	0.675969	-0.658982	0.545930	-4.187031	-92.534295	-54.690571	132.370262
40295		5.145633	-1.961917	0.611617	-1.288983	0.599287	-4.299041	-92.943687	-57.166830	131.973014
40296		6.265539	-1.865097	0.060353	-1.880057	0.662278	-4.403171	-93.644260	-59.707143	131.531051
40297		7.691483	-2.486453	-0.956952	-2.327010	0.794753	-4.501460	-94.492946	-62.311504	130.977058
40298		9.153864	-3.994324	-1.661349	-2.449470	1.033727	-4.621490	-95.159531	-64.999715	130.154846
40299		10.402897	-6.037616	-1.974328	-2.329636	1.337928	-4.767138	-95.324575	-67.789180	128.878511
40300		11.567933	-7.798246	-2.811751	-2.113063	1.635553	-4.828265	-94.721035	-70.627146	126.938311
40301		11.940586	-8.577141	-4.344917	-1.871774	1.907098	-4.706917	-93.003226	-73.391768	124.005420
40302		11.113821	-8.726370	-4.390666	-1.315075	1.958936	-4.427047	-89.905664	-75.957276	120.013421
40303		10.091053	-8.249848	-2.897415	-0.534938	1.768819	-4.101751	-85.373524	-78.265540	115.050960
40304		9.558523	-7.464191	-1.780915	0.044999	1.490312	-3.791252	-79.360609	-80.308005	108.958894
40305		9.856659	-6.564416	-1.346465	0.449744	1.197894	-3.544869	-71.518576	-82.105608	101.285705
40306		10.639266	-5.576031	-1.183796	0.837299	0.959432	-3.399429	-60.695006	-83.670882	90.863275
40307		11.438039	-4.375056	-1.043302	1.187433	0.786286	-3.308646	-44.928788	-84.921041	75.704288
40308		11.926493	-2.700910	-0.409607	1.461344	0.645926	-3.183598	-23.161537	-85.649807	54.705509
40309		11.847621	-0.821775	0.430585	1.656910	0.507166	-3.008808	1.041805	-85.698939	31.387092
40310		11.343857	0.842721	1.260157	1.661945	0.338965	-2.790329	21.306463	-85.194474	12.015109
40311		10.855509	1.897713	1.555094	1.480662	0.114017	-2.498699	35.736616	-84.450809	-1.621352
40312		10.425906	2.191161	1.361545	1.274048	-0.036285	-2.170211	45.669894	-83.655793	-10.873786
40313		10.190346	2.079206	1.112916	1.051792	-0.155768	-1.823560	52.672009	-82.924478	-17.317041
40314		10.325831	1.595932	0.657534	0.839039	-0.223956	-1.503110	57.768826	-82.292007	-21.971489
40315		10.270724	1.238468	0.490833	0.699547	-0.258567	-1.243138	61.661777	-81.753095	-25.497564
40316		10.359105	1.176227	0.356854	0.700693	-0.272110	-1.026651	64.792045	-81.299936	-28.256243
40317		10.721093	1.610000	-0.025796	0.835081	-0.265346	-0.814856	67.386005	-80.936129	-30.397270
40318		10.947971	2.171164	-0.076340	0.990561	-0.233826	-0.607758	69.527847	-80.663108	-31.991860
40319		10.863900	2.562349	0.359237	1.126892	-0.214642	-0.441106	71.394468	-80.467307	-33.229434
40320		10.428976	2.848191	0.857523	1.118200	-0.198780	-0.311874	73.014792	-80.333489	-34.222773
40321		9.962245	3.056923	0.973137	0.965443	-0.178658	-0.213228	74.357414	-80.246110	-35.023587
40322		9.732428	3.175455	0.829318	0.725014	-0.174318	-0.143619	75.472154	-80.193994	-35.733035
40323		9.610158	2.917902	0.785259	0.496462	-0.122629	-0.088007	76.236202	-80.163295	-36.219640
40324		9.303049	2.596276	1.038048	0.290199	-0.056334	-0.077074	76.658387	-80.129141	-36.479195
40325		9.116748	2.384767	1.234932	0.130477	-0.040417	-0.042400	76.909331	-80.111769	-36.657909
40326		9.072156	2.298344	1.215663	-0.039965	-0.011299	-0.000669	76.938668	-80.114008	-36.710754
40327		8.950279	2.125413	1.383233	-0.229656	0.034629	0.042632	76.678968	-80.134244	-36.580586
40328		8.773434	2.045373	1.564540	-0.441796	0.043245	0.080782	76.239984	-80.174574	-36.391789
40329		8.851866	2.070087	1.575772	-0.669789	0.035196	0.129710	75.653199	-80.242792	-36.185640
40330		9.056118	2.011748	1.350470	-0.852939	0.055580	0.162000	74.861886	-80.325604	-35.878472
40331		8.997720	1.766455	1.076293	-0.936828	0.103552	0.176548	73.842756	-80.408099	-35.389083
40332		8.798893	1.290253	0.845406	-1.009029	0.154344	0.156815	72.623095	-80.469833	-34.738375
40333		8.574440	0.767309	0.603728	-1.013721	0.166265	0.118445	71.391325	-80.506146	-34.078227
40334		8.501219	0.371040	0.356243	-0.921703	0.120875	0.085209	70.390473	-80.530933	-33.598783
40335		8.671717	0.186735	0.140384	-0.710903	0.052689	0.065487	69.750696	-80.557195	-33.362998
40336		8.956977	0.193379	0.048599	-0.467644	0.004829	0.071767	69.395311	-80.596194	-33.274208
40337		9.155897	0.302083	0.072263	-0.242066	-0.013910	0.100462	69.193255	-80.654164	-33.209864
40338		9.267631	0.272323	0.287631	-0.032417	-0.047733	0.127936	69.186556	-80.733902	-33.221738
40339		9.227468	0.307056	0.417386	0.118541	-0.053613	0.158007	69.248502	-80.830755	-33.215564
40340		8.964220	0.354286	0.443074	0.210727	-0.054701	0.178006	69.342277	-80.938784	-33.188089
40341		8.842974	0.495152	0.427713	0.243242	-0.075216	0.182208	69.520194	-81.052971	-33.226995
40342		8.775059	0.623620	0.404280	0.217080	-0.084044	0.181741	69.716724	-81.168922	-33.299853
40343		8.746753	0.538526	0.571652	0.183542	-0.097583	0.182422	69.944311	-81.287598	-33.423603
40344		8.571697	0.449700	0.465070	0.173358	-0.123752	0.177993	70.269616	-81.409200	-33.652004
40345		8.468680	0.279294	0.279904	0.181572	-0.148665	0.184784	70.689604	-81.538710	-33.971366
40346		8.444297	0.209740	0.261120	0.241244	-0.164207	0.197459	71.196667	-81.677945	-34.344015
40347		8.382939	0.244197	0.373765	0.268521	-0.165975	0.215749	71.718437	-81.826603	-34.715655
40348		8.273135	0.185313	0.557899	0.269543	-0.138463	0.218065	72.147651	-81.971569	-34.993011
40349		8.137840	0.193711	0.493692	0.278187	-0.119288	0.224217	72.511863	-82.115901	-35.199701
40350		8.083158	0.246126	0.074837	0.361202	-0.127056	0.242433	72.942810	-82.271739	-35.425594
40351		8.175826	0.161861	-0.430063	0.526593	-0.138167	0.272509	73.492170	-82.445225	-35.675333
40352		8.186686	0.187754	-0.648257	0.723334	-0.139835	0.317719	74.125568	-82.643966	-35.895952
40353		7.889045	0.207791	-0.423835	0.855762	-0.219105	0.390285	75.122622	-82.893947	-36.406628
40354		7.904245	0.601972	-0.098556	0.996204	-0.396239	0.473963	76.985707	-83.213766	-37.708259
40355		8.491121	1.019643	0.009514	1.098059	-0.479719	0.564506	79.390622	-83.587583	-39.495740
40356		8.602711	1.492328	0.658179	1.059944	-0.387141	0.645243	81.467387	-83.990387	-40.973642
40357		8.203213	1.749229	1.234476	0.939156	-0.371938	0.707101	83.594996	-84.420552	-42.571179
40358		8.095205	1.291744	1.204260	0.926864	-0.292761	0.786789	85.480654	-84.886411	-43.931472
40359		7.601153	0.003863	1.207887	0.991541	-0.143289	0.866235	86.642543	-85.387756	-44.527264
40360		6.155913	-3.400191	-0.218944	0.925172	-0.364630	1.019430	89.730221	-85.979253	-47.091880
40361		6.045896	-2.069137	-0.556720	0.372891	-0.933193	1.297546	99.211793	-86.681207	-56.378460
40362		11.965237	6.499256	-5.913598	-1.282659	-1.267059	1.346610	115.916174	-87.203891	-73.841818
40363		16.025099	4.489311	-2.958191	1.109533	-1.692868	1.900668	147.582194	-87.375219	-104.905010
40364		21.246933	4.699541	8.164983	-0.149225	-0.534530	1.800507	171.460107	-87.448354	-128.891964
40365		16.049310	3.220492	3.797642	-1.239667	0.514505	1.436550	-169.474587	-87.730301	-148.684550
40366		14.606528	7.671496	-0.670776	-1.945194	-0.557532	1.137756	-158.332137	-87.237148	-160.952983
40367		20.915033	4.354465	-0.040805	-2.142985	-0.304727	0.954192	-151.428520	-86.843372	-169.095106
40368		20.409655	4.899397	4.017688	-0.271931	1.194222	0.781463	-137.054217	-87.137056	176.355080
40369		17.232821	3.846003	3.471753	-0.394305	-0.135795	0.911151	-131.563305	-86.706431	170.630163
40370		20.682593	-1.113106	-0.189136	-1.684596	-0.208348	0.977679	-128.237539	-86.198197	166.331058
40371		12.277863	-5.437628	2.000492	-1.413241	0.080910	1.180107	-123.000274	-85.672929	160.269024
40372		7.780753	-7.470148	-0.839718	-0.740905	-0.653494	1.361113	-122.189037	-84.812754	159.029132
40373		7.273575	-8.138017	-5.263271	-1.007897	-0.716279	1.382226	-122.043155	-83.922029	158.302391
40374		6.746264	-9.895153	-7.166453	-0.923775	-0.507989	1.201800	-121.565625	-83.181678	157.289364
40375		5.811154	-8.608706	-5.363867	0.339607	-0.308663	0.691903	-120.946459	-82.749291	156.861685
40376		6.193237	-6.147933	-4.173484	0.755649	-0.072894	0.124080	-120.524281	-82.664626	156.872819
40377		8.280248	-5.598449	-1.791005	0.961837	0.142087	-0.237895	-119.977056	-82.821689	156.876839
40378		10.409308	-5.360243	0.443743	1.191880	0.172898	-0.419350	-119.578470	-83.076977	157.163635
40379		11.688513	-4.265627	0.879063	1.032454	0.118948	-0.485559	-119.662794	-83.350845	157.844401
40380		11.283266	-2.591475	1.001051	0.680893	0.107820	-0.475566	-120.004675	-83.615379	158.581525
40381		9.916193	-0.208226	1.068020	0.388760	-0.035463	-0.424248	-121.081702	-83.812710	159.889278
40382		9.394703	1.861248	0.161449	0.041152	-0.202383	-0.360960	-123.008248	-83.923899	161.850992
40383		9.449141	2.920205	-0.823500	-0.346729	-0.227786	-0.302789	-125.166097	-83.992608	163.821243
40384		9.379602	2.593985	-1.091668	-0.652644	-0.161864	-0.296429	-127.228671	-84.072332	165.519415
40385		9.066687	1.477734	-0.937254	-0.765240	-0.073612	-0.345557	-129.200833	-84.199836	167.061315
40386		8.877821	0.687123	-0.731726	-0.731065	-0.016954	-0.393358	-131.158921	-84.363198	168.608532
40387		9.131542	0.091671	-0.839779	-0.670928	0.001135	-0.351112	-132.939884	-84.510929	170.011810
40388		9.454919	-0.322667	-0.807768	-0.543339	-0.014971	-0.269958	-134.451422	-84.614212	171.217752
40389		9.696263	-0.592506	-0.423459	-0.295407	-0.089476	-0.181909	-135.809172	-84.649220	172.411604
40390		10.014291	-0.554179	-0.063574	0.045889	-0.154855	-0.113428	-136.947773	-84.627145	173.581905
40391		10.183830	-0.330225	-0.315426	0.278578	-0.150638	-0.045107	-137.625412	-84.579006	174.423008
40392		10.244654	0.209308	-0.828178	0.395223	-0.140056	0.028860	-137.846184	-84.505821	174.872551
40393		10.042204	1.105745	-1.125036	0.370441	-0.151845	0.109802	-137.771455	-84.396842	175.010839
40394		9.869687	1.858175	-1.197327	0.203004	-0.166920	0.150932	-137.669340	-84.265268	175.025380
40395		9.963125	2.092201	-0.850312	0.039585	-0.161891	0.158990	-137.614456	-84.133086	174.993134
40396		10.109052	1.815546	-0.722849	-0.141422	-0.095555	0.152486	-137.441710	-84.031157	174.738241
40397		10.034596	1.157158	-0.702313	-0.393280	-0.031809	0.166379	-137.133887	-83.950849	174.202261
40398		9.961186	0.150011	-1.011043	-0.579623	-0.011703	0.203323	-136.723588	-83.863932	173.455860
40399		9.764804	-0.966777	-1.236430	-0.692163	0.014570	0.230035	-136.199330	-83.776961	172.529762
40400		9.438642	-1.918901	-1.120808	-0.549052	-0.009808	0.210542	-135.771890	-83.686653	171.783486
40401		9.306034	-1.962708	-1.314864	-0.466792	-0.010139	0.160221	-135.500575	-83.616104	171.241517
40402		9.402950	-1.943391	-1.422550	-0.362597	-0.030263	0.124439	-135.376735	-83.551224	170.908057
40403		9.640799	-1.619303	-1.165232	-0.225938	-0.034500	0.132994	-135.166652	-83.481358	170.566459
40404		9.795584	-1.500539	-1.158123	-0.194724	-0.043377	0.137727	-134.956635	-83.405478	170.242991
40405		9.875812	-1.059487	-0.831076	-0.132770	-0.043668	0.135790	-134.727659	-83.330485	169.936011
40406		9.830167	-0.734306	-0.525045	-0.155428	-0.052976	0.138244	-134.538771	-83.250229	169.656395
40407		9.924790	-0.868928	-0.376054	-0.187007	-0.058633	0.142705	-134.380400	-83.166168	169.389123
40408		9.894539	-1.441820	-0.459465	-0.147668	-0.051230	0.144299	-134.171835	-83.083937	169.094070
40409		9.742113	-1.580198	-0.679317	-0.090886	-0.052346	0.143621	-133.945382	-83.001785	168.813600
40410		9.572443	-1.397534	-0.911484	-0.037567	-0.053815	0.140936	-133.705070	-82.919627	168.550027
40411		9.458601	-1.005784	-0.839453	-0.032998	-0.061970	0.139410	-133.502480	-82.835151	168.326931
40412		9.520014	-0.775267	-0.842065	-0.085378	-0.067449	0.139449	-133.349699	-82.748002	168.123883
40413		9.531673	-0.690940	-0.930748	-0.110391	-0.060909	0.124224	-133.243343	-82.670129	167.953017
40414		9.562543	-0.750524	-1.216145	-0.140326	-0.043617	0.105681	-133.154494	-82.606334	167.782616
40415		9.503826	-1.310202	-1.305097	-0.171715	-0.039238	0.089455	-133.122941	-82.551428	167.651703
40416		9.521008	-1.834181	-1.022483	-0.111862	-0.059145	0.051615	-133.231668	-82.504105	167.696976
40417		9.594965	-2.117529	-1.012974	-0.066633	-0.062645	0.027462	-133.398946	-82.465895	167.827318
40418		9.636167	-2.299250	-0.947947	-0.033317	-0.065485	0.023367	-133.563908	-82.427737	167.974737
40419		9.630189	-2.433298	-0.825586	0.049524	-0.073547	0.023868	-133.706262	-82.386612	168.147099
40420		9.696749	-1.930405	-0.718872	0.160249	-0.064504	0.000746	-133.820965	-82.358052	168.355753
40421		9.712021	-1.151749	-0.624897	0.195013	-0.050661	-0.012315	-133.913994	-82.340868	168.562477
40422		9.725109	-0.630124	-0.472607	0.126294	-0.055885	-0.013313	-134.061099	-82.321411	168.784225
40423		9.711726	-0.340375	-0.388280	0.054040	-0.061972	-0.007756	-134.254131	-82.297699	169.010375
40424		9.612404	-0.466685	-0.631924	0.005205	-0.070181	-0.007414	-134.494024	-82.269935	169.255766
40425		9.662253	-0.761442	-0.976759	0.000169	-0.073696	-0.001389	-134.731230	-82.238669	169.495378
40426		9.670327	-0.932468	-1.335814	0.017837	-0.076265	-0.002719	-134.964519	-82.206285	169.741440
40427		9.711111	-0.756082	-1.469766	0.034325	-0.059529	0.014648	-135.089305	-82.174034	169.887368
40428		9.652040	-0.488302	-1.291706	0.052205	-0.063736	0.027553	-135.173788	-82.134323	170.003134
40429		9.594897	-0.324624	-1.141400	0.045628	-0.095546	0.035772	-135.332410	-82.078818	170.189790
40430		9.715354	-0.549539	-0.997520	0.072467	-0.097435	0.032423	-135.485474	-82.023333	170.386544
40431		9.807594	-0.543480	-0.927175	0.106319	-0.069175	0.050246	-135.487750	-81.972684	170.450482
40432		9.787106	-0.461949	-1.151177	0.049270	-0.049439	0.079665	-135.378821	-81.917801	170.369256
40433		9.782897	-0.337049	-1.231628	0.048052	-0.042188	0.100125	-135.196041	-81.858065	170.212561
40434		9.763532	-0.054713	-1.093078	0.053932	-0.035312	0.115122	-134.948321	-81.794511	169.993785
40435		9.677177	-0.021359	-1.121562	0.027728	-0.023462	0.128159	-134.652321	-81.730752	169.710876
40436		9.553102	-0.022824	-1.129751	-0.013382	-0.020849	0.142398	-134.335769	-81.661581	169.383475
40437		9.577614	-0.098350	-1.068445	-0.046710	-0.011900	0.158965	-133.976151	-81.589321	168.993053
40438		9.618969	-0.281257	-0.974688	-0.068116	-0.007626	0.177150	-133.573261	-81.510459	168.546525
40439		9.590999	-0.513645	-0.853238	-0.070473	-0.003508	0.194361	-133.125193	-81.425958	168.052737
40440		9.659465	-0.691317	-0.932856	-0.085211	-0.000868	0.208824	-132.648963	-81.335456	167.521917
40441		9.612708	-1.074592	-0.980597	-0.103560	-0.010016	0.214600	-132.205999	-81.238712	167.013876
40442		9.670593	-1.218520	-1.110194	-0.082723	-0.023056	0.217826	-131.787928	-81.134655	166.543073
40443		9.727725	-1.272219	-1.235533	-0.066716	-0.019376	0.230070	-131.333146	-81.026568	166.044154
40444		9.716453	-1.247994	-1.263946	-0.031681	-0.010077	0.253631	-130.787969	-80.910750	165.473982
40445		9.638033	-1.121938	-1.153132	0.002798	-0.016753	0.270339	-130.218463	-80.784686	164.898879
40446		9.639703	-0.993741	-0.877869	0.083249	-0.022645	0.284629	-129.601448	-80.648842	164.322233
40447		9.633947	-0.709289	-0.747653	0.091090	-0.029416	0.300947	-128.981131	-80.502704	163.746459
40448		9.688900	-0.472042	-0.762938	0.068171	-0.049646	0.318488	-128.407529	-80.340128	163.204579
40449		9.792653	-0.062560	-0.907510	0.058150	-0.040456	0.361525	-127.747923	-80.160802	162.569238
40450		9.546961	0.059341	-0.491495	0.106802	-0.054356	0.424584	-126.995844	-79.946294	161.868017
40451		9.357426	0.016196	-0.268750	0.206799	-0.099474	0.475366	-126.238275	-79.691761	161.218837
40452		9.656607	0.609772	-1.073931	0.130174	-0.068874	0.535196	-125.374069	-79.417842	160.416104
40453		9.745327	1.030141	-1.128746	0.036589	-0.020987	0.602124	-124.374533	-79.126059	159.420252
40454		9.654984	1.218451	-0.623267	0.026162	-0.036216	0.647502	-123.397337	-78.804538	158.440080
40455		9.809659	1.436464	-0.962303	-0.111756	-0.027079	0.692048	-122.464142	-78.461491	157.423031
40456		9.823174	1.096479	-1.623183	-0.325380	-0.017541	0.777120	-121.565068	-78.076865	156.314491
40457		9.761541	0.377120	-1.480642	-0.347038	-0.033364	0.863671	-120.661166	-77.641577	155.186656
40458		9.546618	-0.608140	-0.492877	-0.184038	-0.069989	0.934729	-119.726900	-77.156931	154.121362
40459		9.116676	-1.871448	-0.130403	-0.073425	-0.098481	1.004378	-118.781994	-76.625610	153.108117
40460		8.879108	-2.279740	-0.594841	-0.070998	-0.134327	1.036929	-117.949025	-76.064813	152.209135
40461		8.455178	-2.438947	-0.427780	0.038847	-0.170992	1.056695	-117.173145	-75.481143	151.431805
40462		8.476125	-2.072017	-0.000288	0.204491	-0.249719	1.074152	-116.497376	-74.866001	150.854052
40463		8.735598	-1.643402	-0.615346	0.172583	-0.255902	1.124359	-115.854719	-74.221636	150.290011
40464		9.021323	-1.358050	-1.022275	0.131928	-0.247999	1.150511	-115.246407	-73.564317	149.735620
40465		9.557331	-0.348506	-1.361642	-0.018832	-0.229035	1.162137	-114.725976	-72.903853	149.180952
40466		9.875310	0.450652	-1.419321	-0.225591	-0.178038	1.163244	-114.277650	-72.253899	148.575675
40467		9.450777	-0.181669	-0.562018	-0.401748	-0.198773	1.159457	-114.000816	-71.599635	148.042477
40468		8.511564	-2.730971	-0.280986	-0.611916	-0.239234	1.173358	-113.922852	-70.928636	147.589953
40469		7.693421	-4.951379	-1.283426	-0.694108	-0.319841	1.191942	-114.015108	-70.228701	147.266218
40470		8.068203	-4.902149	-2.781566	-0.461635	-0.304713	1.209407	-113.952658	-69.523580	146.918064
40471		8.723340	-3.881712	-2.343952	-0.037679	-0.263163	1.208981	-113.608671	-68.827454	146.527076
40472		9.697919	-2.540926	-1.260839	0.357692	-0.319711	1.143628	-113.176302	-68.152205	146.282681
40473		10.373751	-1.534445	-0.823358	0.224625	-0.273312	1.125368	-112.789297	-67.496047	146.003882
40474		10.134385	-1.906490	-0.482509	0.016751	-0.270719	1.211863	-112.490941	-66.794499	145.690562
40475		9.230409	-3.411359	-0.964475	-0.114315	-0.301540	1.331555	-112.262518	-66.021865	145.369974
40476		8.261152	-4.382277	-1.458767	-0.168559	-0.345386	1.408711	-112.096515	-65.198853	145.081704
40477		7.115841	-5.435197	-1.503885	-0.191007	-0.368415	1.395970	-111.988903	-64.376896	144.841937
40478		6.553029	-5.999611	-1.325342	0.095855	-0.446878	1.310835	-111.851057	-63.583583	144.749725
40479		7.296418	-5.352365	-1.607226	0.233954	-0.429343	1.209331	-111.665402	-62.847508	144.692052
40480		8.267107	-4.480523	-1.673473	0.290403	-0.401361	1.129413	-111.457468	-62.160083	144.645327
40481		8.948585	-4.055480	-0.748215	0.353330	-0.420981	1.088933	-111.254595	-61.489835	144.644981
40482		9.832090	-1.967913	-1.636967	0.377152	-0.516351	1.136689	-111.116105	-60.774593	144.733721
40483		10.213916	-3.505264	-2.495374	-0.360314	-0.332092	1.268502	-111.177493	-60.026765	144.567034
40484		9.836869	-4.162072	-0.310954	0.290223	-0.411601	1.371983	-110.909197	-59.207486	144.448865
40485		9.448568	-4.169877	-2.631545	-0.059016	-0.400278	1.472584	-110.804879	-58.336072	144.287474
40486		8.458252	-4.196945	-1.911417	0.117543	-0.269507	1.531943	-110.478388	-57.459397	143.981641
40487		6.607936	-5.131501	-1.852231	0.013228	-0.296782	1.548749	-110.244347	-56.567011	143.711811
40488		5.232845	-6.020117	-2.526244	-0.151793	-0.367490	1.479174	-110.192809	-55.698119	143.545075
40489		5.017286	-5.976875	-2.648898	-0.030937	-0.398829	1.351130	-110.138302	-54.891368	143.457361
40490		6.330685	-6.069630	-2.628228	0.034401	-0.400281	1.224153	-110.085709	-54.152894	143.417067
40491		8.085489	-6.123499	-2.635582	0.119090	-0.329887	1.122536	-109.962371	-53.482605	143.348950
40492		9.005151	-5.908957	-2.437282	0.142956	-0.260554	1.108245	-109.782978	-52.833635	143.227217
40493		9.102812	-5.262714	-2.609450	0.227186	-0.193219	1.179866	-109.495666	-52.158472	143.029291
40494		8.352223	-5.522445	-2.419354	0.102735	-0.143629	1.304952	-109.223684	-51.424788	142.758121
40495		7.308237	-5.838731	-2.742863	0.007990	-0.162444	1.390002	-109.008285	-50.640565	142.487135
40496		6.731999	-5.411785	-2.502531	0.021101	-0.152399	1.401671	-108.785833	-49.851496	142.213536
40497		6.213757	-6.041866	-2.084391	-0.027598	-0.158754	1.388062	-108.607065	-49.067778	141.957658
40498		5.960303	-6.426703	-1.915610	0.057159	-0.153497	1.342544	-108.394372	-48.309410	141.718107
40499		5.636508	-7.079658	-2.198137	0.013368	-0.131701	1.303121	-108.208863	-47.575638	141.478740
40500		5.538273	-7.162657	-2.309006	0.133335	-0.136753	1.241317	-107.976966	-46.874184	141.266926
40501		6.187215	-6.824680	-2.444202	0.181293	-0.132770	1.183125	-107.732668	-46.204438	141.073635
40502		6.699729	-6.991812	-2.502170	0.213938	-0.109031	1.155517	-107.467688	-45.553346	140.875304
40503		7.081727	-6.854571	-2.835385	0.218840	-0.085132	1.168977	-107.190539	-44.898276	140.661696
