// General information: 
//  MT Manager version: 2022.2.0 
//  XDA version: 2022.2.0 build 7381 rev 124627 built on 2023-07-19
// Device information: 
//  DeviceId: 00B4BB4E
//  ProductCode: MTW2-3A7G6
//  Firmware Version: 4.6.0
//  Hardware Version: 2.0.0
// Device settings: 
//  Filter Profile: human(46.1)
//  Option Flags: Orientation Smoother Disabled, Position/Velocity Smoother Disabled, Continuous Zero Rotation Update Disabled, AHS Disabled, ICC Disabled
// Coordinate system: ENU
PacketCounter	SampleTimeFine	Acc_X	Acc_Y	Acc_Z	Gyr_X	Gyr_Y	Gyr_Z	Roll	Pitch	Yaw
39282		9.751230	0.832338	0.326685	0.020455	0.015079	0.005017	55.181013	-85.273021	95.565210
39283		9.734979	0.819929	0.394224	-0.017054	0.015100	0.009456	55.044882	-85.275442	95.693816
39284		9.718721	0.807367	0.461717	-0.031213	0.009916	0.005823	54.941878	-85.278116	95.780109
39285		9.741293	0.790812	0.484056	-0.053225	0.014797	0.005734	54.801449	-85.278822	95.892391
39286		9.747475	0.736566	0.496146	-0.056059	0.017850	0.008353	54.628929	-85.280020	96.034152
39287		9.731080	0.697874	0.487585	-0.049662	0.019027	0.011198	54.444081	-85.281864	96.193472
39288		9.714679	0.659158	0.479092	-0.042610	0.021128	0.009771	54.254865	-85.282552	96.359718
39289		9.722824	0.663812	0.448279	-0.037244	0.018834	0.012675	54.072778	-85.284991	96.522401
39290		9.746046	0.666348	0.456733	-0.029090	0.017854	0.012252	53.899373	-85.287845	96.680554
39291		9.761730	0.657176	0.407085	-0.033716	0.019889	0.011971	53.715639	-85.289596	96.846781
39292		9.745324	0.618698	0.398433	-0.025982	0.020731	0.006626	53.550795	-85.288797	96.998130
39293		9.698853	0.635603	0.464330	-0.023804	0.016759	0.008287	53.405468	-85.289809	97.131587
39294		9.683791	0.662468	0.503318	-0.029831	0.012793	0.003862	53.294209	-85.290394	97.226958
39295		9.721985	0.638332	0.474154	-0.036632	0.018806	0.001929	53.156510	-85.287687	97.345937
39296		9.723289	0.677555	0.447559	-0.033082	0.017673	0.001572	53.025870	-85.285508	97.458886
39297		9.747124	0.700887	0.441819	-0.030974	0.020244	0.002167	52.882678	-85.282420	97.586232
39298		9.716226	0.735992	0.533107	-0.029236	0.020281	-0.001446	52.752760	-85.277916	97.700668
39299		9.724333	0.742199	0.502130	-0.023927	0.016998	-0.005074	52.662370	-85.272610	97.778965
39300		9.731040	0.709214	0.499394	-0.012962	0.015145	-0.008479	52.600024	-85.266658	97.834956
39301		9.730221	0.689828	0.515390	0.000528	0.019367	-0.000566	52.493174	-85.262491	97.942083
39302		9.675454	0.676086	0.537232	-0.004073	0.019221	-0.000494	52.380303	-85.258727	98.053883
39303		9.722626	0.678160	0.460850	0.008017	0.017443	0.003268	52.271578	-85.256981	98.168505
39304		9.685681	0.741055	0.464850	0.005545	0.017683	0.004283	52.152676	-85.255884	98.291887
39305		9.709559	0.764151	0.458846	-0.006474	0.018255	0.007394	52.013454	-85.255727	98.429097
39306		9.717090	0.749711	0.441791	-0.016365	0.013873	0.005631	51.897049	-85.256538	98.537376
39307		9.692435	0.705492	0.465322	-0.030513	0.014062	0.007799	51.764623	-85.257923	98.655782
39308		9.699060	0.696486	0.539271	-0.033352	0.011772	0.004606	51.654171	-85.258981	98.748323
39309		9.704409	0.622689	0.564754	-0.043629	0.012385	0.004106	51.538971	-85.259292	98.841740
39310		9.719473	0.594496	0.529155	-0.041908	0.019947	0.005969	51.373519	-85.258008	98.984550
39311		9.750179	0.583803	0.519010	-0.031607	0.017156	0.006832	51.228222	-85.257846	99.113356
39312		9.735230	0.585302	0.481331	-0.024532	0.017062	0.005751	51.089302	-85.257440	99.239533
39313		9.720066	0.611789	0.520447	-0.023047	0.014325	0.011314	50.944758	-85.260285	99.371751
39314		9.713954	0.664263	0.512334	-0.027712	0.015401	0.004518	50.818257	-85.259880	99.483637
39315		9.736392	0.647311	0.534592	-0.037881	0.010437	0.011587	50.684008	-85.264120	99.599067
39316		9.704872	0.636258	0.562251	-0.039341	0.010998	0.006385	50.566101	-85.266101	99.695643
39317		9.712414	0.621693	0.545057	-0.030525	0.016273	0.007514	50.423238	-85.266326	99.822827
39318		9.696766	0.603107	0.521443	-0.021990	0.015616	0.011640	50.267287	-85.268898	99.967554
39319		9.743141	0.609560	0.536300	-0.013863	0.016799	0.010853	50.115976	-85.270422	100.112527
39320		9.705853	0.626708	0.477581	-0.003911	0.014614	0.013661	49.966403	-85.274187	100.261245
39321		9.714677	0.676336	0.508996	-0.005329	0.016139	0.014979	49.804001	-85.277669	100.424148
39322		9.697983	0.662655	0.576253	-0.019475	0.011014	0.011321	49.674597	-85.281679	100.543680
39323		9.682359	0.644150	0.552267	-0.028027	0.013865	0.006858	49.547713	-85.282470	100.656349
39324		9.727487	0.586062	0.518498	-0.028735	0.017296	0.010442	49.383500	-85.283711	100.805485
39325		9.726676	0.565096	0.534325	-0.022695	0.013726	0.009400	49.248904	-85.285628	100.928505
39326		9.719065	0.577911	0.554425	-0.016332	0.011719	0.006050	49.140901	-85.286994	101.028369
39327		9.735445	0.614465	0.566788	-0.012056	0.010292	0.008284	49.034489	-85.289649	101.131190
39328		9.737019	0.653489	0.539610	-0.013858	0.011478	0.005036	48.933651	-85.290637	101.225287
39329		9.712628	0.654238	0.625207	-0.019148	0.007255	0.003190	48.862191	-85.292177	101.289264
39330		9.728999	0.691161	0.637326	-0.031548	0.007511	0.001752	48.786958	-85.293224	101.347499
39331		9.735330	0.612513	0.570853	-0.036167	0.009564	0.001489	48.701189	-85.293112	101.416932
39332		9.735278	0.612246	0.572034	-0.034766	0.010228	-0.000165	48.618690	-85.292293	101.480607
39333		9.734828	0.567230	0.510223	-0.028365	0.009177	0.003013	48.533060	-85.292938	101.553059
39334		9.705635	0.616461	0.495038	-0.019146	0.007261	0.003206	48.459440	-85.294676	101.616807
39335		9.721205	0.633488	0.521327	-0.020219	0.008167	0.002566	48.385357	-85.295516	101.683023
39336		9.728781	0.619423	0.503495	-0.015964	0.008921	0.004456	48.299047	-85.297143	101.761331
39337		9.752763	0.642664	0.496910	-0.009946	0.007531	0.003060	48.232121	-85.298440	101.825481
39338		9.714378	0.665698	0.528365	-0.006709	0.002630	0.005325	48.179649	-85.302826	101.875158
39339		9.720342	0.611855	0.538398	-0.006419	0.008569	0.002344	48.112320	-85.303391	101.942424
39340		9.728731	0.617903	0.506314	-0.002874	0.007421	0.001966	48.052679	-85.304502	102.001499
39341		9.695470	0.567565	0.561593	0.000689	0.009412	0.007783	47.960130	-85.307085	102.096761
39342		9.738360	0.687404	0.523850	-0.001747	0.005284	0.009480	47.876935	-85.312198	102.180116
39343		9.625915	0.554665	0.543241	0.021177	0.014691	0.007751	47.769063	-85.312711	102.301883
39344		9.923507	0.548615	0.764183	-0.035449	0.000836	-0.007935	47.771151	-85.312130	102.280294
39345		9.746324	0.272450	0.195767	0.100005	0.022269	0.001556	47.698226	-85.307017	102.413167
39346		9.699974	0.393274	0.915291	-0.027116	0.007737	0.030462	47.488517	-85.320020	102.608875
39347		9.550364	0.910460	0.158587	0.139647	-0.025957	0.000946	47.690700	-85.333349	102.486957
39348		9.729007	0.604064	0.962880	-0.053672	0.051335	0.022406	47.277594	-85.326038	102.871471
39349		10.047601	1.148787	0.443302	0.078464	-0.003423	-0.022411	47.439144	-85.320789	102.754376
39350		9.115182	0.117674	0.246191	-0.109254	0.044069	0.012816	47.078472	-85.312145	103.054334
39351		10.399728	1.225229	0.786787	-0.007741	-0.049271	0.008247	47.280123	-85.337603	102.849090
39352		9.364163	0.473408	0.340653	-0.020426	0.029083	-0.007373	47.142838	-85.326282	102.975975
39353		9.671123	0.537225	0.581062	-0.085865	0.050429	0.022972	46.717563	-85.319034	103.354710
39354		10.062366	0.949980	0.597316	0.070860	-0.056413	0.006393	47.005203	-85.346901	103.107734
39355		9.479114	0.538382	0.531187	0.010424	0.044111	0.018245	46.688486	-85.340101	103.433444
39356		9.704276	0.799867	0.497701	-0.003206	0.027187	0.027710	46.402413	-85.344000	103.719508
39357		9.848511	0.746320	0.562568	0.024248	-0.002980	0.027461	46.289066	-85.359352	103.849793
39358		9.609584	0.764991	0.577997	0.018414	0.019666	0.023507	46.072733	-85.364349	104.078307
39359		9.713579	0.511624	0.359414	-0.017612	0.011788	0.027687	45.858265	-85.373903	104.283698
39360		9.715112	0.687872	0.611858	0.005089	0.001162	0.024465	45.722284	-85.386560	104.423932
39361		9.755164	0.439094	0.521420	0.010430	0.004156	0.033212	45.533395	-85.401334	104.619763
39362		9.695522	0.495630	0.517768	0.016072	0.007755	0.033116	45.325047	-85.414800	104.838905
39363		9.780809	0.521268	0.563214	0.033474	-0.007097	0.028038	45.229683	-85.431899	104.955439
39364		9.771548	0.492636	0.609713	0.030959	-0.000284	0.028046	45.094211	-85.446470	105.110021
39365		9.707848	0.425748	0.599288	0.013208	0.004525	0.023366	44.950301	-85.456931	105.263106
39366		9.722166	0.376454	0.576259	0.026299	0.003000	0.020900	44.830319	-85.467221	105.399467
39367		9.700394	0.435684	0.618543	0.019904	0.004064	0.017713	44.719875	-85.475562	105.523412
39368		9.725065	0.432657	0.534474	0.017418	0.006501	0.018392	44.588842	-85.483371	105.665750
39369		9.741643	0.468609	0.546158	0.007473	0.003376	0.009705	44.515838	-85.488733	105.744081
39370		9.710885	0.477946	0.558576	-0.002120	0.004968	0.004914	44.450632	-85.491725	105.809155
39371		9.726496	0.494891	0.584252	-0.006349	-0.000155	0.003693	44.418406	-85.496015	105.840201
39372		9.751593	0.537741	0.562753	-0.019440	0.001376	0.006160	44.354901	-85.500967	105.893616
39373		9.744964	0.570766	0.567730	-0.009918	0.005374	0.003384	44.293688	-85.502901	105.951598
39374		9.684377	0.610085	0.578165	-0.003869	0.004937	0.008545	44.208312	-85.507335	106.035898
39375		9.731729	0.636486	0.577797	-0.012712	0.001877	0.007048	44.144676	-85.512207	106.092699
39376		9.663139	0.644595	0.544018	-0.010609	0.006625	0.007321	44.052965	-85.515441	106.179480
39377		9.708582	0.631314	0.572063	-0.019439	0.001381	0.006164	43.991622	-85.520162	106.231368
39378		9.713841	0.532119	0.519229	-0.019431	0.006723	0.012036	43.869218	-85.525210	106.343865
39379		9.697299	0.493949	0.508463	-0.015908	0.002413	0.005457	43.808116	-85.529195	106.397683
39380		9.742205	0.505513	0.613656	-0.014151	0.007785	0.007699	43.705921	-85.532059	106.492942
39381		9.712900	0.509938	0.535306	-0.012401	0.007817	0.004071	43.626767	-85.533236	106.566735
39382		9.695349	0.452250	0.538980	-0.006020	0.008937	0.006925	43.527332	-85.535292	106.663898
39383		9.704310	0.502676	0.569922	-0.006397	0.008595	0.002344	43.456831	-85.535415	106.732667
39384		9.743583	0.498684	0.526027	-0.000405	0.011560	0.000278	43.382726	-85.533741	106.807650
39385		9.736932	0.531879	0.531649	0.005308	0.009554	0.007746	43.285399	-85.535635	106.909075
39386		9.729341	0.544936	0.551090	0.004608	0.005462	0.005809	43.215283	-85.538660	106.982938
39387		9.743935	0.542132	0.591437	0.003138	0.010402	-0.000093	43.154582	-85.537096	107.045948
39388		9.744845	0.561985	0.578432	-0.003947	0.012720	0.000651	43.070722	-85.535052	107.128680
39389		9.682816	0.537264	0.540822	-0.002889	0.014000	0.000959	42.982577	-85.532359	107.216794
39390		9.745691	0.581551	0.566876	-0.020209	0.010421	0.002201	42.892713	-85.531865	107.296204
39391		9.758862	0.514243	0.558793	-0.023058	0.010333	-0.001361	42.824277	-85.529772	107.352573
39392		9.744190	0.516738	0.520567	-0.028027	0.015213	0.000003	42.718009	-85.526388	107.443943
39393		9.720912	0.513492	0.515273	-0.023819	0.011843	-0.010855	42.692612	-85.519986	107.456753
39394		9.735403	0.511508	0.556092	-0.035105	0.010008	-0.004784	42.634083	-85.516923	107.496171
39395		9.718746	0.474664	0.546152	-0.037265	0.016204	-0.006735	42.557548	-85.510273	107.552473
39396		9.711008	0.488921	0.566607	-0.034443	0.015333	-0.009715	42.499846	-85.503045	107.591444
39397		9.726112	0.462322	0.530714	-0.026647	0.014919	-0.008181	42.443827	-85.496370	107.633228
39398		9.724330	0.467796	0.623472	-0.014974	0.014909	-0.009330	42.397582	-85.489465	107.671896
39399		9.732806	0.474849	0.592165	-0.012848	0.015281	-0.008376	42.348446	-85.482540	107.715909
39400		9.750203	0.532518	0.591092	-0.003276	0.015858	-0.003926	42.275592	-85.477311	107.787993
39401		9.735816	0.580305	0.615851	-0.005751	0.010775	-0.008792	42.255499	-85.472170	107.805382
39402		9.726783	0.530425	0.587061	-0.004380	0.017999	-0.011449	42.212153	-85.463127	107.847232
39403		9.703481	0.527746	0.581642	-0.006807	0.009496	-0.009099	42.199432	-85.458369	107.857177
39404		9.758325	0.542427	0.563376	-0.008247	0.010070	-0.014321	42.207770	-85.451585	107.844957
39405		9.701252	0.490300	0.611864	-0.011789	0.011231	-0.013943	42.209775	-85.444218	107.837167
39406		9.739584	0.467997	0.582228	-0.012845	0.009952	-0.014251	42.215629	-85.437511	107.824796
39407		9.717284	0.485572	0.562340	-0.007177	0.009165	-0.013673	42.228302	-85.431142	107.809421
39408		9.717162	0.486973	0.563230	-0.002228	0.008666	-0.015706	42.254075	-85.424419	107.783169
39409		9.734500	0.545505	0.561546	0.004147	0.009781	-0.012850	42.265887	-85.418117	107.774849
39410		9.710234	0.523173	0.569800	0.005203	0.011062	-0.012538	42.267543	-85.411598	107.777064
39411		9.704401	0.577839	0.561369	0.007341	0.009245	-0.011254	42.275346	-85.406139	107.774495
39412		9.711114	0.590033	0.620587	0.003091	0.008502	-0.013157	42.291310	-85.400467	107.761142
39413		9.703186	0.560443	0.576960	0.000980	0.005941	-0.013776	42.324116	-85.395448	107.730343
39414		9.727200	0.585310	0.570408	0.000617	0.008752	-0.012138	42.332026	-85.390062	107.723648
39415		9.725135	0.546582	0.599417	-0.001858	0.009001	-0.011121	42.334648	-85.384761	107.721454
39416		9.710528	0.550296	0.560606	-0.002913	0.007720	-0.011431	42.341727	-85.380085	107.713562
39417		9.724911	0.548839	0.600985	-0.007162	0.006976	-0.013334	42.363106	-85.374765	107.688807
39418		9.693943	0.560196	0.613634	-0.005405	0.007017	-0.016958	42.400946	-85.368252	107.648622
39419		9.717869	0.540608	0.544120	-0.011056	0.008754	-0.010989	42.399233	-85.363109	107.644435
39420		9.716781	0.522017	0.559042	-0.006473	0.007928	-0.017595	42.435294	-85.355962	107.605420
39421		9.739804	0.527412	0.566440	-0.003970	0.003301	-0.017949	42.499159	-85.350435	107.540428
39422		9.732950	0.562620	0.571432	0.003822	0.002892	-0.016418	42.558711	-85.345864	107.483761
39423		9.756899	0.588176	0.564909	0.024975	0.013481	-0.021300	42.607858	-85.334723	107.450154
39424		9.721922	0.649451	0.477308	0.043358	0.013042	-0.028082	42.701620	-85.321337	107.381890
39425		9.715889	0.661514	0.405182	0.053688	0.000495	-0.032437	42.885690	-85.311306	107.229040
39426		9.761925	0.716912	0.481488	0.066083	0.000232	-0.030941	43.066786	-85.302142	107.086211
39427		9.730770	0.730536	0.493585	0.067037	0.013712	-0.039130	43.228198	-85.283902	106.963483
39428		9.716890	0.757212	0.440141	0.077009	0.003992	-0.041813	43.450870	-85.268821	106.785212
39429		9.727399	0.679168	0.535585	0.063322	-0.008575	-0.033085	43.683793	-85.262139	106.588862
39430		9.754333	0.637824	0.642367	0.059741	0.000115	-0.027164	43.839990	-85.254360	106.467362
39431		9.719150	0.743818	0.616213	0.053687	0.005894	-0.026443	43.964017	-85.244233	106.375119
39432		9.708612	0.655715	0.614433	0.031454	-0.001641	-0.022562	44.088766	-85.238964	106.268908
39433		9.687691	0.521283	0.673787	0.019406	0.001138	-0.019821	44.182485	-85.233417	106.187145
39434		9.739783	0.477345	0.697570	0.012623	0.010342	-0.015533	44.204045	-85.226007	106.173654
39435		9.703093	0.452496	0.575136	0.033133	0.013475	-0.015107	44.222911	-85.217253	106.175483
39436		9.696086	0.487631	0.580621	0.029622	0.010244	-0.014071	44.247399	-85.210466	106.168826
39437		9.695073	0.469341	0.595486	0.021863	0.006247	-0.014950	44.293613	-85.204788	106.135639
39438		9.710313	0.488303	0.621624	0.014413	0.009160	-0.012270	44.305649	-85.199166	106.132734
39439		9.686177	0.466025	0.629771	-0.003284	0.007345	-0.016002	44.337287	-85.192579	106.100057
39440		9.678495	0.436458	0.586321	-0.005053	0.006339	-0.018917	44.383872	-85.185450	106.051288
39441		9.715089	0.419845	0.647299	-0.001803	-0.000749	-0.016307	44.456133	-85.182073	105.978266
39442		9.714125	0.401480	0.661735	-0.005743	0.005397	-0.014658	44.485899	-85.177031	105.945978
39443		9.707998	0.456380	0.652508	-0.007512	0.004391	-0.017573	44.536277	-85.170987	105.892438
39444		9.747487	0.454183	0.608246	-0.003601	0.003592	-0.013364	44.569447	-85.167197	105.857965
39445		9.733544	0.522669	0.617721	0.001317	0.007494	-0.016040	44.602182	-85.160546	105.827025
39446		9.727368	0.577690	0.608526	-0.003961	0.003251	-0.017927	44.658589	-85.155055	105.769024
39447		9.728113	0.599198	0.594755	-0.016712	0.004103	-0.017474	44.704004	-85.149204	105.714507
39448		9.728843	0.620826	0.581014	-0.020602	0.002715	-0.021342	44.769525	-85.142545	105.637789
39449		9.727836	0.602731	0.595710	-0.031585	0.004574	-0.017969	44.806029	-85.136282	105.584334
39450		9.712406	0.586710	0.570802	-0.035113	0.003528	-0.017269	44.839628	-85.130928	105.531308
39451		9.741997	0.603550	0.636708	-0.036919	0.006908	-0.020843	44.875389	-85.122550	105.475652
39452		9.719072	0.556719	0.567760	-0.041142	0.003956	-0.022411	44.927693	-85.114936	105.400385
39453		9.718919	0.558645	0.568488	-0.023116	0.007354	-0.020976	44.969705	-85.106340	105.345698
39454		9.717921	0.540731	0.583292	-0.005745	0.004463	-0.021152	45.033537	-85.099020	105.279214
39455		9.710772	0.576404	0.588467	-0.000830	0.008373	-0.023823	45.096578	-85.088849	105.216111
39456		9.712287	0.618543	0.560521	-0.002511	-0.001391	-0.025407	45.209454	-85.082151	105.102261
39457		9.772764	0.626359	0.614142	0.010513	0.006864	-0.022631	45.279747	-85.073052	105.038889
39458		9.688437	0.663759	0.617208	0.006315	0.002671	-0.017355	45.340325	-85.067970	104.982604
39459		9.718402	0.636175	0.619882	0.009464	0.005580	-0.022937	45.417420	-85.059252	104.911106
39460		9.721969	0.673216	0.500898	0.028915	0.007467	-0.022818	45.493350	-85.050000	104.852407
39461		9.706554	0.658077	0.475422	0.054486	-0.000773	-0.022723	45.624471	-85.043870	104.753445
39462		9.783430	0.768206	0.588447	0.059782	0.001295	-0.020485	45.735903	-85.038025	104.676861
39463		9.760152	0.766472	0.581680	0.031754	0.007578	-0.019239	45.798005	-85.029968	104.634004
39464		9.706395	0.729624	0.524089	0.022599	0.001935	-0.024990	45.905336	-85.021995	104.540152
39465		9.735847	0.747478	0.589442	0.010896	0.004053	-0.024229	45.994623	-85.013262	104.458039
39466		9.717236	0.652758	0.620918	0.000312	0.000885	-0.022160	46.080653	-85.006848	104.372747
39467		9.707360	0.564041	0.619459	-0.002167	0.001119	-0.021157	46.161887	-85.000535	104.290995
39468		9.692269	0.613123	0.642711	0.008798	0.002439	-0.018333	46.227689	-84.995066	104.230888
39469		9.669614	0.566157	0.573001	0.023007	-0.002092	-0.019750	46.331650	-84.990552	104.141497
39470		9.755585	0.637407	0.590094	0.036501	-0.005379	-0.017252	46.445136	-84.988604	104.049455
39471		9.746804	0.633289	0.622577	0.036763	0.002767	-0.020536	46.537219	-84.981879	103.978929
39472		9.725893	0.691136	0.573018	0.040675	0.001020	-0.022834	46.647510	-84.975059	103.892493
39473		9.725745	0.693406	0.572789	0.033262	-0.000475	-0.019497	46.747754	-84.970015	103.812010
39474		9.700984	0.651653	0.594364	0.022245	0.003539	-0.016485	46.806815	-84.964834	103.766402
39475		9.701645	0.672876	0.580319	0.027918	0.003765	-0.009369	46.838631	-84.962331	103.751605
39476		9.708842	0.705558	0.624388	0.015216	-0.000772	-0.014771	46.906337	-84.959548	103.693273
39477		9.693579	0.689232	0.598580	0.010307	-0.004692	-0.012106	46.980289	-84.959225	103.625717
39478		9.738168	0.658916	0.640390	0.000005	-0.001927	-0.013009	47.036862	-84.957619	103.569813
39479		9.700586	0.658159	0.593703	-0.011678	-0.002023	-0.011934	47.084946	-84.956264	103.515850
39480		9.683831	0.601916	0.596604	-0.007076	-0.001860	-0.011972	47.132498	-84.955058	103.464929
39481		9.715384	0.548529	0.522054	0.004939	-0.000192	-0.015335	47.196060	-84.951625	103.404433
39482		9.721219	0.606482	0.642560	0.012482	-0.008676	-0.010474	47.280623	-84.953691	103.327607
39483		9.720449	0.587822	0.656091	0.005707	-0.004850	-0.012062	47.352203	-84.953372	103.260615
39484		9.707466	0.630568	0.587460	0.009591	-0.003445	-0.008197	47.400200	-84.954352	103.218833
39485		9.729796	0.615612	0.607938	0.005043	-0.007989	-0.007484	47.466715	-84.957172	103.155700
39486		9.675707	0.622038	0.612161	0.000774	-0.006584	-0.009732	47.531486	-84.958711	103.092008
39487		9.683577	0.609336	0.593179	-0.009557	-0.001635	-0.010972	47.574260	-84.957608	103.044591
39488		9.691443	0.596623	0.574312	-0.008456	-0.004723	-0.009988	47.625970	-84.958310	102.988702
39489		9.713773	0.581878	0.594780	-0.009117	-0.008824	-0.011912	47.707813	-84.959531	102.902514
39490		9.698581	0.565183	0.568609	-0.010550	-0.007305	-0.010605	47.773479	-84.960954	102.831411
39491		9.714456	0.603620	0.579304	-0.010936	-0.004494	-0.008989	47.820401	-84.961765	102.779443
39492		9.706506	0.618408	0.597396	-0.006305	-0.007478	-0.015193	47.909388	-84.961292	102.687370
39493		9.736740	0.590416	0.599152	-0.010906	-0.007643	-0.015150	47.998277	-84.960629	102.594056
39494		9.698485	0.634813	0.614916	-0.015921	-0.002809	-0.013827	48.053220	-84.958926	102.530628
39495		9.707747	0.662148	0.567512	-0.010933	-0.005451	-0.015482	48.133335	-84.957315	102.444372
39496		9.731474	0.687405	0.559569	-0.017985	-0.007580	-0.014105	48.211306	-84.957302	102.356641
39497		9.740026	0.694919	0.526193	-0.020134	-0.005781	-0.015392	48.286912	-84.955819	102.270588
39498		9.708964	0.705881	0.537298	-0.011921	-0.011118	-0.015114	48.389852	-84.956699	102.161278
39499		9.716172	0.738451	0.580575	-0.017268	-0.007857	-0.011501	48.460458	-84.957659	102.081663
39500		9.729910	0.717555	0.633982	-0.018372	-0.004767	-0.012479	48.517531	-84.957232	102.014687
39501		9.700214	0.702858	0.568587	-0.023689	-0.003698	-0.008529	48.551386	-84.957883	101.968318
39502		9.708103	0.689871	0.549651	-0.021539	-0.005494	-0.007239	48.587678	-84.959975	101.920383
39503		9.753569	0.678736	0.577176	-0.029693	-0.004536	-0.006834	48.614902	-84.961682	101.877088
39504		9.667764	0.609579	0.559513	-0.034322	-0.002510	-0.007116	48.628839	-84.962693	101.844241
39505		9.729069	0.571258	0.549786	-0.023658	-0.005880	-0.008182	48.671948	-84.964335	101.788261
39506		9.736305	0.603221	0.593437	-0.024703	-0.007169	-0.008487	48.720084	-84.966514	101.726618
39507		9.713880	0.555001	0.523231	-0.022223	-0.007392	-0.009484	48.776678	-84.968154	101.658748
39508		9.705269	0.614217	0.604319	-0.019086	-0.003519	-0.008556	48.810532	-84.968916	101.614671
39509		9.736906	0.625357	0.578046	-0.016607	-0.003742	-0.009554	48.853415	-84.969143	101.562536
39510		9.723699	0.668160	0.509719	-0.013052	-0.004866	-0.009912	48.903158	-84.969821	101.505980
39511		9.715074	0.662846	0.542094	-0.007018	-0.006213	-0.011272	48.970916	-84.970238	101.434467
39512		9.746029	0.654421	0.529836	-0.006003	-0.002732	-0.011295	49.020141	-84.969506	101.382485
39513		9.701115	0.686969	0.487739	-0.012037	-0.001384	-0.009933	49.055668	-84.968636	101.340821
39514		9.730098	0.683405	0.566519	-0.012959	-0.011435	-0.008909	49.133552	-84.972195	101.256069
39515		9.721499	0.677977	0.598763	-0.019802	-0.003231	-0.011135	49.178782	-84.971524	101.199879
39516		9.706291	0.661088	0.573144	-0.020519	-0.002001	-0.007231	49.198786	-84.972265	101.168883
39517		9.729332	0.665905	0.579855	-0.022280	-0.003004	-0.010128	49.236776	-84.971913	101.119684
39518		9.698315	0.611596	0.542887	-0.023355	-0.002103	-0.010765	49.270686	-84.971155	101.073097
39519		9.721341	0.616600	0.549699	-0.022310	-0.000811	-0.010454	49.299168	-84.969877	101.032970
39520		9.689627	0.607004	0.575907	-0.024820	0.001604	-0.009780	49.309734	-84.968159	101.008974
39521		9.706697	0.620593	0.510349	-0.018755	-0.001931	-0.010812	49.347355	-84.967149	100.961406
39522		9.711954	0.593005	0.596954	-0.017710	-0.000640	-0.010502	49.376099	-84.965953	100.923251
39523		9.728393	0.586841	0.545315	-0.017319	-0.003442	-0.012120	49.427454	-84.964898	100.863221
39524		9.704620	0.563919	0.552554	-0.016306	0.000040	-0.012140	49.460528	-84.962730	100.821525
39525		9.742787	0.586787	0.584815	-0.003522	-0.002938	-0.012287	49.518030	-84.961396	100.763203
39526		9.705027	0.650841	0.586881	0.006035	-0.003213	-0.014351	49.589234	-84.959466	100.696081
39527		9.729261	0.696323	0.565170	0.010961	-0.001465	-0.016687	49.666067	-84.955629	100.627110
39528		9.706079	0.693914	0.558019	0.008874	-0.004045	-0.017302	49.755254	-84.952702	100.543566
39529		9.707232	0.735493	0.528798	0.008319	-0.014708	-0.018235	49.902505	-84.953102	100.401863
39530		9.714967	0.788510	0.557545	0.002971	-0.012398	-0.021095	50.045441	-84.951554	100.260965
39531		9.729539	0.723647	0.547400	-0.002053	-0.007574	-0.019748	50.157652	-84.948612	100.148124
39532		9.760457	0.716281	0.534627	-0.008379	-0.010936	-0.022253	50.291387	-84.945964	100.009934
39533		9.722719	0.716596	0.487256	-0.001334	-0.008793	-0.023642	50.425855	-84.941718	99.875089
39534		9.737147	0.716633	0.525995	0.004342	-0.009520	-0.023059	50.562781	-84.938141	99.741011
39535		9.742491	0.690241	0.611740	0.011745	-0.007053	-0.019912	50.680458	-84.934855	99.630357
39536		9.712521	0.741253	0.594792	0.015592	-0.003468	-0.016401	50.765981	-84.931988	99.554353
39537		9.720953	0.749452	0.561056	0.022090	-0.011984	-0.018720	50.909222	-84.930968	99.423953
39538		9.704982	0.778322	0.597344	0.029458	-0.007323	-0.015903	51.019824	-84.929686	99.330748
39539		9.743872	0.757214	0.565773	0.016021	-0.008455	-0.017676	51.137298	-84.927817	99.223091
39540		9.706718	0.776658	0.504171	0.023135	-0.009752	-0.011917	51.240277	-84.929154	99.133901
39541		9.675101	0.767414	0.529002	0.021051	-0.012334	-0.012527	51.359169	-84.930909	99.028425
39542		9.681912	0.715399	0.537497	0.013902	-0.007911	-0.012132	51.448531	-84.931463	98.947595
39543		9.713449	0.727144	0.510394	0.015016	-0.010998	-0.011157	51.552080	-84.933340	98.853332
39544		9.712883	0.708439	0.523370	0.019616	-0.010820	-0.011211	51.655824	-84.935317	98.761351
39545		9.703826	0.683492	0.569348	0.027701	-0.007376	-0.012293	51.752944	-84.935380	98.680715
39546		9.742752	0.662137	0.537706	0.034097	-0.009315	-0.015597	51.874963	-84.934819	98.578717
39547		9.696553	0.655200	0.523118	0.040100	-0.007514	-0.010807	51.974111	-84.935580	98.502797
39548		9.720647	0.700530	0.500413	0.032698	-0.009990	-0.013941	52.092173	-84.935970	98.403967
39549		9.712655	0.715596	0.517839	0.038378	-0.010702	-0.013348	52.216974	-84.936655	98.301086
39550		9.689016	0.692906	0.524180	0.034425	-0.006785	-0.011373	52.309510	-84.937050	98.228875
39551		9.751281	0.760311	0.533685	0.020302	-0.009845	-0.015403	52.427576	-84.936479	98.122544
39552		9.729157	0.647880	0.414702	0.023428	-0.005964	-0.014486	52.521861	-84.935150	98.042251
39553		9.711938	0.701655	0.527820	0.037378	-0.014169	-0.013290	52.663318	-84.937002	97.922920
39554		9.742689	0.758570	0.562733	0.024658	-0.015611	-0.012485	52.800102	-84.939900	97.800671
39555		9.697230	0.706854	0.485249	0.037226	-0.006350	-0.021103	52.931614	-84.935415	97.691716
39556		9.735058	0.795873	0.564892	0.041148	-0.007123	-0.016920	53.051342	-84.933308	97.596073
39557		9.712659	0.748534	0.494254	0.049707	-0.010842	-0.018918	53.204825	-84.931341	97.471209
39558		9.689197	0.811259	0.534555	0.055351	-0.009354	-0.018650	53.350723	-84.929161	97.357462
39559		9.712193	0.817527	0.539742	0.043749	-0.013885	-0.016862	53.508269	-84.929122	97.225482
39560		9.727257	0.837214	0.563547	0.022828	-0.012233	-0.016005	53.640194	-84.929089	97.107056
39561		9.705649	0.744231	0.430538	0.021312	-0.006348	-0.015386	53.740033	-84.927104	97.020217
39562		9.712139	0.672732	0.453840	0.013230	-0.009806	-0.014300	53.847272	-84.926998	96.921053
39563		9.728027	0.646505	0.415338	0.016515	-0.013720	-0.005556	53.945361	-84.932031	96.833213
39564		9.719155	0.621552	0.461255	0.014311	-0.010697	-0.013652	54.055512	-84.932494	96.731747
39565		9.711950	0.591204	0.416173	0.017154	-0.010571	-0.010118	54.155101	-84.934330	96.642621
39566		9.703536	0.586198	0.447879	0.027796	-0.011694	-0.011507	54.270175	-84.936090	96.543971
39567		9.717443	0.630871	0.548744	0.032398	-0.011499	-0.011550	54.388814	-84.937563	96.444483
39568		9.725368	0.618476	0.529099	0.026278	-0.005807	-0.010889	54.469845	-84.937616	96.379136
39569		9.694734	0.648842	0.526022	0.039002	-0.004334	-0.011669	54.555006	-84.936623	96.317066
39570		9.718612	0.694172	0.503514	0.033638	-0.002061	-0.014546	54.634182	-84.933709	96.257815
39571		9.718540	0.695534	0.503042	0.028362	-0.003208	-0.010271	54.702070	-84.932968	96.206951
39572		9.741977	0.720968	0.494875	0.018794	-0.003937	-0.014702	54.783095	-84.930588	96.137306
39573		9.711713	0.771340	0.477502	0.012113	-0.006724	-0.015256	54.878826	-84.928657	96.048955
39574		9.742232	0.743876	0.479200	0.008910	-0.006239	-0.016847	54.974154	-84.926008	95.959263
39575		9.719055	0.741167	0.471981	0.006389	-0.003841	-0.016200	55.054498	-84.922662	95.883468
39576		9.679974	0.765688	0.501945	0.002910	-0.007114	-0.015161	55.144613	-84.921068	95.795559
39577		9.710097	0.718391	0.518194	0.002827	-0.002740	-0.015852	55.215639	-84.917526	95.726856
39578		9.710419	0.739572	0.503437	0.008194	-0.005003	-0.012965	55.289409	-84.916256	95.658394
39579		9.741368	0.731770	0.491009	0.004268	-0.004245	-0.017141	55.373886	-84.912568	95.576904
39580		9.718587	0.748850	0.469498	0.003228	-0.005541	-0.017440	55.463878	-84.909345	95.489299
39581		9.703378	0.732380	0.443717	0.004991	-0.004517	-0.014554	55.540492	-84.906961	95.416122
39582		9.710437	0.765579	0.487029	0.001830	-0.006221	-0.015799	55.627139	-84.904711	95.331071
39583		9.741385	0.757833	0.474531	0.002870	-0.004923	-0.015498	55.708019	-84.901981	95.252414
39584		9.710244	0.768763	0.485864	0.011393	-0.006435	-0.017824	55.808427	-84.898819	95.159048
39585		9.772153	0.836776	0.495120	0.007472	-0.004722	-0.015540	55.890711	-84.895994	95.081772
39586		9.718758	0.797925	0.437338	0.011394	-0.006433	-0.017820	55.990869	-84.892806	94.988656
39587		9.756822	0.822152	0.468525	0.018118	-0.005822	-0.016916	56.090058	-84.889637	94.900280
39588		9.718076	0.866365	0.484001	0.011760	-0.006089	-0.013296	56.172233	-84.888464	94.825427
39589		9.718856	0.822174	0.420576	0.020737	-0.011627	-0.010406	56.280476	-84.890225	94.729504
39590		9.741068	0.873117	0.488100	0.030030	-0.015592	-0.009796	56.411382	-84.893714	94.616237
39591		9.702040	0.896945	0.517336	0.011811	-0.007316	-0.006489	56.477718	-84.895939	94.557445
39592		9.687398	0.814274	0.443283	0.020656	-0.006292	-0.004640	56.535461	-84.898923	94.512241
39593		9.686245	0.840409	0.518816	0.019437	-0.015718	-0.001607	56.634148	-84.906121	94.425273
39594		9.725299	0.817534	0.487278	0.012454	-0.002255	0.001854	56.642720	-84.910930	94.424718
39595		9.694768	0.761476	0.450570	0.019670	-0.008814	0.001868	56.692489	-84.917606	94.386864
39596		9.740312	0.730486	0.491414	0.017646	-0.012634	0.008076	56.738043	-84.928660	94.352168
39597		9.678696	0.768029	0.499857	0.020718	-0.006553	0.008624	56.752366	-84.937860	94.350737
39598		9.703365	0.765675	0.414366	0.022204	-0.010241	0.007689	56.789202	-84.947973	94.327416
39599		9.709249	0.717937	0.514585	0.015122	-0.010238	0.008724	56.820092	-84.958374	94.306168
39600		9.709757	0.652016	0.465913	-0.008749	-0.004433	0.005305	56.816263	-84.965521	94.305866
39601		9.741196	0.661873	0.439131	-0.003063	-0.005116	0.005911	56.818939	-84.972967	94.302471
39602		9.694745	0.632640	0.439909	-0.013709	-0.004020	0.007286	56.802936	-84.980934	94.311537
39603		9.725470	0.603196	0.441928	-0.014758	-0.006280	0.000535	56.824533	-84.986170	94.282299
39604		9.671385	0.608016	0.446795	-0.017963	-0.005802	-0.001057	56.845678	-84.990695	94.251627
39605		9.724765	0.648783	0.503257	-0.018645	-0.007716	-0.003288	56.886656	-84.994554	94.200638
39606		9.747856	0.653390	0.509475	-0.025815	-0.003340	-0.002950	56.896671	-84.997397	94.176624
39607		9.756488	0.679408	0.461830	-0.020811	-0.005937	-0.004579	56.931305	-85.000073	94.130857
39608		9.733383	0.675474	0.454963	-0.020541	-0.002181	-0.007212	56.953253	-85.000506	94.097897
39609		9.710265	0.671651	0.448225	-0.014856	-0.002865	-0.006610	56.981700	-85.001247	94.061773
39610		9.726400	0.749456	0.430122	-0.011650	-0.003343	-0.005018	57.007319	-85.003094	94.030242
39611		9.702551	0.790939	0.485568	-0.013727	-0.005938	-0.005612	57.049801	-85.005271	93.980646
39612		9.710486	0.777625	0.466545	-0.023288	-0.005727	-0.003578	57.076796	-85.008549	93.941042
39613		9.703215	0.831029	0.456006	-0.024327	-0.007023	-0.003873	57.113067	-85.011895	93.891594
39614		9.733566	0.782531	0.472410	-0.032535	-0.003944	-0.003822	57.125879	-85.014498	93.860907
39615		9.733639	0.697748	0.438492	-0.031808	-0.004215	-0.001235	57.133073	-85.018233	93.836329
39616		9.725701	0.711327	0.457163	-0.027653	0.000974	-0.000041	57.108074	-85.021125	93.846405
39617		9.718507	0.679449	0.413386	-0.020840	-0.002786	0.001548	57.103720	-85.025761	93.839686
39618		9.702639	0.706640	0.450515	-0.012363	-0.002107	-0.001136	57.108412	-85.029085	93.828753
39619		9.725027	0.756218	0.519126	-0.010419	-0.009829	0.003132	57.143385	-85.036674	93.788563
39620		9.749526	0.754761	0.434238	-0.020214	0.000361	-0.003015	57.136671	-85.038326	93.784563
39621		9.687209	0.668658	0.438851	-0.002479	0.000206	0.000995	57.128200	-85.041762	93.792699
39622		9.755109	0.687290	0.549676	0.002581	-0.003627	0.006153	57.123796	-85.049066	93.799490
39623		9.726568	0.664625	0.393783	0.011247	0.006131	0.006597	57.070149	-85.053357	93.860675
39624		9.734489	0.735181	0.409143	0.021667	-0.000913	0.008179	57.054183	-85.060789	93.890048
39625		9.726299	0.728242	0.441674	0.010075	-0.005479	0.009974	57.052053	-85.070317	93.899008
39626		9.727030	0.767113	0.412821	0.004926	0.002725	0.004119	57.020761	-85.074662	93.934136
39627		9.703975	0.762300	0.406226	0.005015	-0.001646	0.004814	57.012998	-85.080520	93.945709
39628		9.726076	0.707086	0.455774	-0.004958	0.000413	0.001989	56.996578	-85.084561	93.960224
39629		9.749504	0.730971	0.448433	-0.015690	0.005887	0.002690	56.942502	-85.087039	94.006451
39630		9.734015	0.692844	0.437930	-0.023363	-0.000387	0.002199	56.919164	-85.091429	94.017325
39631		9.756761	0.677335	0.459099	-0.026256	0.001669	-0.001669	56.898410	-85.093136	94.023963
39632		9.718498	0.654886	0.427770	-0.036942	0.004961	-0.000612	56.847590	-85.094503	94.054613
39633		9.734323	0.627891	0.391095	-0.028790	0.003117	-0.007468	56.838419	-85.092972	94.048218
39634		9.711185	0.624122	0.384789	-0.025183	-0.000164	-0.007470	56.847999	-85.092653	94.025007
39635		9.741096	0.640919	0.449894	-0.016382	0.003034	-0.005986	56.840980	-85.091865	94.023587
39636		9.748918	0.712764	0.465571	-0.013546	0.002216	-0.008918	56.849210	-85.090106	94.008424
39637		9.725749	0.709446	0.459062	-0.012430	-0.001806	-0.014383	56.902069	-85.086803	93.949172
39638		9.748750	0.715098	0.465507	-0.003541	-0.002981	-0.012211	56.956982	-85.085086	93.892907
39639		9.717311	0.705678	0.491791	-0.001509	0.001797	-0.011959	56.987044	-85.081815	93.862806
39640		9.702745	0.728169	0.438250	0.000937	0.004723	-0.006846	56.981978	-85.080266	93.869315
39641		9.718886	0.721651	0.386917	0.004176	0.001108	-0.011371	57.016959	-85.077492	93.837537
39642		9.709763	0.761756	0.482580	0.011936	0.003011	-0.010187	57.039834	-85.074871	93.822328
39643		9.694867	0.764679	0.442957	0.010263	-0.002379	-0.012373	57.101315	-85.072698	93.767462
39644		9.724403	0.762175	0.522080	0.006978	0.003423	-0.008194	57.111804	-85.070906	93.761834
39645		9.717145	0.731465	0.478419	0.002735	0.002610	-0.010075	57.132768	-85.068283	93.743316
39646		9.717698	0.771959	0.450068	0.011579	0.003625	-0.008247	57.144938	-85.066402	93.738646
39647		9.709825	0.701571	0.434984	0.008062	0.002534	-0.007549	57.160268	-85.065015	93.728834
39648		9.710374	0.742068	0.406673	0.016492	0.005403	-0.010580	57.173721	-85.061458	93.725701
39649		9.709975	0.723337	0.421126	0.006345	-0.000671	-0.010079	57.214978	-85.059848	93.688920
39650		9.740142	0.760271	0.471644	0.009146	0.001646	-0.006903	57.231925	-85.059227	93.678056
39651		9.732913	0.729635	0.427743	-0.001103	-0.001004	-0.013545	57.283189	-85.056046	93.626879
39652		9.732216	0.691136	0.456413	-0.003261	0.001721	-0.008380	57.297875	-85.054689	93.611149
39653		9.701096	0.701180	0.468758	0.004810	0.005205	-0.009475	57.303298	-85.051548	93.609397
39654		9.708983	0.688443	0.450504	0.002377	0.003223	-0.008135	57.311960	-85.049844	93.602956
39655		9.732296	0.713367	0.443147	0.002019	0.003834	-0.006199	57.311681	-85.048707	93.605337
39656		9.723655	0.688045	0.490758	0.006620	0.004039	-0.006252	57.311499	-85.047659	93.610213
39657		9.724788	0.767932	0.433978	0.005848	0.006503	-0.009175	57.309170	-85.044263	93.616874
39658		9.716414	0.762746	0.467331	-0.003985	0.001998	-0.010958	57.331049	-85.041577	93.593508
39659		9.732289	0.736546	0.430073	-0.003892	-0.002374	-0.010266	57.376374	-85.040398	93.546714
39660		9.747607	0.775274	0.441135	-0.007908	0.003702	-0.008671	57.378344	-85.038287	93.541075
39661		9.732130	0.738400	0.430497	-0.010707	0.001386	-0.011844	57.404437	-85.035181	93.509684
39662		9.700997	0.748513	0.442647	-0.004297	0.000425	-0.008675	57.426682	-85.034079	93.485770
39663		9.700342	0.709841	0.471309	0.002784	0.000428	-0.009721	57.458251	-85.032293	93.456611
39664		9.707670	0.762176	0.500835	0.004952	-0.001350	-0.008435	57.494780	-85.031852	93.423678
39665		9.707041	0.723403	0.529250	-0.003165	-0.002651	-0.007686	57.532802	-85.031993	93.384633
39666		9.684210	0.739413	0.508264	-0.015978	0.000215	-0.007574	57.545586	-85.031484	93.363498
39667		9.730618	0.664102	0.487744	-0.011736	0.001033	-0.005691	57.551122	-85.031454	93.352148
39668		9.723468	0.633071	0.444192	-0.016073	0.004589	-0.008261	57.541952	-85.029267	93.352995
39669		9.693241	0.597727	0.394175	-0.006871	0.005002	-0.008367	57.537648	-85.026726	93.354300
39670		9.723894	0.674136	0.416510	0.010183	0.002955	-0.006599	57.546731	-85.025844	93.351926
39671		9.746607	0.659643	0.437787	0.009410	0.005421	-0.009520	57.553488	-85.022621	93.351508
39672		9.700019	0.736584	0.458893	0.014370	0.005018	-0.011506	57.570823	-85.018733	93.343258
39673		9.731274	0.748158	0.433001	0.012256	0.005552	-0.006000	57.566056	-85.017172	93.356034
39674		9.745944	0.747674	0.473012	0.004079	0.004549	-0.018487	57.604637	-85.010051	93.320538
39675		9.738764	0.717290	0.429698	-0.004799	0.007595	-0.007771	57.585022	-85.007008	93.338409
39676		9.715609	0.713664	0.423734	-0.000875	0.005896	-0.010054	57.583620	-85.003552	93.340200
39677		9.730552	0.732768	0.449737	0.002593	0.009180	-0.011092	57.571180	-84.998416	93.355127
39678		9.661792	0.760064	0.401973	0.001917	0.007272	-0.013323	57.575258	-84.992956	93.353022
39679		9.707524	0.750420	0.430138	0.002690	0.004807	-0.010402	57.584622	-84.989498	93.346112
39680		9.714700	0.803029	0.460309	0.001917	0.007273	-0.013322	57.588671	-84.984039	93.344037
39681		9.714564	0.804174	0.461174	-0.010173	0.009851	-0.010637	57.563706	-84.978917	93.364193
39682		9.746055	0.835677	0.421445	-0.013280	0.005956	-0.011532	57.560054	-84.974728	93.361107
39683		9.737934	0.849997	0.440776	-0.023513	0.005180	-0.005284	57.534486	-84.973628	93.374199
39684		9.707798	0.814405	0.391017	-0.024285	0.007648	-0.008200	57.503617	-84.970529	93.392105
39685		9.730782	0.819352	0.398468	-0.018188	0.005113	-0.002755	57.472671	-84.970668	93.413654
39686		9.707137	0.775548	0.421225	-0.015805	0.009289	-0.004432	57.424511	-84.968882	93.453796
39687		9.691545	0.842525	0.430764	-0.006867	0.005943	-0.001916	57.392583	-84.969166	93.482851
39688		9.736286	0.877097	0.521498	-0.020257	0.002518	-0.003350	57.375225	-84.969988	93.489512
39689		9.722289	0.813852	0.434424	-0.026087	0.010699	0.001480	57.294295	-84.970434	93.556695
39690		9.690908	0.803009	0.461367	-0.017004	-0.000147	-0.001424	57.286606	-84.973009	93.555521
39691		9.720373	0.799435	0.541059	-0.035911	0.006190	-0.000299	57.230980	-84.973985	93.591666
39692		9.682806	0.692077	0.475746	-0.034465	0.004695	-0.001587	57.187300	-84.974980	93.616578
39693		9.690023	0.618980	0.500302	-0.015244	0.000873	0.001456	57.166385	-84.978448	93.629751
39694		9.689771	0.598768	0.514683	-0.006718	0.000317	0.005558	57.137269	-84.984239	93.656001
39695		9.758949	0.611712	0.534825	0.001397	0.001623	0.004809	57.109778	-84.989089	93.685345
39696		9.751990	0.579607	0.491230	0.007657	0.007223	0.006949	57.045924	-84.993396	93.754735
39697		9.721155	0.608392	0.489433	0.021143	0.004400	-0.003824	57.045062	-84.993229	93.768705
39698		9.729717	0.634798	0.442433	0.017315	0.001723	-0.000854	57.044623	-84.995495	93.779990
39699		9.698595	0.644127	0.454652	0.012979	0.005283	-0.003415	57.032749	-84.995254	93.800317
39700		9.744122	0.738070	0.502650	0.006572	0.007181	-0.000134	56.993620	-84.996163	93.844262
39701		9.745156	0.693091	0.440870	-0.018283	0.009497	-0.003427	56.940748	-84.994598	93.887768
39702		9.713990	0.702514	0.453795	-0.014356	0.007800	-0.005713	56.906150	-84.992630	93.915128
39703		9.775536	0.769866	0.464947	-0.019366	0.009454	-0.010507	56.878231	-84.987677	93.932957
39704		9.729610	0.657209	0.432827	-0.020811	0.010953	-0.009211	56.835253	-84.983040	93.965017
39705		9.713135	0.665094	0.485369	-0.019990	0.006296	-0.005955	56.808063	-84.981260	93.981758
39706		9.736626	0.710061	0.464481	-0.020086	0.009741	-0.013073	56.786004	-84.975148	93.993235
39707		9.728165	0.704690	0.498553	-0.007374	0.012190	-0.007428	56.739229	-84.970811	94.036893
39708		9.742770	0.703528	0.539131	-0.012909	0.006307	-0.006998	56.718380	-84.968688	94.051284
39709		9.696587	0.695301	0.526545	-0.009081	0.008988	-0.009962	56.697162	-84.964141	94.068304
39710		9.673716	0.711598	0.506238	-0.002936	0.003323	-0.010633	56.711240	-84.961215	94.053369
39711		9.727777	0.708062	0.501343	-0.000817	0.003731	-0.009692	56.722330	-84.958450	94.042707
39712		9.735756	0.695480	0.483221	-0.004432	0.007009	-0.009675	56.712108	-84.954824	94.051306
39713		9.744012	0.702479	0.451167	-0.002004	0.009929	-0.004564	56.670625	-84.952566	94.092738
39714		9.689783	0.707529	0.457178	0.006573	0.006255	-0.006567	56.659765	-84.950664	94.108307
39715		9.720811	0.699465	0.445704	0.003062	0.004226	-0.012315	56.679727	-84.946491	94.090969
39716		9.704800	0.747445	0.469362	0.008283	0.008530	-0.010470	56.671438	-84.942005	94.104942
39717		9.696602	0.762020	0.488613	0.011898	0.005254	-0.010484	56.684357	-84.938386	94.099755
39718		9.719801	0.787330	0.481541	0.006936	0.005650	-0.008498	56.683869	-84.935750	94.105121
39719		9.757441	0.790667	0.528285	0.002744	0.003573	-0.003602	56.676173	-84.935954	94.115368
39720		9.743252	0.832225	0.460825	-0.014362	0.008729	0.000736	56.614046	-84.936767	94.170363
39721		9.697132	0.823440	0.448121	-0.019576	0.003495	-0.007548	56.608028	-84.935105	94.166085
39722		9.688694	0.817639	0.481730	-0.028153	0.007168	-0.005544	56.568783	-84.933402	94.190177
39723		9.673435	0.779998	0.471456	-0.040145	0.005364	-0.002171	56.521777	-84.933718	94.215216
39724		9.681485	0.766586	0.453662	-0.047945	0.005641	-0.003688	56.472837	-84.933382	94.237657
39725		9.718866	0.749471	0.515106	-0.056057	0.004337	-0.002930	56.424963	-84.933656	94.254415
39726		9.765358	0.653946	0.509362	-0.063184	0.006522	-0.002200	56.357232	-84.933746	94.286955
39727		9.750125	0.615889	0.499205	-0.056829	0.007751	0.000635	56.277743	-84.934633	94.335009
39728		9.727061	0.611189	0.493408	-0.049334	0.004975	-0.002006	56.225556	-84.935301	94.359909
39729		9.704508	0.646509	0.459468	-0.025459	0.013885	-0.002982	56.144055	-84.932503	94.428025
39730		9.705768	0.746312	0.389793	0.008639	0.008862	-0.005952	56.118445	-84.930049	94.459591
39731		9.681386	0.787058	0.446277	0.035702	0.002557	-0.001091	56.126006	-84.931764	94.473477
39732		9.708806	0.932956	0.608956	0.034832	0.009418	-0.004655	56.107760	-84.929748	94.512717
39733		9.727324	0.941213	0.453022	0.011326	0.015550	-0.003439	56.040221	-84.926187	94.587976
39734		9.712626	0.943381	0.414205	0.023975	0.004534	-0.000304	56.026271	-84.927797	94.616657
39735		9.708863	0.953665	0.596880	-0.006097	0.003476	0.001018	55.997379	-84.930209	94.643098
39736		9.720447	0.909806	0.410881	-0.033169	0.010695	0.002585	55.907223	-84.931211	94.715416
39737		9.744228	0.829490	0.384471	-0.046233	0.008866	-0.001112	55.834192	-84.930869	94.763083
39738		9.759331	0.722958	0.405071	-0.047680	0.010366	0.000197	55.746115	-84.930826	94.824966
39739		9.720564	0.640434	0.416502	-0.048307	0.007197	0.004742	55.659521	-84.933782	94.885059
39740		9.712430	0.653454	0.436019	-0.031252	0.004230	0.000043	55.614120	-84.935636	94.913548
39741		9.742980	0.604619	0.453370	-0.034965	0.011895	-0.000583	55.529469	-84.934546	94.979363
39742		9.719616	0.580138	0.462204	-0.019105	0.015111	-0.000144	55.433714	-84.932772	95.065390
39743		9.743431	0.644192	0.427913	-0.006610	0.010654	0.001976	55.362562	-84.933279	95.133962
39744		9.757987	0.641884	0.468933	-0.006042	0.016935	0.003558	55.251063	-84.932631	95.243310
39745		9.744204	0.703295	0.388572	-0.003560	0.016738	0.002562	55.147203	-84.931406	95.346473
39746		9.696736	0.738681	0.439420	0.004286	0.014264	0.004410	55.052680	-84.932000	95.444719
39747		9.732884	0.785369	0.550395	-0.000776	0.019043	0.005745	54.926500	-84.931480	95.571891
39748		9.717938	0.766972	0.526951	-0.007588	0.022817	0.004206	54.780764	-84.929119	95.714721
39749		9.719897	0.761521	0.438066	-0.001240	0.024029	0.007029	54.623367	-84.927490	95.872966
39750		9.756815	0.723351	0.514843	0.003140	0.018264	0.009898	54.486609	-84.929234	96.012955
39751		9.764610	0.689124	0.512411	0.004026	0.026137	0.009222	54.313023	-84.927850	96.190483
39752		9.696157	0.714567	0.466151	0.011823	0.025854	0.010747	54.138193	-84.927375	96.373687
39753		9.696110	0.713780	0.468348	0.000260	0.020348	0.006064	54.004813	-84.926383	96.508685
39754		9.710901	0.730826	0.496217	-0.011214	0.027025	0.010691	53.810986	-84.925397	96.697711
39755		9.727184	0.702913	0.461425	-0.022476	0.024023	0.010187	53.629845	-84.924991	96.867580
39756		9.734956	0.668763	0.459374	-0.019307	0.024814	0.004996	53.464841	-84.922028	97.023015
39757		9.726359	0.661608	0.494762	-0.026386	0.024812	0.006048	53.293476	-84.919362	97.180822
39758		9.702922	0.636552	0.504643	-0.022869	0.025913	0.005367	53.119702	-84.916110	97.343013
39759		9.748825	0.644792	0.521057	-0.020753	0.026319	0.006316	52.943142	-84.912964	97.509278
39760		9.726090	0.659628	0.502630	-0.015740	0.023729	0.004656	52.787841	-84.910058	97.657026
39761		9.725644	0.638822	0.519481	-0.017306	0.030525	0.011763	52.570895	-84.907845	97.865819
39762		9.763697	0.680279	0.540845	-0.009833	0.029018	0.002336	52.401506	-84.901951	98.031111
39763		9.711003	0.639500	0.485661	-0.006662	0.029436	0.010367	52.202164	-84.899366	98.228355
39764		9.725705	0.656401	0.514184	0.003936	0.030537	0.008644	52.008797	-84.895693	98.425642
39765		9.763772	0.697645	0.535537	0.000051	0.030044	0.011270	51.807098	-84.893182	98.629117
39766		9.755467	0.709988	0.557256	-0.002109	0.031839	0.010007	51.598839	-84.889536	98.837880
39767		9.748810	0.677704	0.516155	-0.008155	0.033139	0.011364	51.377025	-84.885831	99.056831
39768		9.733934	0.659099	0.493701	-0.011273	0.030533	0.003662	51.196077	-84.879681	99.232905
39769		9.747767	0.636180	0.550600	-0.003881	0.031752	0.013590	50.975361	-84.877332	99.453216
39770		9.716872	0.663923	0.551354	-0.008817	0.031247	0.009129	50.770993	-84.873241	99.654219
39771		9.757051	0.680623	0.495933	-0.008491	0.032842	0.006874	50.569953	-84.867379	99.852123
39772		9.732670	0.615477	0.534618	-0.024103	0.034349	0.010260	50.337730	-84.862524	100.072303
39773		9.678803	0.638753	0.528615	-0.016267	0.031860	0.012125	50.116517	-84.859199	100.285994
39774		9.730687	0.657578	0.604135	-0.028608	0.029769	0.010958	49.901935	-84.856185	100.485872
39775		9.707143	0.631855	0.614620	-0.041825	0.035471	0.012717	49.646676	-84.851633	100.719044
39776		9.701006	0.619315	0.559899	-0.053837	0.034982	0.009299	49.399917	-84.845805	100.936720
39777		9.706857	0.628976	0.622053	-0.061615	0.034006	0.014556	49.133624	-84.842415	101.169591
39778		9.745746	0.584822	0.609824	-0.070274	0.042116	0.015981	48.816495	-84.836605	101.448469
39779		9.714835	0.611727	0.611883	-0.074823	0.039742	0.016374	48.508557	-84.831607	101.715556
39780		9.705895	0.603184	0.649087	-0.072047	0.043350	0.012843	48.199126	-84.823712	101.985691
39781		9.720871	0.639189	0.665333	-0.070549	0.039669	0.011875	47.914269	-84.816571	102.232067
39782		9.727047	0.668619	0.714127	-0.076878	0.038501	0.009062	47.642439	-84.808696	102.461672
39783		9.720463	0.636412	0.673906	-0.083249	0.039534	0.005944	47.377677	-84.798887	102.680569
39784		9.690902	0.600604	0.626709	-0.066637	0.042823	-0.004185	47.149997	-84.783571	102.871743
39785		9.661465	0.689724	0.586854	-0.044606	0.038085	-0.004107	46.958907	-84.769956	103.038904
39786		9.677881	0.663244	0.553114	-0.050523	0.032808	-0.001805	46.778111	-84.759438	103.192275
39787		9.693385	0.720895	0.554311	-0.040829	0.025997	-0.002914	46.640588	-84.750978	103.307821
39788		9.701088	0.812107	0.560083	-0.028819	0.027775	-0.006249	46.515170	-84.740522	103.418074
39789		9.693623	0.866122	0.553558	-0.032159	0.019206	-0.011114	46.449178	-84.731292	103.466780
39790		9.712133	0.834918	0.681632	-0.042673	0.013737	-0.008777	46.390476	-84.725303	103.502064
39791		9.750493	0.773375	0.680977	-0.052645	0.018078	-0.011846	46.321338	-84.716202	103.542146
39792		9.741400	0.767170	0.715707	-0.041679	0.017243	-0.008736	46.247600	-84.708835	103.593103
39793		9.726092	0.730089	0.705702	-0.045239	0.018357	-0.008353	46.166891	-84.701054	103.649065
39794		9.711343	0.712932	0.681854	-0.037835	0.018627	-0.004876	46.073045	-84.694717	103.722431
39795		9.704447	0.662422	0.652921	-0.024009	0.016987	-0.004721	45.995412	-84.688961	103.787525
39796		9.659006	0.673898	0.626596	-0.020545	0.018955	0.001070	45.884912	-84.684921	103.887567
39797		9.689102	0.624792	0.644442	-0.014079	0.014849	-0.001947	45.810821	-84.681138	103.954813
39798		9.666084	0.620359	0.638729	-0.014791	0.013835	0.002248	45.721391	-84.679600	104.037006
39799		9.656525	0.593174	0.686506	-0.008366	0.011929	-0.001071	45.659810	-84.677329	104.094982
39800		9.718495	0.555481	0.678316	-0.004805	0.010820	-0.001445	45.605332	-84.675468	104.147818
39801		9.687108	0.564438	0.690969	-0.000211	0.011005	-0.001495	45.554365	-84.673385	104.199817
39802		9.733981	0.613478	0.678704	-0.007946	0.009136	-0.002717	45.511016	-84.671671	104.239669
39803		9.710435	0.589202	0.686176	-0.005796	0.007325	-0.001469	45.472893	-84.671070	104.275557
39804		9.718740	0.576352	0.668303	0.001578	0.011116	-0.005061	45.436484	-84.667598	104.313919
39805		9.688449	0.626020	0.653013	0.004526	0.005917	-0.007408	45.436006	-84.665137	104.317944
39806		9.702902	0.644160	0.679464	-0.002511	0.003734	-0.006061	45.433873	-84.664224	104.319528
39807		9.694984	0.678034	0.684943	-0.014925	0.006082	-0.007832	45.423350	-84.661523	104.322442
39808		9.670858	0.634165	0.706125	-0.027295	0.006229	-0.009301	45.410069	-84.658284	104.320961
39809		9.673035	0.591214	0.643244	-0.032542	0.004159	-0.011518	45.413681	-84.654852	104.299540
39810		9.663993	0.585100	0.676401	-0.020172	0.004014	-0.010045	45.417335	-84.652201	104.285149
39811		9.688008	0.506629	0.648060	-0.021143	0.001852	-0.016829	45.460268	-84.647528	104.230790
39812		9.665551	0.523838	0.627232	-0.012291	0.000615	-0.014686	45.503097	-84.644344	104.181587
39813		9.726360	0.571589	0.653691	0.005516	-0.004931	-0.016569	45.589580	-84.642494	104.098827
39814		9.725049	0.657374	0.689160	-0.003989	-0.005578	-0.020978	45.690936	-84.639201	103.995617
39815		9.725467	0.679575	0.674985	-0.011808	-0.003044	-0.022789	45.785546	-84.634018	103.894727
39816		9.672158	0.726503	0.651253	-0.008856	-0.008238	-0.025138	45.913120	-84.630041	103.762382
39817		9.677109	0.719057	0.722544	-0.015758	-0.017028	-0.022896	46.066859	-84.630339	103.599831
39818		9.693836	0.695103	0.684081	-0.019207	-0.003299	-0.026237	46.171139	-84.623888	103.484925
39819		9.594155	0.713072	0.659777	-0.015237	-0.008534	-0.021507	46.281770	-84.621328	103.365958
39820		9.671719	0.735417	0.647755	-0.012934	-0.015609	-0.026125	46.442950	-84.619746	103.197509
39821		9.702970	0.728916	0.634810	-0.011584	-0.014040	-0.021286	46.578841	-84.619392	103.055292
39822		9.706218	0.727593	0.542393	0.008851	-0.010690	-0.020855	46.708595	-84.617992	102.930944
39823		9.684661	0.785930	0.492375	0.048553	-0.014355	-0.023642	46.890087	-84.616711	102.777522
39824		9.676579	0.879196	0.708718	0.066687	-0.019596	-0.021007	47.093096	-84.618658	102.612879
39825		9.705084	0.895965	0.772375	0.034704	-0.015395	-0.010249	47.215934	-84.623316	102.510393
39826		9.678911	0.982780	0.635880	0.019422	-0.012276	-0.009060	47.310076	-84.627371	102.427899
39827		9.672817	1.097441	0.583940	0.019516	-0.016676	-0.008459	47.422956	-84.633238	102.326684
39828		9.648963	1.054135	0.602322	0.013345	-0.023116	-0.017142	47.596046	-84.638040	102.161398
39829		9.698594	0.994709	0.728310	-0.020917	-0.024865	-0.017705	47.761384	-84.643089	101.984228
39830		9.714552	0.929302	0.716496	-0.070516	-0.022635	-0.010614	47.858048	-84.650396	101.847447
39831		9.679577	0.719893	0.623738	-0.097740	-0.022168	-0.012480	47.946334	-84.656557	101.703467
39832		9.717648	0.617929	0.646686	-0.091646	-0.026988	-0.006773	48.035594	-84.667129	101.561967
39833		9.695835	0.509487	0.615321	-0.080821	-0.021206	-0.004569	48.097366	-84.676256	101.454343
39834		9.734807	0.447564	0.610441	-0.056353	-0.023928	-0.005892	48.190023	-84.685999	101.329745
39835		9.728353	0.397036	0.577492	-0.048017	-0.017966	-0.002712	48.248650	-84.694657	101.244205
39836		9.754450	0.398313	0.491816	-0.026462	-0.017717	-0.001415	48.312085	-84.703918	101.166157
39837		9.807514	0.333707	0.526797	-0.007717	-0.017539	-0.003628	48.396007	-84.712017	101.078421
39838		9.736167	0.344341	0.581284	0.007794	-0.014641	-0.007695	48.491125	-84.717397	100.988269
39839		9.696948	0.387146	0.596539	0.013188	-0.017819	-0.011354	48.620484	-84.722259	100.866955
39840		9.697403	0.408544	0.581174	0.012061	-0.014711	-0.012264	48.737491	-84.725664	100.757277
39841		9.694819	0.433633	0.657042	0.016427	-0.017830	-0.022987	48.916633	-84.725468	100.587773
39842		9.750216	0.492366	0.609764	0.015202	-0.010321	-0.024489	49.064848	-84.721882	100.448561
39843		9.745107	0.525420	0.522742	0.032820	-0.005673	-0.034359	49.242199	-84.712120	100.290141
39844		9.742395	0.552130	0.598944	0.042957	-0.016599	-0.030436	49.459164	-84.708211	100.097853
39845		9.746973	0.669710	0.678402	0.034703	-0.011289	-0.030565	49.647620	-84.702090	99.929509
39846		9.749346	0.814262	0.580632	0.043563	-0.011155	-0.035189	49.857496	-84.693963	99.744686
39847		9.755275	0.848607	0.623766	0.030642	-0.017310	-0.038260	50.101495	-84.686582	99.518253
39848		9.763097	0.819113	0.617236	0.001103	-0.009825	-0.035486	50.280698	-84.677707	99.339797
39849		9.738656	0.720245	0.423687	-0.010445	-0.000965	-0.031042	50.394481	-84.667389	99.220219
39850		9.721327	0.729207	0.474755	-0.010940	-0.009441	-0.032397	50.551815	-84.659658	99.056792
39851		9.751507	0.663422	0.503240	-0.012565	-0.014813	-0.034669	50.743068	-84.652698	98.858394
39852		9.765233	0.643808	0.555891	-0.018121	-0.005046	-0.031911	50.872620	-84.643502	98.718735
39853		9.712801	0.587263	0.510150	-0.004995	-0.006317	-0.034369	51.025726	-84.633511	98.563012
39854		9.749764	0.592603	0.556258	0.025096	-0.007486	-0.035479	51.204226	-84.623532	98.399053
39855		9.772217	0.580625	0.576357	0.034228	-0.004874	-0.035905	51.377445	-84.612268	98.245804
39856		9.695160	0.603589	0.559625	0.061301	-0.000006	-0.028225	51.512489	-84.602780	98.146327
39857		9.716374	0.715611	0.588294	0.075241	-0.004621	-0.034230	51.700441	-84.592092	98.001942
39858		9.731987	0.837463	0.544112	0.082650	-0.004318	-0.030770	51.876754	-84.582930	97.873294
39859		9.692476	0.902808	0.546209	0.066980	0.000685	-0.034328	52.033814	-84.570240	97.755328
39860		9.706401	0.904002	0.585283	0.052234	-0.003434	-0.034134	52.199841	-84.559176	97.619501
39861		9.675046	0.935874	0.582305	0.040948	-0.005592	-0.028203	52.348309	-84.551428	97.494600
39862		9.674595	0.918566	0.595200	0.033550	-0.007228	-0.024896	52.486846	-84.545817	97.375631
39863		9.728438	0.897090	0.603504	0.025013	-0.005768	-0.022517	52.605653	-84.540646	97.271395
39864		9.739365	0.862299	0.506750	0.028416	-0.001595	-0.017074	52.685522	-84.536595	97.208405
39865		9.716309	0.859791	0.498943	0.048038	-0.006882	-0.022495	52.822514	-84.531778	97.098967
39866		9.745105	0.897398	0.549492	0.045939	-0.008616	-0.016692	52.944284	-84.530303	97.003970
39867		9.705432	0.940730	0.565012	0.056422	-0.004401	-0.012296	53.037131	-84.529250	96.943924
39868		9.688854	1.008785	0.573815	0.035614	-0.005947	-0.017484	53.142957	-84.526462	96.858999
39869		9.705819	1.004387	0.521476	0.014754	-0.006638	-0.016260	53.236788	-84.524330	96.774018
39870		9.730435	0.906406	0.506057	-0.001454	-0.009311	-0.014788	53.327699	-84.523906	96.682741
39871		9.738025	0.814283	0.541910	-0.013387	-0.013376	-0.011132	53.419370	-84.526420	96.583636
39872		9.700631	0.792803	0.508094	-0.025177	-0.009236	-0.010635	53.481575	-84.527856	96.507542
39873		9.700605	0.793717	0.507173	-0.027167	-0.014032	-0.010954	53.568084	-84.530644	96.405676
39874		9.705842	0.745227	0.606545	-0.019559	-0.007711	-0.010371	53.625321	-84.531665	96.337807
39875		9.708453	0.721906	0.528497	-0.025166	-0.010568	-0.003898	53.671380	-84.536495	96.277876
39876		9.714330	0.733012	0.585930	-0.004189	-0.014266	-0.004518	53.748452	-84.542429	96.198929
39877		9.705940	0.746403	0.603525	-0.013812	-0.011922	-0.002771	53.803731	-84.548228	96.136386
39878		9.714414	0.733531	0.583881	-0.013930	-0.007526	-0.003383	53.838801	-84.552392	96.094026
39879		9.699795	0.695995	0.571065	-0.006733	-0.011883	-0.003827	53.901832	-84.557691	96.027770
39880		9.737417	0.738609	0.588838	-0.013045	-0.014430	0.000093	53.958854	-84.565787	95.963869
39881		9.731256	0.687527	0.557353	-0.020798	-0.002894	0.001554	53.951233	-84.570544	95.960352
39882		9.716795	0.669750	0.531244	-0.027768	-0.005983	-0.003494	53.971526	-84.574127	95.924873
39883		9.716630	0.649798	0.544851	-0.034905	-0.003820	-0.002734	53.975472	-84.577204	95.901847
39884		9.710238	0.578911	0.527876	-0.023671	-0.000780	-0.002230	53.968271	-84.579618	95.896344
39885		9.656138	0.602976	0.518797	-0.025401	-0.001764	-0.005094	53.975915	-84.580898	95.875369
39886		9.679191	0.628244	0.511854	-0.012270	-0.002990	-0.007535	54.004892	-84.581598	95.840087
39887		9.708596	0.724846	0.521785	-0.012600	-0.003258	-0.012019	54.051609	-84.580157	95.787587
39888		9.717288	0.753210	0.474765	-0.014211	-0.008637	-0.014274	54.130962	-84.579621	95.700586
39889		9.752213	0.820525	0.570803	-0.025353	-0.002613	-0.011501	54.165231	-84.578247	95.653120
39890		9.737790	0.824024	0.531305	-0.051249	0.000607	-0.015252	54.181526	-84.574146	95.608143
39891		9.762669	0.746044	0.502755	-0.041626	-0.001730	-0.017006	54.221989	-84.569897	95.544156
39892		9.699275	0.683640	0.581683	-0.033781	-0.004204	-0.015214	54.271565	-84.567418	95.475801
39893		9.707482	0.651765	0.576642	-0.026118	-0.000085	-0.014335	54.303140	-84.563840	95.430147
39894		9.693068	0.655486	0.537033	-0.011258	-0.000327	-0.013926	54.342027	-84.560656	95.385493
39895		9.675958	0.662626	0.588507	0.000094	-0.001686	-0.012831	54.391127	-84.558279	95.337333
39896		9.684186	0.630646	0.583492	0.000679	0.002392	-0.010886	54.412832	-84.555599	95.316808
39897		9.709438	0.592812	0.527160	-0.004620	0.002491	-0.013365	54.440399	-84.551565	95.287998
39898		9.663781	0.625223	0.485825	0.010872	0.005488	-0.017427	54.475588	-84.544802	95.259794
39899		9.694893	0.598568	0.487825	0.016088	-0.003663	-0.018217	54.561454	-84.540599	95.184802
39900		9.692336	0.643877	0.551326	0.013748	0.003374	-0.013641	54.595262	-84.536301	95.159639
39901		9.692346	0.665720	0.537475	0.011813	-0.002265	-0.020377	54.679409	-84.530647	95.083101
39902		9.729677	0.710280	0.556387	0.007159	-0.000288	-0.020609	54.751233	-84.524295	95.015957
39903		9.704143	0.751368	0.612853	0.005053	-0.000688	-0.021538	54.827702	-84.517523	94.942884
39904		9.773018	0.827857	0.592423	-0.015799	-0.001401	-0.020259	54.890278	-84.511686	94.871814
39905		9.750237	0.885723	0.544091	-0.009177	0.002780	-0.026411	54.957839	-84.501501	94.799657
39906		9.701957	0.982973	0.552648	-0.007840	0.005701	-0.028327	55.017532	-84.489529	94.736062
39907		9.701713	0.985474	0.552467	-0.019000	-0.012154	-0.024763	55.146153	-84.484929	94.597000
39908		9.707562	1.038295	0.583016	-0.021852	-0.000144	-0.018862	55.193661	-84.479302	94.537579
39909		9.647256	1.032908	0.529420	-0.029949	-0.001490	-0.018100	55.241156	-84.474359	94.473672
39910		9.698822	1.074546	0.588145	-0.038939	-0.008532	-0.017046	55.313367	-84.472314	94.379596
39911		9.678282	1.007153	0.531224	-0.046256	-0.001145	-0.010460	55.323520	-84.470844	94.344792
39912		9.695021	0.941593	0.521190	-0.035216	-0.004109	-0.007137	55.342913	-84.472018	94.305925
39913		9.711865	0.896161	0.496984	-0.030181	-0.006657	-0.008835	55.384234	-84.473056	94.248112
39914		9.697200	0.818643	0.512062	-0.009068	-0.003480	-0.005957	55.411607	-84.474577	94.216279
39915		9.711621	0.836625	0.537343	-0.000384	-0.010670	-0.001044	55.463443	-84.480615	94.165013
39916		9.711537	0.796517	0.563653	0.003629	-0.014520	-0.003062	55.542431	-84.487080	94.088634
39917		9.717321	0.766924	0.648756	-0.002620	-0.006674	-0.002571	55.578899	-84.491095	94.051255
39918		9.682558	0.701218	0.551576	-0.007275	-0.004700	-0.002796	55.602829	-84.494496	94.023913
39919		9.691102	0.708941	0.518144	0.020135	-0.010200	-0.006823	55.683806	-84.497631	93.955330
39920		9.725773	0.735457	0.641181	0.020513	-0.010775	-0.008751	55.773589	-84.500165	93.877827
39921		9.713940	0.695153	0.536770	0.015102	-0.007648	-0.005114	55.833702	-84.503295	93.826830
39922		9.713937	0.695829	0.535948	0.021091	-0.006698	-0.006804	55.897355	-84.505424	93.775911
39923		9.697057	0.742642	0.558685	0.023837	-0.015664	-0.006597	56.007299	-84.510387	93.679641
39924		9.713855	0.657352	0.560967	0.017634	-0.008654	-0.012515	56.097783	-84.510412	93.599777
39925		9.716339	0.615014	0.496368	0.019741	-0.008250	-0.011585	56.185080	-84.510590	93.524742
39926		9.707843	0.629253	0.514144	0.037151	-0.010835	-0.011888	56.295494	-84.511583	93.436090
39927		9.736629	0.646137	0.578414	0.036821	-0.011089	-0.016355	56.422618	-84.510385	93.330323
39928		9.730614	0.617461	0.532394	0.030812	-0.010676	-0.021363	56.559786	-84.506764	93.211146
39929		9.730541	0.619588	0.531261	0.042746	-0.007929	-0.018333	56.680947	-84.503567	93.114691
39930		9.693144	0.599329	0.497125	0.042926	-0.013157	-0.024114	56.846048	-84.499353	92.974424
39931		9.693027	0.581937	0.509721	0.052288	-0.006673	-0.027089	56.994191	-84.491533	92.856797
39932		9.701379	0.592355	0.475665	0.071283	-0.013741	-0.034761	57.212142	-84.482298	92.679752
39933		9.692758	0.589103	0.506588	0.080849	-0.013834	-0.036796	57.442481	-84.471920	92.495956
39934		9.667137	0.672409	0.533459	0.101708	-0.013038	-0.038025	57.683284	-84.460755	92.313461
39935		9.704252	0.699549	0.564025	0.101520	-0.017670	-0.041822	57.958804	-84.448970	92.095953
39936		9.709992	0.734937	0.606229	0.107472	-0.015828	-0.037053	58.212040	-84.438963	91.904276
39937		9.741037	0.791458	0.550139	0.094124	-0.017959	-0.045121	58.492984	-84.425459	91.676886
39938		9.726317	0.798315	0.508154	0.094702	-0.013851	-0.043153	58.745796	-84.411706	91.478277
39939		9.680211	0.813214	0.477862	0.095299	-0.020994	-0.044083	59.036934	-84.399411	91.241551
39940		9.679869	0.837982	0.461027	0.097792	-0.021134	-0.045022	59.331310	-84.386686	91.002947
39941		9.668411	0.920296	0.525740	0.097303	-0.027385	-0.046563	59.660816	-84.374791	90.728387
39942		9.722298	0.942067	0.503095	0.086087	-0.030475	-0.047011	59.998740	-84.363509	90.439276
39943		9.696161	1.046337	0.513444	0.094832	-0.027162	-0.045474	60.319824	-84.351789	90.172111
39944		9.682241	1.133436	0.668752	0.095857	-0.025827	-0.045115	60.632037	-84.339820	89.914450
39945		9.666917	1.199919	0.583658	0.062388	-0.020144	-0.046287	60.899120	-84.325454	89.682646
39946		9.697696	1.216617	0.555047	0.052489	-0.020350	-0.048697	61.166422	-84.309923	89.445135
39947		9.749047	1.243214	0.624211	0.034717	-0.028550	-0.049411	61.466084	-84.296028	89.164745
39948		9.780576	1.180002	0.651750	0.000331	-0.027740	-0.043908	61.725023	-84.284695	88.905593
39949		9.703228	1.162170	0.662377	-0.033195	-0.010864	-0.042281	61.874823	-84.269396	88.736808
39950		9.724783	1.089974	0.469817	-0.078492	-0.021984	-0.035966	62.036447	-84.260367	88.530060
39951		9.744652	0.981871	0.395976	-0.084660	-0.028082	-0.025011	62.196126	-84.258308	88.321744
39952		9.705311	0.945190	0.466701	-0.074597	-0.032224	-0.021910	62.373648	-84.259018	88.101259
39953		9.724866	0.876524	0.363623	-0.085132	-0.034320	-0.026509	62.568265	-84.257725	87.857752
39954		9.670723	0.861930	0.379962	-0.058127	-0.036804	-0.028753	62.796268	-84.256002	87.596015
39955		9.739820	0.839547	0.424934	-0.060592	-0.047016	-0.024221	63.063391	-84.258985	87.293596
39956		9.728769	0.719217	0.374717	-0.050066	-0.034511	-0.023093	63.269741	-84.259342	87.058264
39957		9.694833	0.593813	0.318050	-0.024913	-0.034957	-0.022183	63.490929	-84.260037	86.822681
39958		9.669662	0.615087	0.384738	0.001949	-0.043447	-0.021618	63.769118	-84.263235	86.545100
39959		9.652724	0.643333	0.418458	-0.002883	-0.037129	-0.022497	64.015105	-84.264122	86.297134
39960		9.649014	0.589975	0.293293	-0.000773	-0.036703	-0.021568	64.257413	-84.265415	86.054049
39961		9.692253	0.646849	0.366397	0.002837	-0.038589	-0.028296	64.528594	-84.263459	85.784004
39962		9.709459	0.603708	0.338901	0.002575	-0.041046	-0.032412	64.821630	-84.259971	85.491863
39963		9.714683	0.678145	0.351570	0.000223	-0.034886	-0.034283	65.086066	-84.253752	85.227100
39964		9.743429	0.718164	0.399086	-0.002787	-0.039648	-0.041526	65.389547	-84.244901	84.921367
39965		9.725280	0.808266	0.390807	-0.019683	-0.042175	-0.042495	65.698122	-84.235873	84.600809
39966		9.731063	0.843666	0.431502	-0.041046	-0.038973	-0.046254	65.985190	-84.224069	84.289529
39967		9.665385	0.748483	0.372597	-0.069954	-0.042149	-0.050483	66.280886	-84.210508	83.952973
39968		9.657926	0.706125	0.429923	-0.099315	-0.042548	-0.053085	66.565839	-84.195620	83.610247
39969		9.624524	0.563534	0.387102	-0.143422	-0.036856	-0.058866	66.807645	-84.176125	83.285458
39970		9.568329	0.416213	0.337465	-0.168729	-0.041010	-0.063324	67.063863	-84.155184	82.931616
39971		9.621382	0.403010	0.433413	-0.205778	-0.052347	-0.070003	67.369554	-84.132964	82.506894
39972		9.577914	0.298628	0.485345	-0.275323	-0.047161	-0.086949	67.641572	-84.100508	82.075740
39973		9.542559	0.044494	0.360162	-0.295121	-0.037794	-0.100997	67.879890	-84.058286	81.666883
39974		9.592012	-0.019697	0.333617	-0.289335	-0.039784	-0.112765	68.150610	-84.010141	81.228898
39975		9.602903	0.092527	0.392373	-0.280228	-0.036999	-0.132218	68.445526	-83.950762	80.771734
39976		9.657061	0.434132	0.570722	-0.310375	-0.033965	-0.149922	68.734897	-83.881125	80.302773
39977		9.774970	0.603070	0.489191	-0.363355	-0.025385	-0.163256	68.968269	-83.802337	79.859612
39978		9.724933	0.709160	0.408467	-0.392105	-0.020639	-0.175833	69.176895	-83.715690	79.424633
39979		9.624820	0.810388	0.588398	-0.391172	-0.039246	-0.185351	69.483691	-83.627450	78.891385
39980		9.602734	0.913907	0.678717	-0.428422	-0.026262	-0.210830	69.740615	-83.522688	78.386707
39981		9.415620	0.778459	0.633256	-0.437051	-0.020674	-0.233406	69.992358	-83.404395	77.882165
39982		9.472297	0.806205	0.868681	-0.405607	-0.055313	-0.247046	70.429883	-83.285157	77.208589
39983		9.621440	0.938154	0.712296	-0.360546	-0.050203	-0.256975	70.865564	-83.158969	76.562786
39984		9.645786	1.280340	0.893576	-0.217785	-0.072292	-0.267070	71.476286	-83.030721	75.822800
39985		9.654839	1.230608	0.907600	-0.191706	-0.090641	-0.270547	72.162170	-82.902829	75.022001
39986		9.613419	0.897361	0.792880	-0.106711	-0.093965	-0.252594	72.860866	-82.784177	74.257090
39987		9.568568	0.933281	0.394262	0.062603	-0.051087	-0.235238	73.426591	-82.666872	73.723841
39988		9.484738	1.166700	0.223927	0.224867	-0.085501	-0.228147	74.204233	-82.558183	73.070499
39989		9.691416	1.736038	0.372821	0.207042	-0.112561	-0.230503	75.066180	-82.451107	72.321740
39990		9.830869	1.753947	-0.121613	0.085561	-0.093865	-0.235067	75.764445	-82.337485	71.667627
39991		9.977584	1.626520	-0.249850	0.083532	-0.106274	-0.230180	76.487289	-82.227170	70.987247
39992		10.025519	1.557834	-0.000443	0.029695	-0.109332	-0.233465	77.175434	-82.114356	70.310693
39993		9.998109	1.483802	0.067277	0.002174	-0.091697	-0.227661	77.753103	-82.001560	69.729570
39994		9.849347	1.482211	0.129319	-0.006433	-0.094311	-0.222382	78.315943	-81.891264	69.158294
39995		9.663508	1.455718	0.432951	-0.010365	-0.093339	-0.225988	78.860122	-81.778006	68.603351
39996		9.635956	1.491693	0.587300	-0.046145	-0.096965	-0.227851	79.384420	-81.663420	68.047706
39997		9.705097	1.218299	0.240638	-0.074834	-0.058685	-0.232914	79.735683	-81.541351	67.650165
39998		9.675672	0.842548	-0.208748	-0.037873	-0.046262	-0.241395	80.056640	-81.412959	67.304575
39999		9.762076	0.659479	-0.324532	-0.008856	-0.042069	-0.252392	80.375552	-81.277655	66.977739
40000		9.761900	0.665129	-0.498493	0.007523	-0.044883	-0.272128	80.715991	-81.131192	66.638505
40001		9.765683	0.631892	-0.464729	-0.007784	-0.060883	-0.312059	81.116068	-80.963247	66.229773
40002		9.646032	0.368994	-0.139280	-0.108813	-0.078211	-0.343642	81.521038	-80.778474	65.757357
40003		9.605072	0.347309	0.323494	-0.140004	-0.073940	-0.375074	81.891658	-80.575023	65.301343
40004		9.594883	0.395912	0.338459	-0.164618	-0.035986	-0.410855	82.120352	-80.347864	64.974698
40005		9.432680	0.059313	0.085639	-0.122991	-0.026900	-0.443411	82.344570	-80.101327	64.676345
40006		9.433565	0.099645	0.356784	-0.040246	-0.035664	-0.465650	82.639748	-79.842566	64.354068
40007		9.393829	0.019933	0.346756	-0.072532	-0.018680	-0.504172	82.863742	-79.560542	64.084955
40008		9.506584	-0.329088	0.378491	-0.082406	-0.040243	-0.542268	83.147646	-79.258036	63.748997
40009		9.607718	-0.430721	0.569257	-0.098583	-0.011120	-0.601354	83.340659	-78.919876	63.495660
40010		9.409837	-0.895683	0.374010	-0.212594	0.014986	-0.672721	83.405395	-78.539085	63.306351
40011		9.370303	-1.318942	0.435875	-0.220152	-0.037913	-0.706232	83.611520	-78.142863	62.967958
40012		9.434627	-0.834272	0.954438	-0.212120	0.017660	-0.764118	83.675423	-77.709687	62.779229
40013		9.244793	-1.296421	0.606704	-0.407220	0.060247	-0.832517	83.532696	-77.235319	62.687215
40014		9.133222	-1.058637	0.192622	-0.206761	0.007424	-0.873162	83.643174	-76.740749	62.453147
40015		9.042466	0.501019	1.081658	-0.004921	-0.029568	-0.918521	83.952555	-76.222986	62.132800
40016		8.913608	0.576525	1.055019	-0.174771	-0.004762	-0.999908	84.106401	-75.656525	61.871887
40017		8.809342	0.445439	0.579570	-0.181289	-0.025721	-1.063139	84.298871	-75.055477	61.566377
40018		9.445134	1.241061	0.693948	-0.139561	-0.103741	-1.087585	84.660725	-74.443985	61.109356
40019		8.918047	1.517883	0.883325	-0.223372	-0.009966	-1.087313	84.759366	-73.827707	60.874540
40020		8.824240	2.480767	0.662716	-0.081625	-0.051482	-1.091059	85.005087	-73.210735	60.570445
40021		8.737870	3.651241	0.150881	-0.168765	0.005359	-1.095604	85.079003	-72.588613	60.392718
40022		8.611626	3.889684	-0.489044	-0.315767	-0.047193	-1.105688	85.155540	-71.962732	60.123360
40023		8.846471	4.258150	-0.248963	-0.425839	-0.042099	-1.119540	85.151376	-71.329111	59.871479
40024		8.992337	4.579405	0.248141	-0.624004	-0.027978	-1.119568	85.004399	-70.694420	59.649744
40025		9.357975	4.184416	0.774026	-0.882130	-0.000654	-1.135148	84.667961	-70.050166	59.471146
40026		9.529024	3.150207	0.548974	-1.049625	0.035166	-1.184548	84.194354	-69.375767	59.335848
40027		9.684852	2.790362	0.111893	-1.005865	0.046536	-1.193156	83.739806	-68.696597	59.206257
40028		9.193465	2.825214	0.427042	-0.831805	0.112390	-1.213543	83.303200	-68.001528	59.164184
40029		8.512813	3.138118	0.590462	-0.699122	0.110284	-1.273520	82.965337	-67.273043	59.097197
40030		8.253489	3.213601	0.542764	-0.758837	0.069623	-1.346210	82.667097	-66.505865	58.949699
40031		8.881271	2.475365	0.267037	-0.878361	0.030470	-1.412207	82.365561	-65.704875	58.729884
40032		9.290306	2.370472	0.644350	-0.840199	0.130544	-1.469709	81.975410	-64.863544	58.630400
40033		8.947716	2.863009	1.154388	-0.834425	0.193667	-1.547073	81.536113	-63.973969	58.588211
40034		8.299148	3.562751	1.070836	-0.702881	0.177673	-1.623905	81.214167	-63.041897	58.498940
40035		7.402696	5.034298	1.226920	-0.512273	0.179617	-1.608194	81.001649	-62.119248	58.408516
40036		6.089160	6.232177	1.405583	-0.429298	0.135219	-1.577630	80.880327	-61.217517	58.267908
40037		5.633524	6.964829	1.106523	-0.444770	0.009051	-1.545627	80.869724	-60.345878	57.988912
40038		5.790053	6.538973	0.829703	-0.496451	-0.007502	-1.486385	80.828960	-59.508872	57.708350
40039		6.232561	6.639383	0.249288	-0.362942	0.032702	-1.406881	80.807300	-58.713595	57.492143
40040		6.232236	6.554719	0.564670	-0.284741	0.122915	-1.341659	80.733687	-57.946648	57.387984
40041		7.013703	6.230256	-0.226460	-0.291728	0.110355	-1.292444	80.658925	-57.209053	57.279451
40042		8.162443	6.147426	-0.298955	-0.255736	0.130066	-1.271320	80.583809	-56.481346	57.195209
40043		8.635455	5.619861	-0.375813	-0.365702	0.194984	-1.288031	80.393905	-55.738420	57.172531
40044		9.276812	4.867666	0.061235	-0.430022	0.261553	-1.321794	80.121389	-54.969770	57.205363
40045		9.595658	3.954812	0.668905	-0.509581	0.344069	-1.367145	79.751044	-54.167463	57.302558
40046		9.843543	3.043709	0.380699	-0.478512	0.335617	-1.414712	79.420787	-53.338615	57.373195
40047		9.495547	3.308615	0.862810	-0.234437	0.433187	-1.459118	79.171226	-52.474544	57.518687
40048		8.482750	3.896870	1.009574	-0.158828	0.407600	-1.529414	79.000927	-51.573023	57.620399
40049		7.383433	4.486519	1.159643	-0.146130	0.404786	-1.595424	78.854516	-50.634959	57.701967
40050		5.532516	5.511280	1.666287	-0.141476	0.443243	-1.657419	78.698302	-49.657200	57.801010
40051		4.166924	6.377297	2.012075	-0.136173	0.355923	-1.726353	78.615769	-48.650860	57.808019
40052		3.367297	6.530417	2.260753	-0.280721	0.403727	-1.765885	78.428385	-47.616431	57.844841
40053		3.225482	6.391058	2.088010	-0.373554	0.435775	-1.786959	78.176258	-46.566728	57.897911
40054		4.355620	5.771652	1.902227	-0.483818	0.406935	-1.821938	77.888653	-45.500328	57.913573
40055		5.537977	5.268658	1.738601	-0.303093	0.426112	-1.870144	77.704388	-44.404874	57.929665
40056		6.842144	5.956811	1.973239	-0.045785	0.420582	-1.894191	77.675853	-43.296314	57.934262
40057		7.591985	6.555090	1.210629	0.191333	0.360909	-1.871263	77.810523	-42.208163	57.898484
40058		8.189474	8.075504	1.543669	0.589936	0.331765	-1.842603	78.180055	-41.139133	57.852419
40059		8.724009	9.293399	1.617698	0.657165	0.290168	-1.809741	78.597337	-40.093466	57.790997
40060		10.403431	9.859049	1.885676	0.606360	0.274500	-1.738779	78.978919	-39.088794	57.738792
40061		11.995013	9.628600	1.626957	0.532957	0.378410	-1.629237	79.256417	-38.134663	57.784671
40062		12.353960	9.882185	1.659304	0.715089	0.471854	-1.503663	79.584556	-37.241269	57.919561
40063		12.650175	11.269950	1.988077	0.964803	0.476770	-1.360352	80.040642	-36.429408	58.082138
40064		11.768878	13.156120	1.709166	1.088945	0.567456	-1.197748	80.517098	-35.701224	58.334136
40065		10.423401	14.118684	1.861695	0.986998	0.524371	-0.980071	80.937611	-35.102256	58.585738
40066		10.697868	13.987185	1.759307	0.591548	0.488407	-0.785523	81.134373	-34.617186	58.836020
40067		9.810978	13.237028	1.157458	0.384932	0.625392	-0.636709	81.152305	-34.205207	59.195906
40068		8.919903	12.583510	1.193099	0.319921	0.546682	-0.483080	81.156752	-33.886654	59.516948
40069		9.347036	11.652901	0.820976	0.148590	0.466080	-0.289756	81.083940	-33.685065	59.802388
40070		8.270475	10.886574	0.724534	-0.064974	0.543531	-0.185623	80.854882	-33.534256	60.150540
40071		6.616852	9.464749	0.700603	-0.236946	0.529927	-0.103021	80.528693	-33.430594	60.497175
40072		5.619122	8.754587	1.075227	-0.159123	0.367948	0.110267	80.294734	-33.460891	60.757852
40073		5.080839	8.163795	0.981413	-0.208759	0.272519	0.260163	80.057796	-33.584834	60.971779
40074		4.720715	7.798727	0.966022	-0.163780	0.234513	0.331673	79.855207	-33.751648	61.169537
40075		4.501431	7.748679	1.325105	-0.170152	0.222068	0.353517	79.651049	-33.932036	61.362559
40076		3.638166	7.057612	1.288945	-0.256384	0.228380	0.343586	79.394588	-34.104950	61.559976
40077		3.211944	5.834274	1.067867	-0.120389	0.119411	0.337326	79.257032	-34.285890	61.683468
40078		3.414783	6.806400	0.694733	0.419735	0.077670	0.351575	79.443574	-34.478767	61.780565
40079		3.801198	9.099659	2.109366	0.370872	0.138405	0.307357	79.581732	-34.641149	61.913082
40080		4.186005	8.749878	1.273505	0.051841	0.048216	0.196007	79.580028	-34.749735	61.969807
40081		5.077089	8.607714	1.446761	0.118033	0.091217	0.070242	79.608385	-34.783478	62.040144
40082		4.785771	7.824939	0.958635	-0.012344	0.128641	-0.018314	79.553765	-34.762958	62.125061
40083		4.702486	6.998792	0.833276	0.054286	0.077450	-0.021842	79.557628	-34.746185	62.174332
40084		4.802186	6.818383	1.224656	0.068043	0.089929	0.032239	79.560602	-34.758143	62.239056
40085		5.256396	6.713999	1.311586	0.073503	0.215243	0.075897	79.514511	-34.782088	62.395221
40086		5.543743	6.792278	0.953302	0.244033	0.361237	0.070377	79.509333	-34.787193	62.650935
40087		5.256130	7.751004	0.962269	0.538789	0.535107	0.036898	79.607509	-34.756011	63.021576
40088		4.863689	8.775794	1.186246	0.634654	0.585020	-0.035245	79.746626	-34.679207	63.417334
40089		5.266651	9.309600	0.719016	0.674301	0.554946	-0.128965	79.927421	-34.553941	63.780685
40090		5.465007	9.478517	0.356106	0.761603	0.498896	-0.271055	80.190485	-34.354745	64.088571
40091		5.510491	9.591336	0.534930	0.817278	0.337496	-0.390942	80.556060	-34.105105	64.272717
40092		5.662738	9.273089	0.969072	0.772771	0.217189	-0.485047	80.947680	-33.813920	64.365859
40093		6.032159	9.543443	1.376221	0.717506	0.170888	-0.516687	81.326305	-33.509833	64.426107
40094		6.302727	9.544582	1.185178	0.607071	0.195984	-0.512016	81.631146	-33.206171	64.505888
40095		6.456673	9.619215	1.031620	0.549121	0.210806	-0.528033	81.897777	-32.892938	64.595582
40096		6.716663	9.684232	0.718284	0.450968	0.218401	-0.483930	82.102789	-32.604042	64.695881
40097		6.570481	9.198703	1.091546	0.431732	0.126864	-0.457986	82.328546	-32.337698	64.737875
40098		6.726920	9.376227	1.400890	0.355737	0.054271	-0.397538	82.533362	-32.110899	64.737670
40099		6.846277	9.215162	1.676965	0.281162	0.092886	-0.272501	82.675616	-31.952716	64.774957
40100		6.384159	8.842273	1.929237	0.182298	0.189694	-0.188279	82.723021	-31.834984	64.884597
40101		6.763584	8.637019	1.891422	0.131632	0.200680	-0.092926	82.733474	-31.771138	65.009612
40102		6.758087	8.666751	1.829515	0.161172	0.250161	0.023756	82.738208	-31.769596	65.177685
40103		6.611701	8.643802	1.763333	0.202691	0.274340	0.108655	82.754370	-31.815063	65.369129
40104		6.495791	8.434297	1.555496	0.182234	0.298584	0.178047	82.746841	-31.897752	65.582896
40105		6.199191	8.669813	1.567880	0.179314	0.317307	0.289473	82.725460	-32.042878	65.818953
40106		5.510155	8.436787	1.480088	0.163959	0.282574	0.377162	82.702798	-32.239779	66.039788
40107		5.565549	8.164057	1.445600	0.099960	0.221438	0.439669	82.661525	-32.477080	66.225500
40108		5.308676	8.377389	1.469141	0.067813	0.193129	0.530108	82.606741	-32.767198	66.400834
40109		5.466729	8.475846	1.307502	0.008626	0.148097	0.628777	82.528475	-33.117064	66.555381
40110		5.684115	9.148606	1.574085	-0.074165	0.201913	0.787642	82.373090	-33.552324	66.762420
40111		5.209496	8.573597	1.404673	-0.115383	0.286455	0.958207	82.150033	-34.077843	67.045912
40112		4.817225	8.483687	1.590558	-0.212630	0.280831	1.074135	81.862215	-34.668015	67.341477
40113		4.725074	8.068667	1.441280	-0.348014	0.186906	1.149453	81.523547	-35.307814	67.585763
40114		4.904996	8.076073	1.627170	-0.470357	0.153350	1.248405	81.115843	-36.004749	67.824366
40115		4.550966	7.624295	1.470523	-0.511502	0.179821	1.387313	80.656475	-36.776848	68.105993
40116		4.269626	7.027220	1.630143	-0.527678	0.122431	1.554001	80.190680	-37.646266	68.377721
40117		4.280387	6.754181	1.494522	-0.591650	0.101162	1.704033	79.674413	-38.601007	68.666117
40118		4.152382	6.726355	1.532662	-0.597786	0.035406	1.835444	79.160180	-39.634160	68.939678
40119		3.977761	6.326272	1.188099	-0.607317	0.012918	1.976377	78.623196	-40.747448	69.233743
40120		3.845579	6.389116	1.329609	-0.610754	-0.018627	2.110314	78.069110	-41.936950	69.544101
40121		4.108931	6.748030	1.385151	-0.675131	-0.007965	2.266913	77.434649	-43.210724	69.911234
40122		3.844858	6.486041	1.061079	-0.721752	0.065359	2.427048	76.688050	-44.560801	70.392904
40123		3.510745	5.702216	1.143398	-0.737224	0.053315	2.511488	75.892961	-45.955034	70.918639
40124		3.895178	5.753932	1.179850	-0.796693	0.003109	2.588177	75.041630	-47.393250	71.462563
40125		4.334945	5.772668	0.996132	-0.899143	0.007675	2.693336	74.064345	-48.882965	72.084017
40126		4.685308	5.699694	0.842442	-0.824693	0.077703	2.798198	73.008214	-50.411090	72.850893
40127		3.409374	4.987403	0.393574	-0.678447	0.126751	2.848499	71.923555	-51.948908	73.745046
40128		4.940221	5.355776	2.198132	-0.662299	-0.110791	2.844174	70.942551	-53.517142	74.501914
40129		4.363631	4.611229	0.783554	-1.005696	0.018929	2.839839	69.589163	-55.048447	75.459993
40130		3.943207	4.230067	0.846862	-0.893403	-0.137558	2.828263	68.330028	-56.592448	76.364195
40131		4.371963	4.154285	1.661926	-1.040330	-0.310088	2.888200	67.008965	-58.194052	77.225702
40132		5.232056	3.722043	1.882789	-1.176275	-0.288320	2.991817	65.436824	-59.832635	78.274264
40133		5.398796	3.483878	1.945213	-1.257317	-0.126343	3.085653	63.477652	-61.462422	79.696242
40134		5.821600	4.335423	1.975241	-1.184272	-0.018316	3.109593	61.245935	-63.049061	81.451917
40135		5.774468	4.729616	2.063025	-1.392547	0.100485	3.098167	58.536744	-64.559284	83.582655
40136		4.794826	4.317889	1.364060	-1.601751	0.175628	2.964364	55.428518	-65.932103	85.995455
40137		4.214727	3.816574	1.081936	-1.708928	-0.031487	2.851107	52.255006	-67.265075	88.387152
40138		4.293788	3.182020	1.147802	-1.882085	-0.220384	2.731189	48.968873	-68.558020	90.770487
40139		4.502508	2.140647	1.494246	-2.115813	-0.353797	2.567233	45.521560	-69.778910	93.162555
40140		3.898231	1.683135	2.127164	-2.062962	-0.428855	2.544905	41.856192	-70.967086	95.799793
40141		3.554660	0.520566	1.859605	-2.185431	-0.420456	2.537416	37.717960	-72.085742	98.843320
40142		4.175996	1.761357	2.271549	-1.685117	-0.468624	2.638954	33.310474	-73.185979	102.450247
40143		5.267939	2.929334	1.996087	-1.830017	-0.145581	2.768462	27.749343	-74.066846	107.154114
40144		6.519991	1.494188	2.165156	-2.180000	-0.271366	2.652017	21.765077	-74.847539	112.069579
40145		9.699459	-0.954219	0.417898	-1.567783	-0.464443	2.587465	15.866128	-75.580373	117.242073
40146		9.671674	-1.157077	2.104187	-0.676882	-0.338926	2.533680	10.032057	-76.097549	122.859570
40147		8.176240	-0.617460	2.552965	-0.316939	-0.193346	2.546916	3.977108	-76.387482	128.906983
40148		6.929246	0.379666	2.640112	0.070663	-0.486800	2.621897	-2.255110	-76.690849	135.357390
40149		7.917950	1.008557	2.453500	-0.011885	-0.707158	2.643914	-8.883673	-76.948522	142.158785
40150		9.001009	1.007132	2.413786	-0.224330	-0.708828	2.580470	-15.655634	-77.032059	148.977721
40151		10.048050	0.963209	2.279684	-0.252024	-0.683224	2.479799	-22.180896	-76.941848	155.527340
40152		10.887311	1.296438	1.404275	-0.054877	-0.509747	2.318638	-27.883589	-76.644005	161.353291
40153		9.642271	1.655602	1.557918	0.156460	-0.249045	2.142658	-32.488621	-76.149366	166.184246
40154		8.898666	1.076307	1.808398	-0.002366	-0.367016	1.996567	-36.730118	-75.671844	170.556645
40155		9.514521	0.261605	1.136851	-0.144879	-0.503990	1.856511	-40.717736	-75.230793	174.591489
40156		9.952908	-0.465658	1.471150	-0.189276	-0.480254	1.724006	-44.249245	-74.765426	178.136141
40157		9.952986	-1.075595	1.794838	-0.216786	-0.433160	1.588948	-47.318453	-74.284897	-178.807113
40158		9.579786	-1.712021	1.725510	-0.240919	-0.402442	1.412461	-49.944279	-73.828556	-176.218938
40159		9.182588	-2.099065	1.756225	-0.043881	-0.408625	1.259344	-52.140476	-73.413430	-173.955027
40160		9.869651	-1.533542	2.040360	0.270210	-0.461494	1.167263	-54.028316	-73.035968	-171.820684
40161		10.679798	-1.440283	2.145787	0.254047	-0.452398	1.063718	-55.714649	-72.685284	-169.902612
40162		11.075524	-2.362351	1.445633	0.381757	-0.415224	0.920072	-57.060768	-72.376263	-168.261187
40163		11.037204	-2.294129	1.760881	0.632793	-0.368917	0.758924	-57.991256	-72.121488	-166.902421
40164		10.866311	-2.108282	2.129122	0.654366	-0.307389	0.628261	-58.667688	-71.905828	-165.796120
40165		10.448846	-1.857904	2.359986	0.562488	-0.206991	0.490667	-59.103104	-71.724984	-164.997499
40166		9.833452	-2.019191	2.192178	0.242164	-0.109826	0.329084	-59.425434	-71.593273	-164.510813
40167		9.169381	-2.981124	1.413962	0.008827	-0.092722	0.165615	-59.708062	-71.536922	-164.206461
40168		8.851933	-3.434470	0.997858	0.172253	-0.169294	0.086703	-59.942478	-71.540901	-163.854348
40169		9.282466	-3.091948	1.398708	0.288367	-0.211234	0.042915	-60.134651	-71.578567	-163.476512
40170		9.778079	-2.606464	1.492613	0.398044	-0.153502	0.042299	-60.179125	-71.599467	-163.188343
40171		9.979919	-2.329605	1.536320	0.442556	-0.099112	0.007607	-60.086359	-71.622492	-163.017797
40172		10.642912	-2.396934	1.496416	0.534978	-0.088156	-0.054195	-59.872009	-71.672811	-162.919757
40173		10.740923	-2.439324	1.804783	0.659215	0.019123	-0.090841	-59.392418	-71.710751	-163.025979
40174		10.711077	-2.528712	2.138559	0.691765	0.076461	-0.136206	-58.768025	-71.753395	-163.265192
40175		10.296849	-2.938297	1.996136	0.674442	0.146968	-0.189856	-57.996875	-71.800526	-163.669123
40176		9.442050	-3.036673	1.996090	0.752737	0.136705	-0.203925	-57.180825	-71.855460	-164.073154
40177		9.008997	-2.395653	2.203131	0.802730	0.117828	-0.184469	-56.377796	-71.905597	-164.433050
40178		9.561837	-1.630197	1.867259	0.816529	0.082757	-0.187942	-55.612470	-71.966700	-164.745033
40179		10.227759	-1.189271	1.336944	0.722949	0.123406	-0.245782	-54.778651	-72.040759	-165.185106
40180		9.731275	-1.979856	0.914006	0.689713	0.129390	-0.364194	-53.827909	-72.165402	-165.767991
40181		9.221345	-2.153472	1.646270	0.575927	0.037633	-0.410450	-53.012718	-72.340319	-166.276320
40182		9.553942	-2.072999	2.185411	0.409810	-0.017162	-0.369878	-52.405411	-72.513393	-166.666130
40183		9.632316	-2.064747	2.543080	0.360188	-0.008108	-0.328268	-51.849535	-72.663698	-167.031292
40184		9.610974	-2.208728	2.442502	0.369168	0.042379	-0.301538	-51.239899	-72.782467	-167.447296
40185		9.249954	-2.519603	2.098147	0.403070	0.037885	-0.263113	-50.654023	-72.884890	-167.817653
40186		8.953727	-2.648851	1.844173	0.416638	0.000587	-0.201956	-50.183061	-72.972489	-168.059679
40187		8.723469	-2.314807	2.081290	0.479958	-0.050926	-0.150925	-49.806515	-73.056544	-168.164741
40188		8.945308	-1.823918	2.153979	0.503824	-0.053928	-0.139383	-49.433897	-73.136070	-168.251557
40189		8.751324	-1.770773	1.842560	0.432243	-0.046432	-0.152801	-49.071259	-73.218849	-168.370560
40190		9.019173	-2.140997	1.711691	0.285442	-0.094016	-0.151130	-48.862785	-73.318238	-168.416552
40191		9.284528	-2.576024	1.737882	0.103693	-0.102054	-0.131444	-48.792224	-73.412534	-168.427071
40192		9.088519	-2.667579	1.839437	-0.025063	-0.057880	-0.111747	-48.757672	-73.481262	-168.477177
40193		8.647837	-2.274775	1.770468	-0.091672	-0.042847	-0.092581	-48.762044	-73.536433	-168.526287
40194		8.715012	-1.591916	1.843864	-0.125643	-0.075317	-0.095647	-48.830923	-73.604807	-168.528608
40195		9.448763	-1.318071	1.624184	-0.229164	-0.084234	-0.130548	-48.926139	-73.691985	-168.565107
40196		9.613519	-1.398971	1.369136	-0.322217	-0.086440	-0.183535	-49.011424	-73.802531	-168.667654
40197		9.933639	-1.783709	1.343080	-0.453691	-0.044512	-0.268646	-48.996537	-73.934551	-168.952638
40198		10.415705	-2.950073	1.141546	-0.551927	-0.017968	-0.355547	-48.882270	-74.093626	-169.399533
40199		10.221290	-3.527632	1.416393	-0.474617	-0.013025	-0.407593	-48.638570	-74.273291	-169.934348
40200		9.449616	-3.491391	1.682191	-0.449617	0.011359	-0.451263	-48.275771	-74.461229	-170.577673
40201		9.007130	-3.002349	1.415641	-0.408999	-0.045237	-0.442872	-47.975017	-74.666600	-171.131699
40202		8.905613	-1.948024	1.287843	-0.369224	-0.089557	-0.408419	-47.759857	-74.873327	-171.573025
40203		8.945684	-0.911572	1.417472	-0.372555	-0.114956	-0.403196	-47.583845	-75.087602	-171.975192
40204		9.408543	-0.470650	1.206087	-0.452961	-0.127632	-0.419995	-47.442790	-75.313235	-172.388606
40205		9.703375	-1.191409	0.937042	-0.551521	-0.110726	-0.449118	-47.276788	-75.544692	-172.885533
40206		10.314094	-2.704522	0.937278	-0.599639	-0.101458	-0.456142	-47.103329	-75.774728	-173.418275
40207		10.641749	-4.130968	1.168205	-0.529990	-0.070926	-0.430551	-46.865654	-75.982045	-173.975392
40208		10.121446	-4.700628	1.548419	-0.354999	0.002523	-0.391953	-46.455037	-76.143215	-174.607123
40209		9.305740	-4.609668	1.249389	-0.126677	0.034146	-0.336118	-45.937296	-76.267857	-175.213921
40210		8.641445	-4.172009	0.868033	0.146630	0.044404	-0.267390	-45.350381	-76.358495	-175.730612
40211		8.294651	-3.127674	1.126148	0.372062	-0.004363	-0.184677	-44.846643	-76.434388	-176.028542
40212		8.413616	-1.928279	1.609240	0.414888	-0.033509	-0.092911	-44.519647	-76.484405	-176.119467
40213		8.244717	-1.158476	1.929281	0.371181	-0.004755	-0.029406	-44.275864	-76.497325	-176.150461
40214		8.776700	-0.769859	2.066991	0.307736	-0.020990	-0.030496	-44.094167	-76.517087	-176.155082
40215		9.947189	-1.098124	1.528970	0.195738	-0.037265	-0.049159	-43.970421	-76.551218	-176.165998
40216		10.573338	-2.097849	1.190726	0.171446	-0.052878	-0.042403	-43.898943	-76.588865	-176.137584
40217		10.067509	-2.822606	1.710624	0.182027	-0.050322	-0.037547	-43.824523	-76.623789	-176.105865
40218		9.547079	-3.156776	1.800247	0.194627	-0.042750	-0.034834	-43.735762	-76.654264	-176.081572
40219		8.785114	-2.969243	1.616493	0.305437	-0.049670	-0.034781	-43.594215	-76.687807	-176.046199
40220		8.399550	-2.597308	1.518928	0.413948	-0.088173	-0.030361	-43.463121	-76.735411	-175.936292
40221		8.051643	-1.901426	1.788637	0.395612	-0.083011	-0.015964	-43.358740	-76.775416	-175.809690
40222		7.847236	-1.138138	1.925487	0.281864	-0.057283	-0.005144	-43.296291	-76.800320	-175.707043
40223		7.918222	-0.491887	1.912399	0.148149	-0.036461	-0.020660	-43.247418	-76.822798	-175.669090
40224		8.245486	-0.376245	1.623583	-0.008478	-0.029822	-0.073415	-43.183506	-76.863066	-175.738806
40225		9.009210	-0.743024	1.260115	-0.146229	-0.035803	-0.134102	-43.098292	-76.929747	-175.911344
40226		9.895079	-1.743970	1.255442	-0.251739	-0.027261	-0.185360	-42.965566	-77.012660	-176.194717
40227		10.086530	-2.427699	1.399255	-0.262225	-0.020038	-0.196961	-42.801834	-77.097074	-176.515901
40228		9.867601	-2.661405	1.499357	-0.192185	-0.008386	-0.206268	-42.558365	-77.179764	-176.877676
40229		9.770185	-2.297669	1.526506	-0.037842	0.002856	-0.227933	-42.161810	-77.265759	-177.305566
40230		9.741178	-1.703943	1.488861	0.117903	-0.014159	-0.239805	-41.677073	-77.362672	-177.732282
40231		9.531031	-0.957826	1.798335	0.208741	-0.029161	-0.255226	-41.128102	-77.471165	-178.171259
40232		9.135664	-0.541213	1.824767	0.116586	-0.015576	-0.265310	-40.581274	-77.576493	-178.661992
40233		8.872176	-0.678391	1.801732	0.067302	-0.020234	-0.285721	-40.020155	-77.690537	-179.195995
40234		8.836970	-0.749938	2.109919	-0.048619	0.006137	-0.281515	-39.480533	-77.790176	-179.775812
40235		8.838702	-1.292944	1.890535	-0.095240	0.007656	-0.317502	-38.880331	-77.901078	179.555375
40236		9.198919	-1.330302	1.694289	-0.083775	0.027793	-0.358747	-38.141759	-78.015876	178.752012
40237		9.575864	-1.491541	1.280389	-0.077172	0.041286	-0.405752	-37.259458	-78.138769	177.806035
40238		10.568894	-2.111423	1.904573	-0.102845	-0.012113	-0.428099	-36.411745	-78.290742	176.880777
40239		10.390301	-5.627182	0.565115	0.156154	0.146530	-0.255799	-35.525019	-78.308391	176.067564
40240		10.690808	-2.783737	1.906401	1.239753	0.144833	-0.370230	-33.755541	-78.360180	174.986977
40241		11.421670	4.392386	1.403203	1.236466	0.225032	-0.563487	-31.399076	-78.425020	173.305479
40242		10.515509	4.261174	2.502421	0.619895	-0.062493	-0.922487	-28.886452	-78.721186	171.105321
40243		12.581211	-0.159845	2.411504	0.436096	-0.051321	-1.019145	-26.086612	-79.016896	168.507481
40244		10.877091	-2.473808	3.130840	0.692434	0.491864	-0.869465	-22.774586	-78.966391	165.538469
40245		11.011829	2.328547	6.465366	0.593574	-0.214706	-0.779708	-20.527083	-79.245905	163.597057
40246		11.062283	1.123861	2.757517	-0.591962	0.166498	-0.853330	-18.278258	-79.318710	160.964028
40247		12.787900	-1.153849	2.047285	-0.251608	-0.291338	-0.931211	-15.955412	-79.635803	158.455842
40248		14.347618	-4.272658	1.111773	-0.210698	-0.234434	-0.854201	-13.662623	-79.891415	156.004210
40249		14.839313	-6.456716	-0.032926	0.025662	-0.307204	-0.625325	-11.899032	-80.143034	154.229417
40250		14.137739	-5.075086	0.903584	0.167004	-0.279312	-0.426181	-10.609273	-80.348453	153.018728
40251		12.216399	-3.495843	2.096560	0.084097	-0.300037	-0.451989	-9.237222	-80.563301	151.677199
40252		11.363786	-1.547181	3.343326	0.295049	-0.359025	-0.566087	-7.308963	-80.814525	149.895407
40253		11.114363	-0.057393	4.573539	0.168891	-0.380967	-0.666023	-4.996855	-81.073514	147.652994
40254		11.738523	-0.129570	5.316474	-0.180652	-0.326461	-0.685580	-2.673287	-81.287659	145.197787
40255		11.217307	-0.722131	5.017262	-0.460729	-0.133104	-0.602363	-0.707828	-81.375189	142.943435
40256		10.103184	-0.972137	2.937060	-0.121247	-0.058946	-0.558209	1.318359	-81.408673	140.824803
40257		9.242557	-0.216859	1.236076	0.313707	-0.075198	-0.540132	3.541998	-81.439802	138.758601
40258		8.876857	0.855158	0.181605	0.331199	-0.149720	-0.517213	5.729945	-81.502988	136.738974
40259		8.819140	1.555312	-0.341250	0.122614	-0.195848	-0.485030	7.726804	-81.583326	134.792004
40260		9.249463	2.020710	-0.703099	-0.033150	-0.245250	-0.480290	9.684602	-81.682408	132.794843
40261		9.678801	2.047526	-0.310882	-0.168854	-0.269288	-0.464430	11.566956	-81.786711	130.795824
40262		10.039241	1.280857	0.015319	-0.332420	-0.221368	-0.420097	13.185186	-81.861007	128.969453
40263		9.857481	0.353444	0.115916	-0.267082	-0.188962	-0.367619	14.633221	-81.917387	127.353103
40264		9.935573	0.486543	1.137752	-0.091307	-0.242995	-0.340102	16.156131	-82.002015	125.763133
40265		9.842105	0.362809	1.840063	-0.008746	-0.228094	-0.329365	17.698314	-82.074176	124.201775
40266		9.875440	0.431219	2.115249	0.149443	-0.216284	-0.311727	19.273043	-82.137327	122.699318
40267		9.768873	0.430415	2.178188	0.257281	-0.189693	-0.299029	20.844816	-82.182825	121.262402
40268		9.579230	0.252809	1.932185	0.369661	-0.195846	-0.292241	22.480827	-82.227680	119.825803
40269		9.657138	0.450341	1.533258	0.422115	-0.206907	-0.285077	24.155200	-82.274149	118.380952
40270		9.537248	0.619044	1.228790	0.427519	-0.213376	-0.281095	25.846939	-82.319384	116.921881
40271		9.703174	0.748147	1.083891	0.434916	-0.241074	-0.266813	27.560789	-82.376449	115.444928
40272		9.601177	1.021869	0.937502	0.424000	-0.234685	-0.268204	29.282938	-82.424187	113.953497
40273		9.677230	1.136391	0.811953	0.371214	-0.253306	-0.276474	31.066137	-82.472517	112.370119
40274		9.729774	1.120270	0.804288	0.350085	-0.248230	-0.267331	32.811892	-82.514916	110.812485
40275		9.751585	1.027162	0.915059	0.329104	-0.216899	-0.248427	34.417375	-82.542194	109.384310
40276		9.668389	0.847915	0.659782	0.339104	-0.197368	-0.250329	35.994936	-82.554729	107.990153
40277		9.716708	0.885571	0.503521	0.414253	-0.213271	-0.256570	37.684129	-82.567060	106.526869
40278		9.834803	0.953411	0.911308	0.389661	-0.199257	-0.260332	39.336872	-82.566430	105.086163
40279		10.010708	0.646545	0.888083	0.297232	-0.186616	-0.255329	40.882776	-82.556716	103.699774
40280		9.807904	0.871481	0.871949	0.313474	-0.163835	-0.250580	42.350465	-82.534525	102.401605
40281		9.601835	0.914400	0.682470	0.266801	-0.163448	-0.266101	43.830426	-82.501587	101.064001
40282		9.600248	0.590694	0.585918	0.216834	-0.180016	-0.288716	45.388373	-82.461887	99.618751
40283		9.732416	0.565524	0.815572	0.205759	-0.182715	-0.288441	46.931193	-82.418098	98.182219
40284		9.774912	0.514551	0.804362	0.164042	-0.134706	-0.287298	48.275509	-82.351670	96.921659
40285		9.742877	0.633037	0.603155	0.191427	-0.126209	-0.283721	49.575362	-82.279598	95.721588
40286		9.723853	0.774183	0.639645	0.215119	-0.122811	-0.277186	50.836692	-82.205743	94.573893
40287		9.535335	1.106879	0.576608	0.231318	-0.104962	-0.283284	52.041510	-82.119330	93.492387
40288		9.485156	1.281488	0.670577	0.203597	-0.138887	-0.297138	53.350535	-82.035303	92.289417
40289		9.584258	1.199008	0.891732	0.201857	-0.136038	-0.316575	54.668092	-81.937392	91.076554
40290		9.609993	0.920239	1.310318	0.150822	-0.145233	-0.324964	55.974819	-81.834814	89.844797
40291		9.500210	0.822982	1.468660	0.086800	-0.119953	-0.332635	57.145745	-81.716710	88.712838
40292		9.616865	0.379004	1.020040	0.036101	-0.121448	-0.345627	58.286574	-81.589670	87.581596
40293		9.527126	0.407655	0.813054	0.139132	-0.131056	-0.348236	59.488109	-81.460735	86.448265
40294		9.569265	0.652870	0.672917	0.168651	-0.117679	-0.346086	60.623919	-81.325791	85.398145
40295		9.413689	0.617332	0.316685	0.162008	-0.127561	-0.364534	61.786138	-81.181092	84.317032
40296		9.418468	0.827887	0.451341	0.173247	-0.171484	-0.383553	63.092206	-81.034961	83.096442
40297		9.337769	0.825134	0.998533	0.071471	-0.157270	-0.387742	64.259729	-80.878972	81.956557
40298		9.261771	0.576288	1.042500	-0.240725	-0.188325	-0.370810	65.285507	-80.735999	80.778610
40299		9.595878	-0.147832	0.758992	-0.316459	-0.191297	-0.399927	66.283475	-80.575176	79.584318
40300		9.626524	-0.085930	1.259982	-0.171920	-0.162843	-0.443333	67.294730	-80.381725	78.459956
40301		9.466602	0.372779	0.818695	-0.183398	-0.122054	-0.489011	68.186708	-80.152184	77.449171
40302		9.418926	0.638940	0.363292	-0.161532	-0.144274	-0.539654	69.173387	-79.897420	76.354275
40303		9.541759	1.156055	0.589396	-0.164056	-0.183284	-0.584786	70.269036	-79.622843	75.146201
40304		9.443129	1.300789	0.844569	-0.254269	-0.158024	-0.611583	71.208250	-79.325121	74.043636
40305		9.387994	1.313552	0.620355	-0.277802	-0.159143	-0.621398	72.089627	-79.019234	72.985049
40306		9.340444	1.684492	0.670830	-0.282582	-0.141499	-0.655073	72.896381	-78.688875	71.998670
40307		9.259143	1.395828	0.414200	-0.313226	-0.109200	-0.687343	73.572898	-78.333185	71.126004
40308		9.360808	0.795118	0.254956	-0.324358	-0.110698	-0.717990	74.224342	-77.958721	70.271379
40309		9.604800	0.345992	0.267882	-0.396129	-0.100695	-0.742545	74.780459	-77.567537	69.470909
40310		9.808984	0.224522	0.011290	-0.413527	-0.071254	-0.737620	75.211323	-77.173070	68.787461
40311		10.074369	0.611325	-0.064386	-0.343853	-0.065285	-0.737936	75.633535	-76.776767	68.152697
40312		9.973365	2.063259	-0.042447	-0.137057	-0.059795	-0.729190	76.124997	-76.383126	67.567618
40313		9.154680	3.691680	0.223959	-0.087662	-0.050832	-0.750246	76.604679	-75.975778	67.022734
40314		8.906722	4.411967	-0.006570	-0.198165	-0.086588	-0.767925	77.080131	-75.561793	66.416009
40315		8.692624	4.190529	0.359296	-0.324856	-0.047925	-0.773400	77.374424	-75.139133	65.920296
40316		9.011308	3.038538	0.494109	-0.452161	-0.018370	-0.742493	77.500836	-74.729346	65.522010
40317		9.225266	2.339303	0.307036	-0.387867	0.021602	-0.692242	77.547854	-74.342771	65.243515
40318		9.338244	2.185444	0.123276	-0.278520	0.039250	-0.684539	77.611508	-73.958058	65.012378
40319		9.264248	1.875801	-0.126310	-0.181334	0.045630	-0.725018	77.727580	-73.550030	64.784138
40320		9.324515	1.615415	0.288329	-0.134939	0.010417	-0.780048	77.948645	-73.115020	64.473597
40321		9.394822	1.351119	1.000655	-0.100280	0.009824	-0.831564	78.196258	-72.651120	64.155277
40322		9.545289	1.116431	1.242558	-0.096900	-0.011042	-0.864856	78.479573	-72.170247	63.800754
40323		9.976974	1.519090	1.417316	-0.053794	-0.003201	-0.918377	78.775001	-71.658254	63.458411
40324		10.173945	1.897774	1.104160	-0.175744	0.035515	-0.968235	78.936639	-71.113161	63.182534
40325		9.763608	2.561788	0.830405	-0.191405	0.046286	-0.968663	79.059690	-70.566878	62.937003
40326		9.006800	3.426621	0.650978	-0.190119	0.083977	-0.964662	79.114144	-70.018189	62.764393
40327		8.218071	4.315101	0.393695	-0.205800	0.075197	-0.959420	79.164943	-69.473803	62.585392
40328		7.242823	5.144624	0.642576	-0.203091	0.040265	-0.942102	79.258043	-68.942374	62.362285
40329		6.237302	5.658251	1.106551	-0.343814	0.036623	-0.941972	79.268495	-68.411693	62.140455
40330		6.555979	5.538838	0.787203	-0.511989	0.002821	-0.930756	79.222306	-67.890608	61.875121
40331		7.371952	5.033368	0.501131	-0.578195	0.013440	-0.897078	79.110076	-67.387655	61.639135
40332		8.081030	5.004879	0.466923	-0.549424	0.050831	-0.861432	78.953047	-66.900703	61.468883
40333		8.646219	4.718866	0.285217	-0.528794	0.063537	-0.848569	78.787335	-66.419854	61.320290
40334		9.337605	4.214844	0.412605	-0.559192	0.053922	-0.882641	78.625260	-65.921022	61.148182
40335		10.236581	3.059023	0.256588	-0.617483	0.043193	-0.909049	78.449210	-65.408850	60.954041
40336		10.925914	2.291290	0.551008	-0.498182	0.076942	-0.909943	78.299948	-64.892449	60.804946
40337		10.946610	2.347261	0.811681	-0.379653	0.146681	-0.904168	78.134426	-64.371478	60.748331
40338		10.560566	2.417037	0.660658	-0.291270	0.195602	-0.926570	77.970513	-63.832043	60.746007
40339		10.039532	2.490959	0.457480	-0.209809	0.215818	-0.954527	77.839874	-63.274842	60.758580
40340		9.149594	3.223108	0.685246	-0.027184	0.211974	-0.951375	77.819178	-62.719544	60.765318
40341		7.998182	4.048643	1.226641	0.022260	0.224336	-0.977396	77.819799	-62.148600	60.779938
40342		7.293635	4.426295	0.890390	-0.036364	0.189307	-1.014860	77.832260	-61.560485	60.743178
40343		7.308789	4.501940	0.972212	-0.058333	0.163931	-1.022604	77.858497	-60.971492	60.676078
40344		7.443573	4.674892	1.197308	-0.094356	0.180352	-1.036007	77.849141	-60.372602	60.625813
40345		7.490407	5.008925	1.166988	-0.142362	0.187218	-1.052103	77.808248	-59.764251	60.579824
40346		7.739498	4.759965	0.715377	-0.247614	0.183844	-1.084273	77.717205	-59.137952	60.521826
40347		8.108595	4.695787	0.566807	-0.290287	0.137441	-1.091138	77.646170	-58.513868	60.411423
40348		8.119016	4.580067	0.902066	-0.285973	0.155438	-1.113783	77.564988	-57.874632	60.315185
40349		8.311193	4.380363	0.752551	-0.275641	0.153247	-1.172132	77.502144	-57.203445	60.203483
40350		8.632364	3.860180	0.411567	-0.285614	0.151072	-1.202343	77.439966	-56.515339	60.083358
40351		8.890527	3.424392	0.360138	-0.208908	0.188676	-1.205742	77.389378	-55.821127	60.001184
40352		8.668212	3.674537	0.689019	-0.089683	0.262882	-1.220539	77.348562	-55.108958	59.989427
40353		8.183130	3.736733	0.759332	-0.118358	0.297387	-1.283477	77.275981	-54.357818	59.996309
40354		7.739224	3.573156	0.588797	-0.128567	0.269997	-1.358333	77.232795	-53.567759	59.959710
40355		6.179777	4.435537	1.559397	0.028827	0.315707	-1.432947	77.257624	-52.730870	59.950393
40356		4.826235	5.276685	2.207407	-0.044649	0.327243	-1.516061	77.245242	-51.845431	59.934823
40357		4.766938	5.183982	1.640326	-0.210520	0.259909	-1.553704	77.191123	-50.948095	59.850782
40358		5.478170	4.895155	1.430345	-0.061913	0.224772	-1.554645	77.244116	-50.054092	59.737282
40359		6.058755	4.733459	1.766453	0.031752	0.241670	-1.572936	77.338200	-49.148188	59.638693
40360		7.134468	4.195446	1.750289	0.065921	0.203315	-1.628988	77.479794	-48.215057	59.501637
40361		8.281408	3.710398	1.205239	0.170154	0.163032	-1.676319	77.705532	-47.260704	59.329399
40362		8.341436	4.937960	1.408052	0.479009	0.206587	-1.675159	78.072804	-46.300591	59.203252
40363		7.918178	6.616812	1.781311	0.503180	0.242567	-1.713683	78.428315	-45.314879	59.110569
40364		8.225128	7.717257	1.271117	0.462991	0.205156	-1.724417	78.774799	-44.326261	58.996627
40365		8.479087	8.306721	0.804827	0.445842	0.202752	-1.690932	79.100783	-43.357044	58.895881
40366		7.974830	9.220189	0.912858	0.460946	0.255798	-1.640790	79.395693	-42.409238	58.851918
40367		7.421669	10.345577	1.238131	0.401528	0.273672	-1.562902	79.635183	-41.504071	58.838997
40368		7.507737	11.032101	1.282859	0.327032	0.263201	-1.455006	79.824401	-40.660012	58.837543
40369		7.979579	11.306962	0.793301	0.269384	0.252594	-1.324079	79.972345	-39.891537	58.848734
40370		8.187139	11.793694	0.563273	0.285690	0.256950	-1.166846	80.113351	-39.210721	58.885744
40371		8.703097	12.967448	1.197261	0.413967	0.243122	-1.007290	80.320550	-38.622021	58.934931
40372		9.763245	13.524798	1.819298	0.277264	0.264172	-0.853301	80.427572	-38.117807	59.019867
40373		9.882511	12.414825	1.565226	-0.043388	0.321374	-0.701044	80.315372	-37.694637	59.163584
40374		9.860208	11.410249	2.073240	-0.186373	0.352764	-0.589940	80.101370	-37.330296	59.341108
40375		9.350031	10.507770	2.411125	-0.398244	0.449013	-0.492936	79.720335	-37.010838	59.595701
40376		8.533025	9.679556	2.639101	-0.364509	0.513138	-0.402747	79.327620	-36.733600	59.903598
40377		7.677964	8.886299	2.510492	-0.359183	0.515536	-0.340388	78.935189	-36.490116	60.218077
40378		7.201773	8.296233	2.442420	-0.225414	0.481884	-0.276315	78.630625	-36.284256	60.515249
40379		6.584046	7.719660	2.490120	-0.205270	0.482501	-0.204406	78.333328	-36.118093	60.820946
40380		5.386048	7.107900	1.680143	-0.116137	0.425503	-0.080403	78.101225	-36.026361	61.103628
40381		4.213084	7.034933	1.796617	0.146787	0.313482	0.029559	78.056412	-36.009650	61.324265
40382		4.574505	7.563659	2.336135	0.365898	0.178876	0.101434	78.185847	-36.048577	61.462132
40383		4.506562	7.813871	2.215511	0.328967	0.217900	0.116916	78.276704	-36.092452	61.629298
40384		3.839639	7.572344	1.618418	0.189175	0.283383	0.075212	78.264228	-36.104786	61.835940
40385		3.734986	7.575775	1.247786	0.139258	0.213708	0.010661	78.257026	-36.089528	61.984914
40386		4.223442	7.893477	1.354253	-0.020526	0.148773	0.007401	78.185262	-36.079428	62.088292
40387		4.450692	7.670660	1.196332	-0.222278	0.160134	-0.004720	77.994260	-36.061431	62.197745
40388		4.726570	7.595020	1.064960	-0.227410	0.155486	-0.018992	77.803653	-36.035269	62.301734
40389		4.835902	7.367660	0.814193	-0.212520	0.113531	0.060331	77.631641	-36.058743	62.388529
40390		5.093493	6.810802	0.614859	-0.070068	-0.014928	0.152557	77.585326	-36.149108	62.400498
40391		6.257228	6.697924	1.046998	0.121536	-0.039240	0.191981	77.655202	-36.264894	62.401575
40392		7.400005	6.807099	1.183521	0.167902	0.057835	0.253278	77.706245	-36.402756	62.479282
40393		7.529265	6.762410	0.698621	0.265460	0.217034	0.324549	77.740717	-36.561637	62.678618
40394		6.953047	7.572452	0.748531	0.484167	0.291391	0.364967	77.865289	-36.733909	62.936149
40395		7.190264	8.486255	1.423277	0.530856	0.214705	0.391958	78.045783	-36.931591	63.143996
40396		8.081928	8.294138	1.249329	0.430827	0.156672	0.439613	78.188629	-37.162740	63.318085
40397		8.108271	8.003606	1.023976	0.418872	0.251896	0.479865	78.279961	-37.406261	63.565077
40398		7.436202	7.947816	0.832328	0.341525	0.310863	0.496555	78.298793	-37.651842	63.856838
40399		7.414966	7.903710	1.033905	0.306712	0.271930	0.536136	78.309611	-37.924935	64.127595
40400		7.664684	7.828842	1.469520	0.144278	0.257387	0.631744	78.222897	-38.252493	64.403600
40401		7.421901	7.200234	1.074030	0.053091	0.333152	0.682696	78.042995	-38.599983	64.743618
40402		6.962929	7.521402	1.264718	0.155118	0.337466	0.703382	77.913988	-38.957035	65.092909
40403		6.373845	7.872075	1.202746	0.094053	0.323162	0.681403	77.755403	-39.303682	65.431196
40404		5.831715	7.875528	0.985121	0.107429	0.239339	0.657842	77.641960	-39.645885	65.707846
40405		5.826297	8.112152	1.194098	0.071230	0.154369	0.644691	77.546356	-39.991641	65.922506
40406		5.580682	7.963944	1.108643	-0.049065	0.182580	0.635875	77.366797	-40.327716	66.158704
40407		5.251760	7.358499	1.391572	-0.018611	0.064007	0.682494	77.253965	-40.705098	66.317624
40408		5.833691	6.942589	1.810297	0.014516	-0.097589	0.787948	77.224597	-41.160921	66.376491
40409		6.373951	6.624806	1.945934	0.004017	-0.142120	0.942037	77.193342	-41.709215	66.428819
40410		6.301934	6.464395	2.114966	-0.089971	-0.076993	1.138907	77.050972	-42.358343	66.565776
40411		5.712369	6.094593	2.075699	-0.233185	0.009454	1.348402	76.752522	-43.113522	66.810208
40412		5.456728	6.113130	2.109194	-0.270017	0.059162	1.535253	76.373765	-43.964375	67.136728
40413		5.273928	6.265459	2.123273	-0.324934	0.081917	1.699612	75.916007	-44.902530	67.526056
40414		4.783433	6.311702	1.935388	-0.341493	0.094043	1.785826	75.412070	-45.883715	67.960280
40415		4.682855	6.381290	1.916167	-0.369924	0.015996	1.876110	74.903277	-46.924293	68.371453
40416		4.711919	6.530467	1.892808	-0.391678	-0.031849	1.930974	74.380172	-47.999179	68.777997
40417		4.846586	6.661641	2.054346	-0.500732	-0.068822	1.990874	73.783529	-49.110694	69.192440
40418		4.995925	6.707002	2.110034	-0.648593	-0.076633	2.030760	73.071945	-50.241633	69.639478
40419		4.915775	6.485876	2.342754	-0.860098	-0.057748	2.078416	72.183190	-51.391660	70.151455
40420		4.915277	6.255661	2.302007	-0.985395	-0.052686	2.077506	71.178362	-52.534369	70.711473
40421		4.813359	5.759691	2.169538	-1.166420	-0.094374	2.081333	70.052078	-53.680714	71.285195
40422		5.044232	5.250823	1.812306	-1.217207	-0.196276	2.103250	68.915263	-54.852000	71.827536
40423		5.207406	5.074672	2.009175	-1.214963	-0.257415	2.135641	67.763522	-56.047036	72.381768
40424		5.661557	4.993746	2.163061	-1.251558	-0.319610	2.186982	66.564808	-57.276185	72.959248
40425		5.961837	4.808646	2.171823	-1.281998	-0.318030	2.227516	65.266292	-58.518989	73.626032
40426		5.839457	4.429349	2.133794	-1.323082	-0.339155	2.232389	63.883758	-59.760857	74.354433
40427		5.848223	4.154490	2.178889	-1.305718	-0.430315	2.243568	62.503510	-61.022569	75.082463
40428		6.027567	4.404158	2.553400	-1.286088	-0.472933	2.260316	61.074848	-62.295148	75.869378
40429		6.434423	4.155287	2.384978	-1.293810	-0.510545	2.265715	59.573599	-63.570965	76.723725
40430		6.639215	4.042673	2.031472	-1.157413	-0.504239	2.263381	58.032173	-64.833165	77.700110
40431		6.603048	3.706586	2.194061	-1.078127	-0.498563	2.229537	56.426640	-66.064920	78.787015
40432		6.958545	3.458125	1.973392	-0.951117	-0.569234	2.225036	54.836128	-67.304583	79.926412
40433		7.171406	3.029248	1.990485	-0.827551	-0.531021	2.217989	53.126609	-68.514311	81.260549
40434		7.186011	2.919388	2.187456	-0.688345	-0.540264	2.244005	51.307591	-69.723383	82.786149
40435		7.624462	3.057536	2.359045	-0.576498	-0.598323	2.263554	49.399347	-70.943641	84.462700
40436		8.014245	3.160423	2.280585	-0.528797	-0.570530	2.271126	47.233396	-72.136126	86.427524
40437		7.838366	2.629615	1.968960	-0.538990	-0.519405	2.240609	44.745558	-73.269057	88.710598
40438		7.983829	2.558446	2.102520	-0.427744	-0.593973	2.245784	42.078984	-74.403869	91.232505
40439		7.746246	2.140157	2.007077	-0.449202	-0.460312	2.292471	38.738148	-75.459022	94.426561
40440		7.867044	1.934339	1.759598	-0.374514	-0.444204	2.393960	34.726672	-76.486797	98.340808
40441		7.637190	1.499558	1.669822	-0.405464	-0.362266	2.449486	29.847004	-77.414980	103.112049
40442		7.663629	1.181843	1.499764	-0.378471	-0.420615	2.484911	24.239571	-78.280510	108.626743
40443		8.691175	1.400965	1.506444	-0.246433	-0.628974	2.505145	18.032663	-79.137360	114.812778
40444		10.952729	1.671980	2.105381	-0.319574	-0.771220	2.474077	11.005738	-79.924025	121.772904
40445		9.964314	-0.430834	1.736578	-0.250151	-0.381364	2.441847	3.025857	-80.314133	129.728059
40446		9.158412	0.407446	2.294595	0.362310	-0.410204	2.561951	-5.514381	-80.519170	138.600096
40447		8.468491	0.579344	2.339601	0.045183	-0.327635	2.598039	-14.450483	-80.446498	147.687675
40448		9.147719	0.535759	0.786876	0.160539	-0.513119	2.466822	-22.822523	-80.273316	156.273370
40449		8.833252	-0.030960	0.867842	0.441062	-0.416965	2.285684	-29.911249	-79.904998	163.726747
40450		9.147199	0.241999	2.041296	0.576877	-0.424617	2.181846	-36.077860	-79.427082	170.331631
40451		8.616085	-0.951344	2.044362	0.375439	-0.273749	2.081287	-41.228768	-78.803570	175.796824
40452		8.941659	-1.688293	0.843186	0.530683	-0.352123	1.937423	-45.583499	-78.185823	-179.448120
40453		10.290278	-1.797215	-0.026848	0.738499	-0.412308	1.762541	-49.169593	-77.601527	-175.346731
40454		11.418735	-2.066188	-0.566619	0.901166	-0.387084	1.567199	-51.963450	-77.047252	-171.953023
40455		11.734362	-2.521927	-0.229398	0.970419	-0.335796	1.402459	-54.128276	-76.519669	-169.157117
40456		11.515241	-2.754272	0.704399	0.857925	-0.244643	1.260817	-55.813300	-76.006895	-166.915570
40457		10.836731	-2.821537	1.639862	0.601749	-0.077812	1.121103	-57.022398	-75.495314	-165.311309
40458		9.206033	-3.872392	1.969131	0.258995	0.133308	0.909059	-57.706448	-75.013778	-164.449611
40459		7.591321	-5.224189	1.659244	0.253842	0.190879	0.627415	-57.933638	-74.650069	-164.062462
40460		7.896414	-4.550021	1.936630	0.554628	0.036491	0.459753	-58.065226	-74.413854	-163.595292
40461		8.698846	-2.540138	1.659434	0.784047	0.111589	0.411453	-57.875750	-74.178666	-163.324449
40462		8.901210	-2.097990	0.590140	0.968443	0.288736	0.241552	-57.101384	-73.971323	-163.551778
40463		8.641903	-1.694865	0.426701	1.186490	0.275643	0.072423	-56.051679	-73.848338	-163.935733
40464		8.597853	-1.358095	1.175009	0.994542	0.131719	-0.008138	-55.266672	-73.807984	-164.158855
40465		8.544393	-1.011157	1.457271	0.861912	0.086473	-0.025569	-54.612257	-73.790289	-164.325041
40466		8.501068	-0.606713	1.432470	0.759464	0.113393	-0.035369	-53.964009	-73.767257	-164.546063
40467		7.829938	-0.279325	1.565841	0.700122	0.182180	-0.071894	-53.198604	-73.737345	-164.924428
40468		7.608504	-0.526590	1.291791	0.474848	0.148945	-0.113799	-52.567369	-73.736347	-165.297645
40469		8.124358	-1.095105	0.994310	0.304923	0.082535	-0.138892	-52.105062	-73.769494	-165.596125
40470		9.098116	-1.481239	0.979122	0.240829	0.034632	-0.130561	-51.763758	-73.814710	-165.806940
40471		9.347226	-1.726151	1.437227	0.159813	0.082293	-0.166159	-51.348359	-73.859104	-166.143006
40472		9.425917	-2.237722	1.172637	0.124987	0.066302	-0.220013	-50.909536	-73.932004	-166.524296
40473		9.793809	-2.394312	1.292402	0.166930	0.028429	-0.247272	-50.465362	-74.030511	-166.885810
40474		9.247046	-2.722136	1.418281	0.235378	0.023727	-0.242457	-49.991762	-74.127230	-167.237142
40475		8.766724	-2.108323	1.309183	0.316648	0.022214	-0.268812	-49.432899	-74.235735	-167.628351
40476		8.282159	-1.619072	1.119386	0.283662	-0.023952	-0.274893	-48.950823	-74.362613	-167.959368
40477		8.292678	-1.258473	1.336225	0.202925	-0.075860	-0.242752	-48.631714	-74.495191	-168.168858
40478		8.476347	-1.034663	1.955004	0.011677	-0.091055	-0.233769	-48.455420	-74.628843	-168.343894
40479		8.603321	-0.987031	1.580218	-0.233290	-0.046438	-0.229795	-48.351218	-74.744321	-168.589426
40480		8.995760	-1.024510	1.371033	-0.354703	-0.092656	-0.254762	-48.353313	-74.887414	-168.796922
40481		9.777712	-1.508119	1.176943	-0.495039	-0.111871	-0.306097	-48.390152	-75.060485	-169.051352
40482		9.994564	-2.159653	1.117554	-0.551929	-0.129603	-0.339440	-48.439247	-75.253977	-169.326797
40483		9.928247	-2.906588	1.473425	-0.575506	-0.156672	-0.366388	-48.502483	-75.470075	-169.601140
40484		9.840603	-3.704306	1.353485	-0.495897	-0.132534	-0.352208	-48.498684	-75.670264	-169.897534
40485		9.284776	-3.609735	1.230848	-0.239373	-0.098672	-0.357913	-48.275336	-75.860493	-170.268379
40486		8.932921	-3.178262	1.366677	-0.042070	-0.138932	-0.358688	-47.999073	-76.065422	-170.577081
40487		9.083569	-2.804414	1.570962	0.062246	-0.172238	-0.342422	-47.736533	-76.276426	-170.809692
40488		8.991267	-2.359698	1.724344	0.108646	-0.131600	-0.324016	-47.398720	-76.463103	-171.092332
40489		8.822698	-1.902440	1.631209	0.142642	-0.104323	-0.322607	-46.986166	-76.638603	-171.431468
40490		9.146151	-1.365157	1.640396	0.156067	-0.114673	-0.319257	-46.580650	-76.815724	-171.755332
40491		9.570508	-1.203579	1.612353	0.092079	-0.111821	-0.337779	-46.164540	-76.999320	-172.127366
40492		10.449671	-1.891444	1.556432	0.041260	-0.108868	-0.397056	-45.657698	-77.204992	-172.622168
40493		10.758011	-2.138004	1.391726	0.106281	-0.115616	-0.409978	-45.085089	-77.418063	-173.145675
40494		10.299606	-2.300174	1.451959	0.178515	-0.161421	-0.400192	-44.555046	-77.644218	-173.582863
40495		10.075834	-2.344541	1.420583	0.255454	-0.186174	-0.410444	-43.988159	-77.884159	-174.012156
40496		9.922699	-2.055046	1.255264	0.389300	-0.178034	-0.420412	-43.289610	-78.123204	-174.497364
40497		9.735472	-1.517069	1.352860	0.527002	-0.212704	-0.434131	-42.524055	-78.381257	-174.969896
40498		9.657848	-1.117614	1.606698	0.506647	-0.254619	-0.449394	-41.790384	-78.661289	-175.421425
40499		9.593529	-0.847806	1.818007	0.431516	-0.283892	-0.476255	-41.067205	-78.963328	-175.905593
40500		9.530891	-0.665437	1.958905	0.344311	-0.290709	-0.510072	-40.297089	-79.279300	-176.488013
40501		10.255286	-0.876133	2.311400	0.248379	-0.339678	-0.518082	-39.619309	-79.618715	-177.031696
40502		10.997351	-3.529749	0.642157	0.340635	-0.369654	-0.324634	-39.392079	-79.899668	-177.063377
40503		9.812544	-3.493646	0.279086	1.257245	-0.082692	-0.304656	-38.085724	-80.045469	-177.657499
40504		10.111482	2.798554	-0.656630	2.141547	-0.058131	-0.536653	-35.573551	-80.255814	-178.960978
40505		10.001878	7.160058	1.767244	0.971659	-0.002248	-0.871277	-32.594864	-80.536700	178.583645
40506		8.086989	1.757298	8.822062	-0.262787	-0.684641	-0.873849	-31.421596	-81.134386	177.243607
40507		14.544253	-0.929953	6.227552	-1.383282	-0.164250	-0.777210	-30.045600	-81.443015	175.050801
40508		10.403213	-3.821744	0.455410	-0.359614	0.426885	-0.640349	-27.359147	-81.404490	172.126503
40509		10.461775	-1.519258	1.164470	0.498020	-0.158035	-0.695340	-24.956046	-81.661573	169.986436
40510		12.898377	-1.347897	2.062470	0.071835	-0.280656	-0.910759	-22.046304	-82.017351	167.089428
40511		13.732814	-1.728039	0.219362	0.264857	-0.248396	-0.920010	-18.676092	-82.334684	163.841749
40512		13.680736	-1.592192	1.308647	0.217236	-0.412507	-0.748141	-15.997822	-82.688577	161.266890
40513		13.481456	-3.813444	0.937725	0.040622	-0.510678	-0.582072	-14.024658	-83.058292	159.302813
40514		11.873324	-2.386068	1.362762	0.183681	-0.269968	-0.519958	-11.809982	-83.276396	157.179187
40515		10.705925	-0.207602	1.701191	0.090256	-0.368771	-0.615849	-9.109037	-83.549175	154.513301
40516		15.606007	-0.918370	3.695501	-0.310747	-0.549537	-0.801058	-5.532248	-83.921163	150.736833
40517		16.042019	-3.978790	5.576906	-0.737970	-0.245547	-0.657088	-2.497322	-84.089019	147.260994
40518		12.989206	-5.006196	5.836506	-0.126528	-0.161841	-0.442738	-0.147912	-84.188925	144.827254
40519		10.654006	-2.540531	3.028768	0.438706	0.069266	-0.420269	2.423987	-84.145436	142.495433
40520		7.709275	0.367245	0.127115	0.698469	-0.091036	-0.538551	5.844202	-84.176827	139.460557
40521		8.011809	1.708491	0.245370	0.693828	-0.320035	-0.631091	10.017289	-84.309911	135.666645
40522		8.842813	1.645727	-0.149672	0.357275	-0.263049	-0.631119	14.088102	-84.383813	131.782545
40523		9.380842	1.750695	-1.943877	0.063870	-0.218229	-0.570106	17.652676	-84.416486	128.238447
40524		10.009764	2.163713	-1.877029	-0.049843	-0.251954	-0.501408	20.876037	-84.460277	124.972043
40525		9.755780	1.919149	-1.251939	-0.290432	-0.215168	-0.482253	23.809676	-84.471430	121.858341
40526		9.714585	1.819431	-0.400917	-0.296021	-0.263262	-0.471113	26.814241	-84.494899	118.670293
40527		9.622715	2.046567	1.081929	-0.314372	-0.256309	-0.469287	29.796962	-84.499140	115.493712
40528		9.798363	1.813839	1.429216	-0.266094	-0.224996	-0.459039	32.650174	-84.475742	112.474968
40529		9.866198	1.494071	1.619559	-0.105323	-0.203378	-0.418562	35.297000	-84.440859	109.755997
40530		9.806376	1.486095	1.418103	0.001736	-0.193092	-0.369094	37.698733	-84.406863	107.344735
40531		9.745144	1.554317	0.808775	0.008825	-0.184900	-0.348420	39.950719	-84.366755	105.087884
40532		9.647626	1.237852	0.215194	0.005878	-0.213596	-0.336446	42.224086	-84.335272	102.807698
40533		9.864968	1.091003	-0.176754	0.052138	-0.216865	-0.315483	44.424640	-84.304214	100.627222
40534		9.900143	0.906613	-0.182606	0.127615	-0.220240	-0.292741	46.564146	-84.276107	98.551421
40535		10.094230	0.797406	0.143369	0.155103	-0.223225	-0.262854	48.598909	-84.253867	96.596671
40536		10.089435	1.016155	0.312927	0.263634	-0.201724	-0.236162	50.485305	-84.229037	94.853414
40537		9.640307	1.323269	0.949482	0.369906	-0.205383	-0.236515	52.435297	-84.199086	93.107404
40538		9.723855	1.209233	0.922492	0.348017	-0.202572	-0.234414	54.329805	-84.163689	91.404406
40539		9.936392	0.939343	0.622048	0.375942	-0.173187	-0.234152	56.082845	-84.112839	89.859620
40540		10.010864	0.856767	0.606297	0.385489	-0.182175	-0.219869	57.809440	-84.067390	88.346737
40541		10.065477	0.945657	0.453068	0.336345	-0.159277	-0.207695	59.342592	-84.016134	86.999951
40542		9.859325	0.762610	0.244501	0.290255	-0.156157	-0.222785	60.847407	-83.953317	85.654917
