// General information: 
//  MT Manager version: 2022.2.0 
//  XDA version: 2022.2.0 build 7381 rev 124627 built on 2023-07-19
// Device information: 
//  DeviceId: 00B4BB52
//  ProductCode: MTW2-3A7G6
//  Firmware Version: 4.6.0
//  Hardware Version: 2.0.0
// Device settings: 
//  Filter Profile: human(46.1)
//  Option Flags: Orientation Smoother Disabled, Position/Velocity Smoother Disabled, Continuous Zero Rotation Update Disabled, AHS Disabled, ICC Disabled
// Coordinate system: ENU
PacketCounter	SampleTimeFine	Acc_X	Acc_Y	Acc_Z	Gyr_X	Gyr_Y	Gyr_Z	Roll	Pitch	Yaw
11250		-0.692690	-9.778908	0.648439	-0.010459	-0.003689	-0.005693	-86.256723	3.836107	-24.047248
11251		-0.688604	-9.761129	0.663579	-0.011798	-0.003881	-0.000753	-86.259032	3.835096	-24.046324
11252		-0.686946	-9.777750	0.680412	-0.009985	-0.003070	0.001089	-86.260638	3.834591	-24.045819
11253		-0.688677	-9.761253	0.661667	-0.008354	-0.003126	0.000963	-86.260997	3.834587	-24.045264
11254		-0.692469	-9.779179	0.644582	-0.009915	-0.001090	0.000212	-86.262641	3.833655	-24.045926
11255		-0.696205	-9.797085	0.627813	-0.001954	-0.004770	-0.000087	-86.259275	3.832987	-24.044468
11256		-0.712693	-9.759719	0.663819	-0.001687	0.000613	-0.001297	-86.256273	3.831256	-24.046162
11257		-0.664618	-9.763023	0.656080	-0.003475	-0.005829	0.002885	-86.253732	3.832248	-24.043985
11258		-0.692441	-9.779265	0.643307	-0.003571	-0.002178	-0.002261	-86.251706	3.829861	-24.044117
11259		-0.692477	-9.779283	0.642991	-0.003348	-0.004406	0.003430	-86.249147	3.831216	-24.042734
11260		-0.687274	-9.777986	0.676680	-0.004768	0.001589	0.000925	-86.247943	3.830791	-24.044905
11261		-0.692780	-9.779313	0.642209	-0.003334	-0.001869	0.001130	-86.245479	3.830924	-24.045062
11262		-0.689316	-9.761437	0.658282	0.000096	-0.003652	0.005145	-86.241277	3.832716	-24.044071
11263		-0.691852	-9.795822	0.660045	0.001799	-0.001727	0.004142	-86.235872	3.834576	-24.044196
11264		-0.695548	-9.762660	0.624585	0.003430	-0.001783	0.004015	-86.229834	3.835792	-24.044318
11265		-0.688956	-9.777843	0.677040	0.006678	-0.004431	0.006063	-86.221529	3.838646	-24.042820
11266		-0.689217	-9.777779	0.677703	0.006329	-0.003625	-0.000174	-86.213770	3.837398	-24.042045
11267		-0.691158	-9.761184	0.660099	-0.001282	-0.000750	0.006363	-86.210165	3.840561	-24.042645
11268		-0.667770	-9.762793	0.656304	0.000405	-0.001363	0.007660	-86.205866	3.843877	-24.042868
11269		-0.718725	-9.793856	0.665449	-0.001354	-0.002730	0.007241	-86.202225	3.847464	-24.042300
11270		-0.689445	-9.743192	0.676043	-0.002914	-0.000694	0.006490	-86.199857	3.850136	-24.042951
11271		-0.693880	-9.761033	0.659479	-0.004617	-0.002619	0.007494	-86.198090	3.853872	-24.042435
11272		-0.698398	-9.778851	0.643159	0.002162	0.000003	0.008078	-86.192836	3.857479	-24.043425
11273		-0.699100	-9.778792	0.643286	0.000151	-0.004209	0.006569	-86.188280	3.860625	-24.042033
11274		-0.722151	-9.793626	0.665120	0.003540	-0.002898	0.006861	-86.182128	3.863426	-24.041407
11275		-0.670978	-9.779028	0.674012	0.000531	0.000059	0.008205	-86.177518	3.867670	-24.042396
11276		-0.697454	-9.760741	0.660039	0.002035	-0.001419	0.007533	-86.172284	3.870911	-24.042590
11277		-0.716831	-9.757703	0.698005	0.000404	-0.001363	0.007660	-86.167694	3.874787	-24.042785
11278		-0.723125	-9.758946	0.663907	-0.000918	0.000981	0.010300	-86.164238	3.879702	-24.044248
11279		-0.674342	-9.778793	0.674069	-0.002677	-0.000385	0.009881	-86.161445	3.884887	-24.044917
11280		-0.699501	-9.777057	0.677580	-0.002368	0.001903	0.012395	-86.158849	3.891035	-24.046827
11281		-0.724863	-9.775305	0.681023	-0.003945	0.001402	0.013945	-86.156842	3.898608	-24.048363
11282		-0.698264	-9.759071	0.692987	-0.005886	-0.000829	0.011558	-86.156159	3.904173	-24.048740
11283		-0.728763	-9.758644	0.662182	-0.004437	-0.001751	0.009463	-86.154322	3.909063	-24.048641
11284		-0.700103	-9.759021	0.691822	-0.009114	0.004359	0.007211	-86.155702	3.912342	-24.052158
11285		-0.709869	-9.778182	0.640765	-0.006289	0.000535	0.003898	-86.155030	3.914139	-24.053583
11286		-0.710216	-9.778192	0.640226	-0.004785	-0.000944	0.003225	-86.153734	3.914936	-24.054215
11287		-0.699601	-9.775644	0.707748	-0.008231	-0.001696	0.001510	-86.154099	3.915282	-24.054453
11288		-0.705335	-9.776945	0.673132	-0.002971	-0.000137	0.005067	-86.151789	3.917163	-24.055476
11289		-0.725916	-9.757412	0.692652	-0.006599	-0.001753	0.001384	-86.151216	3.917432	-24.055686
11290		-0.726083	-9.757456	0.691862	-0.009735	-0.000216	0.002183	-86.152787	3.917661	-24.056775
11291		-0.709982	-9.794877	0.654801	-0.008067	-0.003369	0.005778	-86.152978	3.920382	-24.055890
11292		-0.708353	-9.760464	0.652484	-0.006435	-0.003426	0.005652	-86.152523	3.922471	-24.055006
11293		-0.699762	-9.741341	0.702183	-0.006253	-0.002561	0.007620	-86.151705	3.926275	-24.054512
11294		-0.706480	-9.793588	0.687076	-0.004494	-0.001196	0.008040	-86.150219	3.929815	-24.054813
11295		-0.732847	-9.775296	0.672556	-0.004676	-0.002061	0.006071	-86.148519	3.932751	-24.054666
11296		-0.729703	-9.757446	0.688182	-0.007684	0.000899	0.007417	-86.148945	3.936015	-24.056192
11297		-0.689282	-9.745523	0.628124	-0.004677	-0.002061	0.006071	-86.147246	3.938953	-24.056044
11298		-0.712083	-9.760416	0.649126	-0.008434	-0.005097	0.001841	-86.147880	3.938798	-24.054349
11299		-0.705439	-9.775763	0.700273	-0.007812	-0.000524	0.006871	-86.148041	3.942250	-24.055050
11300		-0.715313	-9.794834	0.649611	0.000145	-0.004213	0.006566	-86.143782	3.944832	-24.053679
11301		-0.706569	-9.775716	0.699790	-0.003228	-0.002982	0.003975	-86.141228	3.946532	-24.053083
11302		-0.686324	-9.744233	0.660049	-0.003064	-0.004657	0.008243	-86.138786	3.950055	-24.051393
11303		-0.728095	-9.756120	0.719242	-0.003119	-0.004099	0.006820	-86.136117	3.953336	-24.050046
11304		-0.686070	-9.760753	0.677426	-0.001359	-0.002734	0.007240	-86.132777	3.956359	-24.049497
11305		-0.734810	-9.757297	0.684857	-0.001414	-0.002176	0.005817	-86.129208	3.959139	-24.049291
11306		-0.683637	-9.742843	0.693350	-0.002882	-0.003793	0.010212	-86.126690	3.963820	-24.048019
11307		-0.710607	-9.775529	0.698303	-0.006364	-0.001444	0.004776	-86.125988	3.966031	-24.048273
11308		-0.707335	-9.757690	0.714092	-0.003120	-0.004099	0.006820	-86.123603	3.968761	-24.046957
11309		-0.718820	-9.760157	0.645587	-0.004678	-0.002060	0.006072	-86.121904	3.971688	-24.046809
11310		-0.713873	-9.758921	0.679053	-0.008125	-0.002809	0.004357	-86.122445	3.973060	-24.046327
11311		-0.738264	-9.757227	0.682134	-0.006548	-0.002308	0.002807	-86.121819	3.974110	-24.046163
11312		-0.714592	-9.758954	0.677822	-0.004807	-0.003483	0.005525	-86.120428	3.976124	-24.045250
11313		-0.713430	-9.775550	0.695129	-0.006493	-0.002866	0.004230	-86.119746	3.977966	-24.044710
11314		-0.715261	-9.758974	0.676829	-0.003467	-0.003287	0.000584	-86.117609	3.977162	-24.044101
11315		-0.737854	-9.773875	0.697897	-0.008180	-0.002250	0.002935	-86.117921	3.978286	-24.043964
11316		-0.739753	-9.757291	0.679605	-0.001726	-0.004463	0.003301	-86.114733	3.978990	-24.042576
11317		-0.691968	-9.760724	0.671822	-0.003230	-0.002983	0.003975	-86.112176	3.980682	-24.041979
11318		-0.720033	-9.776838	0.658980	-0.005229	-0.004651	0.000164	-86.110995	3.979586	-24.040605
11319		-0.740313	-9.757328	0.678453	-0.006603	-0.001749	0.001385	-86.110430	3.979843	-24.040815
11320		-0.716285	-9.759092	0.674031	-0.006990	-0.006015	-0.000255	-86.110205	3.978454	-24.038676
11321		-0.716179	-9.759144	0.673386	-0.006712	-0.000631	-0.001459	-86.109755	3.977129	-24.039637
11322		-0.719850	-9.777002	0.656733	-0.002019	-0.004208	-0.001513	-86.106758	3.975090	-24.038582
11323		-0.690480	-9.777524	0.686625	-0.006365	-0.001445	0.004777	-86.106063	3.977298	-24.038833
11324		-0.714821	-9.775821	0.689873	-0.004971	-0.001807	0.001258	-86.104844	3.976937	-24.039046
11325		-0.716520	-9.759244	0.671574	-0.005100	-0.003229	0.000711	-86.103365	3.976748	-24.038434
11326		-0.712713	-9.741472	0.687186	-0.008494	-0.004535	0.000419	-86.104058	3.975801	-24.037116
11327		-0.744453	-9.775431	0.657686	-0.008494	-0.004535	0.000419	-86.104473	3.975393	-24.035766
11328		-0.711325	-9.758186	0.703270	-0.011595	-0.006097	0.004942	-86.106870	3.976971	-24.033378
11329		-0.716933	-9.759437	0.668330	-0.006713	-0.000631	-0.001458	-86.106425	3.975642	-24.034338
11330		-0.715217	-9.776110	0.685343	-0.010256	-0.005899	-0.000000	-86.108075	3.974403	-24.032255
11331		-0.716653	-9.759567	0.666717	-0.007101	-0.004896	-0.003100	-86.107690	3.971968	-24.030835
11332		-0.716430	-9.759639	0.665906	-0.010182	-0.003918	-0.000875	-86.109379	3.970306	-24.029922
11333		-0.713120	-9.792931	0.700730	-0.006863	-0.004593	0.000291	-86.108862	3.969821	-24.028542
11334		-0.716468	-9.759729	0.664555	-0.005250	-0.007192	0.002460	-86.107586	3.969938	-24.025623
11335		-0.691016	-9.778087	0.678023	-0.006753	-0.005713	0.003136	-86.106955	3.971034	-24.023491
11336		-0.709771	-9.775223	0.715191	-0.008570	-0.006517	0.001294	-86.107612	3.970511	-24.021004
11337		-0.744815	-9.775908	0.650144	-0.006863	-0.004593	0.000292	-86.107094	3.970022	-24.019625
11338		-0.715195	-9.776485	0.680004	-0.002021	-0.004207	-0.001515	-86.104098	3.967983	-24.018571
11339		-0.713413	-9.793153	0.697322	-0.008551	-0.003976	-0.001002	-86.104578	3.966778	-24.017595
11340		-0.711008	-9.758803	0.694970	-0.008810	-0.006819	-0.002097	-86.105370	3.964305	-24.015067
11341		-0.686699	-9.760597	0.690345	-0.008606	-0.003416	-0.002424	-86.105907	3.962308	-24.014469
11342		-0.718102	-9.794562	0.660641	-0.012056	-0.004162	-0.004137	-86.108669	3.958772	-24.013543
11343		-0.713878	-9.776870	0.675842	-0.010165	-0.001376	-0.003169	-86.110184	3.956426	-24.014141
11344		-0.717504	-9.794738	0.658675	-0.008552	-0.003976	-0.001002	-86.110937	3.954690	-24.013200
11345		-0.687766	-9.795359	0.688195	-0.006974	-0.003474	-0.002552	-86.110541	3.952614	-24.012572
11346		-0.713474	-9.777044	0.673737	-0.003359	-0.004409	0.003426	-86.108290	3.953392	-24.011210
11347		-0.711420	-9.742621	0.672068	-0.000204	-0.003403	0.000326	-86.104012	3.952961	-24.010510
11348		-0.708205	-9.775901	0.707426	-0.005176	-0.005212	0.001585	-86.102775	3.952655	-24.008759
11349		-0.717508	-9.794888	0.656442	-0.008478	-0.001994	-0.001875	-86.103298	3.951020	-24.008953
11350		-0.731365	-9.723269	0.690316	-0.011928	-0.002740	-0.003587	-86.106042	3.947853	-24.008821
11351		-0.689045	-9.778994	0.666854	-0.010111	-0.001937	-0.001746	-86.107504	3.946295	-24.009042
11352		-0.716833	-9.795139	0.653425	-0.010056	-0.002497	-0.000324	-86.109176	3.945003	-24.008921
11353		-0.685009	-9.761342	0.681438	-0.005158	-0.002670	-0.000711	-86.107771	3.944005	-24.008681
11354		-0.688768	-9.779184	0.664350	-0.011819	-0.003861	-0.000744	-86.110400	3.942420	-24.007796
11355		-0.713000	-9.777520	0.667303	-0.006365	-0.001452	0.004780	-86.109723	3.944605	-24.008040
11356		-0.691494	-9.813683	0.664194	-0.009741	-0.000215	0.002195	-86.111297	3.944842	-24.009129
11357		-0.689651	-9.779287	0.661917	-0.006235	-0.000031	0.005329	-86.110603	3.947394	-24.010165
11358		-0.708825	-9.776448	0.699205	-0.006050	0.000830	0.007299	-86.110090	3.950589	-24.011654
11359		-0.687273	-9.761491	0.677015	-0.006145	-0.003696	0.010466	-86.109186	3.955932	-24.010390
11360		-0.716353	-9.777506	0.663908	-0.007537	-0.003339	0.013987	-86.109343	3.962788	-24.009229
11361		-0.715983	-9.794111	0.681045	-0.005755	0.000568	0.012113	-86.108381	3.969237	-24.010345
11362		-0.718806	-9.777402	0.662784	-0.004328	-0.002894	0.012308	-86.106721	3.975150	-24.009504
11363		-0.716051	-9.759582	0.678667	-0.004178	0.001071	0.010563	-86.104882	3.980731	-24.010967
11364		-0.716995	-9.759542	0.678248	-0.004569	-0.003193	0.008916	-86.103357	3.984694	-24.010087
11365		-0.717629	-9.759542	0.677570	-0.009763	-0.002756	0.004489	-86.104583	3.986653	-24.009594
11366		-0.720253	-9.794001	0.678108	-0.009688	-0.000773	0.003617	-86.106102	3.987681	-24.010308
11367		-0.719978	-9.742947	0.658083	-0.006422	-0.000890	0.003359	-86.105492	3.989066	-24.010928
11368		-0.717138	-9.776283	0.693008	-0.006237	-0.000030	0.005330	-86.105059	3.991102	-24.012000
11369		-0.721698	-9.794028	0.676191	-0.004570	-0.003194	0.008916	-86.103282	3.995573	-24.011083
11370		-0.694625	-9.777977	0.688154	-0.005997	0.000268	0.008722	-86.102714	3.999560	-24.012194
11371		-0.724836	-9.777326	0.657317	-0.006368	-0.001451	0.004780	-86.102049	4.001732	-24.012437
11372		-0.739945	-9.756744	0.711066	-0.003102	-0.001568	0.004522	-86.099760	4.003247	-24.012660
11373		-0.716346	-9.758486	0.706704	-0.008001	-0.001392	0.004910	-86.100033	4.005496	-24.012929
11374		-0.692574	-9.760266	0.702009	-0.010006	-0.003052	0.001097	-86.101649	4.004995	-24.012435
11375		-0.700677	-9.795800	0.668618	-0.006314	-0.002013	0.006202	-86.100925	4.007955	-24.012301
11376		-0.719324	-9.741859	0.686951	-0.001174	-0.001892	0.009206	-86.097506	4.012135	-24.012155
11377		-0.722451	-9.776235	0.688143	-0.004571	-0.003195	0.008915	-86.095730	4.016598	-24.011238
11378		-0.699285	-9.777944	0.683885	-0.004440	-0.001774	0.009465	-86.094186	4.020930	-24.011149
11379		-0.724204	-9.776160	0.687375	-0.002731	0.000150	0.008464	-86.091491	4.025264	-24.012163
11380		-0.701086	-9.777852	0.683362	-0.001328	-0.005858	0.010950	-86.087995	4.030285	-24.009675
11381		-0.746215	-9.756550	0.707165	-0.002731	0.000150	0.008464	-86.085301	4.034617	-24.010692
11382		-0.732428	-9.777087	0.652447	-0.007839	-0.003077	0.009174	-86.085653	4.038732	-24.009867
11383		-0.733317	-9.777054	0.651945	-0.002808	-0.001833	0.009336	-86.082922	4.043484	-24.009712
11384		-0.724697	-9.758200	0.702135	-0.001361	-0.002751	0.007236	-86.079580	4.046504	-24.009150
11385		-0.705261	-9.777678	0.681550	-0.007686	0.000889	0.007431	-86.079760	4.050274	-24.010625
11386		-0.726058	-9.758167	0.701183	-0.003258	-0.005534	0.006265	-86.077395	4.052630	-24.008506
11387		-0.754404	-9.774132	0.688500	-0.001656	-0.002486	0.002422	-86.073998	4.053402	-24.008250
11388		-0.746840	-9.738668	0.720664	-0.008189	-0.002248	0.002940	-86.074601	4.053985	-24.008144
11389		-0.726842	-9.758220	0.699637	-0.009932	-0.001065	0.000227	-86.076008	4.053560	-24.008785
11390		-0.756397	-9.757585	0.668371	-0.011697	-0.002426	-0.000193	-86.078622	4.052345	-24.008701
11391		-0.729051	-9.792802	0.698896	-0.011620	-0.000443	-0.001065	-86.081025	4.051207	-24.009749
11392		-0.706456	-9.777971	0.676090	-0.013517	-0.003225	-0.002035	-86.084655	4.048908	-24.009279
11393		-0.711824	-9.779083	0.641131	-0.005164	-0.002663	-0.000712	-86.083269	4.047882	-24.009041
11394		-0.754181	-9.774583	0.682314	-0.007115	-0.004883	-0.003104	-86.083166	4.044908	-24.007663
11395		-0.726011	-9.758691	0.693900	-0.011830	-0.003847	-0.000743	-86.085555	4.043817	-24.006747
11396		-0.725777	-9.758789	0.692764	-0.011939	-0.002722	-0.003585	-86.088305	4.040652	-24.006626
11397		-0.723689	-9.775604	0.709350	-0.012126	-0.003579	-0.005557	-86.090887	4.036819	-24.006052
11398		-0.720916	-9.741313	0.706631	-0.015339	-0.004024	-0.003876	-86.095534	4.033437	-24.005196
11399		-0.724237	-9.759171	0.688981	-0.012313	-0.004437	-0.007528	-86.098191	4.028443	-24.004208
11400		-0.683478	-9.798213	0.647616	-0.008487	-0.001983	-0.001873	-86.098989	4.026286	-24.004443
11401		-0.721980	-9.776057	0.704830	-0.010406	-0.007311	-0.000554	-86.100421	4.025162	-24.001535
11402		-0.675505	-9.762944	0.678031	-0.018103	-0.000772	0.000879	-86.106769	4.024625	-24.002356
11403		-0.722077	-9.776269	0.701785	-0.016547	-0.002815	0.001618	-86.111895	4.024915	-24.001941
11404		-0.727892	-9.777362	0.666052	-0.018072	-0.003883	0.004590	-86.118090	4.026379	-24.000835
11405		-0.700307	-9.761506	0.676639	-0.021395	-0.003202	0.003430	-86.125973	4.027688	-24.000127
11406		-0.690226	-9.799727	0.604125	-0.017777	-0.004155	0.009403	-86.131975	4.031893	-23.998679
11407		-0.713821	-9.814676	0.624730	-0.002797	-0.007505	0.015335	-86.129001	4.039838	-23.995046
11408		-0.733485	-9.760661	0.643630	0.002852	-0.004258	0.022832	-86.123142	4.051715	-23.993017
11409		-0.705908	-9.761282	0.674050	0.000843	-0.005911	0.019019	-86.118141	4.061826	-23.990143
11410		-0.728110	-9.741662	0.694327	-0.000364	-0.004704	0.024514	-86.114101	4.074646	-23.987791
11411		-0.710159	-9.760970	0.674096	-0.000739	-0.006416	0.020570	-86.109979	4.085621	-23.984573
11412		-0.714574	-9.795235	0.675517	0.001214	-0.004200	0.022963	-86.105059	4.097575	-23.982568
11413		-0.738459	-9.758857	0.678250	0.002926	-0.002276	0.021964	-86.099003	4.109504	-23.981664
11414		-0.740523	-9.758680	0.678550	0.002659	-0.005116	0.020861	-86.093223	4.120220	-23.979214
11415		-0.741088	-9.775219	0.696570	0.002899	-0.004825	0.024254	-86.087071	4.133358	-23.976758
11416		-0.743412	-9.775008	0.697050	0.006166	-0.004946	0.023993	-86.079278	4.145871	-23.974280
11417		-0.750996	-9.775764	0.663850	0.010637	-0.006277	0.018237	-86.068647	4.155511	-23.971226
11418		-0.749149	-9.757841	0.681145	0.007985	-0.004151	0.025835	-86.059838	4.169106	-23.969128
11419		-0.751200	-9.757651	0.681605	0.000858	-0.003363	0.016731	-86.054937	4.177999	-23.967804
11420		-0.751387	-9.774228	0.699442	0.001099	-0.003071	0.020123	-86.050134	4.188372	-23.966547
11421		-0.754605	-9.757389	0.681594	-0.004286	-0.003471	0.013730	-86.048184	4.195544	-23.965270
11422		-0.728896	-9.792586	0.712608	-0.007313	-0.003056	0.017384	-86.048209	4.204353	-23.964129
11423		-0.712273	-9.795262	0.674472	0.002650	-0.005118	0.020862	-86.042195	4.215534	-23.961622
11424		-0.730624	-9.757842	0.711516	0.006264	-0.006078	0.026835	-86.034285	4.229625	-23.958372
11425		-0.766769	-9.774417	0.665647	0.006128	-0.007498	0.026284	-86.026160	4.243806	-23.954298
11426		-0.719910	-9.794574	0.676355	0.008189	-0.006413	0.031519	-86.017117	4.260559	-23.950666
11427		-0.771322	-9.790552	0.684906	0.007117	-0.003783	0.037566	-86.008551	4.281332	-23.948268
11428		-0.772606	-9.755783	0.684416	0.010569	-0.003053	0.039276	-85.998262	4.302652	-23.946246
11429		-0.705487	-9.812168	0.692783	0.007592	-0.003199	0.044353	-85.989429	4.327327	-23.943886
11430		-0.732359	-9.883434	0.594773	0.020360	-0.000764	0.060952	-85.973561	4.361127	-23.942294
11431		-0.753499	-9.862155	0.652248	0.044063	-0.005025	0.075854	-85.943656	4.403723	-23.937615
11432		-0.733490	-9.845438	0.669676	0.056217	-0.007713	0.088833	-85.906843	4.453173	-23.930868
11433		-0.703379	-9.883596	0.635679	0.072651	-0.004268	0.110539	-85.860474	4.515610	-23.925110
11434		-0.754889	-9.842828	0.684104	0.090136	-0.003467	0.126202	-85.804276	4.586579	-23.919154
11435		-0.706284	-9.808713	0.752138	0.096678	0.004045	0.143558	-85.744397	4.668213	-23.916661
11436		-0.553561	-9.821300	0.735019	0.110143	0.033217	0.167325	-85.678289	4.764238	-23.929816
11437		-0.897058	-9.646074	0.931722	0.072435	0.035947	0.167494	-85.633725	4.860903	-23.944401
11438		-0.899170	-9.722469	0.764126	0.084869	0.047358	0.169552	-85.582814	4.958844	-23.965397
11439		-0.869391	-9.775765	0.782595	0.060823	0.037009	0.167006	-85.544986	5.055304	-23.980460
11440		-1.005160	-9.569767	0.852562	0.045430	0.036209	0.159424	-85.516202	5.146990	-23.995389
11441		-0.751472	-9.859130	0.698679	0.017670	0.023979	0.179378	-85.502408	5.249952	-24.002329
11442		-0.921915	-9.753662	0.774684	0.033153	0.025036	0.190386	-85.479984	5.358830	-24.009390
11443		-0.833154	-9.833247	0.728334	0.042032	0.023855	0.204215	-85.452144	5.475966	-24.015060
11444		-0.878589	-9.828632	0.736779	0.056853	0.028148	0.228063	-85.416165	5.606512	-24.022074
11445		-0.945545	-9.803346	0.766489	0.069379	0.031042	0.243286	-85.372904	5.746286	-24.029918
11446		-0.993237	-9.814416	0.794945	0.075173	0.033400	0.257057	-85.326611	5.893644	-24.038403
11447		-1.059261	-9.753873	0.824131	0.078831	0.032138	0.267902	-85.277900	6.047533	-24.045495
11448		-1.153880	-9.708047	0.840593	0.069772	0.025462	0.265849	-85.234191	6.199548	-24.048765
11449		-1.155526	-9.707151	0.843354	0.071068	0.028694	0.257198	-85.189778	6.347175	-24.054145
11450		-1.223337	-9.680323	0.872866	0.056580	0.023941	0.243023	-85.153645	6.486089	-24.057425
11451		-1.207778	-9.718124	0.838462	0.058305	0.015714	0.229892	-85.115847	6.617512	-24.056488
11452		-1.200175	-9.808185	0.789909	0.056226	0.013513	0.227531	-85.079302	6.747076	-24.054359
11453		-1.135315	-9.793669	0.868788	0.065834	0.009256	0.231969	-85.036717	6.879367	-24.049425
11454		-1.202990	-9.733565	0.862795	0.067923	0.011175	0.239208	-84.993204	7.015476	-24.045176
11455		-1.186417	-9.821198	0.883424	0.063307	0.012642	0.244982	-84.952178	7.155352	-24.041331
11456		-1.177580	-9.893574	0.852230	0.070897	0.014614	0.263474	-84.907007	7.305478	-24.037615
11457		-1.185224	-9.927056	0.858265	0.090051	0.016133	0.284497	-84.850606	7.468065	-24.033508
11458		-1.166655	-10.070620	0.829899	0.091386	0.014961	0.316913	-84.793297	7.648696	-24.026917
11459		-1.196165	-10.156576	0.790200	0.110931	0.013729	0.353345	-84.724191	7.850412	-24.017445
11460		-1.291448	-10.054538	0.825732	0.139702	0.004753	0.394591	-84.637697	8.074798	-24.000353
11461		-1.317655	-9.978344	0.870080	0.150540	0.002884	0.426331	-84.544293	8.317513	-23.980041
11462		-1.313740	-10.011155	0.914489	0.161816	0.004711	0.461142	-84.444328	8.579796	-23.958467
11463		-1.212666	-10.306356	0.919023	0.161264	0.014725	0.507892	-84.344806	8.869591	-23.939502
11464		-1.171063	-10.421243	0.892817	0.218520	0.035000	0.575722	-84.213676	9.198844	-23.927755
11465		-1.216321	-10.249469	1.026934	0.209497	0.025460	0.676277	-84.085490	9.585112	-23.903739
11466		-1.184272	-10.532535	1.113773	0.207138	0.030976	0.787302	-83.957885	10.034636	-23.875323
11467		-1.320678	-10.311571	1.221287	0.215844	0.054990	0.885295	-83.826109	10.541612	-23.853636
11468		-1.350664	-10.128814	1.292914	0.187840	0.067987	0.972422	-83.710499	11.098750	-23.832845
11469		-1.409132	-10.111132	1.441358	0.146738	0.097562	1.059796	-83.620133	11.707639	-23.822520
11470		-1.886767	-9.955075	1.330777	0.130572	0.143019	1.101378	-83.543844	12.342936	-23.835024
11471		-1.902858	-10.071829	1.189584	0.086266	0.153548	1.137241	-83.493556	12.999461	-23.850594
11472		-1.813028	-10.372207	1.090391	0.112228	0.157193	1.199854	-83.428144	13.691763	-23.863470
11473		-2.206416	-10.235716	1.015250	0.154864	0.152761	1.272478	-83.336205	14.425187	-23.867857
11474		-2.440585	-9.864778	0.924432	0.160821	0.122031	1.311555	-83.235466	15.178729	-23.850194
11475		-2.085004	-10.660925	0.988242	0.218111	0.079409	1.307416	-83.094378	15.927010	-23.805937
11476		-2.460752	-10.753270	0.887820	0.427147	0.096619	1.294143	-82.835461	16.668760	-23.769966
11477		-3.328263	-10.507970	0.793657	0.510271	0.092858	1.273591	-82.526982	17.398335	-23.729357
11478		-3.410342	-9.338307	0.768554	0.625865	0.077560	1.235610	-82.148617	18.104969	-23.677915
11479		-3.789598	-8.590512	0.911400	0.543082	0.034459	1.188767	-81.808570	18.781243	-23.599773
11480		-3.118580	-8.162193	0.808862	0.348755	-0.057171	1.158761	-81.560648	19.432541	-23.465305
11481		-2.052332	-8.702636	0.688357	0.235097	-0.149834	1.076652	-81.359010	20.028968	-23.279240
11482		-1.272420	-9.062946	0.805964	0.204322	-0.233470	0.969540	-81.158261	20.556797	-23.049734
11483		-0.731185	-9.168055	0.873799	0.194181	-0.329064	0.851354	-80.943986	21.008325	-22.770871
11484		-0.170083	-9.180937	0.894555	0.169350	-0.423030	0.718732	-80.725204	21.375378	-22.445362
11485		0.517165	-9.249000	0.891894	0.149059	-0.532956	0.553789	-80.497239	21.637345	-22.067492
11486		1.070507	-9.229112	0.864902	0.123205	-0.628511	0.384113	-80.267073	21.793293	-21.647239
11487		1.764510	-9.141828	0.745811	0.068663	-0.708913	0.208452	-80.055998	21.839909	-21.195867
11488		2.407797	-9.142516	0.594570	0.030534	-0.750256	0.005465	-79.865429	21.767192	-20.740885
11489		3.003314	-9.269971	0.379568	-0.024837	-0.747660	-0.203036	-79.717079	21.574619	-20.311233
11490		2.873708	-10.080326	0.312965	-0.117088	-0.708878	-0.498941	-79.644123	21.219754	-19.938569
11491		3.184322	-10.366188	0.227963	-0.184740	-0.642931	-0.869311	-79.642467	20.660815	-19.648417
11492		3.275021	-10.163425	0.160311	-0.272213	-0.555072	-1.182284	-79.724009	19.936553	-19.445649
11493		3.193938	-10.002117	0.153013	-0.341523	-0.437504	-1.391218	-79.879299	19.104278	-19.335735
11494		3.025405	-9.911749	0.173475	-0.389216	-0.304484	-1.523234	-80.091933	18.213625	-19.316065
11495		2.822406	-9.985272	0.127465	-0.419900	-0.156992	-1.623536	-80.351853	17.277683	-19.391064
11496		2.590005	-10.094102	0.182300	-0.454904	-0.009300	-1.699861	-80.655754	16.315324	-19.554865
11497		2.313859	-10.394693	0.242429	-0.483112	0.131769	-1.771675	-80.996737	15.320758	-19.802791
11498		2.073233	-10.628261	0.396788	-0.504340	0.257969	-1.838749	-81.363329	14.301458	-20.122377
11499		1.723573	-10.920200	0.506129	-0.526620	0.377296	-1.896252	-81.753835	13.253529	-20.509042
11500		1.404163	-11.150884	0.708163	-0.527216	0.469461	-1.952894	-82.147615	12.182374	-20.944082
11501		1.082944	-11.387488	0.819742	-0.508834	0.537611	-1.987936	-82.530480	11.089249	-21.413073
11502		0.709385	-11.351294	1.082610	-0.485172	0.573506	-2.003988	-82.892395	9.991077	-21.894142
11503		0.378875	-11.297554	1.277905	-0.483354	0.568684	-2.012787	-83.243317	8.879949	-22.365385
11504		0.026287	-11.416232	1.496685	-0.504998	0.531916	-2.020966	-83.592487	7.763635	-22.806852
11505		-0.307430	-11.737121	1.644561	-0.505916	0.477342	-2.040659	-83.929663	6.625252	-23.211188
11506		-0.538191	-11.965313	1.782973	-0.485655	0.407941	-2.074175	-84.241587	5.466281	-23.569449
11507		-0.805865	-12.037924	1.815417	-0.447128	0.323258	-2.118350	-84.520372	4.270631	-23.875906
11508		-1.106270	-11.918779	1.812152	-0.401748	0.237448	-2.142569	-84.762591	3.060122	-24.127832
11509		-1.357915	-11.529603	1.737807	-0.384526	0.147285	-2.132616	-84.987788	1.844785	-24.323370
11510		-1.539460	-11.263461	1.623291	-0.387554	0.058879	-2.081625	-85.208756	0.658360	-24.460235
11511		-1.706811	-11.230429	1.567731	-0.418311	-0.023369	-1.988789	-85.445009	-0.484164	-24.541849
11512		-1.775999	-11.208604	1.424651	-0.421728	-0.092695	-1.890052	-85.681992	-1.568944	-24.573975
11513		-1.700587	-10.991297	1.372368	-0.410173	-0.139457	-1.795525	-85.913500	-2.606317	-24.571744
11514		-1.601393	-10.876862	1.252272	-0.385754	-0.163835	-1.687027	-86.131812	-3.578103	-24.546404
11515		-1.710891	-10.821067	1.292111	-0.366686	-0.167259	-1.597964	-86.340661	-4.503274	-24.512816
11516		-1.931765	-10.661550	1.223659	-0.368962	-0.169028	-1.550758	-86.551473	-5.397105	-24.472372
11517		-1.951514	-10.451917	1.258913	-0.402973	-0.168415	-1.527479	-86.783161	-6.281424	-24.428653
11518		-1.916560	-10.169189	1.278416	-0.455662	-0.166271	-1.509824	-87.045728	-7.151390	-24.381043
11519		-1.832659	-10.002183	1.273574	-0.471121	-0.152259	-1.466563	-87.317807	-7.999637	-24.336742
11520		-1.971097	-9.761070	1.267646	-0.462273	-0.139561	-1.401679	-87.584930	-8.806541	-24.293375
11521		-2.160729	-9.547565	1.324762	-0.449596	-0.123460	-1.307676	-87.845070	-9.562374	-24.253909
11522		-2.424966	-9.577288	1.385249	-0.426871	-0.114547	-1.194463	-88.092568	-10.249698	-24.213231
11523		-2.620558	-9.685195	1.386698	-0.360065	-0.112941	-1.097795	-88.303064	-10.884394	-24.169388
11524		-2.695515	-9.681891	1.388308	-0.274827	-0.112326	-1.007195	-88.465694	-11.464120	-24.121675
11525		-2.558515	-9.365899	1.301288	-0.171298	-0.108252	-0.920925	-88.569569	-11.996743	-24.074074
11526		-2.648654	-8.931050	1.169282	-0.100720	-0.099499	-0.821919	-88.632789	-12.469985	-24.028800
11527		-2.637539	-8.485399	1.004256	-0.080070	-0.092190	-0.715274	-88.683957	-12.884037	-23.986252
11528		-2.769940	-8.296393	0.781316	-0.098655	-0.094585	-0.612283	-88.746856	-13.237044	-23.939988
11529		-2.825364	-8.176195	0.666209	-0.134122	-0.101940	-0.528920	-88.831568	-13.543926	-23.888231
11530		-2.895545	-8.127489	0.551999	-0.170727	-0.115415	-0.459474	-88.939846	-13.809493	-23.826736
11531		-2.963498	-8.272364	0.491964	-0.194837	-0.132266	-0.399733	-89.064715	-14.042024	-23.754392
11532		-2.891295	-8.273198	0.436797	-0.208825	-0.144412	-0.349420	-89.200053	-14.244534	-23.673478
11533		-2.750970	-8.160228	0.242980	-0.199305	-0.130796	-0.271648	-89.328267	-14.402884	-23.599732
11534		-2.679620	-8.111942	0.044144	-0.179373	-0.074268	-0.154032	-89.437359	-14.492674	-23.558049
11535		-2.689845	-7.988543	-0.160851	-0.154966	0.025080	-0.025790	-89.517787	-14.508639	-23.574465
11536		-2.798705	-8.630565	-0.411480	-0.199055	0.149792	0.154831	-89.605475	-14.420359	-23.663667
11537		-3.293524	-7.088443	-0.620617	0.328768	0.157391	1.456759	-89.391870	-13.585817	-23.750393
11538		4.141772	-10.133742	-2.469013	-0.495288	0.284340	1.671682	-89.635249	-12.627751	-23.910574
11539		3.599585	-9.257725	-1.856877	0.424798	0.432417	1.644780	-89.335944	-11.683903	-24.156537
11540		1.231748	-10.154922	-1.009024	0.575617	0.545735	1.645139	-88.942641	-10.737794	-24.462092
11541		1.509883	-9.757240	-0.389991	0.605879	0.585558	1.656990	-88.534382	-9.782005	-24.782853
11542		1.761574	-9.420321	-0.032149	0.457904	0.693029	1.682652	-88.207251	-8.808076	-25.158541
11543		0.671427	-10.007471	0.732090	0.483690	0.759535	1.648289	-87.867080	-7.850063	-25.566537
11544		0.504966	-9.489289	1.295862	0.475781	0.711387	1.671801	-87.542547	-6.877680	-25.939783
11545		0.191602	-12.841284	1.568428	0.298144	0.620605	1.836320	-87.333345	-5.811365	-26.251024
11546		-0.564709	-11.694335	2.438514	0.705602	0.422328	1.729895	-86.907017	-4.810337	-26.445004
11547		0.125584	-9.358711	2.763594	0.546929	0.309033	1.624538	-86.580048	-3.871512	-26.570450
11548		-0.479773	-10.712447	1.947599	0.040065	0.296870	1.617318	-86.546139	-2.937347	-26.686175
11549		-0.789496	-11.556778	1.155971	0.036642	0.207898	1.549114	-86.518000	-2.044631	-26.752677
11550		-4.985976	-19.176489	1.740760	-0.287230	-0.085876	1.233214	-86.681145	-1.343236	-26.662898
11551		-1.522519	-10.047520	2.492084	0.716758	-0.187406	0.348691	-86.268746	-1.150567	-26.544597
11552		0.300352	-8.092091	2.044705	-0.106077	-0.272088	0.303590	-86.328532	-0.988064	-26.379061
11553		0.382129	-13.509621	-2.563941	-0.380977	-0.225497	0.322433	-86.544545	-0.811782	-26.239829
11554		-0.156954	-9.107303	1.344440	0.125559	-0.098101	0.181207	-86.469337	-0.712595	-26.178683
11555		0.003085	-9.419078	1.161451	0.008778	-0.087692	0.181730	-86.460611	-0.611844	-26.123289
11556		-0.165755	-10.088255	0.702691	-0.167916	-0.120620	0.187096	-86.553465	-0.510075	-26.049060
11557		-0.121733	-10.181105	0.388408	-0.081053	-0.082768	0.120596	-86.595957	-0.444007	-25.998775
11558		-0.109177	-9.828102	0.751394	-0.107351	-0.075444	0.095667	-86.653712	-0.392855	-25.953681
11559		-0.089119	-9.883521	0.580911	-0.118270	-0.062668	0.076828	-86.717354	-0.351050	-25.916465
11560		-0.040842	-9.955402	0.425111	-0.093057	-0.051771	0.056412	-86.766768	-0.321491	-25.886297
11561		-0.122052	-9.832533	0.581383	-0.082442	-0.040056	0.038972	-86.809772	-0.300547	-25.863302
11562		-0.075990	-9.901822	0.567489	-0.090097	-0.034620	0.021902	-86.857412	-0.290139	-25.844085
11563		-0.020992	-9.955716	0.431057	-0.064048	-0.021471	0.012228	-86.889810	-0.283875	-25.832587
11564		-0.028432	-9.781253	0.562654	-0.054451	-0.019730	0.007321	-86.916977	-0.281325	-25.822354
11565		-0.006383	-9.868056	0.537596	-0.066364	-0.018877	0.001890	-86.950697	-0.280886	-25.812661
11566		-0.018049	-9.852403	0.445696	-0.058347	-0.011734	-0.004020	-86.980073	-0.284571	-25.807348
11567		0.070583	-9.729770	0.548295	-0.053342	-0.012299	-0.002946	-87.006318	-0.286694	-25.801562
11568		0.020193	-9.747810	0.532404	-0.063049	-0.011482	-0.000288	-87.038388	-0.288231	-25.796279
11569		0.022956	-9.765207	0.543077	-0.073108	-0.004376	-0.004955	-87.075934	-0.291272	-25.795085
11570		0.014262	-9.766456	0.467354	-0.076801	-0.007484	-0.009265	-87.115871	-0.297823	-25.792348
11571		0.094526	-9.714021	0.501237	-0.063661	-0.007452	-0.010166	-87.148015	-0.303938	-25.789538
11572		0.036449	-9.644589	0.606092	-0.081581	-0.010650	-0.005266	-87.190701	-0.308286	-25.784868
11573		-0.000271	-9.818937	0.499335	-0.106257	-0.012714	-0.002733	-87.247264	-0.310298	-25.778832
11574		-0.030498	-9.871816	0.442070	-0.091819	-0.008367	-0.010225	-87.295809	-0.317415	-25.775597
11575		0.003982	-9.836991	0.497894	-0.090267	-0.009781	-0.010912	-87.343204	-0.324021	-25.771453
11576		-0.034874	-9.924744	0.373848	-0.077212	-0.007168	-0.014060	-87.383375	-0.333295	-25.768993
11577		-0.056697	-9.959684	0.370670	-0.058235	-0.001884	-0.028102	-87.412393	-0.349531	-25.769805
11578		-0.121174	-9.960154	0.410391	-0.032493	0.000273	-0.038944	-87.426914	-0.372854	-25.772237
11579		-0.020431	-9.890572	0.393547	-0.030188	-0.000728	-0.052746	-87.439860	-0.403160	-25.774329
11580		0.057078	-9.890074	0.381840	-0.003501	-0.006946	-0.047259	-87.437795	-0.431428	-25.772834
11581		0.020080	-9.838350	0.439729	0.006370	-0.006907	-0.047939	-87.429828	-0.459145	-25.771264
11582		-0.020991	-9.855912	0.463912	-0.000229	-0.004940	-0.048317	-87.425881	-0.487968	-25.770950
11583		0.030116	-9.872871	0.439427	-0.015305	-0.003265	-0.051522	-87.430316	-0.517643	-25.771560
11584		0.080860	-9.855246	0.414946	0.003189	-0.000096	-0.048223	-87.424384	-0.546287	-25.774016
11585		0.093473	-9.751223	0.482711	-0.006219	-0.009040	-0.038002	-87.423653	-0.568377	-25.770974
11586		0.095325	-9.837655	0.465014	-0.013844	-0.013151	-0.027573	-87.427559	-0.585537	-25.765427
11587		0.049413	-9.838234	0.470130	-0.018422	-0.017499	-0.020765	-87.433874	-0.597986	-25.757100
11588		0.027504	-9.873119	0.471508	-0.024673	-0.017864	-0.015507	-87.444018	-0.608359	-25.748542
11589		0.087920	-9.907487	0.356914	-0.016546	-0.015241	-0.018317	-87.449248	-0.619349	-25.741441
11590		0.119266	-9.786115	0.403400	-0.002779	-0.017240	-0.010203	-87.446849	-0.626669	-25.733103
11591		0.057007	-9.786603	0.481160	-0.012231	-0.018208	-0.003307	-87.449638	-0.629150	-25.723920
11592		0.055712	-9.838548	0.462801	-0.017199	-0.014244	-0.004626	-87.455485	-0.633200	-25.717155
11593		0.098962	-9.803725	0.419805	-0.021610	-0.017763	0.004168	-87.463646	-0.631393	-25.708037
11594		0.129093	-9.751500	0.465496	-0.019673	-0.023493	0.009940	-87.470973	-0.627339	-25.695607
11595		0.092084	-9.769541	0.381692	-0.016058	-0.021809	0.013681	-87.475980	-0.620194	-25.683934
11596		0.045636	-9.821868	0.404293	-0.013004	-0.024038	0.010888	-87.479487	-0.615608	-25.671169
11597		0.046835	-9.770046	0.420342	-0.005155	-0.017669	0.003019	-87.478222	-0.614466	-25.662135
11598		0.119148	-9.769226	0.410103	0.004919	-0.009375	0.002398	-87.471367	-0.614370	-25.657978
11599		0.002095	-9.700937	0.635072	-0.013429	-0.011724	0.001105	-87.474808	-0.614179	-25.652394
11600		0.068995	-9.821754	0.397062	-0.036895	-0.012936	-0.002656	-87.491930	-0.617065	-25.646326
11601		0.095254	-9.769733	0.407895	-0.018561	-0.008590	-0.002195	-87.498286	-0.618684	-25.642621
11602		0.102265	-9.752388	0.456688	-0.031455	-0.012411	0.003785	-87.512291	-0.617868	-25.636691
11603		0.052006	-9.804924	0.443586	-0.028491	-0.014056	-0.000419	-87.524372	-0.618611	-25.629814
11604		0.078565	-9.787461	0.454349	-0.030168	-0.010070	-0.001961	-87.537623	-0.621024	-25.625366
11605		0.054026	-9.753349	0.454867	-0.028318	-0.015223	0.002396	-87.549613	-0.620185	-25.617751
11606		0.073469	-9.787817	0.414276	-0.033096	-0.014422	0.004731	-87.564571	-0.618872	-25.610648
11607		0.027536	-9.805754	0.434733	-0.038369	-0.016111	0.001107	-87.582324	-0.618792	-25.602556
11608		0.071581	-9.839938	0.389896	-0.038641	-0.014359	-0.003114	-87.600457	-0.621963	-25.595678
11609		0.056085	-9.736717	0.457783	-0.041609	-0.012720	0.001092	-87.620048	-0.621808	-25.589527
11610		0.100119	-9.805430	0.412291	-0.047949	-0.012515	0.004953	-87.643504	-0.620313	-25.583512
11611		0.099739	-9.805621	0.407819	-0.043024	-0.010488	0.003777	-87.663892	-0.618569	-25.578576
11612		0.098564	-9.771282	0.403593	-0.044126	-0.016010	0.013161	-87.685180	-0.612452	-25.570370
11613		0.121067	-9.771197	0.395760	-0.045166	-0.018121	0.022298	-87.706846	-0.600283	-25.560639
11614		0.103862	-9.737244	0.462925	-0.051394	-0.022504	0.029219	-87.732339	-0.585114	-25.548355
11615		0.046105	-9.824300	0.412891	-0.059364	-0.026311	0.034850	-87.762182	-0.565943	-25.533664
11616		0.041013	-9.841773	0.390032	-0.056573	-0.015361	0.024288	-87.790593	-0.553426	-25.525594
11617		0.064669	-9.790000	0.398381	-0.054897	-0.021354	0.026642	-87.817841	-0.538834	-25.513940
11618		0.100569	-9.824012	0.317467	-0.055954	-0.021478	0.034954	-87.845927	-0.520335	-25.502148
11619		0.058281	-9.790450	0.388184	-0.040932	-0.024579	0.037526	-87.865188	-0.499577	-25.488427
11620		0.058795	-9.721759	0.418183	-0.052296	-0.027816	0.041988	-87.891202	-0.477175	-25.472872
11621		0.069669	-9.825003	0.340276	-0.058538	-0.032207	0.048906	-87.920574	-0.450053	-25.454563
11622		0.066951	-9.773534	0.352281	-0.051786	-0.031356	0.050421	-87.946298	-0.422881	-25.436828
11623		0.061789	-9.773752	0.347138	-0.053005	-0.034315	0.057566	-87.972494	-0.390833	-25.417160
11624		0.058238	-9.756834	0.359027	-0.055717	-0.034460	0.066000	-88.000465	-0.354786	-25.397360
11625		0.068337	-9.773760	0.298499	-0.058740	-0.044257	0.073733	-88.029957	-0.313665	-25.371710
11626		0.034218	-9.791275	0.278824	-0.062947	-0.041590	0.083459	-88.062064	-0.267739	-25.347524
11627		0.014531	-9.809652	0.361907	-0.053048	-0.049573	0.086012	-88.088274	-0.219669	-25.318634
11628		0.003403	-9.792429	0.339577	-0.057598	-0.048547	0.091762	-88.117289	-0.169097	-25.290352
11629		-0.079789	-9.810027	0.327599	-0.053374	-0.043799	0.080168	-88.143626	-0.124243	-25.264925
11630		-0.012067	-9.792779	0.329136	-0.048973	-0.036226	0.069747	-88.167642	-0.086025	-25.244151
11631		-0.073468	-9.777325	0.454361	-0.058901	-0.034243	0.069664	-88.197104	-0.046990	-25.224426
11632		-0.073468	-9.793289	0.324057	-0.084215	-0.030719	0.063078	-88.241283	-0.012469	-25.206967
11633		-0.052670	-9.810949	0.329135	-0.082763	-0.027528	0.059336	-88.284388	0.020795	-25.191323
11634		-0.033824	-9.811164	0.316819	-0.094958	-0.023376	0.050376	-88.334705	0.048192	-25.178338
11635		-0.043996	-9.810907	0.273547	-0.091330	-0.021752	0.054117	-88.382705	0.078585	-25.166142
11636		-0.065669	-9.829263	0.318984	-0.094658	-0.017747	0.052740	-88.432843	0.107448	-25.156392
11637		-0.097458	-9.811987	0.296298	-0.099731	-0.019162	0.052521	-88.485647	0.136984	-25.145756
11638		-0.053944	-9.777703	0.279553	-0.106809	-0.020191	0.047629	-88.542733	0.162902	-25.134735
11639		-0.087966	-9.880856	0.236524	-0.108661	-0.016991	0.044142	-88.600648	0.187688	-25.125518
11640		-0.089595	-9.864159	0.243547	-0.102069	-0.014989	0.042841	-88.655020	0.210956	-25.117594
11641		-0.055475	-9.862878	0.158579	-0.089106	-0.009178	0.036032	-88.701743	0.231216	-25.113004
11642		-0.013850	-9.845369	0.126766	-0.069974	-0.011784	0.048463	-88.737727	0.257758	-25.106881
11643		-0.027368	-9.930523	0.067993	-0.044126	-0.012994	0.060989	-88.758670	0.292264	-25.099815
11644		0.001074	-9.863160	0.131493	-0.010247	-0.010406	0.067884	-88.760430	0.329952	-25.094259
11645		-0.048901	-9.829333	0.173654	0.008834	-0.004397	0.075689	-88.751060	0.372976	-25.091937
11646		-0.123619	-9.864359	0.219300	0.018492	-0.004616	0.071546	-88.736367	0.412833	-25.089641
11647		-0.079390	-9.847578	0.231265	0.018348	0.004621	0.065524	-88.721587	0.450144	-25.092594
11648		-0.109924	-9.847367	0.236716	0.018255	0.005222	0.064125	-88.707074	0.485875	-25.096009
11649		-0.022870	-9.830116	0.207037	0.014499	0.008856	0.079273	-88.694523	0.531114	-25.101192
11650		-0.093304	-9.914016	0.129143	0.027204	0.013044	0.091777	-88.674927	0.582789	-25.108705
11651		-0.078551	-9.914048	0.129601	0.055815	0.011341	0.097265	-88.638732	0.638361	-25.115036
11652		-0.104366	-9.863057	0.192478	0.084493	0.009021	0.104156	-88.586297	0.697081	-25.120007
11653		-0.075457	-9.913867	0.142389	0.106934	0.003710	0.118555	-88.520774	0.764741	-25.121559
11654		-0.151795	-9.862076	0.217358	0.132478	-0.002434	0.130717	-88.440758	0.838511	-25.119431
11655		-0.188137	-9.743195	0.393525	0.134197	-0.005663	0.134214	-88.359538	0.914985	-25.115183
11656		-0.090637	-9.864023	0.333611	0.101143	-0.014677	0.142751	-88.297346	0.995436	-25.105644
11657		-0.018100	-9.950422	0.277048	0.112430	-0.004275	0.156334	-88.228584	1.084585	-25.101628
11658		0.145901	-10.021368	0.189788	0.111799	-0.001921	0.193947	-88.160379	1.194563	-25.098283
11659		-0.200870	-9.946709	0.321686	0.121270	-0.014771	0.219419	-88.086382	1.319604	-25.086859
11660		-0.460465	-9.646765	0.355860	0.104098	-0.021543	0.241043	-88.022275	1.456160	-25.071089
11661		0.266855	-11.369192	-0.216967	-0.001330	-0.141586	0.378862	-88.016388	1.669971	-24.983633
11662		1.323360	-10.928045	0.231199	0.319663	0.024876	0.689176	-87.829191	2.064047	-24.984827
11663		-0.055951	-10.642084	0.153854	0.355861	0.056927	0.927843	-87.621582	2.596117	-24.997498
11664		0.409902	-11.273850	-0.196533	0.397969	0.037206	1.142822	-87.389175	3.250172	-24.991557
11665		-0.073057	-10.494935	0.366074	0.504796	0.059109	1.348071	-87.095621	4.022823	-24.989398
11666		-0.076560	-11.213211	0.306575	0.516725	0.033393	1.546331	-86.793375	4.907537	-24.962476
11667		0.138607	-12.973925	-0.472753	0.690503	0.066783	1.697190	-86.391834	5.879990	-24.943991
11668		-0.256672	-10.625614	0.710293	0.908727	0.085689	1.875535	-85.864568	6.954441	-24.921567
11669		-0.492783	-12.340182	2.384709	0.673539	0.042662	2.036770	-85.466251	8.119335	-24.858416
11670		-0.157912	-11.913867	0.043651	0.549574	-0.045029	2.419609	-85.125871	9.497891	-24.718679
11671		-1.014756	-11.047362	0.156269	0.413404	-0.134875	2.581135	-84.847868	10.963663	-24.510422
11672		-3.206048	-11.476880	-0.796871	0.331180	-0.210965	2.488311	-84.602374	12.371234	-24.255037
11673		-1.747512	-13.233477	-0.895724	0.810791	-0.204669	2.416679	-84.075346	13.736873	-23.996336
11674		-1.664058	-12.165586	-0.616039	1.204491	-0.207205	2.343107	-83.313308	15.057253	-23.723665
11675		-1.740877	-12.072318	-0.126531	1.259362	-0.441792	2.132466	-82.475544	16.237600	-23.307227
11676		0.052824	-6.206884	0.022034	1.119280	-0.615947	1.797201	-81.682895	17.207949	-22.795512
11677		0.649068	-4.768033	-1.333397	0.154613	-0.936813	1.713314	-81.376004	18.098977	-22.088071
11678		3.213895	-7.350950	-1.795983	-0.358927	-1.228350	1.443261	-81.304295	18.809624	-21.224778
11679		5.806099	-8.064115	-2.300427	-0.481653	-1.290228	1.024306	-81.294318	19.276795	-20.359349
11680		5.417280	-10.890845	-2.342886	-0.434155	-1.206731	0.421404	-81.286722	19.409866	-19.597738
11681		6.542647	-10.615811	-2.243789	-0.179525	-1.031782	-0.335534	-81.192837	19.128040	-19.011535
11682		5.790694	-8.760524	-2.227307	-0.079575	-0.864822	-0.884749	-81.094399	18.549977	-18.578143
11683		4.615915	-7.123799	-2.087902	-0.110095	-0.722721	-1.147780	-81.054147	17.833591	-18.256847
11684		3.411034	-6.799748	-1.978841	-0.242615	-0.626370	-1.272547	-81.113604	17.056770	-18.005105
11685		2.891512	-7.683072	-1.788490	-0.377348	-0.534971	-1.389650	-81.273504	16.220102	-17.818165
11686		2.646625	-8.933079	-1.583569	-0.425945	-0.418510	-1.537997	-81.484222	15.312008	-17.710503
11687		2.441925	-10.027821	-1.435936	-0.378749	-0.248262	-1.716490	-81.700014	14.315008	-17.715697
11688		2.156252	-10.512165	-1.390562	-0.334665	-0.052405	-1.934353	-81.919419	13.212822	-17.849061
11689		1.681193	-10.253340	-1.284662	-0.349751	0.177897	-2.145508	-82.178541	12.005779	-18.128732
11690		0.878317	-9.156853	-0.852678	-0.458832	0.413752	-2.279843	-82.519885	10.741788	-18.547159
11691		-0.143322	-8.706286	-0.440501	-0.720095	0.595672	-2.298830	-83.020559	9.474119	-19.061354
11692		-0.780344	-9.274085	-0.077857	-0.956834	0.752530	-2.240846	-83.654928	8.247949	-19.646882
11693		-1.095814	-10.129543	0.319990	-1.075262	0.906886	-2.138636	-84.355906	7.079478	-20.299203
11694		-1.422803	-11.041864	0.692379	-1.060906	1.061079	-2.007735	-85.041372	5.989235	-21.016808
11695		-2.071507	-12.564483	1.190053	-0.956092	1.188964	-1.854985	-85.660669	4.980964	-21.787109
11696		-1.926745	-10.561247	1.616700	-0.482161	1.315507	-1.658666	-85.998053	4.086933	-22.611830
11697		-5.676650	-26.060307	11.685973	-1.830362	1.496232	-0.790418	-87.104567	3.682320	-23.498388
11698		-8.583324	-6.736022	-0.100827	5.456447	1.670483	-0.898875	-84.034289	3.241826	-24.495427
11699		-16.262676	-2.147904	6.724376	-2.826144	1.051675	0.180889	-85.685150	3.395406	-25.088820
11700		-38.858975	-18.848148	25.910020	1.855024	1.601690	0.637167	-84.674116	3.835314	-25.975657
11701		-14.666403	11.996104	14.713457	0.573984	0.011820	1.357333	-84.336321	4.608596	-25.909171
11702		-20.149213	-19.011005	-0.721973	-2.843861	-1.061376	0.862918	-85.907052	5.048509	-25.260237
11703		-2.681411	-5.947237	0.274133	0.425059	-0.244849	-0.384254	-85.648380	4.818447	-25.137314
11704		-2.427608	-13.960073	-3.953183	-0.742801	-0.064524	-0.204566	-86.067636	4.697871	-25.110112
11705		-1.082019	-8.393604	2.335506	-0.466832	-0.021356	-0.275046	-86.330713	4.539768	-25.109492
11706		-0.634579	-9.394034	0.878648	-0.339737	0.036032	-0.227301	-86.523635	4.410057	-25.139593
11707		-0.921635	-9.737843	0.938394	-0.458404	0.045798	-0.251173	-86.784564	4.267868	-25.175447
11708		-0.765885	-9.772638	0.778433	-0.626626	0.037964	-0.272724	-87.141804	4.111952	-25.206810
11709		-0.420652	-10.389113	0.003304	-0.539626	0.039595	-0.247136	-87.448690	3.971515	-25.237381
11710		-0.348914	-11.010300	-1.069849	-0.291008	0.013564	-0.133191	-87.612191	3.894567	-25.249732
11711		-0.545019	-10.704297	-0.611329	0.048978	0.005713	-0.048677	-87.580139	3.866730	-25.255319
11712		-0.823861	-9.964613	0.327026	0.180317	-0.014976	-0.023660	-87.472291	3.851775	-25.248585
11713		-0.823214	-9.636817	0.680539	0.156305	-0.018271	-0.031910	-87.377844	3.832927	-25.240056
11714		-0.658861	-9.526104	0.723456	0.105774	-0.012531	-0.049728	-87.312853	3.803095	-25.235466
11715		-0.671609	-9.542173	0.784891	0.032933	-0.006554	-0.052835	-87.289567	3.772571	-25.234271
11716		-0.639141	-9.595955	0.658320	-0.028322	0.001616	-0.059029	-87.301961	3.737795	-25.238074
11717		-0.578514	-9.703871	0.574467	-0.066068	0.000490	-0.050598	-87.335638	3.708734	-25.240856
11718		-0.541847	-9.758251	0.474638	-0.080039	0.007640	-0.041783	-87.377851	3.683984	-25.247619
11719		-0.612058	-9.736691	0.460134	-0.087524	0.009974	-0.030392	-87.424128	3.666718	-25.255275
11720		-0.644122	-9.786651	0.403536	-0.088915	0.015434	-0.031334	-87.471688	3.648137	-25.266202
11721		-0.665017	-9.785665	0.398696	-0.080702	0.018360	-0.035577	-87.514365	3.628096	-25.278770
11722		-0.691328	-9.836100	0.377038	-0.075911	0.019987	-0.040161	-87.554643	3.604558	-25.292497
11723		-0.671844	-9.854512	0.315317	-0.059666	0.016654	-0.042541	-87.585211	3.580468	-25.304226
11724		-0.671249	-9.871865	0.293826	-0.025160	0.011569	-0.043441	-87.596102	3.554836	-25.313180
11725		-0.650924	-9.822010	0.378371	0.001103	0.012541	-0.049598	-87.591716	3.526601	-25.322708
11726		-0.573904	-9.826735	0.368397	0.014131	0.005531	-0.046695	-87.579879	3.498961	-25.328279
11727		-0.605962	-9.790645	0.446214	0.029809	0.006533	-0.035592	-87.558813	3.478596	-25.334032
11728		-0.635330	-9.805642	0.401041	0.024950	0.005491	-0.032414	-87.540751	3.459133	-25.339247
11729		-0.623897	-9.789339	0.454753	0.023492	0.003157	-0.026665	-87.523173	3.443793	-25.342858
11730		-0.614170	-9.755516	0.490868	0.011887	0.004099	-0.027227	-87.512538	3.427269	-25.347157
11731		-0.611477	-9.755656	0.491432	0.000162	0.003632	-0.028374	-87.508342	3.410960	-25.351089
11732		-0.608661	-9.755882	0.490449	-0.019552	0.008820	-0.029977	-87.515883	3.392979	-25.358166
11733		-0.659380	-9.804749	0.477773	-0.026546	0.007987	-0.034886	-87.527141	3.373045	-25.364756
11734		-0.657208	-9.787621	0.457912	-0.031892	0.007105	-0.039915	-87.541703	3.349330	-25.371087
11735		-0.622648	-9.875585	0.361398	-0.035439	0.004386	-0.040845	-87.557937	3.325894	-25.375748
11736		-0.602103	-9.911175	0.320983	-0.013224	0.003217	-0.029399	-87.561653	3.308101	-25.379582
11737		-0.581926	-9.826647	0.406370	-0.001349	0.001907	-0.024030	-87.558255	3.294226	-25.382406
11738		-0.557298	-9.810628	0.385936	0.002134	-0.003171	-0.016416	-87.552942	3.283709	-25.382260
11739		-0.523408	-9.795710	0.434026	0.002573	-0.002742	-0.009618	-87.547126	3.277964	-25.382068
11740		-0.599713	-9.791005	0.411324	0.014010	-0.004478	-0.011047	-87.534959	3.270488	-25.381043
11741		-0.566113	-9.776032	0.460079	0.004155	-0.004792	-0.008917	-87.528170	3.265087	-25.379661
11742		-0.572139	-9.809958	0.426230	0.007406	-0.004290	-0.010565	-87.519793	3.257892	-25.378734
11743		-0.560706	-9.759140	0.478400	0.002623	-0.003338	-0.008211	-87.513929	3.252925	-25.378171
11744		-0.589210	-9.757250	0.447426	-0.010363	-0.002749	-0.003847	-87.515773	3.249614	-25.377962
11745		-0.585738	-9.792367	0.480220	-0.011997	-0.000103	-0.005954	-87.518387	3.246015	-25.379198
11746		-0.636822	-9.806672	0.468830	-0.013699	0.000539	-0.007240	-87.522254	3.240843	-25.380958
11747		-0.588816	-9.792035	0.443341	-0.016064	0.000537	-0.018723	-87.527234	3.229948	-25.382879
11748		-0.569883	-9.827463	0.403680	-0.017411	0.005401	-0.018250	-87.533399	3.218593	-25.387698
11749		-0.566226	-9.793143	0.402737	-0.007403	0.003930	-0.016161	-87.533523	3.209243	-25.391499
11750		-0.561293	-9.776307	0.419474	-0.002349	0.002599	-0.013710	-87.530960	3.200418	-25.394599
11751		-0.564975	-9.775800	0.385152	-0.000579	0.003960	-0.013244	-87.527174	3.192734	-25.398346
11752		-0.577881	-9.775708	0.456857	-0.002113	0.005413	-0.012537	-87.524563	3.184651	-25.403031
11753		-0.578515	-9.810267	0.456305	-0.002401	0.003195	-0.015116	-87.521799	3.175872	-25.406387
11754		-0.602710	-9.791512	0.442262	-0.010842	0.000013	-0.014280	-87.524019	3.166658	-25.408020
11755		-0.580455	-9.809934	0.420408	-0.010812	0.005213	-0.018733	-87.526142	3.155857	-25.412623
11756		-0.532248	-9.795191	0.395498	-0.007437	-0.001271	-0.011708	-87.526368	3.148082	-25.413456
11757		-0.548485	-9.760069	0.432809	-0.007099	0.000350	-0.007723	-87.526197	3.143458	-25.414998
11758		-0.549838	-9.794600	0.431884	-0.005227	0.000518	-0.004444	-87.525202	3.139886	-25.416676
11759		-0.573542	-9.793309	0.435155	-0.000339	-0.001620	-0.003986	-87.521092	3.137347	-25.416998
11760		-0.593685	-9.775091	0.455663	-0.005396	-0.000292	-0.006437	-87.520171	3.132615	-25.418261
11761		-0.551849	-9.811649	0.413902	0.001312	-0.001665	-0.004106	-87.515113	3.130004	-25.418560
11762		-0.596138	-9.792105	0.438035	-0.005279	0.001115	-0.005850	-87.514168	3.125642	-25.420616
11763		-0.547412	-9.794789	0.430677	-0.000155	0.001790	-0.004219	-87.510062	3.123049	-25.422900
11764		-0.574497	-9.810439	0.416782	-0.003628	0.001070	-0.005971	-87.508169	3.118617	-25.424933
11765		-0.592825	-9.809792	0.454025	-0.005552	0.001498	-0.010655	-87.507156	3.112329	-25.427210
11766		-0.569227	-9.793637	0.433424	0.002939	0.004087	-0.010084	-87.501600	3.105618	-25.431077
11767		-0.568201	-9.793692	0.433523	-0.000416	0.004773	-0.011250	-87.497747	3.099070	-25.435248
11768		-0.541544	-9.812604	0.446757	-0.002015	0.004221	-0.009723	-87.495032	3.092569	-25.439183
11769		-0.519540	-9.778892	0.409329	0.001104	0.000722	-0.009731	-87.490180	3.086785	-25.440995
11770		-0.561871	-9.776939	0.450425	-0.003667	0.004265	-0.009603	-87.488412	3.080355	-25.444953
11771		-0.563039	-9.811475	0.449642	-0.005280	0.001113	-0.005850	-87.487227	3.076797	-25.446893
11772		-0.556867	-9.760129	0.466924	-0.000599	0.001363	-0.011017	-87.483613	3.069485	-25.449223
11773		-0.555688	-9.760215	0.466527	-0.007310	0.002734	-0.013348	-87.483649	3.061673	-25.452282
11774		-0.559708	-9.811735	0.448132	-0.009078	0.001371	-0.013814	-87.484897	3.052761	-25.454687
11775		-0.553065	-9.760446	0.464824	-0.009144	-0.000633	-0.012995	-87.485880	3.045063	-25.455808
11776		-0.510567	-9.796999	0.422127	-0.013994	-0.001695	-0.009822	-87.489845	3.038358	-25.456355
11777		-0.537238	-9.812739	0.407215	-0.010522	-0.000973	-0.008069	-87.491601	3.033466	-25.457157
11778		-0.557155	-9.794607	0.427143	-0.007102	0.000346	-0.007723	-87.491676	3.028014	-25.458821
11779		-0.551390	-9.795300	0.460686	-0.005749	-0.004514	-0.008199	-87.490593	3.022955	-25.457597
11780		-0.506035	-9.814850	0.435588	-0.010312	-0.003362	-0.002445	-87.492388	3.020431	-25.457003
11781		-0.526585	-9.796684	0.455723	-0.003601	-0.004730	-0.000115	-87.490057	3.019989	-25.455452
11782		-0.529898	-9.761593	0.421447	-0.006629	-0.005028	0.004931	-87.489682	3.021645	-25.453718
11783		-0.530752	-9.813613	0.437450	-0.004925	-0.005669	0.006216	-87.488073	3.024798	-25.451471
11784		-0.546912	-9.796042	0.491870	-0.006682	-0.004431	0.003525	-87.487748	3.025665	-25.450115
11785		-0.548572	-9.778531	0.474005	-0.013383	-0.000460	-0.001029	-87.491152	3.024798	-25.451037
11786		-0.532940	-9.796130	0.418148	-0.004967	-0.002471	0.002586	-87.489905	3.025176	-25.450827
11787		-0.531551	-9.813709	0.434319	-0.010092	-0.003149	0.000954	-87.491339	3.025373	-25.450159
11788		-0.552283	-9.795558	0.454074	-0.011498	0.002309	0.000026	-87.493982	3.024406	-25.452753
11789		-0.536787	-9.813136	0.398137	-0.008037	0.000429	0.004002	-87.494344	3.026433	-25.454060
11790		-0.530276	-9.779327	0.431885	-0.008154	-0.000977	0.003415	-87.494967	3.027323	-25.454686
11791		-0.527618	-9.814469	0.464792	-0.009817	-0.003536	0.005759	-87.496230	3.030252	-25.453677
11792		-0.534770	-9.796256	0.412808	-0.009765	-0.004133	0.007165	-87.497675	3.033210	-25.452399
11793		-0.558080	-9.812530	0.432471	-0.006227	-0.001408	0.008099	-87.496944	3.037527	-25.452551
11794		-0.527982	-9.779972	0.463121	-0.001348	-0.006146	0.010778	-87.493500	3.042502	-25.450030
11795		-0.536018	-9.813733	0.428235	-0.006135	-0.005206	0.013134	-87.492593	3.049602	-25.447879
11796		-0.561373	-9.812398	0.431210	-0.006252	-0.006612	0.012546	-87.491942	3.055578	-25.445045
11797		-0.541646	-9.778505	0.393246	-0.007735	-0.005760	0.014660	-87.491934	3.063534	-25.442538
11798		-0.517342	-9.797318	0.406167	-0.001245	-0.007343	0.013588	-87.488390	3.070088	-25.439259
11799		-0.582570	-9.777119	0.468187	-0.001128	-0.005937	0.014177	-87.484594	3.077758	-25.436662
11800		-0.564552	-9.777691	0.430301	-0.003173	-0.006911	0.008905	-87.482174	3.081641	-25.433748
11801		-0.567124	-9.812141	0.429535	-0.004982	-0.005072	0.004809	-87.480626	3.083969	-25.431883
11802		-0.536701	-9.779649	0.459921	-0.008064	-0.004773	0.008451	-87.481074	3.087646	-25.430206
11803		-0.563026	-9.760762	0.445837	-0.008169	-0.003577	0.005640	-87.481397	3.090483	-25.429178
11804		-0.542988	-9.778968	0.424138	-0.009769	-0.004130	0.007167	-87.482844	3.093442	-25.427901
11805		-0.545749	-9.813436	0.422720	-0.011317	-0.005283	0.010099	-87.484912	3.098785	-25.425783
11806		-0.548315	-9.795840	0.404855	-0.009613	-0.005926	0.011383	-87.486208	3.104112	-25.423371
11807		-0.523916	-9.814704	0.417338	-0.007739	-0.005762	0.014661	-87.486208	3.112050	-25.420864
11808		-0.578504	-9.811318	0.389669	-0.006139	-0.005208	0.013134	-87.485532	3.118398	-25.418820
11809		-0.574847	-9.811957	0.423419	-0.002850	-0.007902	0.015114	-87.482666	3.126537	-25.415074
11810		-0.577588	-9.794310	0.406305	-0.002940	-0.004101	0.010081	-87.480196	3.131165	-25.413740
11811		-0.567885	-9.743633	0.457894	-0.003282	-0.005715	0.006093	-87.477661	3.134193	-25.411475
11812		-0.575454	-9.777384	0.422786	-0.008053	-0.002169	0.006230	-87.478186	3.136665	-25.411346
11813		-0.548839	-9.813888	0.452319	-0.004868	-0.003665	0.005398	-87.476625	3.139344	-25.410273
11814		-0.552488	-9.778701	0.417983	-0.008120	-0.004174	0.007047	-87.477124	3.142233	-25.408974
11815		-0.551664	-9.796287	0.434073	-0.008001	-0.002768	0.007635	-87.477385	3.146211	-25.408360
11816		-0.528425	-9.797607	0.429735	-0.008084	-0.007377	0.010674	-87.477758	3.151096	-25.405133
11817		-0.576133	-9.812505	0.452996	-0.007712	-0.000555	0.010219	-87.477920	3.156603	-25.405723
11818		-0.575149	-9.778010	0.452765	-0.006246	-0.004012	0.010324	-87.477346	3.161372	-25.404434
11819		-0.559038	-9.813077	0.413595	-0.014441	-0.001778	0.010118	-87.481326	3.166789	-25.404325
11820		-0.584239	-9.811708	0.416266	-0.004611	-0.006662	0.012423	-87.479727	3.172693	-25.401465
11821		-0.552700	-9.796878	0.463714	-0.004475	-0.002652	0.010791	-87.477971	3.178470	-25.400838
11822		-0.551802	-9.762381	0.463501	-0.009501	-0.004520	0.011973	-87.479242	3.184171	-25.399216
11823		-0.564954	-9.795343	0.393840	-0.009553	-0.003920	0.010568	-87.480355	3.189784	-25.397870
11824		-0.576444	-9.778595	0.482274	-0.006180	-0.002007	0.009508	-87.479807	3.194136	-25.397751
11825		-0.558048	-9.779207	0.443606	-0.013186	-0.002835	0.004603	-87.483044	3.196359	-25.397177
11826		-0.562058	-9.796082	0.425272	-0.008177	-0.003573	0.005642	-87.483595	3.198459	-25.396258
11827		-0.586959	-9.794722	0.427851	-0.012860	-0.003829	0.010813	-87.486607	3.204207	-25.394959
11828		-0.560217	-9.779224	0.440488	-0.009658	-0.002722	0.007758	-87.488031	3.207540	-25.394476
11829		-0.564547	-9.796080	0.422007	-0.014686	-0.004588	0.008941	-87.492067	3.212195	-25.392789
11830		-0.589434	-9.794726	0.424343	-0.011432	-0.004081	0.007291	-87.494465	3.215226	-25.391538
11831		-0.566059	-9.796097	0.419576	-0.012965	-0.002629	0.008003	-87.497582	3.219390	-25.390999
11832		-0.566838	-9.796109	0.418239	-0.014618	-0.002583	0.008126	-87.501852	3.222938	-25.390586
11833		-0.566157	-9.813732	0.433978	-0.007956	-0.003369	0.009041	-87.502075	3.227673	-25.389597
11834		-0.568476	-9.796097	0.416305	-0.009661	-0.002722	0.007759	-87.503501	3.231007	-25.389114
11835		-0.591933	-9.812347	0.435719	-0.011142	-0.001871	0.009876	-87.505599	3.236254	-25.388963
11836		-0.565195	-9.796868	0.448606	-0.006494	-0.006827	0.009143	-87.505075	3.240277	-25.386092
11837		-0.566230	-9.796839	0.447938	-0.007734	-0.003166	0.012441	-87.505175	3.246957	-25.385136
11838		-0.596630	-9.794620	0.416654	-0.007804	-0.005171	0.013256	-87.505449	3.253376	-25.383111
11839		-0.568739	-9.796757	0.446546	-0.006152	-0.005219	0.013133	-87.504575	3.260398	-25.380961
11840		-0.566463	-9.779890	0.463140	-0.009649	-0.008535	0.013602	-87.505796	3.266931	-25.376999
11841		-0.575024	-9.813490	0.427757	-0.005929	-0.005016	0.016533	-87.504795	3.275900	-25.374881
11842		-0.573017	-9.796592	0.444695	-0.002745	-0.006515	0.015697	-87.502122	3.283683	-25.372025
11843		-0.603736	-9.794304	0.413848	-0.004469	-0.008474	0.016634	-87.500171	3.292619	-25.367921
11844		-0.596834	-9.778215	0.464864	-0.006022	-0.009628	0.019566	-87.499266	3.302539	-25.363182
11845		-0.579728	-9.778700	0.426662	-0.004319	-0.010277	0.020848	-87.497162	3.313840	-25.357939
11846		-0.578054	-9.761793	0.443464	-0.007799	-0.010986	0.019099	-87.497229	3.323458	-25.352433
11847		-0.604043	-9.760303	0.446306	-0.009209	-0.008128	0.020404	-87.497998	3.334554	-25.348434
11848		-0.637105	-9.792434	0.414559	-0.006127	-0.008427	0.016758	-87.497194	3.342896	-25.344454
11849		-0.581548	-9.779248	0.457983	-0.011413	-0.007282	0.010919	-87.499268	3.348584	-25.341178
11850		-0.586212	-9.796043	0.439574	-0.011291	-0.005877	0.011510	-87.501515	3.353986	-25.338791
11851		-0.614400	-9.759286	0.408771	-0.006404	-0.008029	0.011953	-87.500691	3.360242	-25.335062
11852		-0.588421	-9.795988	0.437839	-0.012873	-0.003822	0.010820	-87.503914	3.365301	-25.333871
11853		-0.585868	-9.779163	0.454269	-0.006332	-0.006023	0.011139	-87.503119	3.371139	-25.331312
11854		-0.590546	-9.795931	0.436262	-0.007986	-0.005974	0.011263	-87.503469	3.376397	-25.328877
11855		-0.591754	-9.795891	0.435523	-0.007690	-0.003767	0.013850	-87.503523	3.383839	-25.327544
11856		-0.618688	-9.776751	0.421469	-0.011194	-0.007080	0.014319	-87.505669	3.390820	-25.324398
11857		-0.573846	-9.814046	0.412830	-0.006138	-0.002613	0.010917	-87.504878	3.396609	-25.323801
11858		-0.593474	-9.761302	0.433795	-0.006061	-0.006425	0.015944	-87.504102	3.404536	-25.320990
11859		-0.595513	-9.813359	0.449544	-0.004829	-0.010086	0.012642	-87.502306	3.411121	-25.316065
11860		-0.623810	-9.776541	0.418789	-0.012776	-0.005024	0.013631	-87.505428	3.417759	-25.314116
11861		-0.599635	-9.795613	0.430966	-0.007643	-0.004370	0.015255	-87.505435	3.425981	-25.312404
11862		-0.601123	-9.795561	0.430081	-0.010950	-0.004271	0.015503	-87.507533	3.433709	-25.310839
11863		-0.602485	-9.795520	0.429107	-0.009596	-0.006527	0.012792	-87.508589	3.440463	-25.307952
11864		-0.605250	-9.777810	0.411350	-0.011200	-0.007080	0.014320	-87.510735	3.447444	-25.304807
11865		-0.605176	-9.795435	0.427240	-0.007769	-0.005775	0.014664	-87.510769	3.455285	-25.302305
11866		-0.634365	-9.810686	0.412806	-0.007645	-0.004371	0.015255	-87.510969	3.462870	-25.300690
11867		-0.609526	-9.777645	0.408934	-0.009225	-0.002314	0.014567	-87.511959	3.470739	-25.300175
11868		-0.633691	-9.793777	0.428803	-0.002711	-0.007132	0.017099	-87.509233	3.479310	-25.296930
11869		-0.608941	-9.760718	0.425430	-0.004340	-0.004472	0.015007	-87.507349	3.487374	-25.295167
11870		-0.656995	-9.775372	0.449022	-0.006293	-0.006627	0.012544	-87.506699	3.493350	-25.292325
11871		-0.609773	-9.778307	0.441046	-0.008021	-0.002761	0.007644	-87.506995	3.497240	-25.291727
11872		-0.634669	-9.776805	0.443937	-0.007972	-0.003364	0.009048	-87.507427	3.501296	-25.290843
11873		-0.607544	-9.761544	0.456385	-0.018093	-0.000648	0.004179	-87.513573	3.503253	-25.291544
11874		-0.617510	-9.829552	0.419776	-0.008447	-0.006371	0.004463	-87.514178	3.504610	-25.289051
11875		-0.611984	-9.778367	0.436629	-0.014912	-0.002154	0.003338	-87.518450	3.506045	-25.288909
11876		-0.636428	-9.776921	0.438844	-0.014988	-0.004161	0.004150	-87.522881	3.507278	-25.287692
11877		-0.620031	-9.811957	0.399078	-0.013258	-0.002204	0.003214	-87.526205	3.508637	-25.287525
11878		-0.616842	-9.795216	0.415422	-0.007947	-0.000756	0.006832	-87.526717	3.511490	-25.288194
11879		-0.640115	-9.811412	0.435144	-0.006620	-0.005622	0.006334	-87.526115	3.514547	-25.285990
11880		-0.618184	-9.795176	0.414366	-0.001357	-0.003570	0.008548	-87.522749	3.518313	-25.285002
11881		-0.593491	-9.814336	0.427020	-0.007974	-0.003367	0.009048	-87.522999	3.522977	-25.284024
11882		-0.616285	-9.778345	0.431041	0.001924	-0.006284	0.010513	-87.517655	3.527800	-25.281431
11883		-0.641373	-9.776790	0.434526	-0.006271	-0.004021	0.010327	-87.516905	3.533176	-25.280046
11884		-0.601778	-9.813223	0.392107	-0.001035	-0.004582	0.014756	-87.513310	3.540469	-25.278323
11885		-0.671715	-9.791876	0.420492	0.000367	-0.007441	0.013446	-87.508632	3.547543	-25.274899
11886		-0.595693	-9.797262	0.443704	0.000541	-0.006641	0.015442	-87.504059	3.555177	-25.271976
11887		-0.621333	-9.795650	0.447472	0.000590	-0.007244	0.016846	-87.499255	3.564199	-25.268579
11888		-0.633504	-9.793608	0.379335	0.000989	-0.006248	0.022243	-87.494427	3.575736	-25.265709
11889		-0.630486	-9.794407	0.414006	0.009054	-0.009919	0.021836	-87.484671	3.587543	-25.260651
11890		-0.603806	-9.796683	0.445516	0.011457	-0.007375	0.031101	-87.473789	3.604120	-25.256908
11891		-0.623475	-9.761421	0.484942	0.008147	-0.007271	0.031352	-87.464631	3.621435	-25.253123
11892		-0.630062	-9.777943	0.468402	0.007920	-0.007468	0.027952	-87.455775	3.636206	-25.249402
11893		-0.643199	-9.775814	0.401061	0.009669	-0.008728	0.030634	-87.445688	3.653069	-25.244795
11894		-0.639738	-9.794206	0.453120	0.013199	-0.008638	0.033784	-87.433753	3.671147	-25.240248
11895		-0.670779	-9.809116	0.440704	0.011494	-0.007981	0.032506	-87.422644	3.689095	-25.236015
11896		-0.645969	-9.793688	0.455471	0.009533	-0.010132	0.030044	-87.412757	3.704993	-25.230700
11897		-0.681837	-9.807670	0.408755	0.011057	-0.011590	0.029326	-87.401768	3.721023	-25.224473
11898		-0.653066	-9.775508	0.441104	0.014490	-0.010295	0.029667	-87.389031	3.736699	-25.219068
11899		-0.678497	-9.791342	0.463127	0.015965	-0.011150	0.027545	-87.375248	3.751716	-25.213133
11900		-0.657015	-9.792703	0.460821	0.010954	-0.010383	0.026519	-87.364537	3.765586	-25.207753
11901		-0.640875	-9.793132	0.424479	0.017838	-0.011009	0.030820	-87.349676	3.782476	-25.201806
11902		-0.666700	-9.808902	0.446868	0.019500	-0.014277	0.034317	-87.333903	3.800702	-25.193978
11903		-0.627226	-9.810910	0.407518	0.023157	-0.012787	0.038056	-87.315913	3.821680	-25.186808
11904		-0.646150	-9.793058	0.465373	0.030119	-0.011408	0.041543	-87.294146	3.844114	-25.180418
11905		-0.649096	-9.810297	0.485207	0.030217	-0.015826	0.047977	-87.271971	3.870677	-25.171220
11906		-0.659088	-9.808930	0.454162	0.030862	-0.008807	0.050932	-87.249856	3.898551	-25.166047
11907		-0.660380	-9.791651	0.474904	0.037389	-0.014253	0.054866	-87.223610	3.929087	-25.157539
11908		-0.669824	-9.807859	0.461527	0.041433	-0.008553	0.060376	-87.195423	3.962368	-25.152222
11909		-0.691932	-9.771986	0.504049	0.042896	-0.009416	0.058256	-87.166197	3.994968	-25.146363
11910		-0.722882	-9.821723	0.528051	0.036275	-0.009183	0.058765	-87.140934	4.027304	-25.140699
11911		-0.711121	-9.804346	0.477338	0.042919	-0.010022	0.059665	-87.111659	4.060684	-25.134421
11912		-0.717058	-9.803704	0.481626	0.042997	-0.011226	0.062479	-87.082445	4.095080	-25.127444
11913		-0.715231	-9.769448	0.520467	0.042940	-0.010627	0.061075	-87.053121	4.129241	-25.120744
11914		-0.724943	-9.785605	0.507382	0.040965	-0.012776	0.058620	-87.025005	4.161376	-25.112956
11915		-0.755060	-9.783122	0.515397	0.044968	-0.009683	0.066346	-86.994537	4.198571	-25.106605
11916		-0.738557	-9.766622	0.499262	0.044508	-0.013299	0.063178	-86.964346	4.233290	-25.098345
11917		-0.763293	-9.764887	0.541384	0.041062	-0.011377	0.059215	-86.936052	4.266345	-25.091201
11918		-0.734164	-9.800810	0.469422	0.041094	-0.011978	0.060624	-86.907867	4.299635	-25.083742
11919		-0.752220	-9.747785	0.529130	0.044563	-0.011301	0.062365	-86.877554	4.334485	-25.076510
11920		-0.777098	-9.745937	0.571177	0.039504	-0.013115	0.063569	-86.850213	4.369417	-25.068272
11921		-0.762764	-9.763984	0.554390	0.043960	-0.013127	0.054980	-86.820171	4.399975	-25.060192
11922		-0.769225	-9.745785	0.541380	0.034100	-0.010135	0.053518	-86.796070	4.429244	-25.053950
11923		-0.777095	-9.779602	0.544572	0.035563	-0.011009	0.051399	-86.770934	4.457811	-25.047173
11924		-0.777794	-9.762182	0.565153	0.031992	-0.010489	0.046847	-86.748034	4.483247	-25.040919
11925		-0.759589	-9.746050	0.547444	0.027214	-0.009483	0.049224	-86.727747	4.510612	-25.035067
11926		-0.786010	-9.778643	0.587784	0.027345	-0.008079	0.049811	-86.707604	4.537818	-25.030080
11927		-0.815981	-9.758574	0.577171	0.023859	-0.008753	0.048074	-86.689269	4.564541	-25.024666
11928		-0.817502	-9.723668	0.579630	0.020294	-0.008231	0.043522	-86.673170	4.588142	-25.019783
11929		-0.820286	-9.740760	0.598438	0.016729	-0.007709	0.038969	-86.658987	4.609688	-25.015257
11930		-0.822280	-9.757942	0.616800	0.010938	-0.008946	0.027158	-86.648255	4.623903	-25.010501
11931		-0.834311	-9.773859	0.566415	0.006367	-0.003926	0.027887	-86.640210	4.639234	-25.008512
11932		-0.807279	-9.776312	0.597645	0.010595	-0.007367	0.019532	-86.629766	4.649139	-25.004914
11933		-0.839643	-9.755865	0.551277	0.007295	-0.007229	0.019789	-86.621057	4.659723	-25.001298
11934		-0.809910	-9.793420	0.616383	0.009084	-0.005893	0.020245	-86.611544	4.670085	-24.998519
11935		-0.814068	-9.758139	0.583571	0.012202	-0.006841	0.017996	-86.600046	4.679654	-24.995184
11936		-0.810481	-9.758596	0.618685	0.007353	-0.004630	0.017557	-86.591590	4.688520	-24.993218
11937		-0.841455	-9.755698	0.589091	0.007454	-0.002627	0.016733	-86.583013	4.697507	-24.992342
11938		-0.838852	-9.738660	0.606832	0.003732	-0.006704	0.015237	-86.576540	4.704974	-24.989262
11939		-0.819098	-9.774998	0.603030	-0.001194	-0.003298	0.011981	-86.572898	4.711219	-24.988162
11940		-0.821088	-9.757422	0.585722	-0.006582	-0.003511	0.005563	-86.572511	4.713262	-24.987247
11941		-0.865466	-9.736421	0.609802	-0.006621	-0.002915	0.004155	-86.572020	4.715041	-24.986636
11942		-0.845830	-9.755371	0.588244	-0.006700	-0.001721	0.001338	-86.571797	4.714730	-24.986893
11943		-0.806282	-9.793259	0.545670	-0.008412	-0.004250	0.003699	-86.572270	4.716202	-24.985532
11944		-0.802744	-9.776365	0.562464	0.000134	-0.005584	0.009275	-86.567927	4.720297	-24.983299
11945		-0.803700	-9.776268	0.562770	0.005262	-0.004987	0.010882	-86.560513	4.725848	-24.981268
11946		-0.799629	-9.776795	0.597529	0.007029	-0.006848	0.014979	-86.552143	4.733162	-24.978111
11947		-0.829303	-9.791415	0.584894	0.007311	-0.004037	0.016148	-86.543586	4.741753	-24.976441
11948		-0.822651	-9.757502	0.619880	0.005597	-0.006566	0.018509	-86.536038	4.751094	-24.973322
11949		-0.828552	-9.774188	0.603243	0.004050	-0.004493	0.017814	-86.529323	4.760619	-24.971331
11950		-0.855244	-9.754419	0.590408	0.002038	-0.006039	0.013957	-86.523852	4.767374	-24.968671
11951		-0.832520	-9.756394	0.586711	-0.001158	-0.003894	0.013390	-86.520161	4.774388	-24.967176
11952		-0.829538	-9.739438	0.603698	-0.002988	-0.004632	0.011526	-86.517644	4.779802	-24.965407
11953		-0.862976	-9.770991	0.572919	-0.002885	-0.002629	0.010702	-86.515012	4.785319	-24.964732
11954		-0.831408	-9.739296	0.603416	0.001455	-0.007869	0.006571	-86.509807	4.787786	-24.961278
11955		-0.815595	-9.792557	0.582509	0.002179	-0.004635	0.014541	-86.504168	4.795428	-24.959316
11956		-0.812850	-9.775539	0.600240	0.008814	-0.005518	0.015434	-86.494833	4.803045	-24.956900
11957		-0.838130	-9.773278	0.604759	0.005257	-0.004990	0.010882	-86.487425	4.808577	-24.954862
11958		-0.863128	-9.771051	0.609019	0.003569	-0.004321	0.009603	-86.481170	4.812901	-24.953335
11959		-0.816071	-9.775183	0.601666	0.000308	-0.004774	0.011270	-86.476606	4.818660	-24.951407
11960		-0.842421	-9.755422	0.588741	0.003436	-0.009519	0.014070	-86.470162	4.825355	-24.946738
11961		-0.847965	-9.772145	0.572006	0.004073	-0.001299	0.014172	-86.463601	4.832892	-24.946700
11962		-0.867081	-9.788044	0.627291	0.003797	-0.007902	0.018055	-86.457016	4.841923	-24.942817
11963		-0.838412	-9.721237	0.624288	0.003930	-0.002704	0.013588	-86.450472	4.849075	-24.941991
11964		-0.896085	-9.750570	0.597910	0.002098	-0.003441	0.011725	-86.445094	4.854643	-24.940892
11965		-0.863422	-9.736418	0.645424	-0.001458	-0.002911	0.007173	-86.441647	4.858119	-24.940176
11966		-0.868093	-9.753259	0.627986	-0.005015	-0.002380	0.002622	-86.440423	4.858519	-24.940009
11967		-0.860818	-9.702054	0.644595	-0.010220	-0.001777	-0.001800	-86.442078	4.856902	-24.940264
11968		-0.863429	-9.736556	0.643329	-0.012166	-0.000723	-0.007890	-86.445064	4.851350	-24.941424
11969		-0.843696	-9.738209	0.603906	-0.019309	-0.002858	-0.013350	-86.451906	4.843089	-24.941470
11970		-0.862092	-9.719463	0.622997	-0.019244	-0.000258	-0.015583	-86.458993	4.833153	-24.943169
11971		-0.839480	-9.756259	0.616864	-0.024166	0.003155	-0.018836	-86.468925	4.821966	-24.946859
11972		-0.880121	-9.753056	0.656012	-0.028117	-0.001127	-0.023731	-86.481077	4.807340	-24.948343
11973		-0.888721	-9.700901	0.707899	-0.041524	0.006231	-0.034785	-86.501145	4.787136	-24.954355
11974		-0.936785	-9.714302	0.693137	-0.064019	0.008714	-0.052339	-86.534418	4.756490	-24.962475
11975		-0.935960	-9.714663	0.651849	-0.081736	0.013374	-0.075910	-86.577967	4.713008	-24.973982
11976		-0.882914	-9.754508	0.635354	-0.092592	0.013561	-0.090141	-86.627928	4.660894	-24.986125
11977		-0.822592	-9.725630	0.618425	-0.103523	0.011145	-0.102142	-86.683898	4.602317	-24.997154
11978		-0.728957	-9.785471	0.541275	-0.104979	0.014616	-0.102238	-86.741004	4.543295	-25.010199
11979		-0.665576	-9.842063	0.434184	-0.093974	0.011412	-0.080962	-86.791431	4.496817	-25.020580
11980		-0.729778	-9.854647	0.454213	-0.071123	0.007337	-0.055788	-86.828667	4.464114	-25.027861
11981		-0.605433	-9.864965	0.428670	-0.061330	0.005198	-0.028994	-86.859977	4.447148	-25.032967
11982		-0.615577	-9.933110	0.389127	-0.029114	0.002390	0.011127	-86.872755	4.452565	-25.035274
11983		-0.717725	-9.839591	0.493056	-0.001132	-0.000487	0.036495	-86.869170	4.472871	-25.035057
11984		-0.752436	-9.786069	0.586722	0.002920	-0.001228	0.049252	-86.863339	4.499986	-25.034089
11985		-0.789892	-9.817186	0.555761	-0.006654	-0.002436	0.057649	-86.862777	4.532328	-25.032086
11986		-0.771857	-9.818709	0.551516	-0.002773	-0.000772	0.064784	-86.860189	4.568343	-25.030890
11987		-0.761011	-9.801570	0.496970	0.005822	-0.002721	0.071758	-86.852428	4.608745	-25.028275
11988		-0.666716	-9.860204	0.393733	0.028252	-0.011049	0.095159	-86.831505	4.661812	-25.020205
11989		-0.677768	-9.859226	0.399321	0.083313	-0.015097	0.130073	-86.778610	4.735168	-25.008582
11990		-0.646257	-9.793821	0.508086	0.104897	-0.022577	0.167225	-86.712997	4.829071	-24.991452
11991		-0.680725	-9.996958	0.377083	0.126649	-0.033672	0.212830	-86.634082	4.949107	-24.966234
11992		-0.589264	-9.869961	0.726871	0.170095	-0.032107	0.244223	-86.530310	5.086673	-24.940716
11993		-0.530311	-10.048804	0.761390	0.172678	-0.006345	0.284979	-86.426049	5.248826	-24.928223
11994		-0.308684	-10.522155	0.797177	0.149666	0.066903	0.363935	-86.338686	5.458336	-24.954727
11995		-0.119771	-10.372599	1.124115	0.071170	0.064560	0.573810	-86.295377	5.788173	-24.971832
11996		0.036638	-11.295405	0.381219	0.142469	0.114134	0.780597	-86.213598	6.237729	-25.009368
11997		-0.572495	-11.060138	0.442539	0.085119	0.106081	0.933657	-86.163621	6.774835	-25.035872
11998		-0.643710	-10.693397	0.576915	0.113586	0.103435	1.082990	-86.096763	7.396920	-25.054559
11999		-0.574049	-10.903452	0.434956	0.170913	0.114366	1.240301	-85.997042	8.109647	-25.072356
12000		-0.666579	-10.867239	0.449041	0.234586	0.109413	1.421100	-85.859450	8.925271	-25.078436
12001		-0.466021	-10.969385	0.542803	0.297225	0.106896	1.615286	-85.684002	9.851964	-25.072466
12002		-0.426952	-11.353345	0.432571	0.377542	0.120063	1.849562	-85.461414	10.912838	-25.060354
12003		-0.744915	-11.090159	0.687245	0.416533	0.125200	2.114695	-85.213358	12.125410	-25.034123
12004		-0.401385	-11.189287	0.661511	0.395172	0.114764	2.401367	-84.971275	13.500889	-24.981943
12005		-0.591669	-11.393404	0.710048	0.486630	0.164785	2.683900	-84.677267	15.039913	-24.937194
12006		-3.898160	-9.685000	2.010797	0.475976	0.133404	2.673845	-84.381019	16.571250	-24.865846
12007		-4.624834	-8.426926	1.383472	-0.051022	0.002753	2.531685	-84.362701	18.013952	-24.719901
12008		-5.158654	-13.283411	2.594344	-0.107444	0.100071	2.395122	-84.394443	19.384305	-24.639627
12009		-0.937191	-17.101106	0.562706	0.269838	0.121434	2.394006	-84.211635	20.755170	-24.569772
12010		-0.417370	-14.677590	1.790792	0.879121	0.444062	2.494417	-83.744917	22.202208	-24.681987
12011		-2.453996	-9.950338	2.781142	1.258485	0.635357	2.522457	-83.103202	23.678414	-24.896466
12012		-3.869672	-7.444236	2.063777	0.741762	0.623770	2.645318	-82.751126	25.225606	-25.082548
12013		-3.806011	-8.054259	1.401396	0.327152	0.584946	2.663339	-82.627471	26.780579	-25.237911
12014		-5.670807	-9.015790	2.510427	0.245642	0.450046	2.672865	-82.513437	28.331578	-25.304481
12015		-7.396177	-8.324756	2.132832	-0.260750	0.080132	2.614214	-82.576478	29.821482	-25.135777
12016		-8.363396	-15.964505	1.406852	-0.615821	-0.359780	1.787912	-82.729889	30.810186	-24.748772
12017		-5.400237	-17.914462	1.486201	-0.335295	-0.586706	0.513872	-82.696218	31.058411	-24.318069
12018		-4.772806	-16.140401	1.686577	0.214354	-0.694547	-0.487840	-82.355801	30.728585	-23.902217
12019		-5.039306	-12.524503	1.554337	0.657671	-0.761290	-0.844328	-81.760720	30.187739	-23.480259
12020		-5.801540	-9.076679	1.328830	0.854124	-0.822213	-0.660087	-81.032118	29.742420	-23.009492
12021		-6.300652	-6.997833	1.111248	0.771666	-0.882963	-0.240550	-80.315209	29.522960	-22.462561
12022		-6.340672	-7.052074	0.891029	0.554105	-0.918029	0.152193	-79.692550	29.516670	-21.851485
12023		-6.123917	-8.510620	0.750188	0.336604	-0.910113	0.390160	-79.182005	29.639525	-21.216629
12024		-5.675017	-10.170970	0.648079	0.242228	-0.858369	0.423596	-78.737959	29.782721	-20.608968
12025		-5.261649	-11.175427	0.570123	0.276809	-0.784505	0.313016	-78.302993	29.867764	-20.061804
12026		-4.990787	-11.139960	0.589032	0.342407	-0.685674	0.167984	-77.871320	29.880026	-19.597226
12027		-4.973789	-10.552262	0.573346	0.368217	-0.588787	0.032509	-77.465689	29.824874	-19.214445
12028		-4.999984	-9.649733	0.584240	0.289816	-0.498014	-0.077491	-77.142717	29.718053	-18.906646
12029		-4.937378	-9.143107	0.585788	0.112182	-0.420704	-0.177668	-76.954646	29.563500	-18.664455
12030		-4.781393	-9.185377	0.652474	-0.032899	-0.357099	-0.254925	-76.876299	29.374124	-18.475182
12031		-4.428419	-9.003786	0.677336	-0.090026	-0.297030	-0.296215	-76.853591	29.168844	-18.331269
12032		-4.095020	-8.568728	0.692079	-0.107761	-0.244594	-0.304096	-76.858216	28.966520	-18.222110
12033		-3.715761	-8.184188	0.675535	-0.129903	-0.194025	-0.275474	-76.889777	28.786207	-18.141295
12034		-3.389915	-7.899471	0.720906	-0.158414	-0.153278	-0.247120	-76.947949	28.627628	-18.081942
12035		-3.107109	-7.658465	0.842644	-0.203732	-0.129105	-0.233396	-77.038976	28.479284	-18.036061
12036		-2.772838	-7.567821	0.952269	-0.258529	-0.125027	-0.235480	-77.162321	28.330985	-17.992550
12037		-2.432433	-7.830659	0.975927	-0.290438	-0.118544	-0.277027	-77.309166	28.159710	-17.959090
12038		-2.001273	-7.887133	0.955577	-0.301618	-0.110873	-0.375455	-77.470653	27.935111	-17.943683
12039		-1.568495	-7.745107	0.895326	-0.335102	-0.103277	-0.514390	-77.662856	27.632979	-17.952042
12040		-1.259693	-7.530036	0.825030	-0.382940	-0.085182	-0.642312	-77.894612	27.262161	-17.987686
12041		-1.047873	-7.154646	0.791304	-0.418870	-0.064874	-0.740254	-78.158208	26.837814	-18.047629
12042		-0.911012	-6.758122	0.757184	-0.438593	-0.051433	-0.796541	-78.438050	26.384116	-18.120471
12043		-0.778326	-6.429200	0.637667	-0.438759	-0.046225	-0.810255	-78.719076	25.921943	-18.195950
12044		-0.637448	-6.169941	0.624796	-0.426811	-0.045895	-0.815778	-78.991267	25.457433	-18.269140
12045		-0.437325	-6.082646	0.547691	-0.414340	-0.043810	-0.817308	-79.255918	24.990806	-18.341556
12046		-0.357067	-6.208760	0.427482	-0.413247	-0.050545	-0.849100	-79.517440	24.506448	-18.410423
12047		-0.131527	-6.308176	0.257030	-0.412165	-0.047841	-0.922730	-79.781465	23.979277	-18.487023
12048		0.161955	-6.220418	0.089938	-0.429966	-0.030016	-1.021970	-80.061877	23.398896	-18.581952
12049		0.450712	-6.255859	-0.094830	-0.471151	0.005607	-1.133594	-80.377436	22.757051	-18.707326
12050		0.570705	-6.481673	-0.190829	-0.512003	0.056388	-1.275734	-80.729864	22.040446	-18.873049
12051		0.444022	-6.345361	-0.210584	-0.556319	0.111455	-1.405215	-81.121300	21.252946	-19.079516
12052		0.192846	-6.077515	-0.095675	-0.625607	0.136946	-1.512898	-81.555374	20.406926	-19.303650
12053		-0.142940	-6.079109	0.101199	-0.727110	0.143707	-1.606052	-82.046484	19.505183	-19.531955
12054		-0.373906	-6.170384	0.267810	-0.797949	0.124301	-1.678173	-82.568820	18.560928	-19.744195
12055		-0.508309	-6.379204	0.406337	-0.833131	0.096579	-1.721112	-83.101449	17.586586	-19.933273
12056		-0.499610	-6.663405	0.420775	-0.802942	0.102104	-1.731470	-83.611020	16.607014	-20.115552
12057		-0.432733	-6.697731	0.307950	-0.733471	0.138203	-1.716279	-84.081655	15.634883	-20.309130
12058		-0.136945	-6.452286	0.282127	-0.689847	0.224371	-1.670952	-84.533603	14.694004	-20.541423
12059		-0.092022	-6.654268	0.206315	-0.711451	0.322238	-1.620672	-85.006476	13.783083	-20.820295
12060		-0.218743	-7.486688	0.277263	-0.721246	0.414421	-1.598463	-85.490037	12.889060	-21.142795
12061		-0.520185	-8.243823	0.382157	-0.682198	0.496219	-1.642091	-85.955907	11.968881	-21.506789
12062		-1.038293	-8.768267	0.521602	-0.632921	0.569109	-1.695020	-86.394073	11.020610	-21.906224
12063		-1.597133	-8.863274	0.669705	-0.603207	0.608957	-1.749161	-86.812427	10.037612	-22.322650
12064		-2.191475	-9.030483	0.903425	-0.595931	0.623069	-1.771125	-87.218806	9.041763	-22.739022
12065		-2.670110	-9.344474	1.030017	-0.561443	0.610803	-1.759532	-87.596727	8.047252	-23.140370
12066		-2.947340	-9.862034	1.122511	-0.486558	0.592908	-1.718137	-87.921769	7.075820	-23.522897
12067		-3.093961	-10.177945	1.189361	-0.381605	0.585948	-1.657531	-88.179740	6.134939	-23.894837
12068		-3.315752	-10.300123	1.269615	-0.300942	0.573021	-1.610120	-88.383595	5.221608	-24.253681
12069		-3.530378	-10.327458	1.357781	-0.263334	0.525295	-1.568931	-88.558212	4.327998	-24.581259
12070		-3.741687	-10.499867	1.402375	-0.254859	0.455733	-1.525730	-88.719422	3.459203	-24.864968
12071		-3.885970	-10.698772	1.418482	-0.216996	0.401902	-1.454320	-88.853402	2.628148	-25.114730
12072		-4.031448	-10.638108	1.403802	-0.126544	0.361927	-1.333750	-88.930591	1.867047	-25.338251
12073		-4.220519	-10.696710	1.414367	-0.009413	0.331282	-1.149187	-88.937756	1.209618	-25.541845
12074		-4.248240	-10.818944	1.337048	0.145913	0.313592	-0.950203	-88.853206	0.667686	-25.733250
12075		-4.354105	-11.023636	1.367582	0.283387	0.302574	-0.780732	-88.688494	0.221800	-25.917628
12076		-4.373686	-10.964864	1.390553	0.330292	0.274874	-0.722712	-88.495214	-0.189352	-26.086496
12077		-4.290878	-10.676573	1.285002	0.234372	0.231584	-0.781500	-88.356026	-0.635405	-26.232856
12078		-4.155359	-10.116709	1.207139	0.092680	0.185274	-0.828032	-88.296998	-1.107588	-26.354088
12079		-4.038467	-9.554018	1.049053	-0.019072	0.149929	-0.773235	-88.301686	-1.549701	-26.454502
12080		-3.982496	-9.288714	1.035592	-0.068060	0.119814	-0.627271	-88.334172	-1.907989	-26.534961
12081		-3.872058	-9.355965	0.927949	-0.046102	0.105430	-0.439736	-88.354176	-2.159650	-26.603993
12082		-3.697430	-9.286851	0.731965	0.031134	0.110514	-0.259646	-88.329570	-2.307580	-26.672897
12083		-3.443324	-8.805530	0.458069	0.093057	0.130405	-0.108652	-88.269075	-2.368892	-26.750773
12084		-3.251844	-8.132859	0.252251	0.094730	0.155438	0.062593	-88.207057	-2.331363	-26.840019
12085		-14.511306	-28.824427	0.341155	-0.676103	0.124018	1.086411	-88.588497	-1.708231	-26.894908
12086		-2.419141	4.382860	6.719362	3.450921	-0.183969	1.309999	-86.610313	-0.963809	-26.759394
12087		3.553693	-17.949389	-5.578419	1.327507	-0.292088	1.872000	-85.847267	0.094950	-26.523067
12088		0.457159	-9.708988	3.579043	0.509345	0.023139	1.401548	-85.550952	0.895711	-26.477365
12089		-5.512238	-12.690953	5.292112	0.501848	0.246444	1.080920	-85.261275	1.523763	-26.569747
12090		-3.498142	-11.444005	2.874359	0.182666	-0.048044	0.567795	-85.150966	1.844659	-26.516416
12091		-1.739213	-10.824771	1.067261	-0.040155	-0.104301	0.129934	-85.167578	1.913469	-26.451768
12092		-0.053575	-9.703719	0.487271	-0.197250	-0.043038	0.027320	-85.275688	1.926026	-26.427187
12093		0.114377	-9.886093	0.169560	-0.114934	-0.004589	0.072905	-85.337107	1.967141	-26.422351
12094		-0.021421	-9.600867	0.775698	0.040943	-0.003978	0.133228	-85.309315	2.042044	-26.415160
12095		-0.681007	-9.691228	1.300953	-0.046474	-0.046247	0.145901	-85.330530	2.122869	-26.383114
12096		-0.581059	-9.454476	1.311080	-0.153111	-0.054315	0.114247	-85.412857	2.184611	-26.348095
12097		-0.464370	-9.965404	0.595514	-0.206837	-0.045784	0.096193	-85.525955	2.237161	-26.318778
12098		-0.467235	-10.121955	0.489820	-0.140094	-0.034517	0.068687	-85.601295	2.273872	-26.297303
12099		-0.454372	-9.863680	0.704400	-0.077840	-0.032422	0.055855	-85.640840	2.304040	-26.277522
12100		-0.475558	-9.794092	0.734621	-0.075055	-0.037553	0.051898	-85.678854	2.331064	-26.255102
12101		-0.457357	-9.830022	0.724215	-0.070674	-0.036954	0.041939	-85.714197	2.353113	-26.233365
12102		-0.439921	-9.848586	0.697112	-0.065795	-0.028713	0.033476	-85.747130	2.370015	-26.216819
12103		-0.434632	-9.780192	0.725637	-0.054096	-0.020396	0.027945	-85.773382	2.384791	-26.205168
12104		-0.429037	-9.763739	0.771261	-0.064164	-0.020982	0.026657	-85.805570	2.398140	-26.193347
12105		-0.453896	-9.728525	0.768077	-0.076054	-0.024937	0.025731	-85.844292	2.411473	-26.179207
12106		-0.388956	-9.732103	0.715856	-0.084268	-0.030521	0.032193	-85.887753	2.427606	-26.161718
12107		-0.251380	-9.704640	0.652869	-0.086834	-0.043928	0.056600	-85.932124	2.457822	-26.135472
12108		-0.292355	-9.806776	0.614409	-0.063716	-0.052458	0.089771	-85.963148	2.506000	-26.103123
12109		-0.448071	-9.834074	0.630239	-0.039594	-0.051331	0.103702	-85.980145	2.562854	-26.070776
12110		-0.494377	-9.797885	0.702137	-0.039846	-0.051555	0.100307	-85.997436	2.617113	-26.038553
12111		-0.500357	-9.780678	0.715683	-0.040044	-0.052373	0.098320	-86.014615	2.670866	-26.005854
12112		-0.423393	-9.664423	0.752999	-0.051575	-0.052673	0.100570	-86.038537	2.725252	-25.973014
12113		-0.504077	-9.850122	0.667239	-0.077413	-0.075679	0.107432	-86.076405	2.783321	-25.926665
12114		-0.504664	-9.849578	0.556147	-0.032910	-0.071090	0.098309	-86.089060	2.835726	-25.883424
12115		-0.463736	-9.921441	0.580672	-0.011804	-0.059710	0.080206	-86.089767	2.878880	-25.847306
12116		-0.643447	-9.431389	1.066484	-0.033162	-0.066106	0.090470	-86.102656	2.927008	-25.807232
12117		-0.445937	-10.076853	0.373906	-0.069806	-0.084099	0.106768	-86.135752	2.984419	-25.756144
12118		-0.402532	-9.975854	0.365582	0.021706	-0.092468	0.117447	-86.116277	3.046970	-25.699955
12119		-0.400078	-9.839517	0.581369	0.092617	-0.102016	0.145526	-86.055579	3.125795	-25.637049
12120		-0.596392	-9.827683	0.689375	0.107713	-0.103455	0.150626	-85.986251	3.206770	-25.573126
12121		-0.720710	-9.887792	0.647041	0.115683	-0.087153	0.130422	-85.912673	3.277408	-25.519146
12122		-0.574896	-9.654831	0.778365	0.117812	-0.083157	0.108725	-85.838160	3.335112	-25.468357
12123		-0.743392	-9.781239	0.776591	0.089177	-0.084701	0.104920	-85.779789	3.391150	-25.416671
12124		-0.665067	-9.699240	0.826790	0.104145	-0.068024	0.062816	-85.713641	3.423151	-25.376363
12125		-0.626958	-9.700997	0.793458	0.057800	-0.074698	0.046379	-85.673665	3.446073	-25.332810
12126		-0.650572	-9.681694	0.819733	0.044267	-0.067514	0.035314	-85.641878	3.462321	-25.293938
12127		-0.557442	-9.687733	0.808199	0.022427	-0.076799	0.041136	-85.622076	3.482109	-25.249386
12128		-0.565569	-9.790615	0.671027	0.033966	-0.080380	0.043877	-85.595692	3.502652	-25.202758
12129		-0.429679	-9.817016	0.636103	0.062834	-0.085633	0.059733	-85.552342	3.532621	-25.152306
12130		-0.457198	-9.953112	0.577635	0.126259	-0.087275	0.093099	-85.472642	3.580893	-25.099484
12131		-0.666013	-9.816259	0.678950	0.176095	-0.094936	0.103259	-85.363863	3.635145	-25.041627
12132		-0.637301	-9.782179	0.761844	0.194206	-0.082063	0.089196	-85.245328	3.681240	-24.991790
12133		-0.717395	-9.686771	1.055203	0.178007	-0.067721	0.081299	-85.136422	3.724030	-24.950341
12134		-0.774057	-9.699326	0.921257	0.129554	-0.055159	0.063166	-85.055936	3.756402	-24.917000
12135		-0.777137	-9.715138	0.949907	0.099356	-0.038679	0.040474	-84.993254	3.777216	-24.894073
12136		-0.694889	-9.790095	0.909581	0.077553	-0.033190	0.030920	-84.943468	3.792214	-24.874848
12137		-0.718848	-9.752975	0.920416	0.066505	-0.020191	0.025408	-84.900341	3.805327	-24.863224
12138		-0.700954	-9.771354	0.904934	0.039581	-0.021086	0.020189	-84.872798	3.814792	-24.851450
12139		-0.737238	-9.837833	0.879675	0.040648	-0.023630	0.014104	-84.844386	3.821266	-24.838427
12140		-0.718938	-9.734182	0.950743	0.040739	-0.012723	0.003674	-84.816552	3.821727	-24.832281
12141		-0.724448	-9.733912	0.919340	0.012220	-0.010971	-0.003659	-84.804971	3.818711	-24.827415
12142		-0.714012	-9.716749	0.970515	-0.007526	-0.003886	-0.009381	-84.805173	3.812179	-24.827000
12143		-0.736457	-9.715169	0.972931	-0.024611	0.001172	-0.022735	-84.815219	3.798908	-24.830071
12144		-0.686128	-9.719350	0.961784	-0.041061	0.004963	-0.025056	-84.835024	3.783889	-24.835527
12145		-0.657030	-9.687410	0.952600	-0.057202	0.014156	-0.028487	-84.864245	3.768001	-24.846310
12146		-0.642622	-9.741568	0.891870	-0.069219	0.008358	-0.028418	-84.900318	3.751232	-24.853864
12147		-0.604609	-9.797457	0.826816	-0.063796	0.005484	-0.018361	-84.932951	3.740667	-24.859154
12148		-0.662810	-9.741155	0.883228	-0.059963	0.011004	-0.016338	-84.963775	3.730917	-24.867591
12149		-0.683577	-9.757292	0.898358	-0.061911	0.011412	-0.021011	-84.995556	3.719127	-24.876393
12150		-0.693194	-9.704832	0.946400	-0.072134	0.012713	-0.026423	-85.033445	3.703696	-24.886300
12151		-0.644287	-9.692052	0.913279	-0.092022	0.012029	-0.025381	-85.082507	3.689430	-24.895655
12152		-0.600492	-9.748193	0.879157	-0.101913	0.012389	-0.024571	-85.137433	3.675023	-24.905259
12153		-0.648958	-9.780187	0.876509	-0.116418	0.015157	-0.020795	-85.200564	3.663504	-24.916154
12154		-0.652502	-9.781092	0.830619	-0.123274	0.015161	-0.023650	-85.267821	3.649735	-24.927269
12155		-0.610499	-9.819829	0.776901	-0.116786	0.009738	-0.019696	-85.330956	3.638562	-24.934984
12156		-0.640945	-9.853126	0.735964	-0.103208	0.010305	-0.015381	-85.386509	3.629266	-24.942906
12157		-0.656923	-9.800759	0.747184	-0.093622	0.007131	-0.017341	-85.436271	3.619300	-24.948998
12158		-0.675103	-9.782808	0.759516	-0.082435	0.004492	-0.020847	-85.479724	3.606605	-24.953825
12159		-0.692778	-9.764888	0.772410	-0.082715	0.007455	-0.027889	-85.523277	3.590618	-24.960560
12160		-0.598634	-9.841403	0.748545	-0.077863	0.011060	-0.033344	-85.564376	3.571069	-24.969685
12161		-0.622687	-9.805541	0.710886	-0.075821	0.015224	-0.031733	-85.604261	3.553218	-24.981013
12162		-0.561285	-9.844642	0.624228	-0.055976	0.010748	-0.028292	-85.632789	3.536530	-24.989711
12163		-0.563977	-9.810461	0.727036	-0.013717	0.012195	-0.018882	-85.636949	3.525874	-24.998727
12164		-0.580229	-9.757620	0.746275	-0.024991	0.009618	-0.010902	-85.647633	3.519067	-25.006013
12165		-0.603653	-9.756159	0.747991	-0.019509	0.009287	-0.003101	-85.654967	3.517293	-25.012675
12166		-0.653504	-9.787463	0.753723	-0.020265	0.006038	-0.011061	-85.662816	3.510238	-25.017916
12167		-0.668299	-9.752170	0.789702	-0.023778	0.008532	-0.016424	-85.672604	3.500815	-25.024724
12168		-0.594439	-9.757468	0.775257	-0.029022	0.009081	-0.020828	-85.685601	3.488310	-25.032127
12169		-0.622009	-9.755648	0.741580	-0.042190	0.012129	-0.021988	-85.706073	3.475859	-25.041228
12170		-0.662035	-9.753408	0.779624	-0.036487	0.007252	-0.031069	-85.723307	3.457420	-25.048015
12171		-0.622873	-9.704852	0.822617	-0.055040	0.009437	-0.037215	-85.751081	3.436147	-25.056217
12172		-0.599318	-9.724136	0.795244	-0.072981	0.013455	-0.035981	-85.789442	3.415156	-25.066744
12173		-0.532810	-9.815599	0.757617	-0.092659	0.009719	-0.027922	-85.838745	3.399192	-25.074689
12174		-0.561517	-9.899480	0.594415	-0.091923	0.007149	-0.014089	-85.887684	3.390434	-25.080666
12175		-0.572671	-9.847788	0.642308	-0.061824	0.004583	-0.008878	-85.919100	3.385126	-25.084865
12176		-0.641448	-9.808973	0.649215	-0.044075	-0.000233	-0.012107	-85.940369	3.377193	-25.086525
12177		-0.588260	-9.795631	0.654498	-0.039206	-0.002401	-0.011688	-85.958600	3.369991	-25.086834
12178		-0.535202	-9.782215	0.660694	-0.025759	-0.002625	-0.009361	-85.969286	3.363531	-25.087008
12179		-0.590710	-9.812895	0.632364	-0.010119	-0.003088	0.001036	-85.970801	3.363568	-25.086407
12180		-0.676918	-9.790586	0.698379	-0.010610	0.002308	-0.011616	-85.972978	3.356018	-25.089496
12181		-0.569936	-9.780923	0.733374	-0.001293	-0.003038	-0.016174	-85.969480	3.346221	-25.089618
12182		-0.590174	-9.745013	0.737429	-0.004832	-0.008948	-0.013450	-85.967975	3.337169	-25.086337
12183		-0.496868	-9.768247	0.703736	-0.010872	-0.006315	-0.006935	-85.969833	3.332518	-25.084211
12184		-0.519073	-9.784330	0.724005	-0.000102	-0.004611	0.003043	-85.965724	3.333068	-25.082747
12185		-0.575025	-9.762814	0.680687	-0.006244	-0.006590	0.012601	-85.964875	3.339564	-25.079678
12186		-0.606099	-9.812506	0.666729	0.000164	-0.001799	0.004217	-85.960704	3.340898	-25.079776
12187		-0.600232	-9.761169	0.684703	0.006344	-0.008836	0.004143	-85.952589	3.342467	-25.075762
12188		-0.577093	-9.814720	0.698038	0.009323	-0.011156	0.001294	-85.942865	3.341751	-25.070622
12189		-0.578808	-9.797032	0.682342	0.012892	-0.008451	0.002200	-85.931016	3.342222	-25.066907
12190		-0.551113	-9.781638	0.697102	0.016304	-0.009758	0.004742	-85.917331	3.343532	-25.062427
12191		-0.587916	-9.727806	0.757999	0.009888	-0.008737	0.007273	-85.907183	3.346885	-25.058342
12192		-0.500462	-9.767722	0.708455	0.003315	-0.011726	0.011442	-85.900858	3.351942	-25.052460
12193		-0.536640	-9.834146	0.678205	0.007891	-0.011398	0.029571	-85.891709	3.367924	-25.045936
12194		-0.601186	-9.863686	0.618711	0.013434	-0.006536	0.032920	-85.879705	3.385466	-25.042139
12195		-0.604203	-9.863350	0.621129	0.034701	-0.008051	0.029176	-85.855310	3.401352	-25.037539
12196		-0.611280	-9.776978	0.715488	0.052826	-0.011258	0.029919	-85.820580	3.416980	-25.031150
12197		-0.599608	-9.691410	0.772213	0.043917	-0.015411	0.025439	-85.790662	3.430416	-25.022476
12198		-0.496398	-9.784136	0.704394	0.034011	-0.020885	0.032110	-85.766372	3.446883	-25.010466
12199		-0.521277	-9.817104	0.746449	0.052159	-0.019376	0.053142	-85.731516	3.475966	-24.998333
12200		-0.554212	-9.779658	0.721575	0.046386	-0.019718	0.066694	-85.700073	3.512230	-24.985490
12201		-0.580857	-9.760357	0.747540	0.049885	-0.022224	0.072053	-85.666353	3.551974	-24.970876
12202		-0.614173	-9.792328	0.756029	0.045308	-0.014636	0.070579	-85.635678	3.590664	-24.960730
12203		-0.686553	-9.838149	0.683990	0.064534	-0.020961	0.066618	-85.593603	3.627337	-24.947030
12204		-0.640724	-9.823750	0.700364	0.078856	-0.027716	0.064474	-85.543232	3.661946	-24.929612
12205		-0.629119	-9.772530	0.794356	0.092265	-0.027979	0.066790	-85.484994	3.698378	-24.911821
12206		-0.665133	-9.769069	0.773166	0.085782	-0.026337	0.067921	-85.430669	3.734984	-24.894967
12207		-0.643586	-9.701303	0.917349	0.069016	-0.022760	0.062245	-85.385933	3.769025	-24.880306
12208		-0.627898	-9.788182	0.796202	0.057617	-0.024119	0.067428	-85.347806	3.805425	-24.864684
12209		-0.672726	-9.818810	0.738589	0.073298	-0.022613	0.076979	-85.300551	3.847862	-24.849367
12210		-0.624129	-9.787391	0.772996	0.093024	-0.032342	0.084876	-85.241737	3.893811	-24.828151
12211		-0.660834	-9.801121	0.770548	0.118005	-0.040046	0.094937	-85.168098	3.945630	-24.801907
12212		-0.725261	-9.725824	0.862506	0.118716	-0.033605	0.099249	-85.094419	3.999672	-24.779152
12213		-0.760884	-9.756639	0.877897	0.107917	-0.035306	0.089308	-85.026714	4.048444	-24.755766
12214		-0.775933	-9.737369	0.837038	0.097221	-0.035005	0.078535	-84.965320	4.090539	-24.733118
12215		-0.788185	-9.804810	0.847199	0.099358	-0.037466	0.064098	-84.902480	4.124764	-24.709664
12216		-0.679351	-9.760555	0.925739	0.097726	-0.031635	0.058336	-84.840977	4.155455	-24.689887
12217		-0.694038	-9.793408	0.901066	0.085855	-0.024763	0.071938	-84.786340	4.194761	-24.673221
12218		-0.697196	-9.896930	0.837932	0.079982	-0.017444	0.075367	-84.735503	4.235874	-24.660609
12219		-0.664823	-9.951168	0.822454	0.104528	-0.018196	0.096650	-84.670321	4.289589	-24.646313
12220		-0.665068	-9.863593	0.850166	0.124561	-0.011339	0.116407	-84.594009	4.354412	-24.634892
12221		-0.729827	-9.874514	0.854301	0.134217	-0.010871	0.137529	-84.511929	4.431796	-24.622414
12222		-0.692999	-9.842158	0.859939	0.151576	-0.011242	0.151168	-84.419947	4.516415	-24.608932
12223		-0.722894	-9.820282	0.930725	0.170378	-0.003843	0.177859	-84.317236	4.617144	-24.597948
12224		-0.776534	-9.533442	1.162714	0.148855	-0.005455	0.181935	-84.226869	4.719588	-24.585720
12225		-0.720137	-9.642885	1.092016	0.101186	0.005477	0.201108	-84.164064	4.834071	-24.578410
12226		-0.655520	-9.664564	1.173802	0.077821	0.016196	0.211980	-84.115235	4.954878	-24.576561
12227		-0.486897	-9.767455	1.199870	0.047588	0.055482	0.259788	-84.085285	5.105726	-24.594201
12228		-0.706971	-10.065086	0.851155	0.040588	0.074031	0.337400	-84.060092	5.301428	-24.617854
12229		-0.789944	-9.828462	1.020035	0.045752	0.074887	0.370611	-84.031724	5.516581	-24.639856
12230		-0.683491	-9.963714	0.947343	0.049294	0.087108	0.416864	-84.001971	5.758369	-24.666054
12231		-0.806045	-10.234530	0.686366	0.086208	0.102022	0.493744	-83.951424	6.045324	-24.695918
12232		-0.955200	-10.146016	0.818259	0.154407	0.107359	0.558382	-83.861976	6.369019	-24.724623
12233		-0.847526	-10.105394	0.930403	0.211853	0.115055	0.639652	-83.739518	6.739967	-24.752021
12234		-1.095509	-9.965260	1.119258	0.211500	0.141909	0.695548	-83.618914	7.144064	-24.790578
12235		-0.930550	-10.070270	1.326204	0.175186	0.160462	0.748297	-83.520108	7.579874	-24.835555
12236		-0.786403	-10.692059	1.167630	0.149392	0.198417	0.844783	-83.438583	8.072732	-24.895435
12237		-1.228207	-10.705356	1.567460	0.142786	0.233254	0.944112	-83.363121	8.624882	-24.968072
12238		-1.044837	-10.803825	1.170927	0.196497	0.253183	1.034911	-83.258446	9.229761	-25.045355
12239		-1.491892	-10.879214	0.957619	0.149743	0.237643	1.135608	-83.178494	9.891353	-25.105852
12240		-1.438802	-10.987157	1.361087	0.126641	0.205268	1.238627	-83.107887	10.609062	-25.139779
12241		-1.111867	-11.193208	1.145952	0.131829	0.211391	1.381333	-83.033226	11.408724	-25.166302
12242		-1.537736	-10.707173	1.248410	0.154552	0.223804	1.514885	-82.945346	12.284916	-25.189475
12243		-1.735374	-10.511671	1.316904	0.148663	0.224458	1.613374	-82.859310	13.217454	-25.204545
12244		-1.703915	-10.460996	1.332897	0.130822	0.218509	1.716483	-82.780915	14.207932	-25.207268
12245		-1.734262	-10.847956	1.303532	0.138218	0.220069	1.849305	-82.695550	15.274239	-25.199464
12246		-2.096538	-10.589440	1.232600	0.173564	0.228596	1.998753	-82.587640	16.425857	-25.183432
12247		-2.258644	-10.311079	1.135154	0.190705	0.201495	2.136675	-82.460860	17.653935	-25.137943
12248		-1.966078	-11.040467	1.064127	0.244088	0.175490	2.312986	-82.292157	18.979883	-25.059159
12249		-2.375597	-10.699265	1.396511	0.456484	0.207388	2.498705	-81.999011	20.413514	-24.977804
12250		-3.691996	-10.391722	1.242824	0.444401	0.194201	2.572395	-81.702602	21.887369	-24.873359
12251		-3.566982	-10.890967	1.579848	0.420090	0.115360	2.558106	-81.395802	23.345991	-24.712314
12252		-3.102800	-11.677736	1.991514	0.610864	0.164219	2.526517	-80.984819	24.790018	-24.572847
12253		-4.652295	-8.947322	2.399211	0.478129	0.298610	2.516462	-80.678311	26.239749	-24.506971
12254		-3.904062	-8.705112	1.253945	0.172792	0.235704	2.527163	-80.523403	27.689445	-24.392704
12255		-4.176745	-9.845940	1.723112	0.218296	0.262768	2.460499	-80.348506	29.103694	-24.296771
12256		-3.820845	-9.463296	2.080195	0.234690	0.307186	2.452072	-80.173968	30.517284	-24.224401
12257		-4.027637	-9.996339	2.311805	0.219495	0.372316	2.458896	-80.025376	31.940824	-24.188503
12258		-4.288060	-10.085569	2.098353	0.346949	0.452318	2.433404	-79.830651	33.358036	-24.203619
12259		-4.682651	-8.971108	2.076637	0.471236	0.522769	2.384344	-79.591609	34.754590	-24.266505
12260		-5.172462	-9.691367	2.209893	0.445225	0.555470	2.255061	-79.388348	36.082170	-24.363004
12261		-4.834466	-9.543710	2.124274	0.574160	0.616343	2.132415	-79.145192	37.347172	-24.513723
12262		-4.799860	-8.374520	1.738769	0.780266	0.707416	2.062758	-78.829418	38.583868	-24.733783
12263		-5.084051	-6.450802	1.428986	0.811147	0.742223	2.040823	-78.514238	39.812668	-24.977281
12264		-5.808302	-6.121740	0.974015	0.709953	0.714316	2.057784	-78.243782	41.049142	-25.193783
12265		-5.693595	-5.662843	0.392518	0.601619	0.678762	2.077149	-78.016885	42.292570	-25.377460
12266		-6.317067	-5.492894	0.118693	0.431827	0.599989	2.171146	-77.837397	43.580120	-25.483187
12267		-6.825529	-5.839312	-0.118031	0.223875	0.479793	2.308984	-77.694878	44.930099	-25.468870
12268		-8.070042	-5.965197	-0.070468	0.065842	0.352569	2.411462	-77.553531	46.322150	-25.329627
12269		-12.315362	-4.857572	1.450610	-0.006119	0.117861	2.614552	-77.274456	47.797803	-24.949346
12270		-14.632613	-4.563063	1.477028	-0.512667	-0.284991	2.670225	-77.000326	49.252221	-24.196920
12271		-12.255178	-5.134592	1.075576	-1.090328	-0.590679	2.245951	-76.887375	50.428596	-23.237142
12272		-10.583527	-6.629235	0.738233	-1.494603	-0.767305	1.464005	-76.984178	51.145551	-22.262111
12273		-10.218217	-8.503606	1.428199	-1.467274	-0.853886	0.588741	-77.134168	51.364134	-21.381771
12274		-10.701596	-9.055050	2.232736	-1.119333	-0.902789	-0.088097	-77.158161	51.199056	-20.595778
12275		-11.458206	-7.877877	2.670060	-0.683869	-0.964369	-0.465233	-76.956205	50.814863	-19.837058
12276		-11.485660	-5.935157	2.783108	-0.397091	-1.039606	-0.477552	-76.551556	50.411250	-19.024412
12277		-11.459874	-4.212928	2.570050	-0.290620	-1.103699	-0.192256	-76.007504	50.153708	-18.106019
12278		-11.290871	-3.460368	2.106489	-0.296692	-1.141689	0.311211	-75.362669	50.163990	-17.050130
12279		-11.170029	-3.417522	1.701409	-0.317220	-1.120064	0.896918	-74.633968	50.493996	-15.872715
12280		-11.011079	-3.790442	1.323747	-0.350158	-1.030077	1.433341	-73.862157	51.123491	-14.623325
12281		-10.961138	-4.358098	0.993092	-0.381089	-0.887147	1.835936	-73.087098	51.987410	-13.360290
12282		-11.066884	-5.122103	1.008644	-0.421436	-0.711779	2.079064	-72.357982	53.003124	-12.142022
12283		-11.100241	-6.060901	1.208867	-0.436087	-0.524018	2.172821	-71.698624	54.094914	-11.016821
12284		-11.133256	-6.941562	1.570611	-0.367592	-0.343693	2.165398	-71.086025	55.207298	-10.012593
12285		-11.281818	-7.674661	1.922022	-0.224240	-0.185122	2.070394	-70.491783	56.292892	-9.143207
12286		-11.383353	-8.095486	2.300068	-0.057817	-0.066894	1.902630	-69.903686	57.304978	-8.405696
12287		-11.660199	-8.420996	2.473089	0.114355	0.008814	1.667529	-69.315890	58.202579	-7.792981
12288		-11.619422	-8.301574	2.434239	0.282962	0.045704	1.434292	-68.710211	58.978656	-7.278073
12289		-11.615227	-7.719716	2.333735	0.378594	0.053848	1.267968	-68.088914	59.665715	-6.812599
12290		-11.360509	-7.224562	2.191126	0.389908	0.032739	1.190839	-67.447294	60.303847	-6.334333
12291		-11.123757	-6.565327	2.049643	0.319956	-0.002873	1.208099	-66.781404	60.941113	-5.785183
12292		-10.682047	-6.436520	2.002018	0.208985	-0.049383	1.277225	-66.079272	61.600043	-5.125703
12293		-10.287420	-6.630187	1.931386	0.102058	-0.098317	1.352426	-65.324782	62.283313	-4.341552
12294		-9.666921	-7.018841	1.997836	0.022742	-0.148550	1.400753	-64.504553	62.973649	-3.437208
12295		-9.328120	-7.856253	2.032345	0.000874	-0.184345	1.369741	-63.631475	63.633405	-2.465012
12296		-8.893225	-8.350726	2.084158	0.024751	-0.205978	1.194319	-62.771186	64.190589	-1.527486
12297		-8.264797	-8.678695	2.037702	0.069109	-0.194406	0.937834	-62.004878	64.615099	-0.726127
12298		-7.833806	-8.932741	2.143420	0.172784	-0.144440	0.680407	-61.358175	64.918653	-0.125165
12299		-7.382910	-8.791503	2.116487	0.279750	-0.079582	0.451950	-60.843197	65.123077	0.261724
12300		-6.753382	-8.369457	2.073863	0.355463	0.007359	0.248284	-60.496150	65.248810	0.415193
12301		-6.219742	-8.108246	2.017321	0.424882	0.082754	0.058698	-60.306175	65.300965	0.351939
12302		-5.898772	-7.655421	1.979842	0.515450	0.148724	-0.106605	-60.236933	65.289839	0.098577
12303		-5.340369	-6.923691	1.839423	0.614917	0.200548	-0.177159	-60.210966	65.258021	-0.265115
12304		-5.076307	-6.263889	1.807055	0.673342	0.237215	-0.148501	-60.172202	65.251417	-0.651730
12305		-5.112405	-5.896597	1.761011	0.688366	0.252387	-0.121941	-60.125927	65.261787	-1.039458
12306		-5.015309	-5.545847	1.827647	0.665717	0.257302	-0.158116	-60.119229	65.256335	-1.456556
12307		-4.800590	-5.194948	1.782789	0.591397	0.251944	-0.232015	-60.195853	65.211652	-1.918528
12308		-4.530862	-4.924642	1.895565	0.513344	0.221990	-0.334146	-60.344802	65.108132	-2.411272
12309		-4.110825	-4.775651	1.907725	0.409263	0.197220	-0.433471	-60.585010	64.946352	-2.939373
12310		-3.644163	-4.998290	1.811216	0.331739	0.182015	-0.561442	-60.922370	64.716268	-3.526643
12311		-3.134365	-5.189166	1.781914	0.306451	0.170862	-0.740064	-61.357757	64.390545	-4.207742
12312		-2.682316	-5.232032	1.542593	0.320170	0.152324	-0.965364	-61.875265	63.945024	-4.991043
12313		-2.396838	-5.113084	1.334899	0.348666	0.128830	-1.187316	-62.449511	63.376056	-5.859265
12314		-2.201482	-4.771087	1.145160	0.351206	0.110321	-1.363113	-63.060855	62.710202	-6.775449
12315		-1.994840	-4.230337	0.883733	0.336508	0.090514	-1.497843	-63.690517	61.964098	-7.708657
12316		-1.837553	-3.932671	0.744606	0.301744	0.082300	-1.601424	-64.337102	61.159505	-8.645203
12317		-1.834981	-3.762843	0.604811	0.214463	0.070929	-1.693434	-65.020161	60.297480	-9.573773
12318		-1.879633	-3.872136	0.502502	0.060155	0.050141	-1.848957	-65.787510	59.345673	-10.505989
12319		-1.876549	-4.222427	0.443753	-0.090647	0.030305	-2.066584	-66.653981	58.266563	-11.462915
12320		-1.740393	-4.377755	0.414193	-0.234784	0.010254	-2.310537	-67.607959	57.048495	-12.437604
12321		-1.533942	-4.497606	0.336265	-0.343457	0.009041	-2.534546	-68.625302	55.700075	-13.427846
12322		-1.592095	-4.679673	0.327439	-0.363512	0.049521	-2.679878	-69.650160	54.274755	-14.429745
12323		-1.908054	-4.585863	0.385154	-0.337488	0.098788	-2.736829	-70.635739	52.816084	-15.419604
12324		-2.391153	-4.686200	0.378909	-0.326217	0.144240	-2.756539	-71.577463	51.347875	-16.381483
12325		-2.758794	-4.892074	0.426062	-0.326183	0.172139	-2.782467	-72.476342	49.858625	-17.307936
12326		-2.874833	-5.086577	0.472746	-0.367465	0.179288	-2.828707	-73.347688	48.338905	-18.187500
12327		-2.813574	-5.538281	0.496494	-0.436930	0.167932	-2.929458	-74.210012	46.750731	-19.022269
12328		-2.965266	-5.904844	0.367656	-0.546543	0.147876	-3.100468	-75.090329	45.059329	-19.817554
12329		-3.425218	-5.964287	0.476588	-0.686294	0.086781	-3.269227	-75.982825	43.254391	-20.539812
12330		-3.885586	-6.078666	0.598854	-0.778903	-0.016786	-3.354289	-76.829206	41.383312	-21.140012
12331		-4.125845	-6.257093	0.748225	-0.779709	-0.155384	-3.334383	-77.560834	39.496923	-21.585130
12332		-4.167594	-6.629678	0.775609	-0.700096	-0.279215	-3.258390	-78.147561	37.637321	-21.889291
12333		-3.819009	-7.109595	0.709108	-0.583683	-0.353253	-3.174028	-78.605222	35.811463	-22.101775
12334		-3.265627	-7.726088	0.376483	-0.463974	-0.335473	-3.129562	-78.979642	34.014358	-22.298568
12335		-3.074170	-7.656553	0.204902	-0.367230	-0.239016	-3.144082	-79.321131	32.215456	-22.545384
12336		-3.424126	-7.158319	0.110144	-0.413400	-0.178951	-3.190335	-79.695908	30.398563	-22.818584
12337		-3.831512	-7.159826	-0.021720	-0.579673	-0.157524	-3.229610	-80.158290	28.556880	-23.090715
12338		-4.326081	-7.158509	0.266914	-0.751017	-0.151705	-3.233218	-80.701660	26.714838	-23.343166
12339		-4.822681	-7.800335	0.556059	-0.913758	-0.172943	-3.212595	-81.314403	24.877294	-23.556307
12340		-5.049159	-8.882940	0.736674	-0.924722	-0.157328	-3.153344	-81.918299	23.075826	-23.748496
12341		-5.001417	-9.541505	0.723509	-0.798599	-0.074680	-3.073248	-82.453579	21.321552	-23.963457
12342		-4.999230	-9.787720	0.575483	-0.594177	0.053739	-2.973077	-82.883058	19.635031	-24.229536
12343		-4.838012	-9.453485	0.306244	-0.384329	0.230936	-2.833733	-83.212304	18.035454	-24.578014
12344		-4.574798	-8.952441	0.118294	-0.244979	0.434497	-2.650322	-83.480796	16.555050	-25.022662
12345		-4.647257	-8.851807	0.034192	-0.180155	0.683434	-2.455906	-83.736348	15.196411	-25.592041
12346		-5.091514	-8.546465	0.163443	-0.189534	0.929100	-2.251415	-84.014730	13.969628	-26.282528
12347		-5.713259	-8.930955	0.482117	-0.248166	1.118860	-2.048638	-84.334486	12.863249	-27.062491
12348		-6.298821	-9.718143	0.846372	-0.235623	1.236937	-1.877191	-84.642950	11.859746	-27.891763
12349		-6.983967	-10.307167	1.223373	-0.152273	1.255535	-1.745279	-84.889830	10.926050	-28.717319
12350		-7.712172	-9.940070	1.598350	-0.045129	1.146682	-1.616022	-85.048111	10.060324	-29.466828
12351		-8.329196	-9.315391	1.952716	-0.044704	0.872014	-1.462000	-85.167401	9.265136	-30.045907
12352		-8.348539	-9.044930	2.234389	-0.127779	0.481391	-1.301037	-85.289519	8.544232	-30.388209
12353		-7.900681	-10.340350	2.476223	-0.232887	0.094056	-1.207534	-85.435361	7.856232	-30.500549
12354		-7.180540	-12.175113	2.222203	-0.214150	-0.150392	-1.273921	-85.550399	7.120819	-30.473076
12355		-6.743080	-12.218055	2.110275	-0.126915	-0.224570	-1.393546	-85.611727	6.312459	-30.407331
12356		-6.573051	-11.148835	1.981943	-0.094776	-0.213900	-1.451822	-85.656006	5.472711	-30.349456
12357		-6.726502	-10.086822	1.907789	-0.189747	-0.186626	-1.408006	-85.756988	4.658207	-30.304465
12358		-6.880441	-9.586649	1.950567	-0.289546	-0.197936	-1.270612	-85.914383	3.922883	-30.245355
12359		-6.872928	-9.685869	2.101827	-0.311547	-0.265451	-1.079157	-86.082292	3.293812	-30.137925
12360		-6.640664	-9.890777	2.274405	-0.214130	-0.383192	-0.877807	-86.191148	2.776205	-29.953794
12361		-6.209978	-9.688726	2.409196	-0.026805	-0.560079	-0.698634	-86.189482	2.354225	-29.661208
12362		-5.776979	-9.413270	2.446837	0.122271	-0.774555	-0.554955	-86.099349	2.006125	-29.240796
12363		-5.157502	-9.091164	2.240364	0.234869	-1.010979	-0.476228	-85.942725	1.692841	-28.682857
12364		-14.570286	-7.466450	-0.349842	0.300524	-0.716384	-0.351734	-85.755621	1.461127	-28.289213
12365		-5.827195	-9.538699	3.469452	-0.115512	-0.917741	-0.018472	-85.804628	1.411625	-27.766603
12366		-7.858682	-13.609944	-1.821241	-0.296334	-0.268909	-0.873576	-85.967983	0.900336	-27.650107
12367		-2.755750	-3.629241	1.499486	-0.029170	-0.500836	-0.378312	-85.976926	0.664130	-27.380160
12368		-6.194030	-0.633870	2.185990	-0.097334	-0.783465	0.787639	-86.021328	1.081990	-26.902117
12369		-2.772354	-10.807936	5.777106	-0.122374	-1.039065	1.246129	-86.071335	1.753686	-26.259847
12370		14.341734	-49.497104	-10.444964	-0.783738	-2.215072	0.488179	-86.474834	1.949300	-24.975832
12371		-0.854304	-0.788065	13.117126	1.677681	1.380099	-0.940697	-85.534284	1.466732	-25.803662
12372		4.064597	-4.821121	1.678694	-0.113664	-0.201118	-0.002010	-85.592431	1.455672	-25.690132
12373		3.838367	-9.881166	-2.109235	-0.681529	-0.308087	0.547024	-85.972941	1.755164	-25.492173
12374		-1.745411	-10.641769	0.185603	0.271503	-0.021552	0.307000	-85.812539	1.928721	-25.468544
12375		-0.102530	-10.869115	0.062372	-0.181203	-0.128189	0.351735	-85.908976	2.124229	-25.381892
12376		-0.068261	-9.341783	1.381161	0.054348	-0.067461	0.406959	-85.871645	2.353026	-25.327885
12377		-0.403333	-10.001937	0.606101	-0.050818	-0.104681	0.555465	-85.892869	2.665939	-25.246335
12378		-1.445902	-11.207460	0.004856	0.062824	-0.135113	0.457554	-85.848166	2.920839	-25.151430
12379		-0.601884	-9.563673	0.984641	0.197128	-0.079304	0.356758	-85.727808	3.121170	-25.092214
12380		-0.917281	-9.573962	0.945329	0.157283	-0.079951	0.317754	-85.630351	3.298261	-25.034029
12381		-1.045783	-9.545038	0.924121	0.094901	-0.082095	0.219733	-85.568418	3.420010	-24.978573
12382		-1.244680	-9.530116	1.000068	0.066328	-0.042820	0.061954	-85.524776	3.452498	-24.952614
12383		-0.944630	-9.379897	1.094785	-0.018844	-0.022013	-0.054654	-85.530713	3.420165	-24.943660
12384		-0.818290	-9.474357	0.944790	-0.080297	-0.002781	-0.140308	-85.572988	3.338896	-24.949621
12385		-0.788569	-9.426488	0.987093	-0.118711	0.012421	-0.224322	-85.637700	3.211180	-24.967788
12386		-0.503720	-9.603546	0.973932	-0.203596	0.027797	-0.258196	-85.751820	3.063857	-24.996119
12387		-0.345879	-9.954546	0.569423	-0.215499	0.024118	-0.232193	-85.872225	2.932073	-25.020843
12388		-0.395832	-10.501176	0.332975	-0.205436	0.044078	-0.179325	-85.987549	2.830374	-25.054668
12389		-0.526710	-10.249302	0.248915	-0.028851	0.032591	-0.125618	-86.000954	2.759752	-25.079543
12390		-0.587845	-9.822294	0.679643	0.052188	0.038131	-0.139251	-85.968332	2.680687	-25.108252
12391		-0.498856	-9.506033	1.010096	-0.042836	0.027910	-0.151584	-85.989624	2.595046	-25.131508
12392		-0.462733	-9.829582	0.656553	-0.089678	0.033400	-0.157397	-86.038110	2.505406	-25.158190
12393		-0.417676	-9.833153	0.678753	-0.062608	0.039714	-0.156692	-86.070943	2.417282	-25.188285
12394		-0.288006	-9.703431	0.726842	-0.068878	0.028366	-0.141085	-86.107281	2.336734	-25.211328
12395		-0.298093	-9.905391	0.507042	-0.064238	0.005635	-0.104517	-86.140094	2.277073	-25.219795
12396		-0.273400	-9.839250	0.572538	-0.021146	0.007159	-0.087080	-86.148471	2.226560	-25.228543
12397		-0.198376	-9.671726	0.635265	-0.005710	-0.012629	-0.043393	-86.147250	2.201125	-25.224182
12398		-0.276890	-9.788431	0.628243	0.015822	-0.030320	-0.009276	-86.133501	2.193644	-25.208489
12399		-0.343187	-9.549460	0.894134	0.002742	-0.039091	0.001279	-86.126796	2.192710	-25.187272
12400		-0.267372	-9.668429	0.647383	-0.043662	-0.042644	0.008278	-86.146833	2.194787	-25.163851
12401		-0.528401	-9.726308	0.723549	-0.001512	-0.023238	-0.023265	-86.142942	2.180432	-25.152651
12402		-0.273564	-9.635497	0.717238	-0.022634	-0.014441	-0.044551	-86.151629	2.153398	-25.147401
12403		-0.414575	-9.715908	0.755107	-0.020685	-0.004418	-0.048715	-86.159166	2.125220	-25.147945
12404		-0.460778	-9.967278	0.524082	-0.048600	-0.021878	-0.050777	-86.182588	2.094345	-25.138668
12405		-0.495938	-9.883575	0.689692	0.002930	0.002766	-0.072461	-86.176777	2.052868	-25.144215
12406		-0.476829	-9.834150	0.740220	-0.039898	0.000738	-0.085054	-86.195729	2.003261	-25.149175
12407		-0.330757	-9.787657	0.659955	-0.071694	-0.003407	-0.082717	-86.232553	1.955692	-25.151554
12408		-0.131801	-9.744187	0.603265	-0.082863	-0.019331	-0.063700	-86.275698	1.917537	-25.144174
12409		-0.253168	-9.794733	0.739001	-0.061456	-0.014289	-0.028121	-86.306376	1.900767	-25.138240
12410		-0.256329	-9.572271	0.791821	-0.122398	-0.035864	-0.000997	-86.371786	1.897871	-25.119049
12411		-0.164660	-9.911794	0.398941	-0.148786	-0.047962	0.034232	-86.451775	1.915555	-25.091578
12412		-0.386266	-9.807371	0.674741	-0.094113	-0.040724	0.044796	-86.500821	1.938722	-25.067986
12413		-0.419077	-9.905717	0.525274	-0.116270	-0.047909	0.045081	-86.562153	1.962663	-25.040203
12414		-0.464107	-9.853092	0.543558	-0.067877	-0.027981	0.008180	-86.596447	1.965366	-25.025197
12415		-0.391987	-9.856450	0.524326	-0.065068	-0.016470	-0.007075	-86.629119	1.960586	-25.017205
12416		-0.341049	-9.824318	0.511439	-0.048935	-0.013122	-0.016918	-86.652880	1.949448	-25.011549
12417		-0.293508	-9.761026	0.608948	-0.003667	0.006741	-0.030207	-86.650855	1.932219	-25.017610
12418		-0.352759	-9.790758	0.546256	-0.038242	0.000338	-0.018563	-86.668755	1.920591	-25.019709
12419		-0.302660	-9.845342	0.550537	-0.009281	0.000891	-0.012254	-86.669812	1.913431	-25.021820
12420		-0.270819	-9.813469	0.579470	-0.031908	-0.013483	0.008335	-86.683787	1.916730	-25.015112
12421		-0.354216	-9.825627	0.537830	-0.027754	-0.022960	0.025599	-86.694929	1.930427	-25.002317
12422		-0.367409	-9.793309	0.607949	-0.042319	-0.025741	0.033902	-86.714601	1.947950	-24.987752
12423		-0.242230	-9.731095	0.617176	-0.079715	-0.036400	0.055625	-86.755208	1.978394	-24.966295
12424		-0.132823	-9.852577	0.459036	-0.105534	-0.063483	0.109382	-86.810240	2.037902	-24.927721
12425		-0.328392	-9.963763	0.424022	-0.091321	-0.073429	0.149077	-86.856581	2.120660	-24.882157
12426		-0.591943	-9.920818	0.532874	-0.075443	-0.055664	0.125504	-86.894426	2.189697	-24.847648
12427		-0.541102	-9.786650	0.556255	-0.081229	-0.050363	0.091468	-86.935464	2.240275	-24.817180
12428		-0.667109	-9.932953	0.476165	-0.052486	-0.042731	0.047318	-86.960485	2.265017	-24.792548
12429		-0.461964	-9.724748	0.601804	-0.069924	-0.021290	0.001226	-86.995788	2.264887	-24.781507
12430		-0.361438	-9.911460	0.375400	-0.044700	-0.011761	-0.004962	-87.017107	2.260668	-24.776200
12431		-0.350687	-9.897034	0.424062	-0.015862	-0.002147	-0.008054	-87.021882	2.255806	-24.776397
12432		-0.398369	-9.795834	0.541718	-0.018620	-0.001761	-0.000959	-87.028479	2.254177	-24.776696
12433		-0.362283	-9.847123	0.477866	-0.021871	-0.002308	0.000737	-87.036685	2.254337	-24.776538
12434		-0.382701	-9.829773	0.498167	-0.014524	-0.000751	0.007539	-87.040948	2.257599	-24.777164
12435		-0.391747	-9.763498	0.570589	-0.043361	-0.013009	0.012811	-87.061214	2.264349	-24.770522
12436		-0.441146	-9.860438	0.464894	-0.034555	-0.014912	0.019641	-87.076619	2.274121	-24.762685
12437		-0.468402	-9.794948	0.574955	-0.038668	-0.013275	0.008964	-87.094192	2.278666	-24.756008
12438		-0.470969	-9.777088	0.553527	-0.069640	-0.016472	0.001661	-87.129683	2.278111	-24.747804
12439		-0.468747	-9.894409	0.452512	-0.061349	-0.014018	-0.001271	-87.160241	2.276788	-24.740998
12440		-0.400705	-9.861606	0.401951	-0.041481	-0.013847	-0.004476	-87.179666	2.272803	-24.734470
12441		-0.406295	-9.912469	0.379070	-0.031618	-0.023406	0.000542	-87.192980	2.272259	-24.722234
12442		-0.436000	-10.008224	0.237779	0.013853	-0.008870	-0.008420	-87.180818	2.266159	-24.718667
12443		-0.432353	-9.927616	0.368854	0.065282	-0.001470	-0.021039	-87.139148	2.253882	-24.719606
12444		-0.372427	-9.862567	0.404812	0.090613	0.002160	-0.021479	-87.083271	2.240623	-24.722741
12445		-0.340465	-9.806325	0.291044	0.142716	-0.005558	-0.034151	-86.997167	2.220723	-24.721755
12446		-0.206232	-9.703564	0.588408	0.206249	0.028636	-0.040918	-86.875642	2.197163	-24.740685
12447		-0.154716	-9.319920	0.912320	0.102477	-0.008523	-0.010381	-86.812510	2.190756	-24.737323
12448		-0.385913	-9.579265	0.809546	0.085323	0.006712	0.014474	-86.759718	2.198228	-24.741984
12449		-0.371381	-9.612684	0.774717	0.016102	-0.004969	0.016605	-86.746096	2.207358	-24.739796
12450		-0.386780	-9.696309	0.719819	-0.029463	-0.012969	0.018441	-86.758634	2.216464	-24.733056
12451		-0.426774	-9.726578	0.650242	-0.069311	-0.012065	0.022063	-86.793770	2.228487	-24.726636
12452		-0.408395	-9.843803	0.510488	-0.081601	-0.008863	0.012747	-86.836278	2.234474	-24.722438
12453		-0.405566	-9.874477	0.396170	-0.055002	-0.002171	0.005172	-86.863454	2.237154	-24.722229
12454		-0.479309	-9.859149	0.528326	-0.045265	-0.000536	0.000080	-86.885344	2.236158	-24.723201
12455		-0.420730	-9.893627	0.441605	-0.039439	0.006144	-0.015871	-86.903821	2.227059	-24.728407
12456		-0.430832	-9.942839	0.385979	-0.011226	0.010788	-0.022807	-86.906486	2.213319	-24.736571
12457		-0.410470	-9.796580	0.583070	0.001925	0.009091	-0.024623	-86.901347	2.199303	-24.743733
12458		-0.366436	-9.797092	0.539844	-0.011354	0.006746	-0.021232	-86.903991	2.186340	-24.749535
12459		-0.359099	-9.746443	0.557588	-0.017281	0.005962	-0.011044	-86.909767	2.179995	-24.754485
12460		-0.333851	-9.800232	0.565750	-0.027237	0.003541	-0.007955	-86.921425	2.174527	-24.758039
12461		-0.351497	-9.847571	0.476702	-0.013303	0.002936	-0.000974	-86.924841	2.173845	-24.760945
12462		-0.428793	-9.895206	0.469764	-0.005368	0.005861	-0.008702	-86.924020	2.168020	-24.765850
12463		-0.389832	-9.911899	0.410008	0.019799	0.013393	-0.014113	-86.908716	2.160142	-24.775149
12464		-0.358630	-9.862073	0.428601	0.058079	0.011930	-0.016186	-86.871681	2.150228	-24.783764
12465		-0.389086	-9.794337	0.514317	0.068023	0.014351	-0.019271	-86.828780	2.139437	-24.793784
12466		-0.329734	-9.729001	0.548871	0.066303	0.009725	-0.016147	-86.786983	2.129487	-24.801150
12467		-0.308287	-9.699340	0.658363	0.063392	0.011354	-0.011842	-86.746662	2.122861	-24.809231
12468		-0.287765	-9.716465	0.641248	0.038547	-0.001297	0.001338	-86.720512	2.122563	-24.809729
12469		-0.358031	-9.731123	0.673712	0.024096	-0.000029	0.008088	-86.702434	2.126964	-24.810649
12470		-0.382651	-9.729952	0.679282	0.000359	-0.000459	0.004793	-86.698177	2.128670	-24.811513
12471		-0.403316	-9.759412	0.575477	-0.013120	-0.003585	0.006179	-86.701341	2.131860	-24.810460
12472		-0.397625	-9.761156	0.607973	-0.016725	-0.003672	0.003082	-86.706806	2.132482	-24.809542
12473		-0.399400	-9.795788	0.603713	-0.042472	-0.006242	-0.002668	-86.726740	2.130524	-24.807260
12474		-0.371233	-9.827489	0.488415	-0.025734	-0.005209	-0.003566	-86.737343	2.127293	-24.805679
12475		-0.316862	-9.831445	0.511242	-0.022266	-0.006522	-0.001075	-86.745693	2.126238	-24.803184
12476		-0.412687	-9.827275	0.527446	-0.005586	-0.007507	-0.001185	-86.744700	2.124295	-24.800210
12477		-0.358275	-9.831126	0.552483	0.002507	-0.008467	-0.003939	-86.738823	2.121535	-24.796695
12478		-0.239933	-9.818333	0.514794	0.007868	0.000900	-0.006941	-86.730307	2.116573	-24.798721
12479		-0.446785	-9.875311	0.480721	0.022724	0.003833	-0.011876	-86.713118	2.109669	-24.802509
12480		-0.359176	-9.514968	0.870962	0.007909	-0.007018	-0.000386	-86.704403	2.108196	-24.799789
12481		-0.259350	-9.602243	0.759219	-0.038679	-0.015320	0.009779	-86.721958	2.113051	-24.791905
12482		-0.272636	-9.797589	0.466558	-0.042993	-0.020795	0.022790	-86.742088	2.124387	-24.780541
12483		-0.311316	-9.799015	0.539549	-0.033192	-0.020810	0.040416	-86.756338	2.146584	-24.768522
12484		-0.419170	-9.728338	0.628495	-0.046959	-0.026734	0.040594	-86.778583	2.167920	-24.753189
12485		-0.406637	-9.814775	0.599004	-0.046832	-0.025337	0.041203	-86.800538	2.190427	-24.738568
12486		-0.464475	-9.810976	0.568675	-0.062292	-0.025937	0.037170	-86.831579	2.209843	-24.723818
12487		-0.429315	-9.880447	0.516854	-0.063037	-0.022360	0.025407	-86.862893	2.223424	-24.711422
12488		-0.453405	-9.845126	0.516981	-0.056645	-0.015358	0.016255	-86.890953	2.231220	-24.703402
12489		-0.410570	-9.863842	0.485001	-0.053776	-0.011697	0.007586	-86.917219	2.234949	-24.697675
12490		-0.403181	-9.831489	0.515462	-0.048998	-0.015230	0.007306	-86.940911	2.237636	-24.690011
12491		-0.381773	-9.814614	0.490816	-0.034128	-0.012301	0.002360	-86.955915	2.238360	-24.684100
12492		-0.411850	-9.864385	0.472714	-0.032330	-0.010941	0.002817	-86.970157	2.238614	-24.679030
