// General information: 
//  MT Manager version: 2022.2.0 
//  XDA version: 2022.2.0 build 7381 rev 124627 built on 2023-07-19
// Device information: 
//  DeviceId: 00B4BB4F
//  ProductCode: MTW2-3A7G6
//  Firmware Version: 4.6.0
//  Hardware Version: 2.0.0
// Device settings: 
//  Filter Profile: human(46.1)
//  Option Flags: Orientation Smoother Disabled, Position/Velocity Smoother Disabled, Continuous Zero Rotation Update Disabled, AHS Disabled, ICC Disabled
// Coordinate system: ENU
PacketCounter	SampleTimeFine	Acc_X	Acc_Y	Acc_Z	Gyr_X	Gyr_Y	Gyr_Z	Roll	Pitch	Yaw
11250		-0.362719	9.687482	1.475106	0.001408	-0.000183	0.046412	80.855261	2.146980	-58.485788
11251		-0.320381	9.636012	1.510673	-0.003298	0.004470	0.044690	80.854404	2.123643	-58.479671
11252		-0.333000	9.662104	1.466302	-0.008988	0.004649	0.043104	80.851743	2.100824	-58.473657
11253		-0.333486	9.661623	1.521766	-0.012993	0.002474	0.038468	80.845265	2.080825	-58.469234
11254		-0.321003	9.735112	1.469600	-0.013494	0.000242	0.038538	80.839905	2.060189	-58.466128
11255		-0.326178	9.661409	1.524701	-0.020912	0.001228	0.036400	80.828855	2.041247	-58.462594
11256		-0.335539	9.678466	1.514734	-0.017450	0.000289	0.031227	80.821197	2.024753	-58.460125
11257		-0.321865	9.629145	1.484269	-0.023888	0.005087	0.035232	80.808513	2.006825	-58.454508
11258		-0.316584	9.660807	1.530529	-0.017462	0.000299	0.031229	80.800839	1.990333	-58.452028
11259		-0.311390	9.619955	1.520748	-0.011346	0.000143	0.035427	80.795241	1.971844	-58.449187
11260		-0.318682	9.669031	1.554114	-0.007283	0.005205	0.031113	80.793483	1.955868	-58.443940
11261		-0.300916	9.620422	1.467836	-0.005659	0.000633	0.030737	80.791137	1.940077	-58.441249
11262		-0.295889	9.652299	1.512498	-0.002148	0.001239	0.029166	80.792228	1.924840	-58.438425
11263		-0.293437	9.652345	1.512683	-0.001737	0.000372	0.021892	80.792095	1.914028	-58.436694
11264		-0.300037	9.660733	1.534322	-0.005237	0.000434	0.017185	80.791354	1.905493	-58.435424
11265		-0.302173	9.669563	1.502028	-0.011732	0.003024	0.023868	80.785550	1.893806	-58.432010
11266		-0.308444	9.677857	1.524354	-0.009316	-0.004615	0.021500	80.782383	1.882369	-58.433201
11267		-0.304430	9.637024	1.514219	-0.012570	0.004541	0.022256	80.776120	1.871734	-58.429075
11268		-0.262390	9.626327	1.507252	-0.005244	0.000439	0.017186	80.775358	1.863202	-58.427801
11269		-0.301031	9.636931	1.515486	-0.003456	0.001847	0.015063	80.774245	1.856388	-58.425859
11270		-0.306376	9.604606	1.525689	0.001352	0.001617	0.011433	80.777258	1.851218	-58.424449
11271		-0.287888	9.660484	1.538215	0.006138	0.000725	0.014083	80.781619	1.844854	-58.423232
11272		-0.267534	9.675606	1.539649	-0.000876	0.000191	0.010948	80.783317	1.839829	-58.422674
11273		-0.289702	9.669525	1.504728	0.003473	-0.000723	0.010989	80.786115	1.835083	-58.422562
11274		-0.267636	9.643855	1.495269	-0.004624	0.007112	0.011770	80.785785	1.830227	-58.418012
11275		-0.275277	9.652283	1.516483	0.006450	-0.003917	0.005878	80.790216	1.828079	-58.420176
11276		-0.283232	9.660736	1.537495	-0.000355	0.003088	0.004601	80.792231	1.826907	-58.418560
11277		-0.287597	9.587714	1.536130	0.006117	-0.000169	0.004198	80.796534	1.826053	-58.418758
11278		-0.282513	9.660961	1.536215	0.014484	0.001750	0.002600	80.807010	1.825891	-58.418083
11279		-0.288912	9.628866	1.544831	0.016606	-0.000591	0.002157	80.817310	1.826152	-58.418706
11280		-0.282086	9.661504	1.532873	0.021453	0.000732	0.002132	80.831748	1.826163	-58.418650
11281		-0.269283	9.644552	1.542547	0.022783	0.001459	0.003679	80.845627	1.825750	-58.417974
11282		-0.294299	9.679560	1.516317	0.031000	-0.001946	-0.002450	80.865462	1.828108	-58.419850
11283		-0.298385	9.688850	1.480525	0.024172	0.004403	0.002551	80.880188	1.828601	-58.417611
11284		-0.287495	9.712636	1.501408	0.018720	-0.002925	0.001717	80.892974	1.828516	-58.419661
11285		-0.298030	9.689378	1.477141	0.008298	-0.000291	0.001080	80.898516	1.829415	-58.420212
11286		-0.297905	9.689453	1.476674	0.001331	0.000727	0.001547	80.901399	1.829759	-58.420211
11287		-0.285122	9.672199	1.488325	0.002265	0.002987	0.004089	80.903552	1.829252	-58.418634
11288		-0.291478	9.639890	1.498436	-0.001290	0.000832	0.002057	80.904932	1.829319	-58.418527
11289		-0.291262	9.639960	1.498032	0.009628	0.000435	0.002627	80.911253	1.829408	-58.418527
11290		-0.267747	9.646291	1.531908	0.009233	0.001970	0.003621	80.918679	1.828693	-58.417634
11291		-0.303202	9.657576	1.484191	0.013474	-0.002713	0.002738	80.927147	1.828435	-58.419406
11292		-0.262963	9.647068	1.475240	0.010586	0.003350	-0.001113	80.935351	1.830525	-58.418159
11293		-0.284159	9.672947	1.483639	0.010981	0.001816	-0.002107	80.942459	1.833417	-58.417804
11294		-0.268060	9.646918	1.527901	0.003540	0.001249	-0.007854	80.946561	1.839130	-58.418355
11295		-0.292235	9.640767	1.492637	0.006224	0.003356	-0.011042	80.950946	1.847216	-58.417933
11296		-0.286606	9.673222	1.481376	0.015849	0.003796	-0.008413	80.962136	1.853476	-58.417090
11297		-0.268397	9.688440	1.481702	0.011690	-0.004368	-0.011301	80.969510	1.861013	-58.421062
11298		-0.305397	9.690415	1.521630	0.008485	0.006347	-0.006954	80.976526	1.866675	-58.418641
11299		-0.301669	9.690900	1.466376	0.008714	-0.001169	-0.006194	80.982268	1.871611	-58.420342
11300		-0.306759	9.690612	1.520096	0.005658	-0.001090	-0.008294	80.987516	1.877365	-58.422250
11301		-0.309815	9.658697	1.475503	0.002207	0.000522	-0.009400	80.989552	1.884268	-58.423280
11302		-0.300115	9.682221	1.498077	0.005222	-0.001115	-0.010903	80.994532	1.891498	-58.425435
11303		-0.299405	9.641492	1.486519	0.004785	-0.001140	-0.013512	80.998001	1.900579	-58.427775
11304		-0.281799	9.656518	1.488061	-0.002554	0.002059	-0.018335	80.998556	1.912301	-58.428798
11305		-0.298915	9.632588	1.519519	0.003038	-0.001238	-0.023949	81.000990	1.927280	-58.432128
11306		-0.313809	9.649910	1.506778	0.015340	0.001320	-0.024508	81.011754	1.942429	-58.434121
11307		-0.301090	9.673900	1.474059	0.010099	0.001527	-0.023488	81.018286	1.957395	-58.435840
11308		-0.299363	9.665199	1.506070	0.013111	-0.000106	-0.024990	81.027735	1.972691	-58.438678
11309		-0.312199	9.641794	1.481924	0.012256	0.000752	-0.020325	81.035497	1.985798	-58.440550
11310		-0.328627	9.699915	1.479972	0.011361	0.000050	-0.019261	81.043955	1.997867	-58.442782
11311		-0.330300	9.700040	1.478783	0.013127	0.000806	-0.015106	81.052233	2.008026	-58.444154
11312		-0.331649	9.700124	1.477932	0.004378	0.000403	-0.012516	81.056710	2.016311	-58.445581
11313		-0.307932	9.665654	1.501413	0.000884	0.000453	-0.017225	81.057959	2.027638	-58.447340
11314		-0.319998	9.642103	1.478246	0.004377	0.000405	-0.012516	81.062426	2.035925	-58.448765
11315		-0.323078	9.682873	1.489061	0.000370	-0.002438	-0.010874	81.063342	2.043400	-58.451594
11316		-0.330625	9.650471	1.499571	-0.006097	0.000802	-0.010480	81.061814	2.050571	-58.452612
11317		-0.316709	9.674249	1.468486	-0.002588	0.001409	-0.012051	81.061109	2.059054	-58.453367
11318		-0.358066	9.684748	1.476414	-0.000862	0.000605	-0.011497	81.062566	2.066784	-58.454587
11319		-0.327245	9.682577	1.490071	-0.002207	-0.000779	-0.006764	81.062051	2.072080	-58.456110
11320		-0.331679	9.691265	1.457457	-0.008690	0.001804	-0.000090	81.059076	2.073463	-58.455634
11321		-0.340117	9.699619	1.479319	-0.003510	-0.000606	0.001571	81.057845	2.074057	-58.456317
11322		-0.325298	9.641572	1.480548	-0.004897	-0.003549	0.002704	81.056937	2.073383	-58.458625
11323		-0.309872	9.665430	1.449350	-0.001246	0.002386	0.005656	81.057078	2.071931	-58.457249
11324		-0.345911	9.667216	1.490190	0.002576	-0.001656	-0.004110	81.060463	2.075282	-58.459092
11325		-0.322466	9.682654	1.437486	-0.003907	0.000927	0.002564	81.059040	2.075451	-58.458818
11326		-0.299339	9.688930	1.472542	-0.001769	-0.000754	-0.004155	81.059948	2.078909	-58.460153
11327		-0.319044	9.673734	1.471368	-0.007883	-0.000604	-0.008354	81.056180	2.085121	-58.461720
11328		-0.338858	9.658478	1.470548	-0.009172	0.000224	-0.006299	81.052854	2.089878	-58.462692
11329		-0.341466	9.699102	1.482397	-0.007049	-0.002112	-0.006738	81.049537	2.095040	-58.464970
11330		-0.321029	9.673274	1.473960	-0.013122	-0.000405	-0.007336	81.043925	2.100330	-58.466391
11331		-0.340651	9.657934	1.473703	-0.015700	0.001250	-0.003225	81.035732	2.103804	-58.466452
11332		-0.317780	9.673169	1.422492	-0.016281	-0.004098	-0.010359	81.028217	2.110475	-58.470236
11333		-0.342231	9.657352	1.477146	-0.022754	-0.000857	-0.009962	81.015917	2.117573	-58.472094
11334		-0.345212	9.697755	1.490316	-0.020137	-0.000954	-0.010471	81.006254	2.124587	-58.474110
11335		-0.344075	9.656674	1.481147	-0.019699	-0.000930	-0.007862	80.995709	2.130490	-58.475823
11336		-0.321710	9.662649	1.517780	-0.018413	-0.001755	-0.009917	80.987012	2.137120	-58.478246
11337		-0.314263	9.653933	1.498297	-0.018855	-0.001775	-0.012525	80.976917	2.145585	-58.480858
11338		-0.368123	9.681336	1.496188	-0.021037	-0.001653	-0.009407	80.966711	2.151933	-58.483178
11339		-0.343766	9.646535	1.521776	-0.018816	-0.000218	-0.008922	80.956683	2.158498	-58.484588
11340		-0.310675	9.685312	1.493842	-0.019258	-0.000237	-0.011530	80.947511	2.166177	-58.486300
11341		-0.358159	9.663157	1.513444	-0.014920	-0.001805	-0.005208	80.939692	2.170497	-58.488275
11342		-0.341677	9.646169	1.472254	-0.014029	-0.001098	-0.006270	80.933508	2.175122	-58.490000
11343		-0.350655	9.654341	1.494750	-0.010872	0.002593	-0.003244	80.928111	2.178728	-58.489309
11344		-0.350909	9.654208	1.495545	-0.005683	0.000178	-0.001588	80.926747	2.180819	-58.489889
11345		-0.319766	9.651970	1.509735	-0.008736	0.000925	-0.009965	80.922514	2.188077	-58.490751
11346		-0.358860	9.621610	1.506808	-0.000431	0.000649	-0.008886	80.924138	2.194339	-58.491724
11347		-0.346803	9.686310	1.486588	-0.000432	0.000649	-0.008886	80.924660	2.200961	-58.492644
11348		-0.354088	9.653881	1.496911	-0.003547	-0.001490	-0.008309	80.924448	2.206706	-58.494775
11349		-0.348087	9.686182	1.487121	-0.003460	0.001610	-0.001103	80.923283	2.209011	-58.494447
11350		-0.375675	9.679325	1.507281	-0.007864	0.000295	0.001530	80.920665	2.209351	-58.494678
11351		-0.362633	9.661987	1.519837	-0.007476	-0.001905	0.006813	80.917151	2.206860	-58.495624
11352		-0.340790	9.636350	1.510755	-0.000901	-0.001376	0.007339	80.918499	2.203764	-58.496276
11353		-0.357167	9.653055	1.553586	-0.003867	0.002472	0.006170	80.917145	2.202033	-58.494802
11354		-0.358958	9.621204	1.509379	0.002128	-0.002336	-0.000443	80.920171	2.203254	-58.496701
11355		-0.342279	9.677107	1.521893	0.005252	0.000472	-0.007298	80.923952	2.208961	-58.497577
11356		-0.344733	9.645269	1.477432	-0.001730	0.000805	-0.000552	80.924828	2.210529	-58.497707
11357		-0.355819	9.612414	1.541692	0.007423	-0.000314	-0.004138	80.929846	2.214377	-58.498743
11358		-0.351911	9.613102	1.486064	0.017908	-0.000707	-0.006178	80.941913	2.218992	-58.500235
11359		-0.348085	9.686482	1.485167	0.022257	-0.001608	-0.006135	80.955395	2.223855	-58.502182
11360		-0.355252	9.654351	1.493597	0.013113	0.000179	-0.008827	80.964721	2.230049	-58.503410
11361		-0.330715	9.701995	1.483993	0.010447	-0.001273	-0.011920	80.971423	2.238216	-58.505686
11362		-0.338288	9.669708	1.493368	0.005603	-0.002608	-0.011894	80.976368	2.245895	-58.508766
11363		-0.345768	9.637383	1.503017	0.004807	0.000454	-0.009905	80.979883	2.253077	-58.509881
11364		-0.371878	9.671940	1.478439	0.014442	0.000910	-0.007280	80.989980	2.258461	-58.510552
11365		-0.353628	9.687261	1.478758	0.013506	-0.001347	-0.009820	80.998439	2.265434	-58.512678
11366		-0.348382	9.637817	1.499625	0.009648	0.001792	-0.009930	81.005795	2.272398	-58.513084
11367		-0.341196	9.629554	1.477281	0.012178	-0.001404	-0.017643	81.013464	2.283794	-58.515942
11368		-0.328701	9.571731	1.476630	0.016139	0.000564	-0.029161	81.024436	2.301530	-58.518762
11369		-0.376028	9.663909	1.504281	0.033182	0.000725	-0.030671	81.044140	2.320490	-58.521573
11370		-0.417374	9.633943	1.497762	0.032874	0.006699	-0.035028	81.064811	2.342095	-58.521428
11371		-0.376043	9.697076	1.487271	0.041464	0.000479	-0.029585	81.089257	2.360421	-58.524268
11372		-0.376440	9.738686	1.440179	0.035772	-0.000013	-0.024895	81.111463	2.375698	-58.527009
11373		-0.397900	9.723773	1.436049	0.015268	0.001421	-0.024492	81.120940	2.391226	-58.528852
11374		-0.383259	9.697931	1.479838	0.009585	0.000921	-0.019804	81.128181	2.403706	-58.530607
11375		-0.389368	9.624843	1.478319	0.004746	-0.000424	-0.019779	81.131602	2.416403	-58.533075
11376		-0.387052	9.698001	1.478392	0.010822	-0.002115	-0.019180	81.139474	2.428263	-58.536491
11377		-0.386740	9.657248	1.466808	0.000396	0.000469	-0.019822	81.140423	2.441064	-58.538454
11378		-0.371918	9.631259	1.511813	-0.000449	0.001980	-0.021437	81.141920	2.454565	-58.539748
11379		-0.416011	9.609635	1.474640	0.016405	-0.006037	-0.018511	81.151887	2.466049	-58.545281
11380		-0.383664	9.649051	1.442734	0.026120	-0.001785	-0.014962	81.168531	2.475554	-58.548132
11381		-0.393569	9.657824	1.461188	0.032282	0.000300	-0.013442	81.187768	2.484729	-58.549621
11382		-0.428526	9.700942	1.455544	0.032769	0.001877	-0.007235	81.208335	2.490181	-58.549711
11383		-0.397314	9.699414	1.466348	0.022746	0.002259	-0.002593	81.222198	2.493385	-58.549134
11384		-0.410108	9.716849	1.452404	0.019598	-0.002107	0.000666	81.235145	2.494017	-58.550788
11385		-0.407841	9.676239	1.440335	0.002705	0.003681	0.000411	81.237572	2.495644	-58.549141
11386		-0.397201	9.699940	1.462896	0.003814	-0.005343	0.002797	81.241399	2.494789	-58.552443
11387		-0.397039	9.699895	1.463239	-0.010817	0.004102	0.000345	81.236089	2.496490	-58.550564
11388		-0.407673	9.676114	1.441220	-0.007007	-0.000577	-0.003135	81.233805	2.499410	-58.551682
11389		-0.395143	9.658879	1.453768	-0.006563	-0.000554	-0.000528	81.230813	2.501199	-58.552518
11390		-0.426798	9.660702	1.440849	-0.005630	0.001708	0.002007	81.229390	2.501407	-58.551892
11391		-0.369275	9.624509	1.478390	0.000093	0.003105	0.007196	81.230332	2.499142	-58.549978
11392		-0.387700	9.691167	1.444222	0.002220	0.000777	0.006759	81.233395	2.496578	-58.549465
11393		-0.408099	9.716735	1.453736	-0.005183	0.001067	0.010891	81.231278	2.492042	-58.548384
11394		-0.405213	9.675825	1.443849	-0.017824	0.002866	0.003487	81.222891	2.491514	-58.546973
11395		-0.379487	9.723091	1.437346	-0.026252	-0.002873	0.004163	81.208579	2.490444	-58.548712
11396		-0.395906	9.666739	1.427320	-0.027497	0.000168	0.003539	81.194580	2.489650	-58.548824
11397		-0.391537	9.657642	1.462934	-0.023598	-0.000741	0.000978	81.181830	2.490569	-58.549635
11398		-0.387053	9.648572	1.498286	-0.022222	0.001543	0.006123	81.170893	2.488434	-58.548739
11399		-0.403381	9.674190	1.455276	-0.019208	-0.000076	0.004623	81.160688	2.487348	-58.548852
11400		-0.390426	9.656770	1.468975	-0.018767	0.000614	0.000954	81.151681	2.488058	-58.548938
11401		-0.390256	9.656575	1.470303	-0.008740	-0.000437	0.002588	81.147457	2.488092	-58.549435
11402		-0.405050	9.632423	1.502951	-0.015264	0.001234	-0.000616	81.140461	2.489745	-58.549309
11403		-0.377408	9.639136	1.484043	0.000354	-0.003749	0.001684	81.141363	2.489998	-58.551763
11404		-0.398252	9.664670	1.493634	-0.003858	0.002461	0.006163	81.140950	2.487922	-58.550339
11405		-0.380864	9.647931	1.450943	0.006568	0.000547	0.000528	81.145513	2.489209	-58.550461
11406		-0.383250	9.688680	1.461986	-0.006125	0.000142	-0.004197	81.143699	2.492793	-58.551267
11407		-0.371259	9.671400	1.474462	-0.006616	-0.001428	-0.010404	81.140618	2.500094	-58.553473
11408		-0.391416	9.655995	1.473799	-0.013630	-0.001995	-0.013539	81.134410	2.508776	-58.556314
11409		-0.373654	9.671019	1.476356	-0.004933	-0.003776	-0.013450	81.132222	2.517594	-58.560121
11410		-0.412866	9.640515	1.473234	0.001326	0.002071	-0.011007	81.134687	2.525200	-58.560437
11411		-0.405540	9.632058	1.452145	-0.005598	0.005272	-0.013218	81.132344	2.534686	-58.559096
11412		-0.379601	9.629748	1.519509	0.016944	-0.002238	-0.014983	81.143630	2.544164	-58.562199
11413		-0.425469	9.648961	1.492914	0.008732	0.001783	-0.015140	81.149403	2.554430	-58.563003
11414		-0.428803	9.699042	1.414934	0.022222	-0.000864	-0.012400	81.163748	2.562568	-58.565101
11415		-0.417598	9.672877	1.513111	0.003096	0.003492	-0.013130	81.166342	2.571847	-58.564756
11416		-0.401609	9.656110	1.470297	0.002167	0.000562	-0.009391	81.169239	2.578409	-58.565776
11417		-0.436761	9.698775	1.467484	0.005534	-0.004133	-0.015483	81.173027	2.588350	-58.569959
11418		-0.419038	9.713987	1.468909	-0.000898	0.000632	-0.011489	81.174156	2.596107	-58.571122
11419		-0.402875	9.615231	1.459105	-0.008352	-0.000631	-0.010955	81.170095	2.603792	-58.572920
11420		-0.410415	9.664663	1.437248	0.003848	-0.001783	-0.012437	81.173872	2.611874	-58.575536
11421		-0.419832	9.591179	1.490355	0.006026	-0.002562	-0.009277	81.178005	2.618439	-58.578282
11422		-0.386882	9.630461	1.460014	0.004294	-0.001763	-0.009830	81.182043	2.625047	-58.580655
11423		-0.415458	9.623694	1.478700	0.015336	0.003895	-0.011012	81.191670	2.633162	-58.579892
11424		-0.408016	9.615623	1.455090	0.033125	-0.001176	-0.011825	81.212228	2.640950	-58.582102
11425		-0.407723	9.729896	1.463974	0.027879	-0.000326	-0.017082	81.228908	2.652133	-58.584259
11426		-0.474870	9.619915	1.423294	0.010789	-0.001411	-0.025449	81.236601	2.667616	-58.587792
11427		-0.415777	9.575358	1.491440	0.036243	0.003885	-0.021354	81.258166	2.681585	-58.587928
11428		-0.445794	9.659818	1.387289	0.043100	-0.000174	-0.029009	81.284383	2.699197	-58.591051
11429		-0.385530	9.647657	1.497814	0.040910	0.000611	-0.032167	81.308490	2.719007	-58.593971
11430		-0.441631	9.684475	1.401392	0.056498	-0.003652	-0.036129	81.342254	2.740353	-58.599672
11431		-0.441036	9.676369	1.429637	0.045214	0.000422	-0.038390	81.368796	2.763675	-58.603215
11432		-0.448779	9.603782	1.424082	0.057416	0.001530	-0.042541	81.403196	2.789105	-58.606501
11433		-0.398438	9.609365	1.466680	0.060705	-0.004691	-0.052210	81.438411	2.819823	-58.614100
11434		-0.414548	9.586346	1.437402	0.074495	-0.006789	-0.069265	81.482241	2.859690	-58.624347
11435		-0.437697	9.726605	1.396443	0.073673	0.002073	-0.085191	81.524930	2.909681	-58.630860
11436		-0.457659	9.662563	1.410303	0.069727	0.000123	-0.073667	81.566191	2.952638	-58.637492
11437		-0.477711	9.680231	1.391196	0.077909	-0.001592	-0.076163	81.611232	2.997214	-58.645254
11438		-0.470479	9.704744	1.352368	0.069985	-0.002884	-0.078224	81.652520	3.042512	-58.653909
11439		-0.504725	9.812282	1.376985	0.054646	-0.005497	-0.079752	81.684089	3.088810	-58.664125
11440		-0.540307	9.691444	1.382527	0.012033	-0.005055	-0.070584	81.692128	3.129606	-58.673333
11441		-0.507045	9.681319	1.373125	0.023731	-0.003908	-0.077335	81.706031	3.174670	-58.682421
11442		-0.547458	9.641988	1.400962	0.025928	-0.005310	-0.067894	81.722019	3.213926	-58.691533
11443		-0.520543	9.681385	1.367596	0.039789	-0.007126	-0.068798	81.745047	3.253891	-58.701719
11444		-0.531463	9.681620	1.418532	0.032822	-0.006190	-0.068338	81.764938	3.293335	-58.711337
11445		-0.557979	9.633815	1.369946	0.034645	-0.003851	-0.060601	81.785153	3.328927	-58.718961
11446		-0.536050	9.641076	1.346121	0.051150	-0.006379	-0.055738	81.815581	3.361220	-58.727623
11447		-0.557043	9.699186	1.339461	0.057732	-0.001968	-0.054303	81.849110	3.393400	-58.733629
11448		-0.557524	9.691336	1.367307	0.053480	-0.000221	-0.044494	81.881125	3.419825	-58.737842
11449		-0.546882	9.715690	1.330131	0.057832	-0.003925	-0.035479	81.914734	3.441177	-58.743401
11450		-0.594677	9.734185	1.300211	0.031540	0.005743	-0.027647	81.934458	3.458529	-58.742837
11451		-0.537920	9.740147	1.291253	0.024116	-0.000034	-0.021736	81.948947	3.472402	-58.745062
11452		-0.577669	9.701162	1.374471	0.008451	-0.001236	-0.022289	81.955229	3.486155	-58.748027
11453		-0.543329	9.699640	1.332889	0.005499	-0.000315	-0.014532	81.959075	3.495918	-58.749830
11454		-0.617788	9.670069	1.370571	0.001804	0.005209	-0.001232	81.961869	3.498242	-58.747438
11455		-0.591479	9.644605	1.306342	0.012711	0.002129	0.008310	81.970044	3.495243	-58.746018
11456		-0.561674	9.684416	1.329326	0.008437	0.004518	0.011839	81.976673	3.490099	-58.742973
11457		-0.566086	9.652240	1.339484	0.001490	0.000979	0.017665	81.978424	3.481699	-58.741457
11458		-0.577491	9.547310	1.403390	0.025809	0.000518	0.018330	81.994894	3.472552	-58.740157
11459		-0.555371	9.604133	1.356586	0.063710	0.007345	0.020867	82.032528	3.462841	-58.734773
11460		-0.590806	9.695940	1.270397	0.058895	0.005949	0.020901	82.068142	3.452666	-58.730198
11461		-0.536833	9.743722	1.323640	0.051485	0.004609	0.021438	82.098679	3.442408	-58.726336
11462		-0.557800	9.737099	1.284550	0.038884	0.003380	0.022982	82.122744	3.430845	-58.723068
11463		-0.568433	9.754422	1.269249	0.025888	0.003676	0.025504	82.138600	3.418204	-58.719426
11464		-0.554430	9.697586	1.323554	0.011556	0.001007	0.029176	82.146955	3.402938	-58.717027
11465		-0.524737	9.704790	1.302499	0.015319	-0.000771	0.016775	82.156563	3.394902	-58.716601
11466		-0.542139	9.689454	1.300409	-0.001101	0.005496	0.012789	82.157734	3.389287	-58.712943
11467		-0.502772	9.639271	1.335985	0.018170	-0.002621	-0.000834	82.168832	3.391102	-58.714950
11468		-0.540929	9.608505	1.331224	0.023330	0.000121	-0.010806	82.183705	3.398458	-58.716195
11469		-0.536406	9.641166	1.317129	0.045840	0.001094	-0.016965	82.210707	3.409719	-58.717345
11470		-0.526688	9.706218	1.291027	0.048312	-0.002082	-0.024628	82.239748	3.424750	-58.720900
11471		-0.547881	9.691178	1.285068	0.046574	-0.001297	-0.025187	82.267050	3.440496	-58.724035
11472		-0.591596	9.782732	1.254839	0.036697	0.000537	-0.016988	82.289556	3.451394	-58.725493
11473		-0.567405	9.635480	1.266248	0.028038	-0.000008	-0.014412	82.306333	3.461123	-58.727054
11474		-0.588606	9.815634	1.237640	0.037534	-0.003151	-0.012663	82.329209	3.469286	-58.730272
11475		-0.551174	9.651503	1.262709	-0.001422	0.000529	-0.014085	82.329126	3.478871	-58.731496
11476		-0.544896	9.716753	1.294013	0.031062	-0.004431	-0.006921	82.348275	3.483677	-58.735006
11477		-0.561661	9.660536	1.280231	0.014188	-0.000442	-0.010829	82.357118	3.491340	-58.736530
11478		-0.575502	9.677480	1.265920	0.029797	-0.001407	-0.007573	82.375637	3.496748	-58.738359
11479		-0.595102	9.662206	1.262166	0.020296	0.001737	-0.009322	82.388062	3.503721	-58.738526
11480		-0.539886	9.709125	1.263417	0.036186	-0.003885	-0.014195	82.410121	3.512705	-58.742257
11481		-0.532402	9.700747	1.239437	0.023283	0.000160	-0.010798	82.424195	3.520397	-58.743428
11482		-0.592433	9.695324	1.243075	0.031042	-0.004409	-0.006914	82.443319	3.525205	-58.746906
11483		-0.582612	9.719874	1.262983	0.020460	0.006449	0.001412	82.456052	3.526437	-58.743573
11484		-0.579591	9.679289	1.250126	0.034201	-0.001280	0.002345	82.477134	3.526224	-58.744574
11485		-0.567545	9.744139	1.225543	0.022565	-0.000256	0.006396	82.490862	3.524120	-58.744682
11486		-0.569455	9.671277	1.224263	0.019221	0.002220	0.015119	82.503539	3.516914	-58.742736
11487		-0.573626	9.753548	1.242349	0.026582	0.001390	0.017283	82.519676	3.508748	-58.741094
11488		-0.576134	9.761836	1.207265	0.009309	0.002478	0.019733	82.526702	3.498940	-58.738653
11489		-0.582318	9.770760	1.227957	-0.001418	0.001385	0.031688	82.526861	3.482590	-58.735940
11490		-0.570121	9.762107	1.207922	-0.020704	0.007922	0.041700	82.516974	3.460709	-58.728764
11491		-0.595758	9.796172	1.240799	-0.039756	0.000986	0.054378	82.495253	3.431441	-58.724574
11492		-0.599040	9.690550	1.256921	-0.051825	0.001366	0.062103	82.467397	3.397486	-58.719579
11493		-0.579639	9.673594	1.273936	-0.047439	0.001501	0.072024	82.441366	3.358238	-58.713740
11494		-0.514925	9.638785	1.315520	-0.027951	0.001246	0.076326	82.427237	3.316203	-58.707726
11495		-0.516938	9.736094	1.217747	-0.030119	0.001371	0.079440	82.411151	3.272737	-58.701375
11496		-0.478057	9.734707	1.234804	-0.042390	-0.000104	0.067458	82.388654	3.235639	-58.696769
11497		-0.480778	9.742986	1.261571	-0.073731	-0.001223	0.053785	82.347382	3.206549	-58.693810
11498		-0.488184	9.677937	1.289475	-0.054101	-0.010907	0.039203	82.317708	3.184671	-58.697450
11499		-0.460168	9.724783	1.287308	-0.095643	0.000217	0.023932	82.263799	3.172646	-58.695932
11500		-0.500766	9.579532	1.336342	-0.054184	-0.007411	0.023960	82.234121	3.159683	-58.698765
11501		-0.493288	9.692473	1.297354	-0.058498	-0.004349	0.021213	82.201340	3.148850	-58.700038
11502		-0.502519	9.546050	1.357450	-0.044193	-0.003918	0.020234	82.177476	3.138271	-58.701129
11503		-0.499736	9.667594	1.282417	-0.009088	-0.004031	0.015218	82.172990	3.130863	-58.702683
11504		-0.483570	9.683317	1.339750	-0.022085	-0.003694	0.017741	82.161782	3.121717	-58.703823
11505		-0.496153	9.667404	1.285234	-0.004263	-0.003272	0.021465	82.160112	3.110823	-58.704454
11506		-0.532813	9.710202	1.337360	-0.011718	-0.006165	0.018416	82.154765	3.101099	-58.706893
11507		-0.475985	9.723703	1.298461	-0.000074	-0.009460	0.017045	82.155286	3.092230	-58.711386
11508		-0.447153	9.730128	1.281587	-0.058600	-0.003011	0.008677	82.123131	3.088281	-58.712932
11509		-0.485478	9.576874	1.360807	-0.034890	-0.008926	0.002260	82.103658	3.087841	-58.718279
11510		-0.484370	9.698447	1.285879	-0.016267	-0.008731	-0.004947	82.095520	3.091170	-58.724128
11511		-0.486587	9.657573	1.332266	-0.033573	-0.005325	-0.005165	82.076880	3.095226	-58.728015
11512		-0.455020	9.655784	1.347797	-0.007962	-0.007336	-0.000273	82.073558	3.096009	-58.732740
11513		-0.491213	9.665477	1.301526	-0.001382	-0.002313	-0.005126	82.073455	3.100280	-58.734913
11514		-0.519144	9.658687	1.321250	0.002467	-0.005406	-0.004987	82.076141	3.103890	-58.738756
11515		-0.500425	9.674122	1.322236	0.006529	0.000609	0.000528	82.080685	3.105183	-58.738821
11516		-0.522038	9.699759	1.330243	0.015922	-0.005717	-0.004910	82.091075	3.108726	-58.742989
11517		-0.506674	9.642132	1.330809	0.006026	-0.003839	0.003304	82.095205	3.108093	-58.745363
11518		-0.513141	9.691509	1.306474	0.026804	-0.006597	0.001949	82.111819	3.107678	-58.749391
11519		-0.468697	9.673408	1.330052	0.015068	-0.004221	-0.006534	82.121076	3.112600	-58.752757
11520		-0.476426	9.722725	1.305607	0.019679	-0.009731	-0.014630	82.133438	3.121349	-58.759927
11521		-0.472155	9.754904	1.294892	-0.018563	-0.008275	-0.024243	82.123222	3.136004	-58.766987
11522		-0.486028	9.608622	1.351403	-0.013877	-0.010009	-0.031444	82.116273	3.154272	-58.775579
11523		-0.534450	9.708118	1.292939	0.002966	-0.013434	-0.033835	82.118185	3.173964	-58.786330
11524		-0.510656	9.592769	1.351078	-0.012025	-0.005449	-0.026403	82.112449	3.189730	-58.791919
11525		-0.503703	9.698190	1.339309	0.030377	-0.012424	-0.027499	82.130120	3.205906	-58.801596
11526		-0.535863	9.740145	1.281003	-0.011142	-0.007587	-0.018500	82.124848	3.217020	-58.807741
11527		-0.545181	9.667259	1.335735	0.010563	-0.008045	-0.017344	82.131348	3.227777	-58.814129
11528		-0.462613	9.720326	1.319683	-0.001562	-0.007001	-0.015875	82.131592	3.237449	-58.819891
11529		-0.509808	9.624452	1.283884	0.003121	-0.008728	-0.023077	82.133777	3.251407	-58.827117
11530		-0.522142	9.714372	1.271089	0.007682	-0.013577	-0.037447	82.139004	3.272805	-58.838188
11531		-0.512076	9.615960	1.316482	-0.002347	-0.011987	-0.045362	82.137844	3.299158	-58.849015
11532		-0.523677	9.664866	1.293382	0.010120	-0.013893	-0.054084	82.144370	3.329974	-58.861672
11533		-0.600058	9.594615	1.320278	0.010060	-0.013233	-0.060355	82.150198	3.364739	-58.874380
11534		-0.515387	9.598890	1.324069	0.060138	-0.019004	-0.075531	82.185089	3.407339	-58.891597
11535		-0.547405	9.787269	1.260877	0.048470	-0.026594	-0.096610	82.212283	3.461658	-58.914698
11536		-0.523813	9.704602	1.304274	0.029190	-0.029327	-0.105415	82.228917	3.520437	-58.940071
11537		-0.584964	9.690255	1.285423	0.059217	-0.035351	-0.121172	82.261795	3.588041	-58.970013
11538		-0.557729	9.761622	1.239913	0.028415	-0.027317	-0.126804	82.277896	3.659139	-58.995783
11539		-0.498780	9.864551	1.251948	0.046942	-0.038447	-0.150193	82.303410	3.743007	-59.029674
11540		-0.587425	10.264865	1.142741	-0.013742	-0.026663	-0.186772	82.294999	3.848214	-59.059616
11541		-0.559359	9.927986	1.277652	-0.140666	-0.008423	-0.213934	82.213724	3.970566	-59.081417
11542		-0.553217	9.696650	1.335386	-0.062111	-0.003921	-0.255384	82.177999	4.116429	-59.103980
11543		-0.607242	9.882138	1.282564	-0.042654	-0.015847	-0.310386	82.151889	4.292915	-59.137760
11544		-0.589411	9.780543	1.290519	-0.026761	0.008349	-0.380822	82.136043	4.510907	-59.163363
11545		-0.587782	9.834366	1.370065	0.025923	0.018939	-0.453102	82.149657	4.771107	-59.188636
11546		-0.695348	9.824679	1.373115	0.040044	0.041550	-0.525892	82.172505	5.074030	-59.206623
11547		-0.781924	9.821917	1.352680	0.096631	0.047954	-0.576479	82.227021	5.406547	-59.224755
11548		-0.813474	10.045942	1.321768	0.094302	0.060969	-0.625412	82.281114	5.767492	-59.238885
11549		-0.916827	10.008887	1.309735	0.080594	0.086246	-0.691921	82.327620	6.168527	-59.243474
11550		-0.942784	10.239657	1.313282	0.093616	0.100794	-0.758251	82.382590	6.607955	-59.244416
11551		-1.082248	10.329110	1.301997	0.004732	0.124035	-0.842525	82.386832	7.097394	-59.238349
11552		-1.226216	10.367094	1.373897	-0.026841	0.137858	-0.925374	82.373872	7.634535	-59.230662
11553		-1.327479	10.809812	1.376996	-0.104166	0.159265	-1.027319	82.316610	8.231602	-59.218961
11554		-1.613359	11.217974	1.639963	-0.214459	0.186486	-1.158984	82.197582	8.905130	-59.202719
11555		-1.440315	11.128473	1.210621	-0.298478	0.178406	-1.307267	82.027045	9.662625	-59.204733
11556		-1.588122	10.753742	1.282730	-0.284674	0.174939	-1.439399	81.862404	10.494368	-59.221650
11557		-1.473812	10.537214	1.277829	-0.269201	0.168665	-1.532480	81.703109	11.378753	-59.252522
11558		-1.446776	10.422876	1.394802	-0.228244	0.171673	-1.617117	81.565842	12.310829	-59.291139
11559		-1.539483	11.181624	1.623062	-0.213195	0.181439	-1.676455	81.435497	13.277722	-59.331765
11560		-2.197385	11.052049	1.733901	-0.299113	0.210931	-1.743383	81.257918	14.284433	-59.363763
11561		-2.364487	12.020049	2.121818	-0.303299	0.165832	-1.762274	81.068649	15.298290	-59.427577
11562		-2.801043	11.489265	1.307342	-0.352321	0.202928	-1.730612	80.856527	16.296771	-59.470357
11563		-3.081544	10.178771	1.243526	-0.114850	0.160699	-1.788713	80.769406	17.324716	-59.546845
11564		-2.453327	11.020313	1.430009	-0.069742	0.158816	-1.882341	80.703784	18.404746	-59.635115
11565		-3.174407	10.237518	1.246732	-0.151103	0.167090	-1.987751	80.586669	19.545592	-59.731504
11566		-3.629328	9.591035	1.037595	-0.070446	0.129623	-2.072004	80.503021	20.729727	-59.861373
11567		-3.247886	10.171925	1.423557	0.005645	0.100380	-2.143299	80.449643	21.951870	-60.019145
11568		-3.365034	9.975715	1.931966	-0.044507	0.126369	-2.242088	80.366164	23.231471	-60.173811
11569		-3.486687	9.245125	1.102586	0.038521	0.136865	-2.317291	80.324423	24.555059	-60.333341
11570		-4.164910	9.373941	0.931731	0.175763	0.121888	-2.422357	80.349123	25.935825	-60.514883
11571		-4.094355	10.479690	1.563182	0.258164	0.086044	-2.524393	80.400611	27.371610	-60.731639
11572		-4.074784	10.576920	1.123815	0.217353	0.108792	-2.608792	80.426405	28.856630	-60.944198
11573		-5.390096	9.534340	-0.011364	0.417951	0.044066	-2.786085	80.530284	30.436657	-61.219945
11574		-5.245477	9.754079	-0.277180	0.679051	-0.058321	-2.926146	80.735207	32.086167	-61.577653
11575		-4.874707	11.438606	0.265709	0.845757	-0.200187	-3.026430	80.968366	33.781432	-62.041611
11576		-5.061335	11.127041	0.501111	0.774670	-0.254768	-3.144486	81.120325	35.539076	-62.557611
11577		-5.467285	10.910189	0.289928	0.846763	-0.370142	-3.294007	81.237307	37.373109	-63.178570
11578		-5.161106	10.639032	0.252454	0.851098	-0.460498	-3.405964	81.286459	39.262398	-63.888307
11579		-5.222434	10.346491	0.462980	0.826303	-0.526449	-3.527620	81.248325	41.215921	-64.681442
11580		-4.527360	9.836860	0.655027	0.763369	-0.575601	-3.586117	81.106376	43.196117	-65.546051
11581		-4.433500	9.766792	0.969496	0.691354	-0.610431	-3.522537	80.860050	45.136211	-66.469195
11582		-3.629714	8.740447	0.442189	0.732148	-0.811518	-3.247352	80.494032	46.897093	-67.562828
11583		0.243363	9.507138	1.883308	0.861759	-1.110098	-2.723437	80.011743	48.328907	-68.885296
11584		3.042478	11.154949	2.942813	0.649961	-1.431110	-1.806192	79.253857	49.199129	-70.390032
11585		4.167711	12.258235	3.039984	0.515404	-1.715071	-0.761919	78.329179	49.437876	-71.999802
11586		4.635571	11.569185	2.868618	0.310813	-1.930853	0.194832	77.281390	49.093931	-73.618863
11587		4.461397	9.701232	2.409788	0.020257	-1.959287	0.944200	76.190526	48.311251	-75.087298
11588		3.659246	8.190613	1.619705	-0.107836	-1.911936	1.457829	75.189280	47.229122	-76.357060
11589		2.984711	7.140763	0.888232	-0.137129	-1.784057	1.766292	74.348769	45.985549	-77.406638
11590		2.583819	6.548139	0.497376	-0.106625	-1.605801	2.005358	73.715807	44.625241	-78.212184
11591		2.355911	6.512118	0.210659	-0.036672	-1.403499	2.242306	73.303900	43.166525	-78.777076
11592		2.257207	6.491835	0.029171	0.055320	-1.175692	2.467832	73.122572	41.615295	-79.094396
11593		2.229266	6.813300	-0.081035	0.179094	-0.928000	2.679219	73.170317	39.993448	-79.179596
11594		1.780053	7.115177	0.093240	0.296097	-0.686335	2.897842	73.424864	38.286735	-79.046836
11595		1.210991	7.766913	0.466171	0.361823	-0.437291	3.068664	73.827714	36.530653	-78.726348
11596		0.460529	8.295559	0.784519	0.347561	-0.202959	3.183585	74.308769	34.740888	-78.244638
11597		-0.245591	8.545132	1.049159	0.350717	-0.040345	3.247383	74.827155	32.942660	-77.676180
11598		-1.109454	8.573094	1.247988	0.345283	0.068477	3.255146	75.352207	31.146250	-77.062035
11599		-1.943448	8.540918	1.241813	0.358151	0.134008	3.213011	75.868264	29.383631	-76.446977
11600		-2.639129	8.875731	1.606222	0.459230	0.108678	3.168860	76.403509	27.631341	-75.879887
11601		-3.019526	9.645877	2.053063	0.531442	0.034526	3.122338	76.926362	25.896655	-75.396890
11602		-3.159123	10.173952	2.245372	0.535816	-0.050439	3.100664	77.407302	24.153456	-74.989393
11603		-3.036011	10.996808	2.568495	0.560241	-0.154929	3.115380	77.856045	22.392390	-74.668215
11604		-3.048681	11.412264	2.725193	0.537777	-0.219162	3.125006	78.264466	20.609949	-74.399099
11605		-3.037080	11.624734	2.731424	0.484417	-0.246032	3.114928	78.621327	18.834680	-74.166565
11606		-3.266874	11.670852	2.567973	0.451429	-0.233759	3.068795	78.950882	17.079140	-73.942283
11607		-3.483568	11.686500	2.349381	0.453775	-0.192950	2.979733	79.273825	15.383245	-73.720053
11608		-3.653832	11.674489	2.133106	0.454471	-0.127665	2.874324	79.596572	13.746124	-73.479549
11609		-3.736304	11.791242	2.008895	0.466901	-0.038734	2.753077	79.924342	12.191427	-73.214752
11610		-3.778163	11.987903	2.025694	0.485788	0.037913	2.643159	80.262285	10.698659	-72.924403
11611		-3.813080	12.258610	2.122090	0.499592	0.105262	2.554367	80.602553	9.267024	-72.617533
11612		-3.773651	12.608521	2.257954	0.469802	0.186984	2.490841	80.924638	7.871053	-72.276410
11613		-3.787511	12.648564	2.228103	0.407663	0.285616	2.421227	81.206607	6.527569	-71.896799
11614		-3.946763	12.370193	2.213085	0.323506	0.406370	2.320063	81.438722	5.244272	-71.461433
11615		-4.062055	11.881189	2.273458	0.218140	0.549084	2.176013	81.604757	4.059047	-70.965295
11616		-4.183267	11.467935	2.400872	0.093047	0.707188	1.985854	81.695149	2.988038	-70.395918
11617		-4.287491	11.083198	2.481911	-0.034959	0.853864	1.762922	81.703676	2.060698	-69.765851
11618		-4.540236	10.556960	2.358092	-0.138141	0.984500	1.512659	81.646506	1.281009	-69.079958
11619		-4.605269	10.244856	2.513139	-0.195295	1.091823	1.265706	81.547663	0.656544	-68.355495
11620		-4.751723	9.950305	2.402698	-0.188643	1.181929	1.044814	81.446828	0.161169	-67.595427
11621		-4.860745	9.916847	2.538836	-0.138230	1.246649	0.878926	81.367974	-0.228517	-66.814399
11622		-5.119254	10.005778	2.584680	-0.087670	1.285252	0.755483	81.313998	-0.548635	-66.019625
11623		-5.224972	10.339775	2.884342	-0.050632	1.297337	0.659622	81.276421	-0.808189	-65.228088
11624		-5.365824	10.698450	3.082556	-0.067615	1.291725	0.598853	81.226480	-1.037371	-64.442921
11625		-5.464190	10.942727	3.258918	-0.139800	1.270434	0.553536	81.131947	-1.237621	-63.675317
11626		-5.465726	11.124027	3.279300	-0.249752	1.232853	0.549472	80.972592	-1.440913	-62.927188
11627		-5.573889	11.253031	3.193430	-0.341338	1.162625	0.611323	80.758408	-1.679454	-62.214117
11628		-5.886875	11.406844	3.074040	-0.419879	1.052778	0.726482	80.497582	-1.993600	-61.549874
11629		-6.243829	11.249299	2.827112	-0.510013	0.890446	0.927212	80.183318	-2.430192	-60.957838
11630		-6.772951	10.823380	2.260351	-0.564297	0.691360	1.158546	79.836834	-3.016365	-60.451270
11631		-7.160895	9.842904	1.662112	-0.576085	0.485412	1.313317	79.483594	-3.705183	-60.042424
11632		-7.672226	8.533111	0.890558	-0.558983	0.309268	1.307392	79.141957	-4.408954	-59.728169
11633		-7.953234	7.451940	0.216329	-0.457219	0.159515	1.154155	78.862998	-5.039142	-59.512103
11634		-8.085243	6.515620	-0.331940	-0.310574	0.036686	0.893125	78.674840	-5.536841	-59.391232
11635		-7.908145	6.012931	-0.687612	-0.093986	-0.071124	0.577354	78.619338	-5.867678	-59.366488
11636		-7.614148	6.112994	-0.653498	0.144145	-0.167220	0.249831	78.709848	-6.026043	-59.432953
11637		-9.283090	6.228131	-1.163455	0.501840	-0.217968	-0.171187	79.013087	-5.952420	-59.575751
11638		-7.110276	7.437986	1.195604	0.708254	-0.172476	-0.714524	79.437631	-5.567176	-59.750931
11639		-2.147296	11.360300	2.748998	0.534163	-0.149801	-0.967935	79.761664	-5.035676	-59.936779
11640		-1.537728	11.261847	2.167249	0.188199	-0.165901	-0.917317	79.886295	-4.533164	-60.124706
11641		2.298941	10.661015	1.654921	0.083944	-0.183582	-0.811564	79.949185	-4.092243	-60.310705
11642		4.213279	10.185139	1.001208	0.388431	-0.229370	-0.687704	80.186413	-3.724760	-60.509442
11643		1.689767	9.269489	0.592006	0.470133	-0.124324	-0.758188	80.465418	-3.306971	-60.653431
11644		1.560822	9.227863	0.555333	0.491082	0.058536	-0.955405	80.751011	-2.759579	-60.710530
11645		1.088937	10.547068	0.583976	0.423522	0.213381	-1.155051	80.993836	-2.085238	-60.695273
11646		0.321007	11.800016	1.217219	0.250377	0.311416	-1.226536	81.136583	-1.361517	-60.628876
11647		-0.594378	12.212312	2.100717	0.091016	0.291674	-1.115037	81.188340	-0.703023	-60.562360
11648		-1.235548	13.252200	2.395891	0.195758	0.096650	-0.759003	81.301911	-0.262969	-60.574577
11649		-0.836766	10.892020	1.745082	0.168945	-0.041802	-0.344746	81.399672	-0.069756	-60.628431
11650		-0.037377	10.029156	1.356672	0.300572	-0.071249	-0.213806	81.573186	0.047257	-60.687721
11651		0.141766	10.594031	1.253182	0.173144	-0.021035	-0.146825	81.673158	0.130267	-60.712364
11652		-0.128562	9.573325	1.460065	0.088050	-0.021298	-0.124835	81.724843	0.201181	-60.735540
11653		0.090322	10.010968	1.294167	0.118214	-0.026830	-0.115166	81.793278	0.265821	-60.760673
11654		-0.022629	9.612945	1.359554	0.048646	-0.016523	-0.105429	81.822357	0.326160	-60.779421
11655		-0.045735	9.753881	1.374817	0.068191	-0.024662	-0.100712	81.862094	0.382814	-60.802055
11656		-0.074961	9.576899	1.378691	0.075988	-0.026129	-0.089778	81.906771	0.433520	-60.824903
11657		-0.078548	9.610118	1.415541	0.068209	-0.030375	-0.096250	81.946454	0.487217	-60.850336
11658		-0.068294	9.503543	1.429605	0.121441	-0.035467	-0.090677	82.017079	0.537723	-60.878467
11659		-0.129700	9.412084	1.437517	0.145692	-0.033727	-0.099522	82.101090	0.593070	-60.905937
11660		-0.124539	9.641949	1.385808	0.225658	-0.039774	-0.094342	82.231336	0.645409	-60.936633
11661		-0.137338	9.816537	1.318761	0.216338	-0.029483	-0.067882	82.355835	0.683229	-60.959036
11662		-0.156062	9.918575	1.306803	0.214187	-0.023901	-0.040306	82.479625	0.706211	-60.976401
11663		-0.123909	9.917769	1.243920	0.198376	-0.016790	-0.005253	82.593964	0.709491	-60.986771
11664		-0.114955	9.950901	1.161184	0.143954	-0.014190	0.006585	82.677621	0.706604	-60.995088
11665		-0.081975	9.949719	1.161266	0.097856	-0.016148	0.004872	82.734380	0.704207	-61.004346
11666		-0.121021	9.718152	1.210712	0.066965	-0.013108	0.015203	82.773947	0.696514	-61.011432
11667		-0.120973	9.679154	1.247362	0.093899	-0.017243	0.010245	82.828439	0.690999	-61.020932
11668		-0.047023	9.747021	1.206791	0.090617	-0.014035	0.012768	82.881548	0.684633	-61.028731
11669		-0.065727	9.774582	1.207232	0.098879	-0.012155	0.010973	82.938930	0.679082	-61.035296
11670		-0.083898	9.761021	1.198038	0.082458	-0.004717	0.014547	82.987427	0.672366	-61.037682
11671		-0.134487	9.791068	1.186999	0.093350	-0.003461	0.018496	83.041706	0.663155	-61.038788
11672		-0.072530	9.875896	1.134515	0.086159	-0.008264	0.020970	83.092304	0.652542	-61.042758
11673		-0.083358	9.771878	1.141051	0.046770	-0.002951	0.025023	83.119903	0.639655	-61.043140
11674		-0.070648	9.634773	1.226953	0.063677	-0.008144	0.021353	83.157623	0.628832	-61.047028
11675		-0.059746	9.788006	1.128816	0.082210	-0.013617	0.011916	83.205453	0.622677	-61.054386
11676		-0.059442	9.707978	1.157150	0.052685	-0.008863	0.011114	83.236859	0.617631	-61.059388
11677		-0.071403	9.725874	1.139217	0.073230	-0.016654	0.001246	83.279518	0.617353	-61.069201
11678		-0.051544	9.700119	1.123268	0.059356	-0.015755	-0.007467	83.314688	0.622419	-61.079373
11679		-0.059668	9.710239	1.138014	0.076879	-0.016626	-0.013989	83.359425	0.630826	-61.090183
11680		-0.092842	9.835441	1.093092	0.075586	-0.015253	-0.018223	83.403884	0.642057	-61.100769
11681		-0.067622	9.882543	1.075395	0.051350	-0.011729	-0.007537	83.434026	0.647128	-61.108356
11682		-0.089003	9.828773	1.116605	0.019225	-0.009026	-0.005056	83.446242	0.651278	-61.114523
11683		-0.113780	9.822013	1.081742	0.010820	-0.008206	0.007605	83.453196	0.647965	-61.119112
11684		-0.099398	9.763814	1.083267	0.003717	-0.006149	0.015464	83.456559	0.640621	-61.122299
11685		-0.065782	9.802495	1.105202	-0.008338	-0.007027	0.019904	83.452554	0.630384	-61.125414
11686		-0.057181	9.671140	1.110675	-0.016434	-0.004675	0.016244	83.444382	0.622688	-61.127709
11687		-0.068722	9.729302	1.109725	-0.009609	-0.005676	0.015662	83.439655	0.614954	-61.130330
11688		-0.073385	9.656251	1.112880	-0.013726	-0.003158	0.019258	83.433043	0.605636	-61.131559
11689		-0.059185	9.680322	1.134171	0.018630	-0.009507	0.018539	83.444476	0.596013	-61.136172
11690		-0.049971	9.792894	1.086088	0.005671	-0.007981	0.008725	83.448939	0.592370	-61.140835
11691		-0.075452	9.746536	1.097370	-0.001057	-0.012241	0.007505	83.449069	0.588850	-61.147727
11692		-0.060471	9.768814	1.065126	-0.014709	-0.010229	0.008673	83.441841	0.585085	-61.153671
11693		-0.054044	9.760909	1.099878	-0.016954	-0.011648	0.008267	83.432868	0.581169	-61.160175
11694		-0.046378	9.792424	1.090471	-0.029298	-0.015767	0.005566	83.417249	0.578802	-61.169471
11695		-0.085099	9.803955	1.103336	-0.042958	-0.013747	0.006740	83.393364	0.575613	-61.177269
11696		-0.064684	9.817989	1.108764	-0.063685	-0.014441	0.007667	83.358052	0.572127	-61.185667
11697		-0.052123	9.719327	1.162410	-0.073809	-0.017119	0.005379	83.316472	0.569479	-61.195471
11698		-0.043672	9.667967	1.138557	-0.075935	-0.016893	0.008553	83.274126	0.565307	-61.205197
11699		-0.063281	9.734956	1.163627	-0.041699	-0.012471	0.001945	83.250969	0.564913	-61.212583
11700		-3.851952	8.206539	3.052242	-0.305262	-0.270168	-0.077781	83.075708	0.592555	-61.372276
11701		4.182456	9.564506	-0.603286	1.295045	-0.199042	-0.190477	83.817109	0.689512	-61.498452
11702		0.188756	15.772843	-0.522324	-1.116203	0.149958	0.080762	83.179864	0.655068	-61.408500
11703		-0.955333	3.516294	3.000640	-0.237781	0.019021	0.075957	83.044605	0.614718	-61.392885
11704		0.293845	12.388458	0.466313	0.265348	-0.059741	-0.031436	83.197462	0.630318	-61.429704
11705		-0.436312	8.544829	1.466737	-0.188591	0.022424	0.000999	83.090351	0.632834	-61.417302
11706		0.115967	10.582644	0.920792	-0.086048	0.001576	0.016303	83.042308	0.625483	-61.415961
11707		-0.167189	8.755330	1.450534	0.028254	-0.010760	-0.002622	83.059229	0.627777	-61.422689
11708		-0.019571	10.642752	0.910848	-0.087109	0.014043	0.012016	83.010649	0.623724	-61.414546
11709		-0.155430	9.355026	1.313861	-0.031570	0.003489	0.041293	82.993415	0.602033	-61.410106
11710		-0.010191	9.983316	1.125710	-0.126371	0.015327	0.044178	82.922371	0.579789	-61.398969
11711		-0.087211	9.517860	1.250136	-0.026838	-0.002071	0.035731	82.907810	0.560875	-61.398051
11712		-0.055984	9.888665	1.162833	-0.117542	0.009952	0.025976	82.841774	0.548608	-61.391228
11713		-0.073540	9.628840	1.219656	-0.057746	0.001511	0.039853	82.809526	0.527608	-61.387950
11714		-0.057527	9.651736	1.248370	-0.086936	0.006957	0.035474	82.761012	0.509735	-61.382125
11715		-0.034204	9.583459	1.234441	-0.040180	0.007962	0.032374	82.738854	0.493457	-61.375693
11716		-0.031380	9.582969	1.238309	-0.040583	0.002647	0.027936	82.716866	0.479556	-61.372844
11717		-0.048919	9.609131	1.250588	-0.009025	0.003345	0.020968	82.712527	0.469429	-61.369854
11718		-0.022097	9.615414	1.284799	-0.008517	0.006051	0.014540	82.708914	0.463385	-61.366037
11719		-0.013178	9.728409	1.239575	0.004006	0.000101	0.007244	82.712017	0.460822	-61.365889
11720		-0.039492	9.763933	1.271603	-0.017042	0.003147	0.006481	82.703497	0.459141	-61.364304
11721		-0.037404	9.762731	1.219106	-0.025268	0.003451	0.005589	82.689842	0.457763	-61.362371
11722		-0.063493	9.715908	1.232900	-0.032848	0.000701	0.002739	82.672250	0.458026	-61.362446
11723		-0.031134	9.753671	1.258883	-0.046573	0.002792	0.003970	82.646384	0.457521	-61.361005
11724		-0.018036	9.694722	1.264676	-0.045595	0.005581	0.000151	82.621506	0.459609	-61.358495
11725		-0.055830	9.705196	1.224061	-0.043680	0.001150	0.002423	82.597289	0.459863	-61.358100
11726		-0.037310	9.679079	1.272585	-0.037148	0.001638	0.002789	82.577233	0.460159	-61.357635
11727		-0.029933	9.669523	1.254669	-0.037154	0.001643	0.002791	82.556759	0.460241	-61.356933
11728		-0.049315	9.654568	1.257349	-0.025445	0.001871	0.002013	82.543406	0.460990	-61.356390
11729		-0.049766	9.736282	1.280261	-0.021073	0.003073	-0.000753	82.532149	0.463192	-61.355140
11730		-0.074559	9.729705	1.249304	-0.029188	0.009711	0.010098	82.516689	0.459930	-61.349538
11731		-0.034256	9.758464	1.252894	-0.029868	-0.001966	0.013809	82.500379	0.453484	-61.350064
11732		-0.046635	9.694202	1.278231	-0.032217	0.001886	0.015249	82.483151	0.446710	-61.348518
11733		-0.045242	9.693775	1.281517	-0.035609	0.003477	0.014199	82.463575	0.440451	-61.345919
11734		-0.057801	9.629472	1.306953	-0.029869	0.005414	0.012942	82.447704	0.435250	-61.342537
11735		0.010617	9.704207	1.243685	0.003019	-0.002710	0.011060	82.450232	0.430308	-61.343685
11736		-0.049128	9.701961	1.309584	-0.045606	0.005131	0.006481	82.425335	0.428752	-61.340946
11737		-0.035912	9.602308	1.302364	0.001871	-0.003917	-0.004047	82.427192	0.432299	-61.343919
11738		-0.035204	9.724462	1.280033	-0.021904	-0.002811	-0.001502	82.415833	0.434674	-61.346290
11739		-0.049470	9.660419	1.303286	0.000598	-0.002526	-0.008274	82.416964	0.440727	-61.348793
11740		-0.030575	9.674926	1.303963	-0.006600	0.000057	-0.006671	82.414380	0.446250	-61.349925
11741		-0.017612	9.738792	1.282037	0.000693	-0.000402	-0.010993	82.415572	0.454008	-61.351427
11742		-0.038076	9.683238	1.271372	-0.003835	-0.003194	-0.011815	82.414552	0.462201	-61.354791
11743		-0.046295	9.692222	1.293172	-0.001572	-0.001797	-0.011404	82.414440	0.470087	-61.357118
11744		-0.072795	9.726998	1.270315	-0.001003	0.000395	-0.011517	82.415056	0.478379	-61.358418
11745		-0.048430	9.692187	1.293356	-0.000204	-0.001064	-0.009895	82.415732	0.485463	-61.360214
11746		-0.042091	9.724117	1.282439	-0.003633	-0.002129	-0.001919	82.414833	0.488110	-61.362221
11747		-0.068834	9.718547	1.303811	-0.000895	-0.000665	0.001097	82.415122	0.488981	-61.362958
11748		-0.048729	9.692093	1.294049	-0.005029	0.001853	0.004733	82.413445	0.488149	-61.362198
11749		-0.041565	9.723987	1.283443	-0.005179	0.000259	0.001145	82.411283	0.489063	-61.362407
11750		-0.048323	9.691945	1.295171	-0.007768	0.000389	0.001717	82.408025	0.489828	-61.362704
11751		-0.060851	9.709261	1.284327	-0.005504	0.001786	0.002128	82.405685	0.490299	-61.361972
11752		-0.055004	9.700838	1.317640	-0.000420	-0.000598	0.003702	82.406632	0.489859	-61.362677
11753		-0.040208	9.723774	1.285103	-0.001586	-0.000266	0.012090	82.406533	0.484517	-61.362356
11754		-0.031613	9.714747	1.263686	-0.000964	0.001395	0.018283	82.407184	0.475943	-61.360823
11755		-0.037139	9.682772	1.274943	-0.002388	0.001194	0.010468	82.406631	0.471633	-61.359795
11756		-0.043360	9.691770	1.296655	-0.001167	0.000332	0.008388	82.407154	0.468594	-61.359612
11757		-0.023025	9.706310	1.297129	-0.000517	-0.002721	0.006421	82.407652	0.466286	-61.361115
11758		-0.047743	9.700129	1.263922	-0.003810	0.000993	0.002653	82.406657	0.466549	-61.360988
11759		-0.029363	9.715257	1.319211	-0.003011	-0.000466	0.004275	82.405736	0.465630	-61.361372
11760		-0.041271	9.691643	1.297672	-0.005127	-0.000268	0.007453	82.403982	0.463069	-61.361596
11761		-0.046390	9.699986	1.265065	-0.003485	-0.000533	0.001670	82.402787	0.463624	-61.362216
11762		-0.047500	9.700592	1.319744	0.001176	-0.003516	0.006945	82.404627	0.461101	-61.364320
11763		-0.025469	9.714526	1.265521	-0.000125	0.002591	0.010880	82.405378	0.456662	-61.362468
11764		-0.038813	9.691613	1.297970	0.003862	-0.001523	0.003654	82.408762	0.456155	-61.363688
11765		-0.018738	9.706169	1.298256	-0.001643	0.000266	0.005783	82.408629	0.454435	-61.363542
11766		-0.050354	9.668085	1.275849	0.003292	-0.003714	0.003767	82.411674	0.453693	-61.365995
11767		-0.076806	9.703626	1.306831	0.009515	-0.001719	0.005114	82.417925	0.452203	-61.367027
11768		-0.017305	9.706390	1.296616	0.009839	-0.003245	0.004130	82.424721	0.451289	-61.369184
11769		-0.016981	9.706502	1.295782	0.007347	-0.000990	0.001984	82.429731	0.451631	-61.370040
11770		-0.049218	9.709450	1.283399	0.003160	0.002059	-0.000686	82.432718	0.453848	-61.369545
11771		-0.029650	9.724033	1.283423	0.004283	-0.000927	-0.000048	82.435972	0.455350	-61.370517
11772		-0.016984	9.706650	1.294675	0.000571	0.002191	-0.000114	82.437474	0.457248	-61.369902
11773		-0.036577	9.692116	1.294276	-0.000325	0.001527	0.000984	82.438100	0.458349	-61.369403
11774		-0.016890	9.706648	1.294694	-0.000325	0.001527	0.000984	82.439084	0.459568	-61.369079
11775		-0.022291	9.715036	1.261660	0.000473	0.000068	0.002605	82.440161	0.459639	-61.369286
11776		-0.022100	9.715021	1.261778	-0.002914	0.001659	0.001556	82.439661	0.460538	-61.368841
11777		-0.061047	9.726824	1.272263	-0.014020	0.003117	0.008533	82.432452	0.457471	-61.366870
11778		-0.021057	9.714786	1.263607	-0.006725	0.002654	0.004210	82.429774	0.456935	-61.365657
11779		-0.047560	9.709160	1.285651	-0.011728	-0.000204	0.000782	82.423858	0.458020	-61.366157
11780		-0.047417	9.708991	1.286931	-0.014644	0.001456	0.002339	82.416636	0.458452	-61.365764
11781		-0.041573	9.659446	1.310759	-0.011404	-0.001730	-0.000202	82.410897	0.459980	-61.367205
11782		-0.008006	9.696795	1.279438	-0.007348	0.000993	-0.001984	82.407848	0.462829	-61.367400
11783		-0.047710	9.708642	1.289553	-0.001842	-0.000798	-0.004114	82.407590	0.466649	-61.368608
11784		-0.060619	9.685046	1.267967	-0.005556	0.002321	-0.004178	82.405570	0.470840	-61.368213
11785		-0.021579	9.714088	1.268953	0.001694	-0.000796	0.000524	82.407341	0.472026	-61.369069
11786		-0.035597	9.691181	1.301286	0.004285	-0.000928	-0.000048	82.410946	0.473622	-61.370204
11787		-0.062317	9.685675	1.322321	-0.002019	0.002323	0.000460	82.410604	0.475082	-61.369293
11788		-0.015993	9.705733	1.301547	0.002590	-0.000132	-0.000573	82.413238	0.477033	-61.370013
11789		-0.035545	9.691222	1.300984	0.000798	-0.001460	0.001621	82.414493	0.477546	-61.371163
11790		-0.008639	9.696752	1.279761	0.000798	-0.001460	0.001621	82.416093	0.478146	-61.372468
11791		-0.060560	9.726082	1.277944	-0.000650	0.003054	0.001968	82.416540	0.478803	-61.371027
11792		-0.027895	9.682233	1.279266	0.002493	-0.002256	0.002146	82.419106	0.479041	-61.372742
11793		-0.047524	9.708673	1.289324	-0.002344	0.003850	0.001444	82.418585	0.480057	-61.370890
11794		-0.027833	9.723196	1.289795	0.000878	-0.006704	-0.000234	82.420201	0.481306	-61.375309
11795		-0.034857	9.691228	1.300953	-0.002493	0.002256	-0.002146	82.419586	0.484239	-61.374633
11796		-0.047656	9.708609	1.289804	-0.004285	0.000928	0.000048	82.418279	0.485901	-61.374693
11797		-0.047644	9.708550	1.290248	-0.004855	-0.001263	0.000161	82.416294	0.487258	-61.375841
11798		-0.028155	9.723005	1.291225	-0.007023	-0.000533	-0.002968	82.413406	0.490519	-61.376958
11799		-0.033752	9.690344	1.248555	-0.009939	0.001126	-0.001411	82.408520	0.492950	-61.376868
11800		-0.028466	9.722760	1.293059	-0.010835	0.000462	-0.000314	82.403454	0.494775	-61.377216
11801		-0.055124	9.676162	1.304494	-0.005084	0.002389	-0.001572	82.401356	0.497393	-61.376422
11802		-0.021630	9.713596	1.272708	-0.003635	-0.002125	-0.001920	82.400399	0.499930	-61.378359
11803		-0.036204	9.731585	1.315930	0.001073	-0.002456	-0.005671	82.401801	0.504509	-61.380627
11804		-0.048946	9.707995	1.294369	-0.009142	-0.000334	0.000210	82.397697	0.505967	-61.381382
11805		-0.061685	9.725328	1.283620	-0.005655	0.000198	-0.001459	82.395261	0.508355	-61.381824
11806		-0.049276	9.707821	1.295659	-0.006129	0.000132	-0.004065	82.392881	0.512273	-61.382637
11807		-0.042607	9.698702	1.275006	-0.012355	-0.001860	-0.005412	82.386592	0.516750	-61.384547
11808		-0.057207	9.675601	1.308559	-0.007174	-0.002124	-0.006558	82.383599	0.521909	-61.386830
11809		-0.050828	9.707495	1.298039	-0.003784	-0.003716	-0.005510	82.382211	0.526300	-61.389803
11810		-0.038462	9.689973	1.310166	-0.009942	0.001127	-0.001409	82.377649	0.528780	-61.389846
11811		-0.051500	9.707274	1.299663	-0.009766	-0.001991	-0.005984	82.372842	0.533571	-61.391875
11812		-0.051775	9.666237	1.289716	-0.001844	-0.000795	-0.004114	82.372906	0.537436	-61.393213
11813		-0.052276	9.707148	1.300576	-0.005331	-0.001327	-0.002444	82.370645	0.540267	-61.394597
11814		-0.039784	9.689703	1.312121	0.003487	0.000532	-0.001670	82.373770	0.542843	-61.394993
11815		-0.052719	9.707155	1.300504	-0.000149	-0.001591	-0.003590	82.374477	0.546305	-61.396614
11816		-0.026228	9.712701	1.279435	-0.001370	-0.000730	-0.001508	82.374809	0.548688	-61.397711
11817		-0.033510	9.721685	1.300998	0.001221	-0.000862	-0.002082	82.376306	0.551349	-61.398803
11818		-0.058965	9.715596	1.267495	0.000422	0.000599	-0.003702	82.377669	0.555075	-61.399310
11819		-0.041075	9.689767	1.311616	0.006729	-0.002651	-0.004213	82.382310	0.558810	-61.401579
11820		-0.054048	9.707245	1.299775	0.001221	-0.000862	-0.002082	82.384123	0.561501	-61.402790
11821		-0.073832	9.692729	1.299136	0.003487	0.000533	-0.001670	82.386926	0.564035	-61.403058
11822		-0.047393	9.698343	1.277566	0.005278	0.001862	-0.003864	82.391075	0.567942	-61.402855
11823		-0.060407	9.715825	1.265666	0.003812	-0.000993	-0.002655	82.394054	0.570918	-61.404064
11824		-0.062263	9.716443	1.319722	0.006728	-0.002650	-0.004213	82.399008	0.574678	-61.406448
11825		-0.035698	9.722056	1.298167	0.001695	-0.000796	0.000524	82.400778	0.575865	-61.407304
11826		-0.062225	9.675568	1.308578	0.003161	0.002059	-0.000685	82.403715	0.577975	-61.406742
11827		-0.042848	9.731104	1.319289	0.000880	-0.006704	-0.000237	82.404984	0.579146	-61.411011
11828		-0.055245	9.707538	1.297540	-0.005182	0.000263	0.001147	82.403128	0.580076	-61.411328
11829		-0.048161	9.698509	1.276276	-0.000800	0.001461	-0.001620	82.403480	0.582651	-61.411064
11830		-0.042548	9.690073	1.309305	0.000475	0.000065	0.002605	82.404863	0.582734	-61.411381
11831		-0.047994	9.698538	1.276061	0.004286	-0.000927	-0.000050	82.408117	0.584236	-61.412355
11832		-0.074661	9.693016	1.296948	0.001125	-0.002987	0.000636	82.409852	0.585203	-61.414551
11833		-0.054988	9.707567	1.297327	-0.000570	-0.002191	0.000112	82.410315	0.586518	-61.416230
11834		-0.074693	9.693040	1.296767	0.003811	-0.000993	-0.002655	82.413596	0.589501	-61.417541
11835		-0.035543	9.722169	1.297323	0.001370	0.000730	0.001508	82.415190	0.590244	-61.417455
11836		-0.054963	9.666675	1.286298	0.001221	-0.000862	-0.002081	82.416985	0.592908	-61.418645
11837		-0.048150	9.698653	1.275182	-0.000000	-0.000000	0.000000	82.417788	0.594453	-61.419088
11838		-0.041174	9.730633	1.264058	0.001370	0.000730	0.001508	82.419680	0.595195	-61.419101
11839		-0.055141	9.707649	1.296712	-0.002266	-0.001395	-0.000411	82.419176	0.596868	-61.420367
11840		-0.067717	9.684070	1.275042	-0.003636	-0.002125	-0.001919	82.418179	0.599337	-61.422258
11841		-0.055086	9.707541	1.297517	-0.007052	0.004176	0.005198	82.414970	0.598245	-61.419936
11842		-0.047719	9.698458	1.276679	-0.007693	-0.004848	-0.000137	82.411633	0.599493	-61.423237
11843		-0.068839	9.684384	1.331422	-0.004286	0.000928	0.000050	82.409985	0.601080	-61.423149
11844		-0.067346	9.683782	1.277254	-0.003961	-0.000598	-0.000935	82.408807	0.603098	-61.424094
11845		-0.022588	9.704379	1.311506	-0.004857	-0.001263	0.000162	82.406820	0.604455	-61.425242
11846		-0.074506	9.692640	1.299763	-0.005982	0.001724	-0.000473	82.404496	0.606384	-61.424831
11847		-0.062122	9.716123	1.322084	-0.001370	-0.000730	-0.001508	82.404508	0.608729	-61.425803
11848		-0.055139	9.707080	1.300966	-0.007678	0.002520	-0.000996	82.401214	0.611013	-61.424976
11849		-0.074783	9.692437	1.301260	-0.006878	0.001060	0.000624	82.398083	0.612283	-61.424771
11850		-0.055276	9.706923	1.302125	-0.002496	0.002258	-0.002143	82.397754	0.615195	-61.424179
11851		-0.075117	9.733246	1.312870	-0.010611	-0.003190	0.001421	82.392459	0.615691	-61.426326
11852		-0.048140	9.697766	1.281910	-0.003962	-0.000598	-0.000935	82.391270	0.617698	-61.427262
11853		-0.067702	9.683143	1.282065	-0.007774	0.000395	0.001721	82.387622	0.618295	-61.427350
11854		-0.074654	9.692047	1.304171	-0.003487	-0.000533	0.001670	82.386707	0.618823	-61.428050
11855		-0.047985	9.738515	1.294005	-0.005754	-0.001927	0.001259	82.384202	0.619506	-61.429492
11856		-0.062096	9.715427	1.327190	-0.006458	0.001661	-0.003077	82.381592	0.622894	-61.429304
11857		-0.035652	9.720896	1.306825	-0.009621	-0.000397	-0.002392	82.376878	0.625767	-61.430156
11858		-0.087690	9.709114	1.295444	-0.008821	-0.001859	-0.000773	82.372892	0.627575	-61.431788
11859		-0.087852	9.708969	1.296519	-0.013339	0.002723	-0.002452	82.366067	0.630719	-61.430873
11860		-0.062676	9.673983	1.320219	-0.003638	-0.002122	-0.001920	82.365046	0.633157	-61.432742
11861		-0.055976	9.705940	1.309403	-0.000475	-0.000064	-0.002605	82.365574	0.636175	-61.433421
11862		-0.056143	9.705910	1.309618	-0.003963	-0.000597	-0.000935	82.364374	0.638166	-61.434346
11863		-0.075854	9.691325	1.309455	-0.001371	-0.000729	-0.001508	82.364385	0.640511	-61.435319
11864		-0.043951	9.688425	1.321396	-0.000300	-0.003178	-0.007181	82.365260	0.645850	-61.438183
11865		-0.042910	9.687906	1.267058	-0.004438	-0.000660	-0.003539	82.363512	0.649354	-61.439272
11866		-0.077396	9.732141	1.320903	-0.007506	-0.000591	-0.005570	82.360274	0.653971	-61.440542
11867		-0.077572	9.691110	1.310943	-0.004764	0.000866	-0.002554	82.358351	0.657031	-61.440689
11868		-0.058286	9.705558	1.312131	-0.010994	-0.001124	-0.003900	82.353109	0.660655	-61.442133
11869		-0.078252	9.690904	1.312426	-0.003869	0.001531	-0.003650	82.351702	0.664389	-61.441986
11870		-0.071644	9.722848	1.301758	-0.003068	0.000069	-0.002031	82.351008	0.667040	-61.442608
11871		-0.052062	9.696392	1.292109	-0.007032	-0.000527	-0.002965	82.347776	0.670228	-61.443578
11872		-0.079062	9.731634	1.324539	-0.007777	0.000395	0.001722	82.344389	0.670769	-61.443726
11873		-0.071624	9.681632	1.293218	-0.009149	-0.000332	0.000214	82.339947	0.672167	-61.444344
11874		-0.091433	9.707891	1.304319	-0.010601	0.004181	0.000567	82.334964	0.673650	-61.442428
11875		-0.071544	9.722309	1.305789	-0.010792	-0.000075	0.005998	82.329588	0.671783	-61.442457
11876		-0.078002	9.690174	1.317820	-0.010697	0.002054	0.003283	82.324537	0.671560	-61.441541
11877		-0.083146	9.698542	1.285866	-0.010793	-0.000074	0.005998	82.319160	0.669693	-61.441569
11878		-0.077014	9.689887	1.319988	-0.012491	0.000724	0.005476	82.313073	0.668121	-61.441238
11879		-0.069314	9.680813	1.299458	-0.009097	-0.000871	0.006520	82.308664	0.665896	-61.441679
11880		-0.063359	9.672207	1.333141	-0.005187	0.000265	0.001149	82.306752	0.666744	-61.441937
11881		-0.056591	9.704112	1.322855	-0.008976	-0.003440	-0.004364	82.302385	0.670502	-61.444672
11882		-0.049940	9.695055	1.302188	-0.009778	-0.001976	-0.005982	82.297819	0.675223	-61.446748
11883		-0.025626	9.700922	1.336780	-0.014124	-0.000502	-0.012235	82.290515	0.683675	-61.448420
11884		-0.071821	9.680082	1.304760	-0.024231	-0.000951	-0.017230	82.277661	0.694855	-61.450777
11885		-0.080450	9.688773	1.327934	-0.008614	-0.002288	-0.014371	82.273499	0.704381	-61.453630
11886		-0.062050	9.703197	1.329310	-0.010488	0.001620	-0.010313	82.268541	0.711829	-61.453994
11887		-0.050150	9.644733	1.330660	-0.001579	-0.001764	-0.011406	82.268415	0.719712	-61.456323
11888		-0.057000	9.653320	1.297257	0.010262	0.000565	-0.014909	82.275332	0.729685	-61.457638
11889		-0.065712	9.621422	1.307260	0.009401	0.002577	-0.022831	82.281517	0.744389	-61.458379
11890		-0.080821	9.679977	1.305012	0.021052	0.000650	-0.020907	82.294609	0.757770	-61.460101
11891		-0.095270	9.656783	1.280619	0.027851	0.004833	-0.019668	82.311385	0.770852	-61.459312
11892		-0.071148	9.744693	1.277644	0.035056	0.002256	-0.021280	82.332511	0.784565	-61.460142
11893		-0.074800	9.704533	1.318863	0.021550	0.003394	-0.027317	82.345658	0.801880	-61.460746
11894		-0.090510	9.722221	1.305265	0.023183	0.003148	-0.033098	82.359974	0.822370	-61.461960
11895		-0.067061	9.728085	1.282426	0.011762	0.001415	-0.033296	82.367490	0.842929	-61.464136
11896		-0.109959	9.739890	1.291384	0.003593	0.003874	-0.036892	82.370582	0.865625	-61.465218
11897		-0.113267	9.739849	1.291405	-0.004040	-0.001525	-0.030726	82.369020	0.884502	-61.468866
11898		-0.078251	9.687480	1.326729	-0.017306	0.003317	-0.035889	82.360133	0.906583	-61.470188
11899		-0.120557	9.657987	1.327431	-0.015222	0.000455	-0.030048	82.352180	0.925225	-61.472665
11900		-0.123721	9.698754	1.339007	-0.005359	0.004582	-0.026780	82.350157	0.942227	-61.472575
11901		-0.111624	9.639927	1.285503	0.000629	0.002869	-0.026308	82.351312	0.958929	-61.473397
11902		-0.102210	9.704481	1.317399	0.013740	0.003826	-0.025586	82.360223	0.975192	-61.473643
11903		-0.156659	9.692699	1.303935	0.010100	0.001702	-0.027505	82.366791	0.992485	-61.475215
11904		-0.048636	9.666807	1.295261	0.013359	0.001220	-0.039064	82.375438	1.016203	-61.477960
11905		-0.137930	9.698653	1.280308	0.014606	-0.001627	-0.058322	82.384510	1.050744	-61.483760
11906		-0.104397	9.728094	1.279860	0.012482	-0.001433	-0.055141	82.392600	1.083387	-61.489221
11907		-0.142864	9.649430	1.300281	0.011506	-0.001539	-0.060344	82.399887	1.119085	-61.495115
11908		-0.169288	9.716805	1.318961	0.029874	-0.006029	-0.062622	82.417871	1.155626	-61.503739
11909		-0.148159	9.681838	1.285149	0.014141	0.000497	-0.063622	82.426680	1.193342	-61.508708
11910		-0.173901	9.667361	1.282143	0.039387	-0.005005	-0.066520	82.450107	1.232177	-61.517023
11911		-0.168236	9.691370	1.300485	0.035805	-0.004983	-0.071146	82.471241	1.273759	-61.525646
11912		-0.181693	9.659732	1.307623	0.045247	-0.006099	-0.072333	82.497990	1.315818	-61.534986
11913		-0.169701	9.715962	1.313812	0.052024	-0.009228	-0.070233	82.528350	1.356572	-61.545915
11914		-0.181927	9.724804	1.276160	0.043573	-0.005821	-0.066542	82.554137	1.395369	-61.554622
11915		-0.214209	9.759709	1.249134	0.040145	-0.004227	-0.067582	82.577753	1.434997	-61.562474
11916		-0.220335	9.759982	1.245936	0.025577	-0.003421	-0.058940	82.593266	1.469657	-61.569223
11917		-0.213065	9.742924	1.255094	0.022420	-0.005492	-0.058250	82.606716	1.503894	-61.577083
11918		-0.212240	9.775053	1.242323	0.011572	-0.005102	-0.058558	82.614172	1.538214	-61.584743
11919		-0.242931	9.687129	1.242200	-0.001532	-0.006127	-0.059276	82.613878	1.572989	-61.593031
11920		-0.210444	9.757680	1.253214	0.004277	-0.004693	-0.054234	82.617161	1.604881	-61.600136
11921		-0.215865	9.717264	1.297302	-0.002571	-0.006384	-0.044599	82.616288	1.631299	-61.607488
11922		-0.245156	9.710509	1.264383	-0.006977	-0.000255	-0.042700	82.613210	1.656960	-61.611218
11923		-0.255951	9.719274	1.286399	-0.002712	-0.005976	-0.031022	82.612286	1.675693	-61.617338
11924		-0.231089	9.684188	1.254848	0.002227	-0.005227	-0.024889	82.614433	1.690866	-61.622581
11925		-0.279660	9.704300	1.285850	0.002651	-0.002636	-0.011430	82.616678	1.698713	-61.625359
11926		-0.266574	9.727511	1.252576	0.010063	-0.006270	-0.000441	82.623346	1.699917	-61.629391
11927		-0.247102	9.742434	1.252651	-0.004017	-0.002769	0.001783	82.621796	1.700247	-61.631272
11928		-0.266129	9.727497	1.252780	-0.005780	-0.004125	0.003974	82.619432	1.699098	-61.633758
11929		-0.206773	9.731042	1.244511	-0.016064	-0.001568	0.003550	82.611004	1.698512	-61.634826
11930		-0.238614	9.651851	1.267861	-0.013972	-0.001729	0.000378	82.603979	1.699580	-61.636213
11931		-0.239756	9.692720	1.279023	-0.001206	-0.003828	-0.006067	82.604005	1.704291	-61.639275
11932		-0.252123	9.668915	1.257182	0.000000	0.000000	0.000000	82.605010	1.705699	-61.639706
11933		-0.259216	9.677868	1.278414	0.006487	-0.001613	0.003073	82.609501	1.705380	-61.640834
11934		-0.238711	9.733217	1.233715	0.012312	-0.000189	0.008109	82.617573	1.702164	-61.640772
11935		-0.251255	9.710224	1.265376	0.008455	-0.001381	0.013473	82.623219	1.695953	-61.641003
11936		-0.229621	9.684315	1.254133	0.016151	-0.003833	0.014470	82.633443	1.688853	-61.642544
11937		-0.247226	9.709958	1.208273	0.011758	-0.002383	0.008224	82.640953	1.685551	-61.643732
11938		-0.221250	9.716697	1.240833	0.005105	0.002324	0.009713	82.644940	1.681603	-61.642122
11939		-0.247080	9.710854	1.261352	0.008680	-0.002336	0.006197	82.650683	1.679457	-61.643432
11940		-0.239403	9.702008	1.239276	0.002525	-0.002242	0.002143	82.653098	1.679474	-61.644973
11941		-0.226042	9.684856	1.250600	0.000984	0.000117	0.005200	82.654470	1.678073	-61.644961
11942		-0.219905	9.676663	1.283240	0.007035	0.000584	0.002959	82.659518	1.677831	-61.644833
11943		-0.219203	9.717057	1.238376	0.007203	-0.002511	-0.001603	82.664395	1.680104	-61.646815
11944		-0.258843	9.728313	1.247963	-0.004840	-0.001308	0.000165	82.662599	1.681307	-61.647964
11945		-0.266303	9.737196	1.269815	-0.001536	-0.002313	-0.005085	82.662465	1.685574	-61.650088
11946		-0.226087	9.684864	1.250534	-0.015121	0.001250	-0.000260	82.654818	1.687204	-61.649813
11947		-0.239010	9.701888	1.240291	-0.010563	-0.003292	0.001425	82.649509	1.687699	-61.652017
11948		-0.239648	9.661473	1.285233	-0.005333	-0.001366	-0.002435	82.647421	1.690371	-61.653387
11949		-0.218908	9.675619	1.231481	-0.004289	0.000888	0.000050	82.645774	1.691954	-61.653315
11950		-0.252779	9.678609	1.274087	0.006874	-0.000993	-0.000623	82.650688	1.693621	-61.654338
11951		-0.227229	9.725586	1.262865	0.002093	-0.000164	-0.003173	82.652673	1.696958	-61.655101
11952		-0.239317	9.701803	1.240894	-0.000390	-0.000619	0.003696	82.653438	1.696195	-61.655592
11953		-0.246395	9.710732	1.262425	0.000552	0.002195	-0.000115	82.654586	1.697968	-61.654789
11954		-0.214004	9.708418	1.274275	-0.000882	-0.000677	0.001096	82.655062	1.698676	-61.655502
11955		-0.220204	9.716623	1.241594	-0.006257	0.000654	-0.010351	82.652260	1.706152	-61.656325
11956		-0.247510	9.710579	1.263387	-0.006155	0.000094	-0.004054	82.649714	1.709840	-61.656974
11957		-0.247785	9.710443	1.264375	-0.014241	0.001928	-0.001355	82.642380	1.712297	-61.656415
11958		-0.240653	9.701397	1.243811	-0.005993	0.001671	-0.000473	82.639959	1.714063	-61.655903
11959		-0.228041	9.684139	1.255778	-0.004062	-0.000068	-0.007227	82.638409	1.719711	-61.656910
11960		-0.215653	9.707155	1.223917	-0.012578	-0.000823	-0.017985	82.632134	1.731242	-61.659102
11961		-0.230802	9.683835	1.257618	-0.008678	-0.002330	-0.014339	82.627884	1.740765	-61.661918
11962		-0.232238	9.683701	1.258391	-0.007247	0.000545	-0.015549	82.624691	1.751008	-61.663152
11963		-0.229074	9.716346	1.301901	0.006011	-0.001495	-0.019395	82.628859	1.763464	-61.665866
11964		-0.255684	9.709720	1.268349	-0.002575	0.004946	-0.011151	82.628426	1.771528	-61.664271
11965		-0.269690	9.726866	1.256908	0.001657	0.001921	-0.008487	82.630185	1.778038	-61.664241
11966		-0.257327	9.709693	1.268224	0.001489	0.005013	-0.003924	82.632097	1.781998	-61.662075
11967		-0.243718	9.732893	1.235292	0.003792	0.003723	0.005494	82.635142	1.780696	-61.659992
11968		-0.276777	9.735854	1.277844	-0.000394	0.004046	0.011839	82.635994	1.775626	-61.657215
11969		-0.236076	9.724631	1.268585	-0.008975	0.005820	0.011939	82.631776	1.770815	-61.653466
11970		-0.279345	9.703061	1.235655	-0.008153	0.004360	0.013558	82.628188	1.764789	-61.650382
11971		-0.272037	9.694737	1.269356	-0.006016	0.001496	0.019395	82.625606	1.755425	-61.648542
11972		-0.243294	9.700659	1.249042	-0.011910	0.002606	0.025218	82.619859	1.742644	-61.645596
11973		-0.280476	9.711821	1.259685	-0.007622	0.001719	0.025169	82.616373	1.730015	-61.643202
11974		-0.264740	9.694609	1.271875	-0.007303	0.004872	0.032334	82.613318	1.713358	-61.638440
11975		-0.234589	9.700584	1.251288	-0.005013	0.003588	0.041755	82.611393	1.691443	-61.633761
11976		-0.198357	9.698243	1.263734	-0.007545	0.005839	0.039615	82.608226	1.670718	-61.627911
11977		-0.233818	9.668524	1.263715	-0.007808	0.004829	0.029737	82.604691	1.655723	-61.623410
11978		-0.218616	9.692298	1.285990	0.000268	0.007660	0.035186	82.606017	1.637646	-61.616847
11979		-0.194902	9.625282	1.265298	0.003033	-0.000213	0.021902	82.608593	1.626731	-61.615791
11980		-0.219877	9.700792	1.252343	0.006407	0.000915	0.013937	82.613277	1.620226	-61.614627
11981		-0.212262	9.651570	1.274672	-0.001449	0.001803	0.009357	82.613291	1.616588	-61.613350
11982		-0.158952	9.582109	1.265665	0.008550	0.000908	-0.009110	82.619153	1.623175	-61.613887
11983		-0.253546	9.663122	1.282227	0.028499	-0.001040	-0.026171	82.636206	1.639516	-61.616840
11984		-0.210002	9.765462	1.225180	0.024140	-0.002279	-0.023405	82.650915	1.653989	-61.620230
11985		-0.245644	9.727585	1.256273	0.000338	0.001335	-0.029866	82.651862	1.672604	-61.622097
11986		-0.208830	9.716266	1.246350	0.004561	-0.001691	-0.027199	82.655353	1.689274	-61.625427
11987		-0.237137	9.669322	1.256971	-0.001720	-0.005865	-0.025826	82.655008	1.705066	-61.631091
11988		-0.252553	9.605195	1.278834	0.009834	-0.007132	-0.030191	82.661417	1.723036	-61.637730
11989		-0.267665	9.662823	1.221843	0.018630	-0.005193	-0.029421	82.672732	1.740921	-61.643271
11990		-0.252422	9.678610	1.274147	0.035942	-0.007167	-0.026034	82.694104	1.756528	-61.649617
11991		-0.287085	9.762557	1.225395	0.028833	-0.005210	-0.018134	82.711287	1.768001	-61.654335
11992		-0.235605	9.653196	1.258148	0.030412	-0.010262	-0.012178	82.729463	1.775511	-61.661423
11993		-0.237054	9.734795	1.221522	0.027883	-0.008017	-0.014320	82.746060	1.784616	-61.667454
11994		-0.271341	9.697027	1.251898	0.013315	-0.004576	-0.014698	82.754532	1.793970	-61.671486
11995		-0.245781	9.703195	1.228687	0.028531	-0.006373	-0.008139	82.771542	1.799683	-61.676131
11996		-0.220555	9.587958	1.282894	0.027601	-0.004354	-0.016054	82.788198	1.809824	-61.680127
11997		-0.295520	9.724135	1.253264	0.053426	-0.005377	-0.021774	82.819456	1.823363	-61.685182
11998		-0.264567	9.762659	1.215990	0.046436	0.000850	-0.019310	82.846986	1.835729	-61.686438
11999		-0.279317	9.780279	1.200163	0.041536	-0.002591	-0.016425	82.871493	1.846430	-61.689514
12000		-0.287841	9.789672	1.218031	0.033068	-0.001379	-0.010033	82.891343	1.853363	-61.691367
12001		-0.228886	9.752605	1.196155	0.012800	0.000048	-0.009155	82.899451	1.860119	-61.692420
12002		-0.295049	9.717005	1.215602	0.011316	0.004542	-0.008820	82.906950	1.866780	-61.690815
12003		-0.288182	9.627005	1.226726	0.018123	0.001430	-0.006719	82.918139	1.872249	-61.690907
12004		-0.245154	9.730189	1.223440	0.040525	0.001985	-0.013484	82.942313	1.881381	-61.691082
12005		-0.272227	9.764768	1.197222	0.022949	0.002753	-0.006884	82.956292	1.887036	-61.690429
12006		-0.304926	9.686059	1.217428	0.019544	0.004309	-0.007934	82.968500	1.893172	-61.688884
12007		-0.274897	9.806241	1.203381	0.020532	-0.000246	-0.010865	82.981029	1.900882	-61.690214
12008		-0.332211	9.558151	1.260846	-0.024641	-0.001851	-0.013508	82.967790	1.909754	-61.692563
12009		-0.266945	9.472118	1.260949	0.092431	-0.020489	-0.018666	83.021110	1.920486	-61.705954
12010		-0.155576	9.927991	1.128276	0.064745	-0.010791	-0.020658	83.058891	1.932807	-61.713874
12011		-0.280085	9.725558	1.169994	-0.016848	0.000084	-0.037803	83.049944	1.955863	-61.716872
12012		-0.316756	9.687540	1.202531	0.017765	-0.006278	-0.041857	83.060841	1.980549	-61.723687
12013		-0.264273	9.854479	1.178216	0.002072	-0.009408	-0.039282	83.062541	2.003789	-61.732188
12014		-0.155536	9.909914	1.083450	-0.032721	-0.004634	-0.038799	83.044546	2.026848	-61.737854
12015		-0.377508	9.909378	1.184712	-0.145930	0.017227	-0.041707	82.961973	2.053317	-61.731391
12016		-0.363285	9.084947	1.350235	-0.049441	-0.007844	-0.041421	82.934324	2.077626	-61.739111
12017		-0.230916	10.107810	1.109264	0.023686	-0.014655	-0.046792	82.948263	2.104749	-61.751175
12018		-0.338016	9.439420	1.273490	-0.093056	-0.002748	-0.064250	82.895659	2.142393	-61.757617
12019		-0.296393	9.736189	1.197220	0.020105	-0.012323	-0.073991	82.907508	2.185137	-61.770301
12020		-0.341184	9.584569	1.275283	-0.025729	-0.004155	-0.069239	82.893422	2.225514	-61.777908
12021		-0.336825	9.729566	1.219253	0.015822	-0.009264	-0.076650	82.902859	2.269985	-61.789044
12022		-0.310554	9.726541	1.176028	-0.005473	-0.008007	-0.080954	82.900242	2.316750	-61.799671
12023		-0.319699	9.767151	1.187421	-0.017155	-0.006226	-0.082875	82.890819	2.364975	-61.809522
12024		-0.398554	9.658134	1.265157	-0.013928	-0.004665	-0.077269	82.883431	2.409875	-61.817996
12025		-0.332549	9.724528	1.124984	-0.003350	-0.013301	-0.085940	82.881721	2.459338	-61.832102
12026		-0.412944	9.893553	1.252397	-0.011754	-0.000695	-0.066010	82.875697	2.498116	-61.837523
12027		-0.305732	9.632407	1.208115	-0.061093	-0.009199	-0.047839	82.841103	2.526205	-61.846600
12028		-0.483331	9.732871	1.248598	0.004200	-0.007772	-0.038858	82.844120	2.549035	-61.854130
12029		-0.412556	9.637913	1.231632	-0.036779	0.001236	-0.047810	82.823715	2.577850	-61.857279
12030		-0.321025	9.713186	1.234978	-0.001683	-0.011348	-0.041167	82.823251	2.601737	-61.867018
12031		-0.448651	9.712033	1.222555	-0.033106	-0.006100	-0.042309	82.804775	2.626898	-61.873957
12032		-0.445289	9.702751	1.202986	-0.006960	-0.003795	-0.040892	82.801477	2.651164	-61.879385
12033		-0.319964	9.695145	1.251658	-0.023952	-0.001300	-0.047949	82.788347	2.679873	-61.884007
12034		-0.376845	9.721520	1.197964	-0.029497	-0.008879	-0.062072	82.771921	2.715808	-61.893863
12035		-0.390327	9.689468	1.266521	-0.027623	-0.010553	-0.068809	82.756358	2.755704	-61.905273
12036		-0.429404	9.690583	1.257548	-0.029670	-0.006103	-0.071057	82.739862	2.796937	-61.914218
12037		-0.423151	9.672976	1.271669	-0.024376	-0.009307	-0.076751	82.726148	2.841431	-61.925519
12038		-0.430583	9.712697	1.229607	-0.018528	-0.005687	-0.074435	82.716019	2.884607	-61.934490
12039		-0.471997	9.754765	1.230163	-0.020446	-0.006452	-0.078523	82.704614	2.930311	-61.944313
12040		-0.426252	9.726683	1.234705	-0.038011	-0.003696	-0.074612	82.683364	2.973728	-61.952185
12041		-0.450754	9.629304	1.271860	-0.039267	-0.007468	-0.080656	82.661120	3.020563	-61.962774
12042		-0.420854	9.659130	1.275259	-0.017098	-0.008197	-0.091005	82.651636	3.072958	-61.974436
12043		-0.437334	9.707575	1.254813	-0.025731	-0.006486	-0.090886	82.637117	3.125673	-61.985242
12044		-0.505384	9.701831	1.266491	-0.019053	-0.004596	-0.100494	82.626562	3.183715	-61.995573
12045		-0.488075	9.707776	1.246873	-0.013910	-0.004429	-0.088095	82.618872	3.234992	-62.005023
12046		-0.498911	9.748050	1.258872	-0.016890	-0.005259	-0.097363	82.609526	3.291201	-62.015518
12047		-0.469310	9.777450	1.207641	-0.037429	-0.003404	-0.102717	82.588311	3.350857	-62.025488
12048		-0.537771	9.730687	1.265685	-0.054205	-0.004579	-0.108010	82.557539	3.413154	-62.036426
12049		-0.497854	9.783869	1.238835	-0.049812	-0.006236	-0.115308	82.529051	3.479743	-62.049006
12050		-0.540783	9.743408	1.277386	-0.078298	-0.001144	-0.114370	82.484537	3.545895	-62.058537
12051		-0.570808	9.726452	1.283637	-0.057014	-0.008924	-0.115512	82.451791	3.612382	-62.072750
12052		-0.557920	9.772645	1.279976	-0.085196	-0.003177	-0.118247	82.403203	3.680567	-62.083824
12053		-0.583090	9.633167	1.309866	-0.070971	-0.002676	-0.119608	82.362630	3.749833	-62.094894
12054		-0.578000	9.687947	1.327540	-0.066042	0.002468	-0.118885	82.325191	3.818793	-62.102904
12055		-0.701351	9.552564	1.374621	-0.050908	-0.000674	-0.115946	82.296177	3.886119	-62.112644
12056		-0.557220	9.594318	1.358717	0.004963	-0.006076	-0.114869	82.299082	3.952137	-62.125263
12057		-0.619250	9.733564	1.259515	-0.022958	0.002469	-0.123968	82.286139	4.024256	-62.133854
12058		-0.660278	9.766231	1.293193	-0.012681	-0.006581	-0.128990	82.278803	4.098245	-62.147867
12059		-0.615654	9.657216	1.330679	-0.047146	-0.003042	-0.133032	82.251700	4.175082	-62.160332
12060		-0.647502	9.640364	1.332719	-0.003251	-0.005990	-0.140115	82.249687	4.255423	-62.174912
12061		-0.666306	9.720911	1.355366	-0.020478	0.003182	-0.141665	82.238041	4.337637	-62.184534
12062		-0.728673	9.664155	1.334069	-0.012970	-0.000582	-0.144249	82.230624	4.420737	-62.196380
12063		-0.693626	9.604620	1.347023	-0.001165	0.003746	-0.144161	82.230024	4.504409	-62.205897
12064		-0.759781	9.629459	1.290555	0.010726	0.003703	-0.138686	82.236374	4.584681	-62.214873
12065		-0.732528	9.578916	1.377475	0.021827	0.000753	-0.129431	82.248877	4.659762	-62.224935
12066		-0.742814	9.651701	1.373841	0.050674	-0.000960	-0.123225	82.277973	4.730901	-62.235330
12067		-0.785286	9.538145	1.347348	0.036374	0.009718	-0.108287	82.299352	4.794674	-62.238596
12068		-0.796553	9.578660	1.298389	0.069026	0.003649	-0.092101	82.339363	4.848503	-62.243901
12069		-0.827605	9.604076	1.356411	0.072430	0.007489	-0.075706	82.381504	4.893608	-62.245866
12070		-0.779484	9.806107	1.208030	0.067344	0.003198	-0.069158	82.420673	4.934382	-62.249607
12071		-0.815220	9.725682	1.279863	0.020827	-0.000780	-0.066919	82.432900	4.973874	-62.255568
12072		-0.827804	9.733503	1.244923	0.020030	-0.003677	-0.063129	82.444659	5.010707	-62.262746
12073		-0.817566	9.676119	1.299709	-0.008080	-0.004068	-0.050549	82.440260	5.040655	-62.269334
12074		-0.809912	9.659483	1.366022	0.001588	-0.010066	-0.053602	82.441188	5.071595	-62.279431
12075		-0.819713	9.666822	1.278630	-0.003025	-0.009991	-0.049866	82.439384	5.100709	-62.289346
12076		-0.777800	9.649348	1.302558	-0.013064	-0.002496	-0.045828	82.432340	5.127802	-62.294541
12077		-0.794458	9.624980	1.334880	0.019324	-0.004215	-0.048533	82.443635	5.156594	-62.301063
12078		-0.800095	9.738492	1.289071	0.011235	-0.001256	-0.055758	82.450501	5.189417	-62.306292
12079		-0.835944	9.584438	1.364282	0.017352	0.004532	-0.067056	82.460986	5.229390	-62.309216
12080		-0.851782	9.633192	1.338750	0.047213	0.007367	-0.061078	82.488870	5.265883	-62.309909
12081		-0.839945	9.689391	1.235906	0.047537	0.005901	-0.062051	82.516755	5.303117	-62.311643
12082		-0.856541	9.811791	1.263360	0.038248	0.002934	-0.072612	82.539188	5.345831	-62.315693
12083		-0.874559	9.787052	1.238858	0.013715	0.001564	-0.076169	82.547365	5.390764	-62.320931
12084		-0.927532	9.689461	1.260023	-0.008299	-0.005722	-0.078470	82.542617	5.436163	-62.330353
12085		-0.806343	9.614230	1.307834	0.002247	-0.005047	-0.084431	82.543796	5.485298	-62.339981
12086		-0.883138	9.655046	1.293587	0.025091	0.002238	-0.090440	82.558512	5.538088	-62.345738
12087		-0.858382	9.800778	1.301726	0.027421	-0.005923	-0.099965	82.573939	5.595988	-62.357005
12088		-0.826396	9.750575	1.279830	0.003252	0.013104	-0.139760	82.576378	5.677602	-62.360206
12089		-0.819145	9.538618	1.366836	0.047652	0.015972	-0.153270	82.604220	5.767411	-62.362908
12090		-0.889400	9.822380	1.258633	0.076689	0.023276	-0.179616	82.649018	5.872415	-62.363159
12091		-0.947543	9.829303	1.207531	0.047866	0.026191	-0.206605	82.677182	5.993284	-62.363833
12092		-0.947136	9.949556	1.192360	0.022015	0.025430	-0.232439	82.690385	6.128461	-62.366631
12093		-0.973155	9.728068	1.248113	-0.009142	0.026881	-0.259814	82.685509	6.279618	-62.370760
12094		-1.004485	9.620219	1.314395	0.005083	0.033760	-0.273837	82.689189	6.438924	-62.371824
12095		-0.928602	9.504077	1.283084	0.036619	0.047439	-0.289032	82.711606	6.608184	-62.366304
12096		-1.093026	9.687502	1.238990	0.074652	0.049443	-0.307403	82.755911	6.787700	-62.360705
12097		-1.053258	9.823938	1.233690	0.033576	0.061209	-0.323651	82.777286	6.977624	-62.349617
12098		-1.084834	9.674419	1.230289	0.055341	0.064752	-0.351049	82.811278	7.183040	-62.338207
12099		-1.177069	9.767700	1.221129	0.061824	0.069708	-0.371471	82.849125	7.400744	-62.325472
12100		-1.260443	9.705448	1.192692	0.041038	0.075823	-0.390405	82.875499	7.629304	-62.310280
12101		-1.173617	9.672594	1.245668	0.060518	0.080413	-0.407371	82.913216	7.868164	-62.293711
12102		-1.314421	9.738067	1.201612	0.068461	0.084910	-0.427213	82.955830	8.118271	-62.275609
12103		-1.317359	9.726116	1.185211	0.049512	0.088928	-0.446571	82.987738	8.379997	-62.256578
12104		-1.391197	9.679295	1.210791	0.065655	0.087875	-0.463637	83.028829	8.650999	-62.238988
12105		-1.385919	9.724483	1.205500	0.039833	0.096976	-0.485196	83.055717	8.935228	-62.217686
12106		-1.487593	9.666455	1.198728	0.046868	0.102653	-0.511180	83.087084	9.234269	-62.194577
12107		-1.520145	9.742179	1.224806	0.049321	0.108411	-0.544293	83.120088	9.552877	-62.170458
12108		-1.543802	9.598061	1.254071	0.054622	0.110072	-0.583386	83.156089	9.893470	-62.147683
12109		-1.600233	9.792857	1.198218	0.101003	0.106055	-0.619545	83.217931	10.254695	-62.129601
12110		-1.702385	9.787825	1.144109	0.036897	0.138550	-0.646933	83.246360	10.633324	-62.094087
12111		-1.771785	9.711800	1.159297	0.071166	0.125741	-0.680295	83.292813	11.030411	-62.068179
12112		-1.840944	9.765815	1.183417	0.035933	0.141918	-0.716444	83.320746	11.448771	-62.034844
12113		-1.955456	9.658574	1.165015	0.054538	0.145119	-0.739528	83.359621	11.880824	-62.001119
12114		-2.106398	9.781832	1.075180	0.041889	0.139581	-0.771132	83.390521	12.330112	-61.972224
12115		-2.131658	9.682683	1.150500	0.000286	0.144334	-0.800469	83.397951	12.796766	-61.942541
12116		-2.149878	9.804257	1.180550	0.010898	0.142935	-0.834426	83.411106	13.282286	-61.915619
12117		-2.345977	9.846780	1.247818	-0.024548	0.158387	-0.877176	83.405564	13.793516	-61.882663
12118		-2.422661	9.686620	1.216191	-0.020030	0.154989	-0.909867	83.401955	14.322764	-61.853675
12119		-2.349211	9.714094	1.298637	-0.009267	0.159061	-0.941378	83.404785	14.870584	-61.824583
12120		-2.392656	9.773784	1.318214	0.009215	0.186978	-0.983288	83.422144	15.443715	-61.781488
12121		-2.406101	9.901979	1.216424	0.026182	0.202613	-1.025527	83.451416	16.042267	-61.731875
12122		-2.501577	10.145129	1.291778	0.055238	0.230119	-1.061636	83.501962	16.662741	-61.667575
12123		-2.522577	10.669935	1.111235	0.124304	0.235411	-1.102608	83.593119	17.307197	-61.602101
12124		-2.577832	10.493570	1.226628	0.180222	0.256806	-1.185722	83.719757	17.999789	-61.527584
12125		-3.265082	10.070886	0.630960	0.190064	0.302629	-1.300314	83.859828	18.760752	-61.431297
12126		-3.577432	9.952495	0.274055	0.399598	0.260583	-1.411290	84.111682	19.581659	-61.363950
12127		-3.541655	11.554461	1.157983	0.417161	0.231065	-1.494467	84.368045	20.448445	-61.315643
12128		-3.735516	12.981658	2.145916	0.328959	0.206563	-1.513615	84.570332	21.324145	-61.279157
12129		-3.230464	10.952179	1.403964	0.045229	0.296498	-1.550621	84.631069	22.226188	-61.187471
12130		-3.688098	10.373365	0.734183	0.204724	0.268060	-1.661840	84.776279	23.189490	-61.117057
12131		-3.762059	10.808733	0.987437	0.162710	0.269019	-1.751160	84.897899	24.204191	-61.048426
12132		-3.892236	10.481737	0.841656	0.129011	0.270889	-1.830832	85.001185	25.263753	-60.979939
12133		-3.903122	10.715141	1.121592	0.172371	0.268888	-1.910944	85.129271	26.369399	-60.914471
12134		-3.763378	10.645155	1.204332	0.131623	0.306117	-1.982555	85.245749	27.516952	-60.825343
12135		-4.237470	10.909387	1.372722	0.187679	0.307258	-2.052493	85.396386	28.704949	-60.735590
12136		-3.856724	12.239299	2.101950	0.063361	0.368338	-2.113576	85.497468	29.929705	-60.604539
12137		-4.618827	10.284514	1.275234	-0.011552	0.429238	-2.173813	85.579016	31.192132	-60.432738
12138		-5.707008	8.288481	-0.564953	0.204148	0.431853	-2.264212	85.789151	32.505087	-60.257127
12139		-7.506792	6.936492	-1.322227	0.511440	0.359736	-2.447741	86.152881	33.920122	-60.129574
12140		-8.956868	8.550417	-1.582008	0.999754	0.211164	-2.658447	86.744643	35.448684	-60.097405
12141		-11.449245	8.057976	-0.445141	1.085609	0.244427	-3.006823	87.405460	37.177934	-60.033325
12142		-12.677874	8.479667	0.157457	0.981571	0.300776	-3.394274	88.043285	39.129066	-59.912571
12143		-13.149064	8.980722	-0.109279	1.148825	0.277240	-3.664031	88.787235	41.233562	-59.781103
12144		-12.237483	10.102543	-0.095655	1.103625	0.202420	-3.618638	89.497632	43.309732	-59.666466
12145		-12.783012	15.229241	1.985774	0.864717	0.113377	-3.371873	90.049601	45.243496	-59.586740
12146		-10.289163	14.879742	1.861781	0.442239	-0.066821	-2.908461	90.268768	46.911399	-59.635405
12147		-9.565064	13.331361	1.661733	-0.042892	-0.123714	-2.348953	90.172838	48.259102	-59.733143
12148		-10.992774	12.836205	1.476365	-0.313285	-0.229700	-1.938311	89.843615	49.370852	-59.932874
12149		-11.697161	11.846282	1.275299	-0.489338	-0.386571	-1.757937	89.291950	50.377966	-60.288711
12150		-11.921580	10.032355	1.021864	-0.696619	-0.540178	-1.750996	88.488788	51.376069	-60.810068
12151		-12.604639	8.596363	0.679061	-0.669374	-0.726337	-1.922470	87.525977	52.464023	-61.546972
12152		-12.751273	8.641870	0.289359	-0.678315	-0.941325	-2.164305	86.332587	53.674489	-62.554172
12153		-11.975514	8.021112	-0.116879	-0.583072	-1.134067	-2.411323	84.949434	55.004331	-63.846233
12154		-10.916590	7.745640	-0.322977	-0.429418	-1.265628	-2.600354	83.424150	56.414295	-65.395037
12155		-9.905753	7.806197	-0.198815	-0.267948	-1.350526	-2.712597	81.772909	57.857569	-67.178884
12156		-8.680092	7.692462	-0.182406	-0.123693	-1.387858	-2.731417	80.011941	59.278153	-69.160074
12157		-7.685004	7.653321	-0.061563	0.015313	-1.373972	-2.649678	78.187937	60.621779	-71.278181
12158		-6.823275	7.588197	0.183468	0.152805	-1.316758	-2.488458	76.362781	61.847407	-73.460599
12159		-6.501156	8.139403	0.587598	0.214552	-1.220286	-2.289932	74.560933	62.943582	-75.633389
12160		-6.220871	8.715956	1.251775	0.217721	-1.071624	-2.065958	72.843444	63.908152	-77.693673
12161		-6.068546	8.974325	1.852257	0.086346	-0.870574	-1.841757	71.227425	64.759651	-79.542298
12162		-6.237719	9.306413	2.320430	-0.148908	-0.633790	-1.631080	69.729684	65.519437	-81.099295
12163		-6.559815	9.157089	2.498137	-0.390596	-0.398836	-1.461403	68.359976	66.221091	-82.355771
12164		-6.653636	9.078618	2.771192	-0.644006	-0.151253	-1.353776	67.128652	66.906021	-83.295768
12165		-6.546500	8.671250	2.933936	-0.933634	0.075736	-1.250702	66.008060	67.582152	-83.931720
12166		-6.241683	8.125189	2.756651	-1.231348	0.286334	-1.138070	65.004700	68.243021	-84.253049
12167		-6.369181	7.305314	2.226231	-1.446015	0.466719	-1.033513	64.142267	68.893963	-84.290355
12168		-6.403786	6.699963	1.718778	-1.492105	0.602440	-0.906172	63.500331	69.511306	-84.062215
12169		-6.097175	6.083782	1.253354	-1.443587	0.693697	-0.741909	63.117493	70.070935	-83.589654
12170		-5.602017	5.527163	1.024737	-1.330887	0.734523	-0.540506	63.011729	70.536542	-82.891598
12171		-5.205323	4.923845	0.870592	-1.192653	0.725634	-0.302642	63.161453	70.880668	-82.009834
12172		-4.961635	4.802101	0.938803	-0.989615	0.641152	-0.049004	63.510581	71.069288	-81.040182
12173		-4.664648	5.003994	1.342892	-0.811600	0.467938	0.257431	63.934735	71.057048	-80.100994
12174		-4.046349	4.903667	1.714651	-0.703242	0.223399	0.595250	64.296265	70.804555	-79.291450
12175		-4.197380	5.396150	2.014261	-0.684461	-0.057281	0.901556	64.451667	70.325941	-78.711656
12176		-3.997343	5.116969	1.987734	-0.709756	-0.364373	1.167340	64.322399	69.630809	-78.415578
12177		-3.366009	4.192143	1.629216	-0.722253	-0.654384	1.413270	63.948744	68.739942	-78.373466
12178		-2.624055	3.479774	1.074952	-0.626520	-0.935402	1.640068	63.430562	67.658063	-78.543993
12179		-1.726376	3.389889	0.809167	-0.465483	-1.177460	1.835937	62.863354	66.416149	-78.871208
12180		-0.474635	4.120978	0.946379	-0.360199	-1.366014	2.071260	62.328459	65.000200	-79.230672
12181		0.689874	4.994536	0.953940	-0.337753	-1.488834	2.422873	61.916784	63.375521	-79.473868
12182		1.865912	5.561851	1.014128	-0.415313	-1.500208	2.831532	61.696905	61.537160	-79.452522
12183		2.617296	5.209607	0.550286	-0.509738	-1.378022	3.165288	61.695757	59.567322	-79.119395
12184		2.501354	4.039456	-0.629291	-0.590073	-1.101464	3.366448	61.939207	57.566320	-78.436920
12185		2.248013	3.305559	-1.518150	-0.414415	-0.853957	3.523477	62.471285	55.553520	-77.515832
12186		2.211938	2.912727	-1.963134	-0.171723	-0.644376	3.631816	63.245893	53.530290	-76.443313
12187		2.295955	3.228307	-2.094451	0.066668	-0.432262	3.731905	64.228023	51.504422	-75.255015
12188		2.193892	3.911806	-1.693059	0.283771	-0.237137	3.831563	65.376200	49.456871	-73.976841
12189		1.774252	4.297310	-1.476003	0.473919	-0.081766	3.903373	66.624989	47.395933	-72.671896
12190		1.055255	5.092898	-0.893626	0.620746	0.002000	3.952665	67.900986	45.304147	-71.399593
12191		0.450262	5.915427	-0.146052	0.723836	-0.013165	4.019485	69.130231	43.159708	-70.233398
12192		-0.683334	6.790182	0.668141	0.737917	-0.137323	4.089940	70.222157	40.931177	-69.234012
12193		-1.864495	7.023355	1.156638	0.760091	-0.404770	4.159414	71.132125	38.606900	-68.493823
12194		-3.016996	7.397560	1.682265	0.782495	-0.748834	4.198596	71.854759	36.185609	-68.042015
12195		-3.240521	8.098662	2.271249	0.794437	-1.120894	4.220996	72.401818	33.688207	-67.883150
12196		-2.688419	8.888761	2.626498	0.730439	-1.399553	4.242351	72.797614	31.124957	-67.925659
12197		-2.570577	8.500850	1.993455	0.650306	-1.539496	4.272458	73.098746	28.527425	-68.071064
12198		-1.874702	8.215198	1.310355	0.702539	-1.554295	4.286113	73.428035	25.915113	-68.231925
12199		-1.616972	8.546536	1.120243	0.784255	-1.394287	4.262564	73.842012	23.348164	-68.318884
12200		-2.213564	8.566249	1.257619	0.877794	-1.137871	4.191379	74.359322	20.855717	-68.282658
12201		-3.498261	8.959199	1.865040	0.960321	-0.898968	4.084128	74.953962	18.464273	-68.153306
12202		-5.123381	10.120841	2.885840	1.043968	-0.739985	3.959881	75.605897	16.157920	-67.976132
12203		-6.748148	10.851679	3.916545	1.040575	-0.637481	3.816612	76.250536	13.949464	-67.793082
12204		-7.962352	11.108572	4.404364	0.942149	-0.526373	3.598311	76.834926	11.870153	-67.599103
12205		-8.468892	10.766614	4.301575	0.839507	-0.348382	3.320732	77.361102	9.972473	-67.365201
12206		-8.231559	10.916681	4.052579	0.799705	-0.133118	3.079941	77.869670	8.228832	-67.054961
12207		-7.275252	11.774202	3.949768	0.774233	0.145030	2.928643	78.369601	6.605390	-66.625175
12208		-7.020493	11.616504	3.515572	0.662163	0.525421	2.808995	78.813305	5.084022	-66.006404
12209		-8.212957	10.829951	2.999650	0.632479	0.834586	2.653127	79.234664	3.684236	-65.245866
12210		-10.178299	10.102085	3.049047	0.685880	0.999630	2.424791	79.672582	2.420382	-64.425502
12211		-11.427042	10.298486	3.603311	0.715919	0.995806	2.133953	80.108923	1.318347	-63.649307
12212		-12.278621	10.264422	4.118881	0.606113	0.913866	1.799965	80.467639	0.388002	-62.957683
12213		-12.605048	10.322613	4.183509	0.481180	0.743803	1.437013	80.744317	-0.353225	-62.403336
12214		-12.257173	10.534538	4.064777	0.334871	0.534363	1.090244	80.932660	-0.922480	-62.000527
12215		-11.440606	10.925026	4.100505	0.208410	0.310111	0.799655	81.047994	-1.345646	-61.753722
12216		-10.335145	10.958999	3.987126	0.001150	0.095636	0.581598	81.046644	-1.666781	-61.647029
12217		-9.195582	10.158744	3.403248	-0.195973	-0.103508	0.404740	80.935877	-1.903580	-61.669782
12218		-8.037492	8.715846	2.529627	-0.319565	-0.277210	0.245174	80.758089	-2.067343	-61.803987
12219		-6.770449	7.464177	1.536521	-0.364841	-0.403333	0.087956	80.557977	-2.153060	-62.024473
12220		-5.398352	6.977260	0.837829	-0.354116	-0.406045	-0.069515	80.364565	-2.151629	-62.260615
12221		-28.444412	22.143645	-1.596036	0.684842	0.253728	-1.642695	80.758102	-1.197816	-62.272052
12222		7.165999	24.083140	3.545486	0.529100	-0.101967	-1.349951	81.064621	-0.441405	-62.452608
12223		-0.922938	22.563329	-0.459708	-0.738890	-0.196379	0.137855	80.642921	-0.535746	-62.551627
12224		-1.539044	6.482310	1.551286	-1.073576	0.181444	0.562367	80.026868	-0.834244	-62.395673
12225		-0.667719	5.686939	1.439503	-0.624257	0.138690	0.189504	79.668516	-0.925600	-62.298815
12226		2.470273	7.708389	3.020667	-0.313959	0.059679	-0.101785	79.489179	-0.860299	-62.276421
12227		0.021471	6.580875	2.382678	-0.209202	0.014001	-0.285410	79.370430	-0.696563	-62.299057
12228		0.452805	7.957329	1.972772	0.158425	-0.029904	-0.443777	79.462649	-0.448090	-62.363216
12229		0.268575	9.753497	1.729347	0.241712	0.031940	-0.426305	79.602101	-0.203062	-62.390116
12230		-0.636758	10.499405	1.937060	0.210519	0.006476	-0.332055	79.723571	-0.013569	-62.421195
12231		-0.314179	10.990904	1.654910	0.202258	-0.034472	-0.210119	79.840232	0.102922	-62.462502
12232		-0.005780	10.501192	1.593878	0.022285	-0.007901	-0.102334	79.853769	0.161536	-62.477901
12233		-0.024348	9.965329	1.704305	-0.032527	-0.005427	-0.074153	79.835905	0.204324	-62.488963
12234		-0.042127	9.685441	1.752499	-0.064148	-0.009096	-0.062413	79.799921	0.240294	-62.501026
12235		0.025622	9.331279	1.798876	-0.045474	-0.007149	-0.045845	79.774634	0.266935	-62.510227
12236		0.131542	8.883104	1.859918	0.009749	-0.002020	-0.058483	79.780993	0.301397	-62.517921
12237		0.110101	8.859991	1.885659	0.123808	0.012140	-0.114357	79.852707	0.368632	-62.523171
12238		0.049549	9.099472	1.823548	0.237736	0.019514	-0.139615	79.989687	0.451029	-62.526753
12239		-0.088277	9.610076	1.738982	0.306623	0.026589	-0.139036	80.166184	0.533642	-62.525977
12240		-0.145611	9.760041	1.669555	0.316265	0.017658	-0.130634	80.348142	0.610802	-62.529248
12241		-0.108901	10.155093	1.563966	0.301365	0.012349	-0.124590	80.521559	0.683890	-62.534629
12242		-0.120131	10.199404	1.550460	0.200791	0.015842	-0.094896	80.637387	0.740698	-62.535144
12243		-0.093627	9.699356	1.543012	0.132793	0.010968	-0.092875	80.714241	0.795749	-62.538053
12244		-0.054701	9.424739	1.620961	0.162443	0.002890	-0.133399	80.807947	0.873139	-62.549257
12245		-0.060883	9.746478	1.567390	0.197486	0.000668	-0.163254	80.921667	0.967076	-62.564216
12246		-0.111947	9.341867	1.638564	0.183700	0.004154	-0.185326	81.027448	1.073997	-62.579080
12247		-0.098165	9.711215	1.568392	0.295414	-0.002585	-0.221183	81.197089	1.200501	-62.600605
12248		-0.261959	9.867374	1.467996	0.213437	0.012435	-0.201057	81.319924	1.317118	-62.611615
12249		-0.208264	9.692353	1.455316	0.233839	-0.000350	-0.179724	81.454328	1.420429	-62.627708
12250		-0.200236	9.946475	1.425429	0.218339	0.000998	-0.159823	81.579871	1.512761	-62.641192
12251		-0.271905	9.741107	1.415051	0.160474	0.005765	-0.131922	81.672402	1.589553	-62.649398
12252		-0.283861	9.620248	1.472789	0.205374	0.007208	-0.118718	81.790688	1.659137	-62.655625
12253		-0.237291	9.708405	1.410129	0.211018	-0.001040	-0.123729	81.912072	1.730761	-62.666726
12254		-0.224550	9.880677	1.304326	0.185110	-0.003625	-0.129540	82.018521	1.805639	-62.679684
12255		-0.281779	9.697862	1.375358	0.130637	-0.009611	-0.136947	82.093639	1.884125	-62.696443
12256		-0.294818	9.699476	1.361169	0.162890	-0.021726	-0.136343	82.186970	1.961481	-62.719985
12257		-0.303083	9.896718	1.324325	0.142207	-0.018861	-0.114355	82.268560	2.026474	-62.740012
12258		-0.283976	9.740808	1.302643	0.090833	-0.008950	-0.087051	82.320955	2.076884	-62.752298
12259		-0.337996	9.720759	1.313865	0.120076	-0.018835	-0.091146	82.389898	2.128744	-62.770397
12260		-0.373598	9.797248	1.291401	0.105516	-0.018060	-0.082351	82.450507	2.175820	-62.787394
12261		-0.296733	9.808268	1.251069	0.066405	-0.020508	-0.087813	82.488645	2.225697	-62.806091
12262		-0.291860	9.791021	1.203451	0.020334	-0.026619	-0.100729	82.500177	2.282590	-62.829269
12263		-0.317603	9.572242	1.313334	-0.008171	-0.025829	-0.107710	82.495368	2.343380	-62.852458
12264		-0.265002	9.649331	1.301122	0.038757	-0.027787	-0.129419	82.517290	2.416482	-62.878433
12265		-0.365296	9.761140	1.307712	0.020753	-0.016366	-0.138770	82.529128	2.495633	-62.898534
12266		-0.395992	9.745489	1.251103	0.020492	-0.014186	-0.110652	82.540920	2.559092	-62.915338
12267		-0.430179	9.657631	1.303293	0.038486	-0.011423	-0.096708	82.563142	2.614723	-62.929463
12268		-0.406519	9.696450	1.265875	0.057954	0.003988	-0.074012	82.596969	2.658721	-62.933166
12269		-0.383279	9.540634	1.304301	0.082083	0.004229	-0.066928	82.644668	2.698600	-62.936128
12270		-0.428871	9.788207	1.237103	0.126583	0.000132	-0.065474	82.717738	2.737465	-62.941321
12271		-0.413445	9.722393	1.206640	0.066986	0.012173	-0.061607	82.757024	2.774902	-62.939296
12272		-0.426580	9.731925	1.220236	0.098766	0.000294	-0.063550	82.814165	2.812691	-62.944187
12273		-0.415566	9.788705	1.223163	0.054569	0.009308	-0.074122	82.846217	2.857033	-62.944627
12274		-0.443503	9.619554	1.252195	0.059710	0.016825	-0.062638	82.881453	2.895482	-62.939989
12275		-0.480273	9.776266	1.199063	0.087095	0.008888	-0.059924	82.932183	2.931722	-62.939604
12276		-0.490524	9.704489	1.247596	0.055149	0.021676	-0.050732	82.964998	2.963733	-62.931306
12277		-0.522064	9.738954	1.218135	0.084669	0.013962	-0.037645	83.014572	2.987658	-62.926419
12278		-0.480969	9.801396	1.145283	0.053663	0.015803	-0.023253	83.046468	3.003620	-62.919506
12279		-0.460654	9.695685	1.219869	0.020761	0.018970	-0.015664	83.059659	3.015386	-62.910214
12280		-0.412993	9.555485	1.261913	0.068219	0.016829	-0.028415	83.099913	3.034345	-62.903058
12281		-0.425454	9.645296	1.188033	0.072062	0.017177	-0.041059	83.142357	3.060422	-62.896519
12282		-0.521290	9.643880	1.233952	0.086846	0.031717	-0.035448	83.193714	3.084379	-62.881326
12283		-0.453968	9.672713	1.181829	0.089606	0.037507	-0.037905	83.246856	3.110025	-62.862944
12284		-0.471599	9.690451	1.161329	0.095329	0.032262	-0.038300	83.303092	3.135610	-62.847584
12285		-0.549189	9.744399	1.161344	0.086940	0.033378	-0.031852	83.354618	3.157502	-62.831102
12286		-0.505971	9.725780	1.120782	0.089249	0.029646	-0.033271	83.407320	3.180022	-62.816852
12287		-0.524228	9.784437	1.110752	0.084384	0.021910	-0.024886	83.457058	3.197167	-62.806410
12288		-0.553121	9.818640	1.081083	0.050896	0.021603	-0.007256	83.487635	3.204329	-62.795011
12289		-0.526605	9.785608	1.099252	0.044672	0.013097	-0.000361	83.514432	3.206929	-62.787980
12290		-0.514372	9.808950	1.063146	0.014333	0.013580	-0.004260	83.523819	3.211856	-62.780956
12291		-0.473052	9.719012	1.141038	0.009193	0.009452	0.002364	83.530182	3.212666	-62.775826
12292		-0.540504	9.803021	1.081714	0.028622	0.000280	0.003389	83.547360	3.212373	-62.775888
12293		-0.492556	9.743810	1.094012	-0.015699	0.004031	0.001765	83.539285	3.213174	-62.773888
12294		-0.541560	9.649143	1.117480	0.015595	0.001172	0.000039	83.549017	3.214843	-62.773656
12295		-0.494741	9.824830	1.057846	0.013556	-0.000828	0.005942	83.557564	3.212953	-62.774158
12296		-0.549077	9.699533	1.147091	-0.004397	-0.002496	0.012775	83.555771	3.207132	-62.775195
12297		-0.546686	9.892072	1.010860	0.016525	-0.013991	0.010760	83.565618	3.201653	-62.782893
12298		-0.569773	9.846112	1.077837	-0.028354	-0.011099	0.030067	83.549889	3.185434	-62.787724
12299		-0.591492	10.033440	1.022168	-0.044117	-0.033931	0.043751	83.524483	3.159883	-62.804658
12300		-0.531267	9.964532	1.021699	-0.115867	-0.037200	0.058417	83.457910	3.125827	-62.822508
12301		-0.482181	9.871905	1.060665	-0.174267	-0.047988	0.073686	83.357630	3.082275	-62.845424
12302		-0.449157	9.917155	1.071941	-0.284739	-0.025171	0.088153	83.194813	3.032036	-62.854293
12303		-0.377060	9.285956	1.298168	-0.312690	-0.021929	0.063842	83.016016	2.995756	-62.862811
12304		-0.354454	9.339444	1.329077	-0.128638	-0.031294	0.035053	82.942285	2.975231	-62.878623
12305		-0.426389	9.431536	1.304989	-0.097490	-0.015656	0.012508	82.886797	2.968553	-62.887081
12306		-0.390027	9.542506	1.276421	-0.011418	-0.013854	-0.007327	82.880580	2.973327	-62.895936
12307		-0.410103	9.721516	1.200501	-0.047609	-0.004826	-0.036964	82.853808	2.995539	-62.901748
12308		-0.415494	9.526246	1.282194	-0.013371	-0.007599	-0.056619	82.846465	3.028767	-62.910560
12309		-0.441984	9.786631	1.170650	-0.004366	-0.009537	-0.067741	82.844203	3.068138	-62.921261
12310		-0.479867	9.747540	1.204914	-0.023052	-0.005987	-0.061618	82.831331	3.104315	-62.929517
12311		-0.524925	9.757316	1.218474	-0.040894	-0.006041	-0.051170	82.808299	3.134511	-62.937058
12312		-0.547413	9.700995	1.266250	-0.033929	-0.004502	-0.041017	82.789314	3.159077	-62.943011
12313		-0.512952	9.771182	1.226653	-0.057450	-0.001129	-0.013877	82.757091	3.168423	-62.945089
12314		-0.521958	9.624793	1.287577	-0.044161	-0.006994	0.001137	82.732329	3.168843	-62.949429
12315		-0.527953	9.632622	1.257718	-0.018687	0.001376	0.008838	82.722485	3.165459	-62.948438
12316		-0.522691	9.510783	1.336617	-0.008377	0.002256	0.027263	82.718618	3.151698	-62.945611
12317		-0.469276	9.565262	1.301453	0.058012	0.006618	0.031847	82.752974	3.135617	-62.939968
12318		-0.485019	9.745743	1.217319	0.060354	0.005014	0.027686	82.788565	3.121810	-62.935549
12319		-0.430160	9.719066	1.213249	0.039515	0.002893	0.008072	82.812111	3.118970	-62.933754
12320		-0.490046	9.755635	1.230742	0.029412	-0.000743	-0.001360	82.829682	3.121252	-62.934706
12321		-0.488880	9.714937	1.218170	0.014379	-0.002688	-0.006033	82.838598	3.126030	-62.937100
12322		-0.462592	9.681293	1.238743	0.025635	-0.007487	-0.011349	82.853756	3.133506	-62.942603
12323		-0.473244	9.771557	1.224558	0.018773	-0.004427	-0.013380	82.865107	3.142339	-62.946508
12324		-0.513471	9.781380	1.179730	-0.004945	-0.003797	-0.010620	82.862860	3.149660	-62.949853
12325		-0.480652	9.739220	1.236347	-0.019228	-0.006301	-0.006420	82.852405	3.154402	-62.954330
12326		-0.516454	9.627214	1.271598	-0.012244	-0.002624	0.001015	82.846059	3.155187	-62.956176
12327		-0.450889	9.623879	1.294390	0.006535	-0.003702	0.005724	82.850495	3.153210	-62.958306
12328		-0.489610	9.633915	1.248603	0.027366	-0.000612	0.001822	82.866904	3.153677	-62.958945
12329		-0.433800	9.720326	1.201805	0.027568	-0.004556	-0.009986	82.883302	3.160571	-62.962680
12330		-0.453596	9.664902	1.244230	0.008592	0.001401	-0.026404	82.888906	3.177223	-62.964176
12331		-0.505212	9.764695	1.186850	0.014473	-0.004787	-0.034096	82.897696	3.197810	-62.969753
12332		-0.473557	9.681690	1.231479	-0.006023	-0.002954	-0.039312	82.894735	3.221488	-62.974640
12333		-0.511243	9.724144	1.230153	0.016495	-0.007037	-0.034564	82.904606	3.242182	-62.981529
12334		-0.495229	9.739305	1.229907	-0.010971	-0.005547	-0.029125	82.898763	3.259880	-62.987165
12335		-0.538744	9.595105	1.275352	0.003516	-0.003623	-0.027043	82.901334	3.276540	-62.991577
12336		-0.512397	9.715082	1.207305	0.024326	-0.004792	-0.025519	82.915746	3.292239	-62.996524
12337		-0.505782	9.625840	1.272229	0.012854	0.002734	-0.029200	82.923866	3.310576	-62.997461
12338		-0.497478	9.689655	1.192669	0.037189	-0.000846	-0.033916	82.945738	3.331326	-63.000744
12339		-0.547608	9.708864	1.222520	0.008652	0.002671	-0.036370	82.951418	3.353736	-63.002214
12340		-0.492836	9.713857	1.210492	0.023864	0.000718	-0.043500	82.965667	3.380043	-63.005270
12341		-0.548738	9.700006	1.197735	0.007557	0.004731	-0.044258	82.970755	3.407084	-63.006113
12342		-0.507338	9.681556	1.219016	0.017714	-0.000117	-0.054741	82.981401	3.439721	-63.010424
12343		-0.534001	9.707085	1.227541	0.020359	0.003221	-0.068016	82.993672	3.480167	-63.013783
12344		-0.529280	9.924840	1.113811	0.013452	-0.005641	-0.077265	83.001580	3.525224	-63.022803
12345		-0.521443	9.826857	1.216083	-0.064036	0.000030	-0.091934	82.965273	3.579047	-63.029660
12346		-0.559986	9.745141	1.189652	-0.048779	-0.004888	-0.103592	82.937421	3.639113	-63.040141
12347		-0.577861	9.752570	1.216860	-0.064767	0.001052	-0.117990	82.900596	3.707816	-63.048323
12348		-0.551841	9.627704	1.256692	-0.043078	-0.000177	-0.124806	82.876059	3.780262	-63.057694
12349		-0.530294	9.584422	1.259822	-0.005037	0.000232	-0.146252	82.873267	3.864968	-63.068410
12350		-0.594911	9.683702	1.256422	0.041322	0.003836	-0.148820	82.897095	3.951344	-63.077204
12351		-0.674953	9.685661	1.230006	0.039252	0.005292	-0.155576	82.919804	4.041716	-63.085649
12352		-0.667161	9.618979	1.203618	0.075575	0.009869	-0.159445	82.963425	4.134563	-63.091668
12353		-0.671775	9.683456	1.172917	0.091360	0.007132	-0.140472	83.016126	4.216486	-63.097879
12354		-0.685350	9.797653	1.173599	0.085325	0.005745	-0.145403	83.065225	4.301069	-63.105112
12355		-0.741264	9.847238	1.133008	0.050657	-0.002539	-0.145513	83.094153	4.385202	-63.117061
12356		-0.736850	9.748932	1.175084	0.016715	-0.006279	-0.134953	83.103457	4.463017	-63.130348
12357		-0.712064	9.665361	1.164463	0.012110	-0.008260	-0.128455	83.110105	4.537059	-63.144347
12358		-0.742970	9.649890	1.216993	0.032717	-0.005264	-0.115137	83.128702	4.603675	-63.155664
12359		-0.739403	9.746208	1.179831	0.030100	-0.006485	-0.104580	83.145843	4.664264	-63.166973
12360		-0.758870	9.794452	1.154925	0.015453	-0.003376	-0.104829	83.154669	4.725148	-63.176470
12361		-0.724264	9.703408	1.177504	0.008789	-0.001008	-0.100588	83.159859	4.783844	-63.184359
12362		-0.822825	9.770237	1.174917	0.003770	0.003623	-0.091313	83.162387	4.837512	-63.188923
12363		-0.819283	9.792957	1.143303	-0.032420	-0.007627	-0.079284	83.143755	4.883636	-63.199137
12364		-0.799959	9.685682	1.171935	-0.065824	-0.006378	-0.064343	83.106070	4.921273	-63.207589
12365		-0.840546	9.725099	1.123280	-0.074782	-0.013502	-0.055910	83.062998	4.953685	-63.219594
12366		-0.800790	9.634174	1.210050	-0.100363	-0.017519	-0.044556	83.005080	4.979280	-63.233088
12367		-0.761525	9.469980	1.297879	-0.080581	-0.013065	-0.032868	82.958833	4.998598	-63.243284
12368		-0.755087	9.532934	1.226167	-0.032833	-0.008286	-0.033976	82.940112	5.018802	-63.250796
12369		-0.771894	9.436128	1.316818	-0.013129	0.000467	-0.027712	82.933212	5.036133	-63.252919
12370		-0.803482	9.582563	1.246854	0.062496	-0.001583	-0.029817	82.969462	5.054437	-63.256306
12371		-0.781331	9.890963	1.183358	0.043005	0.001373	-0.039790	82.994695	5.078702	-63.258747
12372		-0.731100	9.825240	1.224322	0.039616	0.008897	-0.084251	83.018025	5.128692	-63.259944
12373		-0.773729	9.824725	1.154247	0.045349	0.014953	-0.126294	83.044752	5.203099	-63.260647
12374		-0.794082	9.719461	1.216113	0.056268	0.017500	-0.156860	83.077614	5.294972	-63.261925
12375		-0.854780	9.881207	1.130561	0.068856	0.019364	-0.186902	83.117660	5.404158	-63.264214
12376		-0.862960	9.977844	1.145677	0.035261	0.019921	-0.220740	83.138205	5.532528	-63.268399
12377		-0.909050	9.741079	1.201752	0.001924	0.018195	-0.262763	83.139324	5.684791	-63.276496
12378		-0.847764	9.527292	1.257911	0.050611	0.024002	-0.286685	83.168428	5.850951	-63.282816
12379		-0.908874	9.452618	1.239956	0.109340	0.043390	-0.291316	83.232352	6.021175	-63.278289
12380		-0.932539	9.775749	1.155296	0.163572	0.046546	-0.318290	83.327316	6.206836	-63.273471
12381		-1.095483	9.846749	1.094136	0.124106	0.050268	-0.335462	83.399893	6.402626	-63.267455
12382		-1.171240	9.745883	1.051482	0.096779	0.042539	-0.319161	83.456410	6.588503	-63.264501
12383		-1.079154	10.006422	1.147101	0.089019	0.036793	-0.337203	83.508058	6.784396	-63.265911
12384		-1.115418	9.895302	1.045351	0.019022	0.037047	-0.351892	83.519447	6.988544	-63.267959
12385		-1.272379	9.841510	1.076384	-0.002663	0.030301	-0.390228	83.517683	7.214205	-63.276424
12386		-1.206683	9.651405	1.104635	-0.023532	0.030451	-0.396304	83.503825	7.443208	-63.285171
12387		-1.231744	9.631831	1.171346	0.002695	0.025453	-0.405857	83.504554	7.677449	-63.297509
12388		-1.313544	9.600526	1.138518	-0.010153	0.031633	-0.402108	83.498322	7.909828	-63.306002
12389		-1.299054	9.645496	1.138635	-0.006161	0.027081	-0.396638	83.494086	8.138925	-63.316846
12390		-1.317385	9.689474	1.127050	-0.003904	0.035724	-0.399096	83.491723	8.369851	-63.322833
12391		-1.432481	9.866847	1.057593	-0.029912	0.038572	-0.421239	83.474519	8.613697	-63.328746
12392		-1.506340	9.892278	1.091381	-0.024445	0.028295	-0.441322	83.459247	8.868167	-63.341909
12393		-1.535715	10.007442	1.082402	-0.068251	0.028576	-0.478374	83.418499	9.143876	-63.357570
12394		-1.594359	10.146096	1.141610	-0.092019	0.025919	-0.520856	83.363250	9.443436	-63.377780
12395		-1.605503	10.228363	1.161338	-0.106882	0.022529	-0.593383	83.298232	9.784162	-63.405248
12396		-1.570035	10.117880	1.219287	-0.112623	0.030950	-0.668193	83.229580	10.167842	-63.433319
12397		-1.655380	9.982162	1.241814	-0.094093	0.037884	-0.744898	83.171091	10.595747	-63.463208
12398		-1.620531	9.724617	1.297614	-0.046872	0.046481	-0.811890	83.139357	11.062164	-63.493086
12399		-1.619428	9.866205	1.384169	0.031340	0.062960	-0.871597	83.153280	11.563832	-63.517767
12400		-1.628671	9.974766	1.420762	0.081599	0.099608	-0.966091	83.198772	12.121576	-63.527414
12401		-1.824859	9.979310	1.252997	0.131156	0.123789	-1.049428	83.274551	12.728565	-63.528232
12402		-1.936179	10.091952	1.243403	0.183425	0.146310	-1.132534	83.382099	13.384126	-63.520480
12403		-1.871079	9.685993	0.900451	0.294868	0.184369	-1.212203	83.558103	14.087720	-63.494176
12404		-2.825872	9.247987	0.404592	0.569233	0.224199	-1.314860	83.896587	14.851892	-63.447624
12405		-2.238199	10.651145	1.137094	0.732865	0.175014	-1.392066	84.322074	15.657114	-63.429493
12406		-2.303705	11.028173	1.623798	0.700687	0.230266	-1.488477	84.738620	16.519926	-63.377703
12407		-2.225562	13.822174	2.666728	0.671898	0.236935	-1.510745	85.142248	17.395672	-63.316531
12408		-2.101951	12.627234	2.439251	0.168062	0.381524	-1.479058	85.286407	18.259569	-63.162207
12409		-2.807280	10.647639	0.829143	0.132964	0.428930	-1.531202	85.422164	19.155464	-62.978999
12410		-3.455892	10.395998	0.307248	0.150845	0.393443	-1.599856	85.563506	20.088064	-62.817083
12411		-3.684010	10.794512	0.553278	0.065997	0.353016	-1.654686	85.650424	21.050396	-62.679628
12412		-3.524878	10.424383	0.779468	-0.002187	0.312823	-1.672465	85.691650	22.020493	-62.565441
12413		-3.607059	10.622402	0.821047	-0.081271	0.313484	-1.667885	85.690202	22.988475	-62.449678
12414		-3.553728	10.475368	0.794874	-0.104488	0.287314	-1.676215	85.670682	23.959545	-62.349761
12415		-3.675912	9.474926	0.170931	-0.113837	0.283331	-1.677992	85.646605	24.932054	-62.252285
12416		-5.238774	7.510735	-0.955137	0.067697	0.201910	-1.710037	85.705596	25.918705	-62.206517
12417		-5.783686	7.805739	-1.202546	0.439068	0.033570	-1.786328	85.930238	26.942433	-62.268837
12418		-7.381231	8.036814	-0.552908	0.548629	-0.062435	-1.867750	86.188407	28.008666	-62.392151
12419		-8.553983	7.308310	-0.209616	0.704901	-0.248529	-1.971439	86.476199	29.128358	-62.636609
12420		-9.703649	8.344063	0.334889	0.859641	-0.418286	-2.037835	86.793862	30.281245	-62.991229
12421		-9.248757	8.943424	1.010851	0.724579	-0.555342	-1.937667	86.984076	31.374112	-63.431755
12422		-8.152481	10.091175	1.760992	0.735931	-0.722332	-1.667139	87.119220	32.308461	-63.976525
12423		-7.856727	10.123336	2.447111	0.401759	-0.752338	-1.406790	87.047299	33.093088	-64.537219
12424		-8.498457	9.992205	2.005440	0.141232	-0.738208	-1.252211	86.824460	33.788726	-65.089833
12425		-9.577553	9.346312	1.886701	-0.016728	-0.756443	-1.312814	86.492193	34.515943	-65.666045
12426		-10.180465	8.406602	1.714899	-0.162099	-0.775516	-1.498418	86.050964	35.345739	-66.275632
12427		-10.761514	8.358335	1.264694	-0.213862	-0.833434	-1.749273	85.532029	36.311825	-66.954163
12428		-10.363848	8.229030	0.826197	-0.218611	-0.922935	-2.001482	84.940382	37.412988	-67.732734
12429		-9.680164	8.376871	0.622288	-0.144794	-1.001522	-2.210098	84.318608	38.621595	-68.608820
12430		-9.142869	8.820645	0.735081	-0.055017	-1.064683	-2.380648	83.674466	39.916837	-69.577799
12431		-7.910004	8.717860	0.660845	-0.030322	-1.084801	-2.451042	82.989101	41.241093	-70.605853
12432		-7.741327	9.802428	1.281818	0.032929	-1.075486	-2.496513	82.294882	42.583368	-71.674462
12433		-6.842533	9.857526	1.550834	0.006964	-1.015979	-2.481421	81.569394	43.910929	-72.740258
12434		-6.016690	9.886119	1.590774	-0.149330	-0.893303	-2.412914	80.776743	45.200939	-73.749066
12435		-5.745922	10.013487	1.602580	-0.227963	-0.769067	-2.303793	79.972313	46.430209	-74.689762
12436		-5.738146	9.897037	1.606664	-0.353780	-0.611183	-2.191083	79.155727	47.603538	-75.529775
12437		-5.858924	9.505422	1.581442	-0.507949	-0.421212	-2.095430	78.338669	48.735479	-76.236765
12438		-5.799029	9.112526	1.251285	-0.607007	-0.240467	-2.006833	77.554878	49.832996	-76.812761
12439		-5.756578	8.596032	1.042044	-0.661603	-0.061733	-1.922413	76.839555	50.900731	-77.250384
12440		-5.933975	8.121907	0.764586	-0.696776	0.121904	-1.842142	76.216762	51.944949	-77.537081
12441		-6.258329	7.661409	0.610948	-0.689155	0.270357	-1.747872	75.701319	52.955543	-77.690178
12442		-6.420604	7.322367	0.419121	-0.643321	0.404739	-1.664374	75.313277	53.938151	-77.715113
12443		-6.476068	7.116039	0.356447	-0.549314	0.516035	-1.586043	75.073392	54.893739	-77.624065
12444		-6.943818	6.761231	0.568552	-0.472321	0.604095	-1.500593	74.964740	55.814901	-77.427947
12445		-7.033734	6.978517	0.832246	-0.439685	0.678946	-1.449791	74.952444	56.719533	-77.140785
12446		-7.325247	6.963714	1.076063	-0.414594	0.718196	-1.391444	75.010398	57.597168	-76.789833
12447		-7.990285	6.645087	1.177513	-0.401093	0.729247	-1.341143	75.109704	58.448802	-76.402803
12448		-8.847049	6.465762	1.201446	-0.421748	0.727673	-1.303249	75.218579	59.278227	-75.994011
12449		-9.437514	6.295335	1.182309	-0.347956	0.677055	-1.270098	75.344357	60.082094	-75.618291
12450		-9.862573	6.231857	1.354897	-0.253943	0.594300	-1.241239	75.464065	60.856912	-75.314186
12451		-9.994496	6.518473	1.675658	-0.227771	0.519951	-1.218737	75.540176	61.609015	-75.079407
12452		-10.047263	6.964889	2.007426	-0.252909	0.449403	-1.172194	75.548501	62.324358	-74.906461
12453		-9.909252	7.345717	2.258664	-0.317659	0.375278	-1.115730	75.459243	62.998567	-74.802962
12454		-9.582249	7.518717	2.389054	-0.440036	0.307829	-1.041533	75.246082	63.621069	-74.759901
12455		-9.017002	7.624960	2.240254	-0.567451	0.234594	-0.930013	74.905456	64.172036	-74.778060
12456		-8.807901	7.313912	2.142407	-0.679736	0.163473	-0.773532	74.459728	64.624524	-74.840868
12457		-8.626045	6.815851	1.894617	-0.783566	0.092630	-0.637533	73.907087	64.991897	-74.956347
12458		-8.444309	6.160643	1.479899	-0.859555	0.040642	-0.568954	73.263351	65.311210	-75.123331
12459		-8.429237	5.602804	1.146249	-0.853760	0.004501	-0.569568	72.568822	65.625349	-75.349954
12460		-8.372805	5.535061	1.239112	-0.786080	-0.021084	-0.597537	71.859749	65.947517	-75.633853
12461		-7.970635	5.774874	1.571831	-0.773454	-0.034182	-0.640304	71.110684	66.290602	-75.969283
12462		-7.342255	5.730213	1.644594	-0.817974	-0.027436	-0.673258	70.314782	66.649185	-76.326417
12463		-6.839765	5.555293	1.483556	-0.864514	-0.007466	-0.667784	69.501996	67.008448	-76.672604
12464		-6.357376	5.318171	1.235675	-0.865847	0.009468	-0.617036	68.717890	67.340124	-76.985244
12465		-5.946841	5.172802	1.042056	-0.823278	0.034991	-0.533856	68.017973	67.633232	-77.233157
12466		-5.594442	5.087281	0.987560	-0.744206	0.069716	-0.410924	67.463515	67.865478	-77.371636
12467		-5.228068	5.111157	0.982612	-0.669631	0.092989	-0.259366	67.058111	68.024494	-77.395956
12468		-5.061871	5.514494	1.066622	-0.582724	0.117948	-0.055712	66.847284	68.079309	-77.263366
12469		-4.631726	5.691039	1.139698	-0.498593	0.115555	0.239626	66.845057	67.980466	-76.958596
12470		-3.950851	5.822915	1.323312	-0.448187	0.101717	0.600567	67.050548	67.685359	-76.459427
12471		-3.930005	6.067052	1.762034	-0.473286	0.074862	0.979534	67.396251	67.185856	-75.792293
12472		-4.115094	6.369088	2.007091	-0.587361	0.048952	1.299566	67.784188	66.506518	-75.004266
12473		-4.145091	5.867506	1.982568	-0.696244	0.011721	1.500017	68.126588	65.713785	-74.194382
12474		-4.514205	5.684640	1.791161	-0.764973	-0.024420	1.658036	68.423535	64.824068	-73.384673
12475		-4.340638	4.891625	1.458799	-0.793234	-0.090505	1.831588	68.666340	63.829765	-72.611916
12476		-4.317558	4.276188	1.027348	-0.735183	-0.177798	1.987848	68.875737	62.728924	-71.905586
12477		-4.193479	4.083391	0.787570	-0.617824	-0.306994	2.109729	69.031637	61.538987	-71.329749
12478		-4.041904	4.127007	0.676735	-0.462459	-0.455765	2.233145	69.148808	60.248127	-70.892053
12479		-3.817662	4.661045	0.802772	-0.343050	-0.639623	2.419771	69.207233	58.823368	-70.597184
12480		-3.407189	5.026080	0.951754	-0.208356	-0.833200	2.630960	69.229919	57.242061	-70.429428
12481		-3.074615	5.553290	1.213852	-0.161837	-0.983541	2.839195	69.212379	55.522607	-70.340114
12482		-2.675808	5.754300	1.172611	-0.160998	-1.079306	3.026939	69.174020	53.678941	-70.273751
12483		-2.086433	5.595383	0.823433	-0.138862	-1.116811	3.191785	69.162904	51.743564	-70.188736
12484		-1.508087	5.593746	0.408427	-0.173888	-1.039736	3.315342	69.208501	49.753235	-70.001041
12485		-0.981123	5.448918	0.082024	-0.163980	-0.864398	3.394353	69.370559	47.760329	-69.661677
12486		-0.761515	4.821520	-0.158006	-0.179831	-0.612788	3.425575	69.649487	45.795543	-69.137555
12487		-0.744569	4.447517	-0.570520	-0.132645	-0.348059	3.395967	70.054021	43.901551	-68.457406
12488		-1.306868	3.847997	-1.048653	-0.019611	-0.169545	3.321909	70.556452	42.073266	-67.704315
12489		-1.713674	4.602184	-0.647472	0.225009	-0.124736	3.272579	71.164280	40.279818	-66.978252
12490		-1.930552	5.516095	0.072217	0.376508	-0.201290	3.286800	71.782408	38.453899	-66.344390
12491		-2.403136	6.812183	1.066853	0.413111	-0.379352	3.342008	72.313731	36.566718	-65.861956
12492		-2.877938	7.343303	1.672291	0.422401	-0.640027	3.434263	72.729521	34.575921	-65.564035
12493		-3.338660	7.181371	1.901229	0.359398	-0.902197	3.466226	72.996316	32.527218	-65.455411
12494		-3.502116	6.724636	1.635391	0.317777	-1.116200	3.414491	73.153768	30.465471	-65.503611
12495		-3.508205	6.715275	1.349389	0.335829	-1.262661	3.318883	73.265702	28.437418	-65.668954
12496		-3.321078	7.327911	1.388113	0.382231	-1.359373	3.241598	73.375531	26.430755	-65.907550
12497		-2.785662	7.977017	1.286045	0.430849	-1.396929	3.229848	73.508862	24.430276	-66.173826
12498		-2.481098	8.365210	1.316931	0.474506	-1.339646	3.275200	73.692856	22.409367	-66.397485
12499		-2.585473	8.570340	1.233709	0.549462	-1.199096	3.280618	73.954849	20.414178	-66.544464
12500		-3.326075	8.461439	1.394209	0.616999	-0.993245	3.236608	74.295956	18.470752	-66.585626
12501		-4.623670	8.728943	1.807487	0.709384	-0.822745	3.120356	74.710447	16.623428	-66.561745
12502		-5.581465	9.325686	2.514253	0.753069	-0.707259	2.974830	75.158366	14.868302	-66.506693
12503		-6.159452	10.113196	3.160942	0.754376	-0.640759	2.825266	75.604603	13.210762	-66.452397
12504		-6.411955	10.402395	3.521759	0.691091	-0.562654	2.663163	76.015962	11.648782	-66.388262
12505		-6.311830	10.296060	3.439131	0.619460	-0.431217	2.484551	76.390818	10.208869	-66.287503
12506		-6.044812	10.035090	3.006746	0.568630	-0.224565	2.311020	76.749049	8.887826	-66.101569
12507		-5.903505	9.998712	2.897790	0.579814	-0.000740	2.170575	77.122859	7.677753	-65.818507
12508		-6.445715	10.221562	3.057352	0.597565	0.171263	2.074123	77.511380	6.537054	-65.458285
12509		-7.419431	10.411880	3.514931	0.628267	0.236566	1.949700	77.911063	5.475892	-65.086618
12510		-7.821513	10.709552	3.958513	0.592551	0.224423	1.804532	78.281676	4.488395	-64.745624
12511		-7.930645	10.664130	4.125880	0.526788	0.171608	1.640895	78.604379	3.588488	-64.460782
12512		-7.381495	11.240937	4.490698	0.420038	0.094425	1.474666	78.858520	2.768738	-64.241857
12513		-6.386139	11.363469	4.210404	0.198778	0.076319	1.352987	78.981219	2.017889	-64.050333
12514		-5.626904	9.805687	2.885421	0.082101	0.136703	1.236803	79.035628	1.336080	-63.837982
12515		-4.823222	8.769692	1.966453	0.129960	0.258120	1.083997	79.115689	0.755780	-63.575555
12516		-4.056335	8.429633	1.650854	0.165409	0.447665	0.919751	79.214747	0.285764	-63.224447
12517		-3.589547	8.126100	1.311954	0.204854	0.662727	0.769388	79.333764	-0.075190	-62.769850
12518		-3.456627	7.982429	1.378641	0.267388	0.835163	0.633071	79.486082	-0.344090	-62.232827
12519		-3.388611	7.733519	1.433754	0.289716	0.952824	0.507845	79.648394	-0.529890	-61.643735
