// General information: 
//  MT Manager version: 2022.2.0 
//  XDA version: 2022.2.0 build 7381 rev 124627 built on 2023-07-19
// Device information: 
//  DeviceId: 00B4BA83
//  ProductCode: MTW2-3A7G6
//  Firmware Version: 4.6.0
//  Hardware Version: 2.0.0
// Device settings: 
//  Filter Profile: human(46.1)
//  Option Flags: Orientation Smoother Disabled, Position/Velocity Smoother Disabled, Continuous Zero Rotation Update Disabled, AHS Disabled, ICC Disabled
// Coordinate system: ENU
PacketCounter	SampleTimeFine	Acc_X	Acc_Y	Acc_Z	Gyr_X	Gyr_Y	Gyr_Z	Roll	Pitch	Yaw
02305		9.181381	1.314403	-2.718777	0.241349	0.022945	-0.154023	161.911440	-73.645628	-87.090757
02306		9.181385	1.363917	-2.870464	0.242782	0.022162	-0.152656	161.771154	-73.634596	-86.796841
02307		9.186342	1.402498	-2.743612	0.248663	0.037558	-0.153231	161.615635	-73.626700	-86.484560
02308		9.432684	1.379612	-2.503674	0.199293	0.049749	-0.144417	161.448649	-73.631655	-86.188820
02309		9.479213	1.347696	-2.384756	0.155642	0.069159	-0.140422	161.243835	-73.642728	-85.880719
02310		9.475491	1.312680	-2.317147	0.134899	0.070216	-0.133376	161.046496	-73.660286	-85.591885
02311		9.447542	1.285640	-2.282705	0.105637	0.071041	-0.128317	160.833365	-73.674027	-85.305021
02312		9.410427	1.202423	-2.448694	0.070840	0.066631	-0.115736	160.632849	-73.692447	-85.051215
02313		9.502505	1.162872	-2.537893	0.051516	0.066141	-0.092343	160.457451	-73.709849	-84.836021
02314		9.544704	1.107424	-2.611362	0.023854	0.067467	-0.075033	160.303455	-73.736131	-84.658809
02315		9.519535	1.116957	-2.727410	-0.003015	0.053011	-0.053714	160.176072	-73.753615	-84.526223
02316		9.494211	1.115241	-2.776386	-0.026333	0.037054	-0.043368	160.071313	-73.769443	-84.430298
02317		9.423561	1.152302	-2.820407	-0.075146	0.025091	-0.031464	159.962089	-73.776105	-84.359686
02318		9.297024	1.105490	-2.738444	-0.117329	0.009369	-0.019633	159.867463	-73.781561	-84.328639
02319		9.300246	1.133629	-2.663609	-0.123647	-0.009491	-0.012177	159.789488	-73.773370	-84.319514
02320		9.395295	1.097857	-2.581749	-0.139201	-0.008092	-0.003172	159.724549	-73.772639	-84.332449
02321		9.436841	1.023261	-2.557955	-0.145915	-0.000999	0.007179	159.663820	-73.772853	-84.354574
02322		9.403904	0.929852	-2.484574	-0.127210	-0.001288	0.012515	159.630034	-73.778907	-84.392808
02323		9.379833	0.938788	-2.517175	-0.094616	0.003143	0.023937	159.626813	-73.784695	-84.444213
02324		9.331535	0.948788	-2.549703	-0.046710	0.000090	0.021518	159.654902	-73.793301	-84.498849
02325		9.286731	1.008574	-2.679548	-0.047024	-0.004037	0.026267	159.688229	-73.795685	-84.559914
02326		9.307745	0.982126	-2.753467	-0.067825	-0.005780	0.031868	159.727477	-73.803161	-84.638766
02327		9.375638	0.926033	-2.779261	-0.113896	0.001276	0.036373	159.737619	-73.810388	-84.715582
02328		9.388041	0.802382	-2.780562	-0.158417	0.005541	0.039479	159.731515	-73.825406	-84.801247
02329		9.459486	0.770397	-2.731820	-0.167302	0.001214	0.038820	159.715740	-73.833089	-84.882930
02330		9.581302	0.752829	-2.698062	-0.132524	0.009037	0.036614	159.717109	-73.849399	-84.960904
02331		9.439675	0.795529	-2.654037	-0.096181	0.013361	0.034356	159.725599	-73.862725	-85.025415
02332		9.344776	0.818172	-2.631307	-0.026126	0.003694	0.028939	159.777703	-73.874621	-85.092716
02333		9.335206	0.953103	-2.607406	0.055105	0.010482	0.027073	159.861465	-73.884928	-85.145344
02334		9.350276	1.078180	-2.549304	0.116545	0.032641	0.024187	159.967014	-73.911406	-85.183177
02335		9.367728	1.222990	-2.503757	0.098974	0.055485	0.018444	160.029444	-73.944205	-85.187435
02336		9.333224	1.135366	-2.705291	0.040110	0.074408	0.004713	160.026407	-73.989333	-85.157862
02337		9.345092	0.997312	-2.721659	-0.000935	0.071292	-0.014880	159.958196	-74.024111	-85.085765
02338		9.386153	0.901378	-2.678861	-0.051200	0.062315	-0.018784	159.866433	-74.058041	-85.018349
02339		9.496761	0.777530	-2.710355	-0.095139	0.071572	-0.032090	159.710885	-74.089492	-84.911583
02340		9.506055	0.608979	-2.609723	-0.103525	0.070814	-0.046401	159.530356	-74.122354	-84.783067
02341		9.498831	0.528584	-2.599283	-0.073527	0.082378	-0.055280	159.334624	-74.154751	-84.621688
02342		9.416810	0.429601	-2.539792	-0.020179	0.081118	-0.061689	159.164632	-74.189819	-84.454512
02343		9.429706	0.547306	-2.582535	0.104175	0.093234	-0.057945	159.056465	-74.227233	-84.278378
02344		9.365563	0.618056	-2.528339	0.170989	0.094521	-0.047236	159.012733	-74.272291	-84.128629
02345		9.377042	0.715744	-2.591836	0.197668	0.089522	-0.026872	159.018770	-74.314017	-84.015557
02346		9.376528	0.695327	-2.693834	0.194172	0.064234	-0.010736	159.079516	-74.350367	-83.960569
02347		9.470457	0.638310	-2.750387	0.168130	0.035273	0.008170	159.174998	-74.370262	-83.957993
02348		9.562234	0.558536	-2.672857	0.137217	0.007332	0.018911	159.301760	-74.382171	-84.005430
02349		9.657529	0.516260	-2.503999	0.094543	-0.017261	0.027671	159.430713	-74.377838	-84.081388
02350		9.710371	0.548777	-2.447405	0.064647	-0.024765	0.042023	159.583817	-74.377115	-84.199321
02351		9.738501	0.578169	-2.357158	0.024658	-0.031696	0.049575	159.724966	-74.369288	-84.329523
02352		9.758841	0.536656	-2.365902	-0.025349	-0.034001	0.055826	159.859752	-74.366234	-84.481954
02353		9.655066	0.490399	-2.482182	-0.058713	-0.047359	0.058540	159.981118	-74.351579	-84.641227
02354		9.519117	0.374064	-2.576335	-0.061209	-0.062925	0.055689	160.115307	-74.332795	-84.814361
02355		9.416269	0.353575	-2.744297	-0.012802	-0.089297	0.051901	160.278500	-74.294036	-84.989792
02356		9.372459	0.426647	-2.776830	0.025038	-0.117250	0.055632	160.498403	-74.245643	-85.200644
02357		9.370332	0.423834	-2.701089	0.052972	-0.139866	0.053282	160.733791	-74.179469	-85.412024
02358		9.326371	0.488043	-2.581920	0.081112	-0.157723	0.051643	161.002296	-74.107919	-85.640083
02359		9.336694	0.600526	-2.473369	0.103324	-0.158863	0.048103	161.264994	-74.029969	-85.850013
02360		9.345630	0.683086	-2.281721	0.097486	-0.140756	0.043494	161.512494	-73.965597	-86.046586
02361		9.376308	0.735963	-2.127687	0.073661	-0.110711	0.030880	161.691476	-73.910244	-86.187222
02362		9.434241	0.823088	-2.087501	0.072732	-0.068256	0.025001	161.842175	-73.881743	-86.297891
02363		9.341889	0.899129	-2.202607	0.118403	-0.023443	0.009183	161.950641	-73.869853	-86.338483
02364		9.367528	1.138342	-2.203350	0.181130	-0.008267	-0.004217	162.070893	-73.868842	-86.352829
02365		9.342970	1.374008	-2.256618	0.211872	0.015463	-0.024169	162.146182	-73.872253	-86.303138
02366		9.309135	1.533506	-2.373603	0.222698	0.021097	-0.043358	162.198019	-73.880435	-86.221521
02367		9.355106	1.734535	-2.345724	0.224657	0.020355	-0.065911	162.198869	-73.879224	-86.086721
02368		9.434475	1.797340	-2.338195	0.148110	0.023714	-0.081039	162.134370	-73.882211	-85.928574
02369		9.424541	1.710284	-2.298554	0.076751	0.030176	-0.085974	162.006621	-73.882732	-85.748127
02370		9.400280	1.489435	-2.277037	0.004610	0.021613	-0.091601	161.840275	-73.882500	-85.569644
02371		9.429994	1.303654	-2.163736	-0.039125	0.005411	-0.085137	161.663145	-73.869416	-85.406899
02372		9.480814	1.100610	-2.192692	-0.045964	0.009858	-0.072787	161.510102	-73.865942	-85.272478
02373		9.467997	0.991147	-2.225688	-0.041424	0.004842	-0.056420	161.386308	-73.857545	-85.166617
02374		9.398065	1.032884	-2.185527	-0.032374	-0.011337	-0.038725	161.318222	-73.848719	-85.112557
02375		9.468571	1.024381	-2.275530	-0.038287	-0.019252	-0.018872	161.282042	-73.834067	-85.096029
02376		9.402203	1.101560	-2.265675	-0.058870	-0.013458	0.002462	161.277069	-73.831708	-85.123506
02377		9.375902	1.100625	-2.353681	-0.138170	-0.019761	0.020115	161.256974	-73.823951	-85.183312
02378		9.335648	0.979770	-2.563566	-0.210057	-0.017540	0.026808	161.213244	-73.823899	-85.260655
02379		9.272914	0.846489	-2.548516	-0.253340	-0.020189	0.040123	161.164851	-73.819630	-85.359707
02380		9.293345	0.828320	-2.656578	-0.264374	-0.029224	0.045655	161.132679	-73.816738	-85.481494
02381		9.286052	0.773545	-2.735125	-0.246469	-0.011688	0.046309	161.094337	-73.818261	-85.586914
02382		9.301482	0.670139	-2.629040	-0.227881	-0.017345	0.035204	161.056151	-73.819858	-85.680656
02383		9.351624	0.665631	-2.508372	-0.183591	-0.023634	0.025921	161.023415	-73.811149	-85.754401
02384		9.351234	0.661665	-2.475488	-0.106274	-0.022748	0.019140	161.028575	-73.806843	-85.820713
02385		9.432806	0.736187	-2.446979	-0.035041	-0.007254	0.017997	161.055623	-73.805535	-85.868087
02386		9.443663	0.836619	-2.430499	-0.005247	0.004189	0.019218	161.101700	-73.815854	-85.916719
02387		9.424892	0.907512	-2.540660	0.017256	0.006482	0.015631	161.145548	-73.821536	-85.950383
02388		9.331473	0.965941	-2.635551	0.030693	0.001015	0.014784	161.206011	-73.829302	-85.992553
02389		9.342357	1.070974	-2.653590	0.044379	-0.001019	0.010550	161.260721	-73.829960	-86.021343
02390		9.403639	1.180185	-2.618678	0.018766	0.000332	0.007361	161.300813	-73.835921	-86.049431
02391		9.403750	1.179915	-2.618400	-0.025480	0.004731	0.000257	161.292593	-73.837799	-86.054375
02392		9.402056	1.166910	-2.637186	-0.051031	0.006776	-0.004293	161.266503	-73.845061	-86.055222
02393		9.419410	1.093906	-2.612425	-0.098217	0.019553	-0.014027	161.180409	-73.852347	-86.022480
02394		9.401855	0.929040	-2.636713	-0.135606	0.025623	-0.018436	161.067008	-73.867153	-85.982907
02395		9.410586	0.781798	-2.675428	-0.123409	0.031096	-0.013691	160.959523	-73.880722	-85.942926
02396		9.400688	0.678598	-2.654093	-0.079978	0.039814	-0.015311	160.874452	-73.903717	-85.899675
02397		9.349541	0.657945	-2.688819	-0.018113	0.041381	-0.011682	160.824130	-73.923199	-85.856406
02398		9.305547	0.703144	-2.712844	0.055631	0.038308	-0.013654	160.820835	-73.945642	-85.817395
02399		9.322437	0.857897	-2.701818	0.094962	0.033619	-0.018784	160.826880	-73.959580	-85.765373
02400		9.335604	0.984640	-2.731114	0.082951	0.031587	-0.026916	160.818680	-73.975839	-85.704976
02401		9.313673	1.013298	-2.777012	0.053573	0.026982	-0.031535	160.781228	-73.983777	-85.632379
02402		9.362589	1.005128	-2.741472	0.033332	0.029507	-0.044350	160.712857	-73.995508	-85.538979
02403		9.385335	0.975754	-2.656691	0.007889	0.032916	-0.051657	160.607212	-74.002789	-85.422678
02404		9.456730	0.943073	-2.571677	-0.024037	0.042814	-0.060909	160.465531	-74.018383	-85.287237
02405		9.470907	0.835078	-2.516263	-0.054929	0.039685	-0.071671	160.281328	-74.025304	-85.126673
02406		9.455902	0.699277	-2.588547	-0.041359	0.034307	-0.079327	160.100317	-74.032494	-84.960669
02407		9.426746	0.656242	-2.576257	0.003285	0.032845	-0.084397	159.929942	-74.032963	-84.779803
02408		9.397548	0.606529	-2.530202	0.051400	0.034576	-0.082615	159.795702	-74.039380	-84.607167
02409		9.373600	0.614587	-2.527221	0.099260	0.032227	-0.079498	159.689867	-74.040253	-84.436241
02410		9.375540	0.638639	-2.539618	0.136469	0.023577	-0.076371	159.623871	-74.041845	-84.283879
02411		9.434081	0.732879	-2.488377	0.175737	0.026359	-0.062206	159.598394	-74.042909	-84.150958
02412		9.414719	0.778929	-2.427692	0.175396	0.025595	-0.050588	159.601817	-74.050703	-84.047594
02413		9.418279	0.812905	-2.421150	0.170099	0.028489	-0.038918	159.615294	-74.057559	-83.958554
02414		9.404206	0.921452	-2.438026	0.180032	0.025925	-0.031461	159.657037	-74.069384	-83.892288
02415		9.438958	1.029774	-2.489767	0.173200	0.031654	-0.021824	159.702183	-74.081372	-83.834344
02416		9.445949	1.095651	-2.478198	0.152458	0.029877	-0.019682	159.747385	-74.097681	-83.788123
02417		9.425459	1.135597	-2.505967	0.126524	0.024265	-0.023001	159.768670	-74.105486	-83.733183
02418		9.428712	1.158639	-2.431409	0.097516	0.027651	-0.020130	159.782798	-74.120491	-83.687415
02419		9.427379	1.139248	-2.415413	0.064865	0.023028	-0.024790	159.766164	-74.127280	-83.629788
02420		9.447188	1.090010	-2.438851	0.014996	0.016457	-0.027341	159.726795	-74.134812	-83.577589
02421		9.421283	1.075202	-2.422647	0.006527	0.016856	-0.030723	159.669760	-74.137084	-83.512712
02422		9.444428	1.066246	-2.474931	0.013571	0.020635	-0.032106	159.617323	-74.145868	-83.447805
02423		9.365366	1.007225	-2.482785	0.040917	0.020749	-0.031523	159.575676	-74.150039	-83.378446
02424		9.364101	0.994210	-2.501017	0.069903	0.020106	-0.029578	159.560410	-74.158993	-83.318649
02425		9.390040	1.002190	-2.445726	0.080638	0.032588	-0.024808	159.545791	-74.170850	-83.253733
02426		9.389202	0.987877	-2.462872	0.084180	0.036523	-0.022762	159.539762	-74.189949	-83.195057
02427		9.416104	1.010158	-2.509212	0.084158	0.036524	-0.022760	159.528109	-74.204323	-83.131139
02428		9.389057	0.973847	-2.477318	0.061777	0.032070	-0.025429	159.507054	-74.220461	-83.070211
02429		9.416089	1.001662	-2.558159	0.056425	0.028894	-0.022000	159.486226	-74.230882	-83.013280
02430		9.369585	1.026065	-2.570673	0.047512	0.022462	-0.018561	159.476657	-74.243194	-82.972799
02431		9.394856	1.033960	-2.637524	0.037095	0.021563	-0.012388	159.468165	-74.251606	-82.940197
02432		9.397741	1.058522	-2.562888	0.028249	0.015811	-0.010316	159.467829	-74.261933	-82.920793
02433		9.400888	1.088221	-2.522305	0.021811	0.022928	-0.013720	159.447021	-74.270807	-82.884496
02434		9.429761	1.130228	-2.462217	0.014476	0.016430	-0.003455	159.451226	-74.282787	-82.878027
02435		9.432996	1.159465	-2.421366	0.002849	0.024463	-0.001387	159.441918	-74.294963	-82.864968
02436		9.416205	0.982791	-3.018223	0.024300	0.052205	0.012900	159.457085	-74.329387	-82.864062
02437		9.294392	1.211804	-2.111235	0.193006	0.051517	0.022877	159.583859	-74.360953	-82.879182
02438		9.443804	1.224853	-2.191378	-0.090966	0.032782	0.014411	159.549822	-74.385178	-82.895780
02439		9.399546	1.003211	-2.325280	-0.043074	-0.002836	0.013033	159.561452	-74.385591	-82.931788
02440		9.404943	1.065432	-2.525071	-0.056735	0.003255	0.026023	159.590211	-74.396291	-82.993247
02441		9.452544	1.044794	-2.544128	-0.028020	-0.000766	0.031456	159.644457	-74.401482	-83.064543
02442		9.455692	1.071741	-2.504513	-0.063918	0.002910	0.041062	159.698305	-74.414900	-83.156328
02443		9.444709	1.207438	-2.361869	-0.076144	0.002785	0.052691	159.763521	-74.426176	-83.267630
02444		9.463454	1.134447	-2.370325	-0.149997	-0.001361	0.060981	159.809531	-74.441148	-83.402484
02445		9.424990	0.973642	-2.340163	-0.154051	-0.010062	0.068500	159.870022	-74.448579	-83.555203
02446		9.414159	0.854324	-2.496458	-0.147559	-0.012425	0.076008	159.954447	-74.460460	-83.728481
02447		9.399753	0.948566	-2.325335	-0.113933	-0.018798	0.085514	160.077297	-74.466392	-83.922051
02448		9.361810	0.799883	-2.400066	-0.108890	-0.017681	0.089613	160.214312	-74.477878	-84.126899
02449		9.392174	0.854808	-2.479003	-0.052661	-0.021041	0.090878	160.384567	-74.483380	-84.333219
02450		9.470099	0.888774	-2.456136	-0.044217	-0.022135	0.092228	160.567297	-74.492622	-84.547030
02451		9.496315	0.893363	-2.437630	-0.052096	-0.008765	0.090248	160.728604	-74.504305	-84.743709
02452		9.473756	0.898231	-2.383898	-0.067219	-0.005944	0.082777	160.869178	-74.520180	-84.927425
02453		9.472177	0.867722	-2.334834	-0.082121	0.001654	0.076012	160.978959	-74.534585	-85.088463
02454		9.472504	0.857696	-2.299675	-0.086933	0.004670	0.067158	161.071015	-74.553106	-85.233534
02455		9.471329	0.834031	-2.283746	-0.084747	0.011429	0.060360	161.142525	-74.569770	-85.356404
02456		9.449367	0.847299	-2.261945	-0.070577	0.016917	0.051484	161.205383	-74.591953	-85.461443
02457		9.382706	0.905346	-2.268452	-0.047820	0.020629	0.038483	161.249248	-74.609505	-85.533669
02458		9.392801	0.995539	-2.304086	-0.037627	0.018750	0.037770	161.302992	-74.630127	-85.609664
02459		9.439681	0.965211	-2.374735	-0.046641	0.038413	0.026984	161.313209	-74.655193	-85.646281
02460		9.370459	0.996827	-2.418314	-0.057841	0.049304	0.016828	161.293504	-74.688526	-85.658127
02461		9.472854	1.025008	-2.320753	-0.085903	0.032370	0.005812	161.243373	-74.706424	-85.655491
02462		9.414005	0.926523	-2.420593	-0.099349	0.036501	0.002446	161.179586	-74.730133	-85.646313
02463		9.428729	0.824551	-2.432519	-0.104389	0.038814	0.001789	161.106342	-74.750778	-85.630698
02464		9.376569	0.787208	-2.365516	-0.113383	0.031082	0.001050	161.035145	-74.771248	-85.622185
02465		9.402347	0.558993	-2.468749	-0.116705	0.029290	-0.008527	160.940596	-74.784797	-85.591806
02466		9.406378	0.594025	-2.338310	-0.079293	0.019250	-0.016162	160.862755	-74.795609	-85.556159
02467		9.410612	0.636498	-2.365007	-0.059246	0.009999	-0.013532	160.804341	-74.797754	-85.529113
02468		9.385412	0.633142	-2.417821	-0.031776	0.005951	-0.021788	160.751860	-74.800296	-85.491522
02469		9.365582	0.680554	-2.357579	-0.033790	0.003923	-0.014291	160.710728	-74.798999	-85.467271
02470		9.411220	0.649243	-2.396715	-0.026906	0.005593	-0.011543	160.681834	-74.803262	-85.451222
02471		9.460890	0.654156	-2.342075	-0.014845	0.009020	-0.006044	160.664413	-74.806279	-85.440293
02472		9.481859	0.618487	-2.346998	0.002166	0.006100	-0.005400	160.664206	-74.811978	-85.436699
02473		9.512638	0.678546	-2.301279	0.019317	0.004569	-0.007473	160.666615	-74.812317	-85.426038
02474		9.462718	0.669521	-2.320449	0.031724	0.011471	-0.008768	160.673027	-74.820299	-85.411743
02475		9.417756	0.708434	-2.314052	0.048886	0.009279	-0.012896	160.678273	-74.822156	-85.386467
02476		9.419871	0.728101	-2.327760	0.064415	0.010551	-0.013569	160.694574	-74.828743	-85.363007
02477		9.396627	0.738904	-2.273508	0.076287	0.007232	-0.014970	160.712804	-74.829104	-85.334917
02478		9.450655	0.787385	-2.282208	0.081495	0.007003	-0.018387	160.731781	-74.832873	-85.304089
02479		9.474519	0.781405	-2.370349	0.093338	0.004350	-0.017728	160.756280	-74.831159	-85.272374
02480		9.460396	0.884748	-2.354554	0.115319	-0.000866	-0.016405	160.804043	-74.831052	-85.251295
02481		9.467009	0.951718	-2.344871	0.104937	-0.003732	-0.019843	160.836579	-74.824577	-85.221020
02482		9.468779	0.970907	-2.360182	0.100187	0.004032	-0.021146	160.862641	-74.826216	-85.186451
02483		9.423532	1.009392	-2.355164	0.079607	0.006396	-0.017028	160.879252	-74.825760	-85.154715
02484		9.425022	1.023719	-2.335215	0.057654	0.012962	-0.017667	160.881445	-74.832860	-85.120685
02485		9.380847	1.072170	-2.275277	0.031952	0.012880	-0.018355	160.863594	-74.835664	-85.081532
02486		9.405193	1.071054	-2.274451	0.007798	0.009303	-0.019068	160.836601	-74.840488	-85.046887
02487		9.382243	1.089785	-2.254113	-0.011258	0.003438	-0.022528	160.792196	-74.837387	-85.005874
02488		9.383096	1.102738	-2.322040	-0.025310	-0.001359	-0.018465	160.754474	-74.836523	-84.979796
02489		9.426215	1.046776	-2.312536	-0.037063	0.003999	-0.017749	160.704456	-74.834613	-84.948285
02490		9.425599	1.043793	-2.277733	-0.049378	0.001144	-0.010940	160.665896	-74.836484	-84.935652
02491		9.421059	1.001385	-2.214450	-0.065130	-0.004244	-0.008933	160.623168	-74.831780	-84.928355
02492		9.466099	0.965025	-2.219657	-0.058213	-0.004559	-0.012348	160.580457	-74.830286	-84.916688
02493		9.440666	0.960877	-2.273533	-0.049785	-0.007028	-0.011681	160.543030	-74.823551	-84.905776
02494		9.417498	0.979905	-2.253926	-0.065309	-0.008321	-0.011011	160.501382	-74.820276	-84.899437
02495		9.411871	0.929008	-2.245416	-0.077566	-0.013857	-0.012424	160.451424	-74.809707	-84.892033
02496		9.406190	0.878251	-2.237205	-0.084565	-0.014904	-0.009699	160.405849	-74.803126	-84.893075
02497		9.377126	0.840721	-2.297685	-0.074695	-0.023579	-0.010459	160.368388	-74.787684	-84.896914
02498		9.403733	0.868990	-2.259432	-0.069476	-0.017763	-0.002205	160.348322	-74.781000	-84.915438
02499		9.402403	0.861717	-2.314436	-0.073218	-0.019041	0.007350	160.343841	-74.771440	-84.952580
02500		9.403394	0.876842	-2.296031	-0.077011	-0.025025	0.009342	160.347413	-74.763063	-85.000081
02501		9.454794	0.906741	-2.292432	-0.077330	-0.029820	0.012026	160.357400	-74.748586	-85.054664
02502		9.451294	0.879146	-2.334390	-0.075736	-0.032616	0.010630	160.369434	-74.736350	-85.110195
02503		9.479670	0.925639	-2.311551	-0.075907	-0.036684	0.008536	160.378051	-74.717492	-85.162521
02504		9.431851	0.945546	-2.293910	-0.087654	-0.029974	0.009995	160.379951	-74.706540	-85.214635
02505		9.434604	0.980459	-2.290277	-0.098218	-0.032912	0.013392	160.382605	-74.690650	-85.274039
02506		9.454480	0.939797	-2.264117	-0.104892	-0.031140	0.007277	160.369851	-74.678541	-85.321216
02507		9.405208	0.946012	-2.266140	-0.108859	-0.037866	0.014032	160.371042	-74.660103	-85.385433
02508		9.401090	0.913602	-2.274415	-0.110396	-0.036340	0.007909	160.359797	-74.645311	-85.437464
02509		9.422350	0.887460	-2.228828	-0.113785	-0.036125	0.004506	160.338121	-74.625984	-85.480904
02510		9.440919	0.839676	-2.257371	-0.120770	-0.039799	-0.000995	160.305702	-74.607622	-85.517164
02511		9.435364	0.800678	-2.320420	-0.115993	-0.047518	-0.003171	160.275675	-74.580678	-85.553263
02512		9.458111	0.795298	-2.290478	-0.104221	-0.053521	-0.006029	160.252504	-74.553964	-85.589283
02513		9.475811	0.742250	-2.287168	-0.099252	-0.058481	-0.010222	160.225954	-74.519752	-85.619046
02514		9.474085	0.739182	-2.258124	-0.080443	-0.060114	-0.008944	160.215358	-74.488947	-85.653978
02515		9.472352	0.735551	-2.229444	-0.061677	-0.063098	-0.008379	160.217057	-74.452605	-85.690726
02516		9.422544	0.748154	-2.268609	-0.042921	-0.064788	-0.003699	160.241264	-74.420336	-85.739478
02517		9.422371	0.757147	-2.220512	-0.036179	-0.067181	-0.003086	160.270371	-74.382811	-85.789528
02518		9.394729	0.740515	-2.212505	-0.041666	-0.071096	0.001654	160.309667	-74.348197	-85.853219
02519		9.391493	0.727348	-2.239206	-0.042045	-0.077263	0.003596	160.354774	-74.306502	-85.923395
02520		9.423097	0.831051	-2.350532	-0.027080	-0.084955	0.010209	160.427860	-74.266060	-86.013505
02521		9.432910	0.939207	-2.286432	-0.020968	-0.095046	0.022289	160.532119	-74.218292	-86.132623
02522		9.378982	0.914825	-2.334659	-0.040223	-0.098930	0.025076	160.634366	-74.173064	-86.260921
02523		9.420350	0.860887	-2.370499	-0.052425	-0.099100	0.029944	160.736568	-74.124439	-86.396692
02524		9.418424	0.865336	-2.412863	-0.053694	-0.088855	0.033567	160.839184	-74.086138	-86.533458
02525		9.394046	0.885877	-2.434148	-0.065834	-0.088317	0.037093	160.938848	-74.044560	-86.674637
02526		9.347075	0.922787	-2.434992	-0.076570	-0.094613	0.037063	161.037532	-74.003650	-86.820995
02527		9.346838	0.934902	-2.423296	-0.096109	-0.101955	0.043244	161.139013	-73.955687	-86.982171
02528		9.292598	0.904511	-2.437272	-0.113702	-0.106551	0.044004	161.235717	-73.909425	-87.148683
02529		9.293689	0.949811	-2.507788	-0.134695	-0.109619	0.045521	161.322716	-73.857574	-87.317875
02530		9.360654	0.907961	-2.524565	-0.162408	-0.108289	0.049266	161.400908	-73.811160	-87.494241
02531		9.360783	0.901960	-2.411439	-0.195780	-0.114213	0.054298	161.470649	-73.758287	-87.681994
02532		9.322095	0.770194	-2.357232	-0.233807	-0.110919	0.055517	161.519684	-73.711447	-87.870709
02533		9.359806	0.671591	-2.332005	-0.238390	-0.098291	0.051798	161.549066	-73.666683	-88.041940
02534		9.384221	0.682963	-2.319752	-0.220820	-0.090393	0.054526	161.589957	-73.630783	-88.214468
02535		9.436764	0.731561	-2.333913	-0.209047	-0.064402	0.056444	161.622959	-73.605224	-88.372009
02536		9.470804	0.842921	-2.385568	-0.209591	-0.041283	0.061890	161.653223	-73.597362	-88.526796
02537		9.430192	0.955598	-2.486959	-0.217633	-0.029173	0.059629	161.665305	-73.591495	-88.667678
02538		9.392813	1.062479	-2.465121	-0.250401	-0.026319	0.045150	161.631957	-73.588747	-88.780533
02539		9.547120	1.144695	-2.502710	-0.267603	-0.024778	0.024949	161.548651	-73.579042	-88.851828
02540		9.542140	1.314022	-2.430216	-0.315922	0.007945	0.002116	161.376984	-73.587148	-88.859651
02541		9.445098	1.334701	-2.421299	-0.384837	0.015164	-0.041736	161.078917	-73.586944	-88.777084
02542		9.566437	1.394747	-2.598784	-0.393015	0.050594	-0.083386	160.677961	-73.602086	-88.591980
02543		9.640840	1.435493	-2.636236	-0.417652	0.075850	-0.120325	160.177133	-73.619233	-88.317673
02544		9.509857	1.191933	-2.788534	-0.459233	0.084093	-0.152861	159.586859	-73.637714	-87.974883
02545		9.399281	0.872420	-2.838378	-0.416743	0.068229	-0.185528	158.971245	-73.636003	-87.580438
02546		9.295421	0.652871	-3.011129	-0.363128	0.063045	-0.206965	158.351416	-73.629798	-87.149481
02547		9.186915	0.394877	-3.248886	-0.237475	0.061403	-0.216918	157.787271	-73.615397	-86.701596
02548		9.214168	0.421990	-3.189776	-0.084601	0.044165	-0.210866	157.336026	-73.595855	-86.279921
02549		9.188421	0.431276	-3.206140	0.026642	0.033441	-0.196421	156.982985	-73.569244	-85.894261
02550		9.300944	0.567289	-3.087246	0.093282	0.010393	-0.164869	156.744568	-73.540655	-85.588058
02551		9.329627	0.569123	-2.911059	0.098887	0.024419	-0.134181	156.552632	-73.522462	-85.327129
02552		9.305458	0.518723	-2.727725	0.100577	0.029305	-0.108666	156.405582	-73.515973	-85.111746
02553		9.231302	0.450100	-2.530341	0.103285	0.018163	-0.092115	156.296276	-73.503780	-84.934335
02554		9.330553	0.444012	-2.445445	0.133225	-0.010577	-0.090383	156.232371	-73.480364	-84.786085
02555		9.313883	0.566734	-2.491126	0.166840	-0.034275	-0.082298	156.218219	-73.442834	-84.669904
02556		9.345412	0.728113	-2.654726	0.211109	-0.055282	-0.083103	156.247626	-73.397686	-84.572356
02557		9.355304	0.916042	-2.778070	0.230267	-0.053863	-0.087383	156.276559	-73.348731	-84.463159
02558		9.220086	1.093212	-2.796222	0.199292	-0.043257	-0.097451	156.265532	-73.306555	-84.330402
02559		9.302440	1.269574	-2.888663	0.139197	-0.057585	-0.104048	156.216738	-73.251790	-84.194476
02560		9.418501	1.225287	-2.873258	0.049780	-0.065086	-0.098320	156.136345	-73.197783	-84.078673
02561		9.491397	0.927166	-2.808205	-0.077817	-0.067635	-0.076101	156.020723	-73.144137	-84.002755
02562		9.489712	0.637759	-2.827188	-0.167569	-0.043377	-0.045786	155.891231	-73.113532	-83.965710
02563		9.499836	0.453231	-2.767767	-0.182933	-0.032044	-0.023895	155.778804	-73.090642	-83.956048
02564		9.575763	0.508034	-2.778265	-0.134636	-0.041786	-0.016820	155.717837	-73.067636	-83.970841
02565		9.575374	0.569774	-2.876175	-0.094142	-0.070068	-0.016591	155.698396	-73.026604	-84.005202
02566		9.512654	0.734176	-2.862772	-0.035692	-0.089703	-0.027236	155.713936	-72.976116	-84.040665
02567		9.395709	0.863628	-2.910450	-0.010977	-0.084730	-0.038355	155.716132	-72.922297	-84.047835
02568		9.386986	1.055325	-2.803711	0.032841	-0.082717	-0.061551	155.707537	-72.867311	-84.016944
02569		9.418684	1.208677	-2.847841	0.046353	-0.056540	-0.078424	155.653333	-72.818757	-83.930714
02570		9.403270	1.315577	-2.741631	0.053466	-0.054305	-0.105110	155.562020	-72.768196	-83.800837
02571		9.289781	1.375429	-2.537380	-0.013959	-0.039634	-0.116289	155.397825	-72.719363	-83.635570
02572		9.280490	1.271311	-2.495912	-0.078139	-0.029565	-0.119502	155.189455	-72.677967	-83.462022
02573		9.321502	1.185156	-2.467585	-0.105352	-0.012558	-0.110075	154.964201	-72.644359	-83.287573
02574		9.415623	1.178045	-2.491675	-0.112092	-0.005794	-0.102819	154.747121	-72.618960	-83.125235
02575		9.381573	1.156558	-2.639996	-0.105119	-0.004857	-0.098798	154.535994	-72.591713	-82.965397
02576		9.351760	1.181199	-2.760343	-0.082884	-0.014375	-0.102358	154.344278	-72.561638	-82.812060
02577		9.319172	1.172337	-2.889038	-0.052966	-0.008855	-0.111541	154.146447	-72.528825	-82.634784
02578		9.271559	1.250082	-2.925540	-0.035177	-0.000679	-0.124484	153.936319	-72.499865	-82.433429
02579		9.248867	1.290286	-2.882720	-0.045821	-0.002689	-0.132579	153.704796	-72.464511	-82.216467
02580		9.148903	1.289983	-2.865282	-0.068408	0.002502	-0.140125	153.449290	-72.432598	-81.987416
02581		9.114123	1.107125	-2.768593	-0.114076	-0.000220	-0.138034	153.169696	-72.396523	-81.760969
02582		9.002072	0.891019	-2.731216	-0.154217	0.004103	-0.130247	152.881603	-72.367247	-81.549224
02583		9.162020	0.791230	-2.815182	-0.131785	-0.001639	-0.124777	152.616213	-72.333259	-81.348250
02584		9.331703	0.766369	-2.774894	-0.084406	0.001964	-0.115912	152.394820	-72.306080	-81.164421
02585		9.375160	0.788481	-2.898182	-0.041210	-0.010514	-0.124839	152.190218	-72.267090	-80.972710
02586		9.451896	0.885104	-2.898477	0.002418	-0.011831	-0.138023	151.997096	-72.226594	-80.766210
02587		9.428576	0.982265	-2.949165	0.041270	-0.001923	-0.139639	151.810917	-72.187558	-80.544132
02588		9.406881	1.013143	-2.872914	0.043466	0.012897	-0.150582	151.602929	-72.155672	-80.297185
02589		9.239016	1.052211	-2.790283	0.027455	0.007823	-0.149838	151.386388	-72.118270	-80.051436
02590		9.143008	1.096172	-2.744454	-0.007908	0.000728	-0.153609	151.156758	-72.078836	-79.812550
02591		8.892921	1.013471	-2.724853	-0.037464	0.006449	-0.143205	150.916465	-72.041985	-79.580826
02592		8.864289	0.953458	-2.705979	-0.085225	-0.007130	-0.134752	150.680716	-72.003256	-79.381957
02593		8.949356	0.811745	-2.816644	-0.093344	0.010937	-0.122782	150.437754	-71.973802	-79.180998
02594		8.907713	0.831964	-2.617547	-0.081961	-0.015018	-0.114697	150.243597	-71.936322	-79.023784
02595		9.167168	0.748316	-2.720596	-0.048587	-0.011011	-0.114449	150.059583	-71.897896	-78.857779
02596		9.192700	0.812137	-2.726336	0.041246	0.003950	-0.112008	149.925334	-71.870334	-78.689215
02597		9.300560	1.009785	-2.647961	0.112913	0.004463	-0.126339	149.803480	-71.835898	-78.491187
02598		9.349772	1.120920	-2.713980	0.179524	0.015673	-0.146884	149.686978	-71.803885	-78.257809
02599		9.326299	1.206526	-2.730860	0.216103	0.022917	-0.171149	149.541911	-71.765314	-77.973022
02600		9.313929	1.408261	-2.561223	0.229588	0.020205	-0.192026	149.384244	-71.722050	-77.665973
02601		9.427702	1.374274	-2.682652	0.189551	0.041708	-0.212830	149.147290	-71.679988	-77.300292
02602		9.337550	1.587236	-2.596864	0.183806	0.040785	-0.235988	148.882455	-71.633126	-76.907826
02603		9.333025	1.684331	-2.701025	0.124145	0.049716	-0.261814	148.531906	-71.579289	-76.461725
02604		9.275556	1.705679	-2.838619	0.085269	0.048328	-0.279600	148.143887	-71.521501	-75.998701
02605		9.267734	1.699739	-2.930599	0.055269	0.057282	-0.303945	147.691038	-71.456580	-75.486030
02606		9.263115	1.632146	-2.894836	0.018051	0.056631	-0.326527	147.195440	-71.385952	-74.949811
02607		9.281970	1.574695	-2.893031	-0.026096	0.054217	-0.339503	146.655649	-71.305633	-74.394151
02608		9.299386	1.473052	-2.919265	-0.068484	0.050831	-0.347779	146.094665	-71.222239	-73.840744
02609		9.198788	1.351174	-2.840151	-0.088138	0.051973	-0.355582	145.508880	-71.132209	-73.273493
02610		9.119266	1.240030	-2.883586	-0.086970	0.051802	-0.367902	144.919396	-71.039068	-72.700553
02611		9.138983	1.195816	-2.915114	-0.052601	0.053477	-0.377975	144.333360	-70.938577	-72.110860
02612		9.137692	1.290433	-2.860300	0.006435	0.061572	-0.377929	143.786459	-70.842860	-71.525637
02613		9.111090	1.370587	-2.824928	0.035900	0.076416	-0.373672	143.246086	-70.750700	-70.929918
02614		9.108400	1.369816	-2.825326	0.056524	0.100478	-0.376381	142.702835	-70.669699	-70.317477
02615		9.205620	1.342159	-2.780636	0.045451	0.111820	-0.387333	142.125558	-70.585088	-69.676222
02616		9.179733	1.356611	-2.756859	0.028902	0.119389	-0.407253	141.518726	-70.497635	-69.012470
02617		9.223819	1.470031	-2.766672	0.008979	0.096510	-0.419553	140.906774	-70.390181	-68.355866
02618		9.172482	1.500382	-2.722720	-0.009259	0.098213	-0.432205	140.281620	-70.279589	-67.694992
02619		9.169757	1.545990	-2.659346	-0.042957	0.090344	-0.434128	139.642719	-70.159286	-67.040454
02620		9.165450	1.586864	-2.650104	-0.067764	0.092331	-0.425519	139.013299	-70.043782	-66.409698
02621		9.183376	1.643684	-2.708081	-0.075066	0.097830	-0.413587	138.387694	-69.929621	-65.787926
02622		9.031736	1.724010	-2.665403	-0.101553	0.101603	-0.402166	137.770964	-69.822390	-65.190373
02623		9.053512	1.704655	-2.703990	-0.124594	0.106134	-0.392133	137.146511	-69.715461	-64.599205
02624		9.173526	1.689772	-2.744006	-0.140523	0.109887	-0.377445	136.539585	-69.616981	-64.035087
02625		9.414987	1.688927	-2.819693	-0.117992	0.111911	-0.364652	135.955428	-69.519034	-63.482116
02626		9.336123	1.781572	-2.757119	-0.119708	0.090654	-0.364258	135.406920	-69.414026	-62.966869
02627		9.381142	1.808572	-2.768625	-0.098929	0.085605	-0.360635	134.877083	-69.303313	-62.459514
02628		9.398548	1.893024	-2.731249	-0.088511	0.067697	-0.365702	134.380850	-69.185211	-61.980261
02629		9.387212	2.029599	-2.698808	-0.052303	0.076867	-0.361556	133.897112	-69.067518	-61.492873
02630		9.496791	2.191422	-2.593081	-0.066384	0.069393	-0.358379	133.430356	-68.950309	-61.030829
02631		9.618202	2.156674	-2.622326	-0.085161	0.099984	-0.354716	132.920348	-68.841633	-60.534708
02632		9.536284	2.246430	-2.559345	-0.127572	0.102941	-0.350115	132.400814	-68.738089	-60.052961
02633		9.504692	2.297594	-2.612380	-0.156451	0.117342	-0.346461	131.849341	-68.636336	-59.555475
02634		9.451824	2.313817	-2.671479	-0.202613	0.124730	-0.340971	131.281803	-68.541709	-59.067679
02635		9.425295	2.327416	-2.641444	-0.185797	0.143730	-0.323761	130.715835	-68.456157	-58.572044
02636		9.522751	2.317332	-2.762065	-0.189990	0.152844	-0.318513	130.154679	-68.378282	-58.082742
02637		9.611903	2.419336	-2.692940	-0.172903	0.165062	-0.301597	129.600952	-68.306775	-57.591793
02638		9.632151	2.471758	-2.597065	-0.192734	0.169993	-0.296478	129.046733	-68.241424	-57.111140
02639		9.534006	2.471824	-2.759458	-0.207688	0.177584	-0.298777	128.468328	-68.172139	-56.614614
02640		9.406218	2.765193	-2.472124	-0.235307	0.154566	-0.304090	127.907100	-68.094384	-56.152200
02641		9.342360	2.895924	-2.566639	-0.272913	0.157326	-0.303190	127.317398	-68.012341	-55.683252
02642		9.379402	2.999961	-2.579662	-0.331697	0.161338	-0.297416	126.706538	-67.936396	-55.226364
02643		9.250603	3.057725	-2.686696	-0.361754	0.191451	-0.279233	126.054889	-67.873254	-54.745004
02644		9.530572	3.192915	-2.637052	-0.424910	0.182436	-0.257924	125.406133	-67.818800	-54.304453
02645		9.719829	3.256322	-2.494121	-0.483214	0.183169	-0.225811	124.743555	-67.773871	-53.886081
02646		9.799941	3.197913	-2.290423	-0.522374	0.178420	-0.209843	124.086801	-67.736925	-53.496948
02647		9.546857	3.282044	-2.361295	-0.478136	0.199865	-0.193298	123.437016	-67.709189	-53.089039
02648		9.407867	3.564974	-1.889898	-0.548946	0.186442	-0.181582	122.780458	-67.684888	-52.716434
02649		9.193355	3.332597	-1.923593	-0.652809	0.209162	-0.168898	122.040459	-67.668171	-52.319054
02650		9.073718	3.264907	-1.566624	-0.664054	0.204041	-0.146884	121.324407	-67.662463	-51.953409
02651		9.337493	2.966901	-1.612001	-0.617736	0.219547	-0.122841	120.626489	-67.667659	-51.579766
02652		9.211431	3.191249	-1.524613	-0.515227	0.250984	-0.106485	119.967579	-67.692148	-51.183816
02653		9.253552	3.103139	-1.592790	-0.484068	0.250195	-0.113219	119.314882	-67.707512	-50.776365
02654		9.017017	3.024802	-1.477841	-0.357231	0.239618	-0.138911	118.736457	-67.709256	-50.369706
02655		8.927990	2.975535	-1.508618	-0.155221	0.191426	-0.169601	118.306156	-67.677134	-49.998964
02656		8.872665	2.995818	-1.417147	0.064378	0.160282	-0.175688	118.043345	-67.636581	-49.672262
02657		8.807411	3.077594	-1.310574	0.203788	0.173384	-0.152677	117.853971	-67.606774	-49.339430
02658		8.776330	3.158129	-1.423364	0.258872	0.188977	-0.106570	117.713220	-67.608113	-49.024153
02659		8.720513	3.230500	-1.483205	0.274815	0.198057	-0.063682	117.592024	-67.629379	-48.721036
02660		8.714555	3.294570	-1.509078	0.295633	0.191008	-0.020039	117.524674	-67.674726	-48.462503
02661		8.839786	3.504484	-1.597397	0.265768	0.166138	0.013709	117.486507	-67.726579	-48.254906
02662		8.896237	3.669583	-1.645211	0.181271	0.154797	0.053107	117.444163	-67.799310	-48.094429
02663		8.851501	3.717580	-1.780942	0.014539	0.144873	0.096534	117.340612	-67.887537	-47.971866
02664		8.818256	3.667898	-1.832765	-0.140837	0.150209	0.148850	117.179277	-68.007448	-47.882382
02665		8.896908	3.644579	-1.686875	-0.282713	0.166645	0.228973	116.961014	-68.168659	-47.819962
02666		8.959186	3.401937	-1.566873	-0.408573	0.180930	0.332440	116.722389	-68.389947	-47.812648
02667		9.153580	3.024485	-1.282936	-0.458214	0.199255	0.457032	116.505361	-68.676160	-47.859797
02668		8.882235	2.388919	-0.961022	-0.500085	0.220936	0.571052	116.313805	-69.030018	-47.959242
02669		9.095174	1.920742	-0.537297	-0.410233	0.227678	0.696650	116.243304	-69.446641	-48.133470
02670		9.166381	1.398860	-0.607150	-0.374037	0.244327	0.816349	116.260812	-69.932807	-48.378336
02671		9.123425	1.141134	-0.937645	-0.200881	0.224758	0.922924	116.484903	-70.464738	-48.737102
02672		9.036582	1.134945	-1.349355	-0.077091	0.205075	1.017251	116.902847	-71.043383	-49.224276
02673		8.859036	1.190045	-1.563563	0.034856	0.160946	1.096697	117.538908	-71.645278	-49.872800
02674		8.721392	1.428833	-1.790973	0.116391	0.093314	1.181304	118.450702	-72.273365	-50.759268
02675		8.852143	1.828068	-1.697837	0.142748	0.050385	1.278802	119.594547	-72.928964	-51.870516
02676		8.973868	2.116525	-1.587897	0.058277	0.035221	1.383963	120.916889	-73.629360	-53.213991
02677		9.088619	2.153280	-1.468280	-0.046208	0.036917	1.487852	122.396727	-74.366938	-54.779287
02678		9.159333	2.156026	-1.339120	-0.078943	0.051979	1.592803	124.116652	-75.151452	-56.606395
02679		9.430677	1.940410	-1.226550	-0.072593	0.070727	1.670812	126.093627	-75.958704	-58.689108
02680		9.657780	1.992593	-0.819679	-0.050646	0.077692	1.742296	128.434747	-76.784853	-61.125521
02681		10.015616	1.929346	-0.818527	-0.034312	0.086165	1.796720	131.159148	-77.608108	-63.937777
02682		10.518743	1.818562	-0.794916	-0.045325	0.072511	1.843378	134.395235	-78.415949	-67.270188
02683		10.951058	1.506189	-0.985073	-0.088874	0.061017	1.878739	138.165315	-79.185836	-71.163554
02684		11.314371	1.179445	-1.016407	-0.075759	0.054339	1.917160	142.637178	-79.913933	-75.752593
02685		11.354274	0.795469	-1.171656	-0.044264	0.061960	1.946274	147.840303	-80.579478	-81.055907
02686		11.225008	0.790817	-1.164834	0.025651	0.081481	1.968194	153.889631	-81.172515	-87.165434
02687		10.894030	0.863861	-0.922814	0.052954	0.081607	1.971512	160.721279	-81.651736	-94.041968
02688		10.601899	0.836114	-1.008667	0.081235	0.048689	1.963863	168.308212	-81.980724	-101.657471
02689		10.501322	1.017842	-1.391103	0.207331	0.042451	1.966475	176.440283	-82.153647	-109.746258
02690		10.320221	0.974000	-1.276855	0.218108	0.025682	1.960566	-175.227493	-82.155695	-118.028592
02691		10.154334	0.823889	-1.053508	0.103186	-0.031276	1.952411	-167.241373	-81.965425	-126.030402
02692		10.244278	0.615740	-1.083544	0.033988	-0.028274	1.967840	-159.711346	-81.626177	-133.616166
02693		10.088664	0.335858	-0.903245	-0.136046	-0.079109	1.963080	-153.097901	-81.131608	-140.382142
02694		10.152876	-0.275814	-1.282997	-0.291357	-0.121937	1.957171	-147.420912	-80.510565	-146.299453
02695		10.056448	-0.831861	-1.328645	-0.235217	-0.115406	1.942157	-142.512763	-79.814813	-151.415780
02696		9.909015	-1.269243	-1.128923	-0.134592	-0.135289	1.912075	-138.305413	-79.052423	-155.771752
02697		9.860775	-1.517205	-1.167507	0.004489	-0.178250	1.861211	-134.792869	-78.242289	-159.349972
02698		9.821324	-1.567837	-1.110046	0.200622	-0.174923	1.809755	-131.704810	-77.413742	-162.389049
02699		9.739740	-1.525609	-1.033673	0.335680	-0.179771	1.761211	-129.020491	-76.575708	-164.944873
02700		9.587733	-1.514855	-0.871778	0.436285	-0.159788	1.697441	-126.628910	-75.746702	-167.148064
02701		9.476268	-1.378278	-0.855103	0.449235	-0.211446	1.638330	-124.656843	-74.910935	-168.918781
02702		9.374243	-1.368513	-0.968955	0.438442	-0.231050	1.596520	-122.956261	-74.072678	-170.420429
02703		9.503952	-1.358331	-1.258352	0.379104	-0.261020	1.572971	-121.530268	-73.228355	-171.678410
02704		9.636119	-1.540535	-1.703125	0.373324	-0.212158	1.567275	-120.155935	-72.390697	-172.890576
02705		9.671927	-1.633345	-1.759726	0.370725	-0.175333	1.553081	-118.864360	-71.564560	-174.023670
02706		9.620785	-1.743703	-1.868806	0.364626	-0.091080	1.549559	-117.552587	-70.753301	-175.186435
02707		9.570275	-2.051372	-1.982262	0.359570	-0.089048	1.483268	-116.393292	-69.970537	-176.196823
02708		9.460709	-2.123222	-1.587873	0.413503	-0.129930	1.412408	-115.380704	-69.205958	-177.021961
02709		9.678145	-1.993157	-1.644373	0.405953	-0.140974	1.368792	-114.483162	-68.458548	-177.733252
02710		9.454830	-2.001829	-1.502288	0.381651	-0.110870	1.317888	-113.637845	-67.739385	-178.406156
02711		9.418088	-2.098448	-1.519349	0.362939	-0.120131	1.256254	-112.898596	-67.048792	-178.979892
02712		9.383387	-2.261517	-1.444028	0.301898	-0.138226	1.187819	-112.283614	-66.386569	-179.458610
02713		9.313642	-2.430601	-1.720104	0.315487	-0.132003	1.121132	-111.718287	-65.760504	-179.877538
02714		9.141542	-2.337525	-1.592909	0.335626	-0.100787	1.067935	-111.150208	-65.166700	179.711835
02715		8.791832	-2.518071	-1.606645	0.295228	-0.076266	1.001223	-110.631445	-64.613036	179.327544
02716		8.672654	-2.648777	-1.276657	0.249310	-0.101407	0.930843	-110.211306	-64.090113	179.022360
02717		8.536919	-2.869591	-1.488054	0.206085	-0.115389	0.865148	-109.873540	-63.599657	178.779431
02718		8.327580	-2.785425	-1.238727	0.211940	-0.115958	0.804868	-109.563727	-63.140548	178.571109
02719		8.344679	-2.843632	-1.573765	0.159987	-0.143541	0.738372	-109.347854	-62.712140	178.433449
02720		8.282074	-2.870059	-1.530748	0.180235	-0.146345	0.679850	-109.147429	-62.314417	178.326325
02721		8.275697	-2.916727	-1.603765	0.197868	-0.137491	0.617829	-108.956088	-61.951992	178.239972
02722		8.175744	-2.883914	-1.400195	0.223093	-0.139090	0.549903	-108.776758	-61.625992	178.183873
02723		8.263188	-3.060164	-1.597362	0.211961	-0.141405	0.480359	-108.633829	-61.337215	178.161278
02724		8.308669	-3.074585	-1.691242	0.253787	-0.121794	0.396420	-108.475401	-61.097846	178.148735
02725		8.277019	-3.331115	-1.424720	0.208003	-0.104242	0.323732	-108.352476	-60.900889	178.146314
02726		8.155364	-3.630989	-1.274377	0.153638	-0.121085	0.241338	-108.302911	-60.746197	178.192627
02727		8.001189	-3.603905	-1.056730	0.126968	-0.163914	0.169845	-108.334177	-60.622196	178.313788
02728		7.969298	-3.625550	-1.198389	0.081508	-0.196123	0.107001	-108.440626	-60.527108	178.491892
02729		7.948959	-3.697127	-1.256369	0.111320	-0.168023	0.050161	-108.521795	-60.467230	178.660312
02730		7.922196	-3.817269	-1.338818	0.140326	-0.183602	-0.017386	-108.621321	-60.441831	178.869404
02731		7.925247	-3.916332	-1.554039	0.228300	-0.198212	-0.085208	-108.707495	-60.449635	179.120714
02732		7.901076	-3.885875	-1.418802	0.309443	-0.183116	-0.146079	-108.751555	-60.493944	179.377361
02733		7.955325	-3.933350	-1.435930	0.313015	-0.190909	-0.205876	-108.822376	-60.568284	179.666574
02734		8.054038	-4.079315	-1.437064	0.347712	-0.158440	-0.257258	-108.858890	-60.677262	179.939320
02735		8.106815	-4.133613	-1.202662	0.384235	-0.117321	-0.305461	-108.852990	-60.819053	-179.813246
02736		8.131521	-4.130238	-1.160471	0.351902	-0.098847	-0.348372	-108.862163	-60.988470	-179.569788
02737		8.175307	-4.222109	-1.123085	0.377901	-0.052942	-0.385535	-108.826493	-61.185621	-179.361323
02738		8.054483	-4.215110	-0.879980	0.304582	-0.131216	-0.431202	-108.926263	-61.393939	-179.046359
02739		8.307273	-4.448713	-1.213221	0.292499	-0.123922	-0.451458	-109.037043	-61.613336	-178.727761
02740		8.341623	-4.657107	-1.335953	0.322123	-0.096300	-0.451946	-109.105030	-61.838906	-178.438733
02741		8.367700	-4.686800	-1.263377	0.300096	-0.082403	-0.451054	-109.175576	-62.065463	-178.162128
02742		8.417919	-4.956615	-1.348365	0.301404	-0.044090	-0.423613	-109.197389	-62.285172	-177.939916
02743		8.340070	-5.130651	-1.268042	0.295940	-0.026571	-0.393902	-109.196943	-62.491193	-177.747225
02744		8.326696	-5.323909	-1.316073	0.300890	-0.019637	-0.360167	-109.173771	-62.681002	-177.576817
02745		8.416731	-5.523711	-1.482533	0.361918	-0.013564	-0.329152	-109.100581	-62.854512	-177.424085
02746		8.376034	-5.577458	-1.425669	0.443680	-0.015435	-0.297666	-108.969372	-63.011192	-177.283621
02747		8.403622	-5.555436	-1.469048	0.533597	-0.053419	-0.262681	-108.816434	-63.141570	-177.110428
02748		8.487425	-5.527834	-1.448080	0.616373	-0.126872	-0.226977	-108.679810	-63.239391	-176.865458
02749		8.696672	-5.350992	-1.361300	0.635411	-0.185522	-0.183173	-108.582187	-63.302778	-176.565315
02750		8.615886	-5.079270	-1.098465	0.590442	-0.210839	-0.136737	-108.518820	-63.336402	-176.255234
02751		8.693000	-4.964278	-1.280673	0.523342	-0.232884	-0.105958	-108.509264	-63.349497	-175.928587
02752		8.695976	-4.761296	-1.351145	0.519505	-0.214010	-0.083044	-108.470626	-63.353365	-175.636354
02753		8.683239	-4.463807	-1.053634	0.459272	-0.205634	-0.075376	-108.457323	-63.354912	-175.355002
02754		8.671186	-4.271614	-0.871466	0.312955	-0.173291	-0.071034	-108.488502	-63.359618	-175.117048
02755		8.603979	-4.166529	-0.952050	0.192251	-0.145349	-0.091823	-108.569027	-63.380934	-174.901920
02756		8.464420	-4.081893	-0.838777	0.110798	-0.145635	-0.117673	-108.703296	-63.415741	-174.678247
02757		8.478108	-3.874648	-0.804470	0.014268	-0.153106	-0.157005	-108.919128	-63.470500	-174.425994
02758		8.443684	-3.777448	-0.770098	-0.131627	-0.146001	-0.194246	-109.222721	-63.545992	-174.168490
02759		8.371659	-3.854060	-0.910565	-0.218772	-0.135911	-0.238997	-109.587447	-63.647162	-173.899412
02760		8.345326	-3.696092	-1.105294	-0.251506	-0.128102	-0.303580	-109.986922	-63.783694	-173.611992
02761		8.266913	-3.701743	-1.316550	-0.297241	-0.113567	-0.374532	-110.432619	-63.960471	-173.303443
02762		8.203824	-3.801429	-1.461701	-0.300103	-0.121737	-0.463349	-110.927818	-64.181972	-172.941421
02763		8.206171	-3.869359	-1.490624	-0.281620	-0.103024	-0.535113	-111.433636	-64.444395	-172.557378
02764		8.200224	-3.937140	-1.694781	-0.247791	-0.085926	-0.608101	-111.939170	-64.747700	-172.152351
02765		8.208267	-3.887051	-1.607818	-0.188785	-0.076745	-0.678190	-112.447591	-65.088733	-171.708626
02766		8.240607	-3.834207	-1.463052	-0.180934	-0.068622	-0.742646	-112.982953	-65.463730	-171.230870
02767		8.314237	-3.802072	-1.559259	-0.196200	-0.077139	-0.803423	-113.587134	-65.866938	-170.689366
02768		8.306780	-3.811377	-1.690079	-0.211250	-0.084571	-0.837048	-114.242124	-66.283347	-170.102764
02769		8.296563	-3.842658	-1.650468	-0.258609	-0.092900	-0.869834	-114.978418	-66.712122	-169.459669
02770		8.697776	-4.089279	-1.590141	-0.341031	-0.121372	-0.893802	-115.832757	-67.142421	-168.741021
02771		9.774482	-3.902992	-1.540545	-0.286103	-0.106940	-0.888289	-116.667494	-67.569609	-168.012421
02772		10.267680	-3.151711	-1.296011	-0.209814	-0.097621	-0.922189	-117.494128	-68.012090	-167.246995
02773		11.333924	-2.901592	-1.661973	-0.192591	-0.148410	-0.911443	-118.404453	-68.431358	-166.383784
02774		11.781039	-3.162641	-1.808426	-0.451354	-0.226459	-0.788198	-119.505473	-68.761440	-165.476593
02775		11.485450	-4.118560	-1.814448	-0.903083	-0.225523	-0.530146	-120.705170	-68.957197	-164.743349
02776		11.103536	-5.317037	-1.077449	-1.229425	-0.132694	-0.246022	-121.763889	-69.036159	-164.361441
02777		10.212305	-6.211469	-0.811572	-1.198971	-0.085415	-0.058588	-122.604582	-69.036283	-164.195064
02778		10.193817	-5.968195	-1.293608	-0.629287	-0.214827	-0.008589	-123.234418	-68.971114	-163.904075
02779		10.490688	-4.838479	-1.510781	-0.022395	-0.278715	0.008106	-123.585346	-68.877082	-163.539993
02780		10.406034	-3.595186	-2.214413	0.296569	-0.300118	0.017667	-123.762352	-68.770662	-163.165239
02781		10.014469	-2.947847	-2.544575	0.271280	-0.305138	0.022059	-123.960290	-68.660527	-162.784251
02782		9.702702	-2.745859	-2.615243	-0.039089	-0.303907	-0.006194	-124.347883	-68.563073	-162.389353
02783		9.327072	-2.557696	-2.177887	-0.479982	-0.274852	-0.076143	-125.014071	-68.507115	-161.967269
02784		9.028583	-2.447709	-1.976586	-0.775255	-0.251963	-0.169032	-125.891946	-68.499714	-161.498514
02785		8.942123	-2.516875	-1.866422	-0.834989	-0.196951	-0.266867	-126.830354	-68.553714	-161.002457
02786		8.711618	-2.558646	-1.957669	-0.698339	-0.147053	-0.358819	-127.711853	-68.663861	-160.482838
02787		8.526248	-2.573295	-2.156553	-0.498262	-0.129982	-0.436675	-128.543243	-68.812464	-159.895311
02788		8.476144	-2.584787	-2.124363	-0.391757	-0.108452	-0.497197	-129.349332	-68.992591	-159.269300
02789		8.345222	-2.817482	-2.225063	-0.335806	-0.103022	-0.541391	-130.178057	-69.191052	-158.586382
02790		8.409031	-3.046406	-2.235258	-0.269084	-0.112218	-0.572564	-131.018163	-69.395940	-157.850520
02791		8.441851	-3.234560	-2.257865	-0.159012	-0.099231	-0.597015	-131.826781	-69.612598	-157.082782
02792		8.454825	-3.134211	-2.296263	-0.025607	-0.101459	-0.609144	-132.584098	-69.829640	-156.288511
02793		8.567805	-3.051947	-2.467694	0.007200	-0.125629	-0.610503	-133.374739	-70.034258	-155.440638
02794		8.674093	-3.041329	-2.918619	0.084342	-0.170714	-0.591098	-134.160789	-70.208654	-154.550856
02795		9.032923	-2.826393	-3.098407	0.189404	-0.218610	-0.557598	-134.924061	-70.346287	-153.623005
02796		9.500460	-2.477711	-3.072749	0.156743	-0.254732	-0.536129	-135.726868	-70.455827	-152.672994
02797		9.771583	-2.194595	-3.223654	0.115043	-0.281692	-0.524897	-136.586715	-70.545536	-151.689177
02798		9.979668	-1.801072	-3.135237	0.115156	-0.290893	-0.520567	-137.453300	-70.624289	-150.697944
02799		10.076816	-1.533853	-2.675618	0.125801	-0.286795	-0.522122	-138.324903	-70.700794	-149.696116
02800		10.042431	-1.139491	-2.080377	0.060835	-0.268270	-0.531219	-139.226567	-70.783251	-148.701709
02801		9.894271	-0.880351	-1.778875	-0.035513	-0.216256	-0.545050	-140.159884	-70.888595	-147.733453
02802		9.807938	-0.720854	-1.661804	-0.121601	-0.155513	-0.556465	-141.098691	-71.019802	-146.811648
02803		9.652604	-0.723428	-1.713948	-0.200507	-0.102687	-0.569348	-142.063564	-71.174251	-145.911482
02804		9.535323	-0.888089	-1.966634	-0.215907	-0.088452	-0.573456	-143.038193	-71.332040	-145.010592
02805		9.453476	-0.899473	-2.293250	-0.163822	-0.076985	-0.570824	-143.988470	-71.488911	-144.105318
02806		9.482250	-0.830984	-2.580149	-0.144561	-0.082009	-0.571375	-144.944139	-71.639433	-143.183019
02807		9.373969	-0.768623	-3.033513	-0.101562	-0.072041	-0.568838	-145.881577	-71.788339	-142.255296
02808		9.222249	-0.568518	-3.003836	-0.034924	-0.079321	-0.571780	-146.802972	-71.930707	-141.304613
02809		9.158544	-0.267301	-3.001544	-0.021190	-0.067216	-0.572582	-147.724757	-72.073618	-140.346456
02810		9.084466	-0.135794	-2.890907	-0.067094	-0.068463	-0.583875	-148.703018	-72.215221	-139.357032
02811		9.030587	-0.155389	-2.896666	-0.093224	-0.069590	-0.579302	-149.708614	-72.348821	-138.355726
02812		9.154449	-0.122340	-2.743697	-0.102702	-0.079000	-0.581297	-150.744054	-72.473765	-137.329296
02813		9.120003	-0.168716	-2.649139	-0.174123	-0.069107	-0.579542	-151.825467	-72.596531	-136.298502
02814		9.204300	-0.389423	-2.707755	-0.212013	-0.068424	-0.578248	-152.939484	-72.714351	-135.256827
02815		9.170486	-0.448922	-2.544997	-0.194106	-0.045397	-0.567676	-154.022131	-72.834292	-134.238072
02816		9.222902	-0.465051	-2.633029	-0.183141	-0.036806	-0.567201	-155.104941	-72.953899	-133.213145
02817		9.197022	-0.351065	-2.432631	-0.179296	-0.040147	-0.568447	-156.204858	-73.065232	-132.168746
02818		9.155223	-0.506593	-2.500919	-0.226727	-0.047823	-0.575595	-157.364184	-73.169214	-131.091224
02819		9.252667	-0.431677	-2.887264	-0.152827	-0.039748	-0.572974	-158.483693	-73.269564	-130.011681
02820		9.209331	-0.108135	-2.783126	-0.151464	-0.033943	-0.567689	-159.602760	-73.366946	-128.932357
02821		9.169123	-0.172390	-2.936168	-0.162825	-0.015602	-0.552858	-160.701080	-73.464202	-127.882007
02822		9.249309	-0.105330	-2.932960	-0.159610	-0.017947	-0.539643	-161.788580	-73.553106	-126.841598
02823		9.131135	-0.041912	-2.741995	-0.191699	-0.024105	-0.532409	-162.893863	-73.630642	-125.802191
02824		9.216525	-0.130397	-2.791110	-0.227183	-0.026717	-0.518106	-164.006213	-73.699765	-124.777122
02825		9.338966	-0.015206	-2.653546	-0.212920	-0.037562	-0.501958	-165.091303	-73.753853	-123.772136
02826		9.482160	-0.426409	-2.954321	-0.356975	-0.053264	-0.497197	-166.266975	-73.794009	-122.759180
02827		9.194073	-0.773482	-3.182003	-0.181441	-0.035458	-0.493627	-167.329218	-73.837085	-121.759655
02828		9.230544	-0.593404	-3.156195	-0.113756	-0.047729	-0.487990	-168.355023	-73.868426	-120.758066
02829		9.079168	-0.621274	-3.376028	-0.009239	-0.047943	-0.480995	-169.307608	-73.893170	-119.770314
02830		9.099737	-0.421335	-3.219724	0.095575	-0.058991	-0.473151	-170.194537	-73.907206	-118.788689
02831		9.092695	-0.207476	-3.184405	0.123138	-0.055112	-0.464289	-171.045036	-73.917767	-117.828403
02832		9.102593	-0.139972	-3.093465	0.140174	-0.051285	-0.455984	-171.872908	-73.926459	-116.881775
02833		9.143724	-0.157029	-2.985950	0.122919	-0.054550	-0.446113	-172.689136	-73.928221	-115.957356
02834		9.177226	-0.095713	-2.895782	0.142549	-0.044063	-0.437607	-173.478769	-73.932224	-115.049164
02835		9.093929	-0.083418	-2.958806	0.195012	-0.049776	-0.422713	-174.206402	-73.928292	-114.173970
02836		9.045150	-0.041924	-2.960936	0.259701	-0.042082	-0.412294	-174.878448	-73.925577	-113.318295
02837		8.998084	0.127923	-2.987015	0.311003	-0.042516	-0.399930	-175.492289	-73.919018	-112.492327
02838		8.948933	0.185443	-3.090935	0.330105	-0.048443	-0.386578	-176.072989	-73.906374	-111.689694
02839		8.966655	0.176787	-3.050421	0.335741	-0.064079	-0.368545	-176.611146	-73.881722	-110.927630
02840		9.004675	0.156363	-3.066507	0.309405	-0.084799	-0.347410	-177.126915	-73.842733	-110.204757
02841		9.011868	0.113283	-3.123231	0.291949	-0.088637	-0.323812	-177.599026	-73.799083	-109.537307
02842		9.145561	0.092235	-3.245878	0.302406	-0.096200	-0.311768	-178.043390	-73.749353	-108.892671
02843		9.274384	0.258109	-3.137793	0.327941	-0.095312	-0.308653	-178.459124	-73.698738	-108.262141
02844		9.428023	0.296036	-3.037991	0.348159	-0.080000	-0.311927	-178.870534	-73.655536	-107.624225
02845		9.595158	0.389177	-2.856870	0.357525	-0.068448	-0.315817	-179.276500	-73.617846	-106.985927
02846		9.776586	0.440891	-2.736617	0.307994	-0.056987	-0.321423	-179.724053	-73.585228	-106.334095
02847		9.752982	0.331966	-2.678681	0.249852	-0.027152	-0.321025	179.802632	-73.568421	-105.689703
02848		9.541090	0.140239	-2.649580	0.196758	-0.018330	-0.324612	179.287869	-73.554901	-105.034126
02849		9.530960	-0.013495	-2.736432	0.219135	-0.014188	-0.320083	178.800565	-73.542369	-104.393405
02850		9.392030	-0.058753	-2.818854	0.283865	-0.015816	-0.305467	178.374671	-73.527479	-103.778358
02851		9.068232	0.114511	-2.877572	0.330900	-0.018749	-0.281639	178.027957	-73.510358	-103.217373
02852		9.718483	0.355074	-2.989555	0.410760	-0.052639	-0.236932	177.812116	-73.473746	-102.745436
02853		8.996694	0.371500	-3.074412	0.542902	-0.064872	-0.219529	177.712776	-73.430390	-102.315603
02854		9.553061	1.295502	-2.639402	0.328359	0.009475	-0.203116	177.512161	-73.429363	-101.908666
02855		9.073598	0.773836	-3.244154	0.117222	0.034233	-0.205184	177.189191	-73.442231	-101.499940
02856		9.389245	0.803703	-2.757047	0.141720	-0.022966	-0.225196	176.841887	-73.420730	-101.051571
02857		9.580041	0.899181	-2.539417	0.018200	0.002124	-0.216608	176.443821	-73.413408	-100.623649
02858		9.559008	0.664299	-2.683496	-0.088725	0.015034	-0.230993	175.949689	-73.411611	-100.159827
02859		9.469917	0.599003	-2.694540	-0.046824	0.018972	-0.259073	175.431117	-73.410058	-99.645026
02860		9.469882	0.797284	-2.665586	0.025230	0.014611	-0.285694	174.897665	-73.403015	-99.072045
02861		9.378377	1.074050	-2.710230	0.057689	0.032945	-0.303219	174.352373	-73.404331	-98.466857
02862		9.536663	1.345195	-2.601316	0.003270	0.038894	-0.319967	173.736178	-73.405900	-97.820687
02863		9.357459	1.220825	-2.793137	-0.074340	0.057906	-0.328699	173.060806	-73.416043	-97.158727
02864		9.320675	1.153931	-2.680676	-0.082753	0.039370	-0.338222	172.359475	-73.412258	-96.475219
02865		9.230749	1.065251	-2.606386	-0.123867	0.046075	-0.331955	171.652026	-73.410832	-95.809398
02866		9.130712	0.888914	-2.528711	-0.180347	0.031740	-0.319447	170.933147	-73.399533	-95.165922
02867		9.155683	0.644865	-2.902082	-0.189284	0.034209	-0.306241	170.241699	-73.389105	-94.555852
02868		8.991886	0.522863	-2.799534	-0.184858	0.006417	-0.289461	169.587515	-73.362108	-93.982496
02869		9.207213	0.370130	-3.025194	-0.169261	-0.009093	-0.267981	168.997724	-73.327438	-93.466402
02870		9.290381	0.291895	-3.079659	-0.119535	-0.005250	-0.255079	168.454155	-73.294310	-92.969249
02871		9.451478	0.268876	-3.213042	-0.050276	0.005229	-0.254056	167.957248	-73.266503	-92.478783
02872		9.536446	0.412789	-3.245769	0.053689	0.018201	-0.268628	167.482257	-73.242298	-91.949428
02873		9.567710	0.502028	-3.233624	0.119527	0.025955	-0.294913	167.001272	-73.218534	-91.373851
02874		9.395807	0.555501	-3.294190	0.183045	0.025092	-0.327394	166.492163	-73.187799	-90.731277
02875		9.252249	0.770242	-2.963459	0.223735	-0.010160	-0.353690	165.982964	-73.133017	-90.063629
02876		9.253445	0.856437	-3.008436	0.177595	0.000301	-0.358934	165.430429	-73.080621	-89.378597
02877		9.130424	0.885262	-2.936560	0.128534	0.019669	-0.361335	164.846014	-73.037534	-88.688982
02878		9.109576	0.954982	-2.842366	0.065517	0.001995	-0.363821	164.227241	-72.981222	-88.001475
02879		9.241889	0.853718	-2.848502	-0.025169	0.012020	-0.364273	163.560922	-72.929105	-87.317923
02880		9.275913	0.779335	-2.952257	-0.055933	0.020791	-0.365039	162.869010	-72.878261	-86.626305
02881		9.322555	0.780608	-2.869355	-0.085945	0.010292	-0.358458	162.187601	-72.821439	-85.963017
02882		9.307359	0.641712	-2.860870	-0.134606	0.003902	-0.358374	161.481014	-72.757693	-85.302786
02883		9.419098	0.543179	-2.831686	-0.176226	0.002522	-0.345387	160.784762	-72.694335	-84.677679
02884		9.354466	0.378677	-2.860807	-0.204690	0.028392	-0.309815	160.116969	-72.648446	-84.099701
02885		9.204916	0.366716	-2.843935	-0.177533	0.028464	-0.271995	159.538077	-72.609328	-83.598017
02886		9.225717	0.319802	-2.817806	-0.161478	0.049405	-0.237170	159.011708	-72.585941	-83.142029
02887		9.139003	0.500228	-2.766841	-0.137603	0.049012	-0.208183	158.554591	-72.568307	-82.743854
02888		9.216373	0.612028	-2.800962	-0.146632	0.040856	-0.191752	158.122223	-72.547787	-82.377344
02889		9.096834	0.693726	-2.801792	-0.130398	0.017774	-0.184806	157.731970	-72.516821	-82.044840
02890		9.078687	0.831157	-2.761697	-0.125913	0.001891	-0.181003	157.359116	-72.476525	-81.728136
02891		9.005240	0.894967	-2.786041	-0.165587	0.002145	-0.175596	156.977847	-72.438035	-81.426062
02892		9.097386	0.869332	-2.846813	-0.229181	0.009070	-0.168342	156.565089	-72.403108	-81.129413
02893		9.187124	0.725144	-2.822411	-0.283951	0.025959	-0.161045	156.125740	-72.379156	-80.837445
02894		9.257641	0.644639	-2.750196	-0.309754	0.036780	-0.160432	155.662295	-72.359219	-80.535943
02895		9.307262	0.706657	-2.773706	-0.290972	0.043522	-0.177641	155.180548	-72.339043	-80.203635
02896		9.432274	0.794870	-2.758455	-0.273989	0.048430	-0.200996	154.664834	-72.313802	-79.825664
02897		9.453285	0.800170	-2.826448	-0.244838	0.055840	-0.223101	154.128471	-72.286935	-79.408191
02898		9.431127	0.924071	-2.852648	-0.182753	0.067613	-0.251719	153.571308	-72.256651	-78.931680
02899		9.501139	0.950997	-2.934783	-0.157221	0.068467	-0.277321	152.991558	-72.219813	-78.415789
02900		9.603176	0.933641	-2.692923	-0.164833	0.059049	-0.304757	152.372033	-72.168290	-77.862759
02901		9.442487	0.715655	-2.890087	-0.194486	0.072498	-0.331971	151.687179	-72.115377	-77.258598
02902		9.175319	0.786424	-2.834461	-0.141601	0.062128	-0.353450	151.010354	-72.048155	-76.630975
02903		9.173518	0.830602	-2.861004	-0.183516	0.068257	-0.360218	150.300420	-71.980764	-75.993402
02904		9.148810	0.923355	-2.858978	-0.156194	0.074287	-0.365854	149.596082	-71.911345	-75.345113
02905		9.104139	0.934551	-2.625549	-0.213738	0.082977	-0.367583	148.854783	-71.844150	-74.692263
02906		9.147984	0.967238	-2.759597	-0.198678	0.079469	-0.367873	148.129303	-71.771613	-74.046793
02907		8.895198	0.820243	-3.028671	-0.160536	0.124375	-0.368267	147.389348	-71.719098	-73.362765
02908		8.979965	1.251567	-2.549030	-0.093704	0.080627	-0.371829	146.727881	-71.640888	-72.720851
02909		9.560491	1.263844	-2.681176	-0.180853	0.094993	-0.371743	146.008688	-71.568066	-72.070413
02910		9.017093	0.799393	-3.027938	-0.174485	0.159374	-0.397623	145.199328	-71.513687	-71.320836
02911		9.165137	1.419058	-2.664894	-0.098985	0.084611	-0.420108	144.480711	-71.414596	-70.620999
02912		9.530469	1.304815	-2.642114	-0.243970	0.120275	-0.428374	143.640222	-71.325389	-69.879793
02913		8.410093	1.254867	-2.412270	-0.285094	0.137851	-0.451268	142.734587	-71.233646	-69.094321
02914		9.057252	1.392121	-2.834981	-0.249344	0.083693	-0.472763	141.886174	-71.105165	-68.347087
02915		8.546548	1.310513	-2.680589	-0.273667	0.150294	-0.489785	140.942143	-70.997473	-67.513029
02916		9.369938	1.296929	-3.139809	-0.163037	0.124779	-0.510801	140.073077	-70.865787	-66.690517
02917		9.512436	1.433064	-3.002223	-0.110551	0.161697	-0.522652	139.190079	-70.742502	-65.820880
02918		9.492989	1.229299	-3.258262	-0.057337	0.131890	-0.552274	138.346716	-70.590143	-64.960046
02919		9.451171	1.565983	-3.252687	0.072735	0.098532	-0.581790	137.590380	-70.409042	-64.111749
02920		9.420238	1.645686	-3.062105	0.136505	0.078815	-0.593934	136.894888	-70.210627	-63.288043
02921		9.551836	1.814554	-3.070167	0.184577	0.059421	-0.603913	136.249393	-69.997691	-62.487375
02922		9.503160	2.126615	-2.742946	0.206230	0.068322	-0.587330	135.642941	-69.791373	-61.713729
02923		9.571016	2.452009	-2.680630	0.172334	0.079110	-0.561528	135.044689	-69.597740	-60.968817
02924		9.392146	2.782182	-2.485442	0.091380	0.104592	-0.521299	134.430847	-69.427371	-60.255595
02925		9.398433	2.911034	-2.441046	-0.013352	0.111514	-0.490589	133.789862	-69.270325	-59.577030
02926		9.624920	3.045067	-2.414052	-0.076752	0.135419	-0.453284	133.137378	-69.134855	-58.924069
02927		9.663966	3.087540	-2.363834	-0.175746	0.129309	-0.427972	132.466304	-69.005637	-58.311654
02928		9.773047	2.916529	-2.519635	-0.221158	0.132326	-0.402502	131.801488	-68.885186	-57.733026
02929		9.684886	2.780914	-2.449742	-0.262938	0.134530	-0.372308	131.144185	-68.776807	-57.187964
02930		9.647170	2.649927	-2.467528	-0.282320	0.139982	-0.346131	130.503245	-68.678945	-56.671711
02931		9.595023	2.439980	-2.467201	-0.291820	0.150478	-0.331375	129.861729	-68.589975	-56.160643
02932		9.690632	2.243895	-2.467000	-0.255341	0.154984	-0.310699	129.262355	-68.509178	-55.671795
02933		9.751580	2.151225	-2.477997	-0.230834	0.154256	-0.294334	128.694158	-68.434175	-55.201411
02934		9.732793	2.126226	-2.596114	-0.200988	0.154440	-0.275839	128.165698	-68.365410	-54.754806
02935		9.657171	2.152688	-2.523709	-0.177653	0.149942	-0.252761	127.676331	-68.304506	-54.336011
02936		9.643092	2.280061	-2.481624	-0.188320	0.133418	-0.221457	127.232549	-68.250461	-53.972328
02937		9.708470	2.370962	-2.556520	-0.208759	0.112752	-0.174667	126.839900	-68.210061	-53.676566
02938		9.571025	2.504305	-2.563394	-0.230550	0.117407	-0.117055	126.483044	-68.196744	-53.432341
02939		9.595437	2.538073	-2.612035	-0.249145	0.131151	-0.047324	126.155691	-68.220005	-53.231775
02940		9.559690	2.625387	-2.357195	-0.315622	0.151104	0.027241	125.832806	-68.283912	-53.076660
02941		9.464756	2.623420	-2.226029	-0.403103	0.161277	0.091509	125.496847	-68.381011	-52.961925
02942		9.308258	2.705053	-1.979762	-0.478295	0.162468	0.145017	125.162920	-68.503109	-52.895350
02943		9.191932	2.672566	-1.778114	-0.510621	0.176471	0.199561	124.833463	-68.655416	-52.853969
02944		9.023771	2.669757	-1.601640	-0.462123	0.194492	0.256518	124.559012	-68.840252	-52.841421
02945		9.094969	2.721466	-1.409864	-0.347993	0.209589	0.310708	124.371297	-69.055654	-52.852180
02946		9.195724	2.725550	-1.193974	-0.244615	0.227976	0.363790	124.267276	-69.302096	-52.888708
02947		9.197022	2.782538	-1.104071	-0.192642	0.270117	0.403505	124.169622	-69.580981	-52.900554
02948		9.104939	2.823737	-1.070349	-0.147264	0.297852	0.415557	124.075071	-69.874561	-52.887633
02949		9.096394	3.015761	-1.027356	-0.098675	0.329519	0.421170	123.966927	-70.180890	-52.830989
02950		9.005489	3.087487	-1.036689	-0.094984	0.340652	0.411643	123.837893	-70.486316	-52.749743
02951		8.962892	2.993418	-1.201483	-0.047976	0.339881	0.396734	123.717093	-70.784223	-52.649109
02952		9.016966	3.061880	-1.139184	-0.036168	0.336499	0.394649	123.605126	-71.080111	-52.550612
02953		9.213089	3.033250	-1.260022	-0.054574	0.362702	0.420578	123.463666	-71.396485	-52.432515
02954		8.847181	3.032110	-1.424686	-0.098957	0.375562	0.445562	123.299655	-71.728872	-52.317490
02955		8.969476	2.907249	-1.750673	-0.101719	0.369998	0.475846	123.164074	-72.073819	-52.234451
02956		8.965628	2.988338	-1.841566	-0.084281	0.377326	0.519263	123.068346	-72.441885	-52.182766
02957		9.029732	3.074818	-1.818769	-0.090822	0.364665	0.561240	123.025397	-72.826093	-52.190581
02958		9.161890	3.014203	-1.905317	-0.144049	0.357390	0.601966	123.006817	-73.227529	-52.255591
02959		9.175607	3.019151	-1.761111	-0.222163	0.344851	0.640620	123.003358	-73.643697	-52.383082
02960		9.199068	2.867954	-1.641678	-0.334580	0.335114	0.677988	122.997490	-74.074594	-52.574706
02961		9.224133	2.497459	-1.459751	-0.404624	0.316165	0.719589	123.033553	-74.519739	-52.851292
02962		9.333065	2.213881	-1.209945	-0.425774	0.295419	0.773924	123.169453	-74.984092	-53.243191
02963		9.270783	1.950007	-1.023793	-0.406013	0.269712	0.821403	123.436482	-75.463002	-53.758247
02964		9.179853	1.811026	-0.858771	-0.371400	0.247638	0.884244	123.874679	-75.963805	-54.428228
02965		9.086154	1.651173	-0.939330	-0.331542	0.215925	0.945241	124.519106	-76.481983	-55.285644
02966		8.847935	1.674103	-1.053795	-0.238197	0.174783	1.003333	125.446490	-77.010865	-56.376847
02967		8.842594	1.793186	-1.008993	-0.152779	0.151270	1.057794	126.639666	-77.552563	-57.688085
02968		8.963040	1.837927	-0.975210	-0.121562	0.130499	1.111200	128.100007	-78.104317	-59.251506
02969		9.091362	1.808860	-1.017702	-0.142705	0.118826	1.159947	129.805629	-78.664527	-61.074570
02970		9.352951	1.842992	-1.112649	-0.186846	0.127554	1.192734	131.714290	-79.230126	-63.126643
02971		9.698236	1.712878	-0.897782	-0.267599	0.131520	1.230685	133.864019	-79.799254	-65.467109
02972		10.092949	1.310608	-1.340777	-0.278341	0.166252	1.283394	136.317373	-80.385949	-68.117768
02973		10.369421	0.995026	-1.125628	-0.298517	0.169472	1.332280	139.207381	-80.971337	-71.218064
02974		10.269258	0.715464	-1.094113	-0.265597	0.177881	1.383444	142.659220	-81.550007	-74.862678
02975		10.252682	0.610225	-1.012319	-0.212103	0.166767	1.415735	146.780307	-82.096786	-79.147128
02976		10.062929	0.569798	-1.083292	-0.126428	0.171329	1.432321	151.601841	-82.601278	-84.083309
02977		10.042302	0.661515	-0.940551	-0.117002	0.143558	1.443491	157.192299	-83.032904	-89.783799
02978		9.942268	0.679419	-1.040359	-0.058928	0.112583	1.450716	163.569280	-83.372247	-96.238165
02979		9.997946	0.583282	-1.136492	-0.016619	0.064310	1.460335	170.651901	-83.594292	-103.374657
02980		9.886228	0.470252	-1.126139	0.022742	-0.010975	1.478529	178.248910	-83.668567	-111.003965
02981		9.915112	0.374622	-1.239304	0.015594	-0.092038	1.498790	-174.054783	-83.582812	-118.737370
02982		10.008077	0.295985	-1.449916	-0.040548	-0.126575	1.525555	-166.634661	-83.362257	-126.227533
02983		9.656414	0.305474	-1.352096	-0.117307	-0.148254	1.546700	-159.783739	-83.022485	-133.192996
02984		9.721274	0.299356	-1.387057	-0.245885	-0.222421	1.564757	-153.801232	-82.549132	-139.363514
02985		9.914688	-0.024934	-1.516708	-0.324689	-0.232450	1.572669	-148.629759	-81.995861	-144.768342
02986		9.831567	-0.292483	-1.371027	-0.313617	-0.236705	1.574779	-144.174462	-81.380778	-149.450845
02987		9.852345	-0.604064	-1.184239	-0.284489	-0.290931	1.563237	-140.481326	-80.698903	-153.352867
02988		9.846603	-0.861457	-1.136697	-0.239458	-0.311746	1.543969	-137.388332	-79.980528	-156.627885
02989		9.827480	-0.918546	-1.106325	-0.201130	-0.343027	1.524672	-134.811366	-79.230752	-159.363277
02990		9.764634	-1.241279	-1.354844	-0.232660	-0.390547	1.493899	-132.760726	-78.455630	-161.587686
02991		9.855336	-1.415878	-1.364507	-0.210476	-0.410762	1.482953	-131.024398	-77.663653	-163.483957
02992		9.887677	-1.767436	-1.533239	-0.181925	-0.428246	1.480345	-129.531908	-76.855693	-165.119404
02993		9.904056	-2.130708	-1.667929	-0.009537	-0.390434	1.473142	-128.063916	-76.055410	-166.633293
02994		9.982581	-2.353828	-1.570078	0.224851	-0.309901	1.462729	-126.501875	-75.278798	-168.110975
02995		9.833010	-2.312391	-1.505487	0.426553	-0.311891	1.429414	-125.020271	-74.507506	-169.390742
02996		9.699280	-2.041302	-1.300501	0.497480	-0.326683	1.353846	-123.738514	-73.759422	-170.425378
02997		9.734607	-1.952363	-1.520816	0.442528	-0.323102	1.278922	-122.657662	-73.042650	-171.286931
02998		9.731823	-1.874344	-1.646808	0.332414	-0.302052	1.221085	-121.741374	-72.356302	-172.045599
02999		9.556294	-2.018134	-1.688766	0.224737	-0.289677	1.165253	-120.977618	-71.697591	-172.711439
03000		9.505001	-2.301195	-1.487790	0.180719	-0.283569	1.118552	-120.320362	-71.061413	-173.294201
03001		9.498203	-2.667258	-1.442265	0.157230	-0.239228	1.079981	-119.683181	-70.454786	-173.871930
03002		9.381522	-2.844949	-1.241833	0.175020	-0.224943	1.041842	-119.083383	-69.869485	-174.401423
03003		9.562070	-2.857229	-1.587221	0.265391	-0.168699	1.014748	-118.406960	-69.311034	-174.959163
03004		9.344204	-2.958567	-1.359611	0.349062	-0.122197	0.993532	-117.670586	-68.773818	-175.531980
03005		9.453101	-3.129325	-1.547547	0.422774	-0.144617	0.946275	-116.982504	-68.251913	-176.009371
03006		9.423261	-2.948415	-1.265906	0.563031	-0.141694	0.910718	-116.261673	-67.747244	-176.437313
03007		9.458799	-2.638150	-1.142953	0.588184	-0.138109	0.873388	-115.567940	-67.260383	-176.821651
03008		9.305384	-2.658659	-1.171348	0.549960	-0.123679	0.829638	-114.926492	-66.798543	-177.174501
03009		9.239084	-2.676051	-1.222879	0.426567	-0.190976	0.785459	-114.477054	-66.341789	-177.396179
03010		9.387139	-2.659274	-1.515329	0.395699	-0.169981	0.764752	-114.044931	-65.900780	-177.619191
03011		9.324640	-2.651845	-1.440961	0.284993	-0.135171	0.751695	-113.652565	-65.473387	-177.868770
03012		9.212606	-2.958565	-1.528504	0.135763	-0.127388	0.731380	-113.358040	-65.058644	-178.105781
03013		9.117160	-3.175432	-1.526422	0.084866	-0.141617	0.711598	-113.125080	-64.649838	-178.307611
03014		9.100266	-3.310119	-1.472127	0.178217	-0.098848	0.719567	-112.796409	-64.246889	-178.557108
03015		8.917118	-3.419469	-1.351511	0.278973	-0.073375	0.721378	-112.389657	-63.846986	-178.829896
03016		8.844463	-3.501732	-1.271014	0.366936	-0.102294	0.708532	-111.980252	-63.447809	-179.050518
03017		8.793516	-3.420250	-1.477442	0.483655	-0.095106	0.687558	-111.513557	-63.059573	-179.260985
03018		8.845633	-3.340081	-1.484858	0.477747	-0.135962	0.649994	-111.117924	-62.683267	-179.396296
03019		8.832391	-3.379497	-1.725019	0.474603	-0.139647	0.609746	-110.749382	-62.326248	-179.503373
03020		8.832903	-3.402059	-1.977160	0.507956	-0.134021	0.575384	-110.375979	-61.989678	-179.594867
03021		8.718752	-3.447983	-1.862845	0.520295	-0.106584	0.542694	-109.984242	-61.674635	-179.699224
03022		8.690518	-3.584415	-1.777357	0.483506	-0.078534	0.502763	-109.606292	-61.387526	-179.812409
03023		8.504107	-3.632242	-1.339067	0.433557	-0.056972	0.465252	-109.252009	-61.123163	-179.931302
03024		8.396061	-3.624269	-1.271600	0.359394	-0.075472	0.424353	-108.977126	-60.878539	179.991460
03025		8.419083	-3.418759	-1.298012	0.370457	-0.076475	0.403106	-108.705383	-60.643694	179.925156
03026		8.228515	-3.502771	-1.443242	0.305227	-0.123683	0.348919	-108.537328	-60.430997	179.934620
03027		8.364657	-3.733744	-2.195415	0.435949	-0.147972	0.292083	-108.335524	-60.243321	179.991709
03028		8.457244	-3.632716	-1.656186	0.538919	-0.115647	0.258666	-108.056912	-60.081296	-179.971934
03029		8.420585	-3.797111	-1.294102	0.431114	-0.076685	0.208635	-107.818242	-59.951940	-179.960423
03030		8.170646	-3.755141	-0.709510	0.390843	-0.098843	0.153545	-107.642320	-59.850457	-179.903354
03031		8.299704	-3.704072	-1.113840	0.336074	-0.121915	0.105502	-107.532531	-59.769637	-179.805711
03032		8.099901	-3.550663	-1.259633	0.320417	-0.115345	0.063595	-107.439322	-59.714691	-179.699475
03033		8.156854	-3.527983	-1.298772	0.268981	-0.158558	0.013436	-107.429275	-59.678039	-179.530718
03034		8.118266	-3.633278	-1.405568	0.265585	-0.139791	-0.024884	-107.416177	-59.667429	-179.367999
03035		8.030255	-3.853780	-1.600609	0.305234	-0.149881	-0.062243	-107.399301	-59.673679	-179.183044
03036		8.132523	-4.077923	-1.826552	0.392826	-0.157903	-0.109026	-107.355085	-59.706108	-178.971977
03037		8.148520	-4.274119	-1.463467	0.429132	-0.130000	-0.151460	-107.275056	-59.764700	-178.778073
03038		8.141099	-4.327398	-1.019923	0.453125	-0.089207	-0.193923	-107.157250	-59.855548	-178.612458
03039		7.965874	-4.185228	-0.752805	0.425843	-0.089283	-0.226905	-107.063385	-59.962666	-178.437065
03040		7.998609	-4.035964	-0.837154	0.377097	-0.113901	-0.262414	-107.033216	-60.087144	-178.220887
03041		8.012064	-3.942689	-0.669931	0.296676	-0.127668	-0.285420	-107.068446	-60.219957	-177.982413
03042		8.050127	-4.069493	-0.797007	0.224939	-0.145136	-0.295612	-107.167392	-60.357261	-177.718480
03043		8.188305	-4.311564	-1.158443	0.244156	-0.119916	-0.300319	-107.232610	-60.499234	-177.480776
03044		8.065462	-4.500618	-1.122327	0.267058	-0.111802	-0.305313	-107.281190	-60.647210	-177.247679
03045		8.254063	-4.773052	-1.751998	0.271761	-0.107455	-0.298325	-107.320738	-60.790008	-177.021950
03046		8.119315	-4.857139	-1.898765	0.343848	-0.064241	-0.284498	-107.274901	-60.934557	-176.847239
03047		8.141569	-5.036332	-1.916657	0.254647	-0.125952	-0.281722	-107.339717	-61.065108	-176.604449
03048		8.173855	-5.235942	-2.113108	0.236837	-0.120290	-0.259576	-107.405159	-61.186208	-176.373163
03049		8.203976	-5.311073	-1.655358	0.227565	-0.130290	-0.232332	-107.477008	-61.288741	-176.140606
03050		8.226247	-5.439097	-1.623554	0.177003	-0.126623	-0.200603	-107.566839	-61.376073	-175.921083
03051		8.146025	-5.362528	-1.110101	0.226334	-0.134605	-0.161503	-107.623156	-61.438874	-175.707396
03052		8.312448	-5.430382	-0.929798	0.146077	-0.160862	-0.130745	-107.744095	-61.481655	-175.472886
03053		8.553790	-5.556655	-1.143449	0.203675	-0.159899	-0.092930	-107.817747	-61.502286	-175.254417
03054		8.587390	-5.354041	-1.200063	0.316387	-0.138598	-0.053314	-107.794080	-61.506348	-175.073470
03055		8.481428	-5.225339	-1.276544	0.379772	-0.119539	-0.027136	-107.705162	-61.498182	-174.925199
03056		8.267445	-4.996175	-0.948622	0.304136	-0.131500	-0.022110	-107.671160	-61.486506	-174.763955
03057		8.108163	-5.030991	-1.274016	0.124802	-0.151760	-0.021881	-107.758882	-61.469898	-174.580877
03058		8.084700	-5.126305	-1.392948	0.038000	-0.148197	-0.024537	-107.894527	-61.456332	-174.400023
03059		8.113947	-5.141611	-1.276503	0.013312	-0.142392	-0.025311	-108.037531	-61.442867	-174.226682
03060		8.113553	-5.096895	-1.287627	-0.010188	-0.157409	-0.035349	-108.213143	-61.432972	-174.031702
03061		8.142161	-5.080431	-1.228867	-0.066775	-0.187847	-0.052297	-108.456072	-61.425458	-173.796797
03062		8.221908	-5.168839	-1.427948	-0.050473	-0.152883	-0.073434	-108.662685	-61.436258	-173.592765
03063		8.101187	-5.076852	-1.422344	0.015160	-0.123143	-0.118486	-108.816653	-61.475774	-173.405748
03064		8.014417	-4.955786	-1.284465	0.068694	-0.119985	-0.194109	-108.964037	-61.557413	-173.191575
03065		8.014095	-4.753624	-1.355109	0.138134	-0.094772	-0.273969	-109.074332	-61.686012	-172.974407
03066		7.867298	-4.508810	-1.233470	0.218359	-0.082730	-0.366349	-109.161162	-61.867385	-172.732141
03067		7.946663	-4.308635	-1.252566	0.205959	-0.082741	-0.454801	-109.288246	-62.095714	-172.452665
03068		7.994321	-4.255288	-1.367881	0.175690	-0.060969	-0.529756	-109.441682	-62.369003	-172.163758
03069		8.056877	-4.279483	-1.552018	0.186100	-0.049502	-0.595722	-109.605539	-62.679108	-171.857048
03070		8.042913	-4.149641	-1.499165	0.207717	-0.035873	-0.646040	-109.767780	-63.019166	-171.539235
03071		8.046340	-4.239384	-1.568437	0.198267	-0.013125	-0.705271	-109.939701	-63.394566	-171.217550
03072		8.056981	-3.877797	-1.243429	0.288855	-0.013326	-0.746259	-110.083750	-63.792117	-170.870223
03073		8.076362	-3.678721	-1.147012	0.210263	-0.008212	-0.791540	-110.293050	-64.214027	-170.501516
03074		8.013934	-3.579614	-0.944433	0.176701	-0.013096	-0.821945	-110.550396	-64.651143	-170.102287
03075		8.046224	-3.485208	-0.836321	0.071265	-0.030427	-0.857544	-110.915046	-65.102363	-169.652639
03076		8.071646	-3.569887	-1.067208	-0.009836	-0.026287	-0.901285	-111.357181	-65.576991	-169.170604
03077		8.100528	-3.537193	-1.229003	-0.060888	-0.032195	-0.943615	-111.873698	-66.070692	-168.640886
03078		8.185811	-3.480506	-1.298180	-0.128657	-0.046778	-0.992637	-112.494144	-66.585586	-168.042197
03079		9.192423	-3.488381	-1.381754	-0.225749	-0.110799	-1.051439	-113.308283	-67.113684	-167.295669
03080		10.320610	-3.126884	-1.584645	-0.232859	-0.080520	-1.124209	-114.166215	-67.683103	-166.509167
03081		10.675222	-2.289811	-1.781772	-0.136033	-0.168405	-1.247431	-115.198901	-68.290088	-165.477605
03082		12.996287	-2.200792	-2.469359	-0.182682	-0.294674	-1.270893	-116.500565	-68.870276	-164.190123
03083		13.619177	-2.793549	-1.806430	-0.781659	-0.352166	-1.119543	-118.189382	-69.345201	-162.860111
03084		12.338981	-4.186926	-1.764063	-1.909418	-0.424610	-0.772369	-120.429342	-69.610667	-161.634868
03085		10.943321	-6.476811	-1.712434	-2.712587	-0.358818	-0.306984	-122.702345	-69.650694	-160.866381
03086		9.708221	-8.853598	-1.709915	-2.521192	-0.294185	0.032373	-124.496304	-69.540453	-160.491863
03087		9.760227	-8.573578	-1.327269	-0.959584	-0.276961	0.125650	-125.282352	-69.388405	-160.237844
03088		10.227396	-5.906465	-0.057485	0.116143	-0.353443	0.092739	-125.569114	-69.225624	-159.858330
03089		10.473734	-4.808198	-1.640227	0.558415	-0.298889	0.087612	-125.537033	-69.082980	-159.548555
03090		9.587285	-3.913121	-2.222812	0.835259	-0.231718	0.059784	-125.286060	-68.975919	-159.302854
03091		8.722682	-3.354086	-2.251007	0.532235	-0.247176	0.004298	-125.276188	-68.889881	-158.984896
03092		8.364853	-2.914552	-1.763564	0.085919	-0.209211	-0.081959	-125.547192	-68.856392	-158.639619
03093		8.178491	-2.634139	-1.423980	-0.312494	-0.141473	-0.186605	-126.056861	-68.893459	-158.283428
03094		8.162686	-2.653332	-1.467705	-0.465063	-0.080650	-0.291135	-126.673692	-68.998090	-157.906013
03095		8.033174	-2.980804	-1.714350	-0.393244	-0.048461	-0.373370	-127.292040	-69.150043	-157.483478
03096		7.949958	-3.107284	-1.982868	-0.177874	-0.051657	-0.436356	-127.854483	-69.327855	-156.988978
03097		7.907003	-2.974551	-2.159718	-0.035109	-0.054667	-0.505862	-128.415566	-69.534259	-156.409437
03098		8.192219	-2.891124	-2.359579	0.084170	-0.082802	-0.559705	-129.003892	-69.752465	-155.728499
03099		9.484341	-2.759645	-2.349952	0.170153	-0.097612	-0.579918	-129.596583	-69.971937	-154.991642
03100		10.700497	-2.708895	-2.260116	0.038645	-0.137995	-0.552061	-130.297724	-70.161266	-154.220304
03101		11.424902	-2.963423	-2.898789	-0.149947	-0.250158	-0.504157	-131.208103	-70.284297	-153.342428
03102		11.307295	-3.039932	-3.419505	-0.172016	-0.354892	-0.448889	-132.205077	-70.338671	-152.386277
03103		10.969167	-2.745055	-3.725404	0.038791	-0.406809	-0.398364	-133.093558	-70.346408	-151.417481
03104		10.315524	-2.087050	-3.288210	0.230427	-0.370633	-0.359150	-133.785535	-70.347409	-150.540597
03105		9.599999	-1.392347	-2.733925	0.339060	-0.282121	-0.325015	-134.277214	-70.366725	-149.810536
03106		9.077049	-0.810380	-2.116023	0.331237	-0.184274	-0.305136	-134.638993	-70.415211	-149.223145
03107		8.807123	-0.578774	-1.618512	0.142467	-0.115269	-0.299117	-135.027202	-70.487970	-148.722840
03108		8.743890	-0.864015	-1.109545	-0.114227	-0.081704	-0.304011	-135.532529	-70.575103	-148.254441
03109		8.677498	-1.363092	-0.785133	-0.328300	-0.111424	-0.321045	-136.219728	-70.655131	-147.723622
03110		8.541554	-1.612758	-0.931907	-0.419146	-0.150584	-0.342934	-137.032989	-70.725404	-147.114491
03111		8.505078	-1.638389	-1.572852	-0.344143	-0.192505	-0.364147	-137.881392	-70.783011	-146.422992
03112		8.695065	-1.414936	-2.080882	-0.225488	-0.185019	-0.379129	-138.675407	-70.846639	-145.717195
03113		8.686138	-1.215093	-2.516519	-0.205680	-0.204134	-0.393366	-139.502466	-70.903661	-144.964828
03114		8.789538	-1.051619	-3.110561	-0.220805	-0.272815	-0.430650	-140.462151	-70.940869	-144.081379
03115		8.866718	-0.862719	-3.289338	-0.274003	-0.303748	-0.470051	-141.539751	-70.972929	-143.105750
03116		8.969579	-0.934174	-3.261190	-0.355926	-0.312748	-0.514838	-142.735470	-71.010782	-142.054971
03117		9.123793	-1.009283	-3.058787	-0.408619	-0.289861	-0.533668	-143.968584	-71.057898	-140.996914
03118		9.182679	-1.346523	-2.951235	-0.442236	-0.249803	-0.538438	-145.194624	-71.118344	-139.967017
03119		9.406479	-1.676045	-2.801856	-0.377153	-0.242739	-0.527143	-146.367444	-71.171066	-138.954319
03120		9.555247	-1.733553	-2.456256	-0.321082	-0.202217	-0.499747	-147.438555	-71.228667	-138.015461
03121		9.344039	-1.766757	-2.606813	-0.258148	-0.200707	-0.490187	-148.463821	-71.278134	-137.087232
03122		9.133333	-1.440228	-2.608830	-0.095450	-0.195703	-0.500965	-149.412448	-71.328524	-136.141775
03123		9.025006	-0.956867	-2.682167	0.011993	-0.176257	-0.507090	-150.296526	-71.385035	-135.199767
03124		8.876590	-0.588487	-2.667189	-0.017243	-0.161052	-0.509833	-151.194882	-71.445662	-134.260711
03125		8.955848	-0.429485	-2.958892	-0.085093	-0.158335	-0.512934	-152.139813	-71.503245	-133.313841
03126		9.043896	-0.426323	-2.873833	-0.171264	-0.150795	-0.516374	-153.140222	-71.560916	-132.360907
03127		8.968694	-0.443296	-2.883035	-0.204900	-0.138644	-0.515530	-154.154232	-71.618841	-131.414216
03128		9.143319	-0.380922	-3.066468	-0.215713	-0.136962	-0.518553	-155.185269	-71.673505	-130.456512
03129		9.181110	-0.377313	-2.963645	-0.195064	-0.105416	-0.531988	-156.207831	-71.741935	-129.495524
03130		9.293557	-0.397879	-2.739462	-0.190731	-0.089962	-0.549522	-157.254647	-71.817474	-128.506911
03131		9.353503	-0.400198	-2.721619	-0.174038	-0.061130	-0.566344	-158.306780	-71.905824	-127.502979
03132		9.352234	-0.371431	-2.557576	-0.160530	-0.053788	-0.587568	-159.393496	-71.997122	-126.455195
03133		9.335574	-0.353710	-2.709656	-0.117209	-0.029351	-0.600052	-160.469882	-72.097409	-125.392601
03134		9.204508	-0.137230	-2.667882	-0.109019	-0.017920	-0.610762	-161.567357	-72.200163	-124.303694
03135		9.177499	-0.059890	-2.825066	-0.121188	-0.028434	-0.626995	-162.714853	-72.292983	-123.170019
03136		9.144197	0.102486	-3.037464	-0.095204	-0.024141	-0.635378	-163.874211	-72.383071	-122.009038
03137		8.942737	0.270358	-3.039056	-0.085245	-0.034926	-0.643753	-165.055933	-72.460786	-120.818962
03138		9.009399	0.245407	-3.268482	-0.098880	-0.049825	-0.641457	-166.261251	-72.522863	-119.613020
03139		9.104930	0.314785	-3.359004	-0.071496	-0.055379	-0.634267	-167.444768	-72.572887	-118.413630
03140		9.104665	0.252264	-3.193591	-0.093257	-0.064094	-0.622095	-168.632287	-72.609501	-117.223659
03141		9.298365	0.227722	-3.391831	-0.094240	-0.087625	-0.609953	-169.806598	-72.623872	-116.048023
03142		9.210754	0.279639	-3.557063	-0.003664	-0.056946	-0.590351	-170.890458	-72.647049	-114.913194
03143		8.995282	0.477518	-3.411402	0.106031	-0.058680	-0.585590	-171.901438	-72.662380	-113.788699
03144		8.983921	0.690274	-3.228533	0.165699	-0.044407	-0.586364	-172.882647	-72.680207	-112.660004
03145		9.085978	0.882660	-3.172225	0.159886	-0.022820	-0.573297	-173.836202	-72.703637	-111.563565
03146		9.213465	0.854407	-3.207289	0.097836	-0.007426	-0.553017	-174.793209	-72.729322	-110.501249
03147		9.420952	0.728288	-3.276980	0.025615	-0.003149	-0.516291	-175.720945	-72.750468	-109.512691
03148		9.470230	0.548725	-3.370401	-0.023237	0.010872	-0.466900	-176.591769	-72.773109	-108.613533
03149		9.602628	0.706746	-3.053003	-0.071714	-0.007396	-0.422219	-177.405819	-72.780078	-107.802578
03150		9.842195	-0.185154	-3.889336	0.014722	0.027012	-0.365815	-178.070400	-72.802281	-107.096722
03151		9.672150	0.575823	-2.811664	0.284725	-0.081416	-0.345265	-178.542588	-72.760073	-106.429881
03152		9.558034	1.115553	-3.386814	-0.032972	0.072157	-0.308503	-179.127784	-72.803421	-105.835714
03153		9.263884	0.387748	-3.739065	0.002986	0.036823	-0.303627	-179.680554	-72.824934	-105.253613
03154		9.517383	0.791550	-2.780197	0.005231	0.008527	-0.302720	179.762279	-72.828285	-104.666036
03155		9.644432	0.608937	-3.009041	-0.116440	0.061341	-0.286265	179.170576	-72.860544	-104.114897
03156		9.420021	0.615380	-2.950888	-0.137988	0.055497	-0.284503	178.561501	-72.887460	-103.559031
03157		9.465797	0.613962	-2.899697	-0.181195	0.036506	-0.296907	177.910543	-72.901811	-102.984862
03158		9.298544	0.586096	-3.096173	-0.152650	0.048174	-0.307504	177.247590	-72.920297	-102.381537
03159		9.165076	0.892288	-3.109425	-0.096382	0.038825	-0.328634	176.583904	-72.931101	-101.743314
03160		9.164024	0.964851	-3.220285	-0.107803	0.048115	-0.341183	175.881525	-72.944083	-101.071964
03161		9.084025	0.938616	-3.102157	-0.120113	0.045972	-0.361462	175.140513	-72.952900	-100.367160
03162		9.021703	0.895698	-3.092750	-0.117471	0.057875	-0.384485	174.348366	-72.964011	-99.607802
03163		9.123445	0.884169	-2.800468	-0.123775	0.025657	-0.394560	173.546768	-72.953611	-98.841864
03164		9.322182	0.662333	-3.058986	-0.146884	0.066426	-0.406165	172.694738	-72.961765	-98.037504
03165		9.152415	0.678869	-2.895697	-0.055835	0.064637	-0.405860	171.902405	-72.966176	-97.240562
03166		9.330827	0.750079	-2.816367	-0.015530	0.056330	-0.392403	171.153045	-72.963193	-96.464898
03167		9.272656	0.863348	-2.619201	0.019145	0.065531	-0.378441	170.453905	-72.964527	-95.720495
03168		9.187714	0.996776	-2.522566	0.025738	0.067683	-0.370267	169.765712	-72.964516	-94.984073
03169		9.220287	1.108087	-2.484586	0.015083	0.070742	-0.358340	169.099454	-72.965679	-94.276500
03170		9.244533	1.151806	-2.458918	-0.035747	0.067073	-0.345166	168.422319	-72.963072	-93.588492
03171		9.248973	1.072884	-2.614445	-0.090456	0.056609	-0.328677	167.755653	-72.954959	-92.943715
03172		9.323257	0.953103	-2.779807	-0.119221	0.044881	-0.319525	167.087389	-72.938453	-92.314953
03173		9.344993	0.990181	-2.809595	-0.140919	0.035455	-0.309089	166.438401	-72.916740	-91.718807
03174		9.309042	0.950699	-2.871259	-0.172933	0.027116	-0.296408	165.792051	-72.889333	-91.145023
03175		9.250456	0.933263	-2.946189	-0.185549	0.024735	-0.287339	165.165221	-72.860881	-90.598651
03176		9.199117	0.942505	-2.893217	-0.201987	0.015670	-0.278381	164.544159	-72.826129	-90.068569
03177		9.285385	0.891732	-2.960613	-0.221141	0.019905	-0.277913	163.920405	-72.792989	-89.546571
03178		9.274566	0.789187	-2.895584	-0.240335	0.024113	-0.277440	163.279331	-72.759605	-89.018343
03179		9.257052	0.633074	-2.912622	-0.241172	0.014615	-0.279041	162.649593	-72.719973	-88.501900
03180		9.223264	0.594347	-2.976523	-0.211566	0.023480	-0.294968	161.999637	-72.679724	-87.946875
03181		9.127419	0.668568	-2.963029	-0.161915	0.015822	-0.307646	161.370285	-72.632186	-87.383026
03182		9.418123	0.709026	-3.017889	-0.160136	0.023738	-0.322432	160.708323	-72.583268	-86.784247
03183		9.337203	0.723694	-3.140326	-0.125299	0.033831	-0.334285	160.049899	-72.536506	-86.167638
03184		9.347988	0.865954	-2.973670	-0.137069	0.011003	-0.355326	159.360704	-72.470043	-85.526087
03185		9.343528	0.891010	-2.991958	-0.155004	0.007985	-0.370816	158.648499	-72.397536	-84.870493
03186		9.295489	0.952640	-2.912981	-0.169143	0.014101	-0.377853	157.911969	-72.323167	-84.198034
03187		9.248744	1.027876	-2.812346	-0.188319	0.026423	-0.383210	157.158998	-72.252660	-83.519152
03188		9.226185	1.102242	-2.711071	-0.221537	0.036867	-0.384289	156.377760	-72.183479	-82.830723
03189		9.265279	1.076582	-2.808896	-0.268653	0.050117	-0.380236	155.577876	-72.120477	-82.150394
03190		9.238588	1.043489	-2.694340	-0.323683	0.035149	-0.368944	154.775576	-72.048300	-81.500807
03191		9.278642	0.971124	-2.732918	-0.397728	0.029319	-0.357673	153.964615	-71.974321	-80.886047
03192		9.194513	0.815898	-2.770367	-0.452529	0.029523	-0.339645	153.150969	-71.901153	-80.301621
03193		9.114792	0.677786	-2.734198	-0.490167	0.023987	-0.324892	152.353966	-71.827727	-79.756765
03194		9.272404	0.533783	-2.937708	-0.455554	0.038968	-0.306285	151.593406	-71.763384	-79.229547
03195		9.393685	0.487917	-2.885248	-0.403596	0.043283	-0.297343	150.881854	-71.702788	-78.722033
03196		9.368138	0.493513	-2.886686	-0.346258	0.047205	-0.293966	150.204449	-71.641988	-78.216038
03197		9.201535	0.596053	-2.770688	-0.285796	0.033722	-0.309326	149.558818	-71.569461	-77.706492
03198		9.126505	0.780007	-2.850472	-0.186277	0.036527	-0.326497	148.943059	-71.490360	-77.168398
03199		9.103801	1.154329	-2.846877	-0.111458	0.028873	-0.345894	148.357539	-71.401120	-76.616418
03200		9.225930	1.313242	-2.777718	-0.111575	0.051579	-0.348717	147.749302	-71.319081	-76.040531
03201		9.148013	1.216610	-2.803251	-0.212242	0.055419	-0.350315	147.086381	-71.237537	-75.467252
03202		9.193494	1.133844	-2.811515	-0.246289	0.045209	-0.350367	146.415528	-71.147788	-74.906167
03203		9.238453	1.061179	-2.853844	-0.290811	0.040017	-0.343825	145.742141	-71.056718	-74.368808
03204		9.283019	0.998312	-2.929835	-0.279053	0.044204	-0.345124	145.072654	-70.964020	-73.828382
03205		9.328346	1.114745	-2.939373	-0.248017	0.049688	-0.354840	144.411238	-70.869796	-73.277147
03206		9.254086	1.235532	-2.835944	-0.222208	0.048182	-0.361487	143.760714	-70.769452	-72.721661
03207		9.277580	1.302514	-2.732580	-0.208664	0.046412	-0.364547	143.124311	-70.666344	-72.172370
03208		9.253311	1.370854	-2.573171	-0.203927	0.049304	-0.366490	142.489418	-70.560771	-71.621626
03209		9.152529	1.488442	-2.468187	-0.204466	0.056095	-0.366044	141.856470	-70.457526	-71.072746
03210		9.218472	1.580709	-2.519271	-0.183626	0.051966	-0.361849	141.249161	-70.350881	-70.538204
03211		9.188210	1.696213	-2.469993	-0.191302	0.062822	-0.362382	140.633798	-70.248039	-69.999274
03212		9.037227	1.717024	-2.477999	-0.225314	0.067782	-0.353357	140.009206	-70.147694	-69.471045
03213		9.056822	1.661381	-2.639153	-0.254101	0.074862	-0.344947	139.378391	-70.052643	-68.953272
03214		9.078830	1.667241	-2.637647	-0.293544	0.084820	-0.332764	138.733077	-69.963513	-68.443942
03215		9.106876	1.529474	-2.695006	-0.324537	0.105592	-0.326755	138.061888	-69.884586	-67.925572
03216		9.081730	1.533876	-2.689664	-0.325351	0.107905	-0.330706	137.386699	-69.802055	-67.403271
03217		9.078227	1.582690	-2.707937	-0.301368	0.109819	-0.339106	136.719732	-69.715927	-66.874704
03218		9.049655	1.641934	-2.704905	-0.261252	0.099150	-0.355510	136.073008	-69.615857	-66.342969
03219		9.111146	1.862659	-2.565302	-0.233756	0.112528	-0.358920	135.430488	-69.518788	-65.798495
03220		9.125560	2.002068	-2.520542	-0.257313	0.099744	-0.362444	134.789481	-69.412073	-65.269737
03221		9.148146	2.011933	-2.461336	-0.329427	0.107783	-0.355564	134.112413	-69.310183	-64.746185
03222		9.195080	2.012216	-2.477113	-0.369430	0.111307	-0.348733	133.421094	-69.209443	-64.231587
03223		9.038511	2.084084	-2.697324	-0.411662	0.117340	-0.349226	132.704717	-69.109504	-63.715693
03224		8.920289	1.973834	-3.013726	-0.406201	0.133838	-0.355449	131.972501	-69.010135	-63.179158
03225		9.310935	1.677507	-3.193451	-0.384063	0.137127	-0.359529	131.251461	-68.908697	-62.640634
03226		9.766779	1.520494	-3.277563	-0.282476	0.132818	-0.363556	130.595571	-68.800747	-62.109146
03227		9.875037	1.705139	-3.219232	-0.152956	0.104153	-0.378205	130.037938	-68.674581	-61.603072
03228		9.761162	1.888018	-3.010366	-0.057200	0.081838	-0.378951	129.566244	-68.537487	-61.129834
03229		9.702224	2.236888	-2.804348	0.017074	0.067931	-0.368453	129.167525	-68.399452	-60.688935
03230		9.762944	2.584458	-2.676964	0.036842	0.072036	-0.350402	128.797952	-68.269135	-60.266680
03231		9.677033	2.905374	-2.624255	-0.031598	0.081528	-0.327822	128.402450	-68.152002	-59.858489
03232		9.509967	3.053659	-2.732026	-0.170004	0.088978	-0.302249	127.947146	-68.047204	-59.470858
03233		9.429601	3.090768	-2.802794	-0.320828	0.097161	-0.264912	127.431515	-67.961676	-59.111243
03234		9.411424	3.024562	-2.760782	-0.448771	0.101828	-0.237718	126.864980	-67.888195	-58.775446
03235		9.487535	3.000130	-2.596070	-0.520355	0.089911	-0.213871	126.292676	-67.821082	-58.477688
03236		9.508995	3.023724	-2.484573	-0.561793	0.079000	-0.197693	125.726144	-67.755952	-58.211502
03237		9.443696	2.948421	-2.386664	-0.591337	0.068343	-0.198089	125.155677	-67.686825	-57.959396
03238		9.362169	2.803575	-2.259012	-0.630736	0.068552	-0.196669	124.567343	-67.616758	-57.712074
03239		9.164778	2.619078	-2.363460	-0.636649	0.083076	-0.194518	123.961863	-67.552127	-57.449930
03240		9.163858	2.449034	-2.491047	-0.617249	0.078088	-0.182196	123.386489	-67.490086	-57.208024
03241		9.413873	2.436598	-2.513483	-0.587136	0.090062	-0.150043	122.839416	-67.446989	-56.978181
03242		9.412561	2.461659	-2.435252	-0.619461	0.100028	-0.129655	122.280390	-67.415346	-56.755165
03243		9.336931	2.319842	-2.531932	-0.584674	0.093455	-0.107888	121.764226	-67.392089	-56.557165
03244		9.248999	2.424967	-2.286247	-0.494661	0.098065	-0.069572	121.324260	-67.387741	-56.385569
03245		9.252798	2.392663	-2.060709	-0.445431	0.110136	-0.035723	120.920527	-67.403629	-56.222924
03246		9.255569	2.362932	-1.813661	-0.344286	0.120869	-0.002611	120.586965	-67.438093	-56.073273
03247		9.285506	2.494945	-1.555126	-0.237936	0.113662	0.027599	120.341326	-67.485558	-55.953157
03248		9.352925	2.553056	-1.480643	-0.137632	0.088238	0.051342	120.201538	-67.536906	-55.885178
03249		9.361830	2.672315	-1.361715	-0.044753	0.069845	0.085701	120.158542	-67.600298	-55.864638
03250		9.298940	2.613500	-1.392131	-0.003745	0.076938	0.115042	120.152946	-67.679996	-55.858886
03251		9.355400	2.753967	-1.283666	0.053408	0.090960	0.146753	120.183393	-67.779709	-55.856958
03252		9.259383	2.917592	-1.064821	0.110302	0.130005	0.171444	120.218557	-67.902723	-55.824683
03253		9.352544	2.965994	-0.917241	0.127852	0.144179	0.182338	120.252194	-68.035406	-55.780186
03254		9.283042	3.005605	-1.067727	0.187841	0.180497	0.186708	120.280312	-68.180650	-55.692530
03255		9.182967	3.256872	-1.014895	0.186534	0.193158	0.184175	120.287831	-68.328408	-55.583805
03256		9.243742	3.273816	-1.250515	0.169103	0.201862	0.188581	120.278527	-68.480813	-55.467659
03257		9.011380	3.274131	-1.448622	0.150716	0.222839	0.188318	120.229378	-68.639168	-55.320330
03258		9.032934	3.229080	-1.686997	0.190393	0.234008	0.205939	120.201839	-68.809398	-55.171802
03259		9.003515	3.330683	-1.618676	0.166081	0.264843	0.223298	120.130586	-68.997093	-54.991688
03260		9.013624	3.329838	-1.607754	0.073490	0.275387	0.250290	120.011753	-69.201041	-54.817518
03261		9.024782	3.107633	-1.609278	0.066943	0.291593	0.288682	119.892545	-69.428603	-54.647356
03262		9.038688	3.025944	-1.457535	0.092506	0.293003	0.333284	119.818527	-69.678566	-54.509918
03263		9.066639	2.848233	-1.398983	0.081213	0.294644	0.387638	119.774005	-69.956034	-54.411171
03264		8.925232	2.662141	-1.379869	0.083384	0.310147	0.441849	119.751409	-70.264804	-54.334478
03265		8.847988	2.565062	-1.340144	0.085595	0.320189	0.501565	119.761078	-70.606181	-54.290962
03266		8.863646	2.623036	-1.439056	0.092149	0.313506	0.559319	119.832408	-70.974356	-54.308748
03267		8.932041	2.657150	-1.526652	0.077237	0.291973	0.618187	119.976940	-71.365633	-54.412973
03268		9.048485	2.685157	-1.558225	0.074667	0.270194	0.684201	120.216939	-71.783239	-54.619024
03269		9.063037	2.750181	-1.539369	0.066981	0.263977	0.751244	120.531703	-72.231889	-54.907905
03270		9.070901	2.777056	-1.347485	0.027267	0.263203	0.821398	120.907664	-72.714280	-55.283976
03271		8.893962	2.772830	-1.267338	-0.036618	0.259822	0.885579	121.335254	-73.226391	-55.751408
03272		8.767890	2.724725	-1.164262	-0.109424	0.243351	0.938838	121.832427	-73.758361	-56.333557
03273		8.721350	2.783806	-1.181446	-0.181789	0.206024	0.985360	122.437269	-74.299994	-57.069317
03274		8.907603	2.698514	-1.278117	-0.199189	0.200256	1.026576	123.138641	-74.857224	-57.913509
03275		8.767332	2.682324	-1.274564	-0.228574	0.195786	1.079174	123.953129	-75.435273	-58.889946
03276		9.225383	2.738407	-0.486215	-0.273730	0.093127	1.124626	125.068621	-75.996981	-60.201113
03277		10.198077	1.867503	-1.877276	-0.265283	0.173146	1.198140	126.238356	-76.613281	-61.559820
03278		10.418443	1.789714	-0.954063	-0.247329	0.219956	1.266714	127.552612	-77.269780	-63.052700
03279		10.445907	1.395027	-0.788426	-0.382463	0.249512	1.336061	128.993234	-77.959908	-64.750300
03280		10.134446	1.048797	-1.011816	-0.288978	0.265595	1.379849	130.725513	-78.664713	-66.686604
03281		10.053459	1.103632	-0.857495	-0.186451	0.252007	1.395781	132.820937	-79.357852	-68.928280
03282		10.095406	1.156877	-0.935358	-0.074611	0.246697	1.409409	135.324442	-80.036707	-71.514529
03283		10.104229	1.169596	-0.922021	0.031567	0.244247	1.423421	138.296668	-80.697342	-74.509196
03284		10.033076	1.262637	-0.738293	0.055922	0.209548	1.437328	141.849792	-81.318235	-78.072352
03285		10.175344	1.092554	-0.994152	-0.017723	0.162929	1.447673	146.026080	-81.882270	-82.302450
03286		10.074844	0.950158	-1.278329	-0.074179	0.119902	1.485710	150.997897	-82.385616	-87.362640
03287		9.920805	0.668754	-1.274578	-0.166365	0.051791	1.547441	156.952733	-82.801413	-93.461921
03288		9.845576	0.257359	-1.352669	-0.242108	0.005142	1.621321	163.915894	-83.115060	-100.615972
03289		9.867808	0.060709	-1.364305	-0.233370	-0.023325	1.709276	171.874616	-83.306867	-108.763707
03290		9.954705	-0.000623	-1.514949	-0.212367	-0.036397	1.781635	-179.499428	-83.352662	-117.569089
03291		10.022233	-0.146787	-1.398511	-0.217369	-0.041185	1.819745	-170.778404	-83.238936	-126.473672
03292		10.034473	-0.353996	-1.393403	-0.228235	-0.070240	1.826079	-162.555688	-82.955816	-134.886278
03293		10.065424	-0.576899	-1.412132	-0.169958	-0.103877	1.810857	-155.208198	-82.523642	-142.389455
03294		10.026930	-0.878182	-1.271321	-0.105402	-0.144020	1.786965	-148.899229	-81.967826	-148.815777
03295		10.031662	-1.232892	-1.296498	-0.009870	-0.173851	1.763843	-143.554089	-81.320386	-154.222164
03296		10.088372	-1.425440	-1.414784	0.118497	-0.178392	1.754079	-138.953669	-80.608723	-158.809867
03297		9.899601	-1.471105	-1.188891	0.204847	-0.196671	1.751684	-135.018856	-79.839033	-162.681775
03298		9.877482	-1.528970	-1.125436	0.187527	-0.288761	1.737723	-131.885874	-78.999726	-165.757911
03299		9.937256	-1.638817	-1.576987	0.272921	-0.295551	1.738491	-129.163678	-78.130095	-168.373937
03300		9.784532	-1.460377	-1.370499	0.302111	-0.358498	1.720823	-126.947453	-77.224520	-170.463540
03301		9.936560	-1.523863	-1.751435	0.330816	-0.388090	1.703253	-125.081692	-76.302076	-172.183763
03302		9.923847	-1.647271	-1.781789	0.353074	-0.416364	1.670783	-123.521881	-75.374343	-173.582147
03303		9.974950	-1.732147	-2.043655	0.459544	-0.366003	1.636446	-122.028091	-74.470198	-174.854772
03304		9.879298	-1.825475	-1.911305	0.473923	-0.372118	1.591336	-120.733998	-73.578347	-175.916754
03305		9.806960	-1.938253	-1.876002	0.409542	-0.366620	1.535072	-119.638353	-72.710228	-176.814663
03306		9.830823	-2.205620	-1.995901	0.388829	-0.318706	1.497423	-118.607939	-71.869503	-177.660845
03307		9.671361	-2.314497	-1.643523	0.375826	-0.285473	1.447830	-117.655755	-71.058620	-178.436268
03308		9.559465	-2.423740	-1.556833	0.389981	-0.248377	1.411507	-116.740185	-70.271964	-179.168152
03309		9.430876	-2.504248	-1.446082	0.451549	-0.243086	1.357167	-115.880680	-69.510992	-179.806182
03310		9.285510	-2.393263	-1.194184	0.547502	-0.259929	1.285036	-115.088990	-68.780068	179.683922
03311		9.295898	-2.211317	-1.236741	0.669974	-0.234911	1.226413	-114.271911	-68.083200	179.219859
03312		9.322125	-2.073618	-1.071036	0.683419	-0.257636	1.152435	-113.556640	-67.417662	178.871733
03313		9.230620	-1.974888	-1.135479	0.656851	-0.245102	1.076495	-112.909444	-66.793337	178.579501
03314		9.200453	-1.955874	-1.172144	0.572072	-0.232375	0.991200	-112.362295	-66.216009	178.341917
03315		8.987485	-2.079582	-1.240506	0.433665	-0.271123	0.897672	-112.000781	-65.678952	178.219915
03316		9.102857	-2.177320	-1.552177	0.396050	-0.248101	0.831840	-111.675469	-65.181922	178.113353
03317		8.967085	-2.268440	-1.397868	0.283816	-0.239200	0.777539	-111.435110	-64.715090	178.029337
03318		8.877829	-2.476772	-1.389860	0.140679	-0.263471	0.722152	-111.333763	-64.273179	178.007969
03319		8.808532	-2.653752	-1.428512	0.094706	-0.267872	0.674501	-111.284428	-63.855229	178.015262
03320		8.758013	-2.760446	-1.504061	0.080521	-0.287419	0.639993	-111.280248	-63.452309	178.063693
03321		8.709494	-2.867148	-1.634966	0.106801	-0.301271	0.606981	-111.287379	-63.063461	178.142025
03322		8.780279	-2.957882	-1.966500	0.212968	-0.275557	0.585899	-111.215959	-62.692006	178.200482
03323		8.769525	-3.031822	-2.253059	0.334876	-0.240059	0.574239	-111.042342	-62.333396	178.222897
03324		8.745608	-3.168935	-2.222883	0.427844	-0.211199	0.550203	-110.799113	-61.994453	178.226620
03325		8.774013	-3.419797	-2.035752	0.460112	-0.213494	0.521908	-110.551656	-61.669363	178.246810
03326		8.856057	-3.726629	-1.915127	0.504035	-0.200489	0.495937	-110.279766	-61.361792	178.267568
03327		8.774780	-3.782567	-1.335813	0.485768	-0.220596	0.477262	-110.045446	-61.059410	178.319640
03328		8.764004	-3.845536	-1.247485	0.463179	-0.216666	0.454517	-109.831391	-60.771133	178.379897
03329		8.719048	-3.797066	-1.202997	0.456548	-0.212248	0.428353	-109.625625	-60.496942	178.445814
03330		8.545587	-3.754242	-1.172085	0.445774	-0.201897	0.397069	-109.429313	-60.242798	178.515345
03331		8.419758	-3.779129	-1.232295	0.427473	-0.220557	0.358878	-109.272949	-60.004806	178.619358
03332		8.363782	-3.864299	-1.537641	0.434769	-0.227970	0.321971	-109.133002	-59.786648	178.747094
03333		8.251226	-3.856196	-1.501447	0.438106	-0.214112	0.292144	-108.986428	-59.586268	178.869966
03334		8.216163	-3.959351	-1.572049	0.384457	-0.219821	0.250825	-108.890272	-59.408527	179.015580
03335		8.133443	-4.000550	-1.342558	0.350261	-0.196374	0.215198	-108.801590	-59.253387	179.147691
03336		8.082762	-3.956098	-1.078429	0.246017	-0.162307	0.164703	-108.758412	-59.133215	179.263088
03337		8.079940	-3.893016	-1.122893	0.177797	-0.092626	0.121594	-108.702725	-59.048089	179.318816
03338		7.930427	-3.855713	-0.899482	0.108413	-0.058877	0.080844	-108.670128	-58.992571	179.354822
03339		7.881286	-3.883090	-0.932079	0.038820	-0.064052	0.033838	-108.694965	-58.960345	179.411662
03340		7.912592	-3.953527	-1.170071	-0.000911	-0.079104	-0.013147	-108.771740	-58.952148	179.502269
03341		7.662422	-4.070634	-0.945073	-0.061743	-0.112321	-0.050952	-108.923553	-58.956879	179.640076
03342		7.901909	-4.271127	-1.503390	-0.117064	-0.138824	-0.087456	-109.143613	-58.977565	179.820246
03343		7.757878	-4.333027	-1.573991	-0.068210	-0.086724	-0.104917	-109.293268	-59.015861	179.951151
03344		7.859531	-4.309138	-1.508029	-0.080703	-0.079470	-0.127838	-109.452466	-59.069106	-179.915502
03345		7.908953	-4.485945	-1.605216	-0.113635	-0.083853	-0.150744	-109.641063	-59.132309	-179.769687
03346		8.085815	-4.642495	-1.869455	-0.090894	-0.064578	-0.166254	-109.806203	-59.208727	-179.636398
03347		7.975629	-4.748079	-1.689716	-0.111795	-0.087487	-0.196233	-110.013381	-59.295251	-179.467966
03348		8.124578	-4.980953	-1.672084	-0.111083	-0.098252	-0.231164	-110.243971	-59.399432	-179.272294
03349		8.052669	-5.079490	-1.824891	-0.081266	-0.106039	-0.244899	-110.469285	-59.507726	-179.062844
03350		8.162607	-5.239401	-2.088352	0.017201	-0.100263	-0.250325	-110.637512	-59.620982	-178.854688
03351		8.125023	-5.320347	-2.080051	0.129298	-0.083993	-0.252600	-110.727324	-59.737258	-178.662934
03352		8.108593	-5.376095	-2.058742	0.198697	-0.096046	-0.261521	-110.793985	-59.856894	-178.452481
03353		8.171463	-5.402566	-1.961502	0.250245	-0.100193	-0.253737	-110.831896	-59.970260	-178.241078
03354		8.213848	-5.456785	-1.870193	0.267753	-0.103614	-0.240427	-110.860529	-60.076794	-178.029336
03355		8.130596	-5.580768	-1.668932	0.309896	-0.109607	-0.226640	-110.865150	-60.173639	-177.817358
03356		8.167864	-5.536640	-1.685983	0.373889	-0.131226	-0.227220	-110.855547	-60.267333	-177.580014
03357		8.223937	-5.481953	-1.800347	0.491283	-0.133427	-0.220174	-110.777564	-60.355950	-177.343887
03358		8.223494	-5.278850	-1.744346	0.573120	-0.152076	-0.225886	-110.674062	-60.444866	-177.083665
03359		8.210455	-4.998843	-1.614388	0.557211	-0.199125	-0.233282	-110.626211	-60.527576	-176.769913
03360		8.133841	-4.840445	-1.781251	0.489016	-0.203005	-0.229699	-110.621891	-60.608406	-176.451563
03361		8.104121	-4.624137	-1.709429	0.397588	-0.215162	-0.221004	-110.678145	-60.681293	-176.123791
03362		7.922295	-4.647095	-1.627596	0.212675	-0.230246	-0.225019	-110.858542	-60.753634	-175.775660
03363		7.925747	-4.608194	-1.443877	0.088977	-0.242619	-0.239601	-111.127215	-60.829870	-175.407575
03364		8.028143	-4.562015	-1.302086	-0.023269	-0.254473	-0.272897	-111.487032	-60.921074	-175.009336
03365		8.081693	-4.579585	-1.462751	-0.117564	-0.236967	-0.332268	-111.908212	-61.045625	-174.602865
03366		8.100464	-4.721109	-1.592514	-0.149585	-0.227481	-0.409436	-112.373825	-61.212259	-174.167417
03367		8.136155	-4.797067	-1.733704	-0.172565	-0.239475	-0.502626	-112.906259	-61.423085	-173.671357
03368		8.162813	-4.797174	-1.851959	-0.105182	-0.237349	-0.588055	-113.442495	-61.677704	-173.128387
03369		8.022114	-4.595201	-1.849414	0.009682	-0.252257	-0.660094	-113.967194	-61.963737	-172.524996
03370		8.028794	-4.313106	-1.880135	0.126637	-0.253176	-0.724714	-114.467192	-62.281230	-171.875652
03371		7.819035	-4.065922	-1.750264	0.226712	-0.241417	-0.779077	-114.935217	-62.626797	-171.199450
03372		7.767780	-3.814039	-1.733907	0.224480	-0.243160	-0.836537	-115.449687	-62.999453	-170.474878
03373		7.688679	-3.775151	-1.692054	0.194282	-0.213798	-0.890448	-115.994560	-63.403751	-169.737914
03374		7.623486	-3.915070	-1.808303	0.124721	-0.206502	-0.949939	-116.623768	-63.837412	-168.954202
03375		7.622269	-4.085477	-1.831704	0.121472	-0.186115	-0.994063	-117.279722	-64.294598	-168.145599
03376		7.569850	-4.126907	-1.585658	0.112785	-0.186970	-1.031872	-117.990444	-64.766803	-167.285196
03377		7.860535	-4.116886	-1.693363	0.043038	-0.203485	-1.059546	-118.804254	-65.243198	-166.358298
03378		8.181496	-4.127306	-2.067501	-0.008994	-0.209615	-1.082247	-119.703774	-65.723532	-165.373702
03379		9.327566	-4.009448	-1.997288	-0.036712	-0.295290	-1.106867	-120.767198	-66.184063	-164.230485
03380		10.046829	-3.441125	-2.118477	-0.100345	-0.277770	-1.133103	-121.909711	-66.653746	-163.045005
03381		10.948199	-2.945931	-2.638503	-0.121206	-0.377208	-1.164993	-123.246172	-67.097653	-161.665548
03382		12.223754	-3.493714	-2.855579	-0.372160	-0.447572	-1.058553	-124.777029	-67.454932	-160.235458
03383		13.067059	-4.974547	-3.050138	-0.974872	-0.497356	-0.755966	-126.505343	-67.638665	-158.968003
03384		12.159259	-6.516351	-2.248192	-1.531567	-0.355277	-0.343616	-128.066661	-67.669921	-158.227094
03385		10.965851	-7.334512	-1.610288	-1.699198	-0.257506	0.003526	-129.315172	-67.573884	-157.927998
03386		9.679453	-7.464723	-1.836363	-1.095985	-0.243203	0.171821	-130.048906	-67.406895	-157.811800
03387		9.670468	-6.695110	-1.698693	-0.080433	-0.303746	0.211453	-130.224559	-67.199859	-157.669589
03388		9.615930	-5.447103	-1.580177	0.591748	-0.266740	0.221340	-129.966736	-67.001928	-157.579612
03389		9.208729	-4.594774	-2.365818	0.888920	-0.212119	0.195604	-129.506830	-66.835824	-157.524132
03390		8.793754	-4.027904	-2.443777	0.859332	-0.190809	0.118829	-129.108540	-66.711300	-157.419895
03391		8.457754	-3.456434	-2.074465	0.519288	-0.171550	-0.015702	-128.999524	-66.654127	-157.212839
03392		8.091587	-3.209489	-2.174955	0.198169	-0.121906	-0.174704	-129.155326	-66.685164	-156.917619
03393		7.919006	-3.222980	-2.373387	0.094773	-0.097512	-0.314813	-129.465628	-66.787099	-156.518974
03394		7.788447	-3.309501	-2.227438	0.187838	-0.049888	-0.433492	-129.777591	-66.957512	-156.060824
03395		7.524589	-3.344561	-2.271873	0.380246	-0.060258	-0.546184	-130.095255	-67.173071	-155.477558
03396		8.780768	-3.063073	-2.271780	0.564595	-0.148002	-0.605808	-130.459066	-67.380337	-154.730522
03397		10.770863	-2.710072	-2.545204	0.574958	-0.130089	-0.599938	-130.804244	-67.590443	-153.998495
03398		11.321353	-2.153509	-2.480546	0.454907	-0.202728	-0.595909	-131.300009	-67.768957	-153.178926
03399		11.686950	-1.680916	-2.778828	0.260222	-0.384097	-0.617934	-132.130109	-67.884579	-152.119776
03400		11.959472	-1.205445	-3.066979	0.181509	-0.397322	-0.608545	-133.018496	-67.984809	-151.047082
03401		11.579937	-0.666559	-2.952518	0.126837	-0.315991	-0.565216	-133.821827	-68.093368	-150.100787
03402		10.589848	-0.291772	-2.622191	0.048215	-0.258364	-0.538001	-134.591992	-68.208805	-149.239420
03403		9.933059	0.040249	-2.421574	0.032026	-0.165585	-0.535406	-135.283978	-68.356731	-148.473060
03404		9.364589	0.391216	-1.576550	-0.088038	-0.098722	-0.573788	-136.027307	-68.543978	-147.726315
03405		8.921707	0.171056	-1.221453	-0.296486	-0.044757	-0.644563	-136.925360	-68.777507	-146.942793
03406		8.624950	-0.274361	-1.147733	-0.412551	-0.060459	-0.729376	-138.018346	-69.032640	-146.022900
03407		8.733093	-0.577230	-1.721530	-0.435297	-0.088810	-0.805731	-139.263926	-69.297311	-144.955292
03408		8.854829	-0.649878	-2.269287	-0.422259	-0.076104	-0.866791	-140.591464	-69.582033	-143.794109
03409		8.846275	-0.780165	-2.883473	-0.381073	-0.035296	-0.914598	-141.948402	-69.891960	-142.578669
03410		8.720758	-0.879216	-3.479743	-0.265763	-0.012964	-0.959915	-143.315278	-70.218340	-141.284884
03411		8.721733	-0.865684	-3.791331	-0.080519	-0.024947	-1.006390	-144.690411	-70.543559	-139.872259
03412		8.744258	-0.588853	-3.834744	0.063997	-0.006645	-1.044872	-146.065462	-70.879026	-138.374961
03413		8.706378	-0.559011	-3.600128	0.110098	0.006981	-1.062767	-147.475510	-71.213974	-136.815675
03414		8.883052	-0.574958	-3.659159	0.185184	0.017332	-1.062817	-148.887549	-71.541895	-135.212098
03415		8.907010	-0.362905	-3.445088	0.276582	0.032301	-1.042207	-150.253569	-71.858246	-133.604699
03416		8.924799	-0.080233	-3.220548	0.280798	0.041948	-1.024054	-151.634544	-72.162604	-131.982067
03417		8.944848	-0.027871	-2.924156	0.205577	0.035938	-1.012601	-153.093420	-72.447959	-130.325411
03418		9.044474	0.043927	-2.780308	0.128271	0.029182	-0.992968	-154.622685	-72.712030	-128.644127
03419		9.086085	0.093644	-2.606682	0.042350	0.037057	-0.963092	-156.189387	-72.959036	-126.977306
03420		9.005762	0.252669	-2.334370	-0.039257	0.037746	-0.931261	-157.796403	-73.185909	-125.319564
03421		9.348580	0.403293	-2.416265	-0.143864	0.025227	-0.884995	-159.428092	-73.382381	-123.700258
03422		9.373268	0.300175	-2.525092	-0.266264	0.037151	-0.829155	-161.061775	-73.561464	-122.153859
03423		9.319273	0.275372	-2.677492	-0.339698	0.026742	-0.772840	-162.667526	-73.712013	-120.681480
03424		9.211119	0.329534	-2.698590	-0.404903	0.012240	-0.714574	-164.239869	-73.833841	-119.284098
03425		9.169915	0.233293	-2.688574	-0.504392	-0.001469	-0.654205	-165.776252	-73.928214	-117.983973
03426		9.106488	0.022607	-2.628624	-0.585651	-0.005324	-0.591110	-167.258980	-74.002732	-116.788960
03427		9.141688	-0.102812	-2.381202	-0.656014	-0.040853	-0.540040	-168.702258	-74.042564	-115.676968
03428		9.310627	-0.297941	-2.444297	-0.718303	-0.063900	-0.485488	-170.092613	-74.056305	-114.657582
03429		9.389978	-0.427995	-2.870357	-0.710265	-0.063483	-0.437811	-171.379842	-74.059148	-113.740400
03430		9.327218	-0.419626	-3.013959	-0.691421	-0.085873	-0.408540	-172.609385	-74.041590	-112.872251
03431		9.377947	-0.332571	-3.228771	-0.657640	-0.083713	-0.379600	-173.753552	-74.018213	-112.072385
03432		9.236792	-0.222436	-3.282581	-0.660908	-0.074426	-0.357104	-174.855423	-73.994627	-111.318672
03433		9.231445	-0.188838	-3.277660	-0.667566	-0.081409	-0.332994	-175.905916	-73.961988	-110.621975
03434		9.291040	-0.218772	-3.213338	-0.625576	-0.058481	-0.315207	-176.896099	-73.938388	-109.963206
03435		9.419253	-0.049056	-2.908747	-0.565288	-0.064709	-0.295226	-177.804739	-73.907716	-109.352957
03436		9.630724	0.104862	-3.098732	-0.522766	-0.043008	-0.281600	-178.663237	-73.886551	-108.769764
03437		9.577162	0.160687	-3.275752	-0.464409	-0.022065	-0.266112	-179.449930	-73.875017	-108.226157
03438		9.285356	0.252993	-3.356048	-0.380221	-0.015478	-0.270059	179.799482	-73.865095	-107.670200
03439		9.094592	0.495463	-3.397881	-0.295953	-0.013213	-0.281789	179.080040	-73.854588	-107.096066
03440		8.868364	0.537048	-3.486345	-0.237079	-0.000686	-0.288660	178.375604	-73.848945	-106.502728
03441		8.812976	0.669495	-3.337765	-0.194595	-0.016005	-0.299445	177.681278	-73.832564	-105.894227
03442		8.950207	0.663381	-3.416829	-0.196315	0.003983	-0.312773	176.953550	-73.824811	-105.252258
03443		8.979437	0.698001	-3.218825	-0.140516	0.017556	-0.329840	176.228592	-73.822347	-104.579547
03444		9.073626	0.700980	-3.152611	-0.107229	0.014538	-0.348167	175.481860	-73.814534	-103.864616
03445		9.184879	0.680723	-3.216714	-0.042636	0.028413	-0.366683	174.739577	-73.811628	-103.115432
03446		9.264836	0.704127	-2.930854	-0.000855	0.046383	-0.376479	173.993058	-73.815154	-102.337245
03447		9.277568	0.644330	-2.842712	0.019779	0.064603	-0.386686	173.239482	-73.826134	-101.539096
03448		9.260180	0.559703	-2.848446	0.036838	0.082529	-0.398914	172.460497	-73.842846	-100.704704
03449		9.135047	0.384367	-2.787695	0.045032	0.079481	-0.403902	171.681436	-73.854907	-99.865073
03450		9.207589	0.237493	-2.879807	0.063224	0.068388	-0.411467	170.894891	-73.856165	-99.007154
03451		9.252443	0.208704	-2.782156	0.125365	0.083202	-0.417484	170.132730	-73.862695	-98.137246
03452		9.330330	0.251265	-2.702153	0.192460	0.069190	-0.425678	169.392352	-73.856592	-97.250308
03453		9.808117	0.363939	-2.675267	0.274611	0.076895	-0.417847	168.717307	-73.853374	-96.382049
03454		9.136920	0.322597	-2.620596	0.330259	0.015403	-0.458231	168.016827	-73.807323	-95.454305
03455		9.402473	1.009466	-2.640226	0.293195	0.054802	-0.452530	167.298746	-73.781606	-94.529876
03456		9.170901	0.766489	-2.791329	0.243969	0.067737	-0.439093	166.569921	-73.760792	-93.623817
03457		9.420717	0.769746	-2.386400	0.174361	0.059492	-0.420288	165.848284	-73.735575	-92.766388
03458		9.494947	0.612660	-2.583985	0.091331	0.094811	-0.384473	165.126731	-73.731234	-91.958827
03459		9.373656	0.407796	-2.648609	0.058713	0.085945	-0.365389	164.432719	-73.722921	-91.199109
03460		9.261478	0.287971	-2.712101	0.083175	0.064252	-0.347329	163.794689	-73.702154	-90.483334
03461		9.259054	0.329183	-2.916749	0.129043	0.050000	-0.331852	163.226541	-73.674835	-89.812623
03462		9.363664	0.465745	-3.047317	0.163049	0.040754	-0.324263	162.695029	-73.641029	-89.159943
03463		9.337530	0.509505	-3.199443	0.220105	0.038497	-0.324755	162.203559	-73.605167	-88.514546
03464		9.228159	0.656329	-2.923415	0.289584	0.003078	-0.325937	161.769642	-73.547383	-87.887740
03465		9.372033	0.666957	-2.928169	0.319928	-0.007056	-0.322406	161.373747	-73.484402	-87.282013
03466		9.208198	0.776489	-2.716767	0.350930	0.001242	-0.317515	160.999105	-73.424686	-86.679969
03467		9.232549	0.813466	-2.645513	0.341177	-0.007808	-0.303371	160.657711	-73.362655	-86.118027
03468		9.208155	0.852695	-2.573568	0.305919	-0.001495	-0.274182	160.344111	-73.307696	-85.606239
03469		9.228093	0.834301	-2.583548	0.260168	-0.002928	-0.249275	160.056335	-73.257039	-85.148417
03470		9.342307	0.775446	-2.689852	0.240453	-0.007206	-0.223968	159.803747	-73.207425	-84.739243
03471		9.337410	0.742484	-2.719208	0.207307	-0.003886	-0.212002	159.556814	-73.162477	-84.355494
03472		9.456881	0.769757	-2.825281	0.213572	-0.015295	-0.200741	159.339148	-73.112208	-83.998692
03473		9.456617	0.816518	-2.822108	0.206168	-0.023368	-0.198156	159.132417	-73.058775	-83.657442
03474		9.451806	0.814500	-2.934565	0.259453	-0.025417	-0.197238	158.957544	-73.003080	-83.317685
03475		9.579360	0.961631	-2.861646	0.319497	-0.028925	-0.197092	158.824655	-72.946299	-82.985553
03476		9.632450	1.130644	-2.890506	0.315716	-0.025739	-0.183319	158.709677	-72.892831	-82.674520
03477		9.440008	1.236576	-2.806292	0.294763	-0.021442	-0.170758	158.605982	-72.845139	-82.387578
03478		9.201928	1.373229	-2.593799	0.261310	-0.036709	-0.156435	158.516144	-72.791112	-82.135316
03479		9.174764	1.381789	-2.599185	0.202931	-0.020114	-0.139259	158.415244	-72.750470	-81.906236
03480		9.153863	1.500001	-2.530064	0.162027	0.002996	-0.125547	158.296213	-72.723845	-81.682868
03481		9.203517	1.522179	-2.423976	0.076151	0.013363	-0.115101	158.142425	-72.705858	-81.474403
03482		9.196239	1.459165	-2.611459	0.019279	0.010903	-0.107841	157.967237	-72.686885	-81.277839
03483		9.416156	1.541209	-2.671126	0.029362	0.001402	-0.123090	157.782176	-72.660454	-81.064650
03484		9.485674	1.522790	-2.712438	-0.015460	-0.001663	-0.138467	157.544827	-72.627749	-80.823763
03485		9.425118	1.365374	-2.917613	-0.058829	-0.016321	-0.158131	157.264066	-72.583709	-80.563161
03486		9.305086	1.522230	-2.892275	-0.043347	-0.012236	-0.173210	156.961988	-72.536983	-80.271066
03487		9.325419	1.454590	-2.802607	-0.117439	-0.012248	-0.186916	156.599567	-72.487739	-79.959922
03488		9.268973	1.301400	-2.796349	-0.160314	0.003417	-0.189015	156.196246	-72.444502	-79.631783
03489		9.170084	1.242053	-2.613617	-0.208487	0.015700	-0.191114	155.757902	-72.407599	-79.295572
03490		9.161272	1.080820	-2.748278	-0.246631	0.016354	-0.201011	155.279358	-72.366753	-78.940252
03491		9.058028	0.978639	-2.801644	-0.212467	0.014817	-0.212246	154.808419	-72.322634	-78.572076
03492		8.885151	0.900226	-2.692439	-0.198951	0.013468	-0.219892	154.332869	-72.273883	-78.191037
03493		8.908300	0.917735	-2.656394	-0.171651	0.005608	-0.215510	153.891579	-72.222391	-77.829239
03494		9.319932	0.913129	-2.735615	-0.147540	0.009073	-0.196517	153.491004	-72.175562	-77.495784
03495		9.199731	0.938274	-2.553930	-0.174970	0.036312	-0.185408	153.075258	-72.145947	-77.162642
03496		9.075510	0.995475	-2.629267	-0.175473	0.016342	-0.206366	152.640939	-72.098800	-76.810392
03497		9.340089	1.103485	-2.807437	-0.115288	0.010908	-0.219961	152.229024	-72.045613	-76.445168
03498		9.242964	1.135344	-2.660318	-0.106652	0.034925	-0.226239	151.792020	-72.000947	-76.048432
03499		9.168563	1.153127	-2.620697	-0.112049	0.037180	-0.233645	151.343190	-71.955569	-75.642243
03500		9.289156	1.211164	-2.610715	-0.094908	0.048912	-0.239608	150.884757	-71.912330	-75.215677
03501		9.506494	1.195625	-2.668438	-0.117529	0.062561	-0.239063	150.406908	-71.876089	-74.782067
03502		9.188757	1.194520	-2.608392	-0.176632	0.071584	-0.245888	149.876585	-71.840111	-74.328928
03503		9.184838	1.088950	-2.804962	-0.236108	0.025834	-0.273411	149.315763	-71.773298	-73.879278
03504		9.326958	1.054661	-2.992231	-0.189681	0.024027	-0.276520	148.780135	-71.702259	-73.428100
03505		9.326369	1.065239	-2.886256	-0.231518	0.025571	-0.266630	148.239529	-71.634697	-72.996617
03506		9.254581	0.979302	-2.745348	-0.252641	0.040200	-0.258513	147.686978	-71.574336	-72.565253
03507		9.229002	0.989102	-2.726268	-0.256350	0.023618	-0.253582	147.159769	-71.507295	-72.162573
03508		9.106046	1.022281	-2.664601	-0.235848	0.051334	-0.240473	146.638812	-71.455438	-71.754052
03509		9.075976	1.259150	-2.647729	-0.164907	0.041447	-0.250153	146.158213	-71.395724	-71.345001
03510		9.046674	1.446488	-2.570229	-0.132291	0.061666	-0.251668	145.676340	-71.342986	-70.914823
03511		9.160390	1.660878	-2.682643	-0.089159	0.061247	-0.262867	145.207848	-71.286316	-70.472471
03512		9.103936	1.849646	-2.691419	-0.098459	0.074058	-0.280096	144.699404	-71.227745	-69.993471
03513		9.026698	1.884947	-2.715375	-0.182489	0.068068	-0.299698	144.126322	-71.159436	-69.496802
03514		9.001726	1.822751	-2.673593	-0.275330	0.057073	-0.320171	143.486291	-71.076373	-68.985430
03515		9.126637	1.675934	-2.688127	-0.351220	0.077005	-0.323811	142.784112	-71.000318	-68.454019
03516		9.269688	1.709165	-2.697115	-0.379827	0.065437	-0.338544	142.062012	-70.910665	-67.918655
03517		9.371042	1.598078	-2.614143	-0.412877	0.098667	-0.349278	141.279821	-70.830910	-67.339411
03518		9.346415	1.574574	-2.614770	-0.412179	0.087630	-0.376473	140.479922	-70.732758	-66.740709
03519		9.270242	1.595924	-2.728947	-0.387593	0.102451	-0.401849	139.654726	-70.630050	-66.099876
03520		8.977811	1.556616	-2.783628	-0.369680	0.106042	-0.422952	138.817335	-70.516914	-65.434816
03521		9.111035	1.362600	-2.902925	-0.370905	0.106136	-0.438716	137.969492	-70.395609	-64.758916
03522		9.583629	1.251478	-2.972691	-0.307296	0.116092	-0.446552	137.147069	-70.271188	-64.070775
03523		9.714582	1.154294	-3.176758	-0.262374	0.116105	-0.443923	136.363026	-70.145585	-63.395547
