// General information: 
//  MT Manager version: 2022.2.0 
//  XDA version: 2022.2.0 build 7381 rev 124627 built on 2023-07-19
// Device information: 
//  DeviceId: 00B4BB4D
//  ProductCode: MTW2-3A7G6
//  Firmware Version: 4.6.0
//  Hardware Version: 2.0.0
// Device settings: 
//  Filter Profile: human(46.1)
//  Option Flags: Orientation Smoother Disabled, Position/Velocity Smoother Disabled, Continuous Zero Rotation Update Disabled, AHS Disabled, ICC Disabled
// Coordinate system: ENU
PacketCounter	SampleTimeFine	Acc_X	Acc_Y	Acc_Z	Gyr_X	Gyr_Y	Gyr_Z	Roll	Pitch	Yaw
17673		9.323255	0.297189	-1.766215	-0.148389	0.361361	-0.554984	-172.643624	-77.747104	-119.793326
17674		9.068471	0.283793	-1.656479	-0.129668	0.393868	-0.668701	-174.379867	-78.016779	-118.096339
17675		9.202934	0.087022	-1.690801	-0.109929	0.365707	-0.781788	-176.484422	-78.265175	-116.012601
17676		9.749450	-0.119474	-1.812048	-0.057841	0.325420	-0.869417	-178.908470	-78.473618	-113.574379
17677		10.296769	-0.312355	-1.965438	0.015238	0.336090	-0.934843	178.450926	-78.668032	-110.873808
17678		10.627201	-0.452641	-2.105914	0.092031	0.383525	-0.988511	175.588698	-78.860045	-107.904642
17679		10.841722	-0.635178	-2.187175	0.147880	0.412689	-1.031241	172.541011	-79.038249	-104.715414
17680		10.722779	-0.886618	-2.342747	0.256082	0.438563	-1.054660	169.367583	-79.193233	-101.337121
17681		10.571622	-0.888196	-2.356361	0.424885	0.400759	-1.063639	166.219784	-79.292974	-97.887592
17682		10.364448	-0.708620	-2.420963	0.522785	0.321008	-1.055062	163.164571	-79.312346	-94.476094
17683		10.169683	-0.553276	-2.428755	0.569172	0.197499	-1.038810	160.316677	-79.237437	-91.248017
17684		10.234275	-0.263478	-2.278959	0.553816	0.089161	-1.015160	157.692675	-79.078030	-88.255730
17685		10.313479	-0.141324	-1.896301	0.488751	0.072382	-0.966110	155.274813	-78.899270	-85.509589
17686		10.273074	-0.003886	-1.592133	0.449225	0.106307	-0.878532	153.096123	-78.736095	-83.028778
17687		10.189310	-0.236969	-1.398245	0.466319	0.124260	-0.776294	151.229443	-78.595422	-80.854822
17688		10.110285	-0.318823	-1.273716	0.591774	0.104407	-0.665244	149.779549	-78.461036	-79.031746
17689		9.841491	-0.300892	-1.219912	0.705706	0.050799	-0.541746	148.805231	-78.331597	-77.626668
17690		9.603932	-0.205625	-1.275778	0.787027	-0.044346	-0.412984	148.340163	-78.187863	-76.693392
17691		9.527169	0.050923	-1.328274	0.829744	-0.146609	-0.271322	148.389332	-78.038844	-76.260155
17692		9.263059	0.342905	-1.262027	0.809744	-0.213130	-0.146418	148.808554	-77.892359	-76.216696
17693		9.055194	0.904432	-1.024043	0.672389	-0.229745	-0.053070	149.379926	-77.767847	-76.409441
17694		8.973887	1.541336	-0.743444	0.414882	-0.198932	0.001055	149.877887	-77.671375	-76.678068
17695		9.081675	2.133667	-0.555648	0.084006	-0.132806	0.023395	150.146579	-77.616233	-76.906205
17696		9.349461	2.556043	-0.657879	-0.259402	-0.063014	0.038208	150.158458	-77.597447	-77.072873
17697		9.548072	2.677614	-1.057664	-0.529114	0.000359	0.067413	150.001189	-77.620956	-77.224591
17698		9.595491	2.582790	-1.640605	-0.782418	0.059773	0.093260	149.676100	-77.679041	-77.353111
17699		9.494259	2.160502	-2.202623	-1.028488	0.109100	0.123304	149.214130	-77.772841	-77.485746
17700		9.203365	1.525240	-2.507045	-1.250708	0.142164	0.165383	148.668620	-77.892993	-77.663201
17701		8.945907	0.794587	-2.588814	-1.354919	0.106529	0.220592	148.240757	-78.015174	-78.021839
17702		8.811466	0.061173	-2.514077	-1.336674	0.036450	0.285684	148.069911	-78.120629	-78.632407
17703		8.799290	-0.546181	-2.296832	-1.234206	-0.017064	0.359531	148.216093	-78.225087	-79.506589
17704		8.793186	-1.045076	-1.952371	-1.052158	-0.053888	0.425486	148.682079	-78.327698	-80.600567
17705		8.850888	-1.383127	-1.567624	-0.802311	-0.065504	0.477724	149.451800	-78.440261	-81.858022
17706		8.834143	-1.554657	-1.294953	-0.498885	-0.071047	0.514062	150.510501	-78.553919	-83.232460
17707		8.753041	-1.493630	-1.133492	-0.163114	-0.090426	0.525215	151.843277	-78.657694	-84.689703
17708		8.779081	-1.244229	-1.042176	0.200373	-0.116498	0.515268	153.416438	-78.735973	-86.179209
17709		8.817369	-0.774491	-1.052035	0.581283	-0.142718	0.494794	155.208898	-78.789286	-87.669478
17710		8.786008	-0.348661	-1.196920	0.966689	-0.186856	0.478897	157.243443	-78.803987	-89.181202
17711		8.730614	-0.188313	-1.364352	1.308067	-0.255877	0.459563	159.496755	-78.768900	-90.716647
17712		8.682467	-0.191551	-1.492783	1.585415	-0.338470	0.429200	161.886778	-78.669371	-92.229770
17713		8.807950	-0.102140	-1.449222	1.792817	-0.435552	0.420095	164.411796	-78.504438	-93.760125
17714		9.329057	0.193145	-1.578672	1.963248	-0.522932	0.443349	167.092665	-78.278782	-95.350916
17715		9.810605	0.609272	-1.815436	2.102770	-0.496537	0.479540	169.854174	-78.059026	-96.943746
17716		10.024875	1.043684	-2.273477	2.206801	-0.412098	0.502705	172.622384	-77.871772	-98.483664
17717		10.506100	1.827184	-2.539490	2.254365	-0.412687	0.498868	175.341829	-77.670625	-99.946939
17718		11.054863	2.498032	-2.433705	2.063673	-0.320321	0.497103	177.865661	-77.506398	-101.322860
17719		11.454950	3.201685	-2.559469	1.726788	-0.207152	0.468538	-179.926172	-77.396504	-102.573820
17720		11.447087	3.744337	-2.560428	1.157239	-0.034194	0.409919	-178.216328	-77.375150	-103.649021
17721		10.565701	3.285323	-2.911349	0.615459	0.185946	0.298616	-177.073252	-77.478445	-104.461234
17722		9.577252	2.522134	-3.272030	0.324708	0.242377	0.169141	-176.417015	-77.613583	-104.945409
17723		8.965395	1.763130	-3.350356	0.094500	0.169846	0.093030	-176.085710	-77.711042	-105.231469
17724		8.714904	0.905683	-3.058649	-0.153437	0.036458	0.104270	-175.898572	-77.729501	-105.515690
17725		8.889491	0.098366	-2.962577	-0.225635	-0.138399	0.191393	-175.548834	-77.646070	-106.008330
17726		9.105003	-0.484890	-2.771807	-0.137480	-0.261546	0.311379	-174.883991	-77.483486	-106.772573
17727		9.349897	-0.716776	-2.329715	-0.015891	-0.271072	0.398688	-173.938610	-77.310444	-107.752972
17728		9.640490	-0.600192	-1.678917	0.089350	-0.184622	0.426282	-172.874676	-77.178869	-108.794120
17729		10.015932	-0.264474	-0.888933	0.114652	-0.019204	0.412136	-171.782971	-77.140163	-109.848799
17730		10.234946	0.032382	-0.481652	0.032245	0.137160	0.368492	-170.801280	-77.187613	-110.839503
17731		10.152786	0.195413	-0.647393	-0.102280	0.215368	0.317709	-169.970345	-77.282534	-111.753932
17732		9.855944	0.015367	-1.297280	-0.190505	0.232650	0.260369	-169.324707	-77.388925	-112.530365
17733		9.551663	-0.133539	-1.954420	-0.209885	0.193884	0.228116	-168.767785	-77.476764	-113.226513
17734		9.327050	-0.203088	-2.415062	-0.245477	0.115177	0.218077	-168.302014	-77.518794	-113.850496
17735		9.310303	-0.374529	-2.491054	-0.350532	0.058495	0.229607	-167.882632	-77.528019	-114.488068
17736		9.397400	-0.526060	-2.413940	-0.358268	0.011721	0.258961	-167.431825	-77.505007	-115.162882
17737		9.484030	-0.603907	-2.216773	-0.342789	-0.018695	0.275770	-166.937455	-77.463056	-115.872819
17738		9.570955	-0.868090	-2.300127	-0.271788	-0.015777	0.264314	-166.445859	-77.421518	-116.538861
17739		9.588904	-1.108681	-2.396716	-0.171301	-0.001302	0.234983	-165.951899	-77.392179	-117.147913
17740		9.674270	-1.301337	-2.531465	-0.080550	-0.002001	0.199257	-165.509653	-77.364996	-117.651257
17741		9.752194	-1.377421	-2.601756	-0.042393	0.003041	0.161704	-165.124629	-77.346668	-118.073093
17742		9.685637	-1.450752	-2.649828	-0.068658	0.008178	0.131103	-164.839369	-77.333686	-118.408609
17743		9.671535	-1.551825	-2.843069	-0.074078	-0.015416	0.108998	-164.616357	-77.312161	-118.683048
17744		9.518539	-1.517964	-3.029435	-0.063432	-0.011189	0.093961	-164.433127	-77.293419	-118.910928
17745		9.173743	-1.373517	-3.069280	-0.021907	-0.031440	0.081665	-164.259575	-77.266878	-119.104064
17746		9.054168	-1.109026	-2.923306	0.059308	-0.095922	0.083245	-164.091773	-77.202569	-119.244057
17747		9.186150	-0.867157	-2.851992	0.139878	-0.154339	0.101370	-163.865828	-77.104960	-119.395952
17748		9.400883	-0.543251	-2.781341	0.180609	-0.162192	0.128026	-163.571801	-76.996577	-119.594251
17749		9.629890	-0.291159	-2.678401	0.164941	-0.116520	0.147750	-163.201564	-76.911790	-119.879642
17750		9.723083	-0.169540	-2.554138	0.114930	-0.038364	0.148245	-162.817120	-76.867224	-120.209569
17751		9.658679	-0.084285	-2.442912	0.058930	0.024283	0.133909	-162.443649	-76.860957	-120.560757
17752		9.584251	-0.081650	-2.341448	0.013773	0.045073	0.105345	-162.158768	-76.868453	-120.848028
17753		9.539897	-0.103064	-2.309597	-0.015970	0.034828	0.085345	-161.933798	-76.875698	-121.090784
17754		9.485131	-0.153451	-2.288253	-0.033661	0.010781	0.057890	-161.813230	-76.872493	-121.237259
17755		9.466994	-0.183015	-2.243403	-0.035133	-0.008288	0.045544	-161.725141	-76.863142	-121.350738
17756		9.519163	-0.266667	-2.217227	-0.019219	-0.043426	0.028618	-161.706958	-76.835623	-121.383613
17757		9.584167	-0.347955	-2.213567	0.020893	-0.052791	0.012797	-161.697483	-76.807922	-121.383404
17758		9.617246	-0.438931	-2.202538	0.059298	-0.051284	-0.012447	-161.736028	-76.783516	-121.311832
17759		9.637225	-0.530275	-2.170517	0.110726	-0.046820	-0.029607	-161.768605	-76.766673	-121.215551
17760		9.667499	-0.589527	-2.128812	0.166609	-0.041185	-0.039519	-161.800443	-76.752594	-121.087704
17761		9.643642	-0.622957	-2.119543	0.203852	-0.033327	-0.038782	-161.790366	-76.744720	-120.980418
17762		9.650410	-0.700932	-2.121470	0.222055	-0.025777	-0.031915	-161.761019	-76.737671	-120.882787
17763		9.639552	-0.719127	-2.187869	0.229197	-0.010279	-0.028223	-161.694435	-76.740470	-120.818633
17764		9.617500	-0.824940	-2.265676	0.238729	-0.002027	-0.015974	-161.600576	-76.743500	-120.777464
17765		9.579676	-0.832788	-2.346876	0.241651	-0.001151	-0.010982	-161.480040	-76.748180	-120.761409
17766		9.483362	-0.854573	-2.379502	0.237914	-0.007411	-0.005607	-161.366769	-76.746383	-120.740659
17767		9.479886	-0.829282	-2.349634	0.225185	-0.009532	0.007645	-161.219205	-76.743106	-120.762063
17768		9.451701	-0.807622	-2.423399	0.197414	-0.004668	0.016268	-161.076581	-76.738705	-120.795307
17769		9.455506	-0.774886	-2.504942	0.153782	0.002031	0.011285	-160.952489	-76.740991	-120.834629
17770		9.486022	-0.823229	-2.514868	0.118450	0.009561	0.012537	-160.852437	-76.744882	-120.870617
17771		9.519908	-0.777080	-2.460286	0.106666	-0.006538	0.017210	-160.748539	-76.741382	-120.916926
17772		9.468483	-0.745819	-2.317460	0.103160	-0.021767	0.028193	-160.646487	-76.725260	-120.963972
17773		9.456561	-0.769433	-2.386207	0.115941	-0.055031	0.047536	-160.507205	-76.689737	-121.041184
17774		9.417328	-0.797010	-2.416221	0.114421	-0.071697	0.068310	-160.348352	-76.638860	-121.139994
17775		9.436775	-0.828350	-2.438004	0.102681	-0.071174	0.084159	-160.148226	-76.587439	-121.287590
17776		9.528514	-0.861934	-2.470882	0.072245	-0.057552	0.095584	-159.942666	-76.538630	-121.459316
17777		9.574160	-0.821452	-2.441692	0.034570	-0.023683	0.105388	-159.697355	-76.508299	-121.693561
17778		9.607517	-0.781615	-2.388964	0.011826	0.011812	0.106432	-159.446863	-76.494176	-121.947148
17779		9.553134	-0.709101	-2.273337	-0.007246	0.030653	0.103122	-159.186429	-76.492952	-122.221616
17780		9.549449	-0.673358	-2.299923	-0.012463	0.036719	0.108655	-158.924470	-76.491145	-122.501327
17781		9.534112	-0.667072	-2.189621	-0.010932	0.036826	0.103451	-158.660186	-76.492563	-122.781931
17782		9.431868	-0.630039	-2.163602	-0.020377	0.032066	0.092208	-158.443555	-76.491146	-123.019700
17783		9.424854	-0.643933	-2.049459	-0.044505	0.028930	0.082832	-158.251126	-76.492209	-123.246187
17784		9.502723	-0.643296	-2.025708	-0.055256	0.027279	0.069950	-158.108191	-76.492651	-123.428729
17785		9.561317	-0.636866	-2.072503	-0.046113	0.026575	0.062909	-157.962794	-76.496444	-123.607791
17786		9.601242	-0.639316	-2.131789	-0.019451	0.023435	0.048904	-157.849379	-76.499217	-123.738883
17787		9.598867	-0.683250	-2.190807	0.004330	0.025530	0.037076	-157.732929	-76.507872	-123.858446
17788		9.484382	-0.726820	-2.177072	0.039419	0.016204	0.026065	-157.642796	-76.511682	-123.930912
17789		9.428208	-0.758669	-2.213189	0.063918	0.002730	0.022604	-157.544729	-76.511324	-123.996457
17790		9.466009	-0.757693	-2.129772	0.071357	-0.003821	0.021462	-157.464797	-76.505483	-124.039621
17791		9.497745	-0.751354	-2.137642	0.048272	-0.002339	0.032339	-157.358932	-76.500253	-124.122407
17792		9.593636	-0.725129	-2.160877	0.011526	0.015838	0.042801	-157.248372	-76.500057	-124.232333
17793		9.575137	-0.738381	-2.170977	-0.034484	0.035009	0.041293	-157.135709	-76.512490	-124.370870
17794		9.541559	-0.805448	-2.162479	-0.073839	0.050764	0.035268	-157.058095	-76.532330	-124.497210
17795		9.561555	-0.811687	-2.087759	-0.100087	0.052035	0.029969	-156.991527	-76.556183	-124.626978
17796		9.519979	-0.854115	-2.083245	-0.116354	0.059989	0.025136	-156.951411	-76.583111	-124.739786
17797		9.473392	-0.919180	-2.053705	-0.115520	0.056548	0.020890	-156.908835	-76.611331	-124.853951
17798		9.482175	-0.926652	-2.103389	-0.103933	0.043866	0.017746	-156.892605	-76.631409	-124.934865
17799		9.504719	-0.962727	-2.058349	-0.077270	0.036543	0.014309	-156.861182	-76.650544	-125.015022
17800		9.483514	-0.925901	-2.097677	-0.046319	0.033288	0.005313	-156.849224	-76.667841	-125.057601
17801		9.457203	-0.912613	-2.111989	-0.011426	0.031224	0.005322	-156.804839	-76.686184	-125.112297
17802		9.438282	-0.821849	-2.147660	0.015730	0.028373	-0.002778	-156.779782	-76.702706	-125.131793
17803		9.470514	-0.740735	-2.063029	0.024010	0.020570	-0.009709	-156.758575	-76.718824	-125.141804
17804		9.486761	-0.699747	-2.020160	0.019831	0.013940	-0.010415	-156.762008	-76.729477	-125.129613
17805		9.523923	-0.594842	-1.961262	-0.003567	0.020841	-0.006103	-156.748251	-76.744922	-125.148202
17806		9.515644	-0.500649	-1.874009	-0.037687	0.019762	-0.002759	-156.762086	-76.756953	-125.159190
17807		9.486141	-0.455298	-1.861290	-0.075049	0.014666	0.002620	-156.775674	-76.767176	-125.191760
17808		9.528912	-0.411925	-1.860109	-0.106107	0.011871	0.004596	-156.820085	-76.773478	-125.211622
17809		9.582379	-0.392318	-1.999429	-0.109522	0.002111	0.007280	-156.855039	-76.776047	-125.242532
17810		9.587532	-0.352078	-2.081871	-0.112929	0.013742	-0.000688	-156.913789	-76.784616	-125.251698
17811		9.555093	-0.258736	-2.098051	-0.113513	0.026833	-0.015161	-156.977785	-76.805266	-125.255124
17812		9.512433	-0.210449	-2.064072	-0.124331	0.021476	-0.036555	-157.117044	-76.825996	-125.188333
17813		9.489892	-0.026170	-1.923530	-0.153107	0.013796	-0.054010	-157.304243	-76.848385	-125.088528
17814		9.488491	0.153711	-1.857020	-0.190477	0.006607	-0.073759	-157.581176	-76.869413	-124.919320
17815		9.432631	0.378190	-1.882348	-0.232850	-0.001765	-0.098930	-157.932012	-76.893075	-124.698425
17816		9.355298	0.542441	-1.924615	-0.278388	-0.016617	-0.128226	-158.407745	-76.913017	-124.376896
17817		9.322415	0.722347	-1.995422	-0.319706	-0.037760	-0.167138	-158.999679	-76.930825	-123.959609
17818		9.306760	0.916984	-2.054005	-0.350028	-0.058280	-0.223657	-159.777219	-76.946273	-123.370500
17819		9.274279	1.062179	-2.096867	-0.380874	-0.068428	-0.281594	-160.699290	-76.967183	-122.650367
17820		9.248745	1.191765	-2.134700	-0.421625	-0.064728	-0.354081	-161.834677	-76.998909	-121.736254
17821		9.211597	1.297846	-2.179538	-0.481320	-0.057958	-0.434401	-163.175510	-77.045417	-120.645634
17822		9.289833	1.354459	-2.209112	-0.567255	-0.047070	-0.514485	-164.780991	-77.102596	-119.335223
17823		9.352918	1.365502	-2.221042	-0.658749	-0.022012	-0.597473	-166.617628	-77.178425	-117.840838
17824		9.531797	1.364875	-2.331625	-0.742961	0.014403	-0.674660	-168.717145	-77.270762	-116.127929
17825		9.708044	1.268647	-2.628715	-0.775853	0.066969	-0.750398	-171.007680	-77.387864	-114.238207
17826		9.884221	1.144449	-2.842056	-0.795923	0.118289	-0.829726	-173.558677	-77.520398	-112.095443
17827		10.073355	1.032192	-3.103757	-0.831503	0.216561	-0.911359	-176.347474	-77.693771	-109.730265
17828		10.188337	0.986000	-3.549237	-0.877078	0.319236	-0.990876	-179.463976	-77.898446	-107.059295
17829		10.188165	0.949073	-3.592581	-0.957443	0.464616	-1.054449	177.116548	-78.156262	-104.126938
17830		9.962288	1.033430	-3.104471	-1.044580	0.516183	-1.095823	173.360048	-78.399339	-100.905043
17831		10.024025	1.000398	-2.653622	-1.179325	0.456593	-1.118319	169.383540	-78.566018	-97.538799
17832		10.254400	0.812166	-2.398769	-1.280749	0.428071	-1.130643	165.217780	-78.662586	-94.041221
17833		10.222045	0.657948	-1.806241	-1.340260	0.485304	-1.157317	160.867188	-78.739341	-90.390125
17834		10.077462	0.465969	-1.148076	-1.383770	0.522682	-1.186793	156.314201	-78.769026	-86.559514
17835		10.007791	0.216490	-0.920175	-1.288635	0.484111	-1.219186	151.804605	-78.716972	-82.716677
17836		9.903493	0.070657	-0.851944	-1.074832	0.437442	-1.216095	147.536852	-78.580082	-78.994905
17837		9.916100	-0.003942	-1.123775	-0.840329	0.378175	-1.209627	143.642140	-78.371077	-75.513832
17838		9.989360	0.040605	-1.383732	-0.634129	0.302806	-1.198574	140.149024	-78.082155	-72.319662
17839		9.924633	-0.066659	-1.209900	-0.435727	0.272193	-1.177594	137.042766	-77.756620	-69.400748
17840		9.778283	-0.141292	-0.863993	-0.146872	0.244210	-1.163545	134.329809	-77.389230	-66.711614
17841		9.775946	-0.173375	-0.777415	0.177904	0.229872	-1.145340	132.022091	-77.004356	-64.242908
17842		9.784464	-0.180783	-0.797413	0.417209	0.240878	-1.081314	130.062408	-76.626061	-61.987279
17843		9.732718	-0.278122	-1.084688	0.516354	0.207864	-0.992665	128.471090	-76.264569	-60.048416
17844		9.738329	-0.128918	-1.576586	0.483986	0.127277	-0.886685	127.241982	-75.906872	-58.498979
17845		9.824844	0.000707	-2.114362	0.356757	0.087545	-0.771329	126.235905	-75.586113	-57.252421
17846		9.739797	-0.025951	-2.109599	0.373322	0.085729	-0.660934	125.429369	-75.306781	-56.200536
17847		9.593109	0.299815	-1.775785	0.528692	0.053433	-0.557506	124.930193	-75.066676	-55.373240
17848		9.555709	0.872229	-1.483521	0.646949	0.014576	-0.467775	124.694852	-74.850611	-54.747976
17849		9.537564	1.450899	-1.274733	0.662124	-0.024704	-0.398197	124.629440	-74.658226	-54.289347
17850		9.550071	2.010026	-1.216333	0.639962	-0.069005	-0.360043	124.678885	-74.465484	-53.962453
17851		9.626145	2.460971	-1.227068	0.584655	-0.101323	-0.357613	124.756220	-74.267327	-53.697287
17852		9.676246	2.784768	-1.152888	0.499398	-0.074167	-0.371275	124.727890	-74.067802	-53.372645
17853		9.645986	3.034420	-0.973372	0.429920	-0.021657	-0.382704	124.564770	-73.883679	-52.949032
17854		9.645977	3.349330	-0.711409	0.342389	0.038684	-0.392135	124.250642	-73.710285	-52.419889
17855		9.709577	3.581378	-0.554916	0.211577	0.101836	-0.385029	123.775975	-73.563356	-51.801232
17856		9.654510	3.680910	-0.519009	0.023841	0.156473	-0.373236	123.127807	-73.433689	-51.113333
17857		9.561129	3.564761	-0.488524	-0.209041	0.214721	-0.368107	122.268500	-73.325897	-50.343946
17858		9.498632	3.180811	-0.565343	-0.421894	0.262472	-0.372411	121.215098	-73.222723	-49.498870
17859		9.397187	2.696681	-0.707243	-0.563944	0.295898	-0.381784	120.029862	-73.123979	-48.600584
17860		9.298071	2.205214	-0.917674	-0.633963	0.327243	-0.374280	118.770618	-73.028263	-47.666515
17861		9.178453	1.766816	-1.032708	-0.631818	0.355974	-0.359244	117.491995	-72.945929	-46.710349
17862		8.934037	1.344668	-1.203524	-0.549660	0.367149	-0.329576	116.275983	-72.871723	-45.770114
17863		8.687522	1.033052	-1.430483	-0.357977	0.361136	-0.295416	115.217181	-72.812045	-44.879055
17864		8.529844	0.890289	-1.844406	-0.099225	0.321775	-0.260557	114.405664	-72.753157	-44.091378
17865		8.387618	0.978095	-1.858164	0.193605	0.300093	-0.228536	113.827608	-72.706711	-43.372266
17866		8.242685	1.209182	-1.618065	0.448973	0.263635	-0.205429	113.478382	-72.658953	-42.739265
17867		8.212876	1.339134	-1.412609	0.645469	0.180198	-0.177951	113.403460	-72.609257	-42.275677
17868		8.322807	1.405557	-1.368108	0.832799	0.108022	-0.169046	113.566402	-72.544750	-41.948525
17869		8.585072	1.655289	-1.587893	1.003415	0.032389	-0.167247	113.952908	-72.467317	-41.753383
17870		8.906871	2.036168	-1.876661	1.111073	-0.018933	-0.171879	114.483729	-72.372936	-41.644532
17871		9.343260	2.508520	-2.372012	1.184513	-0.055007	-0.185385	115.100680	-72.266141	-41.582152
17872		10.010493	3.402674	-3.173266	1.273057	-0.072281	-0.222410	115.767700	-72.133231	-41.518649
17873		10.156162	4.694361	-3.784926	1.191440	0.014312	-0.265487	116.210162	-72.003006	-41.268612
17874		9.250393	6.092669	-2.973604	0.918384	0.160479	-0.295032	116.247047	-71.891594	-40.755852
17875		8.151478	6.946622	-1.474139	0.323823	0.095952	-0.270064	116.063007	-71.779856	-40.369304
17876		7.942415	6.713025	-0.800148	-0.387913	-0.083190	-0.214037	115.800592	-71.647416	-40.328953
17877		8.205166	5.996786	-0.418645	-1.030280	-0.046060	-0.146318	115.162205	-71.563269	-40.280700
17878		8.103787	5.327923	0.067517	-1.563417	0.017016	-0.101417	114.157865	-71.512419	-40.168373
17879		8.183618	4.577258	0.020985	-1.820489	-0.053939	-0.081172	113.132169	-71.460210	-40.189106
17880		8.791380	4.205477	-0.527156	-1.919513	-0.061298	-0.081663	112.064109	-71.400922	-40.224910
17881		8.797333	3.955277	-1.107658	-1.899674	0.076554	-0.083789	110.790628	-71.374924	-40.032068
17882		8.353617	3.676956	-1.002743	-1.850115	0.169267	-0.101197	109.389421	-71.350828	-39.674400
17883		8.121713	3.053391	-0.998822	-1.768593	0.169674	-0.099770	108.037050	-71.330390	-39.318967
17884		8.291306	2.379253	-1.056261	-1.512236	0.134533	-0.071302	106.904545	-71.311329	-39.040491
17885		8.427384	1.977296	-0.849121	-1.220666	0.104017	-0.000782	106.023382	-71.330172	-38.851031
17886		8.474478	1.457738	-0.586100	-0.982695	0.049185	0.094240	105.411066	-71.386595	-38.801368
17887		8.731891	0.934316	-0.515031	-0.713383	-0.005427	0.176028	105.077664	-71.485395	-38.883258
17888		8.838129	0.843119	-0.648861	-0.468777	-0.082819	0.226502	105.035043	-71.595575	-39.123811
17889		8.942706	0.936884	-0.848791	-0.264392	-0.119269	0.231745	105.174109	-71.708262	-39.432339
17890		8.784225	1.366314	-0.543559	-0.103856	-0.123624	0.215129	105.408345	-71.806157	-39.743928
17891		8.792979	1.833626	-0.466879	-0.019031	-0.161311	0.155624	105.729030	-71.869574	-40.095314
17892		8.806576	2.432400	-0.481311	-0.010762	-0.128428	0.117732	105.983378	-71.912387	-40.371721
17893		8.413060	3.018199	-0.399171	-0.117173	-0.049585	0.071566	106.021820	-71.946326	-40.485186
17894		7.860449	3.254108	-0.397023	-0.272091	0.021939	0.042066	105.836482	-71.971035	-40.456574
17895		7.545867	3.270129	-0.779054	-0.347513	0.059121	0.023995	105.535688	-71.995766	-40.352058
17896		7.256358	3.155157	-1.017312	-0.341314	0.071850	0.012405	105.210788	-72.011431	-40.218438
17897		7.438830	2.767015	-1.205229	-0.286652	0.013073	0.008951	105.015461	-72.020637	-40.188163
17898		7.631889	2.230079	-1.346577	-0.142393	-0.007260	0.021928	104.943515	-72.029431	-40.200642
17899		8.213221	2.012168	-1.245629	0.028087	-0.084837	0.024112	105.102451	-72.032471	-40.353220
17900		8.817826	1.874999	-1.015499	0.149168	-0.096452	0.046817	105.361888	-72.041660	-40.538393
17901		8.955129	1.985163	-0.616940	0.248832	-0.100430	0.066661	105.694302	-72.065382	-40.740355
17902		9.060308	2.161301	-0.274326	0.220862	-0.130749	0.089257	106.074855	-72.092153	-41.009594
17903		9.318090	2.327619	-0.333222	0.170650	-0.157982	0.121482	106.489488	-72.135960	-41.344951
17904		9.121828	2.530165	-0.404341	0.143097	-0.116907	0.137986	106.828912	-72.190837	-41.617709
17905		8.606291	2.694318	-0.328440	0.093649	-0.102383	0.155989	107.126175	-72.261601	-41.875933
17906		8.423929	2.498042	-0.349784	0.001211	-0.141077	0.171830	107.447398	-72.330049	-42.214770
17907		8.529546	2.057100	-0.870378	0.026892	-0.139530	0.173936	107.784578	-72.403291	-42.554811
17908		8.564746	1.907758	-1.070015	0.154413	-0.115400	0.193902	108.167108	-72.487178	-42.865628
17909		8.576309	1.956826	-1.138662	0.269517	-0.131593	0.215719	108.660163	-72.583129	-43.223029
17910		8.617522	2.059449	-1.024218	0.405627	-0.153539	0.245134	109.291740	-72.686174	-43.643631
17911		8.837484	2.333216	-0.787687	0.502203	-0.182631	0.271704	110.052593	-72.800107	-44.141444
17912		8.954633	2.642148	-0.747058	0.546455	-0.188969	0.295271	110.873447	-72.919788	-44.675177
17913		9.043933	3.052511	-0.613858	0.589407	-0.223968	0.300614	111.793567	-73.036206	-45.286669
17914		8.715944	3.383949	-0.503245	0.519376	-0.182771	0.301485	112.611581	-73.155693	-45.833032
17915		8.201384	3.542945	-0.355987	0.411258	-0.166527	0.306785	113.353515	-73.283015	-46.364245
17916		8.020476	3.339272	-0.382773	0.321578	-0.169574	0.301041	114.052456	-73.400951	-46.904004
17917		7.992730	3.067233	-0.492029	0.277470	-0.147771	0.300725	114.698159	-73.525781	-47.414119
17918		8.079639	2.763190	-0.531404	0.262952	-0.163849	0.305082	115.373278	-73.643436	-47.963474
17919		8.465034	2.410594	-0.510290	0.315262	-0.183452	0.328961	116.145583	-73.770409	-48.582290
17920		8.752226	2.199555	-0.359170	0.415869	-0.179538	0.367725	117.010584	-73.911920	-49.237472
17921		8.809388	2.022549	-0.287929	0.506326	-0.148428	0.405437	117.925039	-74.081796	-49.889376
17922		9.572322	2.108989	-0.425421	0.611008	-0.150276	0.434648	118.943428	-74.259175	-50.586772
17923		10.205089	2.568043	-1.179680	0.647801	-0.019710	0.451516	119.791036	-74.482175	-51.083888
17924		8.807940	3.172715	-1.378672	0.722208	0.211497	0.433019	120.257055	-74.757213	-51.140831
17925		7.358902	3.661958	-0.666703	0.775773	0.136689	0.416889	120.889313	-75.005840	-51.337709
17926		7.207875	3.537196	0.045706	0.468714	0.004248	0.401715	121.579956	-75.203304	-51.777301
17927		7.489128	2.778257	0.139899	0.229802	0.008187	0.381071	122.123231	-75.394439	-52.205208
17928		7.774217	2.454148	0.367486	0.214170	0.066396	0.377763	122.548350	-75.597008	-52.520520
17929		7.560542	2.339777	1.154384	0.178880	0.098994	0.372331	122.903702	-75.810378	-52.783827
17930		7.335605	2.032187	2.138486	0.079940	0.008555	0.364231	123.363998	-75.987340	-53.214276
17931		8.310562	1.147651	1.719736	0.076607	-0.188263	0.376422	124.239187	-76.109841	-54.073200
17932		8.748324	0.883762	-0.574936	0.365427	-0.289384	0.373100	125.469888	-76.190634	-55.128376
17933		8.392207	0.536073	-1.984016	1.117911	-0.440029	0.382286	127.454489	-76.220363	-56.514734
17934		9.624486	1.224057	-2.919569	1.617449	-1.477643	0.457168	131.656795	-75.883760	-59.893006
17935		14.128154	0.661497	-3.915441	0.869118	-1.714023	0.553550	135.779741	-75.437714	-63.636789
17936		16.230246	-0.675286	-2.605346	0.728445	-1.010728	0.683507	138.781383	-75.279284	-66.311012
17937		13.668554	-1.017646	-3.155250	1.520963	-0.870118	0.753635	142.111397	-75.173716	-68.855966
17938		12.488259	0.579399	-2.626599	1.378558	-0.954911	0.486156	144.939368	-74.901663	-70.968708
17939		11.646073	2.392924	-0.504786	0.781010	-0.682851	-0.071823	146.067847	-74.559893	-71.676991
17940		14.784220	1.776254	1.111251	0.459130	-0.953683	-0.511923	146.524754	-73.945340	-71.881605
17941		31.535422	1.100870	-4.925347	1.847901	-1.902126	-0.692695	148.420180	-72.817067	-72.757045
17942		29.806778	12.032449	-6.496374	2.597176	0.448961	-0.577022	148.545301	-72.867409	-71.333962
17943		11.573703	12.989110	-0.506597	-1.467009	1.565166	-0.536646	145.229219	-73.454732	-68.750000
17944		6.581417	0.804344	-4.428996	-3.568245	1.051343	-0.652935	140.917548	-73.714220	-66.390472
17945		4.897334	-3.903913	-7.537326	-2.089659	0.449611	-0.989551	137.677542	-73.543594	-64.263856
17946		4.235393	-2.769364	-5.882140	-1.441106	0.128775	-0.896599	135.411149	-73.245577	-62.763988
17947		3.801069	-2.636065	-4.729718	-1.312657	-0.127134	-0.539857	134.103626	-72.978353	-62.185928
17948		5.995845	-0.598777	-3.071078	-0.863920	-0.513595	-0.040964	134.225327	-72.757998	-62.834288
17949		9.381299	1.346020	-3.270736	-0.841443	-0.748670	0.600225	135.493378	-72.702904	-64.669465
17950		13.079972	1.033767	-3.823688	-0.773235	-0.832332	1.104241	137.572474	-72.793734	-67.313272
17951		15.003557	-0.162722	-4.825556	-0.223507	-0.585282	1.054124	139.626420	-72.945463	-69.598943
17952		13.761552	-0.153892	-4.595997	0.070414	-0.058978	0.594389	140.583903	-73.140052	-70.560474
17953		10.534425	-0.155812	-3.530830	-0.056204	0.134446	0.307025	140.834408	-73.314951	-70.858136
17954		9.097084	-0.335456	-2.418012	-0.001790	-0.223705	0.283374	141.515048	-73.319177	-71.572238
17955		9.490733	0.107612	-1.246776	0.015458	-0.406592	0.458401	142.685575	-73.300604	-72.787387
17956		9.340702	-0.268576	-1.185672	-0.092798	-0.362459	0.645567	144.030212	-73.357423	-74.248924
17957		8.929931	-1.580451	-1.529403	-0.053589	-0.334169	0.669761	145.414330	-73.426728	-75.727723
17958		8.563692	-2.541470	-2.360894	0.312565	-0.400457	0.558322	146.909820	-73.417548	-77.103519
17959		8.296228	-2.254712	-3.198561	0.865918	-0.469597	0.436373	148.589228	-73.327444	-78.340816
17960		8.542581	-0.894228	-3.192885	1.297771	-0.457075	0.435720	150.489447	-73.231907	-79.550556
17961		8.684027	0.323159	-3.176387	1.529031	-0.364435	0.486188	152.502349	-73.185436	-80.740405
17962		8.204313	1.324239	-3.108694	1.700330	-0.160769	0.411946	154.312822	-73.212363	-81.615835
17963		7.997182	2.387816	-2.908751	1.841031	-0.090958	0.336936	156.017931	-73.250274	-82.297381
17964		8.115728	3.502122	-2.571317	1.821368	-0.298026	0.281764	157.776569	-73.159947	-83.046229
17965		8.948987	4.177716	-2.536619	1.505009	-0.542412	0.249212	159.443710	-72.926792	-83.890034
17966		10.084427	4.325438	-2.328095	1.038933	-0.482772	0.198677	160.689548	-72.708665	-84.573129
17967		10.104294	4.124515	-2.668144	0.638786	-0.158376	0.124939	161.364836	-72.650276	-84.899511
17968		9.329487	3.933854	-3.078032	0.360113	0.010550	0.064672	161.674787	-72.670722	-85.010469
17969		8.785861	3.522262	-3.221273	0.114539	-0.005859	0.059289	161.845005	-72.682317	-85.122431
17970		8.788117	3.040311	-3.140402	-0.119735	-0.047635	0.116995	162.003121	-72.679843	-85.362524
17971		8.929107	2.350972	-3.104441	-0.410618	-0.074365	0.192318	162.143929	-72.677370	-85.758864
17972		9.334553	1.457708	-3.219196	-0.586187	-0.075381	0.255573	162.291435	-72.683427	-86.267924
17973		9.616138	0.869128	-3.262781	-0.542739	-0.037654	0.295256	162.517099	-72.718152	-86.832379
17974		9.492077	0.312031	-2.926201	-0.498987	0.030835	0.293127	162.724321	-72.787569	-87.351462
17975		9.304687	-0.204449	-2.643318	-0.380165	0.034912	0.269080	162.961988	-72.856310	-87.830614
17976		9.319926	-0.393108	-2.753186	-0.156463	-0.031789	0.246851	163.323140	-72.882375	-88.305025
17977		9.422760	-0.294157	-2.987976	0.137826	-0.093189	0.222894	163.846936	-72.871395	-88.772881
17978		9.489968	0.060839	-2.971520	0.283756	-0.134238	0.191317	164.414994	-72.829949	-89.199822
17979		9.534856	0.160212	-3.130958	0.311177	-0.130173	0.145359	164.915083	-72.784190	-89.539070
17980		9.498720	0.247886	-3.250318	0.419158	-0.081805	0.085271	165.342704	-72.754003	-89.737883
17981		9.284218	0.437210	-3.079200	0.494012	-0.024431	0.044435	165.715089	-72.750952	-89.833826
17982		8.996115	0.658885	-3.024246	0.421792	-0.012727	0.038834	166.028966	-72.751848	-89.911935
17983		9.015079	0.861098	-3.177097	0.304649	-0.046302	0.066683	166.342184	-72.739346	-90.059536
17984		9.141566	1.037812	-3.114189	0.241934	-0.069564	0.096529	166.680794	-72.715950	-90.271470
17985		9.295889	1.264931	-2.779744	0.086478	-0.070994	0.126990	166.986622	-72.697048	-90.542283
17986		9.403143	1.147816	-2.747100	-0.096243	-0.060198	0.156400	167.233355	-72.685836	-90.861013
17987		9.509838	1.191920	-2.770474	-0.162756	-0.064762	0.185839	167.498420	-72.677046	-91.238747
17988		9.567906	1.114356	-2.643484	-0.239415	-0.053392	0.202326	167.741784	-72.674462	-91.639954
17989		9.441675	0.971993	-2.676998	-0.276978	-0.043879	0.208159	167.973061	-72.679095	-92.050858
17990		9.397421	0.801005	-2.867945	-0.273532	-0.061406	0.221741	168.234365	-72.673360	-92.491378
17991		9.332407	0.668100	-3.120608	-0.194311	-0.075753	0.219952	168.545872	-72.660326	-92.936733
17992		9.271766	0.674422	-3.153149	-0.185405	-0.058110	0.207616	168.830277	-72.653504	-93.348615
17993		9.234639	0.414784	-3.216982	-0.300932	-0.021370	0.180648	168.990136	-72.665512	-93.699118
17994		9.238501	0.127719	-3.264212	-0.290283	-0.019216	0.159848	169.115008	-72.674535	-94.006792
17995		9.308617	0.144368	-3.142107	-0.245102	-0.027857	0.154221	169.261951	-72.679545	-94.310222
17996		9.152926	0.044952	-2.962638	-0.234708	-0.028662	0.163601	169.429375	-72.683137	-94.629056
17997		9.182309	-0.011945	-2.764618	-0.186209	-0.065711	0.177653	169.665077	-72.668688	-94.990120
17998		9.350806	0.031219	-2.840491	-0.135996	-0.087432	0.191765	169.958981	-72.641250	-95.382216
17999		9.456850	-0.005659	-2.795915	-0.083168	-0.074033	0.205121	170.304503	-72.623704	-95.796572
18000		9.440245	0.027539	-2.772495	-0.085396	-0.044588	0.202355	170.632134	-72.620198	-96.193669
18001		9.338423	0.089998	-2.841364	-0.018721	-0.021573	0.193018	170.976486	-72.629765	-96.568125
18002		9.284708	0.111510	-3.003610	0.121537	-0.044472	0.192913	171.405838	-72.624053	-96.947537
18003		9.308698	0.234170	-3.083274	0.113981	-0.103885	0.200234	171.861153	-72.585942	-97.358637
18004		9.483643	0.284740	-3.294691	0.058372	-0.100851	0.212395	172.302288	-72.547999	-97.788439
18005		9.516844	0.477868	-3.248188	0.071188	-0.070024	0.212760	172.744150	-72.528155	-98.211291
18006		9.405899	0.729963	-2.957983	-0.017465	-0.017460	0.207551	173.111742	-72.535337	-98.609627
18007		9.442992	0.776504	-2.762550	-0.144723	0.002745	0.196843	173.384839	-72.554221	-98.985231
18008		9.507146	0.661982	-2.717272	-0.243594	0.023350	0.182613	173.569925	-72.581892	-99.328033
18009		9.426870	0.540770	-2.578917	-0.316811	0.054925	0.174120	173.694255	-72.628289	-99.650942
18010		9.245277	0.271755	-2.657616	-0.381188	0.036178	0.161631	173.761376	-72.661585	-99.952635
18011		9.270333	0.066300	-2.928446	-0.366189	-0.001091	0.156475	173.837943	-72.674701	-100.255035
18012		9.260521	-0.150180	-3.139592	-0.285444	-0.030702	0.159930	173.970760	-72.669556	-100.568030
18013		9.256904	-0.246056	-3.215622	-0.192968	-0.027951	0.167354	174.171739	-72.667581	-100.896790
18014		9.263874	-0.224575	-3.208421	-0.135539	-0.025706	0.173415	174.414361	-72.665382	-101.234805
18015		9.290937	-0.117906	-3.258912	-0.092996	-0.044316	0.180974	174.700112	-72.653983	-101.592382
18016		9.441600	0.063953	-3.064785	-0.093246	-0.037545	0.184495	174.989113	-72.644578	-101.953593
18017		9.424691	0.191699	-2.854366	-0.102763	-0.005359	0.182969	175.266253	-72.654455	-102.308030
18018		9.386781	0.312312	-2.598641	-0.093079	0.010136	0.162631	175.508395	-72.670268	-102.620020
18019		9.381549	0.372121	-2.698345	-0.100719	0.022598	0.145686	175.715398	-72.693589	-102.899702
18020		9.335063	0.416346	-2.767291	-0.089491	0.000757	0.122347	175.887868	-72.701756	-103.136522
18021		9.276755	0.500605	-3.003909	-0.067947	-0.009617	0.101770	176.038021	-72.704382	-103.336962
18022		9.130368	0.475301	-3.056542	-0.064903	-0.020005	0.090651	176.169002	-72.699090	-103.515588
18023		9.079354	0.393265	-3.015023	-0.046673	-0.028440	0.093998	176.319291	-72.690370	-103.703412
18024		9.164072	0.455699	-2.960167	0.009380	-0.023594	0.098354	176.506958	-72.682981	-103.896865
18025		9.225692	0.588871	-2.877096	0.027158	-0.041070	0.093896	176.700337	-72.666684	-104.085536
18026		9.323956	0.627253	-2.876225	-0.034219	-0.026323	0.083942	176.836219	-72.656911	-104.250962
18027		9.247135	0.582978	-2.925072	-0.074311	-0.025998	0.070890	176.927320	-72.648247	-104.393411
18028		9.192131	0.506165	-2.831044	-0.092958	-0.068712	0.057288	176.984186	-72.613260	-104.511373
18029		9.308382	0.416671	-2.959031	-0.107288	-0.073167	0.059169	177.038953	-72.577161	-104.635591
18030		9.310816	0.252197	-2.992436	-0.073485	-0.062159	0.064466	177.118509	-72.546071	-104.765710
18031		9.392516	0.201829	-3.046297	-0.005635	-0.048203	0.076812	177.260593	-72.524639	-104.920447
18032		9.437949	0.218120	-2.993919	0.047741	-0.036443	0.089633	177.452329	-72.508741	-105.095397
18033		9.461370	0.303470	-2.911120	0.064787	-0.021961	0.116784	177.704615	-72.502983	-105.323400
18034		9.495614	0.365044	-2.826118	0.055723	-0.013890	0.122637	177.958671	-72.500297	-105.558924
18035		9.496567	0.378053	-2.850208	0.022076	-0.012491	0.127873	178.205802	-72.499573	-105.807188
18036		9.483086	0.432029	-2.985429	0.016194	-0.006953	0.128127	178.446536	-72.500387	-106.052517
18037		9.372272	0.503146	-2.972718	0.064165	0.000487	0.125935	178.713697	-72.506420	-106.296493
18038		9.278378	0.664589	-2.907203	0.107442	0.009152	0.123174	178.997036	-72.515733	-106.531694
18039		9.244699	0.826480	-2.838702	0.107520	0.008171	0.119311	179.277194	-72.525397	-106.763231
18040		9.340650	0.967784	-2.763563	0.086794	-0.005408	0.114127	179.532503	-72.525658	-106.981483
18041		9.349200	1.015943	-2.722125	0.010001	0.005217	0.102038	179.725750	-72.532968	-107.180471
18042		9.217092	1.005003	-2.651370	-0.051625	0.013280	0.099676	179.874782	-72.543511	-107.370515
18043		9.062684	0.989840	-2.536970	-0.133800	0.007061	0.078865	179.943724	-72.551565	-107.525547
18044		9.043047	0.940276	-2.721610	-0.170447	-0.023572	0.070380	179.970813	-72.540903	-107.659199
18045		9.105400	0.937559	-2.774001	-0.140425	-0.031023	0.044520	179.973358	-72.527076	-107.748616
18046		9.017673	0.924470	-2.822487	-0.197154	-0.018810	0.019930	179.892505	-72.519168	-107.785232
18047		9.018412	0.812043	-3.037335	-0.217981	-0.016697	-0.011411	179.748818	-72.513519	-107.767931
18048		9.049827	0.805228	-3.078965	-0.137991	-0.014180	-0.040535	179.591364	-72.508114	-107.688756
18049		8.949134	0.966885	-2.879295	-0.085561	0.019303	-0.086221	179.387003	-72.522679	-107.528295
18050		8.847971	1.184506	-2.667397	-0.043111	0.051787	-0.132133	179.114936	-72.554189	-107.272049
18051		8.634359	1.633904	-2.246676	-0.110401	0.049917	-0.178718	178.725561	-72.584813	-106.932636
18052		8.414824	1.716649	-2.283705	-0.381696	0.057361	-0.212272	178.109414	-72.617197	-106.519294
18053		8.207058	1.660648	-2.730792	-0.528398	0.008127	-0.246884	177.355963	-72.620237	-106.049429
18054		8.214367	2.378637	-3.279958	-0.299660	-0.022068	-0.327279	176.580542	-72.600587	-105.420062
18055		7.798826	2.374851	-2.371473	-0.575566	0.040491	-0.452322	175.421409	-72.609674	-104.553360
18056		7.482496	0.680595	-1.990396	-0.656226	0.118007	-0.659673	173.812470	-72.644285	-103.264900
18057		7.748421	-0.576134	-1.654931	-0.704829	0.289455	-0.857805	171.776823	-72.751256	-101.558165
18058		8.068232	-1.359983	-2.128023	-0.482476	0.336608	-0.938493	169.674624	-72.857717	-99.650364
18059		8.882529	-1.734359	-2.679159	-0.360700	0.273914	-0.876604	167.767755	-72.917518	-97.873817
18060		10.003892	-2.427434	-3.715940	-0.137072	0.317994	-0.690469	166.288191	-73.009035	-96.411672
18061		10.835142	-1.855919	-4.055056	0.367933	0.313147	-0.399677	165.624911	-73.131666	-95.500383
18062		10.747913	-0.620437	-3.444459	0.568148	0.328163	-0.132252	165.544618	-73.297614	-95.079413
18063		10.250907	0.199378	-2.648638	0.571109	0.332235	0.007280	165.725779	-73.487193	-94.929385
18064		9.673173	0.870115	-2.599610	0.704214	0.233302	-0.009836	165.993627	-73.618202	-94.790776
18065		9.273881	1.547586	-2.218674	0.684627	0.128649	-0.127587	166.082349	-73.676234	-94.476826
18066		8.703584	1.469487	-1.776831	0.489458	0.177043	-0.262556	165.772237	-73.740844	-93.864417
18067		8.233612	2.119289	-2.331133	0.464375	0.203063	-0.362556	165.245932	-73.805652	-93.041557
18068		7.657139	2.598747	-2.105258	0.316593	0.230225	-0.421194	164.496650	-73.872781	-92.075510
18069		7.503838	3.024177	-1.685272	0.066635	0.252509	-0.515473	163.410963	-73.934334	-90.908175
18070		7.831455	3.064189	-1.190924	-0.173492	0.363609	-0.638237	161.869361	-74.026699	-89.410765
18071		8.343406	2.524385	-1.056687	-0.389580	0.469511	-0.703591	159.998707	-74.153432	-87.700097
18072		8.542353	1.640173	-1.808491	-0.483300	0.468477	-0.671773	158.098588	-74.269056	-86.016437
18073		8.238406	0.304569	-1.543660	-0.366720	0.438394	-0.613059	156.385113	-74.368950	-84.457350
18074		7.641179	-0.752574	-1.911963	-0.157773	0.366987	-0.595753	154.857419	-74.422104	-82.968218
18075		7.586301	-0.745078	-3.609806	-0.063931	0.264123	-0.611274	153.449902	-74.409726	-81.547395
18076		7.939372	-0.162623	-4.149821	0.041638	0.127375	-0.604877	152.240846	-74.318883	-80.270102
18077		8.698161	0.319631	-3.189457	0.044033	0.014948	-0.575655	151.217168	-74.174292	-79.182643
18078		9.893190	1.824461	-2.628842	0.213203	-0.084761	-0.516774	150.504674	-73.989824	-78.317560
18079		10.723667	3.274585	-2.669766	0.212350	-0.075871	-0.412422	149.984665	-73.838879	-77.652123
18080		10.481788	3.929500	-2.142999	0.098534	0.072025	-0.361390	149.342646	-73.771881	-76.927689
18081		9.419692	3.462167	-1.242711	-0.163556	0.282154	-0.399471	148.282426	-73.795708	-75.923523
18082		8.325729	2.432156	-1.748514	-0.316167	0.401740	-0.523318	146.790745	-73.830769	-74.561951
18083		7.828184	1.944393	-2.409973	-0.296113	0.345007	-0.650622	145.169790	-73.790046	-73.053122
18084		8.026689	1.703630	-2.324406	-0.294471	0.249995	-0.692762	143.595265	-73.676843	-71.591761
18085		8.763080	1.815618	-1.885764	-0.328069	0.210413	-0.620363	142.188692	-73.562471	-70.323996
18086		9.517990	2.297463	-2.164263	-0.322173	0.188975	-0.456872	141.068715	-73.486202	-69.351605
18087		10.014757	2.560781	-2.508212	-0.301472	0.213848	-0.251176	140.251173	-73.493615	-68.681455
18088		10.092887	2.628820	-2.562501	-0.339259	0.294494	-0.047919	139.603132	-73.606244	-68.211480
18089		9.726895	2.354931	-2.480248	-0.340086	0.358169	0.102066	139.095099	-73.803883	-67.887584
18090		9.217697	2.529427	-2.453094	-0.219187	0.338465	0.139636	138.721630	-74.003658	-67.632614
18091		9.159111	2.919172	-2.415075	-0.197268	0.330234	0.086001	138.290279	-74.181851	-67.303998
18092		8.934482	2.837389	-2.162009	-0.174745	0.345684	-0.018334	137.676581	-74.322784	-66.773413
18093		8.719857	2.655464	-1.491795	-0.184126	0.348784	-0.139703	136.867844	-74.419061	-66.045552
18094		8.451945	2.501131	-1.380721	-0.243586	0.380761	-0.269314	135.769522	-74.470856	-65.053383
18095		7.991928	1.766332	-1.951055	-0.268294	0.464031	-0.376352	134.380072	-74.510545	-63.773340
18096		7.340114	1.218001	-2.616340	-0.182121	0.516337	-0.432567	132.867781	-74.535614	-62.315438
18097		6.899926	0.969498	-3.053107	-0.142717	0.521214	-0.413022	131.400669	-74.564091	-60.880542
18098		7.183764	0.972811	-3.127030	-0.164219	0.450900	-0.335171	130.126996	-74.587395	-59.659739
18099		8.644885	1.004640	-2.987096	0.014138	0.230046	-0.241117	129.437265	-74.569101	-58.938221
18100		11.165708	1.396563	-2.372960	0.194885	0.053278	-0.153102	129.248002	-74.520524	-58.628694
18101		13.823705	1.811345	-1.946485	0.211137	-0.045804	-0.063338	129.349077	-74.479334	-58.610423
18102		16.426581	2.045041	-2.478905	0.179971	-0.036416	-0.001819	129.494097	-74.465406	-58.656552
18103		17.470760	2.176576	-2.538518	0.050428	0.234010	-0.065213	129.053331	-74.524871	-58.171534
18104		15.746024	1.883820	-2.489270	-0.135616	0.563276	-0.290707	127.671833	-74.594984	-56.821502
18105		12.960157	1.450664	-2.262202	-0.218914	0.704271	-0.561193	125.664765	-74.581457	-54.872067
18106		10.956689	1.229042	-1.991780	-0.174661	0.658326	-0.814067	123.478086	-74.411892	-52.709158
18107		10.408285	1.586936	-1.387787	-0.041397	0.516561	-0.995391	121.471300	-74.092848	-50.651162
18108		10.881219	1.948453	-1.193761	-0.017310	0.367854	-1.045538	119.765209	-73.685133	-48.888043
18109		12.028235	2.070875	-1.308375	0.021252	0.225126	-0.983842	118.461664	-73.258450	-47.518017
18110		12.931430	2.053096	-1.342572	0.055149	0.206916	-0.851879	117.386787	-72.883305	-46.363772
18111		12.971865	1.913890	-1.311554	0.041990	0.335722	-0.709898	116.255493	-72.610053	-45.156389
18112		12.192127	1.734533	-1.455393	0.092756	0.472575	-0.619909	115.035277	-72.407890	-43.823604
18113		10.949779	1.674621	-1.476032	0.179702	0.568525	-0.592252	113.755838	-72.236210	-42.375103
18114		9.780168	1.710591	-1.313763	0.253817	0.591872	-0.595754	112.506275	-72.056574	-40.911766
18115		8.952729	1.855713	-1.193145	0.316058	0.519056	-0.597295	111.435801	-71.853158	-39.597876
18116		8.521733	2.084851	-1.215315	0.384828	0.412007	-0.599655	110.605138	-71.618279	-38.493123
18117		8.460722	2.309674	-0.992213	0.406137	0.341172	-0.593486	109.926126	-71.369590	-37.534116
18118		8.382394	2.515245	-0.823235	0.348720	0.334389	-0.575128	109.259108	-71.124587	-36.620828
18119		8.230568	2.685903	-0.877032	0.279977	0.326412	-0.538763	108.602574	-70.895791	-35.759285
18120		8.333551	2.951993	-1.278809	0.163078	0.317659	-0.508349	107.928504	-70.677427	-34.948627
18121		8.551184	3.109425	-1.358147	0.003022	0.366807	-0.465703	107.121915	-70.488710	-34.093994
18122		8.665404	3.345954	-0.829303	-0.088316	0.428947	-0.407236	106.212210	-70.336733	-33.184205
18123		8.697284	3.519457	-0.409025	-0.109479	0.424156	-0.347743	105.334284	-70.213394	-32.320628
18124		8.976968	3.619770	-0.320956	-0.153066	0.405784	-0.299619	104.491845	-70.108268	-31.520375
18125		9.158257	3.603690	-0.352833	-0.210500	0.418753	-0.249761	103.621581	-70.029961	-30.725396
18126		9.291405	3.644819	-0.356591	-0.277297	0.418669	-0.229229	102.729015	-69.957555	-29.946744
18127		9.528102	3.694574	-0.633967	-0.377049	0.404372	-0.236819	101.802861	-69.876314	-29.193091
18128		9.807488	3.683295	-1.103725	-0.489769	0.402616	-0.266050	100.815084	-69.772742	-28.441878
18129		9.952470	3.668721	-1.152210	-0.561461	0.418493	-0.313170	99.756593	-69.641008	-27.658767
18130		9.846867	3.614223	-0.749378	-0.566117	0.424869	-0.354933	98.690084	-69.479829	-26.868881
18131		9.684024	3.514703	-0.678474	-0.560859	0.383212	-0.386395	97.694937	-69.293855	-26.151445
18132		9.459500	3.292445	-0.793994	-0.531568	0.341962	-0.421205	96.789230	-69.079595	-25.510437
18133		9.216892	3.190986	-0.533784	-0.474102	0.308751	-0.425676	95.977730	-68.858631	-24.934507
18134		8.998918	3.208719	-0.294060	-0.461792	0.264165	-0.422001	95.255501	-68.633244	-24.445529
18135		8.929860	3.077957	-0.328829	-0.471890	0.218781	-0.406349	94.604875	-68.413712	-24.039369
18136		8.845951	2.962662	-0.372818	-0.455383	0.167018	-0.378252	94.053493	-68.205268	-23.728824
18137		8.710896	2.900066	-0.398860	-0.430957	0.104733	-0.340118	93.613282	-68.016425	-23.522986
18138		8.640254	2.840042	-0.550961	-0.392902	0.019796	-0.298766	93.325418	-67.846748	-23.457313
18139		8.592381	2.828639	-0.731525	-0.360331	-0.034332	-0.249230	93.135611	-67.704611	-23.477772
18140		8.462827	2.709430	-0.426641	-0.245593	-0.042138	-0.192132	93.030159	-67.593997	-23.517886
18141		8.257872	2.421600	0.194821	-0.100515	-0.067169	-0.149140	93.042996	-67.508156	-23.596569
18142		8.510570	2.287902	-0.356293	0.067587	-0.171662	-0.148990	93.298047	-67.418265	-23.832770
18143		8.827035	2.895219	-1.036300	0.263201	-0.253349	-0.185341	93.769046	-67.304890	-24.182179
18144		8.869484	3.325609	-0.948248	0.283536	-0.291530	-0.170084	94.303910	-67.196938	-24.587937
18145		8.740268	3.615605	-0.669951	0.188005	-0.305705	-0.155621	94.797776	-67.095788	-25.009466
18146		8.643152	3.601486	-0.514597	0.073302	-0.335817	-0.121244	95.269850	-67.010810	-25.478383
18147		8.890437	3.363907	-0.400690	0.007057	-0.316581	-0.075435	95.677970	-66.952174	-25.919905
18148		8.979796	3.103404	-0.481995	-0.041262	-0.276817	-0.018112	96.014329	-66.926881	-26.313051
18149		9.091366	3.073194	-0.305102	-0.040187	-0.267195	0.026339	96.341278	-66.927149	-26.695945
18150		9.003741	3.213717	-0.172896	-0.054439	-0.269358	0.047299	96.669255	-66.937942	-27.088204
18151		8.863241	3.353230	-0.147841	-0.081359	-0.305684	0.040667	97.026550	-66.941975	-27.529681
18152		8.750399	3.323883	-0.034403	-0.130361	-0.290380	0.041496	97.338456	-66.946242	-27.951746
18153		8.432016	3.102339	-0.046669	-0.134826	-0.257132	0.056554	97.603412	-66.961037	-28.326123
18154		8.204053	2.877650	-0.228438	-0.091640	-0.296155	0.088246	97.954200	-66.989757	-28.766275
18155		8.160621	2.779850	-0.037136	-0.075369	-0.334023	0.150041	98.375499	-67.049541	-29.273285
18156		8.353692	2.796419	0.357172	-0.094628	-0.337188	0.236828	98.813024	-67.156587	-29.809069
18157		8.503459	2.859773	0.484769	-0.096091	-0.309701	0.365102	99.243030	-67.337265	-30.337548
18158		8.565158	2.714083	0.298966	-0.017257	-0.281273	0.490751	99.718760	-67.589997	-30.865383
18159		8.507675	2.516391	-0.130096	0.147153	-0.265415	0.595742	100.302861	-67.901690	-31.407868
18160		8.521645	2.579012	-0.620090	0.290749	-0.265510	0.675161	101.009227	-68.255901	-31.991832
18161		8.740875	2.690488	-0.836664	0.285596	-0.253805	0.718527	101.727798	-68.632922	-32.590958
18162		8.953760	2.860876	-0.692101	0.211862	-0.171525	0.738123	102.315318	-69.028463	-33.092914
18163		9.038938	3.067008	-0.283997	0.100828	-0.085871	0.758106	102.736575	-69.443963	-33.484097
18164		9.136422	3.323356	-0.061616	-0.042220	-0.016455	0.763667	102.990025	-69.870922	-33.782312
18165		9.094801	3.464921	0.010125	-0.237154	0.063245	0.749584	103.011324	-70.299720	-33.951924
18166		9.079968	3.509889	0.192726	-0.471627	0.117775	0.727082	102.807536	-70.723342	-34.024572
18167		9.234864	3.415796	0.106737	-0.659459	0.143980	0.700754	102.438075	-71.135317	-34.035867
18168		9.455451	3.220120	-0.310376	-0.715345	0.165019	0.679131	101.986568	-71.538041	-33.994167
18169		9.788493	3.362406	-0.960741	-0.658616	0.156480	0.656050	101.562543	-71.926413	-33.947440
18170		9.855361	3.667259	-1.259245	-0.731196	0.144679	0.609401	101.091916	-72.287386	-33.895389
18171		9.648078	3.640206	-0.945096	-0.812200	0.132931	0.550075	100.563502	-72.613290	-33.831657
18172		9.333752	3.472614	-0.594210	-0.640324	0.099521	0.471133	100.159707	-72.891229	-33.795229
18173		9.223137	3.424471	-0.608918	-0.418645	-0.037034	0.414470	100.110736	-73.123258	-33.997235
18174		9.306287	3.411137	-0.671745	-0.292707	-0.088542	0.373137	100.220862	-73.326753	-34.289646
18175		9.350294	3.535833	-0.590610	-0.179345	-0.056967	0.319392	100.320998	-73.503002	-34.503738
18176		9.300099	3.764129	-0.187203	-0.091834	-0.036089	0.253824	100.412913	-73.644227	-34.656652
18177		9.314348	3.878954	-0.070504	-0.116261	-0.018054	0.186545	100.432492	-73.749487	-34.748842
18178		9.149783	3.911309	-0.174859	-0.131989	-0.015466	0.129570	100.419262	-73.822599	-34.816099
18179		9.114363	3.790826	0.071188	-0.090935	-0.077067	0.064967	100.525519	-73.853192	-34.983360
18180		9.373832	3.684518	0.178636	-0.047003	-0.045794	0.006497	100.575770	-73.853554	-35.066044
18181		9.203103	3.449351	-0.061113	0.066067	-0.064267	-0.051274	100.704979	-73.819908	-35.163546
18182		9.295756	3.249226	-0.114015	0.075926	-0.104909	-0.094309	100.902038	-73.756947	-35.325854
18183		9.278833	2.989903	-0.355183	0.024163	-0.077764	-0.132949	101.001436	-73.675741	-35.417371
18184		8.852329	2.957095	-0.242713	0.107409	-0.033062	-0.175916	101.045893	-73.574519	-35.401989
18185		8.679595	2.932405	-0.304529	0.227490	-0.092672	-0.206324	101.260516	-73.450325	-35.492273
18186		8.898065	2.736118	-0.675951	0.365898	-0.159545	-0.211774	101.674783	-73.314541	-35.708268
18187		8.834607	2.763363	-0.771697	0.490495	-0.153683	-0.171620	102.160548	-73.202252	-35.924454
18188		8.877215	2.915683	-0.616526	0.492158	-0.156396	-0.128094	102.665149	-73.112654	-36.159492
18189		9.021306	3.043629	-0.598321	0.423615	-0.143430	-0.077277	103.124825	-73.053323	-36.388663
18190		9.024953	3.181872	-0.542202	0.347315	-0.079099	-0.037874	103.437880	-73.023139	-36.510363
18191		8.818887	3.309562	-0.411104	0.292132	-0.052732	-0.010429	103.683047	-73.012454	-36.594094
18192		8.468220	3.497327	-0.418353	0.180044	-0.034382	0.012617	103.840151	-73.016080	-36.652981
18193		8.029672	3.524017	-0.340688	0.014297	-0.056112	0.030838	103.950699	-73.027740	-36.762397
18194		7.897927	3.384995	-0.317104	-0.157904	-0.091572	0.040796	104.031002	-73.038880	-36.943464
18195		7.851307	2.989308	-0.462664	-0.297477	-0.078637	0.045247	104.010803	-73.055353	-37.102929
18196		8.018779	2.540632	-0.707059	-0.361971	-0.058042	0.061400	103.922410	-73.082484	-37.229875
18197		8.275258	2.461323	-1.217031	-0.333511	-0.030911	0.088754	103.814248	-73.129836	-37.318935
18198		8.178468	2.474888	-1.139780	-0.329214	0.045211	0.116996	103.580100	-73.202083	-37.273900
18199		8.057617	2.439644	-0.970764	-0.365159	0.025127	0.138419	103.371788	-73.284765	-37.277243
18200		8.237288	2.326344	-0.852438	-0.416190	-0.012146	0.166535	103.214529	-73.376968	-37.364493
18201		8.367637	2.074399	-0.781999	-0.396512	-0.018984	0.202974	103.097771	-73.489919	-37.482093
18202		8.682253	2.050593	-0.881325	-0.291347	-0.025531	0.231743	103.066200	-73.616911	-37.625688
18203		8.931727	2.223048	-0.885790	-0.252953	-0.007990	0.261424	103.037747	-73.763970	-37.749439
18204		8.817114	2.080899	-0.737576	-0.223953	0.002912	0.277479	103.012769	-73.920274	-37.859455
18205		8.785137	1.969557	-0.612155	-0.097009	-0.049897	0.297995	103.174597	-74.082277	-38.088010
18206		8.932559	1.929546	-0.584056	-0.002425	-0.111014	0.323149	103.527313	-74.248877	-38.458492
18207		9.044095	1.739954	-0.435790	0.062405	-0.146071	0.332334	103.999621	-74.416133	-38.914270
18208		9.240365	1.454929	-0.513623	0.042471	-0.189691	0.324248	104.553712	-74.570695	-39.466442
18209		9.407293	1.084058	-0.727088	0.041993	-0.157574	0.313240	105.047761	-74.723435	-39.956200
18210		9.339208	0.934637	-0.962847	0.206263	-0.164631	0.297449	105.651603	-74.864415	-40.461864
18211		9.333334	1.109232	-1.109352	0.369362	-0.153344	0.277745	106.324715	-74.995552	-40.942156
18212		8.932159	1.322935	-1.270578	0.499074	-0.141238	0.269994	107.053097	-75.122399	-41.402399
18213		8.510495	1.567170	-1.005969	0.620595	-0.210200	0.264718	108.000306	-75.233209	-42.016767
18214		8.459739	1.663361	-0.748354	0.635295	-0.275808	0.260767	109.101494	-75.326702	-42.781256
18215		8.573750	1.562928	-0.866288	0.610303	-0.271286	0.263978	110.192151	-75.419455	-43.549421
18216		8.687027	1.584800	-0.922973	0.648603	-0.272509	0.256562	111.313994	-75.503913	-44.326725
18217		8.743164	1.900616	-0.915725	0.720078	-0.275621	0.233830	112.473881	-75.572035	-45.100857
18218		8.801555	2.311084	-0.870652	0.709386	-0.293222	0.228652	113.669102	-75.629223	-45.917465
18219		8.963415	2.709111	-0.763572	0.582219	-0.286799	0.237926	114.793459	-75.688915	-46.736033
18220		8.907102	2.835337	-0.553154	0.411469	-0.257786	0.276225	115.807051	-75.771429	-47.540908
18221		9.140662	3.026958	-0.584290	0.301033	-0.302673	0.335913	116.918886	-75.869805	-48.512143
18222		9.250785	3.272248	-0.615484	0.193843	-0.266936	0.400578	117.980712	-76.005538	-49.494604
18223		8.818367	3.406411	-0.533193	0.012510	-0.210127	0.445612	118.892597	-76.175762	-50.429010
18224		8.555807	3.010750	-0.325804	-0.250852	-0.229180	0.480018	119.754111	-76.353743	-51.466241
18225		8.834412	2.520132	-0.499211	-0.403185	-0.265868	0.487057	120.637116	-76.521455	-52.614564
18226		9.022418	2.087145	-0.711167	-0.469465	-0.253102	0.482339	121.473355	-76.685911	-53.753162
18227		8.900422	1.787140	-0.642193	-0.486210	-0.255060	0.483166	122.330941	-76.846910	-54.922672
18228		8.931602	1.445689	-0.548673	-0.477122	-0.297529	0.477199	123.296318	-76.986959	-56.196921
18229		9.117438	1.112090	-0.662925	-0.410878	-0.306220	0.476444	124.342586	-77.119396	-57.514385
18230		9.020257	0.800047	-0.745955	-0.297557	-0.276461	0.482045	125.422821	-77.258251	-58.799543
18231		8.808467	0.536699	-0.633906	-0.154792	-0.266354	0.491966	126.607422	-77.399907	-60.106962
18232		8.597672	0.215588	-0.640015	0.040430	-0.278293	0.476962	127.930425	-77.524012	-61.441053
18233		8.404382	-0.177456	-0.694782	0.353947	-0.296491	0.435962	129.430721	-77.616335	-62.772038
18234		8.249156	-0.396403	-0.711816	0.743592	-0.341853	0.372366	131.153974	-77.655969	-64.102514
18235		8.350513	-0.477464	-0.622185	1.076964	-0.402861	0.319732	133.102407	-77.640618	-65.467782
18236		8.435882	-0.503626	-0.433421	1.365431	-0.434148	0.279809	135.193975	-77.586392	-66.810649
18237		8.951168	-0.364831	-0.026636	1.604813	-0.483701	0.278141	137.491234	-77.499656	-68.223975
18238		9.879006	0.335496	-1.094065	1.824833	-0.567101	0.298015	140.063894	-77.372264	-69.790962
18239		10.857357	1.037802	-1.334044	1.789154	-0.517533	0.326540	142.552954	-77.261667	-71.293867
18240		10.767503	1.476967	-2.159798	2.232676	-0.620178	0.374999	145.506163	-77.105049	-73.013016
18241		12.368999	2.899962	-1.029777	2.151732	-1.009093	0.402787	148.916224	-76.747941	-75.250473
18242		13.561744	2.557199	-1.264352	1.421179	-0.855078	0.448293	151.680102	-76.454517	-77.257060
18243		13.889714	1.816124	-1.175679	1.074398	-0.674610	0.473854	154.011606	-76.238584	-79.025223
18244		13.642323	1.459232	-1.060245	0.865107	-0.699077	0.399390	156.024603	-75.977298	-80.590805
18245		15.077784	1.048439	-1.006426	0.620085	-0.713477	0.226376	157.486237	-75.656998	-81.734295
18246		16.006297	1.237587	-2.212492	0.880072	-0.485900	-0.025213	158.339516	-75.399129	-82.097382
18247		15.029450	3.254928	-3.133519	1.205728	-0.353605	-0.284248	158.732588	-75.155132	-81.791883
18248		12.693783	4.539091	-3.268056	0.625324	-0.225730	-0.540367	158.185506	-74.926780	-80.857469
18249		10.535644	3.282999	-3.200167	-0.466598	-0.099427	-0.645929	156.734488	-74.736429	-79.633446
18250		9.715194	0.627895	-3.557924	-0.988976	-0.088273	-0.579751	155.130678	-74.560127	-78.560774
18251		10.697075	-0.338305	-4.016427	-0.688850	-0.268784	-0.407698	154.210223	-74.325114	-78.017387
18252		12.229408	-0.472651	-4.145586	-0.351314	-0.297488	-0.103520	154.076210	-74.151057	-78.090066
18253		13.130159	0.380256	-4.447831	-0.004432	-0.299712	0.185357	154.666436	-74.046283	-78.708797
18254		12.558092	1.226681	-3.953451	-0.251807	-0.061997	0.354896	155.215033	-74.105390	-79.431955
18255		11.201495	1.375144	-3.690799	-0.511287	0.078647	0.360760	155.514702	-74.236639	-80.050308
18256		10.249790	1.411908	-3.422078	-0.558755	0.109279	0.247924	155.557219	-74.357511	-80.429617
18257		9.460918	1.554961	-2.986647	-0.622816	0.113413	0.127344	155.337560	-74.451063	-80.574429
18258		8.837511	1.467744	-2.512161	-0.705268	0.045784	0.072632	155.024686	-74.497259	-80.671670
18259		8.525636	0.903241	-2.379789	-0.817538	-0.129490	0.114316	154.879077	-74.461899	-81.009071
18260		8.771047	-0.175533	-2.733959	-0.878959	-0.318625	0.260420	155.131659	-74.364346	-81.796699
18261		9.245125	-1.176833	-3.110093	-0.776722	-0.411504	0.424183	155.818364	-74.254849	-82.974614
18262		9.704188	-1.632629	-3.199305	-0.552065	-0.370634	0.530011	156.784669	-74.187341	-84.309890
18263		9.587312	-1.823126	-2.955175	-0.280263	-0.204527	0.562756	157.831594	-74.207755	-85.567202
18264		9.032914	-1.562664	-2.563276	0.066189	-0.079258	0.536362	158.940431	-74.283709	-86.682168
18265		8.718654	-0.879315	-2.443031	0.432740	-0.072496	0.483641	160.161918	-74.345753	-87.695745
18266		8.818494	-0.076683	-2.646112	0.806878	-0.127255	0.445544	161.571644	-74.365575	-88.681737
18267		8.994105	0.884996	-2.679336	1.014477	-0.157928	0.385702	163.001019	-74.350767	-89.564855
18268		9.142845	1.645841	-2.596917	0.978214	-0.178469	0.335169	164.322931	-74.311628	-90.357768
18269		9.378214	1.978055	-2.599262	0.841115	-0.219449	0.276076	165.462173	-74.235607	-91.043029
18270		9.432633	2.131040	-2.653025	0.644656	-0.211213	0.221207	166.371687	-74.153933	-91.606553
18271		9.393198	2.176566	-2.801249	0.393024	-0.196475	0.172172	167.024222	-74.071211	-92.053256
18272		9.473623	2.175803	-3.029198	0.221695	-0.172114	0.124085	167.470960	-73.995484	-92.388032
18273		9.304589	2.337587	-3.159058	0.095111	-0.112835	0.072236	167.713759	-73.945364	-92.586337
18274		9.070111	2.427930	-2.937724	-0.143160	-0.057154	0.041061	167.736198	-73.922988	-92.697361
18275		9.008366	2.114943	-2.993822	-0.468703	-0.046813	0.041405	167.567181	-73.905986	-92.803331
18276		9.230018	1.554914	-2.944926	-0.653753	-0.060079	0.061473	167.337039	-73.884532	-92.956062
18277		9.374934	1.118835	-2.638521	-0.751352	-0.023512	0.088749	167.087667	-73.886779	-93.146976
18278		9.388979	0.515656	-2.742519	-0.767727	-0.014894	0.111206	166.868345	-73.897264	-93.378981
18279		9.607968	0.056492	-3.111722	-0.671668	-0.049545	0.130223	166.756582	-73.890780	-93.665596
18280		9.666330	-0.273043	-3.210340	-0.500563	-0.077326	0.133114	166.760889	-73.869537	-93.971028
18281		9.660095	-0.286571	-2.999609	-0.379644	-0.073787	0.142513	166.850484	-73.851146	-94.293131
18282		9.538916	-0.314072	-2.850396	-0.387735	-0.063214	0.149574	166.944551	-73.839680	-94.624698
18283		9.550752	-0.281430	-2.815425	-0.275893	-0.099381	0.161810	167.141083	-73.809108	-94.996308
18284		9.574741	0.053593	-2.821380	-0.126078	-0.105790	0.184273	167.469407	-73.777563	-95.415734
18285		9.570896	0.377448	-2.674682	-0.115207	-0.095793	0.207255	167.841344	-73.753460	-95.874255
18286		9.486663	0.592051	-2.703734	-0.192620	-0.080337	0.228419	168.203640	-73.739971	-96.368856
18287		9.459468	0.638921	-2.821176	-0.268787	-0.056052	0.241123	168.535223	-73.740487	-96.877061
18288		9.326037	0.639910	-2.777441	-0.301636	-0.032084	0.247042	168.851774	-73.754565	-97.389074
18289		9.223015	0.656922	-2.740831	-0.330156	-0.016806	0.240641	169.133297	-73.775553	-97.881699
18290		9.204261	0.575633	-2.850092	-0.375391	-0.019013	0.226964	169.365484	-73.793427	-98.349769
18291		9.203480	0.533705	-2.971136	-0.378701	-0.046479	0.212654	169.577104	-73.793619	-98.798492
18292		9.224908	0.482483	-2.972421	-0.372736	-0.056597	0.195075	169.762844	-73.786022	-99.216592
18293		9.272506	0.420127	-2.906958	-0.374084	-0.048315	0.188242	169.930133	-73.781892	-99.616413
18294		9.287527	0.422438	-2.843210	-0.321171	-0.044455	0.184219	170.119838	-73.779298	-100.007884
18295		9.299807	0.449501	-2.746220	-0.260785	-0.034397	0.181090	170.333316	-73.781591	-100.388210
18296		9.304886	0.497280	-2.703629	-0.185028	-0.029494	0.168016	170.564662	-73.785078	-100.741800
18297		9.292508	0.643471	-2.759319	-0.169242	-0.030401	0.148417	170.765959	-73.785780	-101.054808
18298		9.305219	0.670299	-2.662270	-0.165835	-0.048024	0.129680	170.939486	-73.774583	-101.336743
18299		9.205882	0.699238	-2.541024	-0.165415	-0.078529	0.103293	171.069609	-73.743489	-101.573376
18300		9.117786	0.679527	-2.596577	-0.261534	-0.097458	0.106099	171.156225	-73.701864	-101.821990
18301		9.259180	0.528050	-2.762898	-0.311965	-0.110504	0.112942	171.229068	-73.653295	-102.086530
18302		9.381267	0.476551	-2.831589	-0.284038	-0.115117	0.128026	171.348275	-73.603348	-102.382682
18303		9.440378	0.447301	-2.673373	-0.259049	-0.095173	0.141625	171.499961	-73.565615	-102.697934
18304		9.511659	0.447775	-2.556187	-0.239415	-0.081057	0.154594	171.683733	-73.536752	-103.034868
18305		9.578191	0.443464	-2.526117	-0.224057	-0.076121	0.169969	171.902549	-73.511569	-103.399315
18306		9.607616	0.474830	-2.562256	-0.231898	-0.074189	0.167585	172.111824	-73.486981	-103.758456
18307		9.493301	0.357971	-2.654305	-0.223340	-0.076447	0.163054	172.316144	-73.460318	-104.107449
18308		9.386029	0.353619	-2.742762	-0.180753	-0.080794	0.148556	172.518216	-73.429838	-104.428612
18309		9.302581	0.332568	-2.710925	-0.158492	-0.090486	0.146024	172.728701	-73.393236	-104.745382
18310		9.287823	0.234599	-2.635621	-0.139525	-0.096993	0.153155	172.964838	-73.353191	-105.077564
18311		9.259794	0.262589	-2.534733	-0.081309	-0.098842	0.167943	173.260538	-73.312571	-105.437254
18312		9.351076	0.369595	-2.435599	-0.020739	-0.087799	0.184723	173.619673	-73.278869	-105.826929
18313		9.476396	0.706665	-2.456175	0.025010	-0.074475	0.186555	174.003400	-73.252023	-106.215056
18314		9.451870	1.054068	-2.438102	-0.016191	-0.053971	0.174284	174.336012	-73.235620	-106.574440
18315		9.359355	1.215828	-2.613636	-0.144187	-0.034813	0.158789	174.561152	-73.228612	-106.898252
18316		9.330130	1.251573	-2.844848	-0.179557	-0.050571	0.128209	174.710944	-73.210866	-107.164550
18317		9.225625	1.228330	-2.961775	-0.228547	-0.049420	0.109489	174.796385	-73.192444	-107.392978
18318		9.135313	1.131137	-2.949855	-0.253809	-0.050475	0.097826	174.844962	-73.172903	-107.598086
18319		9.172724	1.038111	-2.899766	-0.239924	-0.050503	0.092746	174.891838	-73.152873	-107.793079
18320		9.255267	1.022508	-2.975546	-0.211203	-0.045135	0.087708	174.943865	-73.135728	-107.976367
18321		9.305468	1.070338	-2.994696	-0.155392	-0.039577	0.079402	175.011725	-73.121157	-108.142712
18322		9.171817	1.184695	-2.666686	-0.152746	-0.015480	0.054561	175.029268	-73.119160	-108.255023
18323		8.888318	1.270288	-2.563370	-0.287807	-0.016171	0.021890	174.909123	-73.115065	-108.304191
18324		8.866137	1.277729	-2.771506	-0.374549	-0.060615	-0.020856	174.665066	-73.083525	-108.275983
18325		8.962150	1.493942	-2.721568	-0.334256	-0.035875	-0.067617	174.354094	-73.063401	-108.153512
18326		8.634243	1.751455	-1.829112	-0.415435	-0.029399	-0.115587	173.904119	-73.043988	-107.934581
18327		8.562209	1.447554	-2.318496	-0.783140	-0.022155	-0.143685	173.192502	-73.026183	-107.662104
18328		8.662773	1.082695	-3.367481	-0.781038	-0.024164	-0.185361	172.403338	-73.003317	-107.307581
18329		8.702074	0.913514	-3.917669	-0.522461	-0.048919	-0.270386	171.615722	-72.958105	-106.799348
18330		8.786386	-0.009805	-2.947959	-0.761915	0.014316	-0.362002	170.503989	-72.938011	-106.095843
18331		9.118291	-1.825631	-2.975964	-0.353079	0.052252	-0.474473	169.412576	-72.924193	-105.168160
18332		9.411680	-1.454576	-2.660066	0.231724	0.157236	-0.509024	168.553448	-72.960923	-104.133269
18333		9.173417	-1.099115	-2.322742	0.319863	0.183940	-0.466698	167.810071	-73.013438	-103.166617
18334		8.925847	-1.103421	-2.363648	0.251047	0.128186	-0.409421	167.149298	-73.038409	-102.327907
18335		9.153101	-1.345523	-2.409018	0.413911	0.102758	-0.376128	166.653223	-73.051046	-101.563755
18336		9.203150	-0.928956	-2.727243	0.838731	0.122707	-0.377026	166.388647	-73.073290	-100.787295
18337		9.114620	-0.127160	-2.596513	1.050753	0.106225	-0.372086	166.261327	-73.086162	-100.027332
18338		9.322468	0.532163	-2.656734	0.998346	0.030667	-0.349418	166.179655	-73.059816	-99.346448
18339		9.911125	1.227487	-2.924077	0.963261	-0.018690	-0.305760	166.181116	-73.011707	-98.773356
18340		10.152655	2.203649	-2.985751	0.900796	0.052786	-0.260857	166.197403	-73.009673	-98.253131
18341		9.693929	3.033265	-2.487061	0.674203	0.176331	-0.241434	166.062599	-73.078734	-97.710751
18342		8.934912	3.114707	-1.802821	0.314333	0.281000	-0.257446	165.638653	-73.203030	-97.082099
18343		8.139741	2.532803	-1.841981	0.087813	0.335229	-0.302255	164.967924	-73.349027	-96.331607
18344		7.597796	2.526253	-1.790420	-0.152323	0.312474	-0.368480	164.033530	-73.469378	-95.450341
18345		7.496819	1.768005	-2.145834	-0.451765	0.264889	-0.423098	162.841815	-73.549899	-94.479845
18346		8.091973	1.135813	-2.628870	-0.259410	0.196003	-0.445152	161.748589	-73.583505	-93.497752
18347		8.910679	1.315020	-2.882990	-0.119972	0.208542	-0.418559	160.775241	-73.623770	-92.557186
18348		9.409567	1.620844	-2.664299	-0.101569	0.254910	-0.339371	159.919176	-73.700010	-91.728475
18349		9.518836	1.592333	-1.942862	-0.098041	0.285864	-0.259604	159.185650	-73.805666	-91.025334
18350		9.435496	1.848639	-1.976244	0.028486	0.278881	-0.226036	158.579247	-73.912134	-90.379823
18351		9.039848	2.263817	-1.785163	-0.000842	0.273227	-0.248560	157.913766	-74.008899	-89.690273
18352		8.699634	1.821464	-1.652406	-0.172320	0.266661	-0.316517	157.016858	-74.084581	-88.862960
18353		8.634817	1.570606	-1.776644	-0.262806	0.245271	-0.415728	155.898854	-74.122410	-87.859450
18354		8.765550	1.529623	-2.427880	-0.356080	0.168998	-0.503269	154.624264	-74.093721	-86.749220
18355		9.213707	1.088051	-2.639276	-0.480922	0.202740	-0.545354	153.181631	-74.064703	-85.537969
18356		9.220667	0.607178	-1.919582	-0.542014	0.306568	-0.539470	151.616951	-74.081081	-84.236656
18357		9.112775	0.173833	-1.855684	-0.454770	0.277076	-0.508679	150.187795	-74.082146	-83.023854
18358		9.025934	0.075752	-2.719621	-0.220264	0.206884	-0.476544	149.017197	-74.050173	-81.940580
18359		8.798354	0.124042	-2.797014	0.042009	0.230596	-0.454422	148.018031	-74.030920	-80.878710
18360		8.269030	0.197441	-2.415442	0.315127	0.239058	-0.442314	147.185778	-74.014678	-79.827975
18361		7.959740	0.606786	-2.378239	0.255522	0.198531	-0.432123	146.386761	-73.978240	-78.846823
18362		7.872427	0.610035	-2.452953	0.164994	0.142701	-0.417172	145.624784	-73.916238	-77.958265
18363		8.110022	0.928039	-2.095103	0.178390	0.092995	-0.391100	144.978486	-73.836470	-77.181495
18364		8.667315	1.424104	-2.171367	0.190095	0.064693	-0.348077	144.444752	-73.755321	-76.514923
18365		9.367170	1.926052	-2.488855	0.186178	0.054243	-0.293297	144.015817	-73.686274	-75.959333
18366		10.080491	2.406122	-2.630966	0.159806	0.064647	-0.230660	143.659868	-73.641940	-75.495657
18367		10.509687	2.643217	-2.514085	0.047135	0.117352	-0.164188	143.286309	-73.643928	-75.080584
18368		10.447922	2.734813	-2.125920	-0.048833	0.182258	-0.115059	142.855071	-73.691440	-74.663050
18369		10.058531	2.902536	-2.174899	-0.187689	0.222075	-0.098466	142.322327	-73.762160	-74.222485
18370		9.617960	2.718962	-1.905286	-0.321407	0.248670	-0.113821	141.649246	-73.837804	-73.716070
18371		9.316919	2.308403	-1.493154	-0.388754	0.246722	-0.153903	140.875663	-73.896787	-73.145032
18372		9.252694	1.823194	-1.626741	-0.362409	0.245831	-0.209091	140.025766	-73.932592	-72.479388
18373		9.298269	1.589690	-1.962615	-0.392286	0.293087	-0.238652	139.052720	-73.975479	-71.703156
18374		9.293841	1.295454	-2.351334	-0.374913	0.333893	-0.224135	138.048882	-74.037300	-70.885136
18375		9.308014	1.064209	-2.382192	-0.234854	0.312615	-0.176284	137.221766	-74.105382	-70.167312
18376		9.254936	0.863521	-2.023843	-0.081050	0.319374	-0.108424	136.563616	-74.199911	-69.534158
18377		9.146291	0.969791	-2.021368	0.111904	0.329309	-0.036564	136.103095	-74.325692	-68.991470
18378		9.090431	1.247983	-2.099751	0.292262	0.304159	0.018848	135.853434	-74.461925	-68.561063
18379		9.071521	1.455516	-2.008327	0.449069	0.276382	0.042820	135.766712	-74.596315	-68.206488
18380		9.227544	2.036499	-2.303874	0.617057	0.228356	0.032276	135.824954	-74.706420	-67.902896
18381		9.312875	2.687436	-2.417217	0.686932	0.199919	-0.012047	135.898987	-74.787563	-67.574054
18382		9.304818	3.140230	-2.313081	0.685011	0.182895	-0.086969	135.879749	-74.831429	-67.150050
18383		9.246424	3.665975	-2.041225	0.637862	0.187295	-0.177913	135.690589	-74.840999	-66.577789
18384		8.934367	4.053950	-1.436060	0.479683	0.249224	-0.284559	135.155242	-74.831376	-65.741038
18385		8.494979	4.151453	-1.241561	0.301060	0.306011	-0.400602	134.264632	-74.795311	-64.641840
18386		7.983624	3.794621	-1.122924	0.142035	0.399410	-0.518309	132.972042	-74.740995	-63.220608
18387		7.314838	2.918218	-1.516895	0.046313	0.505786	-0.621694	131.328741	-74.674998	-61.491865
18388		6.654984	2.483781	-2.407858	-0.007868	0.571609	-0.685742	129.475889	-74.590535	-59.577812
18389		6.055063	1.786949	-3.130768	-0.091052	0.564409	-0.680210	127.620526	-74.490729	-57.709319
18390		6.388434	1.366469	-3.190061	-0.015662	0.435124	-0.631819	126.103068	-74.352705	-56.146046
18391		8.100151	1.516533	-2.910734	0.164791	0.228302	-0.553680	125.153396	-74.174409	-55.063684
18392		10.614638	1.983308	-3.197129	0.277795	0.092888	-0.422297	124.660477	-74.008286	-54.388248
18393		12.769732	2.737558	-2.724492	0.240534	0.107439	-0.286862	124.287231	-73.910950	-53.858868
18394		14.070308	3.318037	-2.296873	0.099539	0.169583	-0.269905	123.753915	-73.838918	-53.246882
18395		14.904462	2.991342	-2.588248	-0.078974	0.175791	-0.402337	122.972988	-73.705043	-52.483064
18396		15.220793	2.679012	-2.806572	-0.176566	0.199416	-0.568561	121.937957	-73.493217	-51.512104
18397		14.714189	2.321807	-2.590941	-0.293845	0.215319	-0.672574	120.735075	-73.231397	-50.434777
18398		13.375751	1.806822	-2.107876	-0.477481	0.268402	-0.702391	119.348586	-72.961753	-49.274063
18399		12.153026	1.132422	-1.746758	-0.489115	0.196613	-0.686198	118.126149	-72.674219	-48.290260
18400		11.580890	0.890468	-1.760295	-0.381958	0.099365	-0.654150	117.183317	-72.370524	-47.533615
18401		11.236210	0.962089	-1.935867	-0.160484	0.013858	-0.602924	116.570916	-72.068935	-46.989469
18402		11.014675	1.119057	-1.723773	0.070205	-0.027044	-0.536455	116.224234	-71.788799	-46.584787
18403		10.714966	1.217050	-1.278007	0.260547	-0.030567	-0.465945	116.054833	-71.544340	-46.251477
18404		10.312249	1.360160	-0.659323	0.392671	-0.012189	-0.401187	115.988069	-71.337017	-45.945971
18405		9.944204	1.645606	-0.536381	0.504467	0.010918	-0.359908	115.983419	-71.157305	-45.638238
18406		9.479859	1.932292	-0.530921	0.533841	0.050599	-0.358701	115.940922	-70.987754	-45.272219
18407		9.051271	2.158645	-0.465293	0.485908	0.100342	-0.391752	115.776342	-70.813751	-44.805855
18408		8.794689	2.234490	-0.508286	0.439057	0.117660	-0.441775	115.530985	-70.617440	-44.281693
18409		8.788877	2.498167	-0.561692	0.386581	0.121041	-0.484844	115.228333	-70.399059	-43.728113
18410		8.960000	2.788423	-0.647001	0.288296	0.131936	-0.499232	114.854318	-70.174640	-43.157688
18411		9.264342	3.133455	-0.746115	0.179590	0.151744	-0.483275	114.410370	-69.962018	-42.578438
18412		9.499043	3.321108	-0.826680	0.062224	0.170536	-0.441488	113.910068	-69.773945	-42.009997
18413		9.650072	3.404843	-0.842759	-0.047589	0.211890	-0.388078	113.330713	-69.621651	-41.423785
18414		9.691049	3.403878	-0.953378	-0.156955	0.255462	-0.332217	112.669010	-69.506312	-40.816045
18415		9.643020	3.361315	-1.220212	-0.286946	0.293465	-0.281919	111.915024	-69.423352	-40.188910
18416		9.562825	3.197791	-1.372314	-0.371517	0.313014	-0.246002	111.110197	-69.360603	-39.558941
18417		9.402424	3.114751	-1.323924	-0.370409	0.307643	-0.229390	110.326863	-69.302659	-38.951000
18418		9.167388	2.966401	-1.232049	-0.330167	0.269502	-0.233156	109.622841	-69.232401	-38.402957
18419		9.027633	2.694548	-1.237371	-0.276014	0.212942	-0.257764	109.022409	-69.135952	-37.932237
18420		9.034498	2.489832	-1.283143	-0.210540	0.171519	-0.289549	108.508001	-69.013007	-37.513095
18421		9.130703	2.470772	-1.347858	-0.111923	0.144283	-0.326278	108.076773	-68.863947	-37.122171
18422		9.257267	2.654899	-1.395043	-0.015352	0.137694	-0.353291	107.703779	-68.698109	-36.733896
18423		9.259448	2.885707	-1.499991	0.049430	0.142452	-0.363489	107.362331	-68.526554	-36.339241
18424		9.332171	3.271148	-1.735132	0.029100	0.147992	-0.365278	107.007066	-68.354244	-35.941696
18425		9.544185	3.663493	-1.659271	-0.013132	0.135613	-0.354398	106.654647	-68.184789	-35.572884
18426		9.730238	4.058181	-1.130325	-0.003637	0.100971	-0.323443	106.373333	-68.026096	-35.274281
18427		9.910628	4.274160	-0.631973	-0.012845	0.021159	-0.307306	106.204662	-67.862863	-35.102705
18428		10.084768	4.230834	-0.517022	-0.085675	-0.016102	-0.333082	106.037425	-67.679444	-34.977436
18429		10.067213	4.032245	-0.442249	-0.183101	-0.006175	-0.377665	105.786418	-67.472730	-34.821867
18430		9.792643	3.814541	-0.441972	-0.263295	0.018874	-0.436401	105.438994	-67.237280	-34.611307
18431		9.530463	3.668245	-0.552951	-0.336909	0.030685	-0.494423	105.019140	-66.970872	-34.367578
18432		9.350320	3.530247	-0.734447	-0.379997	0.025823	-0.538034	104.573754	-66.679042	-34.122407
18433		9.194397	3.414617	-0.955733	-0.373543	0.003996	-0.557120	104.161913	-66.372646	-33.909242
18434		9.129141	3.356417	-1.189462	-0.329745	-0.009903	-0.554643	103.801031	-66.065342	-33.723827
18435		8.961380	3.288185	-1.180983	-0.247917	-0.030089	-0.535437	103.524204	-65.765383	-33.578705
18436		8.926747	3.220875	-1.093818	-0.167775	-0.070294	-0.490651	103.360370	-65.485063	-33.506845
18437		9.000694	3.190095	-1.018154	-0.162982	-0.098296	-0.443337	103.249061	-65.227099	-33.489643
18438		9.152113	3.113371	-1.077817	-0.232987	-0.091932	-0.378647	103.109808	-65.006384	-33.485747
18439		9.179198	3.059005	-0.941109	-0.346589	-0.005611	-0.308137	102.823421	-64.835787	-33.391332
18440		8.980621	2.937414	-0.713979	-0.445643	0.077338	-0.239358	102.403188	-64.714241	-33.211485
18441		8.867724	2.985253	-0.712410	-0.457011	0.083265	-0.183381	101.986118	-64.623743	-33.042286
18442		8.980612	3.056958	-0.717299	-0.422050	0.065714	-0.144923	101.621439	-64.552856	-32.908693
18443		9.139668	3.248826	-0.720904	-0.382357	0.036467	-0.108150	101.323683	-64.498363	-32.824077
18444		9.276781	3.419251	-0.655485	-0.360725	-0.000858	-0.073978	101.091227	-64.459459	-32.797938
18445		9.251284	3.397710	-0.676471	-0.382862	-0.044380	-0.030443	100.907271	-64.439534	-32.839724
18446		9.225231	3.027878	-0.875258	-0.412662	-0.061268	0.014353	100.736613	-64.443867	-32.915058
18447		8.990309	2.498942	-1.043022	-0.364752	-0.038702	0.056879	100.575968	-64.473822	-32.971177
18448		8.645759	2.047358	-0.942171	-0.248947	-0.004939	0.093903	100.450282	-64.529189	-32.992333
18449		8.289164	1.574540	-0.893703	-0.098145	0.027238	0.127436	100.379603	-64.605834	-32.978874
18450		8.167025	1.366409	-0.698712	0.047371	0.050169	0.172416	100.375251	-64.711385	-32.946345
18451		8.062393	1.529860	-0.589397	0.174597	0.041338	0.213390	100.462778	-64.837928	-32.935050
18452		8.134870	1.963464	-0.372692	0.245892	-0.025770	0.237945	100.678734	-64.972699	-33.020219
18453		8.289211	1.852800	-0.343335	0.386250	-0.102678	0.304130	101.084894	-65.134755	-33.226623
18454		8.500787	2.151534	-0.367172	0.631647	-0.245486	0.389809	101.832399	-65.329419	-33.653541
18455		8.745096	2.722832	-0.420482	0.798872	-0.292720	0.438040	102.755454	-65.541062	-34.167702
18456		8.781936	3.205694	-0.473181	0.822090	-0.249575	0.460602	103.658106	-65.769288	-34.643699
18457		8.800802	3.467623	-0.694663	0.824099	-0.186522	0.489639	104.504380	-66.017641	-35.056050
18458		8.747379	3.694889	-1.104750	0.917079	-0.160817	0.540917	105.402881	-66.297410	-35.466153
18459		8.818289	4.023762	-1.295625	0.931302	-0.174584	0.605409	106.364929	-66.606013	-35.936021
18460		9.056847	4.267544	-1.150544	0.753534	-0.130885	0.666569	107.211881	-66.954174	-36.390042
18461		9.150582	4.559355	-0.752875	0.514561	-0.034433	0.694514	107.825235	-67.330154	-36.738202
18462		9.098247	4.637184	-0.595673	0.209231	0.056285	0.705570	108.163404	-67.728765	-36.976659
18463		9.150227	4.569615	-0.764120	-0.113941	0.136130	0.705513	108.216121	-68.139626	-37.106459
18464		9.194113	4.562962	-0.917091	-0.452154	0.252996	0.705492	107.915606	-68.572917	-37.064154
18465		9.028896	4.521039	-0.823397	-0.751132	0.351415	0.702112	107.293230	-69.019704	-36.860664
18466		8.961288	4.366488	-0.771518	-0.970604	0.350186	0.710124	106.532117	-69.471196	-36.643770
18467		9.084655	3.971492	-0.900693	-1.071229	0.312260	0.734446	105.758585	-69.927519	-36.475874
18468		9.164044	3.531946	-1.118431	-1.043177	0.300153	0.765957	105.012456	-70.399926	-36.320431
18469		9.050687	2.947502	-1.100511	-0.930329	0.327958	0.769207	104.266853	-70.876105	-36.097559
18470		8.858446	2.372549	-1.046283	-0.679845	0.294938	0.736748	103.683933	-71.330077	-35.895471
18471		8.894624	2.302890	-0.943119	-0.298979	0.190006	0.675035	103.454652	-71.733798	-35.836762
18472		9.189763	2.569123	-1.086178	-0.010526	0.010053	0.619333	103.673710	-72.083652	-36.075843
18473		9.312130	2.839875	-1.368042	0.220630	-0.109655	0.548752	104.213567	-72.375894	-36.512407
18474		9.454767	3.313266	-1.361092	0.565899	-0.228543	0.453842	105.135532	-72.597883	-37.141426
18475		9.311595	3.732840	-1.153640	0.789613	-0.219080	0.327099	106.123943	-72.746883	-37.705303
18476		9.124696	4.119539	-1.077417	0.950902	-0.280647	0.222801	107.272113	-72.826574	-38.339152
18477		9.291428	4.602153	-1.181636	1.012775	-0.420698	0.156426	108.671044	-72.839927	-39.198372
18478		9.491925	5.260048	-1.172340	0.942690	-0.469003	0.085864	110.072088	-72.800769	-40.101722
18479		9.443776	5.749300	-0.941205	0.700889	-0.395037	0.009332	111.149972	-72.728719	-40.812221
18480		9.349977	5.793214	-0.765039	0.397604	-0.315169	-0.034557	111.881708	-72.647439	-41.342338
18481		9.362845	5.713671	-0.827289	-0.000736	-0.266455	-0.069284	112.272821	-72.555976	-41.755046
18482		9.489187	5.528786	-0.710711	-0.395243	-0.191354	-0.097865	112.288787	-72.465614	-42.011592
18483		9.489949	5.228157	-0.426187	-0.661807	-0.131355	-0.138093	112.023175	-72.366661	-42.133139
18484		9.430654	4.867034	-0.257667	-0.845311	-0.094870	-0.171688	111.569946	-72.257952	-42.168253
18485		9.521589	4.471160	-0.468479	-0.977972	-0.016499	-0.180426	110.908134	-72.160831	-42.064089
18486		9.252691	3.966279	-0.712194	-1.008136	0.117212	-0.158791	110.023440	-72.101646	-41.744016
18487		8.852246	3.521785	-0.766847	-0.915441	0.186340	-0.133209	109.096308	-72.068035	-41.323285
18488		8.718182	3.134516	-0.847249	-0.824422	0.226736	-0.100145	108.173372	-72.057542	-40.852290
18489		8.520455	2.620323	-1.041368	-0.724256	0.281396	-0.069445	107.233871	-72.071122	-40.303373
18490		8.218206	2.029508	-0.940908	-0.521800	0.270280	-0.046621	106.438676	-72.092639	-39.784452
18491		8.152044	1.540421	-0.768808	-0.288410	0.201881	-0.039082	105.897336	-72.105706	-39.391635
18492		8.219116	1.408874	-0.778302	-0.142251	0.142057	-0.048953	105.535753	-72.102993	-39.099891
18493		8.288257	1.370162	-0.902641	-0.091941	0.142340	-0.058923	105.198974	-72.094370	-38.803745
18494		8.151192	1.394476	-0.747142	-0.097457	0.159439	-0.064423	104.826732	-72.084700	-38.473771
18495		8.021243	1.451715	-0.697453	-0.154302	0.157843	-0.052444	104.431176	-72.080740	-38.153377
18496		8.032045	1.618535	-0.814817	-0.207016	0.159737	-0.025837	104.013094	-72.091261	-37.841168
18497		7.983876	1.829899	-0.913936	-0.253277	0.179127	0.008483	103.549675	-72.122653	-37.509096
18498		8.062300	2.047331	-1.049729	-0.255847	0.170080	0.046137	103.113830	-72.173252	-37.207699
18499		8.295820	2.223721	-1.360183	-0.208525	0.151592	0.100644	102.757415	-72.251067	-36.961271
18500		8.317076	2.319301	-1.471952	-0.141440	0.139563	0.161375	102.481406	-72.361155	-36.759064
18501		8.123691	2.366168	-1.337383	-0.087242	0.103072	0.221324	102.321740	-72.499826	-36.646421
18502		7.915414	2.237264	-1.215046	-0.084609	0.033611	0.264369	102.302652	-72.654292	-36.679610
18503		7.985922	2.146501	-1.107931	-0.073422	-0.058885	0.300498	102.471717	-72.817355	-36.903103
18504		8.158278	2.010782	-0.989512	-0.099235	-0.116227	0.331876	102.747619	-72.990779	-37.253587
18505		8.454356	1.943493	-0.812313	-0.137382	-0.144004	0.357634	103.069893	-73.174247	-37.675107
18506		8.736231	1.857878	-0.687307	-0.170901	-0.143683	0.389564	103.395187	-73.375159	-38.119322
18507		8.885735	1.880437	-0.529864	-0.191989	-0.130651	0.425220	103.709057	-73.596677	-38.563820
18508		8.849098	2.000342	-0.319701	-0.199134	-0.133591	0.452270	104.048418	-73.832471	-39.038522
18509		8.806563	2.233464	-0.183595	-0.254493	-0.153479	0.479963	104.419714	-74.079657	-39.578973
18510		8.782643	2.350204	-0.163264	-0.317160	-0.179627	0.500439	104.832028	-74.333786	-40.198611
18511		8.542368	2.391991	-0.011241	-0.343869	-0.195401	0.510221	105.282249	-74.589304	-40.872785
18512		8.483426	2.297773	0.294171	-0.414087	-0.254244	0.493459	105.820983	-74.825370	-41.679581
18513		8.692822	1.976727	0.074744	-0.436943	-0.282315	0.459412	106.404152	-75.035731	-42.545156
18514		8.821764	1.753313	-0.217780	-0.403997	-0.272926	0.450388	107.001618	-75.240794	-43.405145
18515		9.138368	1.794497	-0.527879	-0.371218	-0.276652	0.456277	107.650033	-75.445595	-44.297581
18516		9.446602	1.921863	-0.960406	-0.354724	-0.237994	0.458927	108.249583	-75.656690	-45.128955
18517		9.333073	1.731637	-0.879404	-0.275360	-0.184207	0.462677	108.803073	-75.877020	-45.865102
18518		9.319666	1.551665	-0.754254	-0.022467	-0.217844	0.470257	109.602329	-76.093493	-46.704482
18519		9.397098	1.586932	-0.747865	0.208364	-0.245497	0.485235	110.633361	-76.308772	-47.645580
18520		9.186322	1.496500	-0.365985	0.282941	-0.292594	0.493037	111.850339	-76.514585	-48.733139
18521		9.197317	1.057930	-0.050611	0.318702	-0.442985	0.505742	113.469429	-76.686953	-50.212172
18522		9.513578	0.749782	-0.042360	0.377152	-0.488558	0.511964	115.269534	-76.842175	-51.841727
18523		9.289986	0.813404	-0.128611	0.480478	-0.442038	0.499107	117.050500	-76.990123	-53.389875
18524		9.070628	1.151654	-0.428967	0.587325	-0.434219	0.485309	118.896387	-77.122855	-54.940929
18525		8.536444	1.630627	-0.658976	0.688576	-0.397491	0.455574	120.715240	-77.239259	-56.404009
18526		7.953618	1.696071	-0.487368	0.770204	-0.415623	0.402235	122.576567	-77.314583	-57.862117
18527		7.787603	1.403417	-0.264838	0.881182	-0.477749	0.339222	124.559426	-77.328456	-59.379378
18528		8.188132	0.877207	-0.393523	1.075290	-0.534738	0.295128	126.706442	-77.291648	-60.950977
18529		8.628814	0.665464	-0.791280	1.371978	-0.533426	0.267106	128.962941	-77.228502	-62.460847
18530		8.507833	0.959265	-0.914451	1.635116	-0.489190	0.258723	131.252408	-77.165828	-63.850291
18531		8.289512	1.225775	-0.752697	1.727117	-0.475468	0.258342	133.548256	-77.095062	-65.192579
18532		8.309372	1.331150	-0.571784	1.748692	-0.510977	0.274984	135.927441	-77.005627	-66.608120
18533		8.357974	1.569832	-0.488797	1.775400	-0.515692	0.266273	138.285009	-76.896778	-67.986332
18534		8.506544	1.724089	-0.498938	1.780683	-0.440623	0.235028	140.438031	-76.797804	-69.151987
18535		8.362403	1.863810	-0.573022	1.825556	-0.328949	0.196027	142.348603	-76.724502	-70.042550
18536		8.366178	2.091631	-0.185975	1.817573	-0.294010	0.162477	144.123922	-76.650297	-70.799168
18537		9.306693	2.147506	-0.662945	1.799160	-0.293277	0.162445	145.872718	-76.570022	-71.539537
18538		10.240946	3.233628	-1.087745	1.757161	-0.291783	0.209422	147.674503	-76.501070	-72.359509
18539		10.249859	3.235587	-2.533168	1.673275	-0.270013	0.310738	149.594495	-76.465688	-73.350523
18540		10.826033	3.619509	-3.041852	1.418589	-0.652564	0.461914	152.105338	-76.273166	-75.100337
18541		12.633604	3.503698	-2.107251	0.207772	-0.701328	0.590844	154.184318	-76.071675	-77.121112
18542		13.044865	1.511114	-1.626936	-0.582900	-0.438043	0.667463	155.666350	-76.011473	-78.995004
18543		12.893982	-0.445226	-2.248905	-0.622255	-0.372587	0.625596	156.965081	-75.964091	-80.703381
18544		13.821419	-0.371943	-3.405163	-0.072479	-0.554419	0.453681	158.353868	-75.774285	-82.180941
18545		13.977996	1.694071	-3.180597	0.157823	-0.314727	0.279603	159.284221	-75.668169	-83.050006
18546		12.181158	3.475823	-2.528548	0.061014	-0.097022	0.177225	159.764059	-75.656857	-83.511777
18547		16.163477	3.387098	-1.345746	-0.269527	-0.609946	0.068936	160.212945	-75.346145	-84.137300
18548		26.233899	3.602360	-4.533194	-0.062296	-0.962866	-0.007735	160.847995	-74.829834	-84.834135
18549		19.527220	6.352640	-4.583110	-0.040316	0.874630	0.079897	160.359984	-75.321876	-84.355371
18550		9.861772	6.224142	-3.024684	-1.084520	0.726794	0.174003	159.542547	-75.752551	-84.155772
18551		8.230840	2.380807	-3.077464	-2.455681	0.124386	0.154173	158.357238	-75.854937	-84.386813
18552		7.140549	-1.695974	-5.108269	-2.508300	-0.110182	0.040376	157.092022	-75.810369	-84.567099
18553		6.898230	-2.705592	-4.049059	-2.050588	-0.210089	-0.021412	156.057599	-75.699180	-84.714397
18554		6.648642	-2.182069	-2.643323	-1.653129	-0.177403	0.012711	155.293672	-75.614456	-84.906292
18555		6.695649	-1.313633	-2.345274	-1.286088	-0.281044	0.101596	155.020467	-75.496913	-85.387463
18556		7.982141	-0.965653	-1.957166	-1.010395	-0.426868	0.187683	155.206476	-75.325205	-86.180501
18557		9.821026	-1.455923	-1.921228	-0.636217	-0.476650	0.211581	155.686581	-75.131298	-87.056370
18558		10.949031	-1.832187	-2.439191	-0.194581	-0.312915	0.120133	156.081164	-75.000807	-87.582687
18559		10.832185	-1.760623	-2.556829	0.155730	-0.128634	-0.008236	156.261489	-74.935615	-87.679386
18560		10.371586	-1.660763	-2.750509	0.390544	-0.144886	-0.045003	156.518055	-74.854385	-87.715815
18561		10.130559	-2.090838	-2.979133	0.654943	-0.280772	0.024667	157.170179	-74.716170	-88.005116
18562		10.022777	-2.400518	-2.951993	0.993671	-0.360395	0.102037	158.220235	-74.552564	-88.505993
18563		9.748570	-2.249335	-2.647920	1.247893	-0.364601	0.173191	159.536471	-74.397601	-89.132383
18564		9.292298	-1.524379	-2.178863	1.338633	-0.325044	0.211325	160.934967	-74.268609	-89.790457
18565		8.796320	-0.668479	-2.165785	1.417894	-0.317120	0.207303	162.345881	-74.137724	-90.414848
18566		8.664778	0.186675	-2.744983	1.513319	-0.327899	0.182443	163.757111	-73.993869	-90.982869
18567		8.891707	1.005495	-3.287564	1.627041	-0.334323	0.148606	165.150331	-73.836290	-91.465030
18568		9.206012	1.952747	-3.402202	1.686103	-0.269173	0.122039	166.482018	-73.709190	-91.847909
18569		9.407714	2.702351	-3.194072	1.591518	-0.203758	0.115688	167.702361	-73.614334	-92.171748
18570		9.519906	3.203799	-3.113978	1.361497	-0.190760	0.087334	168.727047	-73.522706	-92.428908
18571		9.663282	3.411475	-3.148950	1.073360	-0.207678	0.071897	169.553482	-73.417722	-92.651859
18572		9.610126	3.332450	-3.120111	0.766893	-0.210073	0.049815	170.160008	-73.309289	-92.828537
18573		9.552598	3.222317	-2.786753	0.390857	-0.197979	0.033309	170.509646	-73.204771	-92.962188
18574		9.644314	2.946557	-2.496705	-0.042110	-0.150242	0.036639	170.601917	-73.128243	-93.086166
18575		9.531112	2.570732	-2.733803	-0.375346	-0.069284	0.050956	170.503073	-73.097976	-93.210012
18576		9.288913	2.400605	-2.834987	-0.615591	-0.047346	0.080415	170.315059	-73.083827	-93.384624
18577		9.206479	2.035778	-2.989552	-0.945687	-0.023985	0.129145	170.020471	-73.087025	-93.645449
18578		9.169134	1.523000	-3.226946	-1.081431	-0.026381	0.185983	169.754344	-73.095732	-94.017456
18579		9.286129	1.121665	-3.248229	-1.127725	-0.024172	0.261208	169.600800	-73.113033	-94.534668
18580		9.387315	0.629154	-3.215831	-1.167717	0.006048	0.331259	169.544758	-73.155604	-95.177795
18581		9.502798	0.123435	-3.049693	-1.175370	0.015125	0.385216	169.583905	-73.208215	-95.924615
18582		9.578378	-0.415752	-2.971693	-1.134132	0.008677	0.410000	169.697703	-73.260126	-96.724665
18583		9.565299	-0.869304	-2.955829	-0.996278	0.012889	0.389287	169.853207	-73.311094	-97.485428
18584		9.286517	-1.153730	-2.875592	-0.804109	-0.017819	0.328313	170.016875	-73.338692	-98.139709
18585		9.238116	-1.406664	-2.958828	-0.618253	-0.069113	0.267217	170.189009	-73.330101	-98.691548
18586		9.173653	-1.532706	-3.136574	-0.356547	-0.103160	0.201171	170.397845	-73.296047	-99.125232
18587		9.149179	-1.336211	-3.253738	-0.058058	-0.130901	0.159984	170.706226	-73.241209	-99.484373
18588		9.109449	-0.927888	-3.221898	0.187197	-0.163102	0.125142	171.098697	-73.165008	-99.784607
18589		9.120578	-0.499917	-3.245201	0.329903	-0.170946	0.110465	171.542734	-73.081825	-100.053495
18590		9.228109	-0.048222	-3.138112	0.414158	-0.164638	0.100669	172.013796	-73.001395	-100.300135
18591		9.334519	0.457072	-3.024809	0.439392	-0.146440	0.091285	172.471908	-72.929396	-100.518360
18592		9.472629	0.929285	-2.824879	0.368153	-0.126714	0.082606	172.868093	-72.868061	-100.714409
18593		9.491254	1.064963	-2.745639	0.233306	-0.100142	0.084707	173.180810	-72.821069	-100.904187
18594		9.482335	1.187366	-2.708083	0.158175	-0.094332	0.082770	173.446369	-72.777531	-101.089571
18595		9.398937	1.193722	-2.644098	0.080145	-0.092735	0.083004	173.664272	-72.734130	-101.272048
18596		9.340517	1.127824	-2.662108	-0.028549	-0.082066	0.102099	173.853449	-72.698366	-101.489606
18597		9.220644	0.893571	-2.737756	-0.150109	-0.084254	0.107124	173.980143	-72.660922	-101.714810
18598		9.221475	0.662925	-2.920074	-0.254033	-0.077607	0.115377	174.061793	-72.628200	-101.955186
18599		9.269250	0.462668	-2.992762	-0.288168	-0.055285	0.125970	174.137056	-72.608161	-102.209460
18600		9.216225	0.317765	-3.155742	-0.275492	-0.043067	0.127387	174.220874	-72.595609	-102.465057
18601		9.245348	0.326603	-3.225000	-0.226871	-0.055108	0.121862	174.323079	-72.575209	-102.710805
18602		9.300646	0.355372	-3.088241	-0.222276	-0.069081	0.130744	174.447375	-72.547699	-102.976919
18603		9.338991	0.342820	-3.104852	-0.259389	-0.086921	0.132023	174.553838	-72.509419	-103.246740
18604		9.418230	0.246315	-2.955331	-0.244076	-0.073488	0.145178	174.691085	-72.479815	-103.539626
18605		9.394088	0.285680	-2.853002	-0.196157	-0.056356	0.142216	174.845640	-72.459129	-103.821976
18606		9.352943	0.260846	-2.769559	-0.185294	-0.037530	0.135499	174.992146	-72.449099	-104.089316
18607		9.323110	0.238004	-2.816601	-0.133469	-0.043158	0.124121	175.147120	-72.434609	-104.334476
18608		9.291506	0.268421	-2.853934	-0.065708	-0.038291	0.112045	175.319390	-72.422595	-104.557008
18609		9.248981	0.321419	-2.836791	0.011883	-0.031945	0.090709	175.495186	-72.412540	-104.736681
18610		9.183378	0.448801	-2.679367	0.032914	-0.038317	0.061165	175.631760	-72.397873	-104.862520
18611		9.171408	0.517048	-2.782816	0.012628	-0.039905	0.042805	175.722400	-72.380946	-104.952429
18612		9.176203	0.677479	-2.834165	0.055932	-0.056258	0.020039	175.800082	-72.354165	-105.002676
18613		9.100479	0.880036	-2.997260	0.053563	-0.058889	-0.010512	175.820598	-72.324095	-104.994404
18614		9.038886	0.902800	-3.190433	0.027040	-0.080534	-0.045508	175.767112	-72.280669	-104.924384
18615		9.137813	0.820625	-3.195731	0.047600	-0.081395	-0.073857	175.674284	-72.235028	-104.800692
18616		9.255625	0.777857	-3.102237	0.125080	-0.044143	-0.101202	175.573280	-72.209857	-104.621771
18617		9.330378	0.901180	-3.074897	0.204459	0.005126	-0.105156	175.503369	-72.212124	-104.427729
18618		9.273199	1.167950	-3.322682	0.276068	0.029990	-0.110195	175.462428	-72.228737	-104.221056
18619		9.191730	1.559092	-3.476128	0.295051	0.041556	-0.115371	175.420695	-72.251245	-104.002129
18620		8.761025	1.786647	-2.731659	0.126349	0.031899	-0.147886	175.225443	-72.266956	-103.723589
18621		8.591247	1.403397	-2.445543	-0.233713	-0.002616	-0.174163	174.781889	-72.260807	-103.400896
18622		8.680888	1.154449	-3.025045	-0.272682	-0.025298	-0.203525	174.267672	-72.239671	-103.027552
18623		8.612361	1.313510	-2.973435	-0.203193	-0.023202	-0.239664	173.730054	-72.216145	-102.587655
18624		8.539092	1.287747	-2.688326	-0.253183	-0.039429	-0.267346	173.118903	-72.180559	-102.100694
18625		8.859721	1.203861	-2.891340	-0.275903	-0.031104	-0.290600	172.454670	-72.146043	-101.571392
18626		9.202500	1.301571	-2.964417	-0.259343	0.015516	-0.297161	171.778019	-72.135892	-101.019205
18627		9.469932	1.504371	-2.772459	-0.211210	0.073458	-0.309138	171.093749	-72.155223	-100.429858
18628		9.560910	1.646831	-2.418466	-0.170870	0.207022	-0.317600	170.375460	-72.247394	-99.780931
18629		9.072874	1.793296	-2.014097	-0.187757	0.322820	-0.336642	169.570473	-72.400057	-99.051370
18630		8.234187	1.374201	-1.455129	-0.181589	0.281518	-0.386798	168.679248	-72.521099	-98.228520
18631		7.623189	0.954630	-1.513656	-0.294053	0.231359	-0.499158	167.532278	-72.595992	-97.205279
18632		7.692636	-1.011224	-2.156750	-0.712470	0.131130	-0.628745	165.947485	-72.591014	-95.975006
18633		7.856427	-2.013463	-2.801688	0.111721	0.182317	-0.730264	164.634832	-72.589956	-94.534658
18634		8.321310	-1.465576	-2.560733	0.578993	0.274216	-0.763385	163.482983	-72.625451	-92.982678
18635		8.957886	-0.685403	-2.783056	0.538462	0.255058	-0.673197	162.472836	-72.656425	-91.603495
18636		10.286767	-0.129011	-3.013225	0.560807	0.227905	-0.512537	161.766616	-72.695114	-90.529737
18637		11.306763	0.786427	-2.994954	0.722966	0.288503	-0.333365	161.427062	-72.795814	-89.742833
18638		11.301216	1.442280	-2.796851	0.848844	0.351754	-0.196883	161.354658	-72.955426	-89.160742
18639		10.441668	1.793432	-2.548500	0.887277	0.400019	-0.137161	161.375994	-73.151647	-88.653995
18640		9.235432	1.991160	-2.009551	0.783432	0.426838	-0.143975	161.301648	-73.361579	-88.110227
18641		8.097195	1.870984	-1.154709	0.508905	0.376403	-0.207361	160.978056	-73.531412	-87.470848
18642		7.960882	1.710433	-1.265317	0.436777	0.279816	-0.294270	160.504704	-73.631808	-86.719162
18643		8.314195	2.414112	-2.018779	0.455023	0.248088	-0.358254	159.939607	-73.700263	-85.861012
18644		8.462660	3.034189	-2.092749	0.348797	0.228378	-0.391153	159.258909	-73.749433	-84.946457
18645		8.694977	2.721345	-1.782108	0.121893	0.227031	-0.393442	158.442249	-73.793565	-84.025558
18646		9.244118	2.879605	-2.737081	-0.020223	0.219394	-0.385918	157.556234	-73.831865	-83.117866
18647		9.730430	3.098677	-3.319899	-0.175262	0.230353	-0.358823	156.620794	-73.877538	-82.250946
18648		9.760646	2.838654	-2.748571	-0.303751	0.349528	-0.320800	155.574460	-73.990586	-81.346081
18649		9.153157	2.470885	-1.837826	-0.500689	0.485936	-0.290530	154.341517	-74.176506	-80.364683
18650		8.603137	1.989326	-1.781446	-0.668568	0.497930	-0.271604	153.005602	-74.367528	-79.377703
18651		8.318398	1.832469	-1.554208	-0.836350	0.430245	-0.265341	151.626766	-74.519293	-78.446232
18652		8.060725	1.080826	-1.380214	-1.031479	0.308445	-0.271264	150.223524	-74.602480	-77.606543
18653		8.314776	0.074211	-2.694968	-1.040345	0.191350	-0.282153	148.913878	-74.619193	-76.868812
18654		8.702547	-0.285041	-3.749690	-0.898491	0.114490	-0.269848	147.786008	-74.598113	-76.235874
18655		9.260861	-0.505317	-3.584348	-0.845087	0.079233	-0.227735	146.808707	-74.569843	-75.726746
18656		9.738649	-0.615974	-3.517610	-0.777671	0.084314	-0.149876	145.997644	-74.566680	-75.350410
18657		9.969431	-0.217579	-3.170225	-0.581506	0.108311	-0.047278	145.450142	-74.606702	-75.130467
18658		9.469518	0.310659	-2.616390	-0.339884	0.116532	0.027490	145.155167	-74.674667	-75.029235
18659		8.831098	0.737959	-2.076446	-0.190886	0.067813	0.023716	144.998666	-74.718287	-74.982747
18660		8.375580	1.153019	-1.876361	-0.088775	-0.012365	-0.036532	144.891223	-74.704587	-74.926767
18661		8.508287	1.502271	-1.387931	-0.155141	-0.078401	-0.184734	144.575249	-74.610775	-74.693667
18662		9.040029	1.625668	-1.878194	-0.255229	-0.079182	-0.352885	143.922796	-74.459943	-74.171119
18663		9.686270	1.536824	-2.030431	-0.406934	-0.017023	-0.464865	142.938487	-74.297366	-73.393538
18664		10.152254	1.253352	-2.254193	-0.467185	0.036403	-0.475123	141.853065	-74.151844	-72.546487
18665		10.261609	1.057019	-2.350702	-0.401050	0.091346	-0.384965	140.896112	-74.058945	-71.792797
18666		9.977136	1.082971	-2.317745	-0.249673	0.141666	-0.235902	140.197990	-74.039775	-71.218181
18667		9.305898	1.064298	-2.210708	-0.052312	0.172824	-0.099543	139.784539	-74.082818	-70.821754
18668		8.706424	1.105789	-2.129377	0.100585	0.174883	-0.005662	139.596114	-74.161170	-70.568589
18669		8.614344	1.073912	-1.830173	0.166236	0.160641	0.029925	139.518682	-74.246194	-70.391516
18670		8.838346	1.333143	-1.841727	0.235886	0.160855	0.032685	139.482250	-74.332493	-70.215900
18671		9.213917	1.843253	-1.775613	0.295707	0.165774	0.011963	139.441760	-74.412983	-70.000304
18672		9.500112	2.353795	-1.729941	0.310049	0.202448	-0.023443	139.301708	-74.496328	-69.673169
18673		9.556893	2.624988	-1.712681	0.320130	0.263619	-0.074152	139.003708	-74.586641	-69.176057
18674		9.399902	2.952608	-1.965215	0.309474	0.318801	-0.147960	138.501012	-74.672088	-68.473474
18675		8.955925	2.957921	-1.956564	0.242454	0.381930	-0.234649	137.731047	-74.749065	-67.533622
18676		8.551727	2.691807	-1.605129	0.184900	0.429018	-0.320531	136.717181	-74.808628	-66.375789
18677		8.092030	2.543181	-1.739124	0.126672	0.458295	-0.373793	135.540185	-74.853254	-65.083484
18678		7.793684	2.171320	-1.507574	0.144237	0.464217	-0.387694	134.334447	-74.887569	-63.751552
18679		7.530874	1.757919	-1.331441	0.265621	0.427395	-0.374926	133.271382	-74.905711	-62.495195
18680		7.333315	1.561723	-1.577404	0.364143	0.400732	-0.336425	132.356811	-74.923912	-61.334616
18681		7.016935	1.414239	-1.906321	0.424917	0.443926	-0.299385	131.460504	-74.969762	-60.156723
18682		6.538009	1.596296	-2.488058	0.544348	0.467496	-0.277791	130.615770	-75.029013	-58.961991
18683		6.267483	1.683339	-2.662237	0.600264	0.432286	-0.275284	129.859619	-75.072156	-57.825751
18684		6.584191	1.753344	-2.414460	0.641424	0.348213	-0.294200	129.234812	-75.072456	-56.801411
18685		7.698264	2.158753	-2.508502	0.657134	0.180775	-0.319352	128.868468	-74.999122	-56.034853
18686		9.526490	2.938354	-2.664799	0.586789	0.043811	-0.307049	128.709922	-74.880823	-55.525097
18687		11.910701	3.560309	-2.612991	0.389690	-0.051230	-0.247151	128.680808	-74.755443	-55.265955
18688		14.425459	3.813279	-3.155146	0.071904	-0.072147	-0.153368	128.627046	-74.663981	-55.170094
18689		15.283722	3.921100	-3.171255	-0.295162	0.132618	-0.114198	128.082067	-74.663301	-54.782728
18690		14.022934	3.511316	-3.381262	-0.704774	0.344988	-0.218354	126.815569	-74.687015	-53.890803
18691		13.003026	2.616840	-3.215419	-0.886107	0.368171	-0.395069	125.189705	-74.631274	-52.733709
18692		12.610629	1.969088	-2.740122	-0.842004	0.276183	-0.526186	123.605763	-74.474542	-51.593446
18693		12.841129	1.910948	-2.340254	-0.823130	0.124029	-0.568284	122.277214	-74.243175	-50.705946
18694		13.024048	1.703190	-2.157084	-0.852786	0.009733	-0.549573	121.177745	-73.980846	-50.073302
18695		12.864824	1.404512	-2.049509	-0.769041	-0.060079	-0.510795	120.311050	-73.714865	-49.632114
18696		12.450441	1.123351	-1.832214	-0.594114	-0.121797	-0.490535	119.686901	-73.439174	-49.338733
18697		12.206884	0.870265	-1.631744	-0.387557	-0.181101	-0.498475	119.285895	-73.142577	-49.154286
18698		12.104465	0.906157	-1.481744	-0.176670	-0.215306	-0.513174	119.056839	-72.828455	-49.023000
18699		11.868705	1.161138	-1.147076	0.007436	-0.230420	-0.536434	118.942398	-72.498697	-48.901051
18700		11.407037	1.388591	-0.805557	0.121405	-0.229826	-0.543168	118.890418	-72.165536	-48.775873
18701		10.800787	1.642925	-0.592070	0.142131	-0.191348	-0.572898	118.769401	-71.828163	-48.565408
18702		9.988103	1.711370	-0.533036	0.119308	-0.140237	-0.613522	118.531391	-71.484233	-48.245040
18703		9.284112	1.882280	-0.688660	0.105179	-0.100616	-0.664676	118.196246	-71.124766	-47.830027
18704		8.674647	2.077164	-0.713094	0.063032	-0.068642	-0.706966	117.772235	-70.751772	-47.345643
18705		8.363208	2.318289	-0.929461	-0.027035	-0.040952	-0.716549	117.267613	-70.379820	-46.829393
18706		8.367145	2.629431	-1.289133	-0.165169	-0.009773	-0.691171	116.677362	-70.027508	-46.305115
18707		8.541814	2.819985	-1.357084	-0.269475	0.050158	-0.614729	116.015733	-69.727563	-45.767353
18708		8.620460	3.090128	-1.316234	-0.330981	0.091171	-0.498424	115.355976	-69.495949	-45.268294
18709		8.802194	3.166787	-1.442009	-0.410016	0.118062	-0.375394	114.705278	-69.332548	-44.826608
18710		8.995441	3.116331	-1.490308	-0.502631	0.169409	-0.274928	114.001271	-69.232083	-44.384315
18711		9.071229	2.999524	-1.266842	-0.574676	0.209595	-0.202070	113.249733	-69.176924	-43.935068
18712		9.128992	2.826478	-1.014045	-0.636979	0.219236	-0.162953	112.474800	-69.142636	-43.498889
18713		9.281060	2.623384	-0.993572	-0.661465	0.213687	-0.160664	111.697028	-69.106076	-43.074545
18714		9.502961	2.418818	-0.998793	-0.656749	0.196087	-0.187161	110.934188	-69.049919	-42.663212
18715		9.661166	2.322606	-1.085094	-0.593268	0.193384	-0.234433	110.190269	-68.965693	-42.232946
18716		9.761390	2.404075	-1.397280	-0.543823	0.210024	-0.305806	109.420402	-68.844522	-41.744251
18717		9.888195	2.558019	-1.630042	-0.482724	0.223509	-0.371121	108.643040	-68.687800	-41.209455
18718		9.878990	2.743924	-1.401083	-0.386799	0.255394	-0.419476	107.863971	-68.508280	-40.613194
18719		9.730343	2.837343	-1.082512	-0.278728	0.274993	-0.456014	107.115365	-68.308876	-39.982314
18720		9.499266	2.812798	-0.905836	-0.189159	0.270135	-0.474069	106.429689	-68.096346	-39.363032
18721		9.338694	2.647273	-0.828897	-0.109089	0.248539	-0.487157	105.826403	-67.870130	-38.782184
18722		9.236126	2.704725	-0.853853	-0.002551	0.209822	-0.501907	105.342375	-67.628304	-38.263268
18723		9.349995	2.976204	-0.952788	0.025675	0.182607	-0.521816	104.914268	-67.369295	-37.786443
18724		9.580298	3.137124	-0.859091	0.105997	0.162727	-0.543020	104.561021	-67.095013	-37.339963
18725		9.673151	3.487277	-0.591670	0.264659	0.143836	-0.561643	104.325981	-66.806203	-36.922230
18726		9.727181	3.766892	-0.391191	0.334732	0.126922	-0.567507	104.158613	-66.511844	-36.533566
18727		9.624209	3.946878	-0.401569	0.337036	0.128169	-0.572768	103.996308	-66.213629	-36.148107
18728		9.477764	3.934169	-0.510277	0.307303	0.129771	-0.583059	103.818556	-65.910141	-35.763540
18729		9.326029	3.878408	-0.613057	0.284172	0.124474	-0.585973	103.640500	-65.603140	-35.392210
18730		9.257885	3.838043	-0.721673	0.266918	0.104892	-0.594499	103.480458	-65.289015	-35.050716
18731		9.184564	3.900489	-0.809227	0.277875	0.092394	-0.589197	103.349708	-64.975122	-34.733649
18732		9.035518	3.988536	-0.862240	0.221625	0.098104	-0.562768	103.192671	-64.677105	-34.422448
18733		8.941865	3.869424	-0.990275	0.038443	0.119153	-0.513824	102.925553	-64.407922	-34.104749
18734		8.775539	3.613932	-1.195764	-0.100796	0.126102	-0.436895	102.596545	-64.182631	-33.806340
18735		8.737712	3.457143	-1.364196	-0.174128	0.106251	-0.348203	102.276313	-64.003056	-33.563793
18736		8.669489	3.386290	-1.280323	-0.193685	0.142813	-0.251067	101.930182	-63.882442	-33.304646
18737		8.519562	3.305752	-0.930617	-0.136425	0.180390	-0.158611	101.598605	-63.816644	-33.024891
18738		8.573056	3.334655	-0.623353	0.016556	0.128807	-0.113749	101.424962	-63.770405	-32.823377
18739		8.992501	3.728689	-0.502935	0.123943	0.063952	-0.082370	101.394618	-63.733468	-32.712921
18740		9.341669	4.055554	-0.621144	0.080560	0.043435	-0.061825	101.367410	-63.706591	-32.633706
18741		9.531812	4.216586	-0.920853	-0.031749	0.051092	-0.041132	101.272210	-63.691299	-32.550361
18742		9.435726	4.176814	-0.988523	-0.159000	0.105454	-0.015648	101.047862	-63.697152	-32.404333
18743		9.098898	3.901570	-0.941111	-0.289761	0.178562	0.019198	100.673009	-63.729272	-32.173971
18744		8.645565	3.342845	-0.833523	-0.384203	0.218597	0.052314	100.204167	-63.784376	-31.899281
18745		8.217237	2.837743	-0.839013	-0.421750	0.223082	0.079167	99.712710	-63.853140	-31.623463
18746		7.944355	2.287689	-0.850652	-0.354224	0.171595	0.088191	99.319027	-63.922172	-31.413638
18747		7.814541	1.971471	-0.936597	-0.199550	0.103486	0.098501	99.093594	-63.989304	-31.292532
18748		7.874617	1.856076	-1.213454	-0.060862	0.030702	0.123409	99.036001	-64.064934	-31.269800
18749		8.085524	2.011736	-1.182492	0.087793	-0.022775	0.151530	99.131219	-64.150533	-31.322276
18750		8.324680	2.317231	-1.018927	0.202798	-0.057252	0.194731	99.341661	-64.258570	-31.429427
18751		8.560073	2.652205	-0.813357	0.299937	-0.081512	0.242211	99.647032	-64.389696	-31.580117
18752		8.566862	2.630957	-0.796059	0.416971	-0.094569	0.276385	100.044646	-64.539776	-31.758434
18753		8.553683	2.772010	-0.733326	0.638813	-0.091981	0.294035	100.573543	-64.698101	-31.941256
18754		8.404126	3.013039	-0.671696	0.830617	-0.114988	0.338423	101.255162	-64.879498	-32.171023
18755		8.340815	3.127502	-0.922125	1.009210	-0.179011	0.397166	102.137475	-65.083633	-32.509114
18756		8.490595	3.466768	-1.155484	1.161254	-0.231660	0.478886	103.203825	-65.325853	-32.953204
18757		8.638431	3.940474	-1.025083	1.175886	-0.259341	0.568528	104.353765	-65.609055	-33.479180
18758		8.968035	4.343227	-0.900563	1.062446	-0.255352	0.651279	105.480642	-65.935736	-34.049697
18759		9.238014	4.671746	-0.726893	0.852743	-0.195704	0.728536	106.462197	-66.308548	-34.591309
18760		9.319688	4.944001	-0.434851	0.520704	-0.098042	0.796134	107.178591	-66.732752	-35.049437
18761		9.282983	5.128954	-0.288944	0.078529	0.012908	0.838106	107.533675	-67.195733	-35.388884
18762		9.202580	5.096376	-0.295705	-0.351671	0.141257	0.859177	107.492916	-67.693317	-35.565324
18763		8.971816	4.965760	-0.409352	-0.601408	0.215813	0.848602	107.204274	-68.196719	-35.628154
18764		8.931996	4.952296	-0.593642	-0.694607	0.202289	0.836667	106.870500	-68.692656	-35.699636
18765		8.988946	4.977279	-0.978612	-0.774339	0.152712	0.830026	106.553218	-69.175698	-35.837527
18766		9.172202	4.722354	-1.353940	-0.945880	0.139314	0.840483	106.156930	-69.663721	-35.995589
18767		9.067130	4.267063	-1.474640	-1.036889	0.159202	0.852637	105.677677	-70.160881	-36.120311
18768		8.799147	4.025592	-1.416291	-1.033906	0.111208	0.834443	105.258886	-70.641959	-36.307028
18769		8.522638	3.953975	-1.353948	-1.025067	0.038331	0.792915	104.939282	-71.088605	-36.592827
18770		8.438474	3.507674	-1.296565	-1.001212	0.014820	0.747151	104.651777	-71.507825	-36.897341
18771		8.815899	3.308775	-1.304073	-0.760738	-0.108265	0.701775	104.692389	-71.883369	-37.401631
18772		9.292232	3.998985	-0.814419	-0.491804	-0.116938	0.658648	104.895431	-72.234223	-37.913616
18773		9.197023	4.566410	-0.482126	-0.298686	-0.139028	0.585094	105.227810	-72.539546	-38.444297
18774		9.044621	4.678496	-0.105037	-0.265153	-0.110831	0.461221	105.482863	-72.780568	-38.873041
18775		9.016484	4.375118	-0.273044	-0.142544	-0.175534	0.312051	105.858186	-72.927887	-39.353688
18776		9.272698	4.357355	-0.444597	0.029787	-0.304046	0.217303	106.520927	-73.001808	-40.031428
18777		9.502901	4.277081	-0.362187	0.101501	-0.328101	0.134950	107.228068	-73.023640	-40.712416
18778		9.519564	4.124531	-0.333432	0.092195	-0.331572	0.039449	107.882236	-72.990776	-41.343686
18779		9.627105	4.120255	-0.422230	0.011125	-0.262981	-0.095993	108.286641	-72.894199	-41.762429
18780		8.957922	3.947119	-0.174170	-0.073653	-0.187018	-0.222315	108.429929	-72.742399	-41.959099
18781		8.631157	3.736971	-0.288747	0.001752	-0.243851	-0.313757	108.658833	-72.530035	-42.200282
18782		8.673920	3.490817	-0.413110	0.062228	-0.282364	-0.355091	108.957036	-72.288075	-42.478281
18783		8.907940	3.084399	-0.626575	0.118706	-0.277357	-0.341225	109.280293	-72.053842	-42.748808
18784		9.210682	2.790952	-0.960701	0.283221	-0.216830	-0.280896	109.624302	-71.863502	-42.942547
18785		9.392908	2.714791	-1.010551	0.460602	-0.151940	-0.202921	110.005218	-71.727190	-43.068135
18786		9.176332	2.891983	-1.175094	0.561134	-0.064081	-0.114578	110.349364	-71.655745	-43.094592
18787		8.811310	3.142592	-0.863556	0.538622	-0.020802	-0.027163	110.663182	-71.639611	-43.102497
18788		8.716665	3.198557	-0.603462	0.436962	-0.064181	0.045814	111.032316	-71.653913	-43.230249
18789		8.793314	3.192069	-0.577673	0.420355	-0.089766	0.093313	111.464430	-71.687763	-43.434155
18790		9.103732	3.722733	-0.778545	0.430189	-0.115330	0.120734	111.961023	-71.730468	-43.700217
18791		9.255099	4.430813	-1.024373	0.252271	-0.058060	0.143777	112.281399	-71.796964	-43.887765
18792		8.331203	4.726521	-0.835753	-0.073586	0.054844	0.158373	112.242166	-71.895673	-43.893515
18793		7.817380	4.575096	-0.588411	-0.403723	-0.005157	0.151946	112.108057	-71.977888	-43.998172
18794		8.014354	4.168995	-0.849088	-0.640174	-0.057743	0.150765	111.921816	-72.048230	-44.190715
18795		7.955243	3.559871	-0.959551	-0.786969	-0.035284	0.142663	111.610662	-72.119334	-44.339992
18796		7.969229	2.933737	-0.730982	-0.855121	-0.052475	0.135673	111.281904	-72.183219	-44.512068
18797		8.416473	2.275194	-0.911372	-0.873202	-0.060554	0.160077	110.973366	-72.258919	-44.715862
18798		8.886387	1.985435	-1.154565	-0.786580	-0.036163	0.181154	110.684849	-72.351049	-44.888812
18799		8.920686	1.749590	-1.143720	-0.721857	-0.008419	0.185164	110.390386	-72.451326	-45.016197
18800		8.716995	1.506741	-1.097490	-0.681959	0.008638	0.181142	110.084483	-72.552930	-45.107856
18801		8.560950	1.112545	-0.789380	-0.603915	-0.009977	0.181388	109.856236	-72.651244	-45.233675
18802		8.643811	0.850998	-0.709807	-0.353022	-0.063750	0.175521	109.859485	-72.736010	-45.451623
18803		8.477410	0.919647	-0.619156	0.020731	-0.098684	0.177897	110.142437	-72.815041	-45.737824
18804		8.584653	1.275475	-0.748067	0.216930	-0.138354	0.178079	110.608352	-72.885838	-46.098015
18805		8.570403	1.406936	-1.135029	0.305965	-0.125569	0.174204	111.105416	-72.956133	-46.437015
18806		8.200252	1.337258	-0.905940	0.476458	-0.115100	0.158007	111.672890	-73.019271	-46.747624
18807		8.252318	1.203074	-0.609223	0.702656	-0.172670	0.147429	112.467597	-73.063085	-47.159961
18808		8.717799	1.152793	-0.832491	0.887927	-0.230064	0.131314	113.457765	-73.084002	-47.665821
18809		9.052066	1.150230	-1.052406	0.988522	-0.209089	0.114625	114.459651	-73.098178	-48.123399
18810		8.883025	1.152546	-1.048849	1.078691	-0.151098	0.082278	115.388145	-73.107723	-48.450475
18811		8.821558	1.366835	-1.130106	1.159505	-0.168614	0.038064	116.357831	-73.088097	-48.771994
18812		8.984264	1.718312	-1.569901	1.122200	-0.146352	-0.016708	117.219575	-73.045217	-49.003280
18813		8.994184	1.988469	-1.744293	1.104923	-0.105905	-0.053668	117.970402	-72.992855	-49.128796
18814		8.823827	2.305075	-1.856840	1.149755	-0.056629	-0.077185	118.641560	-72.942093	-49.144335
18815		8.294057	2.592187	-1.387965	1.216887	-0.015405	-0.079597	119.280629	-72.900981	-49.085894
18816		7.933225	2.736117	-1.005730	1.156312	-0.060227	-0.066880	119.966998	-72.854208	-49.113409
18817		7.904240	2.556456	-0.975798	1.107111	-0.147892	-0.040040	120.789190	-72.794698	-49.312441
18818		8.143623	2.323924	-1.106299	1.119642	-0.180676	-0.008948	121.695671	-72.740266	-49.592448
18819		8.139363	2.107091	-1.246714	1.147594	-0.163795	0.033725	122.630993	-72.709881	-49.885770
18820		8.055542	1.836321	-1.238523	1.179810	-0.157378	0.083154	123.621713	-72.704234	-50.217995
18821		8.109110	1.672835	-1.230022	1.209339	-0.175079	0.124112	124.699120	-72.710055	-50.623104
18822		8.353342	1.558399	-1.271915	1.226762	-0.183421	0.158472	125.835307	-72.727362	-51.079475
18823		8.533027	1.459580	-1.256299	1.242841	-0.181021	0.188440	127.012431	-72.756057	-51.568826
18824		8.793535	1.518470	-1.237434	1.248294	-0.170460	0.220143	128.215083	-72.800366	-52.081711
18825		9.024499	1.690041	-1.320641	1.236822	-0.149202	0.247492	129.417465	-72.860767	-52.600873
18826		9.130426	1.786120	-1.408296	1.279844	-0.149175	0.275423	130.683308	-72.930719	-53.160634
18827		9.190082	2.015753	-1.409083	1.330350	-0.144746	0.300992	132.011661	-73.008992	-53.755110
18828		9.111761	2.293851	-1.395525	1.306131	-0.129897	0.324324	133.343425	-73.099439	-54.367570
18829		8.983948	2.409076	-1.363379	1.266548	-0.131510	0.344250	134.691787	-73.192609	-55.020593
18830		8.868098	2.495311	-1.361466	1.237958	-0.130223	0.359823	136.053155	-73.288719	-55.704181
18831		8.732164	2.521338	-1.410244	1.228747	-0.124133	0.368070	137.425044	-73.385225	-56.403715
18832		8.513394	2.424209	-1.437371	1.211031	-0.108385	0.364049	138.771369	-73.482768	-57.087047
18833		8.308799	2.310819	-1.455502	1.190421	-0.096472	0.349802	140.082368	-73.574992	-57.745287
18834		8.247101	2.157515	-1.456312	1.203481	-0.095739	0.340751	141.395685	-73.660597	-58.398106
18835		8.433673	2.112522	-1.423398	1.251693	-0.073177	0.343192	142.724590	-73.752347	-59.037827
18836		8.753138	2.422950	-2.117652	1.323154	-0.111637	0.348375	144.157073	-73.824453	-59.742798
18837		8.969444	2.835511	-2.783263	1.331835	-0.063754	0.339408	145.536177	-73.910535	-60.386454
18838		8.504389	2.958331	-2.306703	1.153499	0.095833	0.315310	146.604870	-74.061505	-60.813391
18839		8.170630	2.815901	-1.827125	1.044157	0.063598	0.309420	147.651327	-74.192358	-61.281739
18840		8.287216	3.219872	-0.657377	0.923946	-0.142391	0.320509	148.877116	-74.224111	-62.008187
18841		9.517280	2.967328	-0.967606	0.946740	-0.372817	0.402739	150.498709	-74.160231	-63.132133
18842		12.684066	3.875676	-3.766626	0.961045	-0.872193	0.535902	152.813846	-73.870785	-64.970396
18843		16.836638	5.176996	-4.492240	-0.091793	-0.818655	0.760926	154.810772	-73.646359	-67.107473
18844		15.854808	4.782833	-0.755616	-1.508138	0.267513	0.941765	155.405629	-74.017143	-68.629394
18845		10.415635	1.544952	1.038392	-1.929101	0.608007	0.862451	155.377317	-74.543782	-69.750596
18846		10.344314	1.037754	-0.453030	-1.573479	-0.362794	0.559417	155.831972	-74.491705	-71.160865
18847		14.283995	1.104605	-2.975277	-1.731534	-0.508568	0.197726	155.634086	-74.276754	-71.987893
18848		16.193004	0.787206	-4.705256	-0.998286	-0.150653	-0.073402	155.046726	-74.185739	-71.974949
18849		14.811447	1.870789	-4.543832	-1.071452	0.386201	-0.130754	153.849851	-74.357185	-71.371677
18850		10.726017	0.931355	-4.012430	-1.885277	0.557326	0.102390	152.429779	-74.673469	-71.021986
18851		8.974975	-1.524711	-4.110967	-2.288795	0.200972	0.340741	151.548113	-74.870911	-71.469716
18852		10.690145	-2.661566	-4.091922	-1.661721	-0.313402	0.367812	151.588017	-74.818177	-72.500344
18853		14.838063	-1.633046	-3.723151	-0.773167	-0.541497	0.307199	152.243650	-74.631401	-73.641577
18854		15.759095	-0.134090	-4.212922	-0.434691	-0.016588	0.323246	152.603308	-74.713657	-74.275485
18855		12.211953	0.697884	-3.908675	-0.400632	0.405687	0.352848	152.637636	-75.017138	-74.551214
18856		9.525062	0.431345	-2.759076	-0.409078	0.232894	0.301129	152.743993	-75.219810	-74.906445
18857		8.453143	-0.074083	-2.404276	-0.419040	-0.060667	0.217648	152.980484	-75.249865	-75.401673
18858		8.183639	-0.271855	-2.360446	-0.388293	-0.217558	0.142005	153.241245	-75.180438	-75.904076
18859		8.303818	-0.509139	-2.522177	-0.226934	-0.308845	0.097829	153.593293	-75.051383	-76.405255
18860		8.887704	-0.872758	-2.588689	0.064365	-0.423712	0.141531	154.293764	-74.873873	-77.094938
18861		9.660732	-1.051241	-2.730898	0.426283	-0.517709	0.251111	155.475064	-74.670479	-78.068466
18862		9.724174	-1.079592	-2.813620	0.740717	-0.481858	0.324215	156.916788	-74.497867	-79.126241
18863		9.080239	-0.407406	-2.749784	1.003667	-0.415318	0.314118	158.410226	-74.350301	-80.082009
18864		8.559857	0.749397	-2.871722	1.133625	-0.367106	0.234735	159.770968	-74.206856	-80.823289
18865		8.355901	1.912293	-2.974017	1.151219	-0.319680	0.121025	160.874738	-74.061890	-81.287431
18866		8.431243	2.862358	-2.884447	1.125898	-0.342622	0.029237	161.792571	-73.886242	-81.573613
18867		8.967486	3.717850	-2.475982	0.871542	-0.395381	0.008881	162.544956	-73.676299	-81.839514
18868		9.408582	3.852100	-1.776014	0.348026	-0.384332	0.049946	163.056500	-73.479284	-82.167415
18869		9.686748	3.114799	-1.369605	-0.063100	-0.314127	0.102119	163.380800	-73.328010	-82.545929
18870		9.919528	2.497647	-1.928588	-0.221651	-0.252661	0.130292	163.626592	-73.215302	-82.937794
18871		10.174996	1.920786	-2.657975	-0.243600	-0.237558	0.165775	163.912421	-73.115312	-83.384637
18872		10.044509	1.468460	-3.012670	-0.155861	-0.208968	0.173142	164.242165	-73.032302	-83.825319
18873		9.609266	1.160273	-2.843163	-0.176880	-0.136930	0.168035	164.511835	-72.986821	-84.215664
18874		9.181873	0.661336	-2.788437	-0.292838	-0.092996	0.156618	164.670491	-72.964190	-84.559737
18875		9.004397	0.469949	-2.889765	-0.328748	-0.101801	0.143534	164.789380	-72.933727	-84.883509
18876		9.102247	0.690764	-2.967866	-0.251555	-0.137072	0.140420	164.962325	-72.883784	-85.217895
18877		9.440864	1.288300	-2.907253	-0.204305	-0.175179	0.166509	165.226243	-72.815476	-85.618998
18878		9.729765	1.745119	-2.613622	-0.323783	-0.155009	0.209937	165.486874	-72.764814	-86.088716
18879		9.782130	1.804474	-2.561133	-0.553204	-0.076680	0.250092	165.651169	-72.762119	-86.595004
18880		9.709617	1.681343	-2.438993	-0.698525	-0.018137	0.255607	165.714784	-72.793128	-87.083317
18881		9.466793	1.476889	-2.556944	-0.866537	-0.006263	0.245087	165.659722	-72.828508	-87.547782
18882		9.323270	0.861576	-2.817198	-0.964943	-0.037811	0.217541	165.512706	-72.843427	-87.975284
18883		9.353712	0.275379	-3.091991	-0.920260	-0.083529	0.211155	165.402194	-72.831623	-88.413864
18884		9.299285	-0.213924	-3.160977	-0.857436	-0.081632	0.210449	165.324261	-72.821704	-88.849209
18885		9.244782	-0.635234	-3.146562	-0.797279	-0.078512	0.219784	165.296912	-72.814267	-89.301127
18886		9.344834	-0.933234	-3.346710	-0.668621	-0.085981	0.223919	165.353274	-72.803971	-89.763795
18887		9.545404	-0.976854	-3.275480	-0.452959	-0.055446	0.222036	165.516147	-72.809360	-90.208352
18888		9.453476	-0.818267	-2.783387	-0.264246	-0.016805	0.207497	165.743552	-72.834390	-90.607439
18889		9.381936	-0.647406	-2.814780	-0.103726	-0.019333	0.171026	165.999433	-72.851708	-90.939834
18890		9.353442	-0.302718	-2.771790	0.008734	-0.008705	0.112802	166.210787	-72.867257	-91.158320
18891		9.272481	-0.118032	-2.912239	0.102693	-0.027777	0.076265	166.418420	-72.866270	-91.316422
18892		9.286383	0.309606	-3.164205	0.179089	-0.058828	0.050737	166.637512	-72.845138	-91.440833
18893		9.254823	0.493178	-3.341889	0.073247	-0.064191	0.053760	166.802821	-72.820554	-91.572325
18894		9.270673	0.405699	-3.407269	0.010417	-0.086545	0.075016	166.979958	-72.786843	-91.753996
18895		9.489882	0.578054	-3.453481	-0.014565	-0.107751	0.109983	167.213101	-72.744870	-92.009236
18896		9.615975	0.694624	-3.198680	-0.082499	-0.073283	0.150263	167.465501	-72.727558	-92.325512
18897		9.544062	0.708607	-2.800752	-0.175899	-0.050121	0.175334	167.699224	-72.725245	-92.678218
18898		9.530176	0.631517	-2.820022	-0.251943	-0.047083	0.188819	167.913119	-72.726494	-93.055854
18899		9.489758	0.622094	-2.866721	-0.275042	-0.041908	0.193534	168.119677	-72.730156	-93.439595
18900		9.334435	0.566672	-2.701544	-0.292197	-0.046442	0.193809	168.319403	-72.731538	-93.826535
18901		9.265326	0.428447	-2.781907	-0.355897	-0.055375	0.187566	168.473935	-72.726197	-94.204307
