// General information: 
//  MT Manager version: 2022.2.0 
//  XDA version: 2022.2.0 build 7381 rev 124627 built on 2023-07-19
// Device information: 
//  DeviceId: 00B4BB4D
//  ProductCode: MTW2-3A7G6
//  Firmware Version: 4.6.0
//  Hardware Version: 2.0.0
// Device settings: 
//  Filter Profile: human(46.1)
//  Option Flags: Orientation Smoother Disabled, Position/Velocity Smoother Disabled, Continuous Zero Rotation Update Disabled, AHS Disabled, ICC Disabled
// Coordinate system: ENU
PacketCounter	SampleTimeFine	Acc_X	Acc_Y	Acc_Z	Gyr_X	Gyr_Y	Gyr_Z	Roll	Pitch	Yaw
11250		9.566112	-1.010110	-2.008056	0.114309	0.001228	-0.054170	-152.130029	-77.045223	44.310362
11251		9.520518	-1.009066	-2.035845	0.129620	0.001387	-0.048668	-152.150858	-77.061822	44.405578
11252		9.537970	-1.017127	-2.020206	0.149985	-0.006521	-0.048755	-152.165989	-77.073698	44.507220
11253		9.504314	-0.995903	-2.048176	0.150889	-0.004422	-0.048024	-152.180225	-77.087169	44.608164
11254		9.515695	-0.916519	-2.007397	0.138012	-0.002435	-0.047300	-152.194529	-77.100727	44.701904
11255		9.537482	-0.926952	-1.957834	0.108416	-0.002275	-0.046569	-152.227627	-77.114883	44.797222
11256		9.566928	-0.913198	-1.942656	0.085584	-0.004523	-0.041085	-152.260982	-77.125689	44.879586
11257		9.575457	-0.915161	-1.996381	0.065703	-0.008973	-0.043487	-152.319777	-77.135597	44.976153
11258		9.576367	-0.940780	-2.015843	0.056741	0.001587	-0.039511	-152.359344	-77.149083	45.047980
11259		9.560350	-0.956432	-2.049481	0.048061	-0.000287	-0.045842	-152.423648	-77.163988	45.139820
11260		9.533466	-1.021793	-1.980751	0.044858	0.001796	-0.045845	-152.484297	-77.179215	45.226241
11261		9.530686	-1.044438	-1.912064	0.036777	-0.002120	-0.047440	-152.561133	-77.193564	45.324291
11262		9.505757	-1.026469	-1.872792	0.033210	-0.004211	-0.043501	-152.630520	-77.205080	45.412985
11263		9.539573	-1.013768	-1.824254	0.034229	-0.006773	-0.045098	-152.709308	-77.216389	45.511531
11264		9.563841	-0.967765	-1.824767	0.043978	-0.012150	-0.042765	-152.780347	-77.223627	45.608149
11265		9.596988	-0.955205	-1.898716	0.062664	-0.010717	-0.043595	-152.844277	-77.232478	45.708158
11266		9.563773	-0.961467	-1.947627	0.075982	-0.007672	-0.046004	-152.899348	-77.242814	45.807153
11267		9.550674	-0.922761	-1.908586	0.091857	-0.011027	-0.052394	-152.966988	-77.253754	45.928107
11268		9.562841	-0.898318	-1.909135	0.085848	-0.016128	-0.049255	-153.033789	-77.260588	46.044886
11269		9.583797	-0.878709	-1.841485	0.074174	-0.011104	-0.045292	-153.095867	-77.269584	46.149743
11270		9.566944	-0.866151	-1.856191	0.050501	-0.002827	-0.042071	-153.151728	-77.281312	46.234349
11271		9.525564	-0.867580	-1.850779	0.030542	0.002086	-0.039645	-153.211165	-77.295546	46.310862
11272		9.492420	-0.874157	-1.899146	0.018787	-0.000850	-0.031703	-153.259720	-77.305594	46.369468
11273		9.506902	-0.935681	-1.957651	0.019811	-0.003414	-0.033292	-153.317410	-77.315345	46.437880
11274		9.537675	-0.978398	-1.982394	0.033715	-0.008707	-0.030179	-153.363104	-77.320978	46.502530
11275		9.548158	-1.038110	-1.953672	0.046839	-0.015245	-0.025484	-153.401161	-77.322639	46.566689
11276		9.607796	-1.070100	-1.964348	0.054879	-0.011317	-0.023943	-153.423608	-77.325317	46.619780
11277		9.607868	-1.069101	-1.964539	0.058433	-0.005270	-0.020015	-153.431226	-77.330678	46.659547
11278		9.629634	-1.080007	-1.915252	0.051969	0.003598	-0.017633	-153.423969	-77.339368	46.680491
11279		9.558344	-1.067426	-1.904220	0.050157	0.004912	-0.014470	-153.412096	-77.348526	46.695419
11280		9.586752	-1.026854	-1.869486	0.050943	0.003801	-0.007356	-153.381725	-77.354675	46.691937
11281		9.515288	-1.015050	-1.858887	0.058860	-0.004215	-0.009762	-153.364546	-77.357951	46.706536
11282		9.527082	-0.994619	-1.859061	0.077172	-0.009260	0.002021	-153.312665	-77.355018	46.696439
11283		9.496267	-0.950750	-1.834966	0.079734	-0.009349	-0.002759	-153.273421	-77.353868	46.700683
11284		9.478099	-0.914306	-1.830642	0.082231	-0.013403	0.004343	-153.218105	-77.348243	46.690253
11285		9.448034	-0.899386	-1.826082	0.065056	-0.007665	0.004404	-153.169022	-77.346104	46.675793
11286		9.513318	-0.853814	-1.831986	0.048240	-0.006446	0.010028	-153.112342	-77.342569	46.643788
11287		9.567525	-0.858444	-1.856775	0.031692	-0.002696	0.014856	-153.052886	-77.340252	46.599104
11288		9.583040	-0.842622	-1.944684	0.017570	0.004068	0.020454	-152.977999	-77.339357	46.530553
11289		9.533836	-0.872655	-1.904372	0.012995	0.006908	0.017303	-152.912583	-77.341280	46.468782
11290		9.529359	-0.872375	-1.937881	0.005223	0.005501	0.014981	-152.855687	-77.342529	46.411102
11291		9.533775	-0.875677	-1.903291	-0.002036	0.002809	0.011870	-152.815960	-77.343757	46.366833
11292		9.570161	-0.841424	-1.923459	-0.010847	-0.002362	0.011944	-152.784338	-77.341800	46.325986
11293		9.580532	-0.903461	-1.893659	-0.016625	0.002144	0.008004	-152.762512	-77.343692	46.291497
11294		9.580512	-0.903870	-1.893567	-0.021281	0.003368	0.008026	-152.739106	-77.345662	46.253114
11295		9.586513	-0.963405	-1.897733	-0.024136	0.003262	0.004877	-152.727352	-77.348940	46.224538
11296		9.538126	-1.019921	-1.877287	-0.028281	0.003201	0.004108	-152.717108	-77.351863	46.195356
11297		9.513585	-1.033578	-1.857395	-0.026217	0.004398	0.000134	-152.715963	-77.356962	46.176431
11298		9.489780	-1.075676	-1.857071	-0.031846	-0.002860	0.000188	-152.723767	-77.357852	46.163485
11299		9.502332	-1.082680	-1.877450	-0.017448	-0.009438	0.002501	-152.728418	-77.355285	46.155649
11300		9.552889	-1.111833	-1.956485	-0.006320	-0.006878	-0.001526	-152.730138	-77.354586	46.151634
11301		9.544561	-1.106598	-1.903258	0.006555	-0.003267	0.002347	-152.714164	-77.355202	46.136756
11302		9.536228	-1.101750	-1.849853	0.015868	-0.005715	0.002302	-152.693133	-77.354078	46.122196
11303		9.530879	-1.071656	-1.865070	0.021480	-0.004794	0.003057	-152.668786	-77.353727	46.107500
11304		9.547051	-1.053218	-1.831710	0.020175	-0.011087	0.006249	-152.642619	-77.348833	46.090140
11305		9.583267	-1.019017	-1.852669	0.018885	-0.011045	0.008628	-152.614478	-77.343831	46.070031
11306		9.582981	-1.020307	-1.853436	0.010447	-0.008070	0.012623	-152.575936	-77.338785	46.034178
11307		9.565623	-1.012337	-1.868461	0.003049	-0.001327	0.014226	-152.532819	-77.337241	45.989419
11308		9.528923	-1.048985	-1.848571	-0.003340	-0.003488	0.015063	-152.491294	-77.333883	45.942600
11309		9.512295	-1.069511	-1.882952	-0.008441	-0.005693	0.013518	-152.461533	-77.330294	45.904782
11310		9.499398	-1.063325	-1.863942	-0.007484	-0.003548	0.014295	-152.424190	-77.327109	45.859965
11311		9.499894	-1.093155	-1.883710	-0.008442	-0.005694	0.013517	-152.394474	-77.323510	45.822191
11312		9.483219	-1.113657	-1.918223	-0.011713	-0.005228	0.016698	-152.356152	-77.318803	45.773738
11313		9.482963	-1.114701	-1.918883	-0.009317	-0.006219	0.009567	-152.336506	-77.315979	45.745771
11314		9.549656	-1.126162	-1.964060	0.004659	-0.012240	0.018200	-152.293756	-77.307312	45.702371
11315		9.512038	-1.134258	-1.925647	0.004827	-0.008998	0.011861	-152.264172	-77.302460	45.672523
11316		9.552743	-1.102439	-1.912362	0.015094	-0.009310	0.012587	-152.224599	-77.296752	45.638900
11317		9.588899	-1.068928	-1.933430	0.024828	-0.014674	0.014913	-152.183477	-77.288199	45.608970
11318		9.558719	-1.054127	-1.929457	0.028724	-0.010809	0.015663	-152.131062	-77.280895	45.570073
11319		9.498850	-1.022481	-1.920236	0.028295	-0.007905	0.013280	-152.083676	-77.276197	45.535757
11320		9.515024	-1.005122	-1.886747	0.019861	-0.004921	0.017278	-152.025851	-77.271422	45.485938
11321		9.523647	-1.011099	-1.819252	0.000933	-0.015196	0.019813	-151.988263	-77.261265	45.445593
11322		9.535799	-1.020388	-1.840225	-0.009151	-0.013975	0.021457	-151.948583	-77.250786	45.397516
11323		9.581546	-1.020089	-1.812612	-0.012750	-0.011314	0.027795	-151.896516	-77.240425	45.334284
11324		9.611488	-1.067823	-1.837859	-0.017319	-0.008463	0.024652	-151.847990	-77.231864	45.272279
11325		9.589449	-1.058269	-1.887626	-0.008622	-0.008928	0.019849	-151.808577	-77.224835	45.224444
11326		9.543531	-1.090980	-1.936409	0.000797	-0.003436	0.015813	-151.763509	-77.221196	45.176301
11327		9.548450	-1.122911	-1.921863	0.009823	-0.006091	0.007854	-151.736901	-77.218837	45.152430
11328		9.547605	-1.094964	-1.903330	0.011168	-0.010853	0.003117	-151.722976	-77.214884	45.142638
11329		9.536017	-1.145716	-1.922841	0.015436	-0.005181	0.008600	-151.690424	-77.212778	45.115969
11330		9.564972	-1.134829	-1.908803	0.017501	-0.003987	0.004628	-151.661329	-77.211888	45.094181
11331		9.560899	-1.162521	-1.962377	0.035087	-0.006355	0.006087	-151.624524	-77.209867	45.074696
11332		9.530990	-1.146949	-1.957565	0.040004	-0.005067	0.005251	-151.582379	-77.208237	45.053018
11333		9.501708	-1.160022	-1.971885	0.045937	-0.006352	0.002835	-151.546586	-77.207100	45.040946
11334		9.504797	-1.105828	-1.899761	0.038494	-0.012267	0.006071	-151.512130	-77.201590	45.026384
11335		9.490677	-1.042294	-1.842740	0.026165	-0.013132	0.009329	-151.481448	-77.195260	45.007936
11336		9.532051	-1.039415	-1.848975	0.008864	-0.010564	0.015777	-151.440569	-77.187957	44.968808
11337		9.509460	-1.001036	-1.879361	-0.008857	-0.005089	0.019847	-151.397052	-77.182785	44.916617
11338		9.526856	-1.041073	-1.884471	-0.021509	-0.003755	0.026263	-151.342308	-77.176034	44.845281
11339		9.523134	-1.098462	-1.957534	-0.022895	-0.002997	0.023108	-151.297198	-77.170997	44.783204
11340		9.536551	-1.165244	-2.015790	-0.006246	-0.001185	0.022965	-151.237929	-77.166399	44.716694
11341		9.483100	-1.221673	-2.029289	0.011692	0.000577	0.020443	-151.174630	-77.163864	44.656285
11342		9.475391	-1.246981	-1.994536	0.023055	-0.000713	0.016405	-151.112593	-77.161316	44.603784
11343		9.508774	-1.239328	-1.946239	0.026377	-0.008243	0.019565	-151.053589	-77.154573	44.556408
11344		9.512376	-1.215133	-1.893250	0.032168	-0.006435	0.022666	-150.979582	-77.147348	44.496804
11345		9.559576	-1.104263	-1.876040	0.031891	-0.008962	0.023464	-150.909865	-77.139133	44.441678
11346		9.590210	-1.012688	-1.892809	0.025770	-0.008579	0.023510	-150.840487	-77.130573	44.382615
11347		9.567634	-0.975274	-1.923018	0.023099	-0.007769	0.022736	-150.776099	-77.123130	44.327784
11348		9.586818	-0.933274	-1.958641	0.024706	-0.010017	0.017201	-150.722987	-77.115572	44.285350
11349		9.540231	-0.937603	-1.988001	0.023091	-0.005445	0.014033	-150.674880	-77.111707	44.247213
11350		9.549643	-0.971468	-1.939140	0.007132	-0.005291	0.007068	-150.648297	-77.109387	44.222157
11351		9.532869	-0.991461	-1.973294	-0.011722	-0.002836	0.008014	-150.630099	-77.108507	44.194240
11352		9.546951	-1.026347	-1.890158	-0.037708	0.002584	0.010587	-150.611946	-77.109117	44.151414
11353		9.564521	-1.064727	-1.894726	-0.057076	0.006324	0.012313	-150.599100	-77.111597	44.102329
11354		9.559480	-1.034107	-1.909696	-0.073784	0.009246	0.014800	-150.584272	-77.114356	44.041658
11355		9.547932	-1.084182	-1.928211	-0.082727	0.013537	0.019575	-150.561372	-77.118385	43.967183
11356		9.554925	-1.032539	-1.943650	-0.078599	0.002514	0.018771	-150.548939	-77.116651	43.906124
11357		9.618640	-1.068853	-1.919952	-0.074473	0.002547	0.019510	-150.534982	-77.115206	43.845676
11358		9.655725	-1.062774	-1.959824	-0.073612	0.005402	0.014743	-150.525007	-77.116072	43.789871
11359		9.593443	-1.053931	-1.881269	-0.073948	0.009929	0.009193	-150.524141	-77.121214	43.743160
11360		9.552262	-1.086056	-1.895230	-0.075802	0.007263	0.004459	-150.535534	-77.125893	43.708170
11361		9.473848	-1.124145	-1.870186	-0.071807	0.001684	0.000480	-150.562605	-77.129381	43.691377
11362		9.499012	-1.137704	-1.909851	-0.069379	0.004675	0.001234	-150.580604	-77.133689	43.666702
11363		9.534184	-1.212905	-1.919855	-0.073631	0.002995	0.003616	-150.600251	-77.136952	43.641222
11364		9.509958	-1.254713	-1.920005	-0.072681	0.002764	0.013065	-150.596527	-77.136962	43.592786
11365		9.456477	-1.309190	-1.934150	-0.051818	0.008574	0.021608	-150.557469	-77.137943	43.519910
11366		9.468859	-1.318081	-1.953566	-0.027213	0.006293	0.026985	-150.492893	-77.135748	43.435635
11367		9.497810	-1.308597	-1.938951	-0.010989	0.004666	0.025312	-150.427198	-77.133701	43.359432
11368		9.580117	-1.245565	-1.910408	-0.008230	0.003111	0.031606	-150.345655	-77.128567	43.268668
11369		9.578502	-1.162756	-1.851868	-0.009937	0.006065	0.031612	-150.263969	-77.125383	43.176678
11370		9.565307	-1.129898	-1.812044	-0.002886	0.012521	0.034727	-150.160916	-77.123995	43.067138
11371		9.496425	-1.065565	-1.850099	-0.002884	0.003847	0.024468	-150.093557	-77.121684	42.993988
11372		9.519570	-0.968463	-1.811843	-0.000039	-0.007124	0.026027	-150.032403	-77.112951	42.929024
11373		9.522324	-0.945040	-1.880958	0.002040	-0.005919	0.022071	-149.979741	-77.106446	42.873840
11374		9.525127	-0.921613	-1.949857	0.003191	-0.002887	0.025218	-149.913383	-77.100030	42.805538
11375		9.496037	-0.964138	-1.983766	-0.001972	-0.000357	0.026033	-149.847582	-77.095116	42.734514
11376		9.542089	-0.964607	-1.954792	-0.017920	0.003814	0.026907	-149.781515	-77.091531	42.653892
11377		9.559734	-1.033181	-1.978989	-0.048764	0.004885	0.024702	-149.738883	-77.089562	42.579131
11378		9.581212	-1.046494	-1.930011	-0.068913	0.013723	0.027164	-149.689096	-77.090760	42.485372
11379		9.578404	-1.101685	-1.880641	-0.100751	0.012652	0.024143	-149.667659	-77.092770	42.401797
11380		9.570756	-1.125594	-1.845993	-0.114288	0.019799	0.025755	-149.639197	-77.097355	42.303440
11381		9.521746	-1.181558	-1.825745	-0.124145	0.014905	0.016285	-149.645219	-77.102743	42.234286
11382		9.497063	-1.194621	-1.806301	-0.116017	0.009364	0.013046	-149.658324	-77.105853	42.177510
11383		9.477121	-1.238617	-1.772859	-0.093895	0.000089	0.009760	-149.679815	-77.105808	42.142007
11384		9.502002	-1.252710	-1.813552	-0.066733	-0.008652	0.011204	-149.691403	-77.100557	42.112501
11385		9.519113	-1.291001	-1.820041	-0.040915	-0.005556	0.011130	-149.686724	-77.097327	42.081293
11386		9.492858	-1.276707	-1.903599	-0.017868	-0.003283	0.013435	-149.658658	-77.094082	42.039944
11387		9.546940	-1.280909	-1.928858	0.001352	-0.003207	0.011804	-149.625366	-77.091813	42.004224
11388		9.542299	-1.279803	-1.962767	0.020999	0.004979	0.014145	-149.563057	-77.092450	41.950446
11389		9.500523	-1.285600	-1.956490	0.024527	0.011751	0.012583	-149.495856	-77.097325	41.893561
11390		9.488050	-1.280047	-1.935395	0.020551	0.012601	0.014171	-149.424025	-77.101667	41.829505
11391		9.458182	-1.236354	-1.909327	0.014810	0.010066	0.016540	-149.355927	-77.104526	41.765991
11392		9.486687	-1.170024	-1.854820	0.008603	0.004117	0.017323	-149.294786	-77.103711	41.706518
11393		9.506828	-1.155201	-1.908361	-0.000174	0.000638	0.014184	-149.252369	-77.102588	41.660542
11394		9.506296	-1.128333	-1.888883	-0.002553	-0.003114	0.018904	-149.203617	-77.097696	41.606589
11395		9.542698	-1.066722	-1.889282	-0.006528	-0.002261	0.020493	-149.155043	-77.093277	41.550560
11396		9.517407	-1.053651	-1.850266	-0.010759	-0.001528	0.014204	-149.119127	-77.090545	41.505038
11397		9.554269	-1.019635	-1.870109	-0.015315	0.001370	0.011076	-149.091173	-77.090665	41.464998
11398		9.544957	-0.986652	-1.918782	-0.020845	0.002134	0.007154	-149.071508	-77.091839	41.430306
11399		9.549460	-0.989147	-1.884535	-0.030245	0.005400	0.001676	-149.067077	-77.096703	41.405624
11400		9.520067	-0.971630	-1.878834	-0.034154	0.012595	0.002499	-149.051602	-77.104397	41.367599
11401		9.541726	-0.983155	-1.829742	-0.044274	0.005221	-0.006176	-149.072270	-77.111485	41.360419
11402		9.608428	-0.964026	-1.854405	-0.050062	0.007378	-0.001434	-149.081115	-77.117770	41.338016
11403		9.638379	-1.008588	-1.879210	-0.045004	0.003194	0.000893	-149.089621	-77.121781	41.317931
11404		9.638269	-0.979495	-1.858896	-0.034284	0.018046	-0.000639	-149.074092	-77.133103	41.279459
11405		9.562857	-0.962767	-1.881341	-0.031865	0.017112	-0.007741	-149.075673	-77.146496	41.259995
11406		9.521214	-0.936616	-1.855125	-0.037475	0.018650	-0.017182	-149.096800	-77.162997	41.257589
11407		9.546464	-0.920137	-1.873601	-0.041090	0.012646	-0.021152	-149.138386	-77.178142	41.273736
11408		9.588625	-0.913165	-1.878196	-0.046007	0.006667	-0.022760	-149.192151	-77.190404	41.299667
11409		9.621487	-0.872285	-1.931753	-0.050460	0.004098	-0.022777	-149.253809	-77.201811	41.330891
11410		9.540904	-0.793813	-1.950030	-0.064367	0.009484	-0.025898	-149.321555	-77.216366	41.360312
11411		9.486656	-0.757924	-1.905068	-0.098760	0.012540	-0.036124	-149.429253	-77.235812	41.410364
11412		9.454252	-0.761612	-1.831584	-0.148157	0.010046	-0.040904	-149.577507	-77.255005	41.473187
11413		9.470950	-0.707469	-1.778130	-0.222197	0.004358	-0.048161	-149.793356	-77.273825	41.561602
11414		9.531678	-0.762216	-1.688010	-0.287893	0.004220	-0.049203	-150.048321	-77.292430	41.651501
11415		9.562170	-0.797403	-1.715183	-0.337274	0.007959	-0.047177	-150.324376	-77.312588	41.734031
11416		9.618289	-0.873894	-1.802551	-0.349794	0.003048	-0.044460	-150.606882	-77.329114	41.816020
11417		9.652520	-0.908750	-1.918836	-0.319732	0.002314	-0.043900	-150.873722	-77.345358	41.899396
11418		9.594053	-0.917153	-2.072529	-0.271663	0.009810	-0.054081	-151.125618	-77.367796	41.995776
11419		9.554008	-0.966289	-2.109611	-0.227916	0.010133	-0.066651	-151.382217	-77.394071	42.122551
11420		9.505948	-1.012174	-2.092667	-0.201711	0.011190	-0.069774	-151.629089	-77.421292	42.254866
11421		9.494828	-1.022429	-2.094157	-0.192044	0.012931	-0.073751	-151.879394	-77.450662	42.396224
11422		9.434384	-1.062278	-2.056998	-0.177630	0.017287	-0.069728	-152.106708	-77.480688	42.522605
11423		9.464534	-1.041312	-2.042463	-0.160198	0.012380	-0.067414	-152.326677	-77.507838	42.651547
11424		9.511578	-1.031080	-2.014082	-0.143715	0.005361	-0.065919	-152.541728	-77.530566	42.785214
11425		9.607830	-0.991877	-2.024200	-0.122040	0.000543	-0.062730	-152.744544	-77.550249	42.918956
11426		9.619936	-0.934316	-2.003559	-0.112714	0.005327	-0.068911	-152.950012	-77.573520	43.061011
11427		9.649093	-0.886725	-1.968566	-0.100981	0.000410	-0.072907	-153.165653	-77.595568	43.220218
11428		9.644668	-0.845825	-1.982762	-0.088539	-0.002345	-0.083956	-153.402696	-77.618556	43.408740
11429		9.614312	-0.763966	-1.935904	-0.082863	0.007497	-0.092407	-153.646768	-77.648940	43.607651
11430		9.496898	-0.714216	-1.933140	-0.086146	0.014690	-0.109720	-153.925249	-77.686849	43.839893
11431		9.486057	-0.722588	-1.933464	-0.092719	0.011230	-0.125762	-154.252121	-77.727088	44.117712
11432		9.505083	-0.745933	-1.940122	-0.094668	0.004867	-0.138681	-154.619158	-77.766521	44.435566
11433		9.603955	-0.782081	-2.011993	-0.074188	-0.001957	-0.144241	-154.998629	-77.803682	44.777984
11434		9.737141	-0.838195	-2.056342	-0.053777	-0.010473	-0.146672	-155.382971	-77.836165	45.137411
11435		9.802429	-0.859555	-2.035202	-0.028441	-0.006594	-0.147928	-155.754479	-77.870818	45.498404
11436		9.756525	-0.817931	-2.044039	-0.019155	-0.001739	-0.154104	-156.131704	-77.908600	45.870701
11437		9.665431	-0.894850	-1.955095	-0.013050	0.006876	-0.163399	-156.522307	-77.952872	46.260136
11438		9.576474	-0.914164	-1.911959	-0.015282	0.004307	-0.176275	-156.950779	-77.997761	46.687012
11439		9.492181	-0.936407	-1.835068	-0.020962	0.002927	-0.191566	-157.426230	-78.044974	47.158417
11440		9.448004	-0.918641	-1.863767	-0.027560	0.011233	-0.203459	-157.929653	-78.097982	47.654567
11441		9.401378	-0.929587	-1.825079	-0.016253	0.011082	-0.212996	-158.456381	-78.152373	48.180948
11442		9.448939	-0.901284	-1.917265	-0.005688	0.003284	-0.220375	-159.007303	-78.202754	48.738237
11443		9.575776	-0.863131	-1.931748	0.012768	-0.003027	-0.225243	-159.572067	-78.249982	49.320261
11444		9.672366	-0.808564	-1.940195	0.025070	0.004472	-0.229032	-160.135938	-78.300458	49.908580
11445		9.743203	-0.741553	-1.908265	0.027746	0.007036	-0.234675	-160.716865	-78.352563	50.515660
11446		9.767768	-0.675594	-1.905250	0.025477	0.009871	-0.242777	-161.321973	-78.406081	51.146095
11447		9.777737	-0.575480	-1.860974	0.020871	0.016852	-0.250017	-161.949918	-78.463689	51.796912
11448		9.644866	-0.540129	-1.769676	0.002128	0.022499	-0.259876	-162.615417	-78.524273	52.475067
11449		9.491752	-0.517969	-1.746999	-0.015356	0.028158	-0.272146	-163.328061	-78.588732	53.190841
11450		9.357941	-0.532254	-1.731327	-0.031182	0.021977	-0.283141	-164.091441	-78.649395	53.949068
11451		9.208639	-0.563618	-1.751527	-0.033134	0.012477	-0.302100	-164.924944	-78.705949	54.777408
11452		9.171053	-0.569216	-1.766669	-0.020376	0.012429	-0.306237	-165.769451	-78.760374	55.624373
11453		9.183418	-0.569771	-1.840881	-0.003662	0.002814	-0.310589	-166.632530	-78.807882	56.499772
11454		9.234539	-0.478816	-1.945617	0.024238	-0.003765	-0.318752	-167.512554	-78.849859	57.408718
11455		9.292054	-0.367610	-1.961666	0.055984	-0.004640	-0.329163	-168.412701	-78.890153	58.356467
11456		9.334987	-0.193035	-2.004278	0.083444	-0.011203	-0.345465	-169.352429	-78.925303	59.360576
11457		9.371733	0.037752	-2.006343	0.096925	-0.025629	-0.363823	-170.352125	-78.951203	60.433438
11458		9.447527	0.329656	-1.939119	0.067310	-0.037126	-0.389927	-171.452754	-78.968872	61.591881
11459		9.604221	0.589693	-1.958155	0.007436	-0.038807	-0.413755	-172.662571	-78.983307	62.826438
11460		9.778406	0.708484	-1.924390	-0.074405	-0.019773	-0.438175	-173.986453	-79.004676	64.129445
11461		9.842218	0.833200	-1.960132	-0.153434	0.006771	-0.469801	-175.448088	-79.037102	65.526437
11462		9.888807	0.921780	-2.081653	-0.235161	0.044704	-0.511140	-177.080038	-79.085282	67.049081
11463		9.774942	0.876160	-2.208928	-0.331083	0.089876	-0.560980	-178.926457	-79.151817	68.733790
11464		9.724419	0.884190	-2.212066	-0.449548	0.133540	-0.617500	178.967352	-79.232077	70.613493
11465		9.728121	0.812625	-2.034086	-0.573496	0.193618	-0.666340	176.604024	-79.332152	72.682009
11466		9.720934	0.732768	-1.588447	-0.643739	0.226795	-0.691468	174.074965	-79.433169	74.877542
11467		9.862627	0.648719	-1.251934	-0.648962	0.201370	-0.715349	171.439902	-79.500007	77.177219
11468		10.171652	0.565626	-1.134648	-0.606203	0.177277	-0.730739	168.769811	-79.531904	79.537083
11469		10.513715	0.538593	-1.454055	-0.531118	0.212693	-0.759093	166.020557	-79.560019	82.020946
11470		10.436935	0.430779	-1.533502	-0.429432	0.245597	-0.816256	163.120814	-79.575108	84.716901
11471		10.504718	0.892192	-1.760016	-0.377295	0.252002	-0.896201	160.008972	-79.553810	87.658909
11472		10.403641	1.195078	-2.033460	-0.489200	0.357303	-0.944010	156.588864	-79.547894	90.849313
11473		9.864108	1.138176	-1.561341	-0.463650	0.334751	-0.965181	153.170913	-79.490849	94.052728
11474		9.571251	1.012299	-1.157296	-0.477142	0.236866	-0.949862	149.981543	-79.354897	97.016756
11475		9.523805	0.725440	-1.085306	-0.440654	0.131458	-0.919920	147.145500	-79.148209	99.644096
11476		9.685865	0.494244	-1.216613	-0.342366	0.081627	-0.912353	144.574861	-78.897223	102.060466
11477		9.804367	0.263289	-1.416834	-0.240872	0.087250	-0.913020	142.164592	-78.629062	104.374772
11478		9.739897	0.063842	-1.391868	-0.126807	0.150159	-0.900165	139.845579	-78.375016	106.664782
11479		9.570416	-0.083885	-1.146126	0.038915	0.173758	-0.872127	137.735053	-78.124441	108.840891
11480		9.465191	-0.027929	-1.295961	0.176595	0.175883	-0.836215	135.858626	-77.873528	110.860362
11481		9.360495	0.209193	-1.521581	0.223955	0.179695	-0.797796	134.151849	-77.626776	112.735847
11482		9.353066	0.429066	-1.675522	0.205279	0.156644	-0.758793	132.617633	-77.376092	114.425479
11483		9.433005	0.646061	-1.613923	0.195031	0.149901	-0.728442	131.203221	-77.126396	115.987845
11484		9.553326	0.842854	-1.703694	0.183581	0.115384	-0.697580	129.954540	-76.869442	117.375065
11485		9.774797	1.163491	-2.002506	0.144111	0.078228	-0.671420	128.842556	-76.604066	118.599986
11486		10.019703	1.499170	-2.039262	0.047266	0.099548	-0.651905	127.711012	-76.349742	119.789405
11487		10.074853	1.834791	-1.661316	-0.045401	0.147734	-0.638558	126.496885	-76.112369	121.010298
11488		10.017149	2.081500	-1.169987	-0.093700	0.209132	-0.606527	125.225876	-75.904404	122.262609
11489		9.501426	1.799961	-0.502162	-0.063012	0.210155	-0.571400	124.050206	-75.706739	123.435688
11490		9.269922	2.004027	-0.504729	-0.115957	0.147307	-0.533208	123.040946	-75.502186	124.406819
11491		9.402907	2.246581	-1.089797	-0.351360	0.154092	-0.485095	121.967409	-75.318394	125.305725
11492		9.372187	2.262707	-1.171937	-0.481294	0.188392	-0.445948	120.825287	-75.159886	126.199378
11493		9.474790	2.258830	-0.936140	-0.517704	0.164569	-0.405422	119.770472	-75.009959	126.981623
11494		9.844791	2.576289	-1.085602	-0.588418	0.135900	-0.357776	118.796407	-74.872516	127.638911
11495		9.952657	2.669607	-1.058077	-0.710717	0.172313	-0.305074	117.750760	-74.768309	128.298043
11496		9.760435	2.716148	-0.855213	-0.726846	0.208403	-0.267598	116.676335	-74.689717	128.977793
11497		9.403821	2.647717	-0.563532	-0.704794	0.210056	-0.254198	115.631952	-74.614896	129.639663
11498		9.147519	2.742993	-0.502842	-0.706488	0.182898	-0.251521	114.648782	-74.531996	130.237330
11499		9.042326	2.714659	-0.483295	-0.755387	0.180049	-0.241472	113.659446	-74.450725	130.812503
11500		8.890457	2.589139	-0.442112	-0.796621	0.189292	-0.236583	112.641343	-74.371644	131.393263
11501		8.120224	0.074262	-0.361553	-0.897025	0.184578	-0.427627	111.438994	-74.186864	132.106015
11502		8.928307	2.129438	-1.425799	-0.012037	0.066187	-0.502402	110.930684	-73.935064	132.625103
11503		8.856925	3.345554	0.797404	-0.049421	-0.330627	-0.190624	111.363143	-73.767451	132.143006
11504		9.831854	1.358679	-1.712928	-0.351222	0.048179	-0.387521	110.788140	-73.573078	132.530080
11505		9.168407	3.111574	0.157829	0.412059	-0.067733	-0.133527	111.041349	-73.490341	132.509833
11506		9.254056	2.346860	-0.584209	0.233643	-0.032874	-0.180569	111.096047	-73.389945	132.590019
11507		9.365285	2.288579	-0.814227	0.551187	0.114620	-0.258662	111.016299	-73.277822	133.000518
11508		8.881372	3.193230	-0.050062	0.568243	0.106784	-0.200732	111.002236	-73.195335	133.352814
11509		8.973343	3.167449	-0.323226	0.445940	0.127568	-0.177213	110.899357	-73.129230	133.724848
11510		8.978159	3.467603	-0.389845	0.308559	0.204827	-0.153944	110.598364	-73.091216	134.221706
11511		8.922587	3.391801	-0.546101	0.100929	0.264197	-0.132526	110.089827	-73.075196	134.811283
11512		8.721971	3.142625	-0.448708	0.076250	0.237204	-0.114368	109.626706	-73.062509	135.338555
11513		8.915305	3.022884	-0.282121	0.020659	0.199581	-0.119495	109.196978	-73.038437	135.797767
11514		9.045351	2.627038	-0.341872	0.219202	0.170894	-0.143479	108.917564	-72.995399	136.218712
11515		9.065361	2.987463	-0.483395	0.315988	0.172952	-0.167691	108.678296	-72.938836	136.655905
11516		8.795846	3.261113	-0.609658	0.073544	0.198677	-0.142281	108.270716	-72.900239	137.123819
11517		8.716813	2.782550	-0.596567	0.188054	0.038924	-0.144702	108.212519	-72.830907	137.295064
11518		9.139404	2.984391	-0.440420	0.580145	-0.035219	-0.210831	108.469815	-72.712503	137.371121
11519		9.169659	3.319627	-0.598734	0.602734	0.094300	-0.253940	108.490566	-72.594078	137.708769
11520		8.825210	3.485230	-0.781967	0.624973	0.091709	-0.279621	108.514579	-72.461406	138.056398
11521		8.596004	3.732762	-0.809551	0.585911	0.041293	-0.244651	108.626140	-72.338513	138.289134
11522		8.552513	3.643251	-0.577984	0.539412	0.002162	-0.220997	108.790277	-72.221487	138.438653
11523		8.637787	3.756118	-0.491357	0.678816	-0.030183	-0.213370	109.094201	-72.102711	138.525538
11524		8.426552	4.021833	-0.549794	0.531475	-0.049626	-0.173343	109.366496	-72.002025	138.556745
11525		8.479960	4.070287	-0.554223	0.229123	-0.095738	-0.069443	109.603578	-71.948719	138.443062
11526		8.540220	4.135230	-0.551648	0.062480	-0.169924	0.038706	109.929236	-71.939042	138.135488
11527		8.802040	3.877551	-0.804124	-0.090473	-0.237295	0.119897	110.329412	-71.959290	137.657658
11528		9.179643	5.935183	0.105071	-0.578778	-0.082683	0.266412	110.283609	-72.088321	137.354445
11529		9.227456	9.543440	1.355125	-2.819784	0.155381	0.919768	108.947940	-72.617105	137.058249
11530		7.335012	-2.040168	-3.287398	-2.896643	-0.018887	0.828717	107.789853	-73.066171	136.530451
11531		8.965291	1.014303	-1.059732	1.132866	-0.462465	0.167154	109.351192	-73.075019	135.574472
11532		9.013768	4.826319	0.564071	0.024231	-0.154627	0.253848	109.785303	-73.184547	135.132592
11533		8.297393	2.314740	-1.098969	-0.218964	-0.269919	0.359997	110.364943	-73.327731	134.393876
11534		8.639397	3.433957	-0.551253	0.135668	-0.343337	0.431113	111.338770	-73.490724	133.456070
11535		8.555816	3.370159	-0.504091	-0.029225	-0.316814	0.512703	112.251937	-73.698723	132.484300
11536		8.499736	3.154212	-0.504466	0.021304	-0.374775	0.593658	113.384209	-73.931234	131.315205
11537		8.694303	3.061853	-0.498985	0.059637	-0.461707	0.672269	114.800974	-74.177647	129.874900
11538		9.372822	2.818634	-0.784161	0.083331	-0.529806	0.754367	116.471929	-74.438413	128.186036
11539		9.981113	2.529315	-1.129466	0.118706	-0.513706	0.805354	118.243459	-74.715936	126.416513
11540		10.379750	2.311911	-1.295051	0.180927	-0.496727	0.817179	120.091424	-74.988742	124.606612
11541		10.649911	2.353246	-1.219347	0.242309	-0.484498	0.762213	121.958593	-75.223037	122.815825
11542		10.911939	2.429051	-1.338210	0.360848	-0.526539	0.682456	123.925373	-75.390057	120.993484
11543		11.249448	2.749122	-1.503418	0.529209	-0.529283	0.597204	125.928951	-75.500265	119.234377
11544		11.229950	3.466242	-1.729165	0.660004	-0.447018	0.512119	127.768638	-75.584612	117.722233
11545		10.769376	4.188578	-1.554580	0.615941	-0.378467	0.438218	129.382013	-75.649126	116.418611
11546		10.405505	4.540816	-1.116720	0.356792	-0.355305	0.386339	130.738366	-75.690741	115.226840
11547		10.553643	4.573157	-1.010858	0.057926	-0.331748	0.359662	131.855392	-75.723655	114.106013
11548		10.669098	4.359956	-1.047984	-0.167587	-0.217195	0.345626	132.630703	-75.789815	113.204119
11549		10.618326	4.020283	-1.114930	-0.409391	-0.130846	0.345416	133.137378	-75.887405	112.437277
11550		10.646275	3.210812	-1.213289	-0.679823	-0.114460	0.361980	133.489881	-75.996528	111.669363
11551		10.732000	2.162845	-1.527966	-0.848654	-0.086401	0.390475	133.759816	-76.127942	110.887878
11552		10.870190	1.186986	-2.083651	-0.830364	-0.090458	0.434349	134.121988	-76.274430	110.022032
11553		11.060591	0.568009	-2.599508	-0.602640	-0.216573	0.482559	134.927591	-76.388190	108.835232
11554		10.931917	0.226361	-2.610848	-0.375702	-0.219954	0.495283	135.900919	-76.501050	107.609625
11555		10.006072	-0.089788	-2.039228	-0.418053	-0.147446	0.444857	136.666877	-76.619845	106.573469
11556		8.858605	-0.729360	-1.842354	-0.524811	-0.156043	0.392554	137.301547	-76.711495	105.609292
11557		8.424323	-1.217396	-2.025056	-0.488974	-0.237890	0.349613	138.029039	-76.749388	104.571636
11558		8.669417	-1.366670	-1.910091	-0.378081	-0.299500	0.350883	138.920456	-76.757980	103.430484
11559		9.076543	-1.559368	-2.159085	-0.156370	-0.332957	0.414765	140.116967	-76.770954	102.106925
11560		9.158295	-1.587979	-2.417975	0.166039	-0.320274	0.495025	141.629980	-76.811609	100.647777
11561		9.014752	-1.515737	-2.352608	0.411462	-0.286121	0.575432	143.404304	-76.886033	99.065410
11562		9.012750	-1.435757	-2.482749	0.573588	-0.276816	0.619071	145.361623	-76.967932	97.390760
11563		9.158711	-1.147438	-2.642069	0.719614	-0.275399	0.646092	147.481686	-77.045180	95.635779
11564		9.365708	-0.647582	-2.838198	0.867211	-0.267098	0.637775	149.676809	-77.109522	93.890855
11565		9.460678	-0.040334	-2.834953	0.892835	-0.222898	0.610021	151.791797	-77.173015	92.243828
11566		9.423845	0.331545	-2.649222	0.795984	-0.198573	0.565140	153.737605	-77.224543	90.713628
11567		9.369658	0.388825	-2.511210	0.664026	-0.206601	0.509014	155.500547	-77.246682	89.293760
11568		9.369874	0.292950	-2.469048	0.558749	-0.210265	0.447876	157.067666	-77.244102	88.012779
11569		9.247236	0.233598	-2.506289	0.481263	-0.223381	0.394364	158.476243	-77.215202	86.848857
11570		9.267893	0.026175	-2.581001	0.440574	-0.245227	0.365048	159.804479	-77.162882	85.743161
11571		9.301464	-0.163267	-2.618662	0.438474	-0.233138	0.362978	161.106878	-77.110683	84.662575
11572		9.204792	-0.355432	-2.414158	0.422150	-0.174566	0.374377	162.372462	-77.087390	83.609963
11573		9.104945	-0.520951	-2.179676	0.414219	-0.117920	0.399067	163.647984	-77.093698	82.542491
11574		9.157039	-0.594266	-2.148801	0.445943	-0.099890	0.438668	165.026684	-77.110920	81.387874
11575		9.387528	-0.521675	-2.231252	0.460134	-0.087406	0.491352	166.536802	-77.135626	80.106881
11576		9.500892	-0.514400	-2.319052	0.442280	-0.076970	0.534120	168.141854	-77.164136	78.718201
11577		9.571778	-0.590353	-2.534695	0.450030	-0.058401	0.568449	169.832711	-77.197592	77.246208
11578		9.482675	-0.697227	-2.581019	0.459234	-0.049303	0.562416	171.518841	-77.226337	75.784727
11579		9.461828	-0.718385	-2.715312	0.439026	-0.054031	0.541354	173.146315	-77.241087	74.371568
11580		9.461300	-0.584279	-2.865766	0.414641	-0.033361	0.490149	174.630176	-77.256296	73.091523
11581		9.288652	-0.383104	-2.815978	0.370323	-0.031090	0.429096	175.934396	-77.262767	71.969561
11582		9.173720	-0.199812	-2.730231	0.323735	-0.062955	0.366449	177.060512	-77.243785	71.002949
11583		9.227905	-0.025596	-2.718199	0.286032	-0.108714	0.320563	178.047571	-77.193353	70.156502
11584		9.366289	0.149476	-2.833566	0.263396	-0.143941	0.277998	178.911580	-77.119221	69.422906
11585		9.539384	0.340623	-2.992301	0.236508	-0.150080	0.249480	179.677748	-77.038923	68.773505
11586		9.531698	0.504584	-3.050143	0.145795	-0.118146	0.212047	-179.706691	-76.975238	68.225298
11587		9.362201	0.497854	-2.902458	0.000108	-0.079962	0.184394	-179.249177	-76.932362	67.753365
11588		9.352583	0.371744	-2.744546	-0.130797	-0.053973	0.169967	-178.901825	-76.903752	67.317609
11589		9.383741	0.181407	-2.691278	-0.175096	-0.063779	0.168611	-178.587475	-76.868985	66.889471
11590		9.491282	0.066126	-2.696853	-0.158660	-0.070544	0.173655	-178.252037	-76.829652	66.449430
11591		9.704175	0.449731	-2.402642	-0.149128	-0.026690	0.195440	-177.858039	-76.814435	65.954659
11592		9.431107	-0.193582	-2.368528	-0.247057	0.025097	0.192835	-177.520185	-76.828114	65.460059
11593		9.212940	-0.888081	-2.778888	-0.064067	0.022257	0.109331	-177.283008	-76.841864	65.176420
11594		9.319533	-0.994741	-2.868582	-0.008194	-0.051110	0.075614	-177.103182	-76.814210	64.984703
11595		8.976089	-1.407474	-2.959663	0.106663	-0.145955	0.095560	-176.824329	-76.731640	64.758668
11596		9.235033	-1.461590	-2.551846	0.221583	-0.234323	0.129373	-176.412439	-76.596873	64.463665
11597		9.670798	-1.412403	-2.182219	0.278633	-0.185891	0.171245	-175.869572	-76.487821	64.067259
11598		9.653507	-1.141199	-2.005955	0.355741	-0.087870	0.163843	-175.286399	-76.433965	63.674929
11599		9.604599	-0.944156	-2.200316	0.399991	-0.046804	0.134534	-174.744647	-76.404340	63.350998
11600		9.566249	-0.890411	-2.326570	0.530383	-0.072093	0.110900	-174.188812	-76.360653	63.089646
11601		9.519693	-0.680066	-2.240432	0.636493	-0.135596	0.104344	-173.609223	-76.280803	62.866100
11602		9.522087	-0.517504	-2.263349	0.594535	-0.130393	0.116032	-173.026726	-76.202379	62.614999
11603		9.489408	-0.389157	-2.442148	0.455293	-0.079129	0.145669	-172.447856	-76.150574	62.285140
11604		9.551132	-0.277145	-2.763381	0.304493	-0.054083	0.169225	-171.893536	-76.110135	61.891774
11605		9.558663	-0.169711	-2.825673	0.233153	-0.041477	0.183761	-171.348194	-76.074966	61.465215
11606		9.544583	-0.055054	-2.440445	0.196424	-0.041225	0.185886	-170.818550	-76.038512	61.033347
11607		9.622950	-0.035622	-2.206735	0.145413	-0.014218	0.183081	-170.319402	-76.016938	60.602466
11608		9.622955	-0.055802	-2.206291	0.077832	0.022404	0.185124	-169.838252	-76.014663	60.150460
11609		9.600378	-0.117538	-2.291268	-0.013637	0.045272	0.200013	-169.368996	-76.023114	59.656456
11610		9.612647	-0.277928	-2.356428	-0.046992	0.057901	0.209955	-168.887673	-76.036332	59.130588
11611		9.528738	-0.282544	-2.403923	-0.006226	0.047614	0.214946	-168.378126	-76.042389	58.599486
11612		9.409040	-0.379616	-2.331324	0.025607	0.036428	0.204046	-167.877480	-76.042046	58.096588
11613		9.423663	-0.461542	-2.302814	0.080784	0.014174	0.187424	-167.396297	-76.030536	57.646079
11614		9.495098	-0.517147	-2.336519	0.139026	0.013781	0.171617	-166.915815	-76.019616	57.230884
11615		9.563769	-0.516202	-2.416014	0.171348	0.024702	0.154371	-166.452598	-76.016532	56.852327
11616		9.552679	-0.556391	-2.412107	0.182872	0.038664	0.141673	-166.001256	-76.021917	56.493037
11617		9.497660	-0.546230	-2.447951	0.208755	0.015543	0.134459	-165.566428	-76.015111	56.165823
11618		9.466276	-0.576775	-2.547227	0.287120	-0.004476	0.131731	-165.102664	-75.996669	55.855264
11619		9.367106	-0.464237	-2.496655	0.358079	-0.009088	0.129547	-164.609183	-75.975696	55.555733
11620		9.345888	-0.364581	-2.427871	0.420830	-0.012075	0.118610	-164.104749	-75.953797	55.282160
11621		9.387491	-0.243328	-2.476858	0.439481	-0.026007	0.108302	-163.624564	-75.925643	55.044356
11622		9.466968	-0.139357	-2.413563	0.427264	-0.038781	0.098868	-163.179771	-75.891208	54.835997
11623		9.540962	-0.087625	-2.425148	0.410927	-0.029389	0.092632	-162.755167	-75.862930	54.638570
11624		9.517367	-0.120979	-2.405993	0.409869	-0.017037	0.082854	-162.343337	-75.842390	54.453857
11625		9.465438	-0.251000	-2.458034	0.420391	-0.019304	0.075545	-161.945468	-75.821925	54.289557
11626		9.488305	-0.311004	-2.519381	0.442037	-0.027073	0.079680	-161.531099	-75.795865	54.121183
11627		9.513003	-0.397838	-2.511369	0.423199	-0.010651	0.084032	-161.108871	-75.777962	53.933383
11628		9.490340	-0.488374	-2.526742	0.400094	0.019087	0.092785	-160.658480	-75.773818	53.703019
11629		9.479524	-0.557927	-2.540054	0.391499	0.042424	0.103301	-160.174432	-75.780141	53.432697
11630		9.486715	-0.580179	-2.499213	0.397368	0.057689	0.118702	-159.640828	-75.790695	53.114881
11631		9.552037	-0.640218	-2.558790	0.416050	0.049631	0.131690	-159.076132	-75.793921	52.775896
11632		9.664850	-0.670221	-2.572371	0.450362	0.063697	0.146550	-158.447542	-75.800332	52.391426
11633		9.647303	-0.629997	-2.538232	0.489153	0.086056	0.153922	-157.762860	-75.816352	51.971905
11634		9.605470	-0.552103	-2.532323	0.494925	0.090994	0.169582	-157.035613	-75.829877	51.512049
11635		9.539459	-0.436538	-2.556098	0.493364	0.099539	0.181528	-156.276508	-75.844117	51.018314
11636		9.455978	-0.255245	-2.557833	0.494247	0.107994	0.200473	-155.467800	-75.856286	50.474086
11637		9.421227	-0.041304	-2.516014	0.456351	0.125197	0.213134	-154.637715	-75.872831	49.885345
11638		9.399300	0.076693	-2.549123	0.403239	0.134247	0.225026	-153.802721	-75.888592	49.260290
11639		9.389824	0.127614	-2.638317	0.360389	0.139883	0.231825	-152.971506	-75.903676	48.613775
11640		9.452232	0.165769	-2.739881	0.338074	0.159221	0.234402	-152.125883	-75.925216	47.939324
11641		9.374267	0.207124	-2.743976	0.315091	0.178958	0.235408	-151.267487	-75.954385	47.238156
11642		9.338530	0.253617	-2.754386	0.280765	0.194440	0.236205	-150.407174	-75.988138	46.514845
11643		9.350125	0.215932	-2.790623	0.228661	0.190925	0.239770	-149.569501	-76.016903	45.784191
11644		9.432924	0.225456	-2.805080	0.176466	0.171558	0.239770	-148.782968	-76.033261	45.075455
11645		9.455417	0.159937	-2.792788	0.129463	0.159317	0.243409	-148.028404	-76.040616	44.371983
11646		9.490155	0.146243	-2.764782	0.086497	0.173905	0.244717	-147.278822	-76.052049	43.648229
11647		9.440274	0.025140	-2.614879	0.031768	0.203725	0.241422	-146.526138	-76.076886	42.889104
11648		9.332430	-0.007649	-2.506235	-0.032604	0.212950	0.233442	-145.813345	-76.105992	42.133050
11649		9.312861	-0.030341	-2.377809	-0.126175	0.202231	0.221578	-145.185781	-76.132079	41.409772
11650		9.303900	-0.088130	-2.287401	-0.222572	0.192999	0.203339	-144.660802	-76.157811	40.735191
11651		9.250587	-0.196918	-2.139502	-0.295365	0.172997	0.185794	-144.233051	-76.179000	40.118013
11652		9.198542	-0.221865	-2.029467	-0.367796	0.143665	0.159590	-143.938148	-76.194216	39.594765
11653		9.223469	-0.236436	-1.970058	-0.444723	0.108621	0.127904	-143.791349	-76.203675	39.178851
11654		9.259625	-0.255265	-1.933303	-0.520572	0.080412	0.087075	-143.806942	-76.213611	38.885204
11655		9.271009	-0.347182	-2.002089	-0.576988	0.058530	0.038888	-143.972251	-76.229984	38.712658
11656		9.322650	-0.422582	-1.992348	-0.623422	0.045383	-0.024159	-144.305557	-76.261456	38.685456
11657		9.367003	-0.607162	-2.092078	-0.649908	0.048504	-0.081924	-144.757275	-76.313775	38.764766
11658		9.404114	-0.801769	-2.068914	-0.580374	0.090522	-0.158196	-145.266103	-76.410604	38.943553
11659		9.333980	-0.840357	-2.020903	-0.461088	0.100655	-0.239758	-145.854432	-76.538364	39.274579
11660		9.288896	-0.861382	-1.993974	-0.350034	0.071843	-0.318279	-146.588465	-76.676399	39.820341
11661		9.300761	-0.993928	-1.948688	-0.263573	0.052004	-0.410377	-147.497504	-76.831908	40.596718
11662		9.317893	-1.116892	-1.783475	-0.234262	0.032582	-0.508614	-148.646776	-77.004384	41.636185
11663		9.589035	-1.296034	-1.802290	-0.238376	0.022333	-0.608212	-150.052714	-77.195776	42.936046
11664		10.014022	-1.381546	-1.910166	-0.182161	0.025220	-0.704641	-151.684365	-77.407578	44.499002
11665		10.263419	-1.270957	-2.014634	-0.089067	0.016007	-0.793509	-153.528988	-77.627820	46.333650
11666		10.374464	-0.929299	-1.895199	-0.031046	-0.040613	-0.892022	-155.709328	-77.828646	48.544168
11667		10.663804	-0.697008	-1.619718	0.110992	-0.029211	-0.999803	-158.131831	-78.040961	51.084049
11668		10.792666	-0.549341	-0.947403	0.309705	0.133748	-1.107077	-160.659673	-78.338911	53.845243
11669		10.613573	-0.476471	-0.180407	0.390532	0.275367	-1.193169	-163.389122	-78.703415	56.856339
11670		10.508869	-0.319548	-0.080068	0.337098	0.263561	-1.236796	-166.470255	-79.036794	60.190775
11671		10.685524	-0.122917	-0.479798	0.142808	0.207786	-1.247180	-169.909563	-79.303276	63.773367
11672		10.964588	0.025532	-1.039025	-0.096732	0.210090	-1.235218	-173.618549	-79.527361	67.487573
11673		11.043014	-0.012677	-1.239458	-0.346677	0.265354	-1.199421	-177.491962	-79.736109	71.220965
11674		10.760765	-0.396154	-1.358249	-0.572521	0.355621	-1.152747	178.503561	-79.949435	74.953353
11675		10.394995	-0.852328	-1.432309	-0.678531	0.391742	-1.116959	174.399785	-80.137931	78.722779
11676		9.937098	-1.381366	-1.420113	-0.749495	0.324306	-1.070745	170.307791	-80.244248	82.437120
11677		9.812184	-2.048678	-1.814556	-0.919581	0.163075	-0.994198	166.429513	-80.224997	85.835424
11678		10.166768	-2.529271	-2.081020	-1.079239	0.047907	-0.908917	162.866199	-80.117318	88.821760
11679		10.808562	-2.859393	-1.992201	-1.086913	0.030650	-0.781910	159.787771	-79.994603	91.312536
11680		11.224772	-3.040927	-1.827884	-0.943749	0.093840	-0.631568	157.230037	-79.915838	93.358548
11681		10.982107	-3.007348	-1.650195	-0.737226	0.166826	-0.494821	155.129421	-79.892867	95.060817
11682		10.294438	-2.828826	-1.686260	-0.522194	0.163829	-0.423946	153.370422	-79.875764	96.541369
11683		9.675457	-2.378321	-1.754817	-0.318716	0.077195	-0.377145	151.996230	-79.819951	97.749565
11684		9.259191	-1.928211	-1.923752	-0.153554	-0.051102	-0.323832	151.077616	-79.709752	98.591407
11685		9.043981	-1.716977	-2.062557	0.028399	-0.174079	-0.236968	150.703959	-79.560593	98.985466
11686		8.861452	-1.710073	-2.268168	0.243362	-0.305917	-0.123822	150.965980	-79.376995	98.858623
11687		8.824232	-1.748869	-2.399858	0.430885	-0.439351	0.005448	151.856660	-79.161489	98.201024
11688		8.897093	-1.750591	-2.288851	0.470616	-0.549236	0.152857	153.274938	-78.926601	97.028980
11689		9.047266	-1.696155	-1.966093	0.331789	-0.623541	0.302932	155.036225	-78.684784	95.424986
11690		9.248528	-1.578019	-1.215712	0.063090	-0.627313	0.435095	156.923175	-78.462038	93.534747
11691		9.401855	-1.335583	-0.710540	-0.176725	-0.538818	0.506973	158.692577	-78.289980	91.622582
11692		9.439360	-0.890987	-0.435397	-0.320831	-0.314799	0.512047	160.137463	-78.228454	89.957096
11693		8.977536	-0.202147	-0.399513	-0.404409	-0.119666	0.459514	161.205608	-78.255009	88.627035
11694		8.303535	0.180063	-0.871428	-0.518739	-0.135321	0.426411	162.144634	-78.262482	87.362408
11695		8.092844	0.162817	-1.729737	-0.761742	-0.244506	0.430856	163.038295	-78.206772	86.001410
11696		8.184366	-0.082178	-2.146991	-0.863773	-0.315547	0.451487	163.975015	-78.111085	84.536697
11697		8.359659	-0.089092	-1.795904	-0.868131	-0.273089	0.473184	164.911486	-78.037163	83.068844
11698		8.148111	-0.081049	-1.864967	-1.046704	-0.219183	0.484721	165.731589	-77.990209	81.615435
11699		8.260998	-0.414079	-2.488189	-1.053818	-0.313967	0.465822	166.541102	-77.883605	80.167866
11700		9.421080	-0.118660	-3.013213	-0.600052	-0.559851	0.458453	167.712146	-77.633462	78.615857
11701		10.721945	0.804784	-3.202291	-0.059087	-0.709125	0.459592	169.203893	-77.292122	77.050645
11702		11.392448	1.776086	-2.362319	0.159786	-0.528665	0.374681	170.463186	-77.035766	75.851073
11703		10.666340	1.622637	-0.541507	-0.031163	-0.015070	0.196344	170.934300	-77.049493	75.346969
11704		9.944790	0.948415	1.128689	-0.342796	0.265911	0.030140	170.711610	-77.206595	75.371976
11705		9.908812	-0.185368	0.310813	-0.676425	0.240470	-0.043959	170.112811	-77.342322	75.586174
11706		10.030004	-1.483015	-1.500964	-1.131233	0.165348	-0.016104	169.353643	-77.438076	75.697948
11707		9.939106	-2.209347	-2.571796	-1.188316	0.233803	0.048327	168.680240	-77.578938	75.687959
11708		9.735225	-2.783850	-2.932797	-0.569899	0.262287	0.163028	168.643005	-77.748876	75.389889
11709		9.746566	-3.331860	-3.039192	0.395641	0.206077	0.416786	169.855642	-77.913508	74.378926
11710		9.371022	-3.702185	-3.062754	1.182817	0.062658	0.689497	172.345812	-78.014235	72.523880
11711		8.728237	-3.829646	-3.441162	1.712638	-0.207352	0.862167	175.695083	-77.951547	70.100493
11712		8.735703	-3.275961	-3.664100	2.144465	-0.478773	0.881520	179.329718	-77.703195	67.637502
11713		9.382980	-1.806838	-3.706950	2.423943	-0.568019	0.733474	-177.400989	-77.374568	65.709330
11714		9.987123	0.345264	-3.309593	2.588450	-0.516563	0.500957	-174.731776	-77.063036	64.491414
11715		10.260147	2.372659	-2.259023	2.532108	-0.337554	0.270083	-172.703230	-76.857611	63.896010
11716		10.172836	3.950763	-1.273842	2.255796	-0.181010	0.119930	-171.169292	-76.748543	63.646311
11717		10.056749	4.985629	-0.949999	1.579756	-0.088818	0.091799	-170.073706	-76.693416	63.448264
11718		9.835799	4.812398	-1.270197	0.573619	-0.027840	0.157887	-169.368912	-76.664895	63.059903
11719		9.971463	3.360512	-1.640381	-0.316319	0.022290	0.226242	-168.997010	-76.656715	62.489064
11720		9.812809	1.932144	-2.280334	-0.757207	0.130353	0.249310	-168.766986	-76.705846	61.804885
11721		9.509657	1.040495	-2.411733	-0.887554	0.203207	0.237372	-168.605831	-76.796919	61.114526
11722		9.262424	0.324582	-2.309600	-0.813954	0.199263	0.196853	-168.491786	-76.889801	60.516458
11723		9.300591	-0.198544	-1.962460	-0.679362	0.196874	0.144956	-168.426569	-76.987284	60.047565
11724		9.426891	-0.473441	-1.848892	-0.480269	0.193138	0.091706	-168.370894	-77.088481	59.706032
11725		9.324396	-0.395079	-1.861838	-0.276902	0.140315	0.048702	-168.332342	-77.165160	59.501384
11726		9.349645	-0.297699	-1.957062	-0.142798	0.025517	0.011045	-168.363286	-77.181576	59.447171
11727		9.572524	-0.269082	-2.068794	-0.035554	-0.061182	-0.018663	-168.453954	-77.152962	59.516911
11728		9.684965	-0.294291	-2.117397	-0.031869	-0.089025	-0.034852	-168.591784	-77.110342	59.637517
11729		9.740402	-0.589745	-2.180924	-0.023946	-0.110530	-0.038901	-168.748569	-77.056211	59.781937
11730		9.783889	-0.770962	-2.198453	0.042239	-0.114078	-0.042954	-168.873924	-77.000280	59.933365
11731		9.783390	-0.658803	-2.091671	0.016870	-0.053620	-0.036606	-168.972537	-76.977754	60.042137
11732		9.661536	-0.594803	-2.066137	-0.150695	0.008927	-0.035720	-169.131326	-76.990089	60.114454
11733		9.566105	-0.785819	-2.150113	-0.222202	0.075824	-0.026554	-169.281886	-77.039218	60.135952
11734		9.357960	-0.949260	-2.188671	-0.166806	0.107033	-0.016476	-169.358007	-77.104669	60.113960
11735		9.139991	-1.028817	-2.111821	-0.053501	0.078079	-0.013375	-169.379186	-77.153661	60.101882
11736		9.207457	-1.060756	-2.176357	0.075471	0.001362	0.001727	-169.320456	-77.157674	60.083974
11737		9.473008	-0.948560	-2.199472	0.157096	-0.047714	0.012986	-169.214365	-77.133035	60.065120
11738		9.533488	-0.794206	-2.270380	0.186443	-0.041624	0.020507	-169.065943	-77.110806	60.020441
11739		9.601645	-0.643233	-2.132711	0.201756	-0.064960	0.016933	-168.933385	-77.076016	60.000682
11740		9.658208	-0.514281	-2.085189	0.282432	-0.080869	0.003132	-168.791991	-77.033597	60.019640
11741		9.634431	-0.100512	-1.965771	0.301564	-0.077958	-0.018491	-168.695666	-76.995446	60.095745
11742		9.564005	0.144956	-2.116749	0.197231	-0.071353	-0.030372	-168.680368	-76.962171	60.194024
11743		9.607861	0.285190	-2.138760	0.074005	-0.056158	-0.022761	-168.713965	-76.936762	60.269677
11744		9.617312	0.337954	-2.034791	-0.060069	-0.019592	-0.014188	-168.781717	-76.930757	60.301872
11745		9.637953	0.304743	-1.953952	-0.176160	-0.000354	0.009539	-168.853386	-76.933089	60.269470
11746		9.686978	0.175521	-1.971962	-0.286752	0.022637	0.020960	-168.945957	-76.946953	60.193791
11747		9.665546	0.026628	-2.081133	-0.385398	0.066897	0.029175	-169.057997	-76.984986	60.079777
11748		9.494593	-0.183094	-2.113855	-0.425125	0.051608	0.029947	-169.194470	-77.014263	59.967787
11749		9.505445	-0.480263	-2.193744	-0.431014	0.017293	0.029215	-169.355808	-77.024490	59.877568
11750		9.539842	-0.680033	-2.291164	-0.436293	0.012129	0.035810	-169.502844	-77.031041	59.769859
11751		9.504165	-0.927155	-2.505940	-0.368485	-0.001999	0.041527	-169.607077	-77.029218	59.657808
11752		9.518441	-1.067220	-2.403437	-0.263598	-0.011309	0.043765	-169.646234	-77.021796	59.540943
11753		9.464386	-1.041738	-2.270121	-0.190074	-0.003213	0.045845	-169.638301	-77.018882	59.418682
11754		9.517783	-1.042379	-2.211636	-0.114887	-0.003556	0.042865	-169.590886	-77.015892	59.300426
11755		9.524307	-0.940382	-2.149015	-0.035640	0.013840	0.042232	-169.495640	-77.022914	59.179366
11756		9.442893	-0.742437	-2.075879	0.039744	-0.000591	0.031540	-169.385787	-77.022694	59.087970
11757		9.462179	-0.564853	-2.113972	0.053574	-0.021338	0.021600	-169.305893	-77.012001	59.035122
11758		9.477522	-0.437508	-2.228264	0.006096	-0.012052	0.013906	-169.263687	-77.007153	58.993363
11759		9.550416	-0.365303	-2.235505	-0.032035	-0.009146	0.009831	-169.256028	-77.004561	58.964305
11760		9.582764	-0.409270	-2.176532	-0.023712	-0.005360	0.005011	-169.249563	-77.004421	58.941697
11761		9.540961	-0.280915	-2.119627	-0.042693	0.003589	0.008105	-169.246322	-77.009181	58.910907
11762		9.577957	-0.324325	-2.202677	-0.119012	-0.008933	0.014468	-169.273085	-77.006024	58.866359
11763		9.574714	-0.376325	-2.191294	-0.114342	-0.005313	0.016915	-169.293529	-77.004838	58.817746
11764		9.529309	-0.408635	-2.151317	-0.101291	0.005111	0.020330	-169.289406	-77.008967	58.751915
11765		9.507833	-0.451678	-2.152395	-0.134160	-0.000730	0.015716	-169.322000	-77.010493	58.704118
11766		9.533975	-0.515247	-2.236825	-0.174976	-0.009951	0.011832	-169.387779	-77.007055	58.666698
11767		9.593657	-0.624262	-2.173899	-0.174893	0.004958	0.003538	-169.470867	-77.013088	58.646770
11768		9.571239	-0.637406	-2.153648	-0.134653	0.018373	-0.004552	-169.540674	-77.027333	58.637197
11769		9.551836	-0.597272	-2.145697	-0.101127	-0.005231	-0.016598	-169.635384	-77.029722	58.672568
11770		9.532060	-0.557087	-2.139298	-0.056646	-0.020607	-0.023560	-169.724516	-77.023950	58.728695
11771		9.530546	-0.526027	-2.120389	-0.031393	-0.021926	-0.036851	-169.836199	-77.018957	58.822488
11772		9.497115	-0.559840	-2.102413	-0.058676	-0.004868	-0.042953	-169.966959	-77.023964	58.920143
11773		9.485108	-0.680919	-2.222226	-0.072016	-0.002524	-0.047521	-170.119656	-77.030881	59.032137
11774		9.474263	-0.804678	-2.253986	-0.046103	-0.000836	-0.046988	-170.251558	-77.038446	59.138354
11775		9.503669	-0.787272	-2.240753	-0.003579	-0.003458	-0.042025	-170.352199	-77.044191	59.237162
11776		9.514396	-0.761961	-2.241090	0.030936	-0.018434	-0.035129	-170.418240	-77.040587	59.321097
11777		9.520824	-0.763408	-2.208538	0.056200	-0.012043	-0.039999	-170.483265	-77.041232	59.418504
11778		9.449464	-0.753876	-2.194520	0.085807	-0.011851	-0.043629	-170.535906	-77.042104	59.520959
11779		9.493197	-0.798709	-2.244251	0.106392	-0.010833	-0.047927	-170.591178	-77.044134	59.637865
11780		9.502814	-0.747701	-2.221944	0.144497	0.003435	-0.048660	-170.616306	-77.054074	59.746598
11781		9.521628	-0.647945	-2.178200	0.188518	-0.017053	-0.054362	-170.642975	-77.053157	59.882435
11782		9.591814	-0.544175	-2.252181	0.201475	-0.035696	-0.050687	-170.656219	-77.041142	60.012480
11783		9.591425	-0.436304	-2.224349	0.224609	-0.026069	-0.049172	-170.652940	-77.034632	60.138812
11784		9.553965	-0.393495	-2.142706	0.254274	-0.017402	-0.042227	-170.607617	-77.032180	60.239809
11785		9.510220	-0.265021	-2.174198	0.242362	-0.015961	-0.043770	-170.576764	-77.030909	60.348286
11786		9.482029	-0.280605	-2.100724	0.193558	-0.020530	-0.031913	-170.542209	-77.025755	60.424635
11787		9.525256	-0.220948	-2.122418	0.127416	-0.024632	-0.022016	-170.527336	-77.017558	60.481930
11788		9.550177	-0.259974	-2.185643	0.080021	-0.009435	-0.018101	-170.519448	-77.017390	60.518883
11789		9.604100	-0.259579	-2.126271	0.093777	-0.013019	-0.014506	-170.500676	-77.015052	60.552400
11790		9.593260	-0.173840	-2.098544	0.077468	-0.003141	-0.013818	-170.481231	-77.018046	60.575988
11791		9.613385	-0.237072	-2.214348	0.052215	0.007580	-0.013710	-170.475870	-77.027276	60.598827
11792		9.577791	-0.138441	-2.232199	0.061074	0.008416	-0.016295	-170.467238	-77.037043	60.623865
11793		9.570070	-0.188575	-2.163935	0.043158	0.010086	-0.017481	-170.475324	-77.048047	60.655177
11794		9.509656	-0.266904	-2.176436	0.027308	0.009742	-0.016357	-170.485790	-77.058572	60.679947
11795		9.549591	-0.338824	-2.190895	0.024246	-0.004129	-0.020844	-170.518902	-77.061857	60.725817
11796		9.513919	-0.429151	-2.158075	0.047272	-0.012364	-0.016799	-170.528190	-77.059927	60.761113
11797		9.524244	-0.487907	-2.078845	0.077543	-0.022067	-0.024276	-170.546553	-77.053392	60.823183
11798		9.514846	-0.536813	-2.100964	0.095932	-0.019105	-0.031056	-170.565726	-77.048992	60.897230
11799		9.533186	-0.544851	-2.088774	0.097337	-0.013468	-0.028496	-170.579551	-77.047704	60.966283
11800		9.537124	-0.518933	-2.122637	0.090363	0.000706	-0.028674	-170.587940	-77.054277	61.025993
11801		9.533269	-0.462443	-2.168660	0.115436	0.010051	-0.028149	-170.581011	-77.066248	61.084388
11802		9.608562	-0.336119	-2.187846	0.121135	0.014234	-0.021724	-170.549200	-77.079820	61.120938
11803		9.551847	-0.282622	-2.205713	0.107159	0.009305	-0.017567	-170.521308	-77.090384	61.152954
11804		9.572943	-0.239179	-2.205325	0.141098	-0.003705	-0.026126	-170.496352	-77.094244	61.208265
11805		9.583402	-0.217857	-2.205490	0.153404	-0.003998	-0.026505	-170.469494	-77.098144	61.268524
11806		9.517049	-0.186526	-2.136933	0.139014	-0.003436	-0.025393	-170.443902	-77.102101	61.321950
11807		9.507542	-0.208721	-2.049913	0.113501	-0.026902	-0.023108	-170.441033	-77.092746	61.383364
11808		9.588127	-0.274509	-2.073036	0.092615	-0.017611	-0.019092	-170.432410	-77.088108	61.426921
11809		9.552317	-0.285137	-2.120786	0.067722	-0.005963	-0.016497	-170.430746	-77.089956	61.462664
11810		9.533766	-0.276145	-2.134161	0.038952	0.001642	-0.014714	-170.434136	-77.095786	61.486997
11811		9.496731	-0.258373	-2.160582	0.028159	0.001175	-0.011215	-170.439171	-77.101164	61.506355
11812		9.488589	-0.227610	-2.174394	0.012480	-0.006657	0.000280	-170.424261	-77.100881	61.496349
11813		9.500314	-0.233982	-2.195743	0.009462	-0.012721	0.004220	-170.407716	-77.096937	61.482579
11814		9.588571	-0.222749	-2.177766	0.012036	-0.008149	0.013979	-170.359982	-77.094498	61.438631
11815		9.590020	-0.252432	-2.197888	-0.012590	0.009176	0.021610	-170.304022	-77.101244	61.371463
11816		9.538698	-0.284154	-2.189533	-0.009662	0.005164	0.028681	-170.226895	-77.104878	61.284603
11817		9.510795	-0.299470	-2.115004	-0.006896	-0.013998	0.025617	-170.167577	-77.098115	61.217338
11818		9.559378	-0.325161	-2.110448	0.001648	-0.019967	0.027632	-170.097406	-77.087623	61.144256
11819		9.520619	-0.282273	-2.117556	-0.000429	0.006346	0.022003	-170.034636	-77.092663	61.077247
11820		9.536403	-0.236926	-2.063071	-0.023195	0.011280	0.024371	-169.973295	-77.100095	60.998618
11821		9.577440	-0.231687	-2.069872	-0.036924	0.003105	0.034985	-169.900766	-77.101974	60.900149
11822		9.564264	-0.228666	-2.136958	-0.058235	0.008963	0.037327	-169.828543	-77.106758	60.789757
11823		9.584374	-0.267446	-2.142897	-0.099275	0.015206	0.042603	-169.767505	-77.114633	60.666432
11824		9.547793	-0.332162	-2.086395	-0.102266	0.023950	0.038066	-169.711877	-77.127740	60.547186
11825		9.566776	-0.342670	-2.070672	-0.090790	0.033505	0.041262	-169.640734	-77.146010	60.418495
11826		9.531639	-0.354994	-2.115022	-0.099122	0.026666	0.040412	-169.575884	-77.160348	60.291651
11827		9.588845	-0.411274	-2.093712	-0.095423	0.017505	0.046448	-169.501402	-77.168995	60.156827
11828		9.561213	-0.455056	-2.126499	-0.090723	0.005802	0.050764	-169.415438	-77.170424	60.013268
11829		9.562451	-0.486239	-2.146728	-0.066426	0.004842	0.054160	-169.310974	-77.171033	59.864737
11830		9.531858	-0.475499	-2.139411	-0.064894	0.004088	0.057302	-169.194823	-77.170683	59.705396
11831		9.575210	-0.500385	-2.078868	-0.062475	0.007192	0.058132	-169.077149	-77.172055	59.545639
11832		9.572416	-0.449013	-2.037690	-0.061994	0.005911	0.057249	-168.958583	-77.172591	59.385527
11833		9.490342	-0.495023	-2.131617	-0.057537	-0.000791	0.052063	-168.856906	-77.170002	59.245079
11834		9.462015	-0.538966	-2.166903	-0.065757	-0.026523	0.040873	-168.796817	-77.154010	59.142724
11835		9.511315	-0.592398	-2.184472	-0.064128	-0.030830	0.031802	-168.763802	-77.136728	59.068815
11836		9.507967	-0.646946	-2.173041	-0.052988	-0.000422	0.030181	-168.710212	-77.136557	58.980622
11837		9.494598	-0.615363	-2.132353	-0.026252	-0.001346	0.028738	-168.648696	-77.136155	58.899736
11838		9.542017	-0.613695	-2.105906	-0.008478	0.003322	0.029310	-168.569853	-77.138138	58.811803
11839		9.537823	-0.641422	-2.071787	0.003829	0.004705	0.025861	-168.495143	-77.141415	58.735062
11840		9.533631	-0.669250	-2.037548	0.036489	0.002737	0.021842	-168.409098	-77.143875	58.666175
11841		9.528023	-0.696733	-2.092159	0.067899	-0.017690	0.016386	-168.332259	-77.135630	58.624904
11842		9.551287	-0.711512	-2.134520	0.114408	-0.023788	0.009457	-168.245465	-77.124608	58.601043
11843		9.516815	-0.616848	-2.066960	0.135777	-0.016022	0.008376	-168.148698	-77.118209	58.579222
11844		9.538889	-0.604551	-2.088690	0.144555	-0.025897	0.010189	-168.044078	-77.105902	58.554795
11845		9.559731	-0.564682	-2.090170	0.139961	-0.017561	0.012121	-167.936682	-77.098177	58.524528
11846		9.555571	-0.513249	-2.138576	0.139286	-0.020554	0.016810	-167.816314	-77.088050	58.480849
11847		9.535196	-0.481244	-2.133691	0.155317	-0.039541	0.017341	-167.699215	-77.067356	58.449651
11848		9.611210	-0.468564	-2.096700	0.149300	-0.026236	0.012198	-167.587680	-77.054578	58.420914
11849		9.548945	-0.415447	-2.063215	0.124269	-0.009222	0.023784	-167.456798	-77.050020	58.357317
11850		9.564642	-0.400994	-2.118021	0.083614	-0.005505	0.019315	-167.354617	-77.047926	58.299557
11851		9.551251	-0.399157	-2.185598	0.062404	-0.001205	0.024829	-167.252351	-77.047662	58.228950
11852		9.527365	-0.390515	-2.144858	0.066834	-0.007948	0.019667	-167.160372	-77.044116	58.171789
11853		9.570701	-0.414263	-2.084739	0.078863	-0.004457	0.019418	-167.063647	-77.042675	58.116543
11854		9.573480	-0.364969	-2.099013	0.073669	-0.006851	0.017865	-166.971628	-77.039936	58.063354
11855		9.524523	-0.344165	-2.105588	0.038127	-0.004912	0.018907	-166.899776	-77.038269	58.009681
11856		9.506902	-0.365352	-2.139902	-0.005980	-0.015394	0.014222	-166.867166	-77.031215	57.970619
11857		9.501074	-0.391498	-2.194992	-0.029821	-0.009208	0.009435	-166.859667	-77.028369	57.943030
11858		9.497792	-0.444218	-2.182149	-0.020487	-0.014481	0.003387	-166.861193	-77.023232	57.930463
11859		9.546322	-0.467572	-2.177050	-0.034951	-0.005725	0.000823	-166.875532	-77.023451	57.922268
11860		9.507348	-0.530439	-2.210419	-0.014629	-0.006072	0.005871	-166.862977	-77.022682	57.898692
11861		9.516616	-0.481259	-2.192095	0.014293	-0.023589	0.010989	-166.834603	-77.011608	57.875619
11862		9.525604	-0.432703	-2.174940	0.002118	-0.031299	0.015133	-166.804410	-76.995547	57.843786
11863		9.566469	-0.535425	-2.123803	-0.011540	-0.035179	0.021842	-166.771319	-76.976582	57.800676
11864		9.529403	-0.627436	-2.091565	-0.006309	-0.026931	0.016295	-166.740866	-76.962798	57.763614
11865		9.503172	-0.697302	-2.059301	0.005744	-0.028189	0.013495	-166.714181	-76.948819	57.737240
11866		9.563088	-0.728854	-2.076008	0.036986	-0.023941	0.011103	-166.669818	-76.937380	57.711362
11867		9.580030	-0.712017	-2.044120	0.073959	-0.015506	0.015086	-166.593135	-76.930250	57.673782
11868		9.557527	-0.651241	-2.105810	0.080864	-0.006566	0.021554	-166.488684	-76.927090	57.612028
11869		9.580171	-0.559674	-2.208998	0.051435	-0.005883	0.032083	-166.378707	-76.923005	57.527018
11870		9.596890	-0.574127	-2.283115	0.067365	0.011111	0.037698	-166.233038	-76.927439	57.415009
11871		9.557565	-0.448409	-2.140343	0.103336	0.007811	0.035695	-166.076643	-76.930384	57.312876
11872		9.515426	-0.432556	-2.112145	0.082254	-0.003723	0.036793	-165.933370	-76.926561	57.212082
11873		9.524969	-0.387737	-2.092844	0.056974	-0.005917	0.042310	-165.795963	-76.920836	57.102170
11874		9.501129	-0.380346	-2.052368	0.030442	-0.006452	0.047118	-165.659585	-76.913936	56.977969
11875		9.481239	-0.348761	-2.047002	0.014488	-0.021438	0.056849	-165.521618	-76.897406	56.842482
11876		9.552602	-0.390732	-2.084521	-0.025473	-0.037481	0.060061	-165.406141	-76.871315	56.706823
11877		9.553590	-0.452132	-2.127188	-0.060826	-0.016952	0.064900	-165.290155	-76.855976	56.549574
11878		9.574061	-0.492549	-2.047375	-0.079461	-0.008332	0.061665	-165.184440	-76.845685	56.392151
11879		9.554462	-0.516299	-2.169334	-0.111331	0.004351	0.050907	-165.117618	-76.844075	56.255661
11880		9.545170	-0.596181	-2.209037	-0.126352	0.006572	0.040936	-165.078701	-76.845007	56.139239
11881		9.569420	-0.745719	-2.208184	-0.099631	0.004867	0.032816	-165.047706	-76.846306	56.046426
11882		9.571888	-0.830766	-2.268341	-0.071474	0.010491	0.024091	-165.014725	-76.851864	55.968392
11883		9.491465	-0.901000	-2.292919	-0.031119	0.006770	0.016364	-164.982187	-76.856633	55.914308
11884		9.483702	-0.979441	-2.245065	0.000108	-0.010858	0.016534	-164.939575	-76.851467	55.868509
11885		9.464749	-1.080037	-2.197835	0.044175	-0.022619	0.005260	-164.908930	-76.841616	55.860670
11886		9.475909	-1.088096	-2.219833	0.117308	-0.027709	-0.004299	-164.859193	-76.830216	55.876523
11887		9.450389	-1.129730	-2.077446	0.188566	-0.023513	-0.014422	-164.792974	-76.822819	55.917113
11888		9.495186	-1.101522	-2.119722	0.258632	-0.036950	-0.023535	-164.713560	-76.809212	55.985662
11889		9.573464	-1.036716	-2.183331	0.307757	-0.028096	-0.029926	-164.618576	-76.801657	56.066855
11890		9.574760	-0.990433	-2.284689	0.366958	-0.018812	-0.029583	-164.479540	-76.799043	56.137930
11891		9.587903	-0.893761	-2.278818	0.416472	-0.025876	-0.032719	-164.327466	-76.793229	56.224465
11892		9.526524	-0.841369	-2.243611	0.460057	-0.021316	-0.037978	-164.156418	-76.790623	56.317458
11893		9.530291	-0.824679	-2.276997	0.472430	-0.033070	-0.032919	-163.977647	-76.780993	56.409508
11894		9.491194	-0.758014	-2.264490	0.443565	-0.028623	-0.025156	-163.790880	-76.772455	56.476656
11895		9.495838	-0.710343	-2.191659	0.430569	-0.027260	-0.012360	-163.584181	-76.762851	56.515384
11896		9.485912	-0.631249	-2.168161	0.431549	-0.034046	-0.002627	-163.355622	-76.747774	56.532534
11897		9.469044	-0.551720	-2.179443	0.426933	-0.032276	0.011473	-163.099289	-76.731549	56.518132
11898		9.519349	-0.504785	-2.170757	0.397752	-0.029517	0.014678	-162.847242	-76.716090	56.491252
11899		9.546440	-0.443175	-2.121800	0.367220	-0.022778	0.020490	-162.598034	-76.703499	56.449015
11900		9.568637	-0.438099	-2.142993	0.324921	0.002413	0.023849	-162.343882	-76.703859	56.377085
11901		9.515161	-0.417111	-2.094361	0.299677	0.006844	0.028792	-162.092756	-76.705892	56.293112
11902		9.519146	-0.403389	-2.128327	0.277155	0.000937	0.029625	-161.853828	-76.704292	56.208695
11903		9.548353	-0.398391	-2.115459	0.249652	-0.004023	0.034791	-161.625758	-76.699174	56.118960
11904		9.552810	-0.414194	-2.169246	0.232256	-0.013163	0.044323	-161.389854	-76.687096	56.011203
11905		9.589992	-0.469506	-2.160413	0.219315	-0.016318	0.059274	-161.132960	-76.670627	55.873976
11906		9.590122	-0.509343	-2.178876	0.175228	-0.009771	0.070251	-160.868610	-76.655340	55.703382
11907		9.556088	-0.555763	-2.154845	0.151481	-0.006731	0.076208	-160.605317	-76.640567	55.519615
11908		9.577514	-0.626387	-2.088850	0.117402	0.003624	0.087528	-160.325083	-76.628841	55.298615
11909		9.592826	-0.623176	-2.143252	0.095453	0.013433	0.098218	-160.028464	-76.620247	55.047578
11910		9.556212	-0.648469	-2.186797	0.083257	0.018031	0.110814	-159.704104	-76.611153	54.761086
11911		9.514822	-0.666923	-2.176219	0.074346	0.019810	0.116834	-159.373005	-76.601606	54.462155
11912		9.562794	-0.703741	-2.166736	0.071965	0.008755	0.120175	-159.042992	-76.584879	54.163170
11913		9.622647	-0.778269	-2.195722	0.075344	0.007627	0.122340	-158.710699	-76.566885	53.863561
11914		9.581506	-0.826789	-2.203025	0.091381	0.027777	0.116459	-158.362715	-76.560270	53.557495
11915		9.534880	-0.807984	-2.119595	0.105428	0.027451	0.105223	-158.034948	-76.555643	53.280240
11916		9.515394	-0.752931	-2.094127	0.116184	0.029958	0.100543	-157.706701	-76.552795	53.009065
11917		9.502931	-0.697481	-2.034590	0.122770	0.033884	0.092076	-157.392562	-76.553721	52.756032
11918		9.472336	-0.633036	-1.988641	0.116808	0.039783	0.085084	-157.089170	-76.558805	52.510777
11919		9.521905	-0.534997	-2.028626	0.085064	0.048458	0.082697	-156.803416	-76.568898	52.264728
11920		9.521925	-0.484805	-1.987253	0.050429	0.068158	0.078767	-156.524451	-76.589784	52.005499
11921		9.504433	-0.454491	-1.975991	0.005540	0.086349	0.065826	-156.283789	-76.623100	51.759008
11922		9.469330	-0.444219	-1.995343	-0.033383	0.095531	0.066213	-156.052005	-76.660734	51.498973
11923		9.535480	-0.460089	-2.033769	-0.060786	0.108425	0.060312	-155.837187	-76.706430	51.240067
11924		9.544541	-0.493904	-2.006893	-0.085033	0.124054	0.056571	-155.624975	-76.760788	50.969820
11925		9.549338	-0.578180	-1.961191	-0.103046	0.124277	0.051047	-155.435448	-76.816517	50.712133
11926		9.572859	-0.729489	-1.937564	-0.099736	0.118287	0.050860	-155.246554	-76.868827	50.457290
11927		9.564639	-0.842665	-1.978118	-0.084334	0.124354	0.048340	-155.048531	-76.924853	50.202002
11928		9.533882	-0.998915	-2.014212	-0.064330	0.129203	0.045625	-154.835926	-76.983702	49.943754
11929		9.449442	-1.093594	-1.986486	-0.041867	0.135570	0.046781	-154.601026	-77.045486	49.675712
11930		9.381621	-1.174457	-2.014788	-0.038578	0.126320	0.041083	-154.382557	-77.103502	49.426711
11931		9.354055	-1.190694	-2.016277	-0.060150	0.114165	0.044576	-154.181952	-77.154324	49.183227
11932		9.349263	-1.193326	-2.041517	-0.098169	0.092175	0.052913	-154.004655	-77.191380	48.941536
11933		9.403681	-1.228937	-2.080728	-0.130612	0.068047	0.068145	-153.839362	-77.212190	48.692932
11934		9.510482	-1.201924	-2.025871	-0.150515	0.049811	0.077914	-153.680916	-77.220813	48.439862
11935		9.569375	-1.180340	-1.998781	-0.158820	0.040098	0.083858	-153.526718	-77.222970	48.186083
11936		9.621647	-1.129332	-1.987511	-0.172928	0.050795	0.089837	-153.352622	-77.228718	47.903811
11937		9.603324	-1.096862	-1.980191	-0.175910	0.058593	0.094549	-153.162755	-77.237243	47.603430
11938		9.597509	-1.065718	-1.904287	-0.193719	0.064626	0.093519	-152.975862	-77.248691	47.295843
11939		9.549979	-1.045713	-1.908464	-0.213990	0.067597	0.091782	-152.802889	-77.262104	46.990440
11940		9.491659	-1.069611	-1.841924	-0.233345	0.061572	0.089228	-152.651024	-77.272715	46.695517
11941		9.491784	-1.073518	-1.839004	-0.248116	0.054318	0.086457	-152.524290	-77.280423	46.417497
11942		9.479972	-1.069273	-1.816868	-0.254391	0.049758	0.084112	-152.409275	-77.286092	46.148009
11943		9.498359	-1.139463	-1.838303	-0.255091	0.041368	0.079970	-152.316021	-77.288710	45.900225
11944		9.546348	-1.225792	-1.866470	-0.246274	0.037859	0.077064	-152.226037	-77.290019	45.661172
11945		9.546259	-1.257916	-1.884744	-0.221863	0.030921	0.079201	-152.127795	-77.287373	45.427793
11946		9.569688	-1.276107	-1.924067	-0.195389	0.036327	0.067025	-152.032957	-77.290419	45.213654
11947		9.575919	-1.338101	-1.926842	-0.171861	0.030450	0.062140	-151.944889	-77.291957	45.020075
11948		9.605179	-1.328288	-1.913541	-0.147817	0.023293	0.056481	-151.861883	-77.291104	44.846014
11949		9.575650	-1.367602	-1.857179	-0.136168	0.020688	0.051264	-151.789417	-77.290533	44.689393
11950		9.545877	-1.381991	-1.869777	-0.120805	0.022683	0.041201	-151.725806	-77.293409	44.551085
11951		9.474646	-1.371757	-1.856231	-0.097888	0.018841	0.031697	-151.677370	-77.297146	44.441583
11952		9.468930	-1.424937	-1.839969	-0.060341	0.009366	0.026502	-151.627916	-77.297242	44.353309
11953		9.421323	-1.429268	-1.867150	-0.030093	-0.001230	0.015200	-151.601742	-77.295319	44.306448
11954		9.473961	-1.375547	-1.856922	0.007946	-0.010454	0.017952	-151.556183	-77.287724	44.262280
11955		9.485380	-1.384718	-1.877877	0.026255	-0.014659	0.011813	-151.521590	-77.279948	44.239882
11956		9.567810	-1.376855	-1.892654	0.045333	-0.009714	0.012034	-151.466936	-77.274322	44.208355
11957		9.543524	-1.339239	-1.921890	0.050704	-0.009701	0.010273	-151.415834	-77.269453	44.183392
11958		9.572596	-1.304131	-1.977879	0.051967	-0.003388	0.007080	-151.360730	-77.268348	44.155306
11959		9.542541	-1.231303	-1.933637	0.044407	-0.002297	0.004142	-151.317918	-77.268877	44.135143
11960		9.572045	-1.220099	-1.920324	0.034416	0.000521	0.002878	-151.277430	-77.270875	44.111734
11961		9.613371	-1.216151	-1.927284	0.034126	-0.006784	0.001271	-151.252359	-77.269935	44.103720
11962		9.589422	-1.206747	-1.975060	0.048304	-0.000006	0.007976	-151.193190	-77.270252	44.069320
11963		9.541975	-1.211613	-2.001171	0.059308	0.002551	0.003657	-151.136974	-77.273334	44.044169
11964		9.506443	-1.190770	-1.940153	0.063207	0.004845	0.007493	-151.064363	-77.276194	44.004744
11965		9.470988	-1.198947	-1.898082	0.057318	0.001362	0.007663	-151.001813	-77.277557	43.971930
11966		9.441095	-1.155262	-1.872635	0.053627	-0.001619	0.009353	-150.938472	-77.276637	43.936384
11967		9.458699	-1.137265	-1.839239	0.046561	0.001337	0.011168	-150.874330	-77.276995	43.895620
11968		9.434577	-1.070849	-1.848879	0.042173	0.003496	0.013689	-150.801618	-77.277406	43.843741
11969		9.463984	-1.031642	-1.816339	0.035112	0.006456	0.015507	-150.728075	-77.279086	43.786614
11970		9.481450	-0.989397	-1.851777	0.027303	0.005015	0.013379	-150.662678	-77.280318	43.733497
11971		9.552291	-0.945108	-1.826584	0.024362	0.003278	0.013472	-150.603724	-77.280955	43.685014
11972		9.575725	-0.903840	-1.828541	0.024356	0.000108	0.007916	-150.558233	-77.281259	43.650570
11973		9.569478	-0.816232	-1.805825	0.009538	0.004840	0.001274	-150.532773	-77.286095	43.627715
11974		9.486340	-0.714126	-1.803691	-0.004032	0.011107	-0.010957	-150.531577	-77.297210	43.622002
11975		9.391812	-0.655960	-1.730951	-0.021027	0.013768	-0.027839	-150.576916	-77.314702	43.653771
11976		9.308658	-0.521566	-1.710410	-0.038645	-0.001389	-0.041554	-150.679236	-77.328195	43.733824
11977		9.296199	-0.368466	-1.685395	-0.052105	-0.014881	-0.057796	-150.845054	-77.339722	43.870823
11978		9.366325	-0.232985	-1.694748	-0.053410	-0.033870	-0.076842	-151.075407	-77.346682	44.073407
11979		9.524878	-0.120864	-1.792245	-0.051487	-0.042216	-0.097584	-151.364093	-77.355216	44.336685
11980		9.724205	0.027730	-1.878947	-0.027865	-0.052749	-0.128592	-151.719843	-77.366376	44.682749
11981		9.840099	0.199075	-1.932551	-0.005606	-0.040225	-0.171452	-152.147739	-77.395111	45.115590
11982		9.914101	0.370011	-1.978160	0.016806	-0.033120	-0.223140	-152.672259	-77.440215	45.660698
11983		9.875003	0.522950	-2.022262	0.040055	-0.036625	-0.272607	-153.307419	-77.495362	46.332516
11984		9.756704	0.751007	-2.049630	0.036853	-0.033644	-0.330053	-154.079146	-77.564713	47.142292
11985		9.515520	0.827504	-2.061196	0.010106	-0.030503	-0.379686	-154.990676	-77.645457	48.079149
11986		9.315543	0.888862	-2.011032	-0.017513	-0.044680	-0.431891	-156.069483	-77.727620	49.170832
11987		9.192198	0.909084	-2.048480	-0.065482	-0.075261	-0.483649	-157.349113	-77.800676	50.439461
11988		9.236195	0.880070	-1.997044	-0.128321	-0.087887	-0.529502	-158.804829	-77.870358	51.851105
11989		9.369590	0.834637	-2.032810	-0.219325	-0.079536	-0.567375	-160.417257	-77.944128	53.369254
11990		9.606708	0.743267	-2.105244	-0.320655	-0.050502	-0.603522	-162.174326	-78.030913	54.975494
11991		9.870114	0.647502	-2.213232	-0.431433	0.020696	-0.643534	-164.069531	-78.152698	56.657397
11992		10.034676	0.585107	-2.293737	-0.529602	0.109287	-0.683564	-166.104464	-78.317481	58.423681
11993		10.157175	0.501296	-2.324217	-0.610567	0.187789	-0.735388	-168.335311	-78.519178	60.341436
11994		10.246101	0.442950	-2.375915	-0.677536	0.246828	-0.784595	-170.787935	-78.743363	62.444788
11995		10.246121	0.354540	-2.408533	-0.750012	0.298932	-0.824067	-173.467497	-78.981441	64.735450
11996		10.157948	0.287386	-2.263974	-0.811529	0.318067	-0.854650	-176.375406	-79.210127	67.220899
11997		10.256314	0.326378	-2.094802	-0.853263	0.269120	-0.877132	-179.487434	-79.386271	69.888113
11998		10.546231	0.314407	-2.179263	-0.885592	0.212742	-0.886654	177.269836	-79.502232	72.668110
11999		10.753320	0.373589	-2.334628	-0.905534	0.208086	-0.904413	173.904390	-79.585256	75.560430
12000		10.582317	0.536784	-2.307018	-0.935114	0.262386	-0.935552	170.356368	-79.664779	78.620321
12001		10.305076	0.492426	-1.944617	-0.953946	0.278412	-0.979346	166.612375	-79.713172	81.867857
12002		10.202649	0.614333	-1.683886	-0.927905	0.247400	-1.018706	162.772292	-79.699790	85.227984
12003		10.369096	0.844700	-1.473896	-0.912449	0.236515	-1.054229	158.873139	-79.633448	88.657631
12004		10.685103	1.168088	-1.468201	-0.888726	0.244156	-1.089058	154.939537	-79.521303	92.137045
12005		11.023684	1.627665	-1.511083	-0.905402	0.299862	-1.143462	150.862385	-79.379800	95.754234
12006		11.101601	1.966113	-1.392338	-0.909181	0.377404	-1.203975	146.619619	-79.210462	99.539532
12007		11.071817	2.174694	-1.373875	-0.872093	0.396560	-1.278635	142.331512	-78.973495	103.395265
12008		10.904983	2.399388	-1.293298	-0.925271	0.416185	-1.357957	137.994607	-78.661640	107.273195
12009		10.576765	2.502001	-1.273482	-1.072643	0.447576	-1.428522	133.615128	-78.278414	111.113197
12010		10.437187	2.613139	-1.117585	-1.306369	0.457138	-1.494205	129.249394	-77.812945	114.808069
12011		10.716094	2.321199	-1.005030	-1.519743	0.497907	-1.537318	124.928644	-77.285489	118.338701
12012		10.806483	1.682098	-1.361190	-1.477008	0.573427	-1.552318	120.781103	-76.719253	121.724197
12013		10.475849	1.363041	-1.478915	-1.191042	0.576669	-1.553134	117.106530	-76.103217	124.800058
12014		9.920966	1.049753	-1.188697	-0.916591	0.450565	-1.533761	114.150680	-75.424963	127.305196
12015		9.642353	0.474100	-1.018986	-0.596200	0.313935	-1.481833	111.927977	-74.716654	129.249581
12016		9.358333	0.311129	-0.731642	-0.221040	0.269263	-1.430416	110.219865	-74.009696	130.889322
12017		9.018763	0.663966	-0.661438	0.044738	0.245858	-1.401122	108.863641	-73.302726	132.326942
12018		8.968357	1.274520	-0.777167	0.170995	0.206500	-1.376640	107.773697	-72.593430	133.567000
12019		9.364340	2.027054	-0.542000	0.286529	0.208826	-1.372454	106.838276	-71.880607	134.719199
12020		9.877075	2.945106	-0.405595	0.368922	0.211777	-1.385257	106.017139	-71.155890	135.805374
12021		10.508613	3.927894	-0.589296	0.305463	0.183801	-1.428185	105.256613	-70.398524	136.793703
12022		10.824840	4.491006	-0.673674	0.156570	0.244599	-1.490547	104.361913	-69.610856	137.838729
12023		10.783579	4.872030	-0.750312	-0.014708	0.303893	-1.557971	103.334488	-68.787962	138.926283
12024		10.563087	5.005577	-0.731027	-0.178676	0.363867	-1.629321	102.188388	-67.925527	140.046586
12025		10.340266	4.990820	-0.567715	-0.340834	0.434425	-1.673994	100.930362	-67.037718	141.194509
12026		10.095319	4.784261	-0.567045	-0.510773	0.519611	-1.686084	99.553175	-66.141765	142.373675
12027		9.836943	4.438440	-0.632232	-0.622598	0.623753	-1.678146	98.077711	-65.248196	143.598639
12028		9.459914	4.214173	-0.489464	-0.615844	0.660597	-1.659275	96.657369	-64.355458	144.775692
12029		9.309756	4.178067	-0.325302	-0.583667	0.636415	-1.652784	95.370014	-63.453537	145.834189
12030		9.400119	4.142237	-0.359776	-0.548972	0.609714	-1.649492	94.207352	-62.542338	146.783345
12031		9.310256	4.271337	-0.497181	-0.502584	0.613637	-1.659457	93.132884	-61.617491	147.670818
12032		9.216183	4.277625	-0.324253	-0.465603	0.613324	-1.667233	92.139545	-60.680732	148.497581
12033		9.110594	4.263090	-0.300041	-0.434227	0.593287	-1.658617	91.239154	-59.742218	149.245703
12034		9.066360	4.255408	-0.392703	-0.407912	0.577888	-1.662344	90.416253	-58.795895	149.928334
12035		8.925784	4.246303	-0.439302	-0.365878	0.595462	-1.642761	89.644186	-57.856103	150.586474
12036		8.693635	4.269040	-0.290005	-0.299286	0.608776	-1.625757	88.936937	-56.921570	151.219685
12037		8.311956	4.341483	0.116047	-0.155273	0.597516	-1.587752	88.355761	-56.005190	151.807416
12038		7.969443	4.397321	0.344810	-0.043840	0.562448	-1.547379	87.895031	-55.109727	152.332755
12039		7.749381	4.516956	0.264533	-0.022593	0.531399	-1.508087	87.494002	-54.235216	152.805598
12040		7.694447	4.701496	0.247211	-0.008846	0.488101	-1.474307	87.153129	-53.379545	153.218763
12041		7.698204	4.839541	0.457842	0.051964	0.460394	-1.432876	86.882818	-52.547020	153.591801
12042		7.530517	4.936306	0.636965	0.127538	0.397299	-1.384487	86.712859	-51.743482	153.896614
12043		7.521924	4.942171	0.594680	0.162021	0.360302	-1.339516	86.596679	-50.966297	154.161276
12044		7.434996	5.031835	0.523671	0.187879	0.347753	-1.295578	86.509228	-50.214567	154.410718
12045		7.248293	5.245550	0.331412	0.116435	0.346338	-1.250861	86.386763	-49.487985	154.655201
12046		7.221636	5.431235	0.331348	0.058691	0.327131	-1.202795	86.248196	-48.789462	154.879741
12047		7.125019	5.651067	0.295248	0.007921	0.314967	-1.139035	86.091910	-48.127253	155.091537
12048		6.943106	5.689505	0.198734	-0.041369	0.301777	-1.064624	85.917840	-47.507957	155.291258
12049		6.794128	5.710145	0.291798	-0.048940	0.282362	-0.984160	85.753060	-46.934798	155.474421
12050		6.672695	5.709883	0.361512	-0.075043	0.274597	-0.893297	85.578006	-46.413802	155.652700
12051		6.577525	5.687797	0.303058	-0.139639	0.247467	-0.809025	85.382313	-45.941493	155.809855
12052		6.459830	5.639354	0.280378	-0.181332	0.240619	-0.727716	85.166121	-45.515850	155.963388
12053		6.287921	5.588798	0.139724	-0.180900	0.198192	-0.647491	84.973936	-45.137410	156.084658
12054		6.124104	5.619444	0.083364	-0.146690	0.159899	-0.576422	84.821602	-44.801554	156.177960
12055		5.949001	5.556322	0.236484	-0.115749	0.129232	-0.489664	84.701469	-44.516318	156.251250
12056		5.780439	5.438989	0.359058	-0.113612	0.113346	-0.399258	84.587597	-44.283746	156.317633
12057		5.596429	5.144859	0.357346	-0.090571	0.088089	-0.294701	84.496262	-44.111754	156.370911
12058		5.507104	4.986335	0.263708	-0.005089	0.016352	-0.202397	84.488783	-43.996683	156.374132
12059		5.653254	5.158074	0.207517	0.070360	-0.078295	-0.116125	84.572114	-43.935621	156.308857
12060		5.961253	5.568517	0.213085	0.142081	-0.103306	-0.030520	84.705597	-43.925036	156.230466
12061		5.968389	6.025646	0.238448	0.167679	-0.105028	0.055092	84.850494	-43.962859	156.156798
12062		5.920728	6.404109	0.339841	0.189729	-0.135657	0.140340	85.020883	-44.051146	156.064713
12063		5.759328	6.621939	0.417276	0.210884	-0.191806	0.211615	85.231714	-44.182226	155.932119
12064		5.764172	6.676160	0.318167	0.184357	-0.235817	0.275859	85.449837	-44.352073	155.767680
12065		5.689848	6.628752	0.473618	0.166155	-0.261511	0.323183	85.671302	-44.549251	155.584094
12066		5.772691	6.651572	0.485707	0.108969	-0.301205	0.386664	85.881438	-44.784235	155.370743
12067		5.989800	6.525839	0.317402	-0.011038	-0.281967	0.432998	86.012021	-45.044117	155.173582
12068		6.033274	6.280538	0.225758	-0.113630	-0.227395	0.464616	86.052834	-45.320020	155.021050
12069		6.060520	6.182564	0.381609	-0.089806	-0.245999	0.487987	86.118546	-45.609588	154.853455
12070		6.253247	6.359112	0.445516	-0.053785	-0.285793	0.500229	86.229445	-45.907805	154.652467
12071		6.400985	6.603493	0.472650	-0.055928	-0.305660	0.509014	86.352739	-46.211184	154.433547
12072		6.489922	6.719141	0.481787	-0.092831	-0.304647	0.516746	86.456292	-46.518939	154.213837
12073		6.511300	6.652885	0.675951	-0.070154	-0.303046	0.529803	86.573772	-46.833520	153.993938
12074		6.556453	6.705466	0.746223	-0.003058	-0.321142	0.531527	86.743318	-47.149580	153.756565
12075		6.680005	6.876834	0.665271	0.046634	-0.356632	0.526582	86.966639	-47.463102	153.485949
12076		6.969689	7.163189	0.672383	0.026322	-0.354467	0.515705	87.180740	-47.769872	153.213403
12077		7.079034	7.306728	0.463592	-0.033484	-0.314429	0.496166	87.339083	-48.063526	152.971106
12078		6.982675	7.303689	0.558482	-0.050773	-0.306771	0.465998	87.486098	-48.339479	152.731782
12079		6.830240	7.212596	0.731730	-0.047446	-0.319530	0.426106	87.646936	-48.592279	152.477534
12080		6.616951	7.017833	0.836900	-0.049579	-0.335690	0.383589	87.820538	-48.820758	152.205573
12081		6.541839	6.826293	1.120419	-0.109062	-0.346280	0.371866	87.969765	-49.042093	151.921708
12082		6.567611	6.574642	1.257061	-0.203229	-0.324841	0.376224	88.052774	-49.265213	151.654927
12083		6.518073	6.157635	1.125305	-0.265249	-0.290007	0.420402	88.078084	-49.512698	151.418365
12084		6.542556	5.816441	0.892147	-0.226377	-0.295780	0.460627	88.130253	-49.783282	151.176561
12085		6.721170	5.734524	0.937403	-0.119661	-0.325043	0.496868	88.265337	-50.074832	150.907443
12086		7.032140	5.978796	0.971863	0.054364	-0.356144	0.527452	88.524024	-50.383853	150.608245
12087		7.662204	6.495067	0.805129	0.299448	-0.356912	0.531082	88.928650	-50.693797	150.303407
12088		8.187627	7.487216	0.664136	0.607648	-0.379985	0.489458	89.531931	-50.978402	149.971195
12089		8.666314	8.700817	0.289016	0.750943	-0.526745	0.381099	90.328589	-51.198392	149.497364
12090		9.334941	9.545223	-0.185473	0.714164	-0.707541	0.189087	91.237103	-51.302500	148.853939
12091		9.846802	9.701279	-0.220190	0.456166	-0.715029	0.009054	92.002681	-51.297487	148.204925
12092		9.487809	8.720531	0.029968	0.011679	-0.483289	-0.106935	92.343848	-51.227087	147.772933
12093		8.497398	7.531957	0.306948	-0.243003	-0.197000	-0.131846	92.333898	-51.148433	147.604069
12094		7.551571	6.825998	0.387404	-0.376392	-0.015978	-0.097715	92.119321	-51.093423	147.599456
12095		6.904130	6.062889	0.376949	-0.396399	0.061878	-0.007956	91.841017	-51.091500	147.662277
12096		6.482640	5.563394	0.447317	-0.277523	0.028169	0.137890	91.657343	-51.172192	147.690696
12097		6.423397	5.148279	0.221890	-0.082661	-0.059548	0.281786	91.651162	-51.333976	147.634949
12098		6.566346	5.101001	-0.157071	0.154875	-0.158420	0.413625	91.855111	-51.569303	147.484365
12099		6.910308	5.127476	-0.376076	0.352596	-0.253356	0.481188	92.246160	-51.841045	147.240588
12100		7.569093	5.379562	-0.607120	0.543174	-0.362345	0.496331	92.830941	-52.117240	146.890098
12101		8.306769	5.785950	-0.608295	0.654129	-0.413089	0.464413	93.522668	-52.371292	146.486325
12102		8.769957	6.124719	-0.531528	0.671621	-0.424794	0.411088	94.236653	-52.591236	146.068117
12103		9.036474	6.470386	-0.563933	0.621033	-0.384011	0.349236	94.893819	-52.774767	145.686325
12104		9.014033	6.918943	-0.530754	0.506125	-0.267090	0.300495	95.397538	-52.934046	145.415028
12105		8.841094	7.260089	-0.254222	0.290633	-0.139512	0.276887	95.682705	-53.085877	145.263608
12106		8.505282	7.376372	-0.121527	-0.002384	-0.077447	0.281294	95.753807	-53.243373	145.169899
12107		8.073137	7.133592	-0.603779	-0.240281	-0.068350	0.281986	95.682717	-53.401889	145.084016
12108		7.658045	6.706548	-0.575097	-0.347072	-0.053660	0.287650	95.538931	-53.564398	145.012319
12109		7.215705	6.188127	-0.285160	-0.384226	-0.012215	0.326508	95.344942	-53.751604	144.976992
12110		6.960928	5.690473	-0.142099	-0.262859	-0.031253	0.371155	95.237476	-53.963128	144.920399
12111		6.956415	5.419613	-0.001161	-0.054388	-0.092667	0.413558	95.301822	-54.195828	144.799625
12112		7.041152	5.413378	-0.271239	0.124568	-0.164453	0.457828	95.530070	-54.449493	144.603332
12113		7.186352	5.558110	-0.518254	0.262719	-0.237977	0.511079	95.904868	-54.728935	144.325339
12114		7.305669	5.855918	-0.397322	0.298979	-0.296849	0.555792	96.356590	-55.028840	143.979349
12115		7.706378	5.988473	-0.465607	0.324787	-0.382910	0.589495	96.904461	-55.340722	143.535892
12116		8.200643	6.183341	-0.551778	0.386872	-0.429448	0.586897	97.534193	-55.644893	143.037552
12117		8.588915	6.302157	-0.525291	0.314604	-0.379181	0.576508	98.089404	-55.944408	142.581398
12118		8.601403	6.110858	-0.752677	0.161089	-0.293702	0.596384	98.494266	-56.259811	142.201695
12119		8.374038	6.091925	-1.009110	0.107891	-0.286888	0.623653	98.874330	-56.590073	141.816964
12120		8.415384	6.035366	-0.916308	0.088597	-0.322873	0.657288	99.285816	-56.934332	141.382575
12121		8.434463	6.059051	-0.873387	0.044654	-0.318793	0.705582	99.685210	-57.304874	140.934727
12122		8.477852	6.034175	-0.944715	-0.087523	-0.274551	0.744117	99.983815	-57.699687	140.518137
12123		8.268373	5.751845	-0.796906	-0.227433	-0.200389	0.786374	100.151336	-58.125176	140.163895
12124		8.236756	5.464533	-1.190947	-0.170468	-0.206479	0.815329	100.368355	-58.565383	139.791138
12125		8.227620	5.430530	-1.255018	-0.089571	-0.209582	0.822930	100.645529	-59.009050	139.404361
12126		8.022696	5.184873	-1.025533	-0.228134	-0.154227	0.823647	100.798861	-59.457892	139.070765
12127		7.689291	4.659602	-1.346879	-0.268848	-0.185416	0.809153	100.964363	-59.895101	138.697918
12128		7.631804	4.283443	-1.747273	-0.119280	-0.264263	0.780472	101.295041	-60.306260	138.234645
12129		7.574881	4.007730	-1.615124	-0.017774	-0.348180	0.749461	101.773432	-60.689142	137.670644
12130		7.811166	3.731753	-1.509288	0.057179	-0.455617	0.725181	102.410791	-61.042424	136.975543
12131		8.364582	3.453219	-1.986539	0.197200	-0.620558	0.722333	103.313357	-61.368878	136.071947
12132		9.200288	3.460966	-2.307242	0.233758	-0.728159	0.758467	104.376604	-61.692835	135.011929
12133		9.877498	2.933983	-2.286582	0.259403	-0.763934	0.815783	105.532809	-62.033716	133.866732
12134		10.684833	2.971630	-2.403811	0.372315	-0.806361	0.887904	106.848049	-62.395539	132.618423
12135		11.264613	2.980848	-2.529327	0.346553	-0.734395	0.961270	108.131266	-62.796797	131.394098
12136		11.347083	2.894243	-2.538029	0.350125	-0.648904	0.998917	109.375184	-63.221590	130.220567
12137		11.184512	2.865573	-2.586220	0.403911	-0.566758	0.993891	110.597469	-63.648312	129.110197
12138		10.845577	2.893192	-2.144033	0.378465	-0.495609	0.947113	111.743836	-64.054415	128.072089
12139		10.486821	2.764625	-1.939348	0.316191	-0.420536	0.912151	112.789135	-64.449441	127.110158
12140		10.129713	2.712203	-1.912320	0.253455	-0.403658	0.888602	113.798334	-64.828454	126.151484
12141		10.072818	2.632455	-1.769942	0.180706	-0.394992	0.894638	114.788346	-65.205330	125.170976
12142		10.022972	2.538463	-1.793353	0.095082	-0.372269	0.920286	115.746863	-65.594156	124.174191
12143		9.909812	2.455537	-1.845443	0.033392	-0.328224	0.944754	116.664342	-65.999660	123.186758
12144		9.780793	2.335888	-1.821051	0.013084	-0.273081	0.960495	117.547805	-66.421458	122.227004
12145		9.517551	2.184511	-1.816136	0.037609	-0.246930	0.963314	118.449317	-66.845353	121.265929
12146		9.264881	2.028788	-1.886752	0.066512	-0.209256	0.935155	119.338108	-67.259901	120.339737
12147		8.925882	1.743063	-1.851494	0.107521	-0.197938	0.907533	120.250392	-67.657854	119.416215
12148		8.697233	1.574859	-1.934571	0.205931	-0.233869	0.884799	121.279355	-68.028453	118.430251
12149		8.684908	1.512611	-1.913951	0.286757	-0.286512	0.860439	122.433702	-68.363707	117.361453
12150		8.878082	1.428716	-1.926532	0.349732	-0.328066	0.844632	123.696930	-68.670415	116.216949
12151		9.189986	1.489449	-1.889510	0.452598	-0.343253	0.831898	125.060624	-68.956020	115.030061
12152		9.540408	1.693663	-2.017025	0.501099	-0.318556	0.835061	126.459866	-69.241486	113.837333
12153		9.759991	1.810351	-2.144620	0.547599	-0.300953	0.841258	127.904571	-69.524690	112.626547
12154		9.924521	1.911812	-2.166310	0.587060	-0.265948	0.857871	129.383259	-69.817474	111.406122
12155		9.802708	1.931296	-2.320027	0.611212	-0.209783	0.878994	130.867814	-70.128612	110.196325
12156		9.467944	2.045304	-2.495480	0.617586	-0.153621	0.876321	132.328913	-70.449827	109.017974
12157		9.097189	2.191556	-2.632091	0.607823	-0.123400	0.865233	133.777511	-70.767425	107.849035
12158		8.723848	2.212967	-2.721174	0.557864	-0.145131	0.852978	135.252428	-71.061874	106.624391
12159		8.621279	2.153758	-2.781459	0.548009	-0.199189	0.839141	136.807321	-71.317258	105.311053
12160		8.691195	2.121764	-2.945057	0.505653	-0.225566	0.844642	138.414925	-71.552359	103.918678
12161		8.868261	2.124257	-2.804792	0.458325	-0.240549	0.855523	140.062119	-71.771820	102.457601
12162		9.024035	1.847423	-2.620616	0.392876	-0.223717	0.870270	141.711692	-71.991254	100.956685
12163		9.091617	1.632096	-2.561725	0.424430	-0.225511	0.860628	143.403010	-72.192355	99.432411
12164		9.236040	1.591471	-2.657417	0.457706	-0.235141	0.840299	145.130382	-72.368532	97.892199
12165		9.437517	1.387327	-2.583282	0.436450	-0.248263	0.827367	146.868252	-72.519664	96.329315
12166		9.804222	1.214020	-2.534404	0.367910	-0.253132	0.838231	148.617580	-72.657739	94.714804
12167		9.898994	0.887616	-2.778641	0.369463	-0.208182	0.852637	150.373017	-72.806980	93.095796
12168		9.537874	0.871857	-2.767730	0.397186	-0.144386	0.866191	152.141125	-72.977533	91.481859
12169		9.098191	0.819105	-2.568418	0.355313	-0.064859	0.862656	153.842959	-73.172958	89.913383
12170		8.820909	0.884511	-2.426416	0.313944	-0.021286	0.889682	155.572798	-73.384153	88.292924
12171		8.641849	0.861803	-2.475610	0.341824	-0.053584	0.909751	157.417594	-73.568002	86.570562
12172		8.754975	0.922114	-2.526226	0.373456	-0.099929	0.914267	159.361948	-73.712111	84.765114
12173		9.116719	0.993958	-2.541716	0.394076	-0.128704	0.903378	161.344478	-73.820816	82.933045
12174		9.425809	1.071449	-2.777797	0.360118	-0.088839	0.872794	163.252704	-73.928741	81.159402
12175		9.393887	0.815160	-2.788384	0.256129	-0.053840	0.812369	164.986336	-74.030555	79.506021
12176		9.195140	0.379628	-2.961619	0.217857	-0.002582	0.743401	166.561798	-74.138089	77.995499
12177		8.931392	0.221731	-2.918656	0.315359	0.008987	0.692183	168.103744	-74.234184	76.578311
12178		8.634204	0.287106	-2.809112	0.368017	-0.000298	0.674221	169.663234	-74.312708	75.175183
12179		8.243582	-0.057290	-3.076541	0.433367	-0.058812	0.667863	171.276572	-74.346903	73.755072
12180		8.580676	0.073154	-3.001091	0.568363	-0.126037	0.641512	172.939499	-74.329936	72.364191
12181		8.648855	0.287157	-2.964605	0.623473	-0.082940	0.614257	174.562815	-74.325033	71.046827
12182		8.753617	0.326010	-2.913847	0.695699	-0.106323	0.620473	176.244569	-74.296773	69.711987
12183		9.038231	0.282501	-2.821866	0.756732	-0.144461	0.640808	177.996093	-74.236520	68.340357
12184		9.260338	0.420762	-2.686412	0.751083	-0.140709	0.646299	179.745492	-74.167058	66.967475
12185		9.379364	0.585097	-2.773892	0.648139	-0.141815	0.618398	-178.637599	-74.086277	65.670160
12186		9.499990	0.485804	-2.863188	0.596927	-0.100389	0.556753	-177.181792	-74.020894	64.509734
12187		9.518028	0.437216	-2.730695	0.569909	-0.048747	0.490453	-175.879958	-73.979839	63.492743
12188		9.507639	0.357287	-2.624626	0.494357	0.029360	0.434143	-174.722635	-73.979867	62.581269
12189		9.221422	0.278324	-2.669960	0.454720	0.061599	0.404238	-173.643224	-73.995268	61.726949
12190		9.234523	0.278338	-2.644988	0.440541	0.044541	0.402508	-172.575683	-73.996496	60.876855
12191		9.241087	0.250854	-2.838156	0.453729	0.063109	0.426291	-171.450706	-74.002065	59.974594
12192		9.266993	0.267417	-2.865974	0.467769	0.096407	0.443633	-170.269702	-74.019693	59.022743
12193		9.218874	0.129053	-2.888802	0.441182	0.108209	0.451100	-169.085107	-74.037997	58.051126
12194		9.192939	0.034913	-2.965164	0.350197	0.122008	0.434278	-167.975740	-74.060389	57.103880
12195		9.105835	-0.050588	-2.987573	0.282921	0.115120	0.406975	-166.961016	-74.077725	56.214814
12196		9.079798	-0.052301	-2.948016	0.317357	0.080557	0.373116	-166.005619	-74.075886	55.408224
12197		9.195290	0.074796	-2.737080	0.305825	0.092171	0.329673	-165.137496	-74.083437	54.685299
12198		9.229328	0.139301	-2.544160	0.249869	0.151112	0.286984	-164.349873	-74.126862	54.013040
12199		9.369839	0.066746	-2.480640	0.232594	0.166142	0.260355	-163.613105	-74.180605	53.383309
12200		9.541557	0.169424	-2.480164	0.268161	0.131939	0.241528	-162.906723	-74.216248	52.806659
12201		9.593833	0.248336	-2.562711	0.290010	0.076988	0.230412	-162.241976	-74.222151	52.286159
12202		9.457086	0.178233	-2.667656	0.281235	0.060340	0.203271	-161.643459	-74.221992	51.829420
12203		9.206059	0.244249	-2.391271	0.268186	0.044818	0.166175	-161.135096	-74.219244	51.458437
12204		9.140324	0.350689	-2.234997	0.247088	0.010469	0.121543	-160.746284	-74.205217	51.199241
12205		9.265328	0.408270	-2.225322	0.219260	0.005502	0.094046	-160.430822	-74.193549	50.999563
12206		9.452053	0.427792	-2.342241	0.222638	0.022740	0.092112	-160.104886	-74.191046	50.791098
12207		9.555946	0.546311	-2.444740	0.241479	0.049163	0.107958	-159.720447	-74.199494	50.532958
12208		9.669205	0.492062	-2.542785	0.185442	0.089532	0.130522	-159.295704	-74.224422	50.199650
12209		9.599248	0.261908	-2.585629	0.060576	0.117694	0.151142	-158.882159	-74.259707	49.803631
12210		9.541353	-0.098718	-2.408745	-0.158019	0.111143	0.166242	-158.568318	-74.287535	49.381160
12211		9.573822	-0.672690	-2.207833	-0.300743	0.035854	0.186160	-158.354356	-74.270656	48.977486
12212		9.812767	-1.034185	-2.123204	-0.303925	-0.024212	0.206252	-158.150617	-74.217037	48.582478
12213		9.852950	-1.283408	-2.427984	-0.225283	0.001542	0.240750	-157.819752	-74.169299	48.102071
12214		9.681766	-1.328054	-2.530965	-0.163002	0.036893	0.284679	-157.346499	-74.129675	47.510653
12215		9.411244	-1.599553	-2.607874	-0.159009	0.091794	0.328044	-156.749983	-74.107917	46.793355
12216		9.115557	-1.997539	-2.597571	-0.075019	0.130600	0.376463	-155.986466	-74.092969	45.952407
12217		9.085753	-2.157307	-2.503691	0.038187	0.110951	0.442495	-155.056373	-74.048806	45.005539
12218		9.292841	-2.272213	-2.537252	0.119109	0.059525	0.528216	-153.976223	-73.952210	43.950514
12219		9.579896	-2.363413	-2.571649	0.174467	0.035488	0.621752	-152.735056	-73.813548	42.760233
12220		9.807448	-2.401915	-2.511486	0.235015	0.068792	0.696765	-151.319866	-73.663764	41.424017
12221		9.810214	-2.370021	-2.381937	0.275074	0.128719	0.739002	-149.778876	-73.522571	39.979522
12222		9.656657	-2.214296	-2.196544	0.308147	0.158997	0.754796	-148.188104	-73.380262	38.501902
12223		9.578454	-2.080508	-2.139873	0.309461	0.118200	0.769813	-146.642884	-73.202388	37.071298
12224		9.545035	-1.806110	-2.176941	0.258942	0.034940	0.800655	-145.199160	-72.964189	35.715068
12225		9.406053	-1.631841	-2.152709	0.144927	0.003262	0.807399	-143.884490	-72.699782	34.423602
12226		9.170289	-1.650982	-2.163100	0.009159	0.019908	0.782381	-142.703536	-72.443110	33.189036
12227		9.247300	-1.638706	-2.262764	-0.055128	0.041962	0.740836	-141.628496	-72.204038	32.025167
12228		9.678805	-1.579153	-2.582372	-0.009292	0.047177	0.693926	-140.614485	-71.977521	30.951625
12229		10.251109	-1.239921	-3.026614	0.118319	0.074005	0.640862	-139.594497	-71.776720	29.947313
12230		10.359297	-0.872879	-3.439141	0.245631	0.165738	0.529656	-138.562702	-71.651577	29.006537
12231		10.103533	-0.569310	-3.392284	0.398081	0.215334	0.374171	-137.597729	-71.602211	28.227646
12232		10.039786	-0.249993	-3.089182	0.487461	0.155326	0.242027	-136.822479	-71.575111	27.702549
12233		10.109564	-0.076168	-2.842089	0.418335	0.061251	0.167251	-136.293272	-71.536664	27.394930
12234		10.211783	-0.203485	-2.836862	0.243697	-0.031779	0.142374	-136.007221	-71.468814	27.238082
12235		10.178707	-0.545690	-3.041517	0.031502	-0.085201	0.158722	-135.887193	-71.372423	27.128072
12236		10.082231	-1.037960	-3.071112	-0.127655	-0.075358	0.182668	-135.819302	-71.270385	26.976691
12237		10.096090	-1.562316	-2.862712	-0.164173	-0.052598	0.208142	-135.715498	-71.167517	26.765268
12238		10.175401	-1.980694	-2.552393	-0.157126	-0.031025	0.246596	-135.539156	-71.057856	26.481194
12239		10.231958	-2.446856	-2.203735	-0.150509	0.011171	0.278789	-135.273581	-70.952160	26.106693
12240		10.396865	-2.675306	-2.013860	-0.116571	0.042084	0.280853	-134.954454	-70.857523	25.695750
12241		10.702026	-2.585422	-1.857782	-0.109705	0.050256	0.253751	-134.655835	-70.776514	25.310590
12242		11.308533	-2.356184	-1.789919	-0.173485	0.065990	0.217511	-134.420332	-70.716035	24.953301
12243		11.931997	-2.250467	-2.091725	-0.172875	0.075494	0.171730	-134.226518	-70.677688	24.640557
12244		11.971912	-2.057024	-2.688187	-0.006615	0.180403	0.080734	-133.918846	-70.718222	24.308001
12245		11.481661	-1.983321	-2.948369	0.131372	0.316605	-0.046740	-133.512025	-70.864724	23.954470
12246		10.916143	-1.880676	-2.847689	0.178523	0.269139	-0.139484	-133.236455	-71.030589	23.768583
12247		10.803168	-1.949403	-2.645877	0.198688	0.106781	-0.198540	-133.211340	-71.157132	23.859938
12248		10.897126	-2.218063	-2.273653	0.206255	0.021541	-0.213923	-133.305922	-71.256744	24.082099
12249		10.815033	-2.663315	-1.973612	0.198057	0.002455	-0.200534	-133.413792	-71.343008	24.313356
12250		10.714556	-3.040303	-1.767081	0.277888	0.009870	-0.199726	-133.468247	-71.431914	24.536250
12251		10.667053	-3.160332	-1.662897	0.452532	0.076491	-0.212107	-133.354547	-71.552079	24.687348
12252		10.320331	-3.086998	-1.479722	0.652361	0.189576	-0.249175	-133.028457	-71.732429	24.735048
12253		9.863503	-2.859582	-1.546602	0.799368	0.323277	-0.320616	-132.527174	-71.994782	24.687089
12254		9.471047	-2.522488	-1.590976	0.935387	0.452381	-0.417843	-131.885584	-72.348108	24.573601
12255		9.189729	-1.981870	-1.522022	1.174781	0.459840	-0.505120	-131.185889	-72.741087	24.543316
12256		8.903743	-1.455518	-1.611699	1.387018	0.305335	-0.551599	-130.624883	-73.096296	24.785312
12257		9.032752	-1.132402	-1.922282	1.506678	0.128134	-0.563329	-130.261107	-73.391129	25.304548
12258		9.182945	-0.967448	-2.343560	1.520189	0.107480	-0.562949	-129.923653	-73.679312	25.858419
12259		8.963227	-1.082636	-2.462985	1.466772	0.199586	-0.575500	-129.495876	-74.007556	26.285615
12260		8.602892	-1.188157	-2.353401	1.374211	0.248307	-0.593789	-129.070004	-74.362705	26.658815
12261		8.386226	-1.243221	-2.094504	1.169544	0.259425	-0.595658	-128.745184	-74.723103	27.014667
12262		8.234115	-1.296515	-1.797963	0.893333	0.231681	-0.600961	-128.636426	-75.076533	27.429638
12263		8.239121	-1.355261	-1.660836	0.669420	0.131794	-0.594391	-128.825481	-75.390905	28.019421
12264		8.582548	-1.383371	-1.631437	0.509788	0.054419	-0.574884	-129.232224	-75.668131	28.738615
12265		8.972567	-1.417932	-1.509122	0.327285	0.049835	-0.556954	-129.746838	-75.934071	29.460502
12266		9.285907	-1.553795	-1.437971	0.122356	0.040455	-0.523332	-130.371202	-76.180271	30.173521
12267		9.652716	-1.832423	-1.351475	-0.063461	0.018376	-0.491580	-131.115197	-76.402130	30.899537
12268		10.035427	-1.920090	-1.145638	-0.150097	-0.000282	-0.453663	-131.907642	-76.598542	31.623531
12269		10.187309	-1.691990	-0.783230	-0.216492	0.014805	-0.417576	-132.672147	-76.782931	32.279308
12270		10.212743	-1.106538	-0.280969	-0.377421	0.078146	-0.389637	-133.389607	-76.978668	32.791445
12271		10.089177	-0.374235	0.440451	-0.661274	0.183887	-0.391853	-134.100012	-77.215500	33.129196
12272		9.858880	0.214915	1.066826	-1.005812	0.325923	-0.426332	-134.832610	-77.522836	33.286886
12273		9.776286	0.578470	1.297068	-1.321125	0.443622	-0.493787	-135.676125	-77.904406	33.373124
12274		9.782070	0.585657	0.998865	-1.512299	0.477483	-0.579665	-136.769369	-78.334242	33.602357
12275		9.926408	0.358658	0.158532	-1.512066	0.405171	-0.678311	-138.261403	-78.769955	34.238386
12276		10.124024	-0.035535	-0.824544	-1.443754	0.291658	-0.778153	-140.249047	-79.190466	35.418116
12277		10.146890	-0.441427	-1.678662	-1.339022	0.191736	-0.874208	-142.727469	-79.590626	37.156739
12278		9.971827	-0.851731	-2.243676	-1.177488	0.091213	-0.947805	-145.659990	-79.954001	39.448539
12279		9.776387	-1.160137	-2.454570	-1.000473	0.001752	-0.973393	-148.904757	-80.258976	42.158044
12280		9.800093	-1.549902	-2.572439	-0.841933	-0.035211	-0.942972	-152.210754	-80.510526	45.019345
12281		9.788591	-2.025378	-2.482188	-0.691703	0.005170	-0.886733	-155.345099	-80.740684	47.792083
12282		9.427040	-2.519617	-2.194778	-0.451777	0.085698	-0.846763	-158.244497	-80.980675	50.464068
12283		8.962842	-2.758532	-1.853654	-0.104330	0.104224	-0.856194	-161.094167	-81.210407	53.285649
12284		8.731911	-2.630194	-1.450856	0.303310	0.108994	-0.913177	-164.058179	-81.430491	56.457312
12285		8.730886	-2.265846	-1.238771	0.738368	0.106121	-1.016012	-167.311734	-81.636923	60.172072
12286		9.009670	-1.350834	-1.016714	1.094255	0.102267	-1.157659	-171.084052	-81.822834	64.615111
12287		9.355506	0.017831	-0.988328	1.130124	0.168384	-1.298833	-175.553201	-82.009164	69.780741
12288		9.493692	1.267979	-0.987941	0.816491	0.270152	-1.402465	179.163184	-82.193536	75.584748
12289		9.341437	2.192451	-0.903943	0.376543	0.277534	-1.432509	173.288032	-82.302319	81.729396
12290		9.315162	2.693813	-0.821223	-0.086447	0.168656	-1.426581	167.168368	-82.263001	87.852455
12291		9.509432	2.731324	-1.006871	-0.557285	0.074387	-1.428310	161.034503	-82.083691	93.719266
12292		9.653878	2.556811	-1.369276	-0.915994	0.074866	-1.444714	154.957547	-81.817122	99.324031
12293		9.805533	2.475211	-1.778039	-1.212760	0.101070	-1.464131	149.023913	-81.477990	104.616529
12294		10.150258	2.280825	-2.102920	-1.417726	0.158329	-1.480797	143.271097	-81.084078	109.612150
12295		10.448834	1.877229	-2.072689	-1.460459	0.274132	-1.487457	137.705416	-80.666492	114.399212
12296		10.491822	1.457145	-1.747763	-1.377432	0.367959	-1.464790	132.480911	-80.226230	118.894211
12297		10.431566	1.156004	-1.234710	-1.276394	0.408031	-1.435643	127.719772	-79.750822	122.983905
12298		10.123967	0.902381	-0.747661	-1.226697	0.396454	-1.405545	123.474436	-79.230728	126.584178
12299		9.973399	0.534473	-0.702644	-1.175924	0.319645	-1.414980	119.812102	-78.639549	129.626944
12300		9.955100	0.450484	-0.896060	-1.107226	0.221217	-1.468576	116.695834	-77.960626	132.158837
12301		9.959708	0.492435	-1.006377	-1.019075	0.148415	-1.565481	114.004101	-77.189141	134.314810
12302		10.125839	0.738663	-1.106201	-0.947984	0.114696	-1.670327	111.608573	-76.334475	136.215109
12303		10.248200	0.928095	-1.135277	-0.888070	0.165545	-1.761310	109.328467	-75.424651	138.039124
12304		10.160725	1.009882	-1.126189	-0.844932	0.254172	-1.813494	107.104771	-74.485066	139.837803
12305		10.159562	1.055213	-1.354408	-0.739035	0.291547	-1.834002	105.090760	-73.523992	141.489970
12306		10.201765	1.159328	-1.457922	-0.579726	0.296107	-1.828358	103.360346	-72.551978	142.949179
12307		9.931044	1.282644	-1.035039	-0.269789	0.251446	-1.815066	102.051797	-71.571226	144.159645
12308		9.591348	1.705757	-0.753513	0.045548	0.133878	-1.808674	101.235249	-70.573467	145.047853
12309		9.338923	2.170152	-0.809572	0.198599	0.007861	-1.825932	100.774099	-69.549365	145.656986
12310		9.198891	2.574918	-0.689434	0.231129	-0.055424	-1.830978	100.470900	-68.514181	146.120901
12311		8.967413	2.887279	-0.642630	0.170846	-0.049998	-1.828903	100.162838	-67.480054	146.556246
12312		8.838560	3.239472	-0.812639	0.072342	-0.038789	-1.821187	99.818531	-66.450331	146.972784
12313		8.911842	3.670141	-0.805408	-0.018755	-0.022867	-1.822561	99.435199	-65.420497	147.378303
12314		9.109121	4.177530	-0.523978	-0.063093	0.011062	-1.803310	99.021118	-64.403408	147.792922
12315		9.228062	4.627105	-0.358462	-0.087433	0.032162	-1.775983	98.605751	-63.402534	148.197083
12316		9.427507	4.993593	-0.471493	-0.186906	0.046887	-1.749913	98.151052	-62.416208	148.584787
12317		9.653056	5.159856	-0.461710	-0.269295	0.085052	-1.727503	97.641997	-61.444294	148.984215
12318		9.626324	5.323568	-0.355430	-0.391175	0.130604	-1.707516	97.049303	-60.485164	149.402948
12319		9.623656	5.173765	-0.500556	-0.539813	0.177530	-1.686764	96.360624	-59.538921	149.838298
12320		9.353297	4.888062	-0.630845	-0.636219	0.226330	-1.659084	95.606319	-58.608560	150.289792
12321		9.038780	4.559612	-0.562219	-0.658395	0.274604	-1.631775	94.831561	-57.693427	150.755044
12322		8.698945	4.457351	-0.461973	-0.663506	0.329268	-1.591833	94.040653	-56.800169	151.240506
12323		8.442246	4.287531	-0.414581	-0.670711	0.344071	-1.552583	93.267387	-55.926492	151.704923
12324		8.190320	4.207018	-0.377660	-0.609388	0.321927	-1.496402	92.578210	-55.081076	152.114509
12325		7.958483	4.198243	-0.374144	-0.571699	0.297782	-1.444976	91.956160	-54.261987	152.472636
12326		7.781854	4.059456	-0.347532	-0.513456	0.247242	-1.387074	91.427874	-53.473219	152.759461
12327		7.684659	4.036695	-0.359301	-0.401155	0.182376	-1.338036	91.029565	-52.710353	152.967263
12328		7.857531	4.054110	-0.092405	-0.272955	0.163911	-1.283994	90.729152	-51.977680	153.146119
12329		7.713774	4.039521	0.137557	-0.171893	0.177371	-1.227493	90.485683	-51.276808	153.328109
12330		7.405944	4.046161	0.212845	-0.065098	0.159043	-1.165790	90.322812	-50.611072	153.486706
12331		7.140013	4.337695	0.140274	0.019666	0.112602	-1.123249	90.245551	-49.969117	153.598795
12332		7.032686	4.835763	0.016387	0.033585	0.066852	-1.084474	90.209523	-49.349552	153.668133
12333		6.986503	5.400192	-0.090323	-0.050356	0.049539	-1.033348	90.139077	-48.758860	153.720156
12334		7.107101	5.766857	-0.239906	-0.156646	0.081077	-0.972787	89.989079	-48.203217	153.797388
12335		7.029303	5.820450	-0.339807	-0.266828	0.180849	-0.887769	89.716130	-47.695560	153.955984
12336		6.682536	5.450337	-0.274351	-0.299113	0.234759	-0.778706	89.394985	-47.250024	154.155937
12337		6.513438	5.391780	-0.068377	-0.170595	0.213065	-0.665068	89.164692	-46.868687	154.333857
12338		6.469749	5.698951	0.200981	-0.124686	0.169329	-0.560990	88.989013	-46.547401	154.473774
12339		6.313591	5.742704	0.326544	-0.195378	0.157270	-0.453948	88.781289	-46.286800	154.602824
12340		6.049852	5.781787	0.208264	-0.318177	0.154116	-0.362305	88.505393	-46.078827	154.729198
12341		5.865314	5.556304	-0.072951	-0.456300	0.148271	-0.275774	88.154402	-45.919569	154.850494
12342		5.628167	5.011883	-0.093212	-0.473151	0.131015	-0.180612	87.803066	-45.815102	154.958939
12343		5.405523	4.426477	0.063638	-0.331657	0.087374	-0.078082	87.557108	-45.769488	155.033762
12344		5.393593	4.124196	-0.288160	-0.082752	-0.030431	-0.001912	87.520985	-45.770742	155.014664
12345		5.797995	4.441397	-0.419861	0.216858	-0.109284	0.061476	87.701665	-45.809653	154.932732
12346		5.830662	4.956200	-0.455353	0.449669	-0.146933	0.120025	88.036724	-45.883186	154.821537
12347		6.029285	5.750357	-0.541427	0.644005	-0.202750	0.157811	88.516475	-45.978212	154.664180
12348		6.241296	6.569735	-0.364704	0.727821	-0.234862	0.192806	89.064023	-46.093263	154.479592
12349		6.433969	6.911761	-0.121812	0.678801	-0.254833	0.249351	89.596885	-46.239054	154.276866
12350		6.574882	6.784916	0.088460	0.550395	-0.238463	0.330475	90.048260	-46.430627	154.085644
12351		6.730705	6.646416	0.377095	0.399853	-0.244604	0.403061	90.419856	-46.662278	153.886184
12352		6.956019	6.716449	0.657221	0.211558	-0.271904	0.450925	90.703027	-46.920931	153.660802
12353		7.302954	7.154927	0.553879	-0.004806	-0.301156	0.472843	90.883201	-47.190763	153.407768
12354		7.455946	7.696891	0.172936	-0.216023	-0.250657	0.505514	90.913446	-47.479955	153.195124
12355		7.232981	7.815843	-0.199988	-0.426778	-0.176713	0.521537	90.778172	-47.778577	153.044135
12356		6.896812	7.357978	-0.316783	-0.472200	-0.144810	0.534910	90.596795	-48.085811	152.920842
12357		6.596495	6.686060	0.105179	-0.318679	-0.187188	0.540974	90.531075	-48.396006	152.761088
12358		6.516676	5.991943	0.472524	-0.140040	-0.269897	0.564033	90.622741	-48.719312	152.528630
12359		6.615478	5.364563	0.508795	-0.070898	-0.315773	0.591293	90.787430	-49.057167	152.253079
12360		6.612697	5.089755	0.429173	-0.072823	-0.306719	0.618529	90.948675	-49.410592	151.981957
12361		6.677339	5.259605	0.175292	-0.154587	-0.312379	0.638875	91.071027	-49.774771	151.701937
12362		6.855974	5.611190	-0.171570	-0.254936	-0.344879	0.657966	91.161610	-50.149620	151.389726
12363		7.164279	6.003555	-0.405371	-0.335928	-0.384294	0.661824	91.237235	-50.525481	151.038480
12364		7.437235	6.310744	-0.411840	-0.411306	-0.388420	0.666241	91.276467	-50.904031	150.680259
12365		7.514608	6.272636	-0.542751	-0.428642	-0.389818	0.699862	91.311742	-51.301238	150.316419
12366		7.287572	6.438922	-0.593124	-0.255261	-0.405387	0.752195	91.463277	-51.728257	149.932986
12367		6.618243	6.404039	0.089486	-0.275805	-0.430661	0.809623	91.629226	-52.186690	149.518703
12368		6.451924	5.780887	0.645771	-0.456930	-0.435567	0.874168	91.703135	-52.681843	149.092217
12369		6.881234	5.241048	0.436651	-0.542057	-0.475365	0.915388	91.766654	-53.199230	148.620555
12370		7.424164	4.925838	0.117092	-0.576802	-0.476105	0.956068	91.819553	-53.739959	148.140487
12371		7.618871	5.347638	0.001502	-0.548508	-0.470311	0.999903	91.894229	-54.305231	147.657021
12372		8.008822	7.002575	0.439260	-0.356638	-0.548431	0.992973	92.151724	-54.864506	147.087429
12373		9.285011	9.402543	-0.429980	0.224241	-0.839194	0.739539	92.987283	-55.267705	146.222150
12374		12.589680	10.999516	-0.525588	0.808564	-1.155577	0.196696	94.407228	-55.339253	145.055677
12375		13.735042	7.793765	-1.366625	0.328743	-0.921995	-0.164368	95.335616	-55.202154	144.152445
12376		11.605200	4.588142	-0.636505	0.026889	-0.214064	-0.194982	95.503149	-55.081227	143.964152
12377		9.160827	5.158971	1.606341	-0.429479	0.221215	-0.116183	95.059988	-55.028237	144.201787
12378		7.256817	3.950559	1.414781	-0.784580	0.248253	0.007792	94.400103	-55.046388	144.455524
12379		6.344663	4.099089	0.313482	-0.458544	0.095783	0.119875	94.058473	-55.120490	144.548946
12380		5.805579	4.655182	-0.101901	-0.078048	-0.054640	0.232634	94.063876	-55.253202	144.484908
12381		5.572259	4.752325	-0.142617	0.162089	-0.250641	0.367933	94.378639	-55.454428	144.212395
12382		6.132901	4.263145	-1.194004	0.471511	-0.608429	0.523628	95.184036	-55.726326	143.560651
12383		7.448590	4.203197	-2.034487	0.842736	-0.825410	0.628765	96.407222	-56.038653	142.663646
12384		8.377456	4.760688	-1.991705	1.107570	-0.801778	0.679429	97.786465	-56.370360	141.764712
12385		8.833580	5.825847	-1.275725	1.125773	-0.734244	0.706738	99.143461	-56.710794	140.908567
12386		9.349042	6.658364	-0.480545	0.752273	-0.677178	0.713696	100.258180	-57.050834	140.089448
12387		9.997893	7.162328	-0.022072	0.173893	-0.539413	0.690372	100.934570	-57.384786	139.400706
12388		10.267628	7.481709	0.037783	-0.292493	-0.407834	0.616339	101.225766	-57.688831	138.854125
12389		10.427185	7.625013	-0.238444	-0.740795	-0.229561	0.531832	101.092181	-57.964339	138.507784
12390		10.227368	6.641009	-0.188891	-1.201314	0.064685	0.484821	100.419978	-58.246478	138.485941
12391		9.195230	5.179913	-0.393995	-1.278099	0.237397	0.453741	99.535016	-58.528017	138.662505
12392		8.180764	3.924133	-0.762100	-1.058401	0.247270	0.457857	98.758284	-58.811760	138.858994
12393		7.313844	3.350915	-0.763752	-0.651143	0.153660	0.529477	98.306882	-59.126672	138.947716
12394		6.786748	3.380538	-0.832390	-0.171462	-0.082514	0.616955	98.364511	-59.471809	138.763584
12395		6.880258	3.373156	-1.146728	0.136184	-0.306455	0.696666	98.832500	-59.842077	138.309065
12396		7.154298	3.353300	-1.219969	0.362202	-0.476084	0.729796	99.613842	-60.213428	137.643871
12397		7.810143	3.494506	-1.170978	0.577303	-0.639904	0.734742	100.701584	-60.565098	136.770557
12398		8.876231	3.959262	-1.360439	0.763427	-0.752017	0.717278	102.027788	-60.885635	135.748910
12399		9.877451	4.692130	-1.425788	0.795546	-0.772465	0.683604	103.410485	-61.172367	134.686840
12400		10.581661	5.417422	-1.373254	0.621403	-0.706275	0.640824	104.637168	-61.433271	133.691603
12401		10.863946	5.974578	-1.326006	0.336960	-0.591819	0.613962	105.595380	-61.686703	132.818833
12402		10.862999	6.124210	-1.155370	0.052889	-0.481162	0.610633	106.290734	-61.950246	132.061680
12403		10.555706	5.966851	-0.953617	-0.181088	-0.327151	0.619443	106.707983	-62.239647	131.469526
12404		10.025069	5.326687	-0.916846	-0.339800	-0.186016	0.647356	106.904377	-62.566780	131.025560
12405		9.541271	4.424756	-1.218168	-0.407198	-0.102703	0.694389	106.996724	-62.932556	130.656666
12406		9.088657	3.342545	-1.484074	-0.366812	-0.094330	0.761056	107.131634	-63.336460	130.267174
12407		8.755049	2.696352	-1.692401	-0.182812	-0.150760	0.841572	107.471969	-63.773521	129.767516
12408		8.686573	2.467766	-1.998646	0.024172	-0.260937	0.901614	108.091533	-64.222803	129.090988
12409		8.918626	2.519452	-1.870908	0.175820	-0.342567	0.924788	108.924059	-64.665418	128.277303
12410		9.239176	2.692331	-1.874307	0.243369	-0.362531	0.920925	109.845499	-65.097431	127.411110
12411		9.438430	2.952159	-1.935138	0.280887	-0.374480	0.907613	110.827673	-65.513039	126.504689
12412		9.714849	3.259736	-2.119212	0.305682	-0.355927	0.877406	111.819513	-65.910579	125.606235
12413		9.738658	3.216854	-2.148365	0.213907	-0.301683	0.865885	112.718249	-66.306861	124.754814
12414		9.571074	3.015037	-2.396880	0.214781	-0.268334	0.861895	113.604070	-66.703947	123.920709
12415		9.363456	2.952762	-2.466845	0.253076	-0.261047	0.872440	114.537903	-67.102115	123.060647
12416		9.072094	2.956689	-2.458835	0.303843	-0.269397	0.886202	115.551169	-67.500440	122.148686
12417		8.977957	2.927487	-2.038297	0.352165	-0.298233	0.888864	116.663710	-67.885444	121.161774
12418		8.916993	2.968374	-1.705001	0.376126	-0.303613	0.881275	117.828846	-68.258475	120.135801
12419		8.991449	2.903454	-1.511624	0.331555	-0.277776	0.871848	118.965021	-68.625206	119.115960
12420		9.014748	2.766688	-1.409203	0.268225	-0.231603	0.864828	120.037403	-68.995000	118.128380
12421		9.004537	2.605194	-1.630226	0.220949	-0.170771	0.856640	121.032086	-69.371139	117.197215
12422		8.809529	2.407184	-1.781729	0.202319	-0.124431	0.845088	121.981555	-69.750683	116.305420
12423		8.642941	2.281804	-1.790904	0.209967	-0.088871	0.811601	122.892917	-70.119016	115.460803
12424		8.506403	2.143247	-1.978301	0.254066	-0.072078	0.773467	123.806651	-70.470573	114.642635
12425		8.528927	2.049028	-2.129205	0.280842	-0.100342	0.750122	124.782190	-70.796516	113.776718
12426		8.831424	1.678293	-2.158385	0.315171	-0.159564	0.728192	125.868955	-71.088212	112.815795
12427		9.146656	1.463285	-2.248491	0.329486	-0.179165	0.724241	127.016524	-71.364408	111.800710
12428		9.164833	1.207298	-2.781129	0.299324	-0.199212	0.724658	128.207787	-71.627920	110.723205
12429		9.165415	1.283242	-3.212335	0.413047	-0.268483	0.726910	129.591106	-71.858914	109.513354
12430		9.046577	1.708156	-3.105309	0.477290	-0.318551	0.720083	131.105050	-72.059547	108.206652
12431		8.936092	2.091608	-2.756727	0.485022	-0.304605	0.701196	132.610610	-72.245889	106.914517
12432		8.900502	2.331079	-2.356684	0.484689	-0.317474	0.669208	134.123661	-72.404124	105.615918
12433		9.025456	2.426654	-2.023430	0.426237	-0.339062	0.634819	135.607607	-72.528544	104.313380
12434		9.197280	2.293567	-2.034996	0.331602	-0.321601	0.622917	137.021103	-72.646237	103.029069
12435		9.331696	2.104827	-2.118971	0.290005	-0.293087	0.627547	138.396833	-72.767720	101.759834
12436		9.364732	1.879581	-2.305992	0.237896	-0.258472	0.641227	139.741148	-72.900996	100.493457
12437		9.416194	1.777284	-2.501163	0.190799	-0.197445	0.657416	141.026752	-73.057867	99.260894
12438		9.233850	1.673945	-2.453984	0.180066	-0.165413	0.661288	142.300550	-73.223026	98.035653
12439		8.981924	1.533537	-2.521620	0.185700	-0.156206	0.646859	143.565806	-73.378902	96.823377
12440		8.743035	1.405469	-2.499472	0.216815	-0.185653	0.627366	144.876793	-73.507248	95.583254
12441		8.522264	1.457669	-2.851592	0.196302	-0.234198	0.620845	146.233983	-73.601740	94.283052
12442		8.442342	1.444549	-3.027065	0.196918	-0.304815	0.610835	147.666864	-73.650679	92.905183
12443		8.478229	1.394648	-3.013150	0.226625	-0.378690	0.609425	149.192601	-73.652628	91.448087
12444		8.640814	1.501661	-2.563666	0.260648	-0.418298	0.613732	150.785838	-73.625363	89.941256
12445		8.769358	1.722758	-2.302558	0.249004	-0.431622	0.604417	152.358596	-73.576786	88.448135
12446		9.042781	1.822804	-1.838173	0.184638	-0.428953	0.582269	153.847241	-73.512876	87.004219
12447		9.745627	1.998352	-1.418636	0.128945	-0.397108	0.552053	155.209786	-73.447572	85.657679
12448		10.502577	1.636351	-1.415731	-0.022008	-0.312423	0.534891	156.382841	-73.414319	84.418618
12449		10.869972	0.716827	-1.539061	-0.091820	-0.191466	0.523889	157.398948	-73.435331	83.301172
12450		10.702484	0.141388	-2.123365	0.003846	-0.058365	0.494698	158.328457	-73.515611	82.331874
12451		10.042617	0.016428	-2.616607	0.149240	0.028613	0.477041	159.255158	-73.633885	81.452498
12452		9.181827	-0.010172	-2.663853	0.271724	0.036984	0.486570	160.280625	-73.754670	80.544249
12453		8.546593	0.009762	-2.665196	0.328417	-0.030663	0.519451	161.453718	-73.839739	79.516195
12454		8.307819	0.219145	-2.849425	0.390274	-0.117549	0.559131	162.803804	-73.878410	78.341506
12455		8.471355	0.369367	-2.961352	0.455803	-0.206345	0.595471	164.310446	-73.865705	77.042607
12456		8.863588	0.516798	-2.950415	0.483056	-0.261213	0.607154	165.882679	-73.814912	75.691889
12457		9.306361	0.671538	-2.736826	0.492205	-0.276139	0.597386	167.433878	-73.744046	74.367698
12458		9.664558	0.776554	-2.749331	0.475951	-0.227279	0.550124	168.857287	-73.685630	73.166927
12459		9.712040	1.002145	-2.668140	0.422818	-0.154682	0.485438	170.087655	-73.653393	72.134883
12460		9.572428	1.037279	-2.431653	0.286417	-0.061323	0.431372	171.106646	-73.663327	71.242031
12461		9.239507	0.872017	-2.522803	0.228002	-0.037260	0.396982	172.016018	-73.679648	70.428171
12462		9.105512	0.989038	-2.821450	0.251044	-0.061552	0.397056	172.949861	-73.678623	69.603000
12463		8.849637	0.940402	-2.727825	0.235296	-0.043096	0.408493	173.889019	-73.684949	68.762501
12464		8.777888	0.656290	-2.631735	0.147103	-0.048700	0.423617	174.812152	-73.685176	67.886442
12465		8.890513	0.414612	-2.753459	0.099628	-0.077183	0.462167	175.783670	-73.666813	66.931202
12466		9.260833	0.204077	-2.712926	0.064408	-0.100927	0.490047	176.792984	-73.631308	65.915781
12467		9.570662	-0.044586	-2.587291	0.050869	-0.081946	0.496376	177.797355	-73.601798	64.896889
12468		9.719986	-0.170655	-2.437060	0.020137	-0.047556	0.462814	178.717019	-73.586590	63.948197
12469		9.685474	-0.346917	-2.625838	0.009074	-0.029106	0.417533	179.536709	-73.577494	63.096689
12470		9.592166	-0.360326	-2.777931	0.108370	-0.012706	0.358831	-179.698161	-73.574427	62.361727
12471		9.294921	-0.238773	-2.685195	0.197931	0.019794	0.308477	-178.982376	-73.587631	61.731345
12472		8.978727	-0.185783	-2.562482	0.199215	0.046415	0.279664	-178.315846	-73.614312	61.153522
12473		8.926509	-0.322751	-2.621098	0.223168	0.013492	0.280560	-177.638098	-73.620229	60.577975
12474		9.051050	-0.429031	-2.824326	0.315354	-0.032387	0.289998	-176.889895	-73.597582	59.984408
12475		9.080341	-0.430056	-2.737358	0.341205	-0.053550	0.271807	-176.170405	-73.561360	59.435738
12476		9.189945	-0.638559	-2.961347	0.262731	-0.063372	0.238429	-175.560921	-73.519049	58.955175
12477		9.486960	-0.595342	-3.008734	0.420617	-0.084223	0.215431	-174.915312	-73.464507	58.530770
12478		9.803250	-0.351916	-3.591624	0.710053	-0.059823	0.186348	-174.154966	-73.423900	58.159975
12479		9.692460	0.111032	-3.293182	0.779400	0.023518	0.096307	-173.515793	-73.435125	57.956622
12480		9.201705	-0.000789	-2.598128	0.545343	0.073875	0.078207	-173.029670	-73.475507	57.773458
12481		9.325453	0.415894	-1.946149	0.542283	0.034753	0.091647	-172.531216	-73.492385	57.575233
12482		9.528425	0.461899	-1.923338	0.331341	0.030681	0.105600	-172.123783	-73.505327	57.346282
12483		9.591833	-0.173217	-2.344745	0.213503	-0.011533	0.091681	-171.825159	-73.495147	57.160018
12484		9.674262	-0.490294	-2.845206	0.265300	-0.015071	0.071346	-171.533661	-73.484317	57.012495
