// General information: 
//  MT Manager version: 2022.2.0 
//  XDA version: 2022.2.0 build 7381 rev 124627 built on 2023-07-19
// Device information: 
//  DeviceId: 00B4BAF3
//  ProductCode: MTW2-3A7G6
//  Firmware Version: 4.6.0
//  Hardware Version: 2.0.0
// Device settings: 
//  Filter Profile: human(46.1)
//  Option Flags: Orientation Smoother Disabled, Position/Velocity Smoother Disabled, Continuous Zero Rotation Update Disabled, AHS Disabled, ICC Disabled
// Coordinate system: ENU
PacketCounter	SampleTimeFine	Acc_X	Acc_Y	Acc_Z	Gyr_X	Gyr_Y	Gyr_Z	Roll	Pitch	Yaw
13917		9.702147	-0.571766	-0.778895	0.062924	0.101297	0.099037	-139.806507	-84.810291	-176.626787
13918		9.751061	-0.684362	-0.620110	0.087131	0.086930	0.095333	-138.955855	-84.810194	-177.430887
13919		9.803289	-0.827647	-0.528296	0.106449	0.079281	0.096499	-138.125220	-84.805385	-178.203766
13920		9.794746	-0.772585	-0.352899	0.147952	0.072381	0.098693	-137.287151	-84.795691	-178.960251
13921		9.821743	-0.588680	-0.173408	0.137333	0.066981	0.103761	-136.463091	-84.780864	-179.708783
13922		9.781604	-0.424316	-0.097447	0.108105	0.073026	0.113686	-135.584281	-84.763513	179.470855
13923		9.740883	-0.254095	-0.195975	0.013320	0.074640	0.120966	-134.731651	-84.742815	178.622238
13924		9.723133	-0.263598	-0.379652	-0.067640	0.085675	0.127883	-133.847537	-84.722565	177.695375
13925		9.682817	-0.370045	-0.518606	-0.131145	0.088690	0.128194	-132.997468	-84.702052	176.766147
13926		9.654264	-0.572285	-0.647705	-0.150612	0.095395	0.128060	-132.130249	-84.683017	175.808448
13927		9.559283	-0.802834	-0.740776	-0.138460	0.091677	0.123845	-131.302281	-84.662962	174.897149
13928		9.563120	-1.137879	-0.771130	-0.093610	0.079901	0.115973	-130.536173	-84.640792	174.073743
13929		9.634058	-1.312801	-0.764170	-0.032406	0.083559	0.112275	-129.744153	-84.620486	173.259520
13930		9.708950	-1.381570	-0.679844	0.038055	0.081073	0.117351	-128.904890	-84.595889	172.438349
13931		9.783609	-1.302908	-0.592073	0.099193	0.074302	0.122152	-128.058150	-84.565656	171.644833
13932		9.791381	-1.090783	-0.570368	0.131785	0.080336	0.118120	-127.181653	-84.538054	170.840128
13933		9.785612	-0.916300	-0.423422	0.158241	0.083414	0.109228	-126.321445	-84.514630	170.066997
13934		9.761319	-0.723569	-0.330931	0.146909	0.084706	0.099685	-125.494979	-84.494748	169.321196
13935		9.730774	-0.616561	-0.351421	0.090509	0.094426	0.096670	-124.675882	-84.478704	168.550327
13936		9.657372	-0.588801	-0.382109	0.042917	0.092979	0.090640	-123.909071	-84.463813	167.804556
13937		9.673988	-0.593491	-0.355255	0.006050	0.100467	0.080644	-123.169450	-84.455342	167.064882
13938		9.649123	-0.697607	-0.301312	-0.004992	0.100585	0.072417	-122.457323	-84.449792	166.346450
13939		9.593185	-0.832438	-0.279515	-0.012019	0.104621	0.066947	-121.754101	-84.447450	165.632933
13940		9.588314	-0.945283	-0.345497	-0.042391	0.104170	0.049312	-121.117970	-84.452628	164.969322
13941		9.662874	-0.994167	-0.364614	-0.053946	0.092641	0.045906	-120.563116	-84.455595	164.380740
13942		9.723883	-1.087921	-0.327729	-0.045342	0.095776	0.049481	-119.968856	-84.456935	163.757505
13943		9.702904	-1.051513	-0.376362	-0.023331	0.082192	0.051066	-119.434340	-84.453236	163.206981
13944		9.696174	-0.987405	-0.410684	0.002102	0.078157	0.049130	-118.904603	-84.448644	162.675876
13945		9.683564	-0.871265	-0.415838	0.005404	0.078318	0.045829	-118.390044	-84.445536	162.161939
13946		9.679983	-0.847626	-0.376357	0.024618	0.078287	0.036413	-117.883314	-84.446464	161.666907
13947		9.652656	-0.771823	-0.290860	0.033916	0.076686	0.038098	-117.382795	-84.445968	161.183487
13948		9.616917	-0.758195	-0.321400	0.013800	0.066755	0.030934	-116.957207	-84.445880	160.763751
13949		9.680834	-0.722870	-0.247408	0.002867	0.064826	0.032177	-116.552792	-84.444637	160.359016
13950		9.680860	-0.743381	-0.169829	-0.007435	0.066669	0.039458	-116.117751	-84.439593	159.917556
13951		9.664088	-0.750773	-0.181404	-0.032172	0.060205	0.040777	-115.736647	-84.432194	159.516064
13952		9.691311	-0.833977	-0.253705	-0.042763	0.056951	0.036307	-115.382751	-84.425842	159.135788
13953		9.711295	-0.878900	-0.191227	-0.045037	0.062842	0.041030	-114.996389	-84.418455	158.721597
13954		9.720818	-0.944714	-0.317892	-0.071559	0.061878	0.033130	-114.641988	-84.414481	158.324228
13955		9.724358	-0.975216	-0.344233	-0.057210	0.062828	0.029875	-114.291371	-84.412401	157.938939
13956		9.742225	-0.961085	-0.426485	-0.049103	0.063678	0.038071	-113.903565	-84.405763	157.520928
13957		9.712501	-1.016600	-0.416578	-0.024922	0.063164	0.041488	-113.506500	-84.397169	157.107548
13958		9.733550	-1.065601	-0.387767	0.010191	0.064560	0.043702	-113.069278	-84.387166	156.674008
13959		9.752178	-1.090720	-0.360814	0.039680	0.069049	0.044569	-112.599421	-84.377642	156.224665
13960		9.719947	-1.122699	-0.351754	0.055983	0.074859	0.042033	-112.087261	-84.370031	155.742173
13961		9.753112	-1.103170	-0.379800	0.067398	0.071132	0.047110	-111.587989	-84.358836	155.279216
13962		9.728630	-1.018136	-0.433888	0.082621	0.080354	0.042818	-111.032185	-84.351053	154.768187
13963		9.767732	-1.105481	-0.310396	0.115844	0.085178	0.045330	-110.436465	-84.342788	154.236190
13964		9.796189	-1.247782	-0.232630	0.136990	0.089976	0.036682	-109.812445	-84.339133	153.687901
13965		9.747438	-1.282681	-0.238082	0.146917	0.093086	0.036179	-109.176290	-84.336190	153.133154
13966		9.695696	-1.272957	-0.283295	0.159527	0.085780	0.036031	-108.564724	-84.330864	152.610347
13967		9.687878	-1.221115	-0.209729	0.179541	0.086117	0.036498	-107.949186	-84.325316	152.095091
13968		9.637358	-1.096067	-0.111622	0.190204	0.083383	0.035349	-107.336387	-84.318779	151.588695
13969		9.569203	-0.933396	-0.106350	0.184912	0.079338	0.029623	-106.769003	-84.314788	151.124914
13970		9.533937	-0.762497	-0.066785	0.140663	0.076901	0.016194	-106.253232	-84.316726	150.687494
13971		9.598174	-0.708654	-0.062071	0.085660	0.072508	0.004017	-105.821744	-84.324941	150.303136
13972		9.712503	-0.683549	0.069333	0.049153	0.062844	0.004898	-105.452594	-84.330336	149.960379
13973		9.811821	-0.802939	0.042557	0.018090	0.068106	0.014657	-105.066399	-84.331489	149.582637
13974		9.794858	-0.788319	-0.005458	-0.003081	0.072839	0.022873	-104.643462	-84.328000	149.155758
13975		9.656860	-0.783665	-0.041102	-0.014796	0.072089	0.024832	-104.239447	-84.323543	148.741171
13976		9.578864	-0.676012	-0.086549	-0.012005	0.060543	0.026532	-103.886138	-84.315774	148.379119
13977		9.589232	-0.643094	0.002058	0.014052	0.048520	0.033798	-103.586782	-84.302616	148.086308
13978		9.625502	-0.667445	0.011031	0.016232	0.045325	0.038440	-103.288575	-84.285867	147.795879
13979		9.654937	-0.599663	-0.026464	-0.014539	0.040902	0.041577	-103.040877	-84.267087	147.538504
13980		9.717252	-0.545400	0.008616	-0.062065	0.042669	0.051237	-102.789252	-84.242670	147.249791
13981		9.721215	-0.598701	0.018331	-0.116773	0.047134	0.051680	-102.556731	-84.218806	146.948775
13982		9.733063	-0.708089	-0.034873	-0.147213	0.046118	0.048879	-102.341822	-84.195998	146.647911
13983		9.698451	-0.872442	-0.102391	-0.156962	0.043345	0.054125	-102.154455	-84.170081	146.369111
13984		9.665759	-1.061213	-0.167890	-0.155755	0.041336	0.059463	-101.962293	-84.140608	146.086169
13985		9.675676	-1.208114	-0.114931	-0.124554	0.030643	0.063064	-101.819668	-84.108003	145.870985
13986		9.658928	-1.237502	-0.094134	-0.104299	0.032899	0.054213	-101.654093	-84.080295	145.644381
13987		9.724812	-1.191999	-0.128620	-0.107759	0.037549	0.057229	-101.474907	-84.051635	145.402091
13988		9.722111	-1.152311	-0.165564	-0.108499	0.045488	0.048313	-101.253946	-84.028463	145.117357
13989		9.681287	-1.108034	-0.135612	-0.109261	0.034953	0.051909	-101.099086	-84.002335	144.898639
13990		9.698948	-1.133916	-0.112608	-0.098118	0.038176	0.054377	-100.908685	-83.974738	144.650588
13991		9.662089	-1.159074	-0.040540	-0.087270	0.035324	0.053387	-100.741235	-83.947679	144.431858
13992		9.645310	-1.187934	-0.019311	-0.084865	0.033008	0.049802	-100.578719	-83.921928	144.219460
13993		9.668790	-1.224264	-0.099927	-0.089511	0.023286	0.050442	-100.482185	-83.895150	144.070737
13994		9.682539	-1.160062	-0.156705	-0.077843	0.029855	0.047121	-100.337398	-83.870447	143.880196
13995		9.702189	-1.168367	-0.205282	-0.062101	0.028585	0.049447	-100.200717	-83.844699	143.706875
13996		9.636788	-1.227240	-0.201364	-0.027313	0.028384	0.048395	-100.036225	-83.818996	143.525616
13997		9.648613	-1.180278	-0.186123	-0.004420	0.023897	0.048110	-99.894792	-83.793440	143.380741
13998		9.642304	-1.132910	-0.154705	0.004505	0.021986	0.045055	-99.750952	-83.768859	143.238577
13999		9.718896	-1.073363	-0.067561	0.009523	0.021324	0.050870	-99.614722	-83.741419	143.106958
14000		9.743063	-0.996039	-0.002746	0.011497	0.020343	0.052970	-99.470720	-83.712128	142.968647
14001		9.702406	-0.952345	0.026979	0.005404	0.024861	0.057192	-99.315873	-83.681373	142.815910
14002		9.738076	-0.979172	0.033495	-0.019637	0.022047	0.054391	-99.182236	-83.651388	142.670067
14003		9.710714	-1.063115	0.006732	-0.041160	0.018202	0.049644	-99.096657	-83.624223	142.560165
14004		9.710844	-1.005890	-0.102134	-0.056296	0.025797	0.055633	-98.966104	-83.593832	142.396277
14005		9.697759	-1.062698	-0.112984	-0.058205	0.030399	0.054615	-98.827051	-83.564883	142.222722
14006		9.715689	-1.047578	-0.163693	-0.049779	0.029827	0.057218	-98.674164	-83.533871	142.040100
14007		9.669626	-1.152337	-0.136847	-0.050664	0.031000	0.057963	-98.528217	-83.502976	141.863935
14008		9.728651	-1.252275	-0.138716	-0.034378	0.033042	0.054522	-98.355761	-83.473652	141.670478
14009		9.680986	-1.311640	-0.150695	0.003225	0.031681	0.053644	-98.181835	-83.445148	141.497207
14010		9.714303	-1.335315	-0.108707	0.022908	0.034210	0.058820	-97.971165	-83.413303	141.298300
14011		9.659206	-1.319143	-0.093537	0.035776	0.025543	0.060154	-97.807538	-83.380491	141.154151
14012		9.658866	-1.303934	-0.128300	0.049938	0.004883	0.055392	-97.730107	-83.348153	141.104945
14013		9.746105	-1.191030	0.005793	0.063741	0.009255	0.055499	-97.635032	-83.316678	141.045928
14014		9.689891	-1.129501	-0.019785	0.064008	0.015337	0.058948	-97.498014	-83.283069	140.944837
14015		9.622099	-1.164708	-0.018780	0.053200	0.016042	0.062367	-97.373749	-83.248166	140.850338
14016		9.599379	-1.142404	0.030914	0.046478	0.008458	0.059633	-97.281317	-83.213622	140.784019
14017		9.580448	-1.147572	0.048354	0.033522	0.007689	0.058587	-97.212335	-83.180226	140.733827
14018		9.646945	-1.123828	0.050756	0.014070	0.012399	0.055605	-97.123351	-83.148240	140.652274
14019		9.631807	-1.156167	0.036697	-0.001848	0.016053	0.050692	-97.041025	-83.119907	140.568223
14020		9.632280	-1.119709	-0.035982	-0.019251	0.008042	0.052668	-96.994439	-83.089273	140.510141
14021		9.653668	-1.152876	-0.083438	-0.024098	0.006465	0.049367	-96.971639	-83.061009	140.473200
14022		9.667646	-1.130676	-0.067400	-0.018239	0.009357	0.054255	-96.918189	-83.029567	140.408783
14023		9.650356	-1.159342	-0.047917	-0.014015	0.009399	0.049039	-96.876835	-83.001685	140.358966
14024		9.685719	-1.185920	-0.042915	-0.016820	0.005698	0.049106	-96.843206	-82.972922	140.315333
14025		9.689104	-1.284145	0.002221	-0.017642	0.011606	0.049694	-96.794118	-82.944809	140.255622
14026		9.670839	-1.267503	-0.017737	-0.021562	0.007735	0.046898	-96.755599	-82.917429	140.204322
14027		9.690633	-1.276134	-0.067713	-0.044397	0.011295	0.048356	-96.724760	-82.890047	140.147546
14028		9.668775	-1.231784	-0.056009	-0.045272	0.012471	0.049101	-96.677654	-82.861709	140.073897
14029		9.616193	-1.217260	-0.077971	-0.052875	0.011943	0.045705	-96.650863	-82.835869	140.016299
14030		9.655905	-1.316302	-0.065496	-0.062977	0.013791	0.045835	-96.610430	-82.809466	139.939145
14031		9.609161	-1.398405	-0.077573	-0.052138	0.011926	0.043664	-96.585008	-82.784778	139.883345
14032		9.610746	-1.405662	-0.111500	-0.044295	0.009758	0.037790	-96.556812	-82.762650	139.829308
14033		9.643902	-1.427957	-0.072418	-0.025853	0.008407	0.039018	-96.534990	-82.740371	139.792314
14034		9.634767	-1.352293	-0.010528	-0.004600	0.010750	0.040187	-96.478895	-82.716893	139.733072
14035		9.653222	-1.335989	-0.062271	0.006636	0.013805	0.042753	-96.413119	-82.692827	139.670528
14036		9.667384	-1.313053	-0.045053	0.010287	0.016337	0.041928	-96.323570	-82.668676	139.586153
14037		9.697843	-1.221224	-0.085380	0.006540	0.020819	0.040073	-96.229107	-82.646551	139.494623
14038		9.695958	-1.201082	-0.086031	0.000314	0.015934	0.044568	-96.146871	-82.620839	139.411853
14039		9.675770	-1.180605	-0.070657	-0.004158	0.019320	0.045982	-96.063471	-82.595221	139.325287
14040		9.673884	-1.160765	-0.071362	-0.003314	0.018154	0.045221	-95.974457	-82.569260	139.233580
14041		9.655047	-1.164757	-0.053580	0.005235	0.015235	0.050365	-95.902690	-82.540871	139.164162
14042		9.670549	-1.167131	-0.033740	0.003757	0.018920	0.055483	-95.802993	-82.509099	139.065757
14043		9.620656	-1.201968	-0.050189	-0.009693	0.006734	0.064120	-95.771675	-82.472355	139.028503
14044		9.743191	-1.160728	-0.133531	-0.001709	0.002271	0.060775	-95.745732	-82.436614	139.001325
14045		9.771209	-1.133863	-0.064736	0.000596	0.012086	0.066172	-95.685426	-82.398999	138.940767
14046		9.698521	-1.161993	0.003717	-0.010177	0.017619	0.069400	-95.596184	-82.359237	138.844830
14047		9.614933	-1.179056	-0.051541	-0.025551	0.011203	0.075763	-95.551956	-82.316084	138.785368
14048		9.635455	-1.169804	-0.138350	-0.033605	0.003958	0.081899	-95.530116	-82.268451	138.743887
14049		9.649356	-1.151100	-0.122567	-0.030415	0.005601	0.089196	-95.507730	-82.217320	138.703643
14050		9.678149	-1.106130	-0.090917	-0.032911	0.006875	0.093946	-95.469536	-82.163009	138.646051
14051		9.675862	-1.091626	-0.093253	-0.017486	0.001072	0.108231	-95.451869	-82.100769	138.618038
14052		9.737876	-1.022621	-0.062322	-0.003384	-0.000365	0.114636	-95.419658	-82.034315	138.583557
14053		9.655578	-0.816599	-0.054347	0.007753	-0.007296	0.135331	-95.411880	-81.956161	138.580123
14054		9.645758	-0.636805	-0.074722	0.010941	-0.011968	0.161835	-95.401047	-81.862262	138.575523
14055		9.666472	-0.451196	-0.024984	-0.002442	-0.016126	0.189152	-95.414066	-81.752932	138.587197
14056		9.746788	-0.322934	-0.053184	-0.006448	-0.012658	0.218007	-95.395360	-81.627155	138.564586
14057		9.807460	-0.148653	-0.069961	-0.015806	-0.012672	0.252886	-95.379582	-81.481656	138.539414
14058		9.769938	0.010537	-0.161140	-0.022949	-0.009819	0.295743	-95.333756	-81.311966	138.479818
14059		9.835980	0.193777	-0.248327	-0.017083	-0.004981	0.343172	-95.261873	-81.115359	138.397112
14060		9.773495	0.382409	-0.187342	-0.049446	0.003740	0.401666	-95.153411	-80.886282	138.258691
14061		9.840880	0.296907	-0.403329	-0.106694	0.022810	0.441404	-95.013308	-80.634978	138.054747
14062		9.870162	0.381092	-0.341668	-0.078099	0.031711	0.476330	-94.818757	-80.364980	137.812227
14063		10.099109	0.335887	-0.080725	-0.102515	0.048911	0.520212	-94.589375	-80.069689	137.519793
14064		10.044614	0.215074	0.015108	-0.159084	0.064864	0.576916	-94.336332	-79.743869	137.170333
14065		9.997158	0.148279	-0.033583	-0.217040	0.045132	0.647641	-94.185771	-79.375232	136.890725
14066		9.947005	0.005887	-0.042187	-0.253874	0.049623	0.710162	-94.038230	-78.972717	136.592602
14067		9.928397	-0.263104	-0.038683	-0.264603	0.041308	0.760154	-93.932414	-78.539379	136.330078
14068		9.989203	-0.532732	0.020113	-0.254431	0.044603	0.795330	-93.813382	-78.088151	136.059894
14069		10.090030	-0.974085	0.147353	-0.253612	0.053797	0.829580	-93.684020	-77.615380	135.778868
14070		10.112103	-1.464032	0.012586	-0.231142	0.059358	0.858369	-93.533287	-77.128680	135.488959
14071		10.077924	-1.855721	-0.118439	-0.186645	0.033808	0.882035	-93.437144	-76.624948	135.280365
14072		10.206057	-2.278461	-0.205739	-0.122544	-0.000631	0.899619	-93.388238	-76.112518	135.158107
14073		10.307263	-2.810746	-0.078243	-0.023570	0.000301	0.926397	-93.289229	-75.582174	135.042007
14074		10.583604	-2.865401	0.110434	0.127797	-0.005043	0.946276	-93.116900	-75.042783	134.939890
14075		10.943175	-2.707114	0.065591	0.274235	0.028314	0.965324	-92.805339	-74.490819	134.779767
14076		10.901263	-2.647032	-0.004972	0.382474	0.068396	0.986846	-92.362454	-73.929859	134.547629
14077		10.518945	-1.876194	0.365401	0.457631	0.098760	1.009409	-91.844562	-73.353566	134.281093
14078		9.892747	-1.761712	0.430427	0.408193	0.051861	1.039192	-91.461053	-72.761575	134.125110
14079		9.684953	-2.252642	0.242343	0.349568	-0.021792	1.019557	-91.264940	-72.176906	134.129421
14080		9.933251	-2.138177	0.238283	0.274760	-0.050901	0.984783	-91.163805	-71.614721	134.189143
14081		10.248329	-2.333260	-0.030221	0.182667	-0.074800	0.946703	-91.161550	-71.071177	134.297160
14082		10.745909	-2.707419	-0.044733	0.215613	-0.059529	0.911766	-91.109650	-70.550977	134.373558
14083		11.085250	-2.839644	0.189116	0.340820	-0.021674	0.910260	-90.930751	-70.028940	134.390887
14084		11.105626	-3.006965	0.122690	0.359409	0.028380	0.926224	-90.663835	-69.501535	134.326481
14085		10.810859	-3.239999	0.110351	0.354953	0.120981	0.936000	-90.273329	-68.965497	134.126281
14086		10.271717	-3.148411	0.106003	0.287301	0.183226	0.955755	-89.840989	-68.421205	133.839567
14087		9.553121	-3.159906	0.124322	0.169525	0.224951	0.969124	-89.438104	-67.864843	133.510068
14088		8.451053	-3.365099	0.456354	0.033193	0.160432	0.962455	-89.214465	-67.315717	133.289447
14089		7.821895	-3.664357	0.253481	-0.127480	0.042733	0.905267	-89.252562	-66.796482	133.251432
14090		7.416670	-3.829011	-0.019200	-0.245868	-0.013060	0.821231	-89.425450	-66.329367	133.287093
14091		7.075604	-4.357266	0.064646	-0.344249	-0.037111	0.746398	-89.684421	-65.901601	133.354534
14092		6.964935	-5.311520	0.380923	-0.307364	-0.068635	0.673653	-89.952558	-65.518800	133.456271
14093		6.973212	-6.009302	0.281333	-0.281375	-0.155589	0.611557	-90.312203	-65.167881	133.674536
14094		7.238044	-6.601134	-0.629710	-0.298199	-0.247871	0.517696	-90.783793	-64.872378	134.007075
14095		7.547083	-6.538885	-0.848003	-0.025875	-0.257786	0.375665	-91.110211	-64.654370	134.351475
14096		7.082490	-5.923734	-0.284126	0.381924	-0.210952	0.172756	-91.144221	-64.554792	134.632019
14097		6.244892	-5.322396	0.416398	0.732739	-0.149849	-0.105079	-90.913098	-64.613087	134.840874
14098		5.584973	-4.825555	0.611149	0.882295	-0.075882	-0.427247	-90.508513	-64.858576	134.953113
14099		5.276762	-4.039415	0.463554	0.850233	-0.033542	-0.739258	-90.073247	-65.281711	135.010257
14100		5.837854	-3.073159	0.164030	0.715051	-0.085070	-1.037973	-89.771346	-65.877372	135.129267
14101		7.200636	-2.076065	0.167087	0.608191	-0.134982	-1.300264	-89.595534	-66.622488	135.317829
14102		8.576667	-1.375582	0.400443	0.524802	-0.137837	-1.525530	-89.466935	-67.498139	135.505283
14103		9.585302	-1.082170	0.566467	0.432832	-0.072259	-1.697360	-89.302289	-68.470761	135.595122
14104		9.918307	-1.366624	0.446900	0.233235	0.044325	-1.818499	-89.066348	-69.513736	135.486123
14105		9.710338	-1.902064	0.410520	0.045951	0.128115	-1.901686	-88.789116	-70.601501	135.219159
14106		9.471022	-2.273972	0.258081	-0.109422	0.142215	-1.982917	-88.537757	-71.737375	134.887929
14107		9.377372	-2.278414	0.170354	-0.191269	0.133411	-2.087151	-88.312871	-72.930442	134.536847
14108		9.407741	-1.955706	0.315946	-0.226190	0.145182	-2.185724	-88.028150	-74.181597	134.105390
14109		9.577762	-1.661348	0.302805	-0.266093	0.154668	-2.272268	-87.684485	-75.479088	133.591313
14110		9.807783	-1.598907	0.160226	-0.304496	0.198514	-2.346070	-87.155843	-76.819114	132.867644
14111		10.015970	-1.632516	0.089749	-0.330403	0.251622	-2.392427	-86.358529	-78.179419	131.857062
14112		10.212695	-1.722339	0.049603	-0.344380	0.293315	-2.428892	-85.186202	-79.557420	130.461634
14113		10.320395	-1.830744	-0.027522	-0.332820	0.305765	-2.461153	-83.574348	-80.943755	128.632738
14114		10.405758	-1.841302	-0.152844	-0.249602	0.331687	-2.471870	-81.161180	-82.325046	126.049561
14115		10.384783	-1.774371	-0.224728	-0.108577	0.352313	-2.461125	-77.503486	-83.674345	122.301931
14116		10.214809	-1.511481	-0.177239	0.050735	0.349198	-2.427243	-71.839228	-84.966677	116.639567
14117		9.979454	-1.281680	-0.047410	0.196932	0.314338	-2.387305	-62.809080	-86.163736	107.696010
14118		9.853873	-0.882277	0.226416	0.341277	0.261155	-2.352427	-47.117711	-87.193209	92.175190
14119		9.695602	-0.453132	0.433296	0.437090	0.196163	-2.305769	-19.766396	-87.847818	65.050225
14120		9.594163	-0.026489	0.602804	0.480174	0.107876	-2.241865	15.228465	-87.837728	30.307424
14121		9.502965	0.349066	0.786526	0.480912	0.014920	-2.173243	41.130079	-87.229564	4.658673
14122		9.578165	0.404658	0.831450	0.420658	-0.048865	-2.091667	55.952627	-86.342034	-9.945141
14123		9.702169	0.188902	0.579335	0.366738	-0.090383	-1.996655	64.648101	-85.372927	-18.452388
14124		9.871790	-0.024671	0.330392	0.372372	-0.098103	-1.876896	70.087041	-84.399614	-23.698716
14125		9.832484	-0.250227	0.123973	0.415638	-0.084666	-1.749837	73.712430	-83.462445	-27.104986
14126		9.733176	-0.347201	-0.020786	0.530674	-0.091416	-1.615193	76.392760	-82.580316	-29.499076
14127		9.651748	-0.369022	-0.245465	0.689972	-0.102717	-1.479483	78.562053	-81.766357	-31.289735
14128		9.416965	0.001946	-0.375147	0.835178	-0.110001	-1.354276	80.395498	-81.013855	-32.660285
14129		9.286355	0.403066	-0.326216	0.920411	-0.142430	-1.219872	82.078561	-80.336200	-33.831505
14130		9.304711	0.755026	-0.222278	0.963802	-0.165625	-1.097126	83.620417	-79.723422	-34.836549
14131		9.407983	1.255420	-0.173767	0.918263	-0.161817	-0.981972	84.956722	-79.173381	-35.660714
14132		9.434745	1.811905	-0.313251	0.809916	-0.156413	-0.847507	86.079948	-78.695506	-36.332640
14133		9.383336	2.343575	-0.165294	0.730157	-0.140861	-0.730753	87.030603	-78.282891	-36.875931
14134		9.307956	2.616325	0.201141	0.650115	-0.125546	-0.634490	87.829656	-77.922077	-37.312117
14135		9.226290	2.601474	0.534984	0.534284	-0.093773	-0.562663	88.444104	-77.602010	-37.627675
14136		9.059881	2.409300	0.773143	0.379962	-0.062192	-0.505082	88.859939	-77.312494	-37.830934
14137		8.900266	2.158670	0.710971	0.191387	-0.032441	-0.467079	89.084215	-77.045614	-37.948550
14138		8.829136	1.761636	0.607473	0.030282	-0.020721	-0.427570	89.175110	-76.799735	-38.024387
14139		8.811328	1.369924	0.566345	-0.050183	-0.006491	-0.392687	89.187075	-76.575168	-38.066295
14140		8.789401	1.067209	0.577914	-0.068281	-0.001302	-0.348727	89.168660	-76.374410	-38.087980
14141		8.703868	0.999520	0.460185	-0.055675	-0.015002	-0.304385	89.193265	-76.200500	-38.146208
14142		8.732506	1.046877	0.387509	0.005188	-0.029134	-0.257917	89.276906	-76.052229	-38.229743
14143		8.808296	1.258709	0.447599	0.071144	-0.024810	-0.219267	89.391308	-75.927114	-38.305706
14144		8.911135	1.577281	0.454863	0.065254	-0.008427	-0.190479	89.456917	-75.817529	-38.335293
14145		8.916071	1.934645	0.476463	0.011694	0.008459	-0.153586	89.458439	-75.729825	-38.330018
14146		8.963506	2.235116	0.535407	-0.074042	0.016119	-0.126877	89.386943	-75.656654	-38.300540
14147		8.863790	2.293557	0.480504	-0.187851	0.032230	-0.087874	89.220160	-75.606429	-38.239543
14148		8.654718	2.189782	0.338133	-0.310145	0.066686	-0.064475	88.900022	-75.568501	-38.093035
14149		8.428919	1.935954	0.403030	-0.446186	0.080020	-0.054807	88.479720	-75.536432	-37.923067
14150		8.440658	1.732662	0.565509	-0.569209	0.067742	-0.043670	88.009903	-75.509935	-37.775250
14151		8.572727	1.681151	0.682208	-0.701463	0.055875	-0.029943	87.497292	-75.491955	-37.660973
14152		8.764195	1.574910	0.588513	-0.820845	0.077713	-0.018194	86.860327	-75.479203	-37.489444
14153		8.763657	1.465060	0.274228	-0.854843	0.131938	-0.008790	86.090857	-75.470007	-37.200595
14154		8.608956	1.284651	-0.051378	-0.777483	0.159520	0.010514	85.294882	-75.469218	-36.839151
14155		8.487720	1.187012	-0.087231	-0.659298	0.143178	0.027880	84.606614	-75.478459	-36.518446
14156		8.430987	1.136717	-0.036056	-0.557161	0.121828	0.064894	84.007756	-75.508865	-36.230248
14157		8.527897	1.205638	0.001650	-0.493905	0.092085	0.107698	83.505699	-75.565073	-36.004075
14158		8.717188	1.505797	-0.084379	-0.453792	0.067019	0.152829	83.060458	-75.648135	-35.813466
14159		8.891761	1.619240	-0.096994	-0.428254	0.035590	0.185783	82.694300	-75.751877	-35.688883
14160		9.052512	1.563351	0.047001	-0.388314	0.004132	0.212246	82.403771	-75.872922	-35.619308
14161		9.148859	1.327999	0.127452	-0.333198	-0.022135	0.222821	82.205320	-76.001809	-35.611599
14162		9.139517	1.182064	0.071008	-0.263223	-0.032418	0.231139	82.059448	-76.136508	-35.617289
14163		9.144275	1.189465	-0.073463	-0.193008	-0.043913	0.228494	81.987079	-76.270336	-35.656706
14164		9.201981	1.235828	0.011760	-0.093346	-0.075462	0.235168	82.036899	-76.410987	-35.763600
14165		9.316424	1.299190	0.204509	0.038942	-0.116229	0.240516	82.266347	-76.557275	-35.976702
14166		9.360351	1.470901	0.420571	0.156015	-0.159680	0.249334	82.663090	-76.712299	-36.293186
14167		9.363344	1.711300	0.371288	0.214689	-0.174491	0.258088	83.142249	-76.872037	-36.659079
14168		9.267548	1.811906	0.232828	0.232295	-0.184462	0.251632	83.661397	-77.028897	-37.055943
14169		9.196074	1.953331	0.249683	0.264808	-0.197959	0.230265	84.256607	-77.172630	-37.510975
14170		9.079816	2.060480	0.315239	0.291703	-0.204284	0.212364	84.892290	-77.306332	-37.991956
14171		8.806059	2.149523	0.342298	0.315375	-0.198004	0.206487	85.545441	-77.434222	-38.476191
14172		8.475027	2.159083	0.355490	0.297828	-0.185940	0.208915	86.161290	-77.562749	-38.932765
14173		8.262669	2.113249	0.378059	0.267490	-0.172142	0.212568	86.741149	-77.690892	-39.369573
14174		8.233370	1.830159	0.583683	0.227996	-0.180229	0.221596	87.321832	-77.824363	-39.830648
14175		8.448932	1.508714	0.758809	0.203441	-0.192007	0.225585	87.938376	-77.958477	-40.342070
14176		8.709062	1.174023	0.642806	0.235855	-0.188725	0.243328	88.568065	-78.102436	-40.848187
14177		8.857717	0.994105	0.330732	0.342125	-0.196871	0.254517	89.302792	-78.250697	-41.398632
14178		8.806745	0.826018	0.357520	0.505224	-0.238716	0.271692	90.256198	-78.408316	-42.077170
14179		8.404815	0.737301	0.670592	0.660409	-0.424629	0.294111	91.857804	-78.572582	-43.325554
14180		9.085127	1.205375	0.641145	0.790204	-0.563796	0.367333	93.978950	-78.767898	-45.027701
14181		9.642475	1.731129	0.288635	0.908721	-0.397785	0.447797	95.780595	-79.004242	-46.333229
14182		9.372150	2.533719	0.549015	0.931269	-0.267374	0.488304	97.277672	-79.266327	-47.314919
14183		9.332170	3.119391	0.749531	0.980351	-0.141898	0.509852	98.498827	-79.544467	-47.985873
14184		8.946194	3.201501	0.765493	0.895324	-0.088441	0.571301	99.574351	-79.861021	-48.558235
14185		8.865809	2.374544	0.461014	0.676564	-0.119334	0.652859	100.736246	-80.217000	-49.344397
14186		9.068203	1.134163	0.679033	0.647735	-0.121902	0.734551	102.007810	-80.616789	-50.258187
14187		9.231626	0.372192	1.564002	0.746490	-0.123497	0.830845	103.533007	-81.065133	-51.369903
14188		9.231598	0.059845	1.555114	0.753669	-0.090774	0.954086	105.185842	-81.582929	-52.605672
14189		8.981737	-0.235815	0.904742	0.695716	0.057373	1.055858	106.540496	-82.173412	-53.571444
14190		8.254315	-1.851847	0.628791	0.700005	0.100991	1.119517	107.966797	-82.804575	-54.606171
14191		7.530657	0.209374	1.617414	0.561803	-0.265532	1.439132	111.847911	-83.527779	-58.190834
14192		9.192296	5.291752	-6.638156	-1.528664	-0.954352	1.521255	118.978256	-84.083568	-66.244440
14193		15.094703	7.826012	-2.148908	-0.211596	-0.675788	1.540285	127.027344	-84.612920	-74.454518
14194		15.338450	6.271239	10.356073	-1.079068	-0.009057	1.559982	132.972337	-85.295642	-81.043522
14195		12.936461	0.490924	-3.476858	-2.383237	-0.134466	1.479721	140.256022	-85.821751	-89.718650
14196		12.093272	0.493636	-10.238855	-3.369652	-0.260191	1.229971	147.665688	-86.117351	-99.082432
14197		14.761142	-0.427566	-3.786795	-1.324353	-1.148938	0.983025	158.259325	-85.783110	-110.463128
14198		19.947795	0.414936	2.299605	0.516839	-0.583878	0.880542	166.315059	-85.616868	-118.244781
14199		15.324282	1.360446	2.320437	0.882088	0.242557	1.094755	174.830518	-85.854656	-126.277046
14200		11.274049	0.495104	-1.218807	0.163595	-0.056337	1.258964	-175.142727	-85.824136	-136.236404
14201		13.015366	1.127063	1.142270	0.117923	-0.577449	1.303799	-166.188954	-85.372404	-145.148789
14202		15.337216	1.993055	2.548788	-0.443853	-0.160387	1.159739	-159.164517	-85.086284	-152.452918
14203		13.564834	1.390452	-0.585270	-1.236254	0.165187	0.885411	-154.095427	-84.969165	-158.252182
14204		10.364911	0.352034	-1.774655	-0.829940	0.174896	0.785817	-149.585237	-84.845505	-163.257753
14205		8.584788	-0.663495	-3.331946	-1.448106	-0.101056	0.794067	-146.594128	-84.553229	-167.095019
14206		8.633481	-4.158295	-3.580465	-1.819020	-0.204331	0.820847	-144.378597	-84.190387	-170.368610
14207		8.145721	-6.624924	-3.581483	-1.267793	-0.292452	0.769507	-142.695435	-83.791142	-172.791526
14208		8.181064	-7.651384	-3.693589	-0.575522	-0.283214	0.540065	-141.722392	-83.472350	-174.102430
14209		8.524648	-7.528115	-1.641568	0.179517	-0.124075	0.251168	-141.043963	-83.324669	-174.681908
14210		9.006788	-6.011671	0.304369	0.584619	-0.103597	0.084901	-140.696778	-83.245747	-174.694205
14211		9.697461	-4.381531	0.251628	0.575253	-0.156837	0.031256	-140.740777	-83.162550	-174.318031
14212		9.959814	-2.984837	-0.107311	0.521126	-0.178274	0.029771	-140.850713	-83.070061	-173.906500
14213		9.916307	-1.375709	0.134111	0.472793	-0.191242	0.026938	-141.057898	-82.972929	-173.424921
14214		9.903156	0.083368	0.117215	0.275804	-0.206627	0.023903	-141.391852	-82.869519	-172.929095
14215		9.730238	0.781386	-0.081555	0.001728	-0.197819	0.011323	-141.920308	-82.774273	-172.395532
14216		9.422621	0.804661	-0.394355	-0.254211	-0.200216	0.000933	-142.594865	-82.681055	-171.862262
14217		9.258942	0.282993	-0.862805	-0.369261	-0.212499	-0.009657	-143.418059	-82.584779	-171.245612
14218		9.236905	-0.200364	-1.601457	-0.304863	-0.187814	-0.032789	-144.177988	-82.507111	-170.655291
14219		9.418756	-0.571700	-2.046863	-0.080214	-0.202885	-0.010468	-144.781195	-82.413588	-170.093250
14220		9.871326	-0.629079	-2.574005	0.135949	-0.197356	0.023826	-145.089599	-82.311192	-169.703415
14221		10.145013	-0.367431	-2.666199	0.341492	-0.151725	0.060325	-145.061353	-82.217720	-169.534528
14222		10.117810	-0.035468	-1.839748	0.571260	-0.196910	0.122360	-144.775771	-82.082897	-169.492329
14223		9.913044	0.049520	-1.414950	0.683604	-0.188960	0.146226	-144.354450	-81.943713	-169.522328
14224		9.654345	-0.143847	-1.366109	0.565749	-0.182792	0.151932	-143.955429	-81.805662	-169.597877
14225		9.711802	-0.338907	-1.253990	0.468007	-0.176226	0.159831	-143.598836	-81.667715	-169.687314
14226		9.903253	-0.065054	-0.936189	0.411039	-0.148269	0.179148	-143.140075	-81.536164	-169.912901
14227		10.015082	0.252473	-0.762543	0.274150	-0.128040	0.206229	-142.659053	-81.404019	-170.240534
14228		9.954071	0.608546	-0.849315	0.022387	-0.090965	0.233323	-142.152284	-81.279197	-170.740082
14229		9.719100	0.617186	-0.975303	-0.234197	-0.084956	0.226691	-141.827347	-81.158527	-171.204715
14230		9.611105	0.154821	-1.222428	-0.459658	-0.072267	0.199257	-141.676304	-81.053577	-171.624084
14231		9.499289	-0.815635	-1.779243	-0.585063	-0.058137	0.163936	-141.685438	-80.966877	-171.954286
14232		9.545420	-1.705824	-2.135424	-0.533998	-0.045071	0.145692	-141.677276	-80.893097	-172.272304
14233		9.667288	-2.300744	-1.843905	-0.348186	-0.039368	0.149642	-141.555274	-80.819853	-172.598005
14234		9.793143	-2.620746	-1.292550	-0.107149	-0.021515	0.161586	-141.213849	-80.750400	-173.005999
14235		9.692531	-2.392709	-1.062551	0.063059	-0.022495	0.164520	-140.788318	-80.678753	-173.400635
14236		9.608184	-1.758749	-1.131236	0.155797	-0.044394	0.167577	-140.341819	-80.595881	-173.762582
14237		9.705850	-1.178482	-1.167979	0.192938	-0.051448	0.178692	-139.881962	-80.505318	-174.116764
14238		9.733652	-0.916207	-1.124021	0.185506	-0.044184	0.169659	-139.426766	-80.420803	-174.470441
14239		9.625493	-0.952127	-1.188541	0.079642	-0.027933	0.159511	-139.043419	-80.346742	-174.813034
14240		9.437120	-1.355328	-1.371452	-0.003806	-0.031378	0.140429	-138.754654	-80.278034	-175.108063
14241		9.425549	-1.693135	-1.397595	-0.024272	-0.026850	0.120754	-138.534689	-80.218526	-175.345430
14242		9.389301	-1.868843	-1.322698	-0.027118	-0.017561	0.101795	-138.331409	-80.169939	-175.567361
14243		9.407415	-1.940040	-1.072285	0.019269	-0.019915	0.082583	-138.169996	-80.127683	-175.720049
14244		9.524270	-1.882467	-1.036291	0.052338	-0.024221	0.066483	-138.025150	-80.089443	-175.836500
14245		9.556381	-1.786356	-1.210734	0.069468	-0.022304	0.057868	-137.902692	-80.055523	-175.920477
14246		9.539922	-1.402795	-1.249156	0.074762	-0.024974	0.043803	-137.802688	-80.025525	-175.978369
14247		9.476170	-0.981275	-1.169537	0.088013	-0.038131	0.040288	-137.747712	-79.991611	-175.983053
14248		9.554279	-0.747423	-1.281034	0.084696	-0.044971	0.046334	-137.680436	-79.952140	-176.001940
14249		9.692798	-0.575284	-1.334596	0.051495	-0.031596	0.057273	-137.592164	-79.914433	-176.061692
14250		9.768078	-0.586282	-1.235250	0.024038	-0.017329	0.077309	-137.427740	-79.874706	-176.214571
14251		9.739874	-0.756564	-1.316412	0.008297	-0.013218	0.087300	-137.255202	-79.833031	-176.385086
14252		9.684543	-0.968216	-1.319739	0.012057	-0.004594	0.091736	-137.039507	-79.792936	-176.597076
14253		9.605111	-1.141153	-1.378853	0.032922	0.006635	0.101388	-136.780207	-79.753828	-176.841459
14254		9.617991	-1.070778	-1.337992	0.065831	0.003336	0.106000	-136.487660	-79.711100	-177.100297
14255		9.637499	-0.852758	-1.301952	0.038771	0.004327	0.114162	-136.205075	-79.665559	-177.365008
14256		9.593226	-0.902891	-1.206367	-0.011346	-0.002784	0.108200	-135.969968	-79.619021	-177.610481
14257		9.476418	-0.908228	-1.113852	-0.069656	0.004627	0.101778	-135.780945	-79.578155	-177.843305
14258		9.398159	-1.161315	-1.232107	-0.119781	-0.002801	0.088882	-135.654927	-79.539110	-178.041095
14259		9.536532	-1.398795	-1.190595	-0.110401	-0.009145	0.088168	-135.552047	-79.497863	-178.210115
14260		9.638364	-1.515280	-1.322141	-0.105939	-0.001675	0.091766	-135.411774	-79.457966	-178.414387
14261		9.633611	-1.316632	-1.440274	-0.089216	-0.003056	0.088941	-135.284194	-79.418753	-178.596229
14262		9.667505	-0.961513	-1.337434	-0.070320	0.000725	0.093611	-135.117005	-79.378867	-178.807176
14263		9.679680	-0.807843	-1.239348	-0.053064	0.000368	0.109462	-134.919705	-79.332539	-179.038931
14264		9.722382	-0.779242	-1.334566	-0.055654	0.007154	0.130102	-134.656061	-79.280184	-179.339553
14265		9.694917	-0.674849	-1.366647	-0.057841	0.008149	0.150050	-134.363347	-79.220019	-179.671293
14266		9.628863	-0.683813	-1.293384	-0.057865	0.014662	0.162415	-134.023990	-79.156886	179.949590
14267		9.520332	-0.785708	-1.152160	-0.067477	0.021136	0.163025	-133.689443	-79.095814	179.569492
14268		9.462134	-0.901845	-1.326417	-0.110634	0.010099	0.174959	-133.373276	-79.024939	179.183035
14269		9.533663	-1.015097	-1.351825	-0.115177	0.015327	0.189140	-133.034312	-78.949869	178.770416
14270		9.581755	-1.075289	-1.138728	-0.092047	0.020698	0.198807	-132.647421	-78.872266	178.322541
14271		9.614238	-1.091690	-1.139845	-0.095520	0.020781	0.202097	-132.270865	-78.792810	177.882868
14272		9.556945	-1.066604	-1.159186	-0.134701	0.023868	0.210134	-131.891569	-78.710531	177.417574
14273		9.559228	-1.061140	-1.354411	-0.160639	0.009640	0.226454	-131.541563	-78.615313	176.966667
14274		9.651406	-0.988970	-1.442085	-0.159138	0.007355	0.244487	-131.160356	-78.510905	176.484831
14275		9.606365	-1.046042	-1.313464	-0.144976	0.020152	0.251504	-130.747283	-78.407624	175.978390
14276		9.524691	-0.976096	-1.128644	-0.122250	0.019651	0.262489	-130.302987	-78.298638	175.453354
14277		9.417283	-0.874551	-1.068880	-0.134933	0.006108	0.276857	-129.885876	-78.177554	174.948263
14278		9.383344	-0.973460	-1.059033	-0.171633	0.003101	0.290770	-129.474067	-78.048589	174.427057
14279		9.369769	-1.090497	-0.996642	-0.174186	0.002429	0.297906	-129.070308	-77.915369	173.912147
14280		9.458277	-1.310809	-0.998925	-0.216276	-0.013117	0.316190	-128.695515	-77.767848	173.402120
14281		9.699233	-1.540888	-1.324406	-0.200992	-0.019018	0.341947	-128.299943	-77.605792	172.879297
14282		9.786538	-1.566022	-1.508280	-0.148115	-0.002800	0.367008	-127.806925	-77.437483	172.287569
14283		9.699348	-1.592357	-1.419911	-0.127184	-0.001147	0.379489	-127.300474	-77.262801	171.693770
14284		9.559787	-1.545335	-1.318919	-0.094778	-0.002079	0.380279	-126.784838	-77.086441	171.109383
14285		9.465887	-1.659443	-1.359365	-0.138894	-0.003133	0.379715	-126.318277	-76.908730	170.548805
14286		9.341725	-1.837932	-1.322354	-0.135952	-0.009842	0.376530	-125.875549	-76.729381	170.014237
14287		9.362881	-1.851576	-1.138432	-0.086820	-0.021992	0.379620	-125.443243	-76.543472	169.518706
14288		9.358682	-1.709382	-1.090948	-0.086409	-0.010773	0.389584	-124.982289	-76.355839	168.993779
14289		9.404153	-1.500832	-1.104757	-0.114363	-0.005926	0.399505	-124.533994	-76.164039	168.464756
14290		9.422937	-1.330875	-1.008610	-0.144522	-0.011507	0.407977	-124.110284	-75.965632	167.943043
14291		9.539046	-1.276674	-1.306807	-0.207684	-0.008610	0.432382	-123.705262	-75.755497	167.402590
14292		9.559643	-1.281035	-1.455541	-0.270133	-0.024365	0.448784	-123.353519	-75.531922	166.879915
14293		9.582714	-1.376798	-1.527488	-0.293377	-0.022884	0.472230	-123.002927	-75.296538	166.343891
14294		9.538280	-1.351857	-1.606727	-0.246602	-0.021501	0.502559	-122.597493	-75.046410	165.778496
14295		9.578706	-1.123200	-1.534620	-0.138570	-0.013500	0.545326	-122.089088	-74.776576	165.169643
14296		9.600445	-0.811973	-1.292372	-0.051036	0.003934	0.598319	-121.458441	-74.485040	164.485442
14297		9.461542	-0.720597	-1.036784	-0.064129	-0.001700	0.653711	-120.815823	-74.162270	163.779772
14298		9.285165	-1.025575	-1.092466	-0.183003	0.002829	0.692875	-120.217373	-73.820076	163.048259
14299		9.057899	-1.592899	-1.386246	-0.302020	-0.010075	0.717925	-119.715129	-73.459206	162.344409
14300		9.026566	-2.150199	-1.473762	-0.351993	-0.018148	0.728399	-119.267526	-73.089975	161.666620
14301		9.062310	-2.927446	-1.502399	-0.353710	-0.022616	0.729192	-118.854502	-72.716886	161.022407
14302		9.163795	-3.414105	-1.508943	-0.280762	-0.017819	0.716071	-118.423090	-72.351034	160.401686
14303		9.178512	-3.321338	-1.375102	-0.171975	-0.006815	0.713788	-117.938936	-71.987136	159.789530
14304		9.276023	-3.070142	-1.288403	-0.072564	-0.016094	0.725179	-117.422153	-71.613915	159.201975
14305		9.371357	-2.532991	-0.922584	0.091942	-0.030356	0.753210	-116.837018	-71.220386	158.640168
14306		9.467456	-1.920457	-0.803584	0.153667	-0.039644	0.792020	-116.222586	-70.803274	158.083728
14307		9.544839	-1.574513	-0.926648	0.070761	-0.025775	0.834163	-115.633438	-70.365510	157.501980
14308		8.637641	-1.967927	-0.930483	-0.197875	-0.009991	0.880535	-115.165655	-69.906612	156.884329
14309		7.772839	-2.830342	-1.069714	-0.361282	-0.054647	0.883448	-114.877751	-69.433260	156.356483
14310		7.530514	-3.457948	-1.819330	-0.502422	-0.094885	0.885330	-114.738715	-68.949375	155.900091
14311		7.937595	-4.176983	-1.891377	-0.343356	-0.089659	0.866087	-114.530496	-68.475476	155.465424
14312		8.603758	-3.953254	-1.524124	-0.067709	-0.062779	0.810247	-114.174677	-68.036859	155.040883
14313		9.279030	-2.953736	-1.240070	0.009439	-0.058086	0.782248	-113.802662	-67.612454	154.644927
14314		9.876578	-2.133775	-1.129635	0.057619	-0.056143	0.794458	-113.405678	-67.181604	154.250999
14315		10.019065	-1.151558	-1.130663	0.094513	-0.076393	0.862845	-112.994108	-66.708605	153.862490
14316		10.291181	-0.852195	-1.183819	-0.025725	-0.144756	0.972273	-112.691362	-66.162553	153.516467
14317		10.339374	-1.604834	-0.998572	-0.035342	-0.125533	1.078859	-112.337079	-65.562652	153.105986
14318		9.531101	-2.342038	-1.228949	-0.122638	-0.127103	1.159554	-112.013011	-64.919966	152.672105
14319		8.429121	-3.812402	-0.758339	0.168832	-0.191955	1.188606	-111.603879	-64.245524	152.326163
14320		8.118429	-1.984891	-3.422549	-0.477290	-0.154829	1.249814	-111.511599	-63.547127	151.919298
14321		7.317424	-5.090905	-1.540902	-0.501566	-0.019067	1.252730	-111.305082	-62.873613	151.365954
14322		7.146435	-3.643229	-0.872760	0.104850	-0.223435	1.196599	-111.001839	-62.188140	151.092262
14323		8.225921	-2.792152	-2.136542	-0.115971	-0.203357	1.194642	-110.819760	-61.505894	150.810318
14324		9.244920	-2.541034	-0.550695	0.021553	-0.197645	1.234409	-110.549171	-60.804428	150.515884
14325		10.235372	-1.571599	-1.141206	0.019186	-0.270191	1.313570	-110.334968	-60.043893	150.282160
14326		11.382343	-0.346274	-1.313560	0.004101	-0.300852	1.407167	-110.135516	-59.228501	150.054166
14327		12.040859	-1.646078	-0.695695	-0.160372	-0.300466	1.502150	-110.010790	-58.359799	149.800840
14328		10.627385	-5.341765	-0.807796	-0.590863	-0.295750	1.639266	-110.092620	-57.420981	149.498248
14329		7.658279	-8.499770	-1.847561	-0.694768	-0.290822	1.825825	-110.182021	-56.380213	149.129709
14330		5.143357	-9.216534	-2.460657	-0.125942	-0.305190	1.932560	-109.938780	-55.281500	148.749159
14331		3.116484	-9.223787	-2.613875	0.231807	-0.256753	1.890480	-109.488498	-54.210981	148.360338
14332		1.714302	-7.431875	-2.265138	0.711348	-0.259933	1.634525	-108.855095	-53.277878	148.081015
14333		2.611389	-4.578909	-1.491295	0.766771	-0.360873	1.294641	-108.365213	-52.507745	148.017553
14334		5.995552	-2.904952	-0.853969	0.549638	-0.449001	1.054298	-108.123018	-51.853230	148.110332
14335		9.652838	-3.217341	-0.983419	0.067124	-0.455656	0.969036	-108.182334	-51.243167	148.235100
14336		11.498861	-5.340755	-1.905768	-0.418749	-0.391229	1.029865	-108.457421	-50.612680	148.281166
14337		10.213052	-6.893063	-2.774186	-0.432056	-0.314148	1.288331	-108.630975	-49.854443	148.184813
14338		7.804196	-7.829048	-2.571607	-0.171428	-0.290543	1.610212	-108.571446	-48.927383	147.977828
14339		6.231922	-8.050558	-2.644948	0.105170	-0.322794	1.765345	-108.350779	-47.908243	147.763303
14340		5.182811	-7.591117	-2.541415	0.380187	-0.254340	1.719695	-107.950947	-46.926686	147.516982
14341		4.556973	-6.649031	-2.129715	0.559452	-0.188318	1.534810	-107.459639	-46.055020	147.281457
14342		5.222075	-5.628094	-1.688222	0.556384	-0.206393	1.340250	-107.024702	-45.286332	147.119954
14343		6.997247	-5.106623	-1.520185	0.389457	-0.234261	1.232076	-106.727825	-44.570754	147.015461
14344		8.530676	-5.463252	-1.762108	0.190127	-0.262361	1.232724	-106.563340	-43.850822	146.936713
14345		9.580000	-5.694708	-1.731181	0.205826	-0.274408	1.336785	-106.384906	-43.070688	146.848663
14346		9.376329	-6.473055	-1.543787	0.209871	-0.271162	1.536403	-106.175886	-42.182408	146.718564
14347		8.251573	-7.338368	-1.844229	0.311417	-0.273644	1.770839	-105.884504	-41.162898	146.548594
14348		7.121305	-6.786649	-1.686872	0.556112	-0.237678	1.961909	-105.419227	-40.044336	146.324424
14349		5.927288	-6.350575	-1.445169	0.730280	-0.183983	2.048669	-104.834547	-38.882689	146.062774
14350		4.553669	-6.432183	-1.379303	0.771903	-0.160297	2.038977	-104.231672	-37.729500	145.804998
14351		3.815811	-6.782741	-1.626972	0.717843	-0.176192	1.960114	-103.691196	-36.614301	145.591120
14352		4.337972	-8.274880	-2.292152	0.495340	-0.206178	1.841789	-103.312137	-35.561215	145.430852
14353		6.138665	-9.309335	-3.073798	0.462905	-0.213085	1.722581	-102.974699	-34.571421	145.305064
14354		7.797504	-10.335738	-3.358781	0.438861	-0.116516	1.624032	-102.628343	-33.649677	145.137198
14355		8.859456	-10.732661	-3.663453	0.476004	0.005295	1.551651	-102.230136	-32.781247	144.908037
14356		8.952991	-10.628118	-3.495618	0.594697	0.176798	1.484647	-101.715481	-31.970702	144.584429
14357		8.003976	-10.343941	-3.062985	0.638332	0.311080	1.449057	-101.142864	-31.191390	144.189297
14358		7.107734	-10.236268	-2.752567	0.639317	0.339130	1.377584	-100.574910	-30.453676	143.796731
14359		6.735533	-10.274944	-2.571125	0.596740	0.330077	1.245330	-100.052530	-29.784749	143.436968
14360		6.346420	-10.551815	-2.383691	0.480418	0.314841	1.111688	-99.616241	-29.188941	143.110671
14361		5.794397	-10.862457	-2.440265	0.367227	0.298761	1.012919	-99.261497	-28.643757	142.812036
14362		5.042184	-10.781141	-2.559134	0.350538	0.289303	0.933378	-98.927530	-28.142869	142.532805
14363		4.290778	-10.664281	-2.504257	0.428649	0.260883	0.835451	-98.566544	-27.691768	142.286220
14364		3.737497	-10.414915	-2.325539	0.538347	0.235419	0.716775	-98.158687	-27.305874	142.071405
14365		3.436470	-10.276959	-2.107597	0.576392	0.191566	0.586088	-97.750295	-26.987807	141.900000
14366		3.534344	-9.936023	-1.875351	0.700797	0.122004	0.465729	-97.297231	-26.732955	141.786161
14367		3.816471	-9.221807	-1.532287	0.891824	0.054002	0.354084	-96.759802	-26.534751	141.727014
14368		3.971402	-8.912584	-0.866932	1.050987	0.033390	0.272937	-96.140756	-26.381899	141.689195
14369		3.627627	-8.628066	-0.322623	1.121297	0.012142	0.240944	-95.489348	-26.244679	141.668855
14370		3.252311	-8.175665	-0.075650	1.100557	-0.027147	0.228639	-94.861836	-26.113164	141.675954
14371		2.884677	-8.015949	0.014704	1.055504	-0.066499	0.237233	-94.271725	-25.974112	141.709171
14372		2.435885	-8.090051	0.176170	1.020525	-0.101256	0.246732	-93.711454	-25.829313	141.765509
14373		2.055596	-8.346408	0.296427	0.976911	-0.138413	0.232091	-93.187430	-25.691331	141.847515
14374		1.568678	-8.549801	0.500632	0.941194	-0.204117	0.195674	-92.702411	-25.573401	141.973523
14375		1.324945	-8.595411	0.410456	0.906572	-0.353915	0.136249	-92.279476	-25.486169	142.197266
14376		1.719722	-8.491717	0.197750	0.886956	-0.463441	0.091941	-91.897491	-25.423525	142.491768
14377		2.196835	-8.458111	0.081651	0.906044	-0.482703	0.057067	-91.510538	-25.382228	142.799726
14378		2.553353	-8.114059	0.391907	0.908405	-0.492614	0.005466	-91.124602	-25.372009	143.114639
14379		2.751276	-7.664748	0.878687	0.772739	-0.565853	-0.046990	-90.837227	-25.393021	143.476952
14380		3.479624	-7.560360	0.641138	0.528047	-0.561636	-0.117252	-90.688642	-25.455184	143.836816
14381		4.169199	-7.674222	0.074618	0.359525	-0.453198	-0.224124	-90.608647	-25.580309	144.129149
14382		4.601021	-7.503059	0.048519	0.185057	-0.382747	-0.336900	-90.609542	-25.770319	144.377307
14383		5.021534	-7.635734	0.182083	-0.055204	-0.350262	-0.451647	-90.741470	-26.026367	144.606793
14384		5.551892	-8.589650	0.591276	-0.242038	-0.338666	-0.508849	-90.978157	-26.314467	144.830426
14385		6.621753	-9.966792	0.820663	-0.197999	-0.217279	-0.533653	-91.157822	-26.617494	144.978865
14386		7.516672	-10.850048	0.872603	-0.164702	0.032250	-0.511644	-91.246364	-26.910678	144.967587
14387		7.524365	-10.998011	0.371506	-0.125769	0.190937	-0.436918	-91.266858	-27.162982	144.854004
14388		7.092401	-10.077244	-0.026718	-0.043727	0.261126	-0.314178	-91.217131	-27.346196	144.692611
14389		6.494607	-8.685705	-0.317631	0.013073	0.371930	-0.248492	-91.102078	-27.492489	144.458893
14390		5.490807	-7.236177	0.222922	0.062222	0.529074	-0.244286	-90.909773	-27.638045	144.122271
14391		4.301680	-6.397869	1.352097	0.083666	0.619168	-0.321322	-90.678179	-27.826700	143.727463
14392		3.159230	-5.624700	2.036152	-0.073680	0.695009	-0.479202	-90.510618	-28.105863	143.282295
14393		1.769069	-5.006879	1.292110	-0.680594	0.706278	-0.712228	-90.686409	-28.517808	142.830599
14394		0.974347	-5.076114	0.271078	-1.246234	0.641452	-0.974928	-91.203342	-29.082767	142.424034
14395		0.485089	-4.000220	-0.185242	-1.593717	0.596185	-1.183453	-91.935949	-29.769548	142.056439
14396		0.430979	-4.198936	-0.217893	-1.870048	0.605342	-1.351970	-92.824614	-30.557924	141.695065
14397		0.828190	-5.176321	0.689995	-1.773487	0.693118	-1.583373	-93.634750	-31.485592	141.295193
14398		1.542867	-5.792410	-0.020537	-2.035842	0.734324	-1.873052	-94.586668	-32.585772	140.893037
14399		2.692254	-6.915726	-0.897453	-2.128215	0.669773	-2.180464	-95.630420	-33.863722	140.572315
14400		4.627991	-7.691047	-0.753099	-1.777897	0.567976	-2.494304	-96.530363	-35.318494	140.365198
14401		6.684763	-7.953971	-1.092436	-1.206039	0.599161	-2.771923	-97.112305	-36.935581	140.180035
14402		7.565997	-7.593194	-1.485870	-0.431263	0.689533	-2.921941	-97.217537	-38.645111	139.950326
14403		6.917862	-7.304653	-1.155603	0.178122	0.810912	-2.976784	-96.910379	-40.394236	139.627961
14404		5.409548	-7.249496	0.036856	0.650215	0.822239	-3.044553	-96.303535	-42.180603	139.274472
14405		4.494230	-7.269061	1.086858	0.989309	0.748704	-3.233050	-95.518235	-44.066742	138.954903
14406		4.405175	-7.363669	1.365704	1.114270	0.733018	-3.507928	-94.638955	-46.105130	138.616433
14407		4.648020	-7.347926	0.535505	0.883329	0.773550	-3.766740	-93.830524	-48.289644	138.204456
14408		5.085052	-7.067138	-0.592236	0.610915	0.795516	-3.920415	-93.108151	-50.558272	137.715799
14409		5.683536	-6.807572	-0.873743	0.572985	0.735909	-3.953358	-92.387468	-52.840564	137.215871
14410		6.358625	-5.935344	-0.651382	0.450226	0.645509	-3.919488	-91.732979	-55.096760	136.726751
14411		6.707496	-4.873481	0.174075	0.056361	0.573109	-3.875621	-91.302090	-57.324880	136.247163
14412		7.004021	-3.800155	1.043681	-0.495896	0.479836	-3.849741	-91.218983	-59.534684	135.817009
14413		7.413317	-2.967285	1.134485	-0.977362	0.401493	-3.863240	-91.467262	-61.752569	135.459289
14414		8.078640	-2.994380	0.371637	-1.185708	0.368856	-3.881244	-91.861626	-63.980185	135.139760
14415		9.158773	-3.747058	-0.964735	-1.030603	0.375746	-3.897901	-92.163516	-66.219293	134.821488
14416		10.025306	-4.813346	-2.374140	-0.675660	0.444996	-3.912908	-92.143801	-68.467948	134.381217
14417		10.365204	-5.749777	-2.624515	-0.163662	0.551251	-3.910657	-91.592692	-70.717334	133.693203
14418		10.277938	-6.076016	-2.377221	0.291147	0.573574	-3.880047	-90.555201	-72.944807	132.777284
14419		10.149758	-6.377408	-2.173948	0.517799	0.508614	-3.827785	-89.234841	-75.137213	131.712734
14420		10.389346	-6.240974	-1.204705	0.959850	0.419156	-3.753530	-87.461100	-77.278274	130.452890
14421		10.498430	-5.028250	-0.850366	1.192479	0.351213	-3.604905	-85.180802	-79.326621	128.822236
14422		10.797453	-3.665847	-1.247254	1.238050	0.227424	-3.384510	-82.512791	-81.238758	126.835226
14423		11.250993	-2.092637	-1.283908	1.291336	0.122759	-3.134806	-79.231849	-83.001519	124.270251
14424		11.393987	-0.989476	-0.522283	1.352996	0.014148	-2.922069	-74.954942	-84.630360	120.748188
14425		11.387382	-0.156068	0.406688	1.322923	-0.100529	-2.793936	-68.702000	-86.171615	115.235985
14426		11.328020	0.392906	0.473866	1.029624	-0.136063	-2.716714	-56.190538	-87.594172	103.297547
14427		11.155916	0.468963	0.139393	0.712930	-0.095074	-2.667833	-19.689410	-88.629876	67.187904
14428		10.802888	0.257702	-0.079322	0.555729	-0.050282	-2.608991	39.528266	-88.369429	8.271623
14429		10.787406	-0.152839	-0.222215	0.645350	-0.071724	-2.537461	64.298584	-87.226565	-16.145294
14430		10.886602	-0.163690	-0.330576	0.880822	-0.109479	-2.439062	74.123467	-85.940906	-25.481777
14431		11.111543	0.270945	-0.630654	1.104471	-0.182209	-2.293162	79.663384	-84.684691	-30.405065
14432		11.361383	1.088083	-0.733813	1.272840	-0.286709	-2.101064	83.672149	-83.519524	-33.702176
14433		11.610937	1.795664	-0.311182	1.533382	-0.316996	-1.899786	86.779764	-82.450261	-35.947977
14434		11.645104	2.957886	0.372780	1.597326	-0.312013	-1.667371	89.214171	-81.504035	-37.482496
14435		11.336277	3.717179	0.484916	1.378530	-0.265637	-1.424843	90.983805	-80.687681	-38.474268
14436		10.879175	4.047736	0.526042	1.091566	-0.218722	-1.190384	92.244971	-80.004296	-39.119491
14437		10.490586	4.299462	0.349182	0.744774	-0.197090	-0.970766	93.164111	-79.443557	-39.619990
14438		10.034362	4.153540	0.162179	0.396768	-0.154426	-0.775506	93.725715	-78.996179	-39.960621
14439		9.789005	3.954046	0.441011	0.265479	-0.111850	-0.591427	94.098220	-78.653857	-40.185341
14440		9.919585	3.959061	0.437186	0.169023	-0.084301	-0.379797	94.363159	-78.434374	-40.357202
14441		10.131929	3.872576	0.291276	0.019581	-0.025553	-0.179574	94.420303	-78.330768	-40.404153
14442		10.048152	3.550041	0.222797	-0.115757	0.047403	-0.005248	94.230705	-78.330613	-40.278622
14443		9.787628	3.277326	0.264131	-0.220655	0.078230	0.125482	93.925147	-78.405630	-40.095800
14444		9.515473	2.886155	0.424177	-0.397529	0.071576	0.205893	93.543184	-78.526620	-39.938764
14445		9.333478	2.183157	0.635290	-0.490232	0.062550	0.276559	93.144120	-78.687048	-39.818273
14446		9.235977	1.540880	0.765299	-0.531766	0.063932	0.331286	92.712281	-78.879024	-39.688983
14447		9.185806	1.128465	0.502846	-0.623038	0.085899	0.361391	92.161913	-79.088186	-39.492025
14448		9.172713	0.902367	0.167149	-0.686536	0.129774	0.383769	91.423212	-79.310948	-39.140824
14449		9.087077	0.912969	0.091427	-0.677109	0.151011	0.388948	90.607638	-79.535560	-38.705880
14450		8.994867	1.033619	0.027907	-0.657358	0.146236	0.386742	89.784916	-79.758277	-38.252792
14451		8.952761	1.125410	-0.020090	-0.671053	0.158247	0.366766	88.894936	-79.967704	-37.739349
14452		8.854504	1.203035	0.054199	-0.701253	0.167230	0.335355	87.924720	-80.158104	-37.162639
14453		8.784320	1.234545	0.002291	-0.741682	0.181657	0.311038	86.863517	-80.331836	-36.517122
14454		8.648705	1.094920	-0.007246	-0.762445	0.188949	0.293899	85.731620	-80.493992	-35.812601
14455		8.443656	0.735604	0.046277	-0.741782	0.188661	0.274949	84.594346	-80.642391	-35.090643
14456		8.201185	0.383638	0.052149	-0.685473	0.188472	0.239119	83.467398	-80.768683	-34.347048
14457		8.069376	0.092779	0.006918	-0.584586	0.191491	0.192070	82.391542	-80.865034	-33.596582
14458		7.929058	-0.068498	-0.064053	-0.457725	0.174151	0.149890	81.446157	-80.937524	-32.905135
14459		8.030778	-0.018333	-0.186719	-0.330882	0.147572	0.099601	80.692444	-80.981503	-32.333973
14460		8.168780	0.198044	-0.348340	-0.219713	0.116529	0.077425	80.113452	-81.015848	-31.875618
14461		8.387842	0.401528	-0.337348	-0.096218	0.089145	0.055243	79.721292	-81.038851	-31.534476
14462		8.473060	0.606183	-0.101460	0.042269	0.077336	0.045150	79.448674	-81.058202	-31.234382
14463		8.464447	0.823782	0.097601	0.121783	0.049410	0.054150	79.321554	-81.084288	-31.035135
14464		8.468380	0.903296	0.121727	0.144461	0.010719	0.078272	79.322363	-81.129230	-30.952582
14465		8.494017	0.966368	0.166377	0.160955	-0.005786	0.112413	79.375735	-81.193949	-30.913331
14466		8.478013	1.091360	0.209513	0.164743	-0.034799	0.145461	79.508183	-81.281586	-30.952241
14467		8.476679	1.259595	0.316487	0.130322	-0.044176	0.162992	79.652454	-81.378808	-31.022713
14468		8.458780	1.332847	0.382928	0.074608	-0.036097	0.179486	79.718298	-81.485733	-31.046471
14469		8.489372	1.400699	0.352924	0.013642	-0.025936	0.175004	79.721672	-81.587836	-31.042045
14470		8.580651	1.406479	0.309423	-0.043518	0.001110	0.175661	79.579920	-81.688742	-30.924365
14471		8.734603	1.333075	0.291604	-0.076804	0.029334	0.164736	79.321180	-81.779260	-30.707442
14472		8.953015	1.282588	0.282481	-0.085055	0.048453	0.163855	78.970242	-81.868230	-30.402522
14473		9.125219	1.211804	0.252656	-0.074287	0.048247	0.159320	78.630425	-81.953239	-30.102346
14474		9.382350	1.112405	0.205204	-0.021891	0.053304	0.164091	78.281939	-82.041250	-29.763484
14475		9.556413	1.022901	0.212298	0.071907	0.029041	0.169145	78.081782	-82.133561	-29.519872
14476		9.596077	0.930061	0.282938	0.179693	-0.023127	0.165893	78.147569	-82.231342	-29.482736
14477		9.515922	0.872980	0.324908	0.264424	-0.048501	0.153050	78.387328	-82.323709	-29.571865
14478		9.281600	1.039619	0.410144	0.329060	-0.048378	0.149152	78.662984	-82.415040	-29.660147
14479		8.882134	1.141287	0.550490	0.387435	-0.054292	0.147185	79.011830	-82.504629	-29.788181
14480		8.618995	1.138974	0.604244	0.431681	-0.077745	0.143708	79.487819	-82.595868	-30.019167
14481		8.524203	1.041664	0.575635	0.452254	-0.084873	0.151315	80.018364	-82.690622	-30.292907
14482		8.557416	0.858123	0.457478	0.446133	-0.112960	0.169914	80.658394	-82.799434	-30.680810
14483		8.779767	0.651708	0.334296	0.419480	-0.160664	0.200160	81.504097	-82.927732	-31.290960
14484		9.047746	0.460378	0.230772	0.401518	-0.164969	0.230453	82.357565	-83.073693	-31.919443
14485		9.017355	0.551601	0.382588	0.387785	-0.171601	0.215348	83.284623	-83.209049	-32.629461
14486		9.041212	0.884258	0.473027	0.368949	-0.202864	0.192915	84.387775	-83.333399	-33.527795
14487		9.324377	1.113613	0.244951	0.374499	-0.179454	0.189326	85.426398	-83.451128	-34.357420
14488		9.396939	1.087446	0.310886	0.352710	-0.102255	0.183281	86.087120	-83.562096	-34.819401
14489		9.288382	0.721043	0.395152	0.318302	-0.082042	0.164437	86.659222	-83.659579	-35.211629
14490		9.341885	0.347204	0.256816	0.369533	-0.098932	0.166444	87.353277	-83.759649	-35.697263
14491		9.470460	0.147786	0.304166	0.458821	-0.108650	0.216420	88.171114	-83.886402	-36.255520
14492		9.359510	-0.015257	0.186821	0.574021	-0.089808	0.260916	88.965723	-84.039061	-36.724228
14493		8.851603	-0.045362	0.520600	0.610304	-0.157805	0.318359	90.208525	-84.222450	-37.622121
14494		8.722613	-0.102089	0.726278	0.522230	-0.239499	0.387661	91.948445	-84.443938	-39.070297
14495		8.561859	0.024928	0.786624	0.498414	-0.288281	0.471698	94.150853	-84.705233	-40.995818
14496		8.593172	0.391878	0.587676	0.561955	-0.329429	0.555784	96.918821	-85.006022	-43.452094
14497		8.555589	0.469714	0.667807	0.688384	-0.216000	0.631270	99.405884	-85.346455	-45.552233
14498		7.811615	0.206878	1.160044	0.715155	-0.172402	0.671730	101.991310	-85.708216	-47.734931
14499		7.063217	-2.233308	-0.297737	0.499639	-0.404936	0.776157	106.996692	-86.080637	-52.466206
14500		8.183532	2.452229	-1.882957	-0.219170	-0.798551	1.131365	117.235115	-86.512395	-62.852082
14501		12.334526	6.813906	-7.990727	-2.429167	-1.040504	1.383211	132.112782	-86.826877	-79.148752
14502		14.217031	4.161937	-1.682536	0.136654	-1.098338	1.876558	155.219453	-86.959051	-102.210307
14503		13.827527	1.012526	8.695266	0.478398	-0.876439	2.162054	179.608387	-86.731269	-126.360674
14504		11.702418	-1.115825	1.668146	-1.686806	-0.482574	2.033596	-163.025824	-86.282364	-144.726518
14505		12.747739	0.349218	-3.614989	-1.353304	-0.592423	1.428353	-154.695068	-85.666033	-153.855040
14506		17.868890	5.967000	1.272323	0.132146	-0.414697	0.925980	-150.099337	-85.207376	-158.389476
14507		19.575652	8.934381	3.590436	0.216099	0.353593	1.002690	-143.045290	-85.057258	-165.344789
14508		16.667871	6.593937	0.930982	-0.613027	0.269351	1.273890	-136.081270	-84.699830	-172.689258
14509		13.307570	1.510930	-1.585776	-1.248929	0.542999	1.396280	-128.805769	-84.316430	179.282894
14510		8.127324	-2.853247	-2.185673	-1.469680	0.093039	1.408059	-124.651130	-83.701133	174.258937
14511		8.456446	-5.726536	-1.798895	-1.949566	-0.707976	1.421657	-124.689435	-82.798637	173.172640
14512		11.019858	-9.320166	-2.399928	-2.178824	-0.491966	1.338149	-124.423609	-82.006679	171.645148
14513		11.102556	-9.112266	-2.679625	-0.873382	-0.217361	1.003387	-123.440930	-81.458347	170.146433
14514		11.303057	-7.300364	-2.828176	-0.183216	-0.217612	0.666138	-122.869045	-81.068862	169.461700
14515		10.834779	-6.977818	-1.075793	0.416571	-0.008198	0.455331	-121.792148	-80.844185	168.612868
14516		9.531638	-7.304631	-0.423320	0.642179	-0.103696	0.353933	-121.086789	-80.637633	168.271038
14517		10.096854	-5.384329	-1.087628	0.549600	-0.270623	0.293144	-121.061254	-80.412074	168.564337
14518		10.699666	-2.130456	-2.082648	0.568697	-0.219403	0.259724	-120.916104	-80.216639	168.747679
14519		10.121312	0.660519	-1.648939	0.484756	-0.066160	0.178931	-120.536832	-80.107486	168.644572
14520		9.226304	2.395847	-1.312520	-0.081329	-0.090725	0.072173	-120.718152	-80.042340	168.781373
14521		9.154996	2.472387	-2.147626	-0.768279	-0.114377	0.020554	-121.455096	-79.996747	169.082620
14522		9.408805	0.197451	-2.004827	-0.980315	-0.055383	-0.026752	-122.217131	-79.990355	169.286103
14523		9.899266	-2.264545	-0.964695	-0.911647	-0.030412	-0.054610	-122.930352	-80.005615	169.479869
14524		10.074481	-3.855156	-0.703732	-0.898517	-0.010312	-0.051960	-123.568128	-80.024570	169.604745
14525		9.851708	-4.214456	-0.821365	-0.721223	0.007735	-0.033837	-124.033717	-80.041375	169.657840
14526		9.169523	-3.895915	-0.442983	-0.372616	-0.020176	-0.025191	-124.348576	-80.043791	169.760773
14527		8.884206	-3.199769	0.066994	-0.005931	-0.102504	-0.034320	-124.702596	-80.024907	170.116701
14528		9.177195	-2.390482	-0.504258	0.157351	-0.171593	-0.028708	-125.122121	-79.978895	170.634270
14529		9.745594	-1.485367	-1.566150	0.261358	-0.171448	-0.003039	-125.442109	-79.921752	171.111258
14530		9.953834	-0.705879	-1.877567	0.314257	-0.123214	0.033104	-125.521392	-79.862049	171.374720
14531		9.818127	-0.195873	-1.276242	0.448651	-0.098429	0.046078	-125.446373	-79.805983	171.559596
14532		9.564374	0.460384	-1.011366	0.394042	-0.129977	0.070252	-125.427004	-79.726831	171.769364
14533		9.607644	0.150689	-1.226744	0.239979	-0.132357	0.092554	-125.471152	-79.637818	171.953930
14534		9.621085	-0.369641	-1.005737	0.177970	-0.100381	0.098384	-125.446789	-79.555580	172.032868
14535		9.511245	-0.566460	-0.897248	0.032284	-0.097637	0.104126	-125.498439	-79.472699	172.104142
14536		9.419350	-0.511150	-0.931982	-0.117802	-0.098949	0.122429	-125.595603	-79.379841	172.134366
14537		9.506761	-0.563806	-0.921204	-0.212440	-0.108589	0.142425	-125.743857	-79.275429	172.161303
14538		9.707903	-0.985625	-1.105410	-0.323535	-0.100331	0.161776	-125.890560	-79.163922	172.121991
14539		9.671054	-1.542568	-1.301472	-0.402504	-0.081273	0.154845	-126.056709	-79.062920	172.056275
14540		9.612057	-1.964607	-1.431322	-0.397045	-0.074505	0.140269	-126.219212	-78.970146	171.990130
14541		9.599391	-2.558443	-1.401436	-0.335429	-0.060310	0.126582	-126.344741	-78.889373	171.922143
14542		9.593415	-3.263877	-1.287634	-0.226983	-0.043484	0.102219	-126.401766	-78.824627	171.847763
14543		9.498084	-3.454463	-1.166507	-0.117985	-0.044520	0.073256	-126.457321	-78.773844	171.835419
14544		9.533987	-3.140900	-1.198565	-0.035919	-0.057941	0.055244	-126.518192	-78.725617	171.876550
14545		9.596993	-2.546351	-1.160594	0.053296	-0.056757	0.043887	-126.553604	-78.684185	171.943734
14546		9.659015	-1.817691	-1.033822	0.105182	-0.051094	0.039624	-126.543443	-78.645329	171.994887
14547		9.605876	-1.159159	-0.842752	0.079451	-0.052296	0.038848	-126.561684	-78.607735	172.059861
14548		9.577196	-0.895847	-0.864009	-0.019210	-0.055153	0.047816	-126.617670	-78.563758	172.105806
14549		9.536348	-0.866046	-0.977298	-0.089483	-0.054913	0.046887	-126.724202	-78.521547	172.162126
14550		9.500616	-0.927250	-1.044254	-0.157492	-0.048034	0.037201	-126.860429	-78.484959	172.209123
14551		9.519083	-1.169976	-1.213405	-0.239675	-0.067565	0.043158	-127.086193	-78.440036	172.299322
14552		9.500390	-1.502731	-1.512408	-0.245000	-0.080211	0.047539	-127.325368	-78.387580	172.400244
14553		9.546535	-1.704366	-1.361746	-0.205305	-0.081460	0.055020	-127.539525	-78.332278	172.498731
14554		9.483737	-1.847263	-1.283675	-0.127602	-0.078798	0.063233	-127.679305	-78.273026	172.566879
14555		9.616746	-1.666631	-1.215360	-0.011649	-0.077738	0.078331	-127.732884	-78.208368	172.614723
14556		9.639221	-1.298829	-1.162933	0.082347	-0.061052	0.100256	-127.650870	-78.138511	172.579202
14557		9.650722	-0.699629	-1.206660	0.094505	-0.059423	0.121155	-127.533183	-78.060832	172.514201
14558		9.614456	-0.203162	-1.255121	0.037933	-0.068334	0.149458	-127.413467	-77.966124	172.414105
14559		9.586936	-0.112270	-1.395150	-0.063207	-0.066495	0.172626	-127.320022	-77.862495	172.281441
14560		9.535183	-0.337587	-1.496419	-0.146455	-0.068935	0.186769	-127.251182	-77.750672	172.125233
14561		9.542127	-0.749068	-1.527869	-0.216635	-0.084825	0.197436	-127.247936	-77.629314	171.994800
14562		9.574769	-1.316656	-1.422406	-0.215661	-0.061845	0.211681	-127.169282	-77.508641	171.787793
14563		9.474815	-1.793232	-1.112760	-0.176319	-0.038821	0.223418	-127.012184	-77.391228	171.523287
14564		9.351916	-2.076171	-0.806233	-0.128212	-0.039004	0.230450	-126.814960	-77.269606	171.245917
14565		9.321206	-2.065461	-0.972300	-0.114088	-0.063912	0.230203	-126.670941	-77.140131	171.031133
14566		9.440396	-1.835557	-1.187546	-0.117811	-0.061537	0.230951	-126.520364	-77.010238	170.807470
14567		9.467413	-1.709608	-1.212893	-0.152073	-0.057871	0.229113	-126.394773	-76.883086	170.589038
14568		9.522775	-1.597338	-1.377424	-0.165506	-0.066382	0.225502	-126.295797	-76.753854	170.390080
14569		9.557661	-1.691564	-1.641284	-0.192438	-0.061915	0.233422	-126.201296	-76.623163	170.179601
14570		9.485924	-2.078873	-1.643633	-0.169161	-0.050943	0.229099	-126.075467	-76.497326	169.950666
14571		9.422010	-2.300102	-1.454148	-0.111311	-0.044619	0.232505	-125.908929	-76.372667	169.713676
14572		9.419821	-2.362618	-1.387047	-0.042111	-0.052234	0.231670	-125.716451	-76.244848	169.490823
14573		9.570634	-2.185672	-1.368062	0.012940	-0.047954	0.245638	-125.475183	-76.112577	169.249929
14574		9.569679	-1.859552	-1.302433	0.022127	-0.035594	0.255491	-125.191312	-75.978660	168.970580
14575		9.552445	-1.389564	-1.267611	-0.049282	-0.038868	0.260681	-124.958424	-75.841809	168.701290
14576		9.518663	-1.115239	-1.230799	-0.136742	-0.040815	0.272402	-124.763372	-75.697733	168.419331
14577		9.406844	-1.290470	-1.285563	-0.215203	-0.039196	0.279312	-124.611474	-75.551557	168.135169
14578		9.443527	-1.356690	-1.481537	-0.246766	-0.037973	0.284525	-124.468207	-75.402399	167.841219
14579		9.416259	-1.293601	-1.615916	-0.281471	-0.018944	0.298092	-124.303246	-75.253527	167.503924
14580		9.401214	-1.331727	-1.497815	-0.252470	-0.017370	0.318327	-124.095022	-75.094618	167.138988
14581		9.326748	-1.713061	-1.364718	-0.228700	-0.024355	0.331184	-123.880916	-74.927703	166.781625
14582		9.327975	-2.227221	-1.314364	-0.192861	-0.041657	0.345643	-123.661935	-74.747418	166.440354
14583		9.426488	-2.773719	-1.599721	-0.151520	-0.055303	0.365483	-123.431077	-74.553618	166.110864
14584		9.514257	-3.049937	-1.854127	-0.072706	-0.039725	0.368181	-123.128410	-74.362341	165.753570
14585		9.405025	-3.142103	-1.709393	-0.026929	-0.023484	0.364038	-122.788597	-74.178269	165.384440
14586		9.255026	-3.355340	-1.585927	-0.023782	-0.028115	0.334257	-122.490807	-74.005766	165.060719
14587		9.313118	-3.479371	-1.516781	-0.018453	-0.029479	0.301689	-122.237205	-73.849001	164.785731
14588		9.371716	-3.555312	-1.484367	0.028542	-0.013685	0.271408	-121.962823	-73.710428	164.517104
14589		9.469859	-3.259944	-1.393409	0.106376	-0.008925	0.257966	-121.658570	-73.580432	164.263474
14590		9.378928	-2.842999	-1.124664	0.156448	-0.002781	0.246620	-121.327007	-73.456332	164.011288
14591		9.327580	-2.331985	-1.196116	0.155335	-0.012204	0.239747	-121.026931	-73.333512	163.790960
14592		9.369857	-1.864978	-1.445485	0.121168	-0.009142	0.245124	-120.735513	-73.207528	163.559274
14593		9.345839	-1.461919	-1.617852	0.053270	-0.011099	0.257623	-120.482298	-73.075597	163.326513
14594		9.625199	-1.359625	-2.238130	-0.035455	-0.024796	0.260561	-120.298752	-72.936976	163.113458
14595		9.448161	-1.261523	-1.786348	-0.142219	0.038587	0.292959	-120.051686	-72.801345	162.769586
14596		8.879248	-1.939800	-0.916034	0.030765	-0.015629	0.295562	-119.791142	-72.647573	162.515281
14597		9.150874	-2.096906	-1.340394	0.066393	-0.012293	0.342385	-119.470952	-72.471957	162.219469
14598		9.410062	-2.383471	-1.196333	0.176521	-0.003908	0.377840	-119.046664	-72.279556	161.880504
14599		9.271125	-2.001555	-0.715713	0.194829	-0.007597	0.394241	-118.615068	-72.077988	161.544343
14600		9.136711	-1.490659	-1.274654	0.079849	-0.046140	0.418899	-118.293173	-71.852045	161.254051
14601		9.345126	-1.058940	-1.559110	0.048058	-0.061372	0.473688	-117.978887	-71.594574	160.951998
14602		9.455417	-1.055889	-1.436556	0.068479	-0.040909	0.525240	-117.587285	-71.315261	160.580453
14603		9.440079	-0.988844	-1.205633	0.105346	-0.030518	0.587071	-117.126127	-71.006950	160.156903
14604		9.363362	-0.892891	-1.198239	0.083273	-0.019078	0.653190	-116.623895	-70.666295	159.675844
14605		9.164398	-0.984039	-1.166678	0.103466	-0.032961	0.719575	-116.102545	-70.287012	159.185524
14606		9.254445	-1.004729	-0.798261	0.188353	-0.053670	0.768051	-115.546419	-69.875907	158.708936
14607		9.311364	-1.215079	-0.586388	0.160700	-0.070182	0.828310	-115.012255	-69.428150	158.237358
14608		9.161351	-1.863646	-1.017270	0.032902	-0.071844	0.883532	-114.537956	-68.949983	157.750299
14609		8.784621	-2.000272	-1.322698	-0.103391	-0.069151	0.934224	-114.130229	-68.444532	157.249023
14610		8.312905	-2.125743	-1.711553	-0.219646	-0.094301	0.970381	-113.819424	-67.913457	156.778865
14611		8.266457	-2.407864	-1.567057	-0.249239	-0.105122	0.992846	-113.546647	-67.366932	156.329432
14612		8.477895	-2.748084	-1.544907	-0.216815	-0.099275	1.024460	-113.247251	-66.804629	155.869706
14613		8.820914	-2.961140	-1.665798	-0.114394	-0.096134	1.069553	-112.882496	-66.217871	155.400467
14614		9.194152	-2.592184	-1.189170	-0.003907	-0.080480	1.152472	-112.415539	-65.589789	154.886676
14615		8.626310	-3.377310	-0.755542	-0.258119	-0.052164	1.256994	-112.037752	-64.910469	154.307765
14616		7.368632	-6.095052	-0.661734	-0.330779	-0.191503	1.289922	-111.864528	-64.183168	153.906259
14617		7.089515	-4.589798	-1.029477	0.393642	-0.293357	1.251530	-111.423771	-63.453364	153.666372
14618		7.884915	-3.873563	-5.264309	-0.543069	-0.086804	1.196518	-111.336460	-62.795848	153.219956
14619		7.939664	-4.361132	-0.127758	0.543878	-0.082509	1.083361	-110.686838	-62.198183	152.838822
14620		9.262709	-2.735831	-1.870680	-0.033870	-0.181247	0.950138	-110.532684	-61.651004	152.642344
14621		9.758359	-2.810562	-1.889111	-0.291237	-0.102668	0.907945	-110.471002	-61.141892	152.381952
14622		9.855751	-2.812864	-1.125455	-0.222807	-0.115356	0.990111	-110.358340	-60.586333	152.107029
14623		9.562692	-3.140063	-1.697969	-0.365689	-0.149443	1.125834	-110.320205	-59.950496	151.821753
14624		8.971249	-3.777116	-1.534591	-0.402297	-0.156300	1.229206	-110.280780	-59.258311	151.509053
14625		8.363113	-3.939150	-1.273844	-0.221221	-0.203978	1.302031	-110.166064	-58.516659	151.226946
14626		7.967991	-4.523874	-1.591645	-0.255150	-0.255485	1.343907	-110.110146	-57.742880	150.989231
14627		7.741135	-5.108631	-1.865277	-0.261301	-0.275353	1.356802	-110.078148	-56.957380	150.773342
14628		7.824775	-4.797435	-1.857547	-0.018531	-0.263622	1.376397	-109.898525	-56.164160	150.545653
14629		7.722313	-5.066990	-1.744976	0.053433	-0.235114	1.398009	-109.659546	-55.363615	150.293547
14630		7.132903	-6.085516	-1.859324	0.012046	-0.254523	1.399028	-109.468668	-54.559003	150.069151
14631		7.073168	-5.701468	-2.256591	0.187282	-0.250259	1.387792	-109.187799	-53.760020	149.854974
14632		7.683326	-5.181325	-2.072109	0.349864	-0.202531	1.389230	-108.789302	-52.969014	149.608488
14633		8.240185	-5.001216	-2.214420	0.326860	-0.160942	1.386668	-108.388556	-52.185402	149.339623
14634		8.322778	-4.577383	-2.270481	0.225609	-0.129539	1.381704	-108.037108	-51.409694	149.057176
14635		8.335718	-3.966365	-2.187265	0.154718	-0.110638	1.425041	-107.716497	-50.612034	148.758666
14636		8.017143	-4.346368	-1.939060	0.011349	-0.098007	1.510360	-107.463098	-49.769863	148.437509
14637		7.635316	-4.899355	-2.308594	-0.026394	-0.103994	1.601912	-107.228976	-48.874901	148.108784
14638		7.152432	-5.056037	-2.031204	0.024727	-0.061071	1.669530	-106.938467	-47.950147	147.739529
14639		6.603416	-5.490801	-1.872956	0.022022	-0.058875	1.714142	-106.654411	-46.999080	147.371142
14640		5.755222	-6.307172	-1.925036	0.012864	-0.062899	1.750747	-106.385266	-46.027099	147.010536
14641		4.962267	-6.506017	-2.121737	0.100986	-0.056638	1.800202	-106.068194	-45.026617	146.647207
14642		3.942851	-7.018803	-2.151707	0.122632	-0.030431	1.842445	-105.732406	-44.006411	146.268668
14643		2.748166	-7.763890	-2.323802	0.141788	-0.026718	1.848309	-105.398013	-42.981104	145.900784
14644		1.667394	-7.831952	-2.589513	0.286811	-0.002402	1.799145	-104.989703	-41.985381	145.539648
14645		1.918305	-6.921845	-2.412255	0.437021	-0.025191	1.707431	-104.533363	-41.034710	145.228829
14646		4.455003	-5.542384	-1.965000	0.576771	-0.071071	1.592792	-104.045911	-40.139235	144.987497
14647		7.752867	-4.811331	-1.765202	0.406651	-0.062555	1.475789	-103.675703	-39.308752	144.772707
14648		9.928650	-5.297390	-2.240157	0.000975	-0.025060	1.443704	-103.531566	-38.500530	144.543965
14649		11.110023	-6.604359	-2.985960	-0.272303	-0.007160	1.533735	-103.531723	-37.644258	144.291111
14650		11.589996	-8.716909	-3.744355	-0.444521	0.004271	1.697844	-103.613746	-36.698925	144.005078
14651		10.929978	-10.493669	-4.275231	-0.334603	0.062303	1.887350	-103.596019	-35.655346	143.650161
14652		9.263630	-12.166429	-4.189354	-0.197520	0.119831	1.994768	-103.476543	-34.560359	143.245129
14653		8.428950	-12.505019	-4.109694	0.112347	0.161823	1.871700	-103.185907	-33.537296	142.840915
14654		8.727027	-11.723306	-3.423969	0.325548	0.280846	1.584550	-102.766525	-32.688858	142.413890
14655		9.616496	-11.337019	-2.333590	0.405104	0.401956	1.292696	-102.291923	-32.014900	141.960627
14656		10.052496	-11.108898	-1.912235	0.320279	0.459366	1.106678	-101.869502	-31.450290	141.505545
14657		10.058962	-10.908828	-1.540082	0.238643	0.444964	1.026551	-101.511138	-30.925119	141.077441
14658		9.504113	-10.891632	-1.205475	0.262315	0.385916	1.035831	-101.165300	-30.387438	140.693291
14659		8.554089	-10.770165	-0.912187	0.380900	0.323137	1.080154	-100.774995	-29.814272	140.350088
14660		7.300082	-10.324106	-0.335056	0.638339	0.258347	1.098894	-100.263621	-29.223355	140.054172
14661		5.929026	-9.984553	0.360503	0.965675	0.224188	1.076637	-99.583147	-28.637078	139.791141
14662		4.659797	-9.570659	0.761538	1.190779	0.214104	0.995657	-98.787812	-28.094772	139.553303
14663		3.446178	-9.477283	0.928514	1.279289	0.224533	0.879603	-97.950266	-27.614187	139.329374
14664		2.571841	-9.135720	1.082836	1.398535	0.216426	0.752339	-97.057097	-27.204230	139.130568
14665		1.982285	-8.430526	1.278389	1.353079	0.221062	0.626488	-96.197926	-26.861675	138.945808
14666		1.452999	-8.050180	1.069350	1.299824	0.210304	0.541460	-95.377803	-26.566191	138.779486
14667		1.394706	-7.355450	1.110670	1.188433	0.114332	0.480751	-94.653868	-26.296978	138.682713
14668		1.604556	-6.969134	0.899481	0.995619	0.033378	0.434537	-94.065148	-26.050960	138.643136
14669		1.602886	-7.221102	0.430924	0.865728	0.041627	0.388959	-93.551719	-25.829688	138.603206
14670		1.283836	-7.738263	0.183034	0.798136	0.062987	0.336809	-93.071896	-25.639710	138.553497
14671		1.168722	-8.251898	0.038753	0.767319	-0.003191	0.252498	-92.631041	-25.494682	138.550536
14672		1.593121	-8.285609	0.173423	0.621284	-0.087048	0.147911	-92.297187	-25.408174	138.604281
14673		2.117242	-8.446639	-0.154748	0.445723	-0.116891	0.051571	-92.074386	-25.375679	138.680109
14674		2.570750	-8.535943	-0.462411	0.317936	-0.129468	-0.042167	-91.927895	-25.397298	138.765647
14675		3.106450	-8.498898	-0.720535	0.203389	-0.151231	-0.132003	-91.855084	-25.469628	138.867304
14676		3.621161	-8.445619	-0.795262	0.109879	-0.164699	-0.213556	-91.839214	-25.588804	138.978747
14677		4.135996	-8.350111	-0.920041	0.018012	-0.179058	-0.282385	-91.882062	-25.746783	139.101344
14678		4.529860	-8.198554	-1.170022	-0.084681	-0.163491	-0.354006	-91.979514	-25.946243	139.215554
14679		4.673130	-8.332332	-1.196914	-0.199011	-0.123833	-0.406095	-92.133687	-26.175814	139.306791
14680		4.319112	-8.689900	-1.051192	-0.306009	-0.109445	-0.440876	-92.345304	-26.425729	139.390357
14681		4.033297	-9.177493	-0.939486	-0.378697	-0.145830	-0.464958	-92.611178	-26.687840	139.499580
14682		3.604897	-9.769303	-0.447835	-0.301032	-0.153459	-0.451469	-92.834828	-26.941941	139.614458
14683		2.896613	-10.259234	-0.392432	-0.299179	-0.206117	-0.393356	-93.073846	-27.160481	139.762959
14684		2.043366	-10.818845	-0.751436	-0.295273	-0.297699	-0.315604	-93.336510	-27.331144	139.968554
14685		0.910852	-10.543341	-1.284759	-0.164010	-0.455440	-0.257999	-93.571557	-27.462502	140.275000
14686		0.348277	-8.394818	-2.506517	-0.057986	-0.637410	-0.359364	-93.802503	-27.643646	140.703638
14687		1.082815	-7.013817	-2.852772	0.278611	-0.537873	-0.613385	-93.818858	-27.973342	141.080734
14688		1.965968	-5.529888	-0.658813	1.061905	-0.319331	-0.985267	-93.328472	-28.524117	141.330701
14689		2.685516	-3.947070	0.899555	1.274788	-0.129154	-1.474897	-92.664916	-29.363689	141.468714
14690		2.990848	-2.608057	1.628973	0.869586	0.149691	-2.018297	-92.146329	-30.521462	141.428580
14691		2.714877	-2.338123	2.157390	0.301816	0.377000	-2.551845	-91.875207	-31.989835	141.239240
14692		2.634059	-2.627156	2.732022	-0.069904	0.389139	-2.964519	-91.807572	-33.693660	141.041644
14693		3.171658	-3.002201	2.158091	-0.608143	0.184995	-3.207665	-92.128420	-35.533666	140.992909
14694		4.096833	-3.747488	0.763640	-1.097486	-0.034647	-3.309286	-92.833378	-37.426188	141.122164
14695		4.858511	-4.288205	-0.043922	-1.263684	-0.044290	-3.383316	-93.666858	-39.359652	141.298143
14696		5.154708	-4.620980	0.019351	-1.290182	0.006989	-3.470503	-94.524278	-41.342470	141.481779
14697		5.783546	-5.200061	-0.002156	-1.233861	-0.016687	-3.583092	-95.404539	-43.386348	141.738728
14698		6.822447	-5.633709	0.022547	-1.241639	0.056377	-3.675225	-96.296008	-45.483628	141.996878
14699		7.577580	-6.028799	0.154118	-1.593792	0.290073	-3.784892	-97.309194	-47.655979	142.134329
14700		7.539845	-6.653256	-0.258424	-1.892913	0.647081	-3.998679	-98.331551	-49.975410	142.052543
14701		7.237632	-7.810078	-1.418821	-1.584826	0.869824	-4.259990	-99.090009	-52.462786	141.860440
14702		7.555919	-9.099565	-2.163717	-0.826729	0.958175	-4.497397	-99.390327	-55.093386	141.646366
14703		8.105999	-9.540160	-2.026278	-0.097642	1.055138	-4.649094	-99.199316	-57.819052	141.350059
14704		8.921769	-8.447731	-1.921914	0.380768	1.114773	-4.694187	-98.623624	-60.573739	140.934555
14705		10.038695	-6.414862	-2.171384	0.639479	1.171773	-4.624777	-97.722238	-63.291408	140.328437
14706		11.151077	-4.333969	-2.122303	0.768467	1.239637	-4.488997	-96.469294	-65.929944	139.429564
14707		11.743823	-3.079683	-0.973400	0.871500	1.309947	-4.407567	-94.787049	-68.516297	138.146966
14708		11.706565	-1.945773	0.326217	0.709939	1.343743	-4.406184	-92.747530	-71.084961	136.407901
14709		11.627671	-1.132518	0.776459	0.142856	1.323966	-4.371990	-90.514998	-73.610592	134.151472
14710		11.976785	-1.151338	0.454708	-0.512053	1.277801	-4.232391	-88.000843	-76.025805	131.243181
14711		12.505390	-1.532372	-0.061182	-1.021240	1.291602	-3.965637	-84.732059	-78.247633	127.290729
14712		12.878555	-2.306652	-0.503596	-1.278058	1.275119	-3.638773	-80.227704	-80.220630	121.961196
14713		13.224769	-2.754501	-0.796851	-1.311502	1.210993	-3.326492	-73.976718	-81.927135	114.873787
14714		12.818276	-3.067077	-0.746901	-1.185339	1.117759	-3.064908	-65.278785	-83.355252	105.419839
14715		12.018200	-3.092217	-0.406223	-0.964799	0.984322	-2.860373	-53.431370	-84.485552	92.950544
14716		11.075749	-3.062661	-0.071476	-0.729036	0.840302	-2.701380	-37.922792	-85.264830	76.961374
14717		10.455478	-2.772081	0.027244	-0.488001	0.686646	-2.551953	-19.665368	-85.631361	58.366727
14718		10.120602	-2.563547	-0.114912	-0.222663	0.555843	-2.385558	-1.510636	-85.570681	40.031079
14719		9.935031	-2.331519	-0.200128	0.135919	0.440735	-2.225395	13.946785	-85.180754	24.601938
14720		9.801842	-1.984283	-0.207765	0.518761	0.322682	-2.076523	26.053553	-84.599793	12.745441
14721		9.764930	-1.532176	-0.201804	0.818754	0.202030	-1.922513	35.388952	-83.938065	3.834890
14722		9.928841	-1.046633	-0.270131	1.058846	0.112307	-1.754869	42.603741	-83.257332	-2.814885
14723		10.038271	-0.383753	-0.344747	1.274819	0.041093	-1.556150	48.260736	-82.607137	-7.779108
14724		10.101230	0.194851	-0.199477	1.407188	-0.067077	-1.357741	52.954482	-82.033252	-11.702147
14725		10.187200	0.634188	-0.156134	1.465000	-0.182849	-1.160747	57.047773	-81.550171	-14.989742
14726		10.038835	1.177617	-0.027119	1.494044	-0.271919	-0.976535	60.690889	-81.154890	-17.809305
14727		9.837526	1.717529	0.105178	1.483156	-0.347241	-0.789122	63.993246	-80.848242	-20.292479
14728		9.815393	2.114969	0.175519	1.445699	-0.391499	-0.620677	66.987015	-80.620740	-22.486970
14729		9.656940	2.249928	0.265994	1.426738	-0.380724	-0.496956	69.664552	-80.437971	-24.372804
14730		9.334552	2.231382	0.463247	1.390309	-0.374454	-0.410684	72.120192	-80.288639	-26.055988
14731		9.269177	1.954566	0.353265	1.364860	-0.352330	-0.349434	74.373361	-80.156187	-27.548894
14732		9.289120	1.919163	0.027752	1.298095	-0.288985	-0.288267	76.286682	-80.040873	-28.736506
14733		9.269928	1.964575	-0.273859	1.205242	-0.225951	-0.211870	77.861111	-79.952426	-29.634090
14734		9.244658	1.858204	-0.214100	1.156761	-0.198910	-0.123634	79.245153	-79.907978	-30.366977
14735		9.194227	1.821906	-0.007499	1.141348	-0.207604	-0.048960	80.599133	-79.901955	-31.078085
14736		9.164594	1.852525	0.119752	1.069908	-0.232133	0.010543	81.960102	-79.930304	-31.838091
14737		9.262809	2.001112	-0.003212	0.967195	-0.247906	0.042393	83.306603	-79.973264	-32.642838
14738		9.316899	2.184035	-0.017267	0.872162	-0.222348	0.056290	84.519684	-80.020889	-33.367513
14739		9.302456	2.472003	0.060790	0.779598	-0.213001	0.063666	85.656522	-80.068226	-34.068290
14740		9.351475	2.700247	0.125614	0.636639	-0.203042	0.067605	86.686202	-80.116486	-34.743540
14741		9.378455	2.816234	0.106715	0.429442	-0.187992	0.055224	87.557206	-80.153944	-35.377935
14742		9.456574	2.887692	0.149865	0.212342	-0.141145	0.026032	88.157298	-80.173478	-35.863744
14743		9.452776	2.832173	0.237813	-0.039149	-0.075836	0.001727	88.401054	-80.176165	-36.133959
14744		9.307455	2.489579	0.271437	-0.302706	-0.022476	-0.005668	88.318057	-80.174700	-36.225962
14745		9.106274	1.910990	0.318720	-0.506888	0.013375	0.002855	87.998669	-80.176487	-36.196633
14746		8.886537	1.327611	0.380069	-0.590445	0.007995	0.017424	87.647108	-80.187640	-36.183384
14747		8.852569	0.887079	0.416572	-0.614912	-0.015279	0.052672	87.353404	-80.218602	-36.242932
14748		8.854268	0.588667	0.441148	-0.593520	-0.027204	0.099911	87.103019	-80.277958	-36.334145
14749		8.850727	0.518076	0.540863	-0.562613	-0.034734	0.144266	86.887533	-80.362000	-36.442622
14750		8.859440	0.755769	0.370211	-0.567067	-0.041081	0.183608	86.681973	-80.469916	-36.563903
14751		8.924200	1.142010	0.184308	-0.594185	-0.038587	0.201769	86.448388	-80.587111	-36.672303
14752		8.900046	1.533604	0.166394	-0.610157	-0.025330	0.201751	86.156777	-80.705048	-36.731325
14753		8.840383	1.817629	0.201809	-0.614109	-0.028184	0.179808	85.876404	-80.809442	-36.803816
14754		8.792391	1.888075	0.205842	-0.616903	-0.039304	0.157382	85.636631	-80.902667	-36.919218
14755		8.851052	1.746095	0.136646	-0.611772	-0.032911	0.122586	85.386298	-80.974687	-37.020736
14756		8.935564	1.588304	0.055126	-0.555003	-0.025975	0.102112	85.147363	-81.035816	-37.101021
14757		9.001000	1.259994	0.063867	-0.456838	-0.018723	0.091036	84.941912	-81.089253	-37.158075
14758		8.970127	0.900307	0.217416	-0.356612	-0.013637	0.098288	84.771192	-81.147647	-37.192326
14759		8.852876	0.462085	0.400441	-0.264356	-0.014165	0.115256	84.649777	-81.214711	-37.222800
14760		8.604261	0.233070	0.549506	-0.177144	-0.029440	0.136047	84.626264	-81.295593	-37.301954
14761		8.467890	0.194750	0.528775	-0.106434	-0.056928	0.159860	84.740373	-81.390376	-37.479129
14762		8.601227	0.379202	0.499200	-0.029393	-0.073426	0.176894	84.957674	-81.496913	-37.716185
14763		8.811454	0.647836	0.503148	0.009523	-0.089551	0.181347	85.265687	-81.605353	-38.022127
14764		8.993158	0.886255	0.541177	0.008649	-0.079962	0.168585	85.545546	-81.707187	-38.300266
14765		8.965660	1.033713	0.614187	-0.041876	-0.072279	0.147487	85.780787	-81.795097	-38.562276
14766		8.855994	1.010176	0.470615	-0.112538	-0.069977	0.125184	85.975349	-81.871411	-38.824274
14767		8.777432	0.808695	0.287390	-0.135191	-0.030760	0.108923	86.009661	-81.935399	-38.937236
14768		8.558740	0.571636	0.162454	-0.113089	0.014085	0.101027	85.875171	-81.994490	-38.867161
14769		8.406591	0.272855	0.144914	-0.052727	0.022830	0.097413	85.741888	-82.049708	-38.763146
14770		8.377017	0.077890	0.183835	0.038566	0.011128	0.111477	85.700449	-82.114947	-38.699323
14771		8.354405	-0.052909	0.283580	0.097565	-0.025337	0.145370	85.836288	-82.199594	-38.780082
14772		8.299221	-0.009101	0.263348	0.140711	-0.089351	0.181515	86.256355	-82.309022	-39.122998
14773		8.514553	0.181002	0.134342	0.183246	-0.125383	0.210999	86.862664	-82.434484	-39.628855
14774		8.621274	0.120360	0.126399	0.238895	-0.128444	0.215988	87.529182	-82.563910	-40.163427
14775		8.688409	0.161001	0.169087	0.325337	-0.126793	0.193103	88.265635	-82.677554	-40.718134
14776		8.780846	0.402690	0.396825	0.379943	-0.136126	0.188982	89.093470	-82.789876	-41.333589
14777		8.894237	0.669205	0.304386	0.376119	-0.131425	0.196602	89.922823	-82.903500	-41.952321
14778		8.993464	0.858840	0.255405	0.403188	-0.104362	0.219841	90.662610	-83.031421	-42.465332
14779		8.972073	0.894493	0.302316	0.481471	-0.070056	0.263666	91.314466	-83.182041	-42.844127
14780		8.999763	0.730079	0.334377	0.551394	-0.086630	0.320235	92.117415	-83.366175	-43.334901
14781		8.979326	0.516468	0.226162	0.577764	-0.104145	0.380229	93.079652	-83.581292	-43.970283
14782		8.922165	0.519165	0.109082	0.530555	-0.155856	0.428124	94.356432	-83.822467	-44.949356
14783		9.024055	0.656362	-0.072065	0.586982	-0.232201	0.489706	96.213865	-84.089684	-46.479034
14784		9.034198	1.086100	0.274270	0.690235	-0.226018	0.548343	98.300172	-84.387078	-48.178808
14785		8.785198	1.379668	0.929603	0.726774	-0.180921	0.594193	100.395832	-84.706067	-49.865748
14786		8.335862	1.153351	1.367062	0.788462	-0.134385	0.635565	102.524111	-85.049524	-51.549330
14787		7.904974	0.500188	1.497845	0.915468	-0.120834	0.695185	105.025487	-85.419605	-53.533090
14788		7.587043	-0.782597	1.067739	1.082251	-0.139570	0.757534	108.299984	-85.814207	-56.195599
14789		7.211903	-1.853197	0.932728	1.381324	-0.141986	0.806476	112.539754	-86.218387	-59.652314
14790		6.431178	-3.575084	-0.373376	1.473871	-0.242712	0.882709	118.934280	-86.615535	-65.213528
14791		6.492301	-0.492658	-2.189736	0.908407	-0.741234	1.221614	132.919167	-86.933985	-78.699104
14792		11.068464	7.245833	-5.385733	-1.702170	-1.709956	1.433154	154.232183	-86.627631	-101.022005
14793		19.019601	6.353734	-0.638636	-0.078926	-1.185253	1.840039	173.621600	-86.259139	-120.493398
14794		15.704179	3.279292	4.242856	0.605088	-0.660382	2.048688	-169.195126	-85.828937	-137.369644
14795		12.274736	2.236333	-0.855221	-2.398683	0.089009	1.674866	-158.067425	-85.603391	-149.906509
14796		9.290834	-3.310172	-4.300931	-1.893621	-0.726588	0.987300	-154.858912	-84.993198	-154.214494
14797		17.775641	1.811952	2.275767	-0.550495	-1.138534	0.494814	-155.368180	-84.279536	-154.019857
14798		22.051328	4.185410	3.512874	-0.358024	0.048472	0.693053	-151.940687	-84.125857	-157.671184
14799		17.150236	4.925377	-0.933601	-0.393291	0.473060	1.026613	-145.956472	-84.052062	-163.913931
14800		14.096792	3.723297	-2.029523	-0.128090	0.489422	0.994864	-140.099705	-83.931523	-169.876721
14801		13.980867	0.238065	-1.104425	-0.698741	-0.427996	0.970411	-138.174823	-83.379926	-172.216317
14802		15.602457	-2.079098	-0.096779	-1.325771	-0.328823	0.935476	-136.720596	-82.877217	-174.446049
14803		13.238197	-4.130323	-2.617127	-1.261089	-0.230652	0.825167	-135.520333	-82.452019	-176.384782
14804		10.419589	-3.831956	-2.259724	-0.220452	-0.061119	0.834914	-133.367608	-82.084366	-178.684599
14805		8.327715	-4.336101	-2.237499	-0.493746	-0.139941	0.862961	-131.734929	-81.663776	179.380349
14806		7.735381	-5.924118	-3.309783	-0.795237	-0.209111	0.805038	-130.770060	-81.236026	177.943970
14807		7.250317	-5.752900	-3.527555	-0.293561	-0.163708	0.640986	-129.893196	-80.893342	176.886010
14808		7.283439	-4.637405	-2.395234	0.026546	-0.116304	0.408430	-129.278258	-80.667871	176.278441
14809		8.436335	-4.563216	-1.564130	0.060587	-0.022696	0.153506	-128.979999	-80.589480	176.011265
14810		10.137381	-3.673018	-0.293180	0.140303	0.048838	-0.011334	-128.794387	-80.608999	175.904570
14811		10.765250	-2.754032	0.808194	0.273779	-0.032972	-0.087572	-128.928898	-80.634266	176.199828
14812		10.963374	-2.221583	0.410740	0.237359	-0.057715	-0.070467	-129.102828	-80.641653	176.513923
14813		10.251817	-1.354700	-0.814833	-0.118665	-0.098993	0.029381	-129.383795	-80.590773	176.729723
14814		9.537657	-0.679189	-1.825841	-0.325294	-0.188336	0.085510	-129.880285	-80.481081	177.044124
14815		9.076643	-0.543326	-1.688094	-0.196158	-0.201173	0.048614	-130.420008	-80.383477	177.477420
14816		8.925678	-0.650865	-1.705851	-0.233470	-0.194501	-0.032306	-131.120927	-80.321589	178.052710
14817		9.162962	-1.504704	-1.665391	-0.236664	-0.154284	-0.101396	-131.880677	-80.304488	178.685824
14818		9.316682	-1.976056	-1.189969	-0.089588	-0.092744	-0.124023	-132.441743	-80.318316	179.202928
14819		9.338325	-1.975953	-1.109420	0.069235	-0.072608	-0.089382	-132.795480	-80.325762	179.601948
14820		9.382019	-1.299068	-0.780426	0.197270	-0.095093	-0.029715	-132.983252	-80.297905	179.907089
14821		9.478071	-0.468211	-0.585467	0.201041	-0.128439	0.012220	-133.164050	-80.240448	-179.792669
14822		9.571856	0.219832	-0.829502	0.109822	-0.161578	0.033668	-133.413648	-80.159760	-179.475513
14823		9.676181	0.716628	-1.188524	0.009695	-0.187363	0.052381	-133.745625	-80.061914	-179.132956
14824		10.027508	0.536501	-1.398167	-0.085133	-0.204511	0.091423	-134.066870	-79.939927	-178.856262
14825		9.877773	0.122123	-1.559266	-0.100427	-0.155291	0.112698	-134.239896	-79.829502	-178.739018
14826		9.609822	-0.503294	-1.576871	-0.131599	-0.130927	0.107055	-134.375996	-79.730350	-178.677311
14827		9.626405	-1.154815	-1.423380	-0.113057	-0.128315	0.128180	-134.456412	-79.624313	-178.661480
14828		9.462129	-1.690273	-1.213889	-0.089125	-0.134237	0.136780	-134.508236	-79.511663	-178.660680
14829		9.397745	-1.930148	-1.402563	-0.071274	-0.156539	0.131121	-134.618437	-79.393071	-178.590190
14830		9.577932	-1.916033	-1.514664	-0.076541	-0.133325	0.114904	-134.705820	-79.289647	-178.545867
14831		9.538152	-1.741890	-1.274577	-0.118786	-0.110667	0.091227	-134.826183	-79.205748	-178.492694
14832		9.449621	-1.569435	-1.381041	-0.207395	-0.116297	0.071997	-135.039766	-79.126521	-178.396189
14833		9.645201	-1.621972	-1.674817	-0.260790	-0.109620	0.063536	-135.293853	-79.054166	-178.289661
14834		9.759079	-1.996719	-1.586831	-0.226601	-0.069191	0.059514	-135.442600	-78.998986	-178.270366
14835		9.716517	-2.298164	-1.413098	-0.129879	-0.042917	0.044647	-135.520593	-78.961360	-178.266786
14836		9.701116	-2.381010	-1.460260	-0.064650	-0.045424	0.029518	-135.589226	-78.927839	-178.234571
14837		9.601586	-2.280109	-1.563221	0.015145	-0.053457	0.024981	-135.646286	-78.893776	-178.167649
14838		9.593947	-1.971047	-1.627542	0.100654	-0.053827	0.026879	-135.642007	-78.857762	-178.113211
14839		9.566750	-1.642898	-1.710383	0.169794	-0.051736	0.028063	-135.600132	-78.823169	-178.056799
14840		9.624469	-1.102061	-1.896664	0.219973	-0.047263	0.029857	-135.507931	-78.788601	-178.022291
14841		9.670478	-0.728293	-1.850114	0.211268	-0.030093	0.033636	-135.387186	-78.760638	-178.022048
14842		9.659228	-0.560746	-1.840776	0.160341	-0.011764	0.023304	-135.271681	-78.743208	-178.046143
14843		9.626207	-0.742941	-1.690717	0.098020	-0.000579	0.003164	-135.218790	-78.739545	-178.042875
14844		9.597688	-0.907844	-1.437299	0.075603	0.007175	0.000996	-135.159782	-78.738849	-178.058881
14845		9.653715	-1.132774	-1.299748	0.041227	0.019467	0.010180	-135.084460	-78.740490	-178.111662
14846		9.565369	-1.299904	-1.199468	0.035071	0.015131	0.021979	-134.990009	-78.734554	-178.187486
14847		9.516267	-1.175608	-1.319702	0.012307	0.010729	0.030834	-134.907110	-78.724251	-178.264891
14848		9.398834	-0.963609	-1.311209	-0.002192	0.006905	0.040534	-134.813476	-78.707434	-178.361657
14849		9.409323	-0.838292	-1.278494	-0.014152	-0.004049	0.044674	-134.748237	-78.685495	-178.436521
14850		9.563574	-0.893549	-1.365174	-0.044415	-0.002271	0.047935	-134.683371	-78.661967	-178.528635
14851		9.588176	-1.048950	-1.396697	-0.064034	0.001654	0.056352	-134.612269	-78.637530	-178.638641
14852		9.606188	-1.137577	-1.472893	-0.075821	0.003667	0.063273	-134.523666	-78.610121	-178.773338
14853		9.699038	-1.261066	-1.476884	-0.059469	0.013497	0.074832	-134.390092	-78.582807	-178.944427
14854		9.648710	-1.264071	-1.422179	-0.021405	0.015607	0.090614	-134.193552	-78.548847	-179.157468
14855		9.596681	-1.244673	-1.370007	0.023406	0.022346	0.099455	-133.948052	-78.514695	-179.394351
14856		9.523416	-1.182338	-1.340769	0.064471	0.009715	0.118432	-133.663044	-78.466556	-179.647521
14857		9.497723	-1.044002	-1.308286	0.090554	0.000480	0.131405	-133.365430	-78.410046	-179.898405
14858		9.449772	-0.868043	-1.333723	0.099768	-0.000712	0.159414	-133.008494	-78.340193	179.795534
14859		9.478322	-0.781364	-1.315104	0.084706	-0.007972	0.167939	-132.668813	-78.264453	179.498145
14860		9.539243	-0.903770	-1.214779	0.038147	-0.005224	0.179905	-132.326583	-78.183526	179.170877
14861		9.628263	-1.074249	-1.283157	-0.009679	0.000139	0.178453	-132.013522	-78.105742	178.845260
14862		9.720019	-1.204410	-1.252101	-0.048683	0.018169	0.166860	-131.706078	-78.038649	178.502519
14863		9.659283	-1.245797	-1.070006	-0.064603	0.016028	0.164304	-131.425428	-77.972270	178.177698
14864		9.597661	-1.262656	-1.224300	-0.074550	0.006143	0.180790	-131.139629	-77.893974	177.841765
14865		9.479502	-1.213420	-1.405269	-0.100079	-0.014086	0.211613	-130.864571	-77.795156	177.501677
14866		9.479245	-1.252141	-1.370266	-0.053340	-0.021195	0.224330	-130.555449	-77.687072	177.154073
14867		9.484157	-1.218851	-1.171590	-0.023918	-0.024241	0.224286	-130.246119	-77.578208	176.823300
14868		9.517483	-1.204949	-1.111845	-0.042072	-0.037093	0.235464	-129.955052	-77.458642	176.500508
14869		9.606373	-1.122617	-1.274805	-0.090506	-0.028263	0.245178	-129.668726	-77.338385	176.153913
14870		9.500006	-1.013102	-1.187421	-0.110507	-0.014518	0.255127	-129.352671	-77.217707	175.765011
14871		9.546887	-0.907181	-1.158755	-0.131365	-0.021134	0.272987	-129.044086	-77.086881	175.371236
14872		9.581966	-0.759782	-1.345689	-0.171212	-0.027803	0.302074	-128.729208	-76.939649	174.947448
14873		9.707891	-0.230405	-1.625193	-0.167502	-0.028672	0.337146	-128.372922	-76.776402	174.482961
14874		9.719970	0.406267	-1.790030	-0.201007	-0.025811	0.380822	-127.972342	-76.593347	173.952990
14875		9.736912	0.726010	-1.717402	-0.270815	-0.015563	0.432076	-127.534120	-76.390237	173.342655
14876		9.654779	0.686801	-1.694358	-0.318441	0.002857	0.504095	-127.001042	-76.159228	172.606106
14877		9.462556	0.325791	-1.833509	-0.385628	-0.000844	0.560669	-126.459383	-75.899596	171.820190
14878		9.430438	-0.137709	-1.815431	-0.394267	-0.021500	0.590950	-125.943260	-75.617189	171.054643
14879		9.509016	-0.407157	-1.587172	-0.350044	-0.014617	0.632927	-125.362590	-75.315794	170.247524
14880		9.475741	-0.359919	-1.530729	-0.327056	-0.011337	0.701687	-124.706851	-74.981152	169.375250
14881		9.572831	0.131651	-1.809397	-0.306544	-0.015013	0.789567	-123.977529	-74.600965	168.437384
14882		9.848377	1.228820	-1.812327	-0.255496	0.003683	0.894762	-123.111452	-74.173361	167.386117
14883		9.665597	1.691068	-1.296119	-0.291739	0.063656	1.020802	-122.085039	-73.698514	166.143997
14884		9.072865	0.987510	-0.496457	-0.282313	0.015229	1.101325	-121.118578	-73.164615	164.966896
14885		8.770598	-0.500209	-1.261877	-0.630531	-0.013036	1.190882	-120.376051	-72.572699	163.811801
14886		8.292599	-2.985300	-1.396167	-0.831182	-0.059097	1.226992	-119.849344	-71.946915	162.758791
14887		8.081305	-5.240644	-1.644743	-0.830469	-0.068629	1.191010	-119.418191	-71.332694	161.803112
14888		7.866886	-7.168314	-2.226804	-0.638925	-0.096442	1.133824	-119.009102	-70.737903	160.983453
14889		8.217744	-7.781939	-1.925453	-0.111275	-0.118411	1.070648	-118.416775	-70.165711	160.287181
14890		8.814437	-7.408234	-1.340995	0.362366	-0.089727	0.988376	-117.612345	-69.640274	159.651668
14891		9.336634	-5.736821	-0.884490	0.703403	-0.068763	0.928927	-116.663022	-69.147136	159.067966
14892		9.208881	-4.621234	-0.435130	0.696564	-0.055912	0.905008	-115.749988	-68.666122	158.517161
14893		8.728053	-4.226320	-0.440123	0.551680	-0.115401	0.877981	-115.045269	-68.181884	158.099186
14894		8.534157	-3.154471	-1.320172	0.460501	-0.175807	0.876215	-114.492735	-67.682172	157.787787
14895		8.954799	-2.134191	-1.753515	0.439273	-0.218549	0.896198	-114.014068	-67.161170	157.541899
14896		9.563880	-1.779502	-1.296482	0.460006	-0.167083	0.908125	-113.469240	-66.644788	157.236234
14897		9.563195	-1.787794	-0.983642	0.347804	-0.158032	0.894744	-113.003079	-66.136636	156.944906
14898		9.581901	-2.061624	-1.238880	0.193680	-0.148640	0.902854	-112.623871	-65.625504	156.651147
14899		9.297024	-2.463504	-1.351421	0.129954	-0.136333	0.943230	-112.262282	-65.094856	156.335187
14900		9.077131	-2.503534	-1.245656	0.149075	-0.163683	1.028562	-111.895094	-64.512440	156.023941
14901		9.082483	-2.091282	-1.121836	0.268854	-0.210840	1.119547	-111.487952	-63.870464	155.742733
14902		9.327518	-1.573765	-0.879441	0.400865	-0.256984	1.205814	-111.034979	-63.172390	155.493459
14903		9.746794	-1.231516	-0.818281	0.482971	-0.305155	1.271892	-110.577384	-62.427809	155.290034
14904		10.138431	-1.685679	-1.145983	0.309978	-0.298832	1.334375	-110.204323	-61.651094	155.068985
14905		9.715362	-3.406268	-0.829278	0.005213	-0.260867	1.401627	-109.959140	-60.844295	154.792662
14906		8.921781	-5.020105	-0.643890	-0.064679	-0.251910	1.449638	-109.742175	-60.013936	154.500893
14907		7.880203	-6.149221	-1.566943	-0.038541	-0.245359	1.515210	-109.497548	-59.147774	154.191543
14908		6.753096	-6.697281	-1.955271	0.096152	-0.208612	1.547346	-109.148682	-58.271406	153.848137
14909		5.805120	-5.800293	-2.324460	0.348322	-0.219131	1.490894	-108.701292	-57.421463	153.555362
14910		5.963617	-4.234248	-2.528173	0.374707	-0.223542	1.383765	-108.289269	-56.628477	153.320478
14911		6.750349	-3.887870	-1.495005	0.326781	-0.212405	1.260956	-107.942623	-55.902832	153.128717
14912		7.942474	-3.835897	-0.702877	0.436543	-0.362638	1.149258	-107.690263	-55.211887	153.126284
14913		9.165564	-3.551328	-2.704901	-0.781847	-0.193669	1.172335	-107.999388	-54.537371	152.956449
14914		8.459287	-6.867659	-0.583650	-0.259916	-0.262882	1.250840	-108.042636	-53.808962	152.826391
14915		7.395716	-7.204357	-2.433730	-0.533863	-0.334670	1.378686	-108.265859	-52.997466	152.723351
14916		6.019496	-8.156382	-2.528851	-0.246337	-0.276200	1.463028	-108.262778	-52.151397	152.542087
14917		4.861081	-8.254941	-2.140587	0.157846	-0.286247	1.454780	-108.043914	-51.307114	152.378432
14918		4.539668	-7.792901	-2.426971	0.393272	-0.263338	1.330338	-107.709752	-50.534499	152.238560
14919		5.057667	-6.510297	-1.885445	0.660909	-0.223417	1.159431	-107.241259	-49.861301	152.121570
14920		6.369012	-5.485818	-1.329390	0.687373	-0.207495	1.010558	-106.784368	-49.271664	152.039022
14921		7.978077	-4.769459	-1.200604	0.508515	-0.238376	0.941233	-106.469007	-48.714768	152.007133
14922		9.441030	-5.067012	-1.444846	0.249452	-0.271302	0.961947	-106.321030	-48.141078	152.000727
14923		10.042753	-5.895401	-1.536944	0.149469	-0.264198	1.072262	-106.208707	-47.507848	151.964637
14924		9.506117	-6.394063	-1.605520	0.158782	-0.240757	1.264349	-106.045782	-46.772849	151.866907
14925		8.152223	-7.048877	-1.663211	0.165103	-0.223810	1.467940	-105.840964	-45.927862	151.714496
14926		6.635748	-7.493209	-1.738114	0.244357	-0.229509	1.600016	-105.579227	-45.009132	151.544246
14927		5.400335	-7.067480	-1.814351	0.392998	-0.196405	1.622616	-105.220397	-44.081913	151.353629
14928		4.569032	-6.220389	-1.177618	0.615092	-0.142242	1.546234	-104.726505	-43.204277	151.149205
14929		4.160136	-5.858712	-0.668544	0.617524	-0.134156	1.431399	-104.254011	-42.390018	150.974444
14930		4.280435	-5.912463	-0.918234	0.388180	-0.189150	1.344913	-103.958673	-41.615437	150.866111
14931		5.200441	-5.743778	-1.229361	0.278716	-0.225254	1.313044	-103.753204	-40.853148	150.796570
14932		6.126760	-5.936415	-0.947258	0.266520	-0.264173	1.352290	-103.571252	-40.063658	150.752222
14933		6.706556	-7.059745	-1.158026	0.229013	-0.309954	1.429795	-103.426864	-39.224684	150.731479
14934		6.752767	-7.140748	-1.440691	0.436281	-0.299577	1.561665	-103.147112	-38.313666	150.684784
14935		6.471316	-7.069559	-1.086211	0.655983	-0.306443	1.722459	-102.734599	-37.311603	150.624897
14936		6.615276	-6.920226	-1.237298	0.846307	-0.332971	1.825801	-102.221028	-36.248359	150.578025
14937		7.056330	-7.105246	-1.922975	0.786750	-0.369729	1.830083	-101.764503	-35.177799	150.568087
14938		7.716342	-7.353746	-2.942507	0.557017	-0.394470	1.785571	-101.457014	-34.129757	150.589680
14939		8.622866	-7.367206	-3.739641	0.300064	-0.374864	1.720347	-101.297598	-33.120228	150.612160
14940		9.273133	-8.349742	-4.107668	0.124110	-0.317393	1.653799	-101.223342	-32.155277	150.607151
14941		9.481078	-9.045826	-4.859139	-0.037266	-0.218059	1.618166	-101.210684	-31.220707	150.542287
14942		9.124335	-9.005084	-4.714553	0.002504	-0.040240	1.598691	-101.118540	-30.317839	150.365322
14943		8.336120	-8.845891	-4.223801	0.134542	0.129372	1.560030	-100.903087	-29.453791	150.087512
14944		7.360884	-9.207431	-3.785442	0.120729	0.244980	1.484024	-100.670630	-28.645389	149.751053
14945		6.170029	-10.271339	-3.166746	-0.053742	0.299672	1.408009	-100.532356	-27.883208	149.393898
14946		5.390723	-11.070880	-2.879816	-0.097011	0.290817	1.311128	-100.433113	-27.175567	149.058364
14947		4.951445	-11.853236	-2.758801	-0.022125	0.300227	1.204590	-100.298644	-26.526805	148.732448
14948		4.445423	-12.291405	-2.658563	0.119915	0.340415	1.099561	-100.082217	-25.941882	148.397505
14949		3.789923	-12.109573	-2.570018	0.319380	0.433248	0.985779	-99.736199	-25.427438	148.021225
14950		3.256749	-11.313661	-2.230423	0.650982	0.539993	0.872161	-99.182695	-24.985812	147.596430
14951		2.853205	-10.674621	-1.556690	0.930335	0.603423	0.761370	-98.462184	-24.607041	147.149294
14952		2.647580	-10.054141	-1.183689	1.064767	0.628639	0.646255	-97.668109	-24.291220	146.703710
14953		2.537302	-9.433959	-1.089248	1.003813	0.624456	0.553787	-96.916985	-24.021250	146.273529
14954		2.520714	-8.747172	-1.112059	0.941527	0.600177	0.482657	-96.213790	-23.785958	145.868455
14955		2.590113	-8.104606	-0.735039	0.918531	0.553035	0.432022	-95.539406	-23.571582	145.499524
14956		2.776417	-7.779500	-0.368381	0.904695	0.505596	0.386719	-94.888681	-23.377297	145.166211
14957		2.818814	-7.425641	-0.125334	0.808537	0.496403	0.343389	-94.297820	-23.203428	144.843325
14958		2.842016	-7.464933	0.026705	0.652282	0.500929	0.323175	-93.797844	-23.039028	144.520939
14959		2.729143	-7.597367	0.211959	0.514244	0.515807	0.320210	-93.374609	-22.873924	144.191075
14960		2.530858	-8.040476	0.313350	0.395498	0.510630	0.318327	-93.022456	-22.708180	143.866271
14961		2.296159	-8.278767	0.253793	0.265375	0.484521	0.300807	-92.752401	-22.549584	143.559407
14962		2.082101	-8.362300	-0.009536	0.101756	0.458458	0.287740	-92.583728	-22.397072	143.270178
14963		1.869960	-8.668779	-0.089786	-0.039571	0.419120	0.261894	-92.506314	-22.257395	143.006551
14964		1.590835	-9.114069	0.085009	-0.119934	0.363867	0.226441	-92.489021	-22.136636	142.778475
14965		1.495738	-9.626911	0.102743	-0.180393	0.275820	0.198663	-92.527464	-22.029404	142.605634
14966		1.610790	-9.883355	-0.144376	-0.218682	0.179001	0.152850	-92.611007	-21.946019	142.493825
14967		2.018793	-9.921643	-0.357359	-0.225038	0.111209	0.109768	-92.714312	-21.885716	142.424979
14968		2.331386	-9.727349	-0.371689	-0.118352	0.074158	0.083840	-92.765340	-21.839011	142.379642
14969		2.693009	-9.546593	-0.451769	0.000584	0.070773	0.074365	-92.749115	-21.797960	142.336715
14970		2.985195	-9.658578	-0.394185	0.028315	0.122219	0.052571	-92.705522	-21.770297	142.262685
14971		2.864545	-9.685860	-0.115318	0.012093	0.156344	0.029919	-92.663691	-21.756929	142.168381
14972		2.724235	-9.396916	0.079613	-0.006604	0.087787	0.025466	-92.648290	-21.743674	142.116373
14973		3.060384	-9.133730	-0.018599	0.017848	-0.003205	0.027240	-92.639649	-21.727561	142.120481
14974		3.530404	-8.890009	-0.225289	0.033592	-0.028765	0.004952	-92.627977	-21.722871	142.140848
14975		4.080908	-8.749074	-0.182955	-0.025809	0.002552	-0.036466	-92.643707	-21.743372	142.143218
14976		4.488660	-9.166934	-0.280213	-0.136452	0.092539	-0.100662	-92.702851	-21.802395	142.091867
14977		4.782687	-9.486721	-0.162547	-0.186086	0.163108	-0.186978	-92.775225	-21.913427	141.999714
14978		4.938488	-9.506540	-0.087521	-0.271532	0.189700	-0.256863	-92.890930	-22.064830	141.893282
14979		4.906693	-9.595815	-0.133623	-0.325181	0.215881	-0.303005	-93.031765	-22.244145	141.772507
14980		4.862606	-9.333795	-0.033831	-0.250327	0.195842	-0.328616	-93.134305	-22.437343	141.665123
14981		4.983246	-9.092506	-0.160788	-0.145555	0.184467	-0.356598	-93.179753	-22.646708	141.565964
14982		5.236746	-8.960497	-0.069583	-0.060326	0.226716	-0.409111	-93.166297	-22.887222	141.442195
14983		5.404677	-8.943683	0.186193	-0.052962	0.341796	-0.479590	-93.121138	-23.171872	141.249027
14984		5.108112	-9.138153	0.159074	-0.133206	0.436653	-0.542814	-93.097901	-23.495457	140.998168
14985		4.626875	-9.551546	-0.297041	-0.308088	0.435281	-0.593262	-93.174654	-23.848046	140.749517
14986		3.777541	-9.748081	-0.705696	-0.538187	0.356796	-0.643999	-93.402331	-24.227694	140.552063
14987		3.148242	-9.914847	-1.589719	-0.827582	0.205998	-0.669941	-93.835302	-24.617741	140.452261
14988		3.017487	-10.103429	-1.216208	-0.643690	0.130319	-0.652107	-94.182780	-24.995073	140.401838
14989		2.475473	-9.613329	-0.757338	-0.491987	0.048585	-0.573166	-94.464586	-25.324120	140.401493
14990		1.545990	-9.804285	-1.019083	-0.454294	-0.123725	-0.463398	-94.769778	-25.582215	140.506261
14991		0.399067	-8.289005	-1.196719	-0.239617	-0.370944	-0.336617	-95.018102	-25.755704	140.762439
14992		0.561663	-6.527851	-2.812545	-0.483912	-0.468324	-0.387446	-95.435807	-25.951077	141.084648
14993		2.150241	-7.176757	-1.396270	0.024087	-0.208432	-0.660937	-95.499412	-26.316095	141.260236
14994		3.319022	-6.665626	1.148343	0.578329	0.031941	-1.056408	-95.188571	-26.918962	141.305763
14995		4.157839	-5.660687	1.579019	0.396772	0.205470	-1.516221	-94.941694	-27.794142	141.263106
14996		4.526873	-5.187066	1.853610	0.088454	0.463199	-1.972180	-94.801275	-28.941195	141.074457
14997		4.198974	-5.280876	1.992255	-0.043629	0.597761	-2.390754	-94.698199	-30.334118	140.815356
14998		3.970437	-5.310614	1.140109	-0.143324	0.513516	-2.681006	-94.680199	-31.887937	140.622308
14999		4.177196	-5.483952	-0.029133	-0.218409	0.386001	-2.815011	-94.750748	-33.513006	140.521136
15000		4.177971	-5.411377	-0.440476	-0.158850	0.300193	-2.906443	-94.820694	-35.185699	140.484606
15001		4.025841	-5.373621	-0.461872	0.018153	0.238644	-3.057286	-94.820287	-36.942149	140.501473
15002		4.041237	-5.657917	-0.251511	0.279296	0.199532	-3.260088	-94.693456	-38.812002	140.556263
15003		4.248638	-5.725148	-0.366979	0.513395	0.228748	-3.440258	-94.423242	-40.786776	140.593604
15004		4.842865	-5.200289	0.371226	0.446887	0.191968	-3.534615	-94.206934	-42.813392	140.653880
15005		6.046957	-4.989220	0.499422	0.167025	0.143555	-3.550487	-94.177897	-44.847731	140.750045
15006		6.903633	-4.392125	0.184200	-0.152241	0.243040	-3.571474	-94.279267	-46.897708	140.770385
15007		7.070072	-4.097298	0.459576	-0.680450	0.346051	-3.650712	-94.633249	-48.997967	140.721916
15008		7.088908	-4.280325	1.061335	-1.334518	0.443257	-3.785734	-95.322461	-51.180029	140.624161
15009		6.790706	-5.096841	0.219198	-1.682158	0.580406	-3.994873	-96.157830	-53.490097	140.461699
15010		6.795400	-6.189276	-1.527680	-1.423939	0.542423	-4.151369	-96.922537	-55.887731	140.399564
15011		7.415297	-7.749805	-2.386568	-1.013351	0.499342	-4.215992	-97.538647	-58.319454	140.441656
15012		7.609019	-9.594562	-2.439539	-0.463125	0.553895	-4.318867	-97.835073	-60.813071	140.478070
15013		7.687501	-10.457673	-3.003240	0.178403	0.587459	-4.406799	-97.754842	-63.359622	140.502892
15014		7.680073	-10.028278	-3.145074	0.973506	0.593276	-4.441951	-97.188281	-65.925487	140.493421
15015		7.787910	-8.353338	-2.356682	1.781601	0.513036	-4.406529	-96.178206	-68.466635	140.505145
15016		8.202518	-6.077109	-1.477813	2.405584	0.378451	-4.323167	-94.866710	-70.950583	140.576463
15017		8.550388	-3.599780	-0.807100	2.596786	0.221458	-4.224975	-93.545576	-73.373525	140.751723
15018		8.993638	-2.005283	0.294981	2.533165	0.085400	-4.156135	-92.370537	-75.751652	141.038356
15019		9.634663	-0.051543	0.818871	2.156469	0.031671	-4.104923	-91.401819	-78.102481	141.312359
15020		10.837864	1.214897	0.158463	1.359061	-0.003307	-4.037266	-90.888681	-80.412960	141.582494
15021		12.312265	1.768798	-0.683488	0.552159	0.049917	-3.859368	-90.590125	-82.624049	141.600469
15022		13.258576	1.070871	-0.902049	0.049947	0.092742	-3.571258	-90.237746	-84.668848	141.274585
15023		13.646863	-0.028025	-0.829416	-0.181684	0.129200	-3.271318	-89.319689	-86.542647	140.249480
15024		13.592264	-0.889014	-0.991658	-0.329043	0.222166	-3.028612	-84.787049	-88.269196	135.523807
15025		12.778126	-0.989925	-0.744548	-0.455200	0.316372	-2.862965	-14.330837	-89.657711	64.801821
15026		11.847406	-0.773286	-0.380179	-0.524541	0.348347	-2.765426	70.408962	-88.412151	-20.243497
15027		11.384644	-0.190351	-0.300153	-0.431917	0.366210	-2.708529	76.171608	-86.864431	-26.258245
15028		11.478613	0.561124	-0.447527	-0.337163	0.428282	-2.649993	77.564497	-85.332084	-27.848137
15029		11.423468	1.107529	-0.405990	-0.227630	0.513534	-2.574560	77.754615	-83.829049	-28.170161
15030		11.311685	1.402355	0.030422	-0.183916	0.508656	-2.461186	77.783449	-82.391322	-28.305629
15031		11.456371	1.629918	0.229315	-0.097469	0.393346	-2.233313	78.070968	-81.093760	-28.652636
15032		11.536721	1.796800	0.001617	0.007727	0.305666	-1.952024	78.427001	-79.965237	-29.009378
15033		11.005108	1.992507	-0.011490	0.104878	0.204340	-1.649255	78.884283	-79.016552	-29.413396
15034		10.447833	1.707151	0.000964	0.226339	0.037424	-1.359883	79.643204	-78.249130	-30.055504
15035		10.052160	1.423040	0.038546	0.455159	-0.054134	-1.128663	80.578694	-77.618153	-30.745502
15036		9.693162	1.651498	0.023691	0.618155	-0.074115	-0.913137	81.494762	-77.110051	-31.321631
15037		9.224952	2.027939	-0.081897	0.668116	-0.056122	-0.683534	82.263975	-76.727576	-31.718398
15038		8.774575	2.598183	-0.102571	0.665622	-0.091950	-0.429623	83.008229	-76.492249	-32.091713
15039		8.852467	3.094869	-0.161961	0.659036	-0.153916	-0.176879	83.808505	-76.402321	-32.526561
15040		9.166224	3.392858	-0.151548	0.607996	-0.181295	0.032826	84.587850	-76.433413	-32.970216
15041		9.331137	3.379031	-0.063612	0.499601	-0.159815	0.173792	85.227940	-76.541277	-33.334196
15042		9.219275	3.071361	0.155914	0.367064	-0.135062	0.263964	85.724062	-76.699823	-33.628212
15043		8.962457	2.535403	0.220107	0.283057	-0.115728	0.342775	86.120091	-76.900943	-33.868473
15044		8.801754	1.905199	0.309670	0.260885	-0.110214	0.419490	86.487894	-77.146409	-34.092738
15045		8.655509	1.440800	0.389992	0.272596	-0.099774	0.466924	86.839840	-77.417281	-34.293487
15046		8.618881	1.328263	0.384141	0.307861	-0.099527	0.495305	87.220306	-77.705184	-34.502691
15047		8.868386	1.586634	0.388262	0.325093	-0.093090	0.518064	87.604374	-78.004554	-34.705088
15048		9.185359	2.282742	0.218595	0.247262	-0.039341	0.532485	87.808297	-78.311858	-34.768928
15049		9.250211	2.956166	0.082052	0.075531	0.037582	0.542621	87.699601	-78.622094	-34.613890
15050		9.238331	3.482209	0.135184	-0.150348	0.091941	0.552775	87.292146	-78.937677	-34.286540
15051		9.197667	3.658747	0.363348	-0.427527	0.127404	0.556586	86.594501	-79.252691	-33.825594
15052		9.042365	3.520850	0.437526	-0.773798	0.144144	0.553448	85.609606	-79.564756	-33.274860
15053		8.890334	3.007607	0.332732	-1.120982	0.153466	0.544061	84.348898	-79.868142	-32.646400
15054		8.741180	2.307726	-0.001845	-1.395996	0.172321	0.515832	82.819525	-80.152029	-31.905810
15055		8.527445	1.527215	-0.324710	-1.579621	0.176166	0.466116	81.128891	-80.403079	-31.108854
15056		8.344704	0.848280	-0.482351	-1.630818	0.142851	0.418096	79.485982	-80.626751	-30.390670
15057		8.358153	0.438112	-0.542954	-1.587802	0.068609	0.372794	78.101666	-80.829470	-29.909881
15058		8.609174	0.296166	-0.524039	-1.507643	0.009481	0.326418	76.968716	-81.012458	-29.637499
15059		8.860053	0.274082	-0.437405	-1.377219	0.010887	0.292002	75.906911	-81.174576	-29.361520
15060		8.913329	0.365086	-0.047408	-1.248774	-0.001845	0.262168	74.970220	-81.322018	-29.137906
15061		8.842398	0.405146	0.165516	-1.136692	-0.032635	0.215666	74.238090	-81.447139	-29.056196
15062		8.720115	0.292749	0.344078	-1.002076	-0.078352	0.172254	73.788709	-81.556350	-29.182554
15063		8.685373	0.135681	0.534357	-0.849336	-0.153493	0.128042	73.752309	-81.652430	-29.637730
15064		8.607580	-0.058760	0.727590	-0.672494	-0.237136	0.083746	74.188918	-81.738153	-30.468585
15065		8.691672	-0.144950	0.703840	-0.443701	-0.342738	0.059356	75.201419	-81.823814	-31.748517
15066		9.142242	0.078098	0.473370	-0.141750	-0.344363	0.050150	76.427207	-81.902171	-33.069058
15067		9.305699	0.483102	0.377822	0.152520	-0.270281	0.032518	77.567241	-81.956087	-34.132300
15068		9.021182	0.912593	0.644091	0.343007	-0.299690	0.025275	78.955285	-82.007343	-35.335834
15069		8.973790	1.121221	0.974118	0.439309	-0.366547	0.027952	80.682666	-82.061022	-36.825949
15070		9.020482	1.302793	1.244641	0.502614	-0.375589	0.084999	82.473227	-82.142715	-38.343172
15071		8.906144	1.450863	1.296421	0.552151	-0.370320	0.169469	84.266417	-82.264298	-39.833844
15072		8.681248	1.524624	1.109294	0.585152	-0.344400	0.242111	85.996381	-82.421057	-41.241321
15073		8.225225	1.513344	1.092304	0.580589	-0.279911	0.287906	87.495858	-82.595329	-42.418255
15074		7.613216	1.352726	1.127446	0.515842	-0.226918	0.320841	88.778213	-82.784870	-43.413356
15075		7.312436	1.156158	1.113682	0.397057	-0.210040	0.352623	89.974082	-82.988557	-44.389302
15076		7.351520	0.845443	0.830703	0.300590	-0.214485	0.384398	91.201165	-83.208955	-45.452059
15077		7.713012	0.251234	0.414079	0.320932	-0.213583	0.392801	92.514833	-83.430163	-46.589632
15078		7.987653	-0.282872	0.419964	0.449884	-0.210330	0.382005	93.966017	-83.643224	-47.790882
15079		8.383765	-0.682723	0.381545	0.646824	-0.132244	0.353695	95.197775	-83.839277	-48.657263
15080		8.238856	-0.911538	0.665665	0.839438	-0.074020	0.334837	96.279863	-84.027324	-49.261984
15081		8.096097	-0.851239	0.935446	0.948622	-0.114387	0.340707	97.712439	-84.213083	-50.155804
15082		8.089483	-0.579729	0.978861	1.017243	-0.128469	0.381201	99.377509	-84.419639	-51.243606
15083		8.253436	0.062936	1.084548	1.082550	-0.128544	0.447455	101.264679	-84.658503	-52.516356
15084		8.336184	0.600034	1.060240	1.124093	-0.087341	0.516669	103.160364	-84.938745	-53.773377
15085		8.242573	1.132488	1.037267	1.069799	-0.103742	0.582231	105.435343	-85.246991	-55.441576
15086		8.355755	1.514121	0.806739	0.895307	-0.124756	0.669202	108.217549	-85.594668	-57.718261
15087		8.200889	1.423087	1.039053	0.664597	-0.113184	0.743347	111.421094	-85.972847	-60.548724
15088		7.752697	0.872438	1.426952	0.427076	-0.088725	0.804365	115.122105	-86.377281	-64.012885
15089		7.359061	-0.016785	1.090108	0.364100	0.020528	0.852555	118.931173	-86.817021	-67.619730
15090		6.512391	-0.973646	0.926998	0.468990	0.059002	0.884823	123.792417	-87.268595	-72.218465
15091		5.460124	-3.016293	0.172021	0.406033	-0.168119	0.901000	132.945270	-87.613152	-81.147570
15092		7.466630	2.622516	-0.572729	-0.642050	-0.980864	1.366869	155.916387	-87.611567	-104.506395
15093		15.770008	8.775227	-11.238257	-3.578435	-0.911647	1.720719	178.377878	-87.312235	-129.041568
15094		21.184431	6.238423	-1.138247	0.239154	-1.177801	2.556200	-157.454610	-86.359384	-153.106929
15095		14.564123	2.304488	13.574552	-1.289090	0.081391	3.064485	-137.148056	-85.431999	-174.204422
15096		5.747142	-3.097076	-6.166224	-3.197417	-0.363619	2.916601	-128.307262	-84.055704	175.078835
15097		8.703294	-0.501163	-11.250628	-2.520417	-1.308445	1.889812	-128.984600	-82.739910	174.306883
15098		20.528873	5.359881	-2.528340	0.405996	-0.365348	0.611903	-128.337334	-82.333148	173.888694
15099		23.876178	10.211915	4.040532	1.742033	0.553651	0.381232	-124.492307	-82.343815	171.016084
15100		19.917566	3.069403	-5.358744	-0.686233	-0.286451	0.875872	-123.847829	-81.835546	169.968606
15101		17.191591	-5.201339	1.371591	-1.298057	-0.434032	1.633932	-122.595441	-80.914248	167.949641
15102		15.368824	-5.290220	5.769783	0.005118	-0.434203	2.188918	-120.030796	-79.712495	165.351177
15103		12.601409	-1.531821	2.617373	-0.301519	-0.296139	2.217259	-117.793446	-78.516547	162.896983
15104		8.746618	-3.818253	-2.250221	-1.646083	-0.216961	1.882572	-116.928710	-77.500959	161.049230
15105		6.114612	-5.801959	-4.140946	-1.932942	-0.371681	1.341919	-117.342041	-76.718073	160.337053
15106		4.731951	-8.149814	-6.170138	-1.828592	-0.315446	0.946133	-118.015319	-76.153126	159.952186
15107		3.887943	-9.867148	-6.443856	-1.343618	-0.191967	0.681986	-118.442786	-75.755266	159.599198
15108		5.060988	-11.965748	-3.284911	-0.715286	-0.168453	0.529740	-118.624370	-75.440289	159.363594
15109		7.219655	-11.501384	-2.161942	0.215471	-0.078628	0.294247	-118.353341	-75.269051	159.210999
15110		9.817741	-7.158180	-1.818542	0.802285	-0.067366	-0.119407	-118.150922	-75.307583	159.476952
15111		13.426205	-4.516534	-0.367687	0.874268	0.032939	-0.497171	-118.111643	-75.566132	159.953850
15112		14.127671	-2.954199	0.527242	0.898167	0.132253	-0.647594	-118.024604	-75.925437	160.395004
15113		12.680177	-2.546334	-0.690960	0.587443	0.005735	-0.548644	-118.283214	-76.202588	161.008177
15114		11.172125	-2.252635	-1.188184	0.286077	-0.135022	-0.217192	-118.641956	-76.271505	161.546348
15115		9.927945	-2.086036	-1.800247	0.169372	-0.245205	0.061962	-118.986268	-76.171100	162.000714
15116		8.908248	-1.732392	-1.725679	0.141990	-0.296183	0.098548	-119.395182	-76.035430	162.505834
15117		8.426709	-1.170481	-1.793148	-0.003177	-0.259434	-0.034850	-119.963811	-75.977558	163.089911
15118		8.115685	-0.961107	-1.859210	-0.196744	-0.154897	-0.253793	-120.681920	-76.054662	163.713831
15119		8.203782	-1.297399	-1.580731	-0.312295	-0.055012	-0.422964	-121.486648	-76.244262	164.358301
15120		8.521098	-2.060787	-1.214676	-0.320198	0.007575	-0.442812	-122.209466	-76.458468	164.913346
15121		8.876442	-2.867682	-1.054771	-0.193608	-0.001684	-0.354877	-122.789294	-76.627713	165.395416
15122		9.332021	-3.047035	-1.221996	0.041288	-0.041146	-0.245080	-123.174828	-76.728986	165.815937
15123		9.559852	-2.386291	-1.156043	0.265458	-0.094639	-0.168307	-123.449188	-76.778040	166.253983
15124		9.726618	-1.304910	-1.249854	0.438245	-0.150851	-0.120511	-123.669633	-76.784040	166.738384
15125		9.818189	-0.316357	-1.519972	0.341316	-0.173409	-0.090131	-123.956629	-76.769882	167.234016
15126		9.881171	0.279211	-1.486185	0.233614	-0.175993	-0.045020	-124.241469	-76.731077	167.664183
15127		9.875925	0.418536	-1.584550	0.101944	-0.146647	0.000798	-124.484329	-76.681481	167.973681
15128		9.559484	0.118811	-1.875258	-0.065679	-0.100353	0.029170	-124.684893	-76.631681	168.141149
15129		9.236152	-0.489698	-1.804517	-0.236470	-0.070684	0.023324	-124.936734	-76.595780	168.260686
15130		9.052849	-1.263042	-1.723652	-0.367352	-0.064412	-0.011993	-125.294423	-76.576897	168.412015
15131		9.145720	-1.629558	-1.550098	-0.427856	-0.071287	-0.042962	-125.747307	-76.571366	168.625525
15132		9.500075	-2.063016	-1.329130	-0.376152	-0.073139	-0.037331	-126.161621	-76.560793	168.829885
15133		9.855067	-2.348536	-1.051816	-0.284752	-0.057746	-0.023436	-126.478002	-76.550152	168.987366
15134		9.791702	-2.403487	-0.849108	-0.216526	-0.043779	0.001016	-126.688687	-76.531423	169.076421
15135		9.528340	-2.014357	-0.862933	-0.150610	-0.079007	0.019212	-126.906974	-76.493614	169.212093
15136		9.612854	-1.510233	-1.362889	-0.155866	-0.122396	0.044098	-127.169021	-76.427896	169.389785
15137		9.816879	-1.355265	-1.964627	-0.152018	-0.122575	0.070035	-127.394738	-76.351531	169.532340
15138		10.257932	-0.547123	-1.939230	-0.128010	-0.080314	0.104973	-127.471648	-76.272518	169.536014
15139		9.442018	-1.422855	-1.624167	-0.051250	-0.062542	0.109345	-127.469612	-76.199092	169.503619
15140		9.436282	-1.576554	-1.188529	0.131996	-0.087126	0.115421	-127.395797	-76.113030	169.505473
15141		9.412848	-2.298484	-1.942196	0.013495	-0.044866	0.115912	-127.315943	-76.042743	169.431102
15142		9.307812	-2.663153	-1.382135	0.029573	-0.036217	0.087168	-127.247942	-75.987220	169.378467
15143		9.383104	-2.441100	-1.629804	-0.052532	-0.063720	0.064862	-127.312143	-75.933640	169.413553
