// General information: 
//  MT Manager version: 2022.2.0 
//  XDA version: 2022.2.0 build 7381 rev 124627 built on 2023-07-19
// Device information: 
//  DeviceId: 00B4BB52
//  ProductCode: MTW2-3A7G6
//  Firmware Version: 4.6.0
//  Hardware Version: 2.0.0
// Device settings: 
//  Filter Profile: human(46.1)
//  Option Flags: Orientation Smoother Disabled, Position/Velocity Smoother Disabled, Continuous Zero Rotation Update Disabled, AHS Disabled, ICC Disabled
// Coordinate system: ENU
PacketCounter	SampleTimeFine	Acc_X	Acc_Y	Acc_Z	Gyr_X	Gyr_Y	Gyr_Z	Roll	Pitch	Yaw
13917		-0.539585	-9.793458	0.802025	0.007052	-0.013206	0.032734	-85.281441	2.723673	156.581701
13918		-0.504244	-9.803711	0.758015	0.007819	-0.007252	0.027551	-85.273344	2.739248	156.585809
13919		-0.493140	-9.775312	0.803965	0.015507	-0.003600	0.020882	-85.260294	2.750016	156.587544
13920		-0.471603	-9.776556	0.799151	0.011887	-0.000053	0.021196	-85.250079	2.762304	156.587241
13921		-0.488213	-9.733722	0.830723	0.004641	0.000765	0.020034	-85.243376	2.772794	156.586444
13922		-0.495988	-9.716977	0.901800	-0.005260	-0.002968	0.023549	-85.242898	2.786285	156.587921
13923		-0.478207	-9.776283	0.798575	-0.022564	0.001748	0.026965	-85.251794	2.800780	156.586892
13924		-0.491190	-9.746674	0.847351	-0.021753	-0.000818	0.031795	-85.260797	2.819080	156.587528
13925		-0.512307	-9.761855	0.779790	-0.031972	-0.001849	0.033855	-85.274967	2.837339	156.588876
13926		-0.492463	-9.797025	0.778407	-0.030832	-0.002932	0.041333	-85.289087	2.860986	156.591163
13927		-0.455032	-9.749860	0.826410	-0.030181	-0.006244	0.044837	-85.302078	2.885310	156.595532
13928		-0.520222	-9.774968	0.790983	-0.031098	-0.010854	0.049289	-85.316099	2.913125	156.602710
13929		-0.525213	-9.774958	0.787793	-0.035469	-0.013262	0.054784	-85.331888	2.942804	156.611545
13930		-0.511384	-9.797037	0.765954	-0.033892	-0.014062	0.053236	-85.347399	2.972727	156.620727
13931		-0.563252	-9.760304	0.767418	-0.031072	-0.012954	0.048688	-85.360684	2.998943	156.629088
13932		-0.567851	-9.793903	0.772448	-0.026524	-0.011902	0.043918	-85.372056	3.023652	156.636590
13933		-0.548095	-9.761776	0.756089	-0.023862	-0.007349	0.039246	-85.381397	3.044738	156.641298
13934		-0.542750	-9.754314	0.786271	-0.024181	-0.006739	0.037195	-85.391597	3.065852	156.645528
13935		-0.597679	-9.771698	0.784149	-0.020132	-0.005814	0.029050	-85.398870	3.081187	156.648882
13936		-0.577098	-9.806910	0.783754	-0.020287	-0.004462	0.028325	-85.406928	3.097345	156.651396
13937		-0.532198	-9.742777	0.753921	-0.020602	-0.001759	0.026875	-85.414599	3.111625	156.652327
13938		-0.553838	-9.754323	0.778392	-0.017317	-0.004705	0.024502	-85.420957	3.125591	156.654800
13939		-0.541539	-9.763291	0.738279	-0.012456	-0.004264	0.021783	-85.423896	3.136848	156.656928
13940		-0.558040	-9.754281	0.775908	-0.009473	-0.000322	0.019164	-85.425911	3.147964	156.656648
13941		-0.569958	-9.758432	0.833524	-0.014833	-0.002980	0.017906	-85.430261	3.157066	156.657863
13942		-0.561364	-9.754300	0.773266	-0.015483	-0.001753	0.013806	-85.435681	3.165058	156.658155
13943		-0.581848	-9.765891	0.797965	-0.017368	-0.000343	0.013305	-85.441579	3.171652	156.657650
13944		-0.592219	-9.773303	0.763853	-0.015629	0.001690	0.013684	-85.447189	3.179733	156.655966
13945		-0.565077	-9.754463	0.768499	-0.016299	-0.001264	0.008380	-85.452457	3.183472	156.655762
13946		-0.547068	-9.776654	0.748234	-0.017858	-0.000468	0.009929	-85.459286	3.189312	156.655140
13947		-0.590691	-9.786645	0.779369	-0.009525	0.004039	0.007969	-85.460843	3.193058	156.651883
13948		-0.539412	-9.769397	0.778663	-0.005015	0.000912	0.001995	-85.460377	3.194429	156.650110
13949		-0.567711	-9.754633	0.764382	-0.002793	0.000977	0.005148	-85.457987	3.196424	156.648477
13950		-0.568089	-9.754655	0.763827	-0.008469	0.001028	0.002442	-85.459501	3.198052	156.646658
13951		-0.544703	-9.756317	0.756861	-0.007057	0.003677	0.000772	-85.459651	3.197670	156.643282
13952		-0.554737	-9.726916	0.807370	-0.005004	0.003003	0.002598	-85.459243	3.199475	156.640341
13953		-0.564301	-9.767953	0.781805	-0.010059	-0.004449	0.002182	-85.460850	3.199530	156.641677
13954		-0.554224	-9.763790	0.722084	-0.009110	0.004350	-0.001054	-85.462841	3.199307	156.637800
13955		-0.583636	-9.779656	0.806190	-0.010196	0.001086	0.002664	-85.464702	3.199889	156.635991
13956		-0.569325	-9.788656	0.766479	-0.010363	0.000348	0.001338	-85.467277	3.200851	156.634512
13957		-0.574252	-9.809202	0.753133	-0.008300	0.001766	0.003768	-85.468070	3.202093	156.632365
13958		-0.565385	-9.768274	0.777002	-0.011586	0.002619	0.005540	-85.471408	3.205558	156.629777
13959		-0.514548	-9.784733	0.783564	-0.011259	0.002003	0.007589	-85.473896	3.208993	156.627667
13960		-0.571450	-9.755173	0.754642	-0.012166	0.001567	0.013237	-85.477510	3.216800	156.626029
13961		-0.549431	-9.790500	0.754620	-0.017672	0.002357	0.011857	-85.483672	3.222689	156.623909
13962		-0.565146	-9.781617	0.792126	-0.006837	-0.002053	0.012687	-85.484120	3.230015	156.624316
13963		-0.551725	-9.756870	0.744556	-0.018598	-0.002262	0.016297	-85.490653	3.238231	156.625038
13964		-0.549115	-9.770112	0.762746	-0.019975	0.001361	0.019777	-85.498719	3.249757	156.623811
13965		-0.555621	-9.790641	0.748240	-0.022037	-0.000055	0.017346	-85.507291	3.258672	156.623315
13966		-0.590878	-9.759722	0.803301	-0.024992	0.000181	0.021168	-85.518190	3.270934	156.622822
13967		-0.559180	-9.757108	0.735816	-0.026740	-0.003942	0.020181	-85.529323	3.281294	156.624674
13968		-0.593967	-9.796492	0.714314	-0.030527	-0.005298	0.017972	-85.543218	3.291484	156.627168
13969		-0.553605	-9.750094	0.762847	-0.025647	-0.000677	0.016466	-85.553842	3.299868	156.626982
13970		-0.554800	-9.820373	0.684718	-0.015133	-0.002386	0.015849	-85.559019	3.308972	156.627712
13971		-0.571165	-9.741318	0.798300	-0.011680	-0.002504	0.015402	-85.561583	3.316667	156.628522
13972		-0.581678	-9.748553	0.764392	-0.017026	-0.003062	0.014744	-85.567826	3.325105	156.629589
13973		-0.587735	-9.769059	0.750079	-0.020802	-0.002325	0.013142	-85.575627	3.331517	156.630195
13974		-0.612579	-9.767498	0.754095	-0.024251	-0.002207	0.013588	-85.586039	3.339331	156.630720
13975		-0.580546	-9.798523	0.694296	-0.024405	-0.000853	0.012867	-85.595955	3.345651	156.630469
13976		-0.596238	-9.789768	0.730985	-0.017502	-0.001091	0.011975	-85.602544	3.352592	156.630281
13977		-0.564684	-9.784306	0.755769	-0.014221	-0.001945	0.010201	-85.606595	3.357341	156.630537
13978		-0.588777	-9.749015	0.752978	-0.016115	-0.002620	0.009096	-85.612345	3.362566	156.631097
13979		-0.589926	-9.782779	0.759009	-0.014716	-0.002060	0.006825	-85.616685	3.365382	156.631269
13980		-0.567167	-9.784486	0.751568	-0.010769	-0.002065	0.009754	-85.619384	3.371005	156.631540
13981		-0.576778	-9.757956	0.710562	-0.009043	-0.002125	0.009531	-85.620464	3.375364	156.631868
13982		-0.568970	-9.784516	0.749811	-0.007474	-0.000830	0.008588	-85.621321	3.380368	156.631381
13983		-0.597730	-9.769597	0.735018	-0.012648	-0.000651	0.009257	-85.624517	3.384635	156.630853
13984		-0.594115	-9.782923	0.753866	-0.011420	-0.000824	0.005658	-85.627640	3.387961	156.630233
13985		-0.594884	-9.782954	0.752869	-0.009027	-0.000037	0.010139	-85.628780	3.392758	156.629392
13986		-0.576360	-9.771363	0.725722	-0.009865	-0.001617	0.004107	-85.630986	3.395162	156.629159
13987		-0.581780	-9.791796	0.712382	-0.007160	-0.003542	0.010027	-85.630938	3.399742	156.630319
13988		-0.596745	-9.749293	0.743035	-0.005591	-0.002247	0.009084	-85.630663	3.404954	156.630663
13989		-0.602705	-9.803392	0.737545	-0.004037	-0.003041	0.007532	-85.628849	3.408131	156.631427
13990		-0.574707	-9.750943	0.735909	-0.005761	-0.002981	0.007756	-85.628649	3.412551	156.632133
13991		-0.594661	-9.762581	0.761326	-0.011090	-0.001445	0.007706	-85.630930	3.415897	156.631991
13992		-0.600025	-9.783035	0.747710	-0.011432	-0.002912	0.005050	-85.633984	3.418769	156.632540
13993		-0.623928	-9.781410	0.752975	-0.008310	-0.002410	0.002556	-85.634652	3.419130	156.632726
13994		-0.586429	-9.791897	0.707161	-0.009209	-0.002861	0.008202	-85.636422	3.423805	156.633383
13995		-0.624455	-9.747779	0.743732	-0.010205	-0.003083	0.001451	-85.638156	3.423506	156.633906
13996		-0.605813	-9.769916	0.724081	-0.008465	-0.001054	0.001837	-85.639579	3.424621	156.633251
13997		-0.601580	-9.783259	0.743524	-0.003308	-0.003325	0.000557	-85.637355	3.423801	156.633872
13998		-0.601979	-9.816978	0.750860	0.000125	-0.005534	-0.000499	-85.633708	3.423384	156.635680
13999		-0.601577	-9.783272	0.743356	-0.001412	-0.002652	0.001662	-85.630419	3.423224	156.635964
14000		-0.568730	-9.744158	0.761928	-0.004689	-0.001798	0.003437	-85.629645	3.425216	156.635805
14001		-0.593022	-9.776204	0.775183	-0.004549	-0.005243	0.003547	-85.628059	3.426020	156.637655
14002		-0.602238	-9.749600	0.734531	-0.009206	-0.002862	0.008203	-85.629816	3.430681	156.638314
14003		-0.603582	-9.783337	0.740873	-0.014050	-0.003304	0.010921	-85.633720	3.435783	156.639378
14004		-0.576340	-9.764642	0.746099	-0.008706	-0.002753	0.011578	-85.635184	3.442374	156.640121
14005		-0.582267	-9.785035	0.732645	-0.010274	-0.004049	0.012521	-85.636895	3.448357	156.641680
14006		-0.606960	-9.783361	0.737782	-0.012308	-0.001276	0.011307	-85.640472	3.454850	156.641566
14007		-0.608038	-9.783377	0.736687	-0.010444	-0.004782	0.011192	-85.642258	3.460042	156.643485
14008		-0.609053	-9.783378	0.735835	-0.007291	-0.000102	0.009917	-85.643004	3.465790	156.642639
14009		-0.600603	-9.742609	0.760025	-0.011839	-0.005345	0.013462	-85.645564	3.472254	156.644979
14010		-0.607268	-9.796690	0.753972	-0.007891	-0.005359	0.016390	-85.646449	3.481468	156.647423
14011		-0.594264	-9.805413	0.714329	-0.010253	-0.001961	0.013130	-85.648218	3.487890	156.647812
14012		-0.585941	-9.764632	0.738720	-0.004926	-0.003501	0.013177	-85.647476	3.495343	156.649052
14013		-0.634397	-9.761181	0.750658	-0.006321	-0.004064	0.015448	-85.646913	3.502997	156.650746
14014		-0.612136	-9.762853	0.743798	-0.006976	-0.002816	0.011354	-85.647370	3.509435	156.651515
14015		-0.627667	-9.754090	0.781927	-0.006820	-0.004172	0.012072	-85.647098	3.515156	156.653124
14016		-0.619113	-9.783189	0.729923	-0.007148	-0.003548	0.010025	-85.647624	3.520801	156.654254
14017		-0.619609	-9.749459	0.721842	-0.006992	-0.004905	0.010743	-85.647427	3.525731	156.656224
14018		-0.634666	-9.740733	0.759915	-0.008149	-0.003762	0.003274	-85.648537	3.527507	156.657183
14019		-0.616918	-9.796561	0.747785	-0.007493	-0.005012	0.007368	-85.648632	3.530505	156.659067
14020		-0.612793	-9.776205	0.759634	-0.007630	-0.001567	0.007261	-85.649505	3.534652	156.658943
14021		-0.594148	-9.764598	0.732584	-0.009699	-0.002969	0.004827	-85.650943	3.536287	156.659547
14022		-0.646449	-9.781566	0.731655	-0.007993	-0.005119	0.003992	-85.651903	3.538406	156.661314
14023		-0.594830	-9.764671	0.731055	-0.006581	-0.002467	0.002332	-85.651579	3.538637	156.661522
14024		-0.590789	-9.778064	0.750339	-0.007993	-0.005119	0.003992	-85.652538	3.540753	156.663289
14025		-0.614314	-9.742650	0.748451	-0.007646	-0.003656	0.006650	-85.652770	3.543399	156.664366
14026		-0.639055	-9.774669	0.761288	-0.009195	-0.002863	0.008203	-85.654481	3.548011	156.665025
14027		-0.625289	-9.783401	0.721768	-0.006096	-0.004450	0.005096	-85.653802	3.549735	156.666489
14028		-0.616566	-9.776438	0.753556	-0.009852	-0.001612	0.004110	-85.655941	3.552062	156.666253
14029		-0.616975	-9.776478	0.752699	-0.007974	-0.003031	0.004603	-85.656388	3.553566	156.666883
14030		-0.626533	-9.783485	0.719557	-0.004528	-0.003155	0.004154	-85.655417	3.555847	156.667533
14031		-0.617578	-9.776528	0.751564	-0.006908	-0.001841	0.000286	-85.655308	3.554936	156.667294
14032		-0.626755	-9.783546	0.718530	-0.003308	-0.003322	0.000554	-85.653639	3.555149	156.667883
14033		-0.621847	-9.763219	0.730813	-0.003500	-0.006142	-0.001387	-85.651429	3.553096	156.670033
14034		-0.636222	-9.754560	0.769055	-0.008457	-0.001048	0.001840	-85.652788	3.554139	156.669377
14035		-0.617652	-9.776674	0.749597	-0.004738	-0.008063	0.001601	-85.651211	3.553709	156.672757
14036		-0.622486	-9.797073	0.736378	-0.008804	-0.002510	-0.000818	-85.652716	3.553168	156.672822
14037		-0.617582	-9.776790	0.748135	-0.008648	-0.003868	-0.000101	-85.653533	3.551948	156.673726
14038		-0.617495	-9.776852	0.747403	-0.006944	-0.006018	-0.000938	-85.653845	3.551181	156.675794
14039		-0.607723	-9.736211	0.771944	-0.006925	-0.003930	-0.000326	-85.653673	3.549830	156.676724
14040		-0.617300	-9.776983	0.745844	-0.012265	-0.004475	-0.000981	-85.657082	3.549100	156.677908
14041		-0.626373	-9.784035	0.712182	-0.010662	0.000997	-0.000697	-85.659226	3.547751	156.676001
14042		-0.612262	-9.756814	0.756308	-0.010543	-0.004537	-0.001206	-85.661645	3.546886	156.677211
14043		-0.621475	-9.763840	0.722791	-0.009884	-0.005791	0.002886	-85.663094	3.547290	156.679346
14044		-0.593923	-9.778998	0.735536	-0.009847	-0.001615	0.004112	-85.665200	3.549585	156.679114
14045		-0.608694	-9.770373	0.773496	-0.007969	-0.003034	0.004603	-85.665645	3.551089	156.679745
14046		-0.608618	-9.736698	0.765066	-0.014874	-0.004876	0.004890	-85.670507	3.553680	156.681414
14047		-0.623639	-9.797776	0.725974	-0.011394	-0.000823	0.005667	-85.672990	3.555887	156.680826
14048		-0.619141	-9.777503	0.737456	-0.011915	-0.003014	0.001678	-85.676226	3.556718	156.681289
14049		-0.614483	-9.757231	0.749099	-0.008297	-0.002407	0.002557	-85.676886	3.557080	156.681473
14050		-0.619504	-9.777620	0.735598	-0.010193	-0.003076	0.001453	-85.679129	3.557775	156.681963
14051		-0.614800	-9.757366	0.747070	-0.013635	-0.002952	0.001903	-85.682831	3.557739	156.682430
14052		-0.619743	-9.777790	0.733131	-0.013809	-0.003682	0.000573	-85.687122	3.557900	156.683230
14053		-0.614906	-9.757569	0.744331	-0.015685	-0.002263	0.000083	-85.692027	3.556855	156.683224
14054		-0.614867	-9.757688	0.742803	-0.015840	-0.000905	-0.000633	-85.697580	3.556441	156.682382
14055		-0.610554	-9.771236	0.761030	-0.019108	-0.000052	0.001147	-85.704522	3.556099	156.681156
14056		-0.629436	-9.749367	0.777662	-0.027557	-0.001103	0.002988	-85.716763	3.557739	156.680584
14057		-0.638804	-9.756471	0.742203	-0.031619	0.004452	0.000578	-85.731035	3.557263	156.676756
14058		-0.615256	-9.758419	0.732816	-0.031809	0.001635	-0.001368	-85.745811	3.556530	156.674430
14059		-0.611042	-9.772111	0.749315	-0.038030	0.000620	0.003623	-85.763612	3.557629	156.672925
14060		-0.554717	-9.735183	0.758296	-0.039572	0.001409	0.005178	-85.782804	3.560619	156.671007
14061		-0.518129	-9.815095	0.632628	-0.036008	0.001010	0.017123	-85.799425	3.569449	156.669848
14062		-0.572788	-9.796357	0.713863	-0.019724	0.001005	0.032199	-85.807162	3.587837	156.669295
14063		-0.571018	-9.742256	0.717119	-0.025262	0.000812	0.041895	-85.817555	3.610813	156.669284
14064		-0.553257	-9.811429	0.722608	-0.028882	0.003370	0.053313	-85.830567	3.641348	156.668253
14065		-0.563597	-9.797807	0.699882	-0.028376	0.006625	0.068987	-85.842885	3.680047	156.666033
14066		-0.543927	-9.846589	0.717886	-0.027881	0.007788	0.084043	-85.855404	3.728303	156.663736
14067		-0.446622	-9.929432	0.665355	-0.030594	0.017129	0.114416	-85.869269	3.793397	156.657364
14068		-0.534736	-9.945511	0.578514	-0.000043	0.018779	0.154432	-85.866073	3.882289	156.651669
14069		-0.421475	-10.213958	0.487579	0.011215	0.017619	0.216383	-85.855732	4.005674	156.649244
14070		-0.475001	-10.198893	0.389367	0.122723	0.023407	0.304868	-85.781997	4.180674	156.647267
14071		-0.713121	-10.019540	0.626052	0.155259	0.007824	0.352107	-85.688267	4.381195	156.656524
14072		-0.875047	-9.829919	0.585359	0.185877	-0.007181	0.374790	-85.576757	4.594771	156.675698
14073		0.730787	-10.341734	0.696416	0.154369	0.008913	0.532149	-85.482786	4.898149	156.693125
14074		-0.940766	-9.599402	1.057497	0.199669	0.061537	0.643708	-85.365531	5.268205	156.686025
14075		-0.472791	-10.254771	0.675266	0.176043	0.060403	0.707644	-85.260839	5.674140	156.683341
14076		-0.793289	-10.109483	0.860814	0.146516	0.069485	0.777547	-85.173790	6.120961	156.679431
14077		-0.861811	-10.985107	0.579935	0.198486	0.068407	0.859236	-85.055809	6.613835	156.681001
14078		-0.825041	-11.541312	0.738163	0.284995	0.064094	0.954553	-84.887845	7.161347	156.691049
14079		-0.760014	-11.265802	0.447930	0.376955	0.047098	1.066337	-84.664186	7.771258	156.718721
14080		-1.489228	-10.846433	0.765800	0.368752	0.021419	1.162745	-84.442465	8.434957	156.768833
14081		-0.888262	-10.900936	1.115828	0.330234	-0.016911	1.283844	-84.236651	9.165038	156.850665
14082		-0.844074	-10.838893	1.067485	0.345518	0.017664	1.417400	-84.023261	9.973173	156.923229
14083		-1.182304	-10.537270	1.282714	0.324481	0.039806	1.527468	-83.820650	10.844888	156.993032
14084		-1.173681	-10.379626	1.381081	0.300425	0.059321	1.632816	-83.631736	11.777587	157.061350
14085		-1.603027	-10.620892	1.468515	0.269342	0.118403	1.703832	-83.464425	12.754305	157.103255
14086		-1.971252	-9.545931	1.252444	0.280399	0.143903	1.711361	-83.293330	13.736684	157.133752
14087		-2.153797	-9.882868	0.800030	0.201972	0.102552	1.732856	-83.158960	14.728599	157.192986
14088		-2.491448	-9.638068	0.757892	0.210906	0.030636	1.750646	-83.006957	15.725268	157.298561
14089		-2.427069	-10.517892	0.551962	0.250887	-0.035275	1.687718	-82.819018	16.681447	157.442280
14090		-3.877889	-10.524018	0.327885	0.419467	-0.045564	1.627103	-82.531204	17.601510	157.592119
14091		-3.257710	-8.811800	0.745523	0.332910	-0.131319	1.527140	-82.274888	18.457951	157.790771
14092		-0.774546	-8.218670	0.140129	0.178362	-0.244486	1.337920	-82.087219	19.197215	158.045832
14093		0.309088	-8.671221	0.005336	0.096291	-0.374523	1.120446	-81.921577	19.802187	158.364544
14094		2.215681	-7.573646	-0.049482	-0.150911	-0.528595	0.879213	-81.870566	20.256517	158.757406
14095		3.824617	-7.075735	-0.613643	-0.471916	-0.642661	0.589199	-81.984190	20.538144	159.195484
14096		4.716947	-8.362020	-1.060449	-0.695201	-0.690797	0.233317	-82.226542	20.613267	159.631869
14097		4.528009	-11.363890	-1.067667	-0.773271	-0.684016	-0.332181	-82.530277	20.371725	160.018162
14098		5.593089	-11.443968	-0.805013	-0.635619	-0.597459	-0.961410	-82.794800	19.776956	160.302589
14099		5.323473	-10.926729	-0.721520	-0.434516	-0.493563	-1.423659	-82.977071	18.931587	160.491508
14100		4.464470	-9.714416	-0.686986	-0.316464	-0.390751	-1.664114	-83.121952	17.951275	160.601940
14101		3.590140	-8.793743	-0.661757	-0.345297	-0.303497	-1.759963	-83.299342	16.928467	160.656567
14102		2.924890	-8.735214	-0.655312	-0.469819	-0.227549	-1.800006	-83.564666	15.880717	160.666427
14103		2.529658	-9.337268	-0.556351	-0.576702	-0.146254	-1.812120	-83.899643	14.838558	160.633871
14104		2.356621	-10.151616	-0.509784	-0.615360	-0.039522	-1.817141	-84.273651	13.791192	160.544306
14105		1.984472	-10.751724	-0.458003	-0.551246	0.083261	-1.796119	-84.620443	12.770571	160.391845
14106		1.485102	-10.787463	-0.390464	-0.449131	0.204216	-1.754160	-84.923050	11.769882	160.176870
14107		1.010366	-10.770459	-0.356089	-0.363639	0.312994	-1.671792	-85.179798	10.830074	159.909078
14108		0.495576	-10.725902	-0.276921	-0.303238	0.412531	-1.563155	-85.410320	9.945611	159.593015
14109		0.071602	-10.947760	-0.207327	-0.226684	0.500041	-1.405634	-85.595049	9.164194	159.238016
14110		-0.323836	-11.163049	-0.096722	-0.132848	0.573606	-1.226371	-85.730434	8.476678	158.850836
14111		-0.740656	-11.089097	-0.070552	-0.032189	0.635812	-1.043798	-85.803634	7.906148	158.437880
14112		-1.122343	-10.799694	-0.045685	0.035970	0.681223	-0.854635	-85.840410	7.434259	158.007411
14113		-1.453748	-10.505605	-0.031993	0.016998	0.717852	-0.662466	-85.882500	7.084366	157.564946
14114		-1.792482	-10.236689	-0.047308	-0.038077	0.738316	-0.467890	-85.958274	6.835110	157.119022
14115		-2.171112	-10.027489	-0.114862	-0.143346	0.756682	-0.283387	-86.089147	6.702192	156.670839
14116		-2.601764	-9.865744	-0.109248	-0.289184	0.765527	-0.096556	-86.306647	6.664334	156.224902
14117		-2.965902	-9.683138	-0.097498	-0.463923	0.763138	0.086046	-86.619450	6.739504	155.787251
14118		-3.456440	-9.781464	0.007671	-0.662385	0.742135	0.260293	-87.048841	6.900558	155.366360
14119		-3.884942	-10.006688	0.072130	-0.795364	0.693402	0.404992	-87.548185	7.150038	154.976247
14120		-4.331713	-10.162857	0.072621	-0.899213	0.626020	0.510781	-88.107911	7.445335	154.624465
14121		-4.659809	-10.239887	0.251292	-0.952625	0.535451	0.571825	-88.689578	7.780356	154.323040
14122		-4.835613	-10.037445	0.402115	-1.006557	0.439071	0.583506	-89.300539	8.109059	154.073360
14123		-4.887632	-9.805645	0.627474	-1.089056	0.333098	0.553683	-89.948050	8.426457	153.881368
14124		-5.053674	-9.693714	0.840409	-1.191758	0.223632	0.490259	-90.650181	8.697534	153.748676
14125		-5.112913	-9.856997	0.981657	-1.281777	0.102701	0.383962	-91.390412	8.915332	153.683958
14126		-5.106753	-9.955283	1.080931	-1.336590	-0.015045	0.236629	-92.155026	9.042838	153.686830
14127		-4.998644	-10.056618	1.212315	-1.350473	-0.120048	0.053406	-92.914155	9.075306	153.753853
14128		-4.880953	-10.142410	1.276569	-1.321057	-0.212237	-0.159007	-93.650063	8.983893	153.880527
14129		-4.714725	-10.334634	1.292852	-1.231244	-0.292807	-0.373607	-94.323131	8.780842	154.063821
14130		-4.579018	-10.249263	1.359834	-1.094075	-0.360837	-0.585499	-94.913312	8.456486	154.298133
14131		-4.433416	-10.036999	1.339041	-0.939989	-0.414508	-0.760768	-95.407992	8.042533	154.575622
14132		-4.406230	-9.906077	1.249876	-0.768881	-0.455522	-0.910469	-95.804130	7.542996	154.887900
14133		-4.270922	-9.741430	0.961760	-0.562370	-0.489106	-1.011610	-96.079202	6.994297	155.228260
14134		-4.047858	-9.424118	0.690480	-0.347724	-0.508114	-1.054978	-96.234398	6.419449	155.583744
14135		-3.747103	-8.884105	0.324665	-0.162405	-0.495645	-1.030581	-96.286186	5.862239	155.931319
14136		-3.449812	-8.369167	0.039101	-0.028513	-0.455919	-0.950068	-96.268474	5.345342	156.250848
14137		-3.189402	-7.984113	-0.270032	0.068884	-0.400900	-0.825536	-96.199951	4.898869	156.530571
14138		-2.955367	-7.744388	-0.483151	0.134809	-0.326281	-0.666197	-96.101078	4.535663	156.756953
14139		-2.765766	-7.460201	-0.617468	0.179173	-0.248820	-0.488101	-95.981238	4.271346	156.927558
14140		-2.755928	-7.129376	-0.708580	0.169798	-0.169658	-0.306103	-95.872556	4.103773	157.041514
14141		-2.731861	-7.121091	-0.751673	0.116528	-0.101375	-0.126302	-95.797152	4.036478	157.105708
14142		-2.642327	-7.052288	-0.626849	0.049697	-0.042860	0.039629	-95.764111	4.058926	157.126758
14143		-2.575012	-7.237982	-0.517583	-0.042521	0.019741	0.182425	-95.786036	4.160572	157.103821
14144		-2.583082	-7.729653	-0.425723	-0.111692	0.077820	0.296904	-95.851558	4.323180	157.040893
14145		-2.526554	-8.238777	-0.341805	-0.106391	0.137600	0.369364	-95.916265	4.524404	156.939367
14146		-2.402469	-8.612616	-0.281562	-0.045275	0.199516	0.399060	-95.950184	4.738360	156.800427
14147		-2.344191	-8.762422	-0.292135	0.054094	0.269083	0.404722	-95.930234	4.951838	156.621339
14148		-2.323345	-8.669223	-0.287914	0.186759	0.341602	0.407571	-95.839285	5.162806	156.400697
14149		-2.310242	-8.336112	-0.348453	0.314000	0.393281	0.457080	-95.678549	5.399555	156.148042
14150		-2.247825	-8.073415	-0.380084	0.392724	0.431771	0.569736	-95.477124	5.699508	155.867633
14151		-2.217147	-7.756352	-0.421360	0.434993	0.459412	0.714251	-95.254909	6.081136	155.564576
14152		-2.152837	-7.523226	-0.383411	0.412669	0.484872	0.849011	-95.050412	6.540117	155.241078
14153		-2.207594	-7.751818	-0.432643	0.358932	0.508371	0.948905	-94.881010	7.055356	154.900317
14154		-2.349434	-8.142174	-0.424047	0.336767	0.531756	0.997273	-94.729729	7.598970	154.544773
14155		-2.394523	-8.386764	-0.463276	0.333022	0.540627	0.973757	-94.583892	8.128718	154.186241
14156		-2.379162	-8.619725	-0.462693	0.340099	0.543321	0.909400	-94.437214	8.623710	153.829948
14157		-2.428748	-8.953107	-0.475422	0.354979	0.536383	0.819591	-94.283163	9.067398	153.482543
14158		-2.529967	-9.289997	-0.612722	0.383253	0.513654	0.721398	-94.112818	9.458355	153.153292
14159		-2.614657	-9.420064	-0.718848	0.419855	0.469248	0.628292	-93.918143	9.797457	152.854532
14160		-2.599742	-9.369433	-0.759349	0.437496	0.403263	0.539075	-93.707963	10.090780	152.598400
14161		-2.546160	-9.133666	-0.794801	0.421444	0.318411	0.469793	-93.498491	10.346789	152.395030
14162		-2.562271	-8.906265	-0.834068	0.353059	0.223450	0.419134	-93.318974	10.579606	152.249304
14163		-2.568013	-8.776783	-0.770512	0.252438	0.122704	0.397572	-93.186165	10.801884	152.163540
14164		-2.594720	-8.874149	-0.751846	0.132986	0.014976	0.392018	-93.110615	11.026587	152.140986
14165		-2.522620	-8.969645	-0.743939	0.029112	-0.086248	0.401746	-93.082812	11.257950	152.177419
14166		-2.318319	-9.007968	-0.632861	-0.066220	-0.172124	0.408519	-93.100157	11.498065	152.263712
14167		-2.201294	-9.432545	-0.474498	-0.137659	-0.234409	0.409783	-93.150246	11.738672	152.386369
14168		-2.089574	-9.949931	-0.368205	-0.129723	-0.277849	0.404642	-93.190575	11.980105	152.534401
14169		-1.921957	-10.072896	-0.235173	-0.058633	-0.307590	0.365363	-93.185141	12.197763	152.701262
14170		-1.710300	-9.864059	-0.223534	0.030400	-0.317253	0.293868	-93.126831	12.376982	152.876252
14171		-1.555752	-9.379951	-0.183662	0.103245	-0.316318	0.202914	-93.025306	12.501648	153.053998
14172		-1.632928	-8.835371	-0.140640	0.124677	-0.305526	0.116932	-92.912289	12.578590	153.228271
14173		-1.905057	-8.444647	-0.061768	0.107283	-0.310663	0.081365	-92.807764	12.632882	153.406857
14174		-2.336585	-8.265826	0.063846	0.070160	-0.343938	0.112488	-92.720449	12.707679	153.604168
14175		-2.766111	-7.967581	0.326166	0.030900	-0.407827	0.191837	-92.647204	12.827269	153.837018
14176		-3.308739	-7.836906	0.606441	-0.040773	-0.505237	0.298607	-92.602309	13.012502	154.124444
14177		-3.819830	-8.056047	0.933313	-0.063795	-0.627731	0.415762	-92.553684	13.265509	154.481195
14178		-4.213485	-8.012746	1.228577	-0.054173	-0.776286	0.517277	-92.477759	13.582567	154.923488
14179		-4.455924	-7.778487	1.560117	-0.044213	-0.917641	0.583233	-92.374123	13.937552	155.448533
14180		-4.693198	-7.776334	1.822539	-0.001317	-1.036936	0.650239	-92.224656	14.335618	156.044234
14181		-5.053386	-7.729712	2.010620	0.145020	-1.130806	0.783118	-91.973755	14.806614	156.695015
14182		-4.935797	-7.243657	2.004931	0.360343	-1.171306	1.032674	-91.586022	15.421439	157.369873
14183		-5.177846	-6.782839	1.865622	0.517583	-1.159912	1.421608	-91.102679	16.250219	158.039366
14184		-5.344954	-6.541868	1.509056	0.582045	-1.098142	1.858800	-90.578442	17.327587	158.679420
14185		-5.245361	-6.840286	1.194712	0.563555	-0.989249	2.213360	-90.070411	18.597851	159.266410
14186		-4.927953	-7.364934	0.824789	0.535644	-0.846385	2.335505	-89.586532	19.938424	159.783796
14187		-4.420180	-7.343507	0.566120	0.504874	-0.674120	2.236190	-89.143303	21.214236	160.210173
14188		-3.931848	-6.817449	0.395008	0.470351	-0.475806	2.028256	-88.750041	22.375386	160.526322
14189		-3.551716	-23.146757	4.875712	-0.693854	-0.173735	1.257015	-89.096662	23.092538	160.647553
14190		18.695177	-69.427184	-27.472147	4.978666	1.620391	-5.015822	-86.647890	20.259036	159.534341
14191		-12.207262	29.190025	27.835782	4.542875	2.802858	-3.974298	-84.658128	18.109193	157.655028
14192		-8.197050	-11.032466	-20.150821	4.726967	1.740120	-4.606146	-82.333294	15.601342	156.307208
14193		-18.713182	6.250155	9.357416	-4.123752	-1.666233	-3.225650	-84.500317	13.655083	157.066909
14194		0.028769	-31.247454	-12.344437	1.667221	-0.027113	-4.065744	-83.589729	11.340635	156.834160
14195		-0.381918	-14.422533	10.953047	-0.856677	-0.969524	-3.372088	-84.014014	9.358939	157.182119
14196		5.230295	-22.537485	-6.125504	1.175626	-0.766088	-2.031545	-83.288312	8.156546	157.492035
14197		-3.093028	-6.409307	5.202245	0.396807	-0.808453	-1.716726	-83.011094	7.123768	157.836324
14198		-0.020229	-10.880182	1.387306	0.100854	-0.599365	-1.759802	-82.923846	6.083247	158.053841
14199		2.917827	-8.426198	4.989940	-0.548859	-0.335060	-1.594830	-83.226467	5.152063	158.133280
14200		1.562313	-10.890159	2.414514	-1.080949	0.089296	-0.925768	-83.850468	4.632370	158.021062
14201		0.014631	-14.637536	-4.740685	-0.487029	-0.045822	-0.295475	-84.124873	4.460301	158.028131
14202		-0.914759	-8.473586	3.081297	-0.096786	0.060633	-0.184664	-84.179610	4.359730	157.981347
14203		-0.481341	-9.460368	1.418531	-0.511609	0.075752	-0.124383	-84.472559	4.292141	157.929638
14204		-0.911742	-10.549773	0.207553	-0.545630	0.073144	-0.133105	-84.784296	4.221248	157.879350
14205		-0.789942	-10.010756	0.621957	-0.311190	0.086720	-0.141187	-84.962757	4.144140	157.821162
14206		-0.696873	-10.132136	0.463986	-0.259347	0.074981	-0.139936	-85.110528	4.069084	157.770010
14207		-0.773017	-10.022653	0.537893	-0.179111	0.069947	-0.134712	-85.212435	3.994573	157.722136
14208		-0.734023	-9.872311	0.741369	-0.108860	0.073830	-0.144901	-85.273892	3.916427	157.671689
14209		-0.613723	-9.890580	0.664752	-0.091637	0.075519	-0.136369	-85.325760	3.841116	157.620738
14210		-0.629007	-9.724330	0.778008	-0.058257	0.077409	-0.125311	-85.358192	3.774215	157.569303
14211		-0.628935	-9.495812	1.022036	-0.064069	0.069485	-0.120086	-85.393862	3.707857	157.522666
14212		-0.611622	-9.595407	0.883817	-0.124325	0.056144	-0.127673	-85.463226	3.638536	157.483406
14213		-0.602395	-9.700099	0.801657	-0.119556	0.062096	-0.129908	-85.530327	3.566137	157.440703
14214		-0.594160	-9.652989	0.854602	-0.113170	0.045027	-0.116482	-85.592760	3.502603	157.408474
14215		-0.580733	-9.703349	0.777954	-0.132048	0.022733	-0.097966	-85.665463	3.446636	157.389872
14216		-0.565792	-9.649734	0.862461	-0.126881	0.003722	-0.081571	-85.734165	3.401174	157.382949
14217		-0.536963	-9.721696	0.764874	-0.151072	-0.019151	-0.063700	-85.816230	3.362970	157.389915
14218		-0.495089	-9.766725	0.711680	-0.143255	-0.032542	-0.040277	-85.892966	3.339559	157.405593
14219		-0.545010	-9.853138	0.621100	-0.135676	-0.045592	-0.029255	-85.965249	3.319985	157.429202
14220		-0.404250	-9.932181	0.491685	-0.098490	-0.046773	-0.004817	-86.015800	3.316274	157.454510
14221		-0.467032	-9.989484	0.460371	-0.029455	-0.048867	0.022023	-86.026998	3.325918	157.482067
14222		-0.533213	-9.896052	0.570272	0.003358	-0.053533	0.040256	-86.018908	3.347663	157.513042
14223		-0.617620	-9.930927	0.567109	0.037328	-0.053079	0.045075	-85.991628	3.370306	157.543936
14224		-0.614664	-9.841893	0.663344	0.068541	-0.050634	0.044016	-85.946282	3.394267	157.573423
14225		-0.614410	-9.704480	0.824677	0.043168	-0.049298	0.038632	-85.915775	3.413341	157.601921
14226		-0.589272	-9.685602	0.833617	0.011223	-0.034474	0.039346	-85.903800	3.435251	157.621990
14227		-0.653898	-9.708503	0.801935	-0.014550	-0.025137	0.022772	-85.907213	3.446237	157.636015
14228		-0.587360	-9.782100	0.701614	-0.032566	-0.014525	0.011266	-85.921049	3.452905	157.643514
14229		-0.581078	-9.878081	0.660685	-0.017425	-0.003999	0.010194	-85.926866	3.457568	157.644919
14230		-0.623172	-9.820719	0.679249	-0.005222	0.000464	0.011085	-85.925559	3.464722	157.643829
14231		-0.618992	-9.800577	0.691748	-0.001817	-0.001745	0.009966	-85.922512	3.469347	157.643934
14232		-0.610249	-9.794116	0.724752	0.012789	-0.000724	0.014055	-85.910843	3.478137	157.643646
14233		-0.611184	-9.760111	0.718839	0.004551	-0.005236	0.016047	-85.904010	3.486094	157.646000
14234		-0.620819	-9.731829	0.771222	0.000587	-0.005186	0.013164	-85.899177	3.494177	157.648232
14235		-0.608524	-9.739889	0.731174	-0.017236	-0.003274	0.011529	-85.904906	3.499632	157.649279
14236		-0.591392	-9.761805	0.709432	-0.026165	-0.004404	0.010080	-85.915426	3.505969	157.650937
14237		-0.593188	-9.795764	0.713690	-0.025396	0.000558	0.016047	-85.925954	3.514163	157.649972
14238		-0.599989	-9.815949	0.698164	-0.028983	0.002048	0.015832	-85.938300	3.524031	157.648168
14239		-0.657544	-9.785009	0.670300	-0.017192	0.000895	0.012792	-85.944148	3.530377	157.646875
14240		-0.638749	-9.772447	0.733585	-0.016190	0.002129	0.008476	-85.949192	3.536030	157.644725
14241		-0.641151	-9.806925	0.647388	-0.016416	-0.002762	0.005876	-85.954484	3.538276	157.645244
14242		-0.626420	-9.780590	0.691789	-0.002898	-0.001892	0.003225	-85.951788	3.540754	157.645183
14243		-0.611394	-9.754259	0.736513	-0.010155	-0.007252	0.000265	-85.953347	3.539612	157.648046
14244		-0.649386	-9.745117	0.690019	-0.015750	0.001208	0.000159	-85.958129	3.540447	157.646086
14245		-0.639765	-9.772826	0.727636	-0.016500	-0.001666	-0.005179	-85.963535	3.536419	157.645530
14246		-0.648435	-9.745394	0.686993	-0.013621	-0.001860	-0.009037	-85.967010	3.531865	157.644956
14247		-0.619247	-9.761077	0.698533	-0.012323	-0.007529	-0.013217	-85.969836	3.523007	157.647434
14248		-0.602690	-9.734931	0.742439	-0.017957	-0.003242	-0.014588	-85.975762	3.515213	157.647428
14249		-0.593571	-9.797091	0.694906	-0.024815	-0.005082	-0.014246	-85.985834	3.505865	157.648466
14250		-0.592161	-9.797353	0.692404	-0.026672	-0.001569	-0.014069	-85.996807	3.498417	157.647525
14251		-0.585505	-9.777531	0.703145	-0.017803	-0.006696	-0.014523	-86.002806	3.488847	157.649479
14252		-0.589156	-9.763919	0.681648	-0.021977	-0.000839	-0.006482	-86.011095	3.485743	157.648427
14253		-0.611691	-9.762416	0.686375	-0.020977	0.000400	-0.010796	-86.019151	3.478586	157.646468
14254		-0.577413	-9.758121	0.709459	-0.031383	0.004217	-0.009397	-86.033014	3.474000	157.642407
14255		-0.597061	-9.804696	0.648270	-0.027251	0.002794	-0.005815	-86.044735	3.469784	157.639278
14256		-0.591187	-9.784850	0.658746	-0.022307	0.001894	-0.007883	-86.053316	3.465951	157.636609
14257		-0.608704	-9.763246	0.677168	-0.004484	0.002074	-0.005617	-86.051967	3.461820	157.633901
14258		-0.574927	-9.758783	0.702336	-0.005706	-0.004055	-0.003910	-86.050825	3.460006	157.634796
14259		-0.598390	-9.791086	0.714651	-0.018026	-0.002982	-0.004237	-86.057057	3.456464	157.635038
14260		-0.565993	-9.786934	0.647560	-0.010779	0.002380	-0.001270	-86.059034	3.456395	157.632353
14261		-0.612681	-9.783634	0.660330	-0.007024	-0.000476	-0.000360	-86.059038	3.455167	157.631313
14262		-0.587772	-9.751230	0.737582	-0.006314	-0.001779	0.003710	-86.058309	3.457764	157.631206
14263		-0.593397	-9.771322	0.723626	-0.014859	-0.001479	0.004930	-86.062756	3.459520	157.630949
14264		-0.599360	-9.791423	0.709208	-0.015671	-0.002005	0.010579	-86.067353	3.466017	157.631242
14265		-0.578224	-9.793350	0.609514	-0.015652	0.000079	0.011216	-86.072293	3.471427	157.630340
14266		-0.640168	-9.815985	0.668152	-0.003128	0.001806	0.013515	-86.069836	3.479734	157.628565
14267		-0.607348	-9.777571	0.686841	-0.004211	0.001678	0.006774	-86.068288	3.482668	157.626573
14268		-0.636696	-9.795868	0.680686	0.003297	-0.004037	0.008593	-86.061959	3.487921	157.627952
14269		-0.598307	-9.737391	0.713152	0.006043	0.001315	0.005310	-86.054527	3.490004	157.626110
14270		-0.609451	-9.777401	0.687386	-0.003706	-0.002427	0.008870	-86.052264	3.495467	157.626578
14271		-0.586943	-9.779074	0.680112	-0.005564	0.001087	0.009053	-86.051465	3.499681	157.625016
14272		-0.634349	-9.775677	0.693262	-0.004584	0.000246	0.004102	-86.049811	3.502507	157.623765
14273		-0.601596	-9.771225	0.718141	-0.011214	0.003289	0.007051	-86.052331	3.505665	157.620862
14274		-0.585410	-9.793119	0.606363	-0.002146	0.000965	0.008564	-86.049291	3.511058	157.619377
14275		-0.618253	-9.797354	0.672303	0.007771	0.003337	0.005703	-86.040939	3.513446	157.616393
14276		-0.631774	-9.755513	0.705704	0.006379	-0.001424	0.006707	-86.032947	3.517667	157.616202
14277		-0.557514	-9.774365	0.705909	0.016633	-0.001789	0.005243	-86.019339	3.519591	157.616137
14278		-0.628361	-9.769074	0.728152	0.019221	-0.004524	0.009767	-86.003868	3.525420	157.617845
14279		-0.600483	-9.750577	0.735979	0.015242	-0.006551	0.006248	-85.990887	3.527727	157.620547
14280		-0.627451	-9.700803	0.808808	0.001254	-0.001240	0.007440	-85.985824	3.532343	157.620283
14281		-0.583265	-9.738338	0.709744	-0.015688	-0.004080	0.009943	-85.990642	3.536861	157.621720
14282		-0.595482	-9.812314	0.689026	-0.014808	-0.006753	0.014711	-85.994555	3.545398	157.624905
14283		-0.617188	-9.824594	0.623297	-0.001363	-0.003539	0.023050	-85.991152	3.557429	157.626557
14284		-0.580928	-9.799965	0.662142	0.005998	-0.005807	0.024807	-85.983161	3.571757	157.629607
14285		-0.627557	-9.844172	0.612347	0.028307	-0.007728	0.032684	-85.962583	3.589125	157.634050
14286		-0.632913	-9.761872	0.674773	0.049303	-0.014666	0.031212	-85.929457	3.606736	157.642443
14287		-0.639411	-9.747219	0.751152	0.042811	-0.017156	0.033588	-85.900222	3.624231	157.652340
14288		-0.629704	-9.788540	0.722578	0.038898	-0.012927	0.031978	-85.873112	3.642331	157.659785
14289		-0.635227	-9.740049	0.791106	0.029242	-0.014828	0.025826	-85.851749	3.655478	157.668044
14290		-0.637712	-9.739725	0.793088	0.009961	-0.007940	0.027054	-85.841400	3.670952	157.672441
14291		-0.614543	-9.789323	0.722135	0.009372	-0.005660	0.034673	-85.831731	3.689533	157.675826
14292		-0.617763	-9.789056	0.723007	0.007429	-0.010484	0.032314	-85.822715	3.707890	157.681905
14293		-0.654965	-9.827045	0.705206	0.014508	-0.005856	0.033937	-85.810095	3.726040	157.685377
14294		-0.652524	-9.772784	0.713026	0.017439	-0.011329	0.039862	-85.795290	3.748657	157.692266
14295		-0.636472	-9.759964	0.779645	0.016117	-0.009832	0.042776	-85.781571	3.771689	157.698396
14296		-0.609725	-9.789483	0.721991	0.010910	-0.011460	0.053231	-85.770455	3.801922	157.705935
14297		-0.591876	-9.790887	0.716549	0.017058	-0.003904	0.060434	-85.756366	3.835292	157.709431
14298		-0.654627	-9.792839	0.699986	0.026475	-0.008997	0.063343	-85.736391	3.871378	157.716007
14299		-0.684100	-9.790305	0.710158	0.040219	-0.005368	0.062645	-85.708963	3.905946	157.720460
14300		-0.682203	-9.817713	0.662700	0.054356	-0.014192	0.061517	-85.672813	3.940746	157.729965
14301		-0.714721	-9.800554	0.747481	0.069823	-0.010643	0.060570	-85.628213	3.973894	157.737393
14302		-0.733607	-9.791439	0.793404	0.063770	-0.011945	0.055269	-85.586774	4.005200	157.745387
14303		-0.710150	-9.772458	0.805269	0.055207	-0.013688	0.055866	-85.550429	4.035515	157.754397
14304		-0.713350	-9.819993	0.745647	0.050648	-0.013413	0.059972	-85.516416	4.069424	157.763483
14305		-0.597821	-9.609924	0.929896	0.054902	-0.008601	0.065440	-85.480409	4.105425	157.770050
14306		-0.559262	-9.613963	0.829115	0.033662	-0.004080	0.075301	-85.456435	4.148481	157.774525
14307		-0.757398	-9.782767	0.663855	-0.037814	-0.015862	0.074252	-85.473208	4.189183	157.785672
14308		-0.892731	-9.729823	0.731571	0.055080	-0.002677	0.056967	-85.437083	4.221805	157.788519
14309		-0.893279	-9.776619	0.763427	0.052843	-0.017129	0.030073	-85.401995	4.237208	157.798398
14310		-0.791430	-9.694840	0.921358	0.021712	-0.017807	0.011141	-85.384509	4.242983	157.807829
14311		-0.832860	-9.670546	0.948576	-0.010181	-0.016899	-0.001508	-85.385647	4.240354	157.816126
14312		-0.692926	-9.882468	0.705827	-0.016463	-0.016533	0.002847	-85.390086	4.241455	157.824447
14313		-0.662342	-9.829700	0.795793	0.006810	-0.021246	0.015469	-85.381245	4.248322	157.836018
14314		-0.581827	-9.844043	0.736943	0.013152	-0.024216	0.042242	-85.368263	4.271538	157.850563
14315		-0.569261	-9.915064	0.565259	0.066415	-0.030219	0.076760	-85.324664	4.312982	157.870135
14316		-0.538888	-9.806174	0.762863	0.136689	-0.045065	0.116635	-85.239738	4.377624	157.900171
14317		-0.649533	-9.782015	0.784573	0.138817	-0.035223	0.151268	-85.154106	4.461316	157.926306
14318		-0.796465	-9.678901	0.839337	0.155087	-0.046683	0.161658	-85.058304	4.551443	157.959678
14319		-0.689933	-9.932565	0.832029	0.187370	-0.049697	0.154268	-84.944074	4.636035	157.994544
14320		-0.930088	-9.753525	0.809342	0.112631	-0.049922	0.177686	-84.872253	4.735008	158.030905
14321		-0.787970	-9.933991	0.905247	0.230151	-0.052785	0.166037	-84.733175	4.826035	158.068455
14322		-0.639210	-10.259133	0.663132	0.204386	-0.035449	0.241833	-84.609037	4.962217	158.100374
14323		-0.576032	-9.569931	1.253157	0.189079	-0.013301	0.286915	-84.494690	5.124172	158.122332
14324		-0.417814	-10.229533	0.865568	0.176988	0.004437	0.368980	-84.387445	5.334881	158.139058
14325		0.169743	-10.455773	0.949098	0.189615	0.057297	0.524311	-84.275136	5.636099	158.134718
14326		0.291400	-10.510138	0.769476	0.162813	0.075002	0.784871	-84.177441	6.087705	158.135911
14327		-0.947097	-10.438956	0.545108	0.405204	0.169397	0.994348	-83.945541	6.663451	158.096746
14328		-1.866276	-8.776679	1.614934	0.281739	0.126149	0.906443	-83.782061	7.187256	158.078956
14329		-1.924329	-9.115875	1.090693	0.180274	0.108113	0.772778	-83.676581	7.633193	158.064287
14330		-1.993807	-8.640595	1.620466	0.111904	0.066576	0.594903	-83.608390	7.976029	158.062803
14331		-1.875077	-9.404827	1.045482	0.031899	0.036983	0.463817	-83.584999	8.241535	158.070119
14332		-1.613387	-9.698839	1.029761	0.053985	0.017573	0.419198	-83.547435	8.481314	158.085904
14333		-1.177855	-10.030651	1.020882	0.055574	0.013028	0.453125	-83.508405	8.739177	158.106646
14334		-0.874214	-10.314341	1.098046	0.070485	0.046517	0.573049	-83.462219	9.068368	158.116240
14335		-1.178260	-10.483613	0.849498	0.102319	0.075030	0.713653	-83.399066	9.478552	158.119009
14336		-1.860219	-9.774927	1.072075	0.183123	0.070259	0.750171	-83.288415	9.909956	158.127667
14337		-1.858884	-9.564735	1.117863	0.170877	0.046537	0.726765	-83.182639	10.325665	158.149229
14338		-2.010412	-9.253373	1.342976	0.163945	0.042816	0.675485	-83.080616	10.712692	158.170206
14339		-2.054680	-9.404886	1.270955	0.110465	0.030557	0.641599	-83.008277	11.078783	158.196471
14340		-2.094715	-9.304578	1.276758	0.116825	0.019340	0.589993	-82.931266	11.415530	158.226119
14341		-1.840590	-9.735684	1.360930	0.073439	0.016707	0.589600	-82.878777	11.751011	158.257638
14342		-1.598364	-10.316381	1.286431	0.051235	0.036852	0.680383	-82.839557	12.140333	158.284436
14343		-1.714992	-10.514935	1.068438	0.083752	0.059558	0.818848	-82.782331	12.609152	158.308501
14344		-1.752133	-10.710347	1.281915	0.083026	0.065312	0.966435	-82.723279	13.162939	158.340747
14345		-1.795112	-10.822394	1.110236	0.163668	0.064272	1.109792	-82.615051	13.797379	158.385231
14346		-2.183066	-9.944541	1.485875	0.199561	0.065678	1.202796	-82.483672	14.485202	158.437560
14347		-2.229238	-9.718966	1.476817	0.145724	0.056381	1.257142	-82.379799	15.202552	158.501171
14348		-2.341813	-9.472608	1.482643	0.121039	0.075135	1.288297	-82.290978	15.939377	158.557733
14349		-2.784116	-9.203917	1.318674	0.089864	0.078696	1.293873	-82.219646	16.679111	158.613855
14350		-2.913545	-9.222320	1.170413	0.067267	0.059207	1.290741	-82.156672	17.415909	158.682491
14351		-2.804815	-9.272665	1.423833	0.041080	0.056136	1.297348	-82.107067	18.155728	158.754465
14352		-2.670435	-9.544120	1.588085	0.000374	0.081219	1.336618	-82.083110	18.920170	158.815583
14353		-2.480097	-9.944686	1.779095	-0.057787	0.135734	1.407037	-82.100732	19.728465	158.850049
14354		-2.508679	-10.595833	1.721096	-0.055799	0.207644	1.521975	-82.128138	20.607903	158.850616
14355		-2.618557	-10.815161	1.449888	-0.024468	0.266655	1.660517	-82.146775	21.570353	158.826439
14356		-3.235021	-10.685897	1.175019	0.042477	0.301051	1.773819	-82.131491	22.599767	158.790701
14357		-3.593610	-10.779328	0.862946	0.107293	0.290445	1.881826	-82.073648	23.689701	158.771071
14358		-3.623097	-11.188436	0.849858	0.196420	0.257650	2.001339	-81.951460	24.844629	158.784091
14359		-3.687713	-10.776172	0.862770	0.344025	0.245502	2.120366	-81.735138	26.066270	158.819268
14360		-4.131368	-10.364472	0.946317	0.406651	0.217994	2.198270	-81.468271	27.329132	158.885368
14361		-4.457169	-10.336004	0.786587	0.492371	0.181828	2.230159	-81.134868	28.607084	158.986008
14362		-5.100149	-11.585211	1.305076	0.619856	0.100620	2.175620	-80.698196	29.845537	159.144652
14363		-5.387623	-10.882416	0.362731	0.973336	0.089767	2.094573	-80.049091	31.036468	159.316993
14364		-6.304086	-8.544396	0.476976	0.848488	0.041217	2.098234	-79.442500	32.221948	159.539232
14365		-5.467920	-9.179482	0.307062	0.609760	-0.122838	2.099588	-78.899692	33.389440	159.888693
14366		-4.744959	-9.214381	0.618398	0.749860	-0.159530	2.099142	-78.246614	34.548596	160.281976
14367		-5.348839	-7.743422	0.782543	0.814187	-0.213116	2.086285	-77.516551	35.690873	160.732977
14368		-5.454788	-7.271001	0.720448	0.728957	-0.298097	2.092518	-76.779018	36.820091	161.267875
14369		-5.474865	-6.716623	0.876109	0.664899	-0.383311	2.064935	-76.019560	37.917629	161.884709
14370		-5.667851	-6.529684	1.106297	0.626289	-0.441410	2.038571	-75.234135	38.984735	162.565207
14371		-5.680549	-5.665643	1.323406	0.610215	-0.489921	2.001321	-74.410790	40.017203	163.303465
14372		-5.821618	-5.357046	1.471063	0.469204	-0.558909	1.971174	-73.611473	41.013316	164.114833
14373		-6.077489	-5.381645	1.591866	0.402244	-0.603744	1.934255	-72.802064	41.973689	164.982446
14374		-6.169100	-5.027546	1.569278	0.323667	-0.659903	1.869882	-71.989668	42.879385	165.906731
14375		-6.234937	-4.737541	1.546246	0.238205	-0.720284	1.766079	-71.180425	43.708467	166.881807
14376		-6.553275	-5.188296	1.729094	0.156076	-0.790866	1.682187	-70.367836	44.468467	167.916306
14377		-6.252270	-5.555113	1.913488	0.191707	-0.828255	1.585034	-69.502996	45.158117	168.981702
14378		-5.829651	-5.693909	1.960664	0.210278	-0.860552	1.478848	-68.605508	45.772527	170.066977
14379		-5.632292	-6.376696	2.078132	0.266853	-0.868364	1.388655	-67.663767	46.325100	171.156997
14380		-5.693215	-7.300552	2.243838	0.427744	-0.848818	1.343709	-66.628056	46.844989	172.240787
14381		-4.893245	-7.658167	2.562724	0.611799	-0.810481	1.323913	-65.487179	47.349334	173.314131
14382		-4.555740	-7.718011	2.802239	0.816189	-0.712557	1.292101	-64.270001	47.845329	174.324728
14383		-7.787506	-7.993002	5.404884	0.984424	-0.444813	1.327404	-63.072449	48.413521	175.169971
14384		-7.360178	-6.205397	5.976313	0.947947	-0.211989	1.567329	-61.932460	49.152669	175.958980
14385		-7.065878	-5.042517	5.773421	0.940880	-0.018463	1.753090	-60.814979	50.028909	176.713188
14386		-5.072974	-4.461468	4.848627	0.855385	0.172845	1.798345	-59.809101	50.971619	177.376838
14387		-3.911764	-4.486325	4.297137	0.692137	0.347294	1.828146	-58.955504	51.974077	177.955786
14388		-3.227703	-4.978221	3.845319	0.593721	0.535267	1.808527	-58.251676	53.016564	178.409274
14389		-2.586468	-4.710466	3.739302	0.536497	0.761375	1.745466	-57.725396	54.095542	178.676278
14390		-0.866378	-4.270151	2.817701	0.360285	0.977685	1.600363	-57.491998	55.167568	178.704479
14391		2.258356	-2.289336	1.304692	0.030026	1.224801	1.372612	-57.724029	56.207325	178.397804
14392		0.769498	-1.291078	1.274740	-0.395551	1.549338	1.288847	-58.504295	57.300274	177.731072
14393		2.858132	-13.098795	-0.487248	-0.451497	1.417304	0.767832	-59.504154	58.095293	176.849402
14394		1.281332	-14.915776	3.394233	1.027183	1.441753	-0.294873	-60.205955	58.359806	175.327221
14395		-0.663329	-17.033700	2.641876	2.160579	1.284951	-1.714237	-60.774145	57.867270	173.195349
14396		-2.051789	-9.052356	2.963536	2.455052	0.768975	-3.016951	-61.267117	56.561546	170.931769
14397		-3.174505	-2.312584	2.622825	1.773030	0.004948	-3.855092	-61.790540	54.620652	169.061237
14398		-3.698781	1.013470	2.150789	0.367404	-0.837218	-4.098212	-62.488507	52.312859	167.926279
14399		-2.964442	-0.260065	1.594745	-0.972967	-1.543690	-3.997057	-63.359762	49.870702	167.517991
14400		-1.828373	-4.271654	1.405106	-1.582152	-1.960612	-3.793526	-64.210667	47.417264	167.587064
14401		-0.648349	-8.053000	1.368490	-1.409347	-2.049414	-3.603873	-64.836392	45.047655	167.833226
14402		0.306917	-10.400112	1.283897	-0.707146	-1.842124	-3.408950	-65.114688	42.823443	168.010887
14403		0.673714	-10.408469	1.053633	0.106468	-1.427832	-3.202480	-65.078411	40.814205	167.967681
14404		0.460286	-9.369173	0.572540	0.632264	-0.908724	-3.030442	-64.934107	39.011319	167.623093
14405		0.091487	-7.703677	-0.066171	0.775710	-0.407056	-2.914382	-64.877957	37.399714	166.988682
14406		-0.404731	-6.184869	-0.533432	0.475049	0.017326	-2.830845	-65.122039	35.923798	166.119490
14407		-1.094996	-6.172068	-0.382025	-0.159461	0.328213	-2.774236	-65.797712	34.555437	165.099844
14408		-1.973068	-8.276207	0.172244	-0.806056	0.507951	-2.794217	-66.869384	33.195319	164.001362
14409		-3.098354	-11.255472	0.964152	-1.107964	0.558500	-2.900338	-68.094694	31.782211	162.894615
14410		-4.577305	-12.860655	1.812882	-1.124040	0.442818	-3.064092	-69.263875	30.227822	161.870874
14411		-6.056550	-12.910844	2.565641	-1.086591	0.177394	-3.216741	-70.295660	28.532854	161.028664
14412		-7.124798	-12.413623	3.053064	-1.163678	-0.196451	-3.298597	-71.231981	26.699814	160.442773
14413		-7.596592	-12.337299	3.288480	-1.329618	-0.567457	-3.303540	-72.128611	24.800121	160.123268
14414		-7.342068	-12.863540	3.191257	-1.427629	-0.833532	-3.249917	-72.991090	22.869225	160.008400
14415		-6.610422	-13.565807	2.832966	-1.394613	-0.898640	-3.140978	-73.795163	20.996808	159.984228
14416		-5.777518	-13.763285	2.351413	-1.261414	-0.745336	-2.982708	-74.537387	19.225151	159.922520
14417		-5.313253	-13.382443	1.846058	-1.115102	-0.432553	-2.789037	-75.231844	17.617085	159.733958
14418		-5.235319	-13.593362	1.815848	-1.085705	-0.082961	-2.572576	-75.950537	16.166808	159.396245
14419		-5.500877	-15.588338	2.240531	-1.062644	0.233086	-2.485299	-76.685054	14.814062	158.910590
14420		-5.830854	-17.083710	2.704015	-0.868392	0.460933	-2.614379	-77.331132	13.403225	158.295692
14421		-6.438070	-17.256612	3.365041	-0.619124	0.549034	-2.885908	-77.830650	11.855247	157.614997
14422		-7.468404	-15.555770	3.799248	-0.471275	0.468303	-3.176167	-78.223915	10.120426	156.960954
14423		-8.672095	-12.468109	4.245995	-0.675982	0.157120	-3.353835	-78.683890	8.254894	156.480572
14424		-8.870453	-11.131134	4.483158	-1.130644	-0.316511	-3.328528	-79.353943	6.338953	156.291970
14425		-8.356985	-11.387153	4.322792	-1.500023	-0.815011	-3.143854	-80.196276	4.482533	156.430983
14426		-7.554602	-12.028722	4.176886	-1.606960	-1.238762	-2.882614	-81.087800	2.729670	156.861957
14427		-6.746819	-12.444185	3.985764	-1.485464	-1.561507	-2.586099	-81.912494	1.131079	157.526776
14428		-5.985721	-12.148710	3.625996	-1.252959	-1.768903	-2.277444	-82.622041	-0.304878	158.354026
14429		-5.292483	-11.093425	3.166796	-1.048753	-1.864216	-1.934379	-83.233713	-1.537221	159.276311
14430		-4.737823	-9.871308	2.546142	-0.977251	-1.857002	-1.541614	-83.825069	-2.540240	160.233206
14431		-4.374460	-9.548930	2.207817	-1.038285	-1.774295	-1.126270	-84.463955	-3.286865	161.178547
14432		-4.245941	-9.939676	2.147241	-1.091152	-1.647817	-0.796233	-85.142214	-3.831195	162.077907
14433		-4.005969	-10.242483	2.092198	-1.077993	-1.498349	-0.574798	-85.814160	-4.228182	162.908504
14434		-3.925491	-10.337863	2.035022	-0.998135	-1.322057	-0.420056	-86.439610	-4.523032	163.648907
14435		-3.808666	-9.858230	1.941489	-0.893099	-1.143177	-0.293633	-86.999274	-4.729497	164.294013
14436		-3.696713	-9.202197	1.678723	-0.821627	-0.950962	-0.163533	-87.512013	-4.851861	164.834429
14437		-3.718507	-9.168252	1.664811	-0.775502	-0.757228	-0.026648	-87.989031	-4.885188	165.267651
14438		-3.625950	-9.557382	1.854727	-0.690178	-0.570197	0.069692	-88.408927	-4.857409	165.595421
14439		-3.364092	-9.783591	1.873532	-0.521634	-0.383746	0.113201	-88.722318	-4.799132	165.816379
14440		-3.037969	-9.779604	1.804593	-0.305835	-0.195876	0.145038	-88.903258	-4.719458	165.929489
14441		-2.646287	-9.451246	1.558681	-0.082605	0.009341	0.194844	-88.946138	-4.608807	165.924974
14442		-2.211251	-8.904451	1.300240	0.086446	0.229313	0.290436	-88.882417	-4.440369	165.795144
14443		-1.680161	-8.475798	0.967686	0.193577	0.453054	0.433496	-88.748138	-4.187744	165.538782
14444		-1.226905	-8.436056	0.842731	0.257735	0.663439	0.581224	-88.570126	-3.845881	165.164413
14445		-0.764163	-8.516168	0.758041	0.310204	0.846083	0.720414	-88.358157	-3.421324	164.688672
14446		-0.425745	-8.661911	0.726131	0.364264	0.991464	0.832261	-88.114504	-2.926889	164.133469
14447		-0.314383	-8.730113	0.705076	0.392022	1.088493	0.912397	-87.857694	-2.383572	163.526654
14448		-0.327095	-8.824112	0.722222	0.386279	1.137430	0.955266	-87.609027	-1.810423	162.895453
14449		-0.185875	-8.870709	0.742269	0.353570	1.144565	0.967013	-87.385585	-1.229289	162.262996
14450		-0.093472	-8.933017	0.708647	0.302493	1.131460	0.962938	-87.197795	-0.646980	161.640187
14451		0.034375	-8.870954	0.693514	0.242934	1.092131	0.939076	-87.050722	-0.079235	161.040938
14452		0.054618	-8.768985	0.653511	0.178713	1.043673	0.917339	-86.946024	0.477540	160.470054
14453		-0.047655	-8.661767	0.466461	0.095906	0.987642	0.899371	-86.894038	1.021483	159.931357
14454		-0.077792	-8.408365	0.296777	0.014733	0.923476	0.900943	-86.892655	1.566163	159.429627
14455		-0.187642	-8.165810	0.170045	-0.071417	0.860833	0.918142	-86.944460	2.116952	158.963878
14456		-0.328409	-7.948190	0.087992	-0.172383	0.796429	0.952523	-87.056993	2.686364	158.535122
14457		-0.486314	-7.877638	0.045739	-0.276749	0.736178	1.000725	-87.232007	3.279013	158.140601
14458		-0.620606	-7.808860	0.078541	-0.375223	0.667888	1.051756	-87.465182	3.899192	157.784283
14459		-0.864244	-8.068454	0.093624	-0.462241	0.610615	1.112289	-87.749895	4.549498	157.459185
14460		-1.114342	-8.493324	0.248211	-0.518219	0.550878	1.151340	-88.067769	5.220762	157.165543
14461		-1.274998	-8.999002	0.336835	-0.533947	0.499179	1.155338	-88.395561	5.890181	156.897584
14462		-1.427643	-9.230532	0.382906	-0.489953	0.444156	1.107915	-88.698315	6.531774	156.656649
14463		-1.573783	-9.447611	0.536732	-0.429683	0.388667	1.020161	-88.965798	7.119636	156.443161
14464		-1.682838	-9.560618	0.584042	-0.357621	0.324651	0.907120	-89.189798	7.642907	156.262841
14465		-1.654359	-9.515996	0.747925	-0.278870	0.269549	0.780050	-89.366227	8.090679	156.111383
14466		-1.687678	-9.471767	0.743460	-0.199832	0.211851	0.650732	-89.493862	8.465357	155.991278
14467		-1.680366	-9.348815	0.714997	-0.104033	0.160401	0.534390	-89.563120	8.771206	155.899630
14468		-1.628071	-9.063562	0.635474	-0.031034	0.110057	0.448668	-89.586401	9.029410	155.836554
14469		-1.629724	-8.793764	0.527288	0.007755	0.069781	0.404905	-89.584239	9.260606	155.796512
14470		-1.668200	-8.591512	0.403228	0.012786	0.031985	0.404974	-89.575504	9.493462	155.778492
14471		-1.823963	-8.528002	0.306229	-0.014310	-0.005229	0.437581	-89.579009	9.743067	155.782158
14472		-1.963930	-8.565605	0.245982	-0.059445	-0.039318	0.494041	-89.604598	10.026695	155.805909
14473		-2.172759	-8.678952	0.189089	-0.102257	-0.071067	0.562712	-89.651633	10.347752	155.848155
14474		-2.384844	-9.009136	0.199912	-0.126767	-0.119544	0.658398	-89.706926	10.725400	155.918818
14475		-2.552039	-9.290846	0.209064	-0.107360	-0.174818	0.778621	-89.744807	11.169949	156.021758
14476		-2.530926	-9.070524	0.234977	-0.073693	-0.232512	0.899061	-89.755426	11.685394	156.158822
14477		-2.382898	-8.770769	0.219189	-0.073092	-0.281828	0.992418	-89.758741	12.252233	156.325092
14478		-2.321320	-8.708492	0.170887	-0.106298	-0.308773	1.043958	-89.775478	12.850642	156.507699
14479		-2.061345	-8.728143	0.063128	-0.143788	-0.307389	1.038719	-89.812430	13.444062	156.689495
14480		-1.985501	-8.866928	0.031502	-0.177231	-0.276523	0.986594	-89.870654	14.009896	156.853081
14481		-2.146385	-9.119640	-0.013885	-0.183237	-0.240020	0.900906	-89.936680	14.524757	156.994609
14482		-2.411925	-9.300785	0.044014	-0.150791	-0.200065	0.804210	-89.988585	14.986402	157.112346
14483		-2.666452	-9.225550	0.165543	-0.092967	-0.182361	0.739908	-90.009716	15.409246	157.219355
14484		-2.922437	-8.731631	0.333849	-0.023383	-0.183132	0.722603	-89.989557	15.824195	157.327203
14485		-3.357822	-8.364329	0.535793	-0.013876	-0.215423	0.763043	-89.958229	16.260240	157.454566
14486		-3.813688	-8.407228	0.637057	0.026243	-0.262502	0.862028	-89.894140	16.754977	157.611019
14487		-4.095493	-8.253800	0.734664	0.077602	-0.324325	1.006490	-89.788518	17.330051	157.805764
14488		-4.410457	-8.035568	0.627799	0.107852	-0.379314	1.149073	-89.652112	17.988596	158.036175
14489		-4.592500	-7.742883	0.476388	0.084242	-0.418146	1.255287	-89.518996	18.704991	158.292761
14490		-4.850164	-7.510674	0.332501	0.020347	-0.445181	1.327889	-89.412156	19.464941	158.569170
14491		-5.096148	-7.377143	0.091702	-0.065879	-0.443167	1.365423	-89.351536	20.243411	158.846774
14492		-5.298093	-7.380615	-0.020915	-0.118035	-0.438242	1.419889	-89.316486	21.055862	159.124234
14493		-5.479982	-7.495901	0.149837	-0.112710	-0.425007	1.498296	-89.277492	21.910197	159.395893
14494		-5.524200	-7.394360	0.342948	-0.058738	-0.408997	1.599713	-89.205245	22.825839	159.661465
14495		-5.808536	-6.920039	0.537386	0.017965	-0.384334	1.686263	-89.090354	23.787544	159.915505
14496		-5.816199	-6.178198	0.770185	0.091927	-0.363199	1.797697	-88.931164	24.816442	160.162435
14497		-5.648291	-4.920340	0.935133	0.088987	-0.346546	1.953092	-88.771895	25.930213	160.405587
14498		-11.558725	-80.279291	-9.551699	-4.073906	-1.123910	-1.000561	-90.793335	25.357590	161.116674
14499		17.995824	12.577698	3.978351	16.756501	4.451438	-4.892997	-82.394282	22.712042	158.148897
14500		-24.845599	1.245668	-8.641608	-1.364060	-0.463628	-2.570229	-83.140208	21.217832	158.231913
14501		-22.821743	26.808046	15.590783	3.316179	0.567460	-4.851445	-81.486945	18.505789	157.492684
14502		7.533195	-33.891411	-12.925064	-5.164892	-2.174196	-4.323683	-84.154777	15.897177	158.461378
14503		2.324775	-9.600470	11.504394	3.065147	-0.096530	-4.432631	-82.457514	13.367488	158.210830
14504		1.070261	-20.878910	-4.443658	-0.809060	-1.073190	-3.129415	-82.832497	11.513311	158.599138
14505		1.088717	-16.027569	7.177115	0.296030	-0.897689	-2.640773	-82.598720	9.946326	158.921757
14506		0.436746	-13.585231	2.988000	-0.055538	-0.652259	-1.986209	-82.589007	8.771583	159.147489
14507		0.493212	-12.594050	0.092291	-0.185227	-0.490498	-1.484366	-82.666418	7.891149	159.317509
14508		-1.018906	-8.732545	2.741350	-0.302963	-0.344131	-1.351900	-82.822489	7.099358	159.414897
14509		-0.849937	-9.906819	1.229654	-0.552781	-0.233565	-1.306300	-83.130425	6.339225	159.455125
14510		1.970060	-10.346883	1.741280	-0.820454	-0.150200	-1.080403	-83.594222	5.715811	159.467913
14511		-1.876363	-10.469166	0.970731	-0.601850	0.087537	-0.880475	-83.945117	5.218808	159.361487
14512		0.550671	-13.098000	-1.002233	-0.755259	0.021348	-0.446005	-84.376389	4.967019	159.321948
14513		-0.875077	-10.033723	1.138273	-0.074058	0.062567	-0.288184	-84.419280	4.805224	159.268634
14514		-0.338725	-9.841360	0.884769	-0.272128	0.002014	-0.214937	-84.571600	4.683764	159.254392
14515		-0.772460	-9.772169	0.872968	-0.263854	0.004090	-0.172003	-84.719737	4.584891	159.241500
14516		-0.486345	-9.774937	0.811178	-0.198714	0.007608	-0.133471	-84.829830	4.510075	159.228924
14517		-0.595504	-9.641206	1.011085	-0.226364	0.011862	-0.093791	-84.956454	4.456178	159.216015
14518		-0.711119	-9.782571	0.889995	-0.242488	0.032381	-0.073667	-85.092446	4.416617	159.192571
14519		-0.793485	-10.029549	0.589801	-0.232428	0.028558	-0.068272	-85.223143	4.378038	159.171592
14520		-0.614862	-10.197616	0.281753	-0.136498	0.017122	-0.053752	-85.297654	4.349009	159.158002
14521		-0.671873	-9.994701	0.501082	0.017685	0.024184	-0.031736	-85.284700	4.331038	159.141343
14522		-0.741144	-9.654072	0.893008	0.032138	0.016178	-0.021442	-85.262506	4.320371	159.129827
14523		-0.798819	-9.771019	0.825985	0.018095	0.015375	-0.021928	-85.248896	4.307594	159.118667
14524		-0.749309	-9.693725	0.871541	0.023021	0.016518	-0.023438	-85.231939	4.295798	159.106854
14525		-0.705272	-9.697850	0.767252	0.023712	0.008922	-0.021310	-85.214828	4.283072	159.099411
14526		-0.721025	-9.566354	0.992569	0.023136	0.002829	-0.016241	-85.197196	4.274718	159.095772
14527		-0.731670	-9.558373	1.032928	-0.010647	-0.004646	-0.011331	-85.199155	4.267043	159.096573
14528		-0.696593	-9.602832	0.988943	-0.055723	-0.003403	-0.008944	-85.226384	4.262540	159.096854
14529		-0.699717	-9.896004	0.740835	-0.068166	-0.006875	-0.001330	-85.261168	4.260469	159.099413
14530		-0.801339	-9.825830	0.721257	-0.031922	-0.011027	0.004684	-85.274385	4.263365	159.104711
14531		-0.696539	-9.842464	0.649729	0.003475	-0.011470	-0.012081	-85.267964	4.254939	159.109393
14532		-0.696150	-9.733359	0.853267	0.008836	-0.017040	-0.003141	-85.257628	4.253067	159.117761
14533		-0.718956	-9.731181	0.861598	0.003840	-0.010547	-0.000397	-85.250996	4.251356	159.122468
14534		-0.731938	-9.804751	0.843092	0.008798	-0.007312	-0.001265	-85.241086	4.250994	159.125354
14535		-0.794944	-9.826144	0.813961	0.002679	-0.006463	-0.005831	-85.235312	4.246372	159.127462
14536		-0.735949	-9.743007	0.890229	0.004851	-0.003029	-0.002795	-85.227855	4.245328	159.127821
14537		-0.740703	-9.728997	0.870903	-0.005609	-0.005369	-0.003132	-85.226867	4.242300	159.129432
14538		-0.787375	-9.806418	0.826615	-0.007025	-0.004084	-0.010543	-85.226191	4.236766	159.130025
14539		-0.734075	-9.790927	0.823863	-0.000149	-0.000213	-0.010351	-85.222319	4.229862	159.128338
14540		-0.703858	-9.773256	0.829245	0.003401	-0.003831	-0.010847	-85.215686	4.224155	159.128769
14541		-0.743066	-9.749175	0.857700	0.003870	-0.000320	-0.007538	-85.209496	4.218852	159.127277
14542		-0.742258	-9.749231	0.857774	-0.001962	0.005415	-0.009486	-85.206321	4.214348	159.122479
14543		-0.758101	-9.727391	0.877615	-0.010034	0.003539	-0.015754	-85.208289	4.204539	159.118383
14544		-0.745424	-9.721845	0.907969	-0.026107	0.007640	-0.016706	-85.219063	4.196007	159.111965
14545		-0.772746	-9.740016	0.899761	-0.034139	0.007850	-0.022333	-85.235044	4.182646	159.105090
14546		-0.740350	-9.736526	0.829182	-0.044086	0.007423	-0.029022	-85.256141	4.167058	159.098215
14547		-0.691771	-9.741270	0.809436	-0.047620	0.002893	-0.020746	-85.279630	4.154364	159.094263
14548		-0.691020	-9.775679	0.811291	-0.045163	0.011211	-0.015085	-85.301454	4.146891	159.085891
14549		-0.717949	-9.759989	0.795184	-0.044428	0.005700	-0.012324	-85.323200	4.139134	159.080737
14550		-0.659849	-9.806235	0.742938	-0.029046	0.001058	-0.005716	-85.335342	4.136516	159.078621
14551		-0.728961	-9.800206	0.763624	-0.015335	-0.001421	0.001809	-85.340076	4.136496	159.078207
14552		-0.729009	-9.800284	0.762576	-0.006718	-0.007343	-0.000155	-85.339073	4.136644	159.081161
14553		-0.775058	-9.796134	0.778145	0.012199	-0.007447	-0.001820	-85.327795	4.134271	159.084028
14554		-0.738497	-9.677093	0.856191	0.001020	-0.004290	-0.004922	-85.322511	4.131828	159.085010
14555		-0.704702	-9.707375	0.886962	-0.005482	-0.010924	-0.003741	-85.321227	4.128195	159.089777
14556		-0.721520	-9.733077	0.840907	-0.015981	-0.003551	-0.002193	-85.325698	4.127332	159.090463
14557		-0.670203	-9.751464	0.842943	-0.025416	-0.006531	0.002848	-85.335993	4.127668	159.093024
14558		-0.665730	-9.813168	0.794397	-0.020786	-0.006597	0.009021	-85.343052	4.133051	159.095978
14559		-0.699876	-9.782962	0.762170	-0.006937	-0.004391	0.008817	-85.342828	4.136895	159.097592
14560		-0.689933	-9.824578	0.729067	0.013206	-0.004413	0.013867	-85.330493	4.145127	159.099521
14561		-0.697156	-9.796735	0.783365	0.018489	-0.006014	0.013737	-85.315617	4.151704	159.102296
14562		-0.738792	-9.772459	0.813855	0.028005	-0.007013	0.017755	-85.294693	4.162014	159.105899
14563		-0.769126	-9.742386	0.876914	0.026777	-0.007097	0.011036	-85.275031	4.166996	159.109171
14564		-0.710799	-9.672724	0.882986	0.012528	-0.008629	0.009218	-85.262935	4.172345	159.113301
14565		-0.712403	-9.706555	0.889785	-0.005521	-0.009344	0.005923	-85.261702	4.174300	159.117619
14566		-0.731179	-9.766068	0.850485	-0.008853	-0.005020	0.007760	-85.262002	4.178972	159.119614
14567		-0.737014	-9.751991	0.830478	-0.006970	-0.006473	0.008176	-85.261711	4.182349	159.122395
14568		-0.726723	-9.793761	0.796238	-0.010769	-0.005655	0.006698	-85.263086	4.186373	159.124703
14569		-0.726389	-9.759837	0.789362	-0.000170	-0.006773	0.007081	-85.258890	4.189111	159.127603
14570		-0.750969	-9.791598	0.803672	0.004713	-0.007707	0.004925	-85.251323	4.192011	159.131002
14571		-0.739141	-9.751869	0.830023	0.006013	-0.007114	0.002627	-85.243584	4.192189	159.133886
14572		-0.710855	-9.720498	0.907771	0.004097	-0.007748	0.001566	-85.236385	4.193158	159.137148
14573		-0.705102	-9.748173	0.854928	-0.008202	-0.006555	0.001459	-85.236819	4.192695	159.139657
14574		-0.711383	-9.768074	0.841028	-0.013233	-0.002155	0.003571	-85.239770	4.195059	159.139813
14575		-0.699769	-9.775972	0.800187	-0.008133	-0.002381	0.002749	-85.240334	4.195531	159.139994
14576		-0.723062	-9.773913	0.807198	-0.005065	0.002312	0.001467	-85.238804	4.196890	159.137490
14577		-0.740171	-9.704579	0.892352	-0.014862	0.002094	0.005135	-85.243403	4.198937	159.135223
14578		-0.741709	-9.786109	0.831192	-0.024377	0.003096	0.001121	-85.252972	4.200123	159.132254
14579		-0.672661	-9.792550	0.806169	-0.017143	0.004214	0.002695	-85.258975	4.200877	159.128656
14580		-0.719192	-9.788477	0.819798	-0.016777	0.001458	0.004074	-85.264115	4.203655	159.126765
14581		-0.718701	-9.754655	0.811802	-0.016559	0.002167	0.005409	-85.269689	4.205860	159.124468
14582		-0.742459	-9.752629	0.818042	-0.012394	-0.001409	0.008263	-85.272187	4.210880	159.124416
14583		-0.727145	-9.761117	0.867850	-0.020637	0.001760	0.011613	-85.280059	4.216609	159.122645
14584		-0.750957	-9.819986	0.735516	-0.027284	-0.001406	0.012750	-85.291073	4.224180	159.122802
14585		-0.694894	-9.818504	0.751075	0.000771	0.000227	0.013710	-85.286607	4.231034	159.122006
14586		-0.753386	-9.772456	0.800409	0.009849	-0.002197	0.015053	-85.276319	4.239869	159.122724
14587		-0.714095	-9.748895	0.839089	0.015411	-0.002575	0.007240	-85.263370	4.242896	159.123229
14588		-0.725805	-9.707033	0.873590	0.005252	-0.000036	0.009530	-85.255830	4.248666	159.122450
14589		-0.761880	-9.744453	0.855588	-0.002015	-0.003238	0.007308	-85.252837	4.251701	159.123338
14590		-0.721262	-9.687153	0.886088	-0.010510	-0.002860	0.008677	-85.254207	4.256840	159.124136
14591		-0.723095	-9.721193	0.890496	-0.029634	-0.003446	0.009020	-85.267023	4.260843	159.125224
14592		-0.747415	-9.766660	0.829305	-0.036244	-0.004524	0.010804	-85.283051	4.267104	159.127075
14593		-0.611446	-9.860781	0.720728	-0.030308	-0.004007	0.014676	-85.296210	4.274311	159.128749
14594		-0.837851	-9.880690	0.668876	-0.044353	0.008555	0.026410	-85.317399	4.290077	159.123840
14595		-0.820784	-9.726415	0.840779	0.080182	0.010702	0.011027	-85.267893	4.295891	159.116919
14596		-0.661506	-9.774710	0.798232	0.017301	-0.012200	0.015415	-85.252920	4.304402	159.123384
14597		-0.702915	-9.703135	0.892765	-0.006224	-0.008340	0.021233	-85.252068	4.315146	159.127856
14598		-0.750090	-9.664790	0.901719	0.004262	-0.003918	0.022218	-85.244894	4.327911	159.129903
14599		-0.760846	-9.799625	0.835707	-0.005965	-0.005546	0.023215	-85.244005	4.339919	159.132871
14600		-0.751107	-9.807264	0.795674	0.000793	-0.007939	0.021472	-85.238642	4.352057	159.137188
14601		-0.757992	-9.745597	0.842079	-0.002308	-0.002906	0.024650	-85.235766	4.365009	159.138714
14602		-0.812616	-9.760898	0.844314	-0.002201	-0.008458	0.024043	-85.232088	4.378579	159.143452
14603		-0.735074	-9.808911	0.787685	-0.001397	-0.009802	0.028090	-85.228375	4.393166	159.149093
14604		-0.749045	-9.814276	0.756254	0.014694	-0.011844	0.029667	-85.214849	4.409775	159.156042
14605		-0.660443	-9.822518	0.728137	0.035739	-0.017255	0.047804	-85.189452	4.435258	159.166907
14606		-0.623783	-9.717231	0.829736	0.061974	-0.018735	0.066408	-85.148402	4.472484	159.179593
14607		-0.704402	-9.648066	0.904818	0.052339	-0.020839	0.079783	-85.113195	4.516036	159.194103
14608		-0.851261	-9.667591	0.961646	0.034263	-0.023589	0.075857	-85.087741	4.558375	159.210078
14609		-0.813518	-9.827221	0.680936	0.031554	-0.022881	0.070749	-85.064360	4.596656	159.225354
14610		-0.912779	-9.790017	0.860713	0.067429	-0.027543	0.055996	-85.019783	4.627442	159.242651
14611		-0.882171	-9.751661	0.885532	0.066554	-0.030384	0.050658	-84.976062	4.653860	159.261272
14612		-0.795999	-9.780133	0.939298	0.054894	-0.030681	0.044262	-84.938549	4.677770	159.279818
14613		-0.833397	-9.735158	0.984622	0.027658	-0.023294	0.040257	-84.917471	4.698588	159.293884
14614		-0.724044	-9.841585	0.816955	0.006428	-0.021464	0.048538	-84.908116	4.725382	159.307390
14615		-0.984851	-9.542565	1.041676	0.019428	-0.021668	0.033954	-84.891844	4.742679	159.320213
14616		-0.945531	-9.880138	1.031107	-0.040245	-0.032383	-0.015597	-84.908973	4.732308	159.336701
14617		-0.874809	-9.036783	1.132170	-0.033920	-0.034648	-0.010356	-84.922842	4.723662	159.354695
14618		-0.516640	-10.448968	0.160055	0.022395	-0.034062	0.010163	-84.903865	4.727917	159.373462
14619		-0.781148	-10.060833	0.578095	0.054954	-0.058852	0.057244	-84.865376	4.756602	159.408777
14620		-0.785266	-9.520685	1.197286	0.136692	-0.056099	0.073515	-84.779657	4.795797	159.443449
14621		-0.732964	-9.880277	0.806302	0.094245	-0.054484	0.089486	-84.718671	4.843023	159.478031
14622		-0.782981	-9.901876	0.779975	0.113298	-0.061303	0.105191	-84.645878	4.899906	159.517472
14623		-0.773249	-9.792486	0.897208	0.157317	-0.058168	0.124861	-84.548329	4.967021	159.556210
14624		-0.739529	-9.910527	0.937053	0.161024	-0.061237	0.152035	-84.447875	5.050475	159.598383
14625		-0.560240	-10.176601	0.708127	0.162227	-0.060224	0.230108	-84.346736	5.177354	159.644455
14626		-0.863459	-9.901560	0.965837	0.250189	-0.046822	0.286549	-84.195055	5.338103	159.686444
14627		-0.913635	-9.860121	0.990604	0.222907	-0.047784	0.306400	-84.059091	5.508976	159.730510
14628		-0.792321	-9.687420	1.093560	0.210636	-0.054945	0.330157	-83.929038	5.693866	159.780578
14629		-1.009703	-9.818843	1.003716	0.233942	-0.049197	0.340019	-83.786098	5.883596	159.828359
14630		-0.883669	-9.518182	1.379691	0.234613	-0.016652	0.345299	-83.644066	6.079245	159.858389
14631		-0.713272	-9.558926	1.405048	0.122782	0.007430	0.375866	-83.567639	6.292789	159.876913
14632		-0.822846	-9.783894	1.147489	0.071691	0.038779	0.420324	-83.521620	6.534588	159.880662
14633		-1.010635	-9.953915	1.035614	0.090669	0.051726	0.460535	-83.465692	6.799170	159.879771
14634		-1.070526	-9.938445	1.084604	0.107873	0.061455	0.508097	-83.399731	7.092365	159.876793
14635		-0.966013	-9.830496	1.129415	0.106910	0.077813	0.552286	-83.335548	7.410892	159.867641
14636		-1.290819	-9.711961	1.217935	0.116563	0.087994	0.578258	-83.265947	7.745751	159.854836
14637		-1.208285	-9.755542	1.128167	0.083898	0.096174	0.594686	-83.216015	8.089660	159.838720
14638		-1.379879	-9.819574	1.078205	0.103433	0.105838	0.632966	-83.154932	8.456861	159.820077
14639		-1.525891	-9.818400	1.006423	0.100137	0.086688	0.670342	-83.094188	8.843187	159.815345
14640		-1.832553	-9.613433	1.202891	0.157311	0.071658	0.643486	-82.999163	9.214032	159.817987
14641		-1.842454	-9.308821	1.350002	0.131408	0.060050	0.582984	-82.918889	9.548825	159.823511
14642		-2.426396	-8.805773	1.265663	0.111400	0.024985	0.445720	-82.847815	9.803944	159.839914
14643		-2.576527	-8.681770	1.316192	0.065503	-0.030796	0.249311	-82.800285	9.942538	159.874425
14644		-2.304261	-8.649819	1.526974	0.003005	-0.075667	0.059418	-82.785970	9.970944	159.921155
14645		-1.518738	-9.538406	1.445621	-0.086069	-0.063015	-0.011045	-82.825284	9.959216	159.955349
14646		-1.298064	-9.964232	1.187032	-0.101099	-0.033700	0.039934	-82.875002	9.979616	159.976427
14647		-1.271430	-10.508750	0.999403	-0.073518	-0.011428	0.157757	-82.910156	10.067570	159.993012
14648		-0.873226	-11.254161	0.780188	0.009626	0.014465	0.376141	-82.897035	10.282468	160.010434
14649		-0.701749	-11.809557	0.743431	0.154034	0.065645	0.683939	-82.802828	10.675042	160.020711
14650		-0.974040	-11.865494	0.849286	0.360090	0.123352	0.981743	-82.592061	11.241776	160.020838
14651		-1.134539	-12.063733	0.961819	0.442167	0.142646	1.221651	-82.332696	11.945484	160.030472
14652		-1.350047	-12.154280	1.344855	0.631371	0.170314	1.429731	-81.963557	12.769939	160.044748
14653		-0.951149	-12.195251	1.731030	0.614103	0.208708	1.655975	-81.603874	13.725188	160.061055
14654		-0.825042	-11.976533	2.120436	0.542376	0.279002	1.917259	-81.287786	14.834661	160.065189
14655		-0.702967	-12.883797	1.862964	0.539515	0.371496	2.204755	-80.979273	16.114715	160.047571
14656		-1.217454	-12.707366	1.725311	0.608412	0.438625	2.477740	-80.633184	17.555326	160.023978
14657		-1.548861	-12.530997	1.328452	0.675643	0.448877	2.746113	-80.239837	19.148721	160.030727
14658		-2.028716	-12.188084	1.018687	0.782140	0.436101	2.972512	-79.769898	20.868068	160.081991
14659		-2.422821	-11.134310	0.980027	0.833210	0.395129	3.158558	-79.246212	22.687903	160.195633
14660		-2.807403	-10.141874	1.199676	0.901833	0.354010	3.255598	-78.656719	24.555955	160.366947
14661		-3.040509	-9.024680	1.443830	0.866888	0.329774	3.302232	-78.062748	26.446381	160.583285
14662		-3.019075	-8.103812	1.808396	0.781579	0.324031	3.306994	-77.497869	28.335794	160.828919
14663		-3.194841	-7.456474	2.064835	0.728213	0.349039	3.290644	-76.952923	30.217953	161.081609
14664		-3.578552	-6.639065	2.322986	0.642692	0.387350	3.257312	-76.452615	32.083427	161.329042
14665		-4.033360	-6.038824	2.302618	0.541795	0.425339	3.213334	-76.008109	33.928859	161.567607
14666		-4.513288	-5.802518	2.298945	0.440582	0.439742	3.139074	-75.615768	35.732458	161.805284
14667		-4.974724	-5.618889	2.049932	0.380782	0.461808	3.044039	-75.259032	37.486316	162.030733
14668		-5.525318	-5.491138	1.876866	0.324809	0.458425	2.945008	-74.927303	39.182683	162.258719
14669		-5.987520	-5.417071	1.730266	0.273012	0.430653	2.844598	-74.608463	40.819361	162.504994
14670		-6.298657	-5.501690	1.578288	0.240982	0.381827	2.748521	-74.279508	42.393500	162.786079
14671		-6.595451	-5.708498	1.449360	0.218782	0.329785	2.670894	-73.928846	43.916337	163.109483
14672		-6.779930	-5.867413	1.459591	0.232554	0.276069	2.601745	-73.530162	45.390160	163.481158
14673		-6.853152	-5.978752	1.445901	0.261547	0.229449	2.541559	-73.073739	46.822050	163.900867
14674		-6.954696	-6.015369	1.441508	0.299086	0.198115	2.498018	-72.556372	48.221566	164.364327
14675		-7.063157	-6.031600	1.479113	0.328128	0.157762	2.485454	-71.967128	49.604810	164.891209
14676		-7.121913	-6.063363	1.502746	0.362044	0.120097	2.479267	-71.297042	50.973305	165.487227
14677		-7.160581	-6.074571	1.521733	0.413713	0.095643	2.484502	-70.534889	52.335890	166.151501
14678		-7.222030	-6.019084	1.458780	0.474686	0.070527	2.498537	-69.664395	53.694393	166.895638
14679		-7.398598	-5.519981	1.466329	0.513090	0.030732	2.512350	-68.677222	55.045496	167.743385
14680		-7.680453	-4.909241	1.279533	0.504691	-0.045700	2.496023	-67.569628	56.361567	168.729140
14681		-8.143326	-3.679053	1.120703	0.425808	-0.160753	2.421613	-66.357997	57.601898	169.878220
14682		-8.410771	-3.482557	1.059563	0.270961	-0.373285	2.239578	-65.038200	58.682265	171.244587
14683		-6.870717	-6.205553	1.678394	0.184959	-0.678978	1.800800	-63.599751	59.443152	172.793253
14684		12.418910	-5.876202	0.041035	0.072159	-1.022113	0.587493	-62.414431	59.476190	174.116983
14685		0.827161	-10.885012	0.071335	-0.271515	-0.263892	-0.592011	-62.606372	59.105097	174.069929
14686		1.452922	-10.566993	0.056467	0.378703	-0.454214	-1.850965	-62.807155	58.040828	173.576128
14687		4.509536	-4.057516	0.000696	-0.201420	-0.334999	-2.410186	-63.625585	56.721101	172.736673
14688		2.241307	-4.148203	0.302996	-0.455447	-0.409379	-2.777503	-64.603182	55.183404	171.867783
14689		2.039972	-3.891334	0.768033	-0.746799	-0.444403	-2.788487	-65.645433	53.626340	171.107333
14690		1.846614	-5.167295	0.907910	-0.885384	-0.448311	-2.769756	-66.689288	52.066678	170.430102
14691		1.788271	-6.670771	1.199157	-0.773014	-0.444601	-2.825962	-67.621211	50.475083	169.798113
14692		1.670785	-7.403706	1.376319	-0.548587	-0.426270	-2.933087	-68.409568	48.820222	169.172002
14693		1.511817	-7.586431	1.440033	-0.344598	-0.406091	-3.029106	-69.062413	47.117855	168.553491
14694		1.303102	-7.530537	1.454337	-0.234020	-0.392403	-3.113229	-69.633631	45.363371	167.944090
14695		0.951764	-7.858785	1.380570	-0.227418	-0.384225	-3.202398	-70.177189	43.563966	167.348372
14696		0.556757	-8.694936	1.307920	-0.262904	-0.372636	-3.299766	-70.724616	41.703925	166.758250
14697		0.092079	-9.316976	1.358901	-0.321851	-0.339099	-3.415819	-71.296684	39.789440	166.158190
14698		-0.353914	-9.712920	1.367014	-0.438609	-0.278377	-3.518439	-71.936915	37.818261	165.533155
14699		-0.923557	-9.981185	1.541780	-0.588724	-0.185697	-3.550627	-72.658741	35.847188	164.885097
14700		-1.488170	-10.478286	1.689038	-0.766725	-0.054087	-3.503710	-73.484013	33.909054	164.205521
14701		-2.117078	-11.765648	1.876820	-0.901061	0.088837	-3.412285	-74.380075	32.043694	163.500441
14702		-2.696080	-13.132711	2.099819	-0.906225	0.235060	-3.332880	-75.278625	30.226588	162.761827
14703		-3.384809	-13.902708	2.012949	-0.792801	0.375110	-3.226469	-76.103806	28.487645	161.997045
14704		-4.089724	-13.551634	1.808995	-0.677739	0.535205	-3.024992	-76.859630	26.864248	161.200201
14705		-4.857926	-12.828080	1.589038	-0.720676	0.743662	-2.705026	-77.641278	25.445810	160.354578
14706		-5.721120	-12.773939	1.183704	-0.888043	1.014406	-2.325927	-78.539188	24.251595	159.422294
14707		-6.637272	-13.481991	0.890043	-1.110915	1.348407	-1.980818	-79.601096	23.282881	158.356778
14708		-7.472491	-14.632357	0.556814	-1.239304	1.726684	-1.703350	-80.790852	22.479460	157.115974
14709		-8.450105	-15.603519	0.275414	-1.228389	2.124579	-1.531133	-82.034136	21.792857	155.673660
14710		-9.657447	-15.804718	0.248978	-1.114827	2.452137	-1.436386	-83.260220	21.146423	154.061047
14711		-10.564311	-15.923608	0.159750	-0.998856	2.659116	-1.381545	-84.437757	20.521662	152.348114
14712		-11.623987	-16.073969	0.126221	-0.847778	2.730182	-1.351830	-85.519276	19.877462	150.613563
14713		-12.262523	-16.096853	0.095064	-0.647908	2.669620	-1.357276	-86.447883	19.207794	148.935299
14714		-12.526902	-15.789698	0.079535	-0.387452	2.489749	-1.408817	-87.168303	18.472522	147.381152
14715		-12.384434	-14.960773	-0.034151	-0.099465	2.229312	-1.502412	-87.650692	17.669239	145.996694
14716		-12.014103	-13.621450	0.016270	0.121611	1.924682	-1.621219	-87.930465	16.775787	144.803963
14717		-11.698545	-12.161024	0.103835	0.219610	1.578491	-1.734706	-88.075266	15.812924	143.824889
14718		-11.544794	-10.649215	0.171707	0.201431	1.199963	-1.830522	-88.153787	14.780649	143.075248
14719		-11.268020	-8.852136	0.362880	0.009952	0.763051	-1.888469	-88.263861	13.711772	142.588217
14720		-10.740066	-7.830868	0.500714	-0.335122	0.307382	-1.881255	-88.500620	12.633875	142.374751
14721		-10.129229	-7.490418	0.551674	-0.695557	-0.137447	-1.826458	-88.883574	11.584806	142.429566
14722		-9.506680	-7.741333	0.552149	-0.985073	-0.546836	-1.733135	-89.385879	10.582953	142.732164
14723		-9.002022	-8.354952	0.522919	-1.143675	-0.913980	-1.624904	-89.944857	9.647824	143.257314
14724		-8.519618	-8.775674	0.380599	-1.161945	-1.228831	-1.501788	-90.492086	8.786881	143.972608
14725		-8.091397	-8.860075	0.314357	-1.100246	-1.499244	-1.371418	-90.990273	8.011176	144.849892
14726		-7.551760	-8.486788	0.220296	-1.018941	-1.718712	-1.239403	-91.435760	7.319820	145.857212
14727		-6.972258	-7.907049	0.102899	-0.968799	-1.887790	-1.096229	-91.851553	6.721869	146.963501
14728		-6.405837	-7.373598	-0.008050	-0.960080	-2.005977	-0.935414	-92.265264	6.226149	148.137633
14729		-5.699838	-7.025228	-0.193517	-0.989466	-2.077742	-0.749227	-92.700500	5.847693	149.351118
14730		-4.982488	-6.927957	-0.326359	-1.032645	-2.090765	-0.541220	-93.166764	5.598628	150.568239
14731		-4.158788	-7.180390	-0.451521	-1.039208	-2.051085	-0.331948	-93.643395	5.477407	151.757033
14732		-3.560429	-7.643058	-0.565633	-0.981586	-1.958273	-0.118306	-94.093986	5.485311	152.885084
14733		-3.001304	-8.161824	-0.668352	-0.870317	-1.821183	0.089217	-94.487957	5.613183	153.925530
14734		-2.531754	-8.721382	-0.757909	-0.712744	-1.646618	0.277334	-94.799255	5.848096	154.856561
14735		-2.125534	-9.293169	-0.830307	-0.511438	-1.440879	0.441950	-95.004023	6.169744	155.660759
14736		-1.830128	-9.651551	-0.838458	-0.262059	-1.217571	0.577532	-95.075864	6.560976	156.329646
14737		-1.707646	-9.827350	-0.820518	-0.007995	-0.999395	0.679806	-95.012758	6.998124	156.868435
14738		-1.729439	-10.149626	-0.763060	0.237185	-0.804213	0.763294	-94.819284	7.473735	157.292337
14739		-1.610383	-10.348908	-0.727946	0.511527	-0.627196	0.842793	-94.478973	7.982972	157.613153
14740		-1.453392	-10.208725	-0.641974	0.774335	-0.474949	0.892921	-93.997392	8.513726	157.848066
14741		-1.424997	-10.199916	-0.641218	0.995794	-0.345060	0.925023	-93.397731	9.054203	158.011950
14742		-1.300703	-10.015501	-0.635829	1.196911	-0.230347	0.935877	-92.690932	9.597103	158.115525
14743		-1.197529	-9.590685	-0.651219	1.315701	-0.119365	0.920912	-91.925023	10.125931	158.162121
14744		-1.229368	-9.159863	-0.805047	1.340151	-0.015428	0.858936	-91.153974	10.618516	158.156504
14745		-1.260971	-8.647374	-0.988835	1.275349	0.078292	0.748863	-90.429115	11.045812	158.103572
14746		-1.295827	-7.999675	-1.031098	1.089788	0.168035	0.609581	-89.820090	11.395220	158.003436
14747		-1.320655	-7.693926	-1.014644	0.799984	0.243241	0.461396	-89.385950	11.659457	157.861817
14748		-1.464399	-7.862160	-0.902155	0.504999	0.308903	0.304361	-89.129237	11.836447	157.682107
14749		-1.579479	-8.288091	-0.583772	0.266596	0.356425	0.179711	-89.015305	11.941637	157.473877
14750		-1.794433	-8.959440	-0.285150	0.146707	0.383242	0.086819	-88.974035	11.995521	157.249052
14751		-2.025165	-9.369008	0.108140	0.142013	0.387850	0.034312	-88.936028	12.018161	157.020993
14752		-2.116080	-9.460909	0.404621	0.214176	0.366660	0.019836	-88.854489	12.033853	156.805160
14753		-2.149859	-9.294487	0.729440	0.319548	0.332530	0.046180	-88.708122	12.063295	156.609687
14754		-2.156305	-8.964903	0.970045	0.410826	0.284858	0.090381	-88.503853	12.119324	156.442811
14755		-2.259150	-8.658710	1.009652	0.450953	0.243116	0.143527	-88.271173	12.204390	156.301458
14756		-2.252676	-8.574721	0.976449	0.444481	0.203212	0.185993	-88.037384	12.314978	156.184595
14757		-2.191144	-8.492829	0.870500	0.417156	0.177882	0.206721	-87.815974	12.435985	156.083414
14758		-1.983032	-8.344801	0.675855	0.377450	0.169656	0.204493	-87.616466	12.557302	155.987430
14759		-1.951296	-8.204414	0.585231	0.324217	0.172863	0.192448	-87.447986	12.670693	155.889596
14760		-2.043370	-8.121820	0.548535	0.237649	0.177859	0.177194	-87.330000	12.777136	155.788693
14761		-2.281295	-8.200767	0.670188	0.151633	0.179248	0.175556	-87.261610	12.881424	155.687040
14762		-2.494396	-8.390059	0.788177	0.105657	0.152931	0.202118	-87.216115	13.001729	155.601682
14763		-2.626451	-8.481990	0.942551	0.080377	0.117086	0.250059	-87.180211	13.147081	155.538775
14764		-2.582290	-8.263889	1.016625	0.083946	0.068649	0.317636	-87.135393	13.331281	155.506420
14765		-2.459672	-8.069643	1.032969	0.062557	0.023906	0.379539	-87.096428	13.548127	155.502292
14766		-2.460270	-8.137422	1.034154	0.033716	-0.012121	0.426612	-87.068483	13.792434	155.520983
14767		-2.514982	-8.132126	0.969878	-0.004389	-0.032793	0.447377	-87.059328	14.046437	155.552525
14768		-2.568195	-8.232949	0.911906	-0.033533	-0.043524	0.422032	-87.065142	14.287243	155.589759
14769		-2.638749	-8.340020	0.786828	-0.031985	-0.038324	0.372750	-87.071283	14.498384	155.622358
14770		-2.722948	-8.215708	0.756089	-0.030333	-0.028811	0.314457	-87.077945	14.678120	155.647676
14771		-2.919813	-8.141431	0.818048	-0.041308	-0.022450	0.254964	-87.092529	14.822334	155.667320
14772		-3.201814	-8.073511	0.943392	-0.023731	-0.025150	0.230449	-87.096443	14.954187	155.687931
14773		-3.602890	-8.002327	1.016696	0.009141	-0.059831	0.259695	-87.076246	15.100019	155.729888
14774		-4.049838	-7.853587	1.156677	0.057198	-0.131701	0.360731	-87.015953	15.303401	155.817833
14775		-4.251256	-7.360596	1.310949	0.102349	-0.233449	0.525040	-86.912265	15.595697	155.971611
14776		-4.277530	-6.773315	1.372102	0.065435	-0.337665	0.715783	-86.809513	15.995712	156.194560
14777		-4.342756	-6.535377	1.396973	-0.062087	-0.437883	0.887264	-86.760097	16.488187	156.483827
14778		-4.498797	-6.900329	1.306128	-0.209595	-0.517340	0.991428	-86.776993	17.040017	156.825249
14779		-4.530861	-7.509575	1.127425	-0.306003	-0.572309	1.014859	-86.836434	17.601301	157.200784
14780		-4.633584	-8.098395	1.088134	-0.310960	-0.607302	1.005631	-86.887820	18.159229	157.597952
14781		-4.716610	-8.385724	1.170318	-0.216845	-0.620318	1.013723	-86.879555	18.718849	158.003980
14782		-5.157889	-8.261800	1.328229	-0.045910	-0.635320	1.077175	-86.764165	19.316762	158.423619
14783		-5.406403	-7.579450	1.506311	0.166293	-0.662959	1.241745	-86.514885	20.003727	158.869206
14784		-5.581732	-6.207027	1.553881	0.272025	-0.692821	1.500379	-86.186375	20.838521	159.349393
14785		-5.716314	-4.846255	1.447201	0.185200	-0.725200	1.795113	-85.886990	21.834870	159.869333
14786		-5.835302	-3.978328	1.040079	-0.026541	-0.735904	2.059977	-85.688084	22.983542	160.417145
14787		-5.756206	-3.279240	0.726497	-0.298246	-0.750396	2.302284	-85.624233	24.265316	160.992689
14788		-5.479365	-2.942123	0.448212	-0.617887	-0.757185	2.589989	-85.719349	25.715313	161.592824
14789		-1.559957	-35.560610	9.598332	-3.291452	-0.944354	1.698565	-87.307160	26.652766	162.259141
14790		13.953165	-83.497147	-43.252965	8.920216	0.955468	-6.345809	-82.589979	23.082565	161.305229
14791		-29.333259	55.273781	43.049795	2.449302	2.261592	-3.157461	-81.809408	21.465086	159.651193
14792		-10.336633	-8.630442	-30.984568	1.757935	-0.317130	-4.491722	-80.872814	18.895817	159.429074
14793		-0.143423	-6.530119	14.897393	-3.481993	-2.398385	-4.781929	-82.561404	15.985754	160.439125
14794		2.776721	-22.235480	0.479252	2.414111	-0.332369	-4.705794	-81.223569	13.292326	160.239841
14795		1.174164	-19.384387	6.190962	-1.921003	-1.225898	-3.446292	-82.231213	11.236350	160.658981
14796		1.956475	-20.166416	-1.119409	1.273404	-0.953718	-2.713839	-81.438008	9.621295	160.983201
14797		-0.502609	-11.798789	3.074978	-0.532740	-1.091942	-2.085364	-81.669298	8.346630	161.430661
14798		-0.868346	-9.404504	3.037727	0.449171	-0.556079	-2.012445	-81.387615	7.160453	161.576008
14799		5.265571	-9.267804	2.837721	-1.057037	-0.391543	-1.450956	-81.977336	6.304511	161.677053
14800		-0.824245	-10.832936	3.861265	-1.119685	0.074863	-1.110759	-82.627503	5.680316	161.547349
14801		0.921636	-16.629726	-5.030648	-0.648070	-0.009409	-0.258932	-82.996167	5.531522	161.532713
14802		-1.045715	-7.350905	4.228101	0.136592	0.093019	-0.183917	-82.919748	5.434001	161.465319
14803		-0.765804	-10.275227	0.684551	-0.521216	0.038931	-0.103284	-83.217199	5.377014	161.434551
14804		-0.967726	-9.850146	1.039391	-0.412189	0.056094	-0.104441	-83.452354	5.321821	161.394253
14805		-1.079511	-9.937285	0.915015	-0.343338	0.062089	-0.120783	-83.649106	5.256106	161.349602
14806		-1.030352	-10.043143	0.734912	-0.300700	0.063220	-0.144655	-83.820881	5.178177	161.303107
14807		-1.060750	-9.999113	0.849586	-0.227200	0.062882	-0.163763	-83.951210	5.087766	161.255767
14808		-0.767576	-9.624061	1.027064	-0.185748	0.050394	-0.153751	-84.056399	5.003676	161.216444
14809		-0.392371	-9.901627	0.667810	-0.160556	0.030026	-0.097504	-84.146415	4.948916	161.192170
14810		-0.692999	-9.661841	1.021316	-0.034751	0.040611	-0.040264	-84.163971	4.928789	161.165319
14811		-0.795906	-9.459199	1.229135	-0.086981	0.025530	-0.024803	-84.211216	4.915172	161.147935
14812		-0.809159	-9.670795	1.034326	-0.143723	0.021025	-0.012199	-84.290081	4.909853	161.133945
14813		-0.776583	-9.853174	0.814332	-0.109702	0.019476	-0.001046	-84.349927	4.909398	161.121410
14814		-0.900467	-9.737787	0.928547	-0.077928	0.013676	-0.001217	-84.390691	4.909881	161.112258
14815		-0.863826	-9.871913	0.779841	-0.053559	0.009478	-0.011175	-84.417927	4.903073	161.104878
14816		-0.942399	-9.795314	0.888907	-0.019891	0.011132	-0.017383	-84.425410	4.894180	161.096277
14817		-0.847412	-9.697095	0.965487	-0.006816	0.001327	-0.023783	-84.425524	4.879726	161.092860
14818		-0.851948	-9.717015	0.952207	-0.005475	-0.003655	-0.026722	-84.424076	4.864681	161.092200
14819		-0.835474	-9.678010	0.976874	-0.010092	-0.004067	-0.023784	-84.425804	4.849926	161.091870
14820		-0.857019	-9.709793	0.990205	-0.023129	-0.004867	-0.027630	-84.434419	4.834286	161.091855
14821		-0.817582	-9.673518	1.004384	-0.031877	-0.007216	-0.028068	-84.448497	4.816913	161.093093
14822		-0.813218	-9.735512	0.954249	-0.039670	-0.008841	-0.023830	-84.466377	4.803211	161.095570
14823		-0.804149	-9.716410	0.963265	-0.038105	-0.012283	-0.017112	-84.483730	4.791807	161.100325
14824		-0.785127	-9.800348	0.892033	-0.028044	-0.014077	-0.011288	-84.494644	4.784957	161.106499
14825		-0.780169	-9.753586	0.955302	-0.025494	-0.017628	-0.008225	-84.504477	4.778331	161.114808
14826		-0.833185	-9.802465	0.963930	-0.019886	-0.004636	-0.003910	-84.511141	4.776193	161.115986
14827		-0.882491	-9.749528	0.953846	-0.025002	-0.006463	-0.003634	-84.521203	4.772799	161.118159
14828		-0.818687	-9.668503	1.025149	-0.032353	-0.011703	-0.006365	-84.534687	4.768868	161.123248
14829		-0.835912	-9.755222	0.929787	-0.053027	-0.007866	-0.004011	-84.560741	4.765184	161.126205
14830		-0.880831	-9.750854	0.941756	-0.056803	-0.004915	-0.004751	-84.588547	4.762536	161.127501
14831		-0.880048	-9.751451	0.936284	-0.056261	-0.004338	-0.010417	-84.616651	4.755391	161.128095
14832		-0.862972	-9.774187	0.908880	-0.067680	-0.009421	-0.015878	-84.650528	4.746153	161.131375
14833		-0.811775	-9.732932	0.951495	-0.056911	-0.005181	-0.022092	-84.679015	4.732303	161.131836
14834		-0.836251	-9.778030	0.888691	-0.056605	-0.002392	-0.020104	-84.706899	4.721022	161.130878
14835		-0.813267	-9.719972	0.921551	-0.058422	-0.008583	-0.021764	-84.736090	4.707181	161.133317
14836		-0.833774	-9.718271	0.924716	-0.055351	-0.001797	-0.022424	-84.763297	4.694598	161.131908
14837		-0.780463	-9.738147	0.921027	-0.053497	-0.005368	-0.022716	-84.789820	4.680383	161.132470
14838		-0.788252	-9.731327	0.955734	-0.063905	-0.007650	-0.022849	-84.821656	4.667242	161.134403
14839		-0.805992	-9.756773	0.904990	-0.063884	-0.004758	-0.013859	-84.854120	4.658113	161.135090
14840		-0.792743	-9.825920	0.811493	-0.056629	-0.003701	-0.012431	-84.881925	4.651111	161.135313
14841		-0.784737	-9.806859	0.819534	-0.042091	0.000509	-0.008913	-84.902126	4.645074	161.133245
14842		-0.773939	-9.814609	0.776259	-0.016872	-0.002047	-0.005893	-84.907214	4.641876	161.132859
14843		-0.792527	-9.765778	0.850725	0.009043	-0.004594	0.000472	-84.897842	4.640935	161.134194
14844		-0.795836	-9.738710	0.904688	0.004481	-0.002942	0.004072	-84.890624	4.643366	161.134828
14845		-0.790495	-9.753074	0.924072	0.006168	-0.003027	0.003762	-84.882958	4.644382	161.135433
14846		-0.827813	-9.694787	0.948728	0.001642	-0.002175	-0.000971	-84.877423	4.643963	161.135370
14847		-0.808740	-9.743708	0.873821	-0.003915	-0.003321	-0.002710	-84.875548	4.641271	161.135811
14848		-0.818426	-9.736328	0.913750	-0.006054	-0.002545	-0.004409	-84.874417	4.638864	161.135783
14849		-0.778275	-9.726702	0.876761	-0.011157	-0.004383	-0.004138	-84.876649	4.635303	161.136759
14850		-0.807308	-9.744005	0.871823	-0.004705	-0.007509	-0.007375	-84.874530	4.630939	161.139420
14851		-0.771353	-9.741394	0.893966	-0.014733	-0.002824	-0.004192	-84.878882	4.627427	161.139502
14852		-0.828837	-9.741935	0.878500	-0.008236	-0.003860	-0.006768	-84.878956	4.623586	161.140104
14853		-0.792747	-9.739350	0.900504	-0.013747	-0.002916	-0.007846	-84.882754	4.617984	161.140051
14854		-0.833043	-9.727835	0.857147	-0.017118	-0.002749	-0.007225	-84.887972	4.613932	161.139995
14855		-0.785477	-9.754249	0.915917	-0.022832	-0.000416	-0.008976	-84.897096	4.607811	161.138453
14856		-0.819799	-9.757294	0.890470	-0.026743	-0.003737	-0.011688	-84.907804	4.601155	161.138736
14857		-0.827319	-9.716272	0.922183	-0.030813	-0.003578	-0.014411	-84.921376	4.591772	161.138730
14858		-0.771386	-9.762731	0.867134	-0.035378	-0.004817	-0.019805	-84.937014	4.580423	161.139222
14859		-0.763717	-9.777657	0.882603	-0.033645	-0.002811	-0.019453	-84.952265	4.568201	161.138527
14860		-0.766691	-9.729591	0.854632	-0.033883	-0.000630	-0.011792	-84.967207	4.561624	161.137032
14861		-0.680064	-9.819455	0.756961	-0.018340	-0.003365	-0.004908	-84.973604	4.557676	161.137393
14862		-0.807248	-9.679011	0.934872	0.000043	0.002090	0.000663	-84.969194	4.558327	161.134968
14863		-0.763167	-9.717696	0.922433	-0.018990	0.001599	0.001409	-84.976164	4.558233	161.132805
14864		-0.777108	-9.756911	0.894449	-0.024335	-0.000942	0.000341	-84.985579	4.558540	161.132101
14865		-0.788601	-9.728104	0.854757	-0.019031	-0.000492	0.000745	-84.992480	4.557962	161.131102
14866		-0.767194	-9.764540	0.850322	-0.013728	-0.000041	0.001149	-84.995857	4.558765	161.129922
14867		-0.795732	-9.747859	0.838763	-0.015778	0.004914	0.000780	-85.001141	4.558477	161.125829
14868		-0.783034	-9.742990	0.869068	-0.012903	0.003355	-0.002513	-85.004220	4.557350	161.122521
14869		-0.818110	-9.745819	0.844822	-0.011261	0.001183	-0.003489	-85.006762	4.554439	161.120351
14870		-0.756052	-9.699269	0.924180	-0.016067	0.002126	-0.001221	-85.011597	4.553981	161.117810
14871		-0.795549	-9.709466	0.957794	-0.035750	0.003718	-0.003156	-85.028283	4.551385	161.114206
14872		-0.739917	-9.721723	0.895643	-0.052999	0.007317	-0.001394	-85.054507	4.551074	161.108686
14873		-0.812123	-9.761554	0.849896	-0.056807	0.011042	0.006220	-85.083555	4.554189	161.101354
14874		-0.730293	-9.824547	0.802573	-0.051005	0.012883	0.009299	-85.108849	4.560240	161.093173
14875		-0.723572	-9.771301	0.805505	-0.035226	0.010836	0.017519	-85.125480	4.569789	161.086508
14876		-0.745239	-9.795787	0.757368	-0.032141	0.010750	0.023898	-85.139823	4.584049	161.080257
14877		-0.732574	-9.817404	0.734227	0.004045	0.009189	0.038072	-85.133801	4.605249	161.075533
14878		-0.762681	-9.788092	0.797130	0.013085	0.007460	0.047534	-85.122007	4.632828	161.072320
14879		-0.819067	-9.729726	0.922470	0.011046	0.012413	0.047171	-85.112091	4.659381	161.066202
14880		-0.839427	-9.707571	0.944123	-0.008979	0.018893	0.044555	-85.113487	4.685809	161.056300
14881		-0.710491	-9.789392	0.901127	-0.039007	0.011332	0.049466	-85.132196	4.713619	161.050911
14882		-0.850507	-9.780037	0.816982	-0.054659	0.033031	0.062583	-85.160365	4.751007	161.033773
14883		-0.706968	-9.754893	0.788447	0.004859	0.019800	0.069100	-85.154272	4.790432	161.024467
14884		-0.670246	-9.831667	0.651431	0.001779	-0.002099	0.091388	-85.148331	4.842549	161.028851
14885		-0.862158	-9.979024	0.561988	0.064384	-0.005739	0.106292	-85.106751	4.901969	161.036014
14886		-0.973383	-9.771198	0.731111	0.139147	-0.011634	0.095360	-85.021635	4.955859	161.046134
14887		-0.938027	-9.902890	0.692820	0.163867	-0.028283	0.084716	-84.922001	5.001813	161.065288
14888		-0.969251	-9.630221	1.054076	0.202560	-0.026877	0.077582	-84.799856	5.044742	161.083412
14889		-0.932853	-9.510878	1.148431	0.142768	-0.036582	0.056760	-84.711979	5.074239	161.106027
14890		-0.906587	-9.553123	1.116286	0.080851	-0.029957	0.054217	-84.659463	5.103624	161.124804
14891		-0.850512	-9.713713	0.917375	0.051145	-0.033294	0.053492	-84.624238	5.131387	161.145420
14892		-0.934474	-9.636296	1.037454	0.076163	-0.027717	0.048801	-84.574516	5.157769	161.162667
14893		-0.954053	-9.708273	1.023560	0.036941	-0.036252	0.035316	-84.547344	5.174975	161.184027
14894		-0.868185	-9.791755	0.873487	0.037320	-0.031377	0.037965	-84.519716	5.194956	161.202808
14895		-0.834286	-9.815634	0.848675	0.067159	-0.032056	0.054686	-84.475334	5.223417	161.222855
14896		-0.840285	-9.814416	0.856807	0.092505	-0.038732	0.073707	-84.415512	5.263330	161.247868
14897		-0.771979	-9.822355	0.932182	0.115543	-0.042434	0.098679	-84.342598	5.316252	161.276398
14898		-0.829325	-9.692455	1.055402	0.119597	-0.045208	0.116741	-84.266635	5.380248	161.307677
14899		-0.944152	-9.840957	0.982796	0.115007	-0.039249	0.128640	-84.193961	5.450359	161.336261
14900		-0.927733	-9.862289	0.874109	0.128963	-0.043316	0.143492	-84.112489	5.529618	161.368200
14901		-0.928403	-9.977271	0.827425	0.168963	-0.050169	0.164661	-84.007984	5.619524	161.405400
14902		-0.304839	-10.561579	0.528469	0.183699	-0.050498	0.287807	-83.893752	5.780449	161.450497
14903		-0.493862	-10.045377	1.080592	0.353174	-0.028441	0.430382	-83.683020	6.022878	161.492265
14904		-0.123580	-10.370041	1.091175	0.303833	-0.009246	0.571544	-83.500081	6.347622	161.533034
14905		-0.655289	-9.585693	1.333662	0.307812	0.070104	0.720426	-83.318930	6.761336	161.539207
14906		-1.244513	-9.242598	1.592510	0.241966	0.086583	0.719377	-83.176080	7.176305	161.537106
14907		-1.708798	-9.358236	1.246688	0.142676	0.086888	0.678209	-83.090807	7.567119	161.532757
14908		-1.738853	-9.210908	1.411665	0.109356	0.061070	0.570921	-83.023170	7.895920	161.536320
14909		-1.427613	-9.560344	1.214088	0.041527	0.053891	0.516246	-82.994728	8.192334	161.540367
14910		-1.300803	-9.915359	1.090312	0.050307	0.057888	0.520916	-82.961050	8.492497	161.542689
14911		-1.687778	-9.962733	0.396159	0.148921	0.038270	0.563071	-82.869102	8.814424	161.559565
14912		-0.484876	-9.869539	1.930560	0.094452	0.071884	0.628372	-82.810098	9.176662	161.562331
14913		-1.944022	-9.863986	0.874471	0.145538	0.120106	0.714339	-82.725618	9.590428	161.543991
14914		-1.946551	-9.608415	1.140867	0.117005	0.060544	0.692469	-82.651555	9.988202	161.559021
14915		-2.136346	-9.180922	1.425745	0.182435	0.044172	0.599400	-82.539753	10.331108	161.577111
14916		-2.199630	-9.258919	1.249388	0.096044	0.020745	0.507134	-82.475659	10.620615	161.602364
14917		-2.272107	-9.020903	1.463331	0.114104	0.002304	0.389202	-82.401143	10.840928	161.629518
14918		-2.028059	-9.423565	1.324215	0.042336	-0.009545	0.331543	-82.366732	11.028417	161.659392
14919		-1.890044	-9.437823	1.431089	0.031640	-0.006188	0.307676	-82.339489	11.201746	161.685495
14920		-1.673047	-9.767352	1.380310	0.005580	0.007770	0.343652	-82.327678	11.397413	161.706496
14921		-1.515704	-10.207709	1.194511	-0.015375	0.033594	0.442716	-82.329667	11.650454	161.720199
14922		-1.714168	-10.171308	1.214625	0.045458	0.050523	0.565409	-82.296335	11.975246	161.733872
14923		-1.878779	-9.853788	1.310569	0.045318	0.064600	0.660376	-82.263529	12.354242	161.746957
14924		-2.119864	-9.578108	1.385782	0.036469	0.071784	0.711758	-82.235269	12.763699	161.760258
14925		-2.282332	-9.370946	1.360823	0.010713	0.067715	0.723864	-82.221298	13.178966	161.776968
14926		-2.490546	-9.114304	1.592491	-0.021777	0.060257	0.688310	-82.225040	13.574210	161.795370
14927		-2.311334	-9.156433	1.624790	-0.084804	0.063321	0.656718	-82.266249	13.951022	161.809229
14928		-2.383855	-9.022983	1.490262	-0.119487	0.074269	0.638682	-82.328774	14.319199	161.815045
14929		-2.609480	-8.964392	1.352497	-0.163652	0.056903	0.595480	-82.415455	14.660775	161.827043
14930		-2.539621	-9.297654	1.363215	-0.197482	0.039364	0.579747	-82.518784	14.992884	161.847693
14931		-2.434078	-9.299504	1.278375	-0.195044	0.031904	0.600682	-82.619670	15.335601	161.873626
14932		-2.483449	-9.480233	1.294930	-0.229665	0.035404	0.625498	-82.739963	15.693481	161.898877
14933		-2.784180	-9.356115	1.267883	-0.208793	0.027940	0.655739	-82.847004	16.067305	161.929962
14934		-2.651597	-9.602130	1.265126	-0.261592	0.018154	0.686889	-82.981538	16.458957	161.968529
14935		-2.494969	-10.086401	1.472869	-0.299030	0.024422	0.751720	-83.137764	16.887262	162.006953
14936		-2.271748	-10.640558	1.175663	-0.311645	0.048557	0.890794	-83.302066	17.397123	162.039859
14937		-2.437264	-11.002217	0.974990	-0.275393	0.076890	1.050092	-83.448015	17.998906	162.065378
14938		-2.393671	-11.599846	0.902083	-0.216308	0.094074	1.259865	-83.558480	18.721843	162.093764
14939		-2.525598	-11.635729	0.668109	-0.086724	0.117236	1.500459	-83.594330	19.582715	162.123504
14940		-2.577132	-11.589599	0.716979	0.029646	0.129060	1.706414	-83.560202	20.562000	162.160444
14941		-2.793292	-11.222678	1.007754	0.125033	0.161572	1.883631	-83.473464	21.643848	162.191033
14942		-2.940605	-11.359688	0.922665	0.171173	0.186209	2.041992	-83.359964	22.817606	162.220144
14943		-3.127032	-11.437916	0.888607	0.286693	0.203116	2.172679	-83.179046	24.066581	162.251728
14944		-3.385375	-10.984573	0.444558	0.454182	0.218361	2.268386	-82.899676	25.370928	162.287064
14945		-3.849074	-10.343788	1.137263	0.481549	0.199483	2.360261	-82.592288	26.725939	162.349422
14946		-3.619195	-10.160386	1.078757	0.588262	0.217091	2.409634	-82.220898	28.109818	162.414643
14947		-3.981139	-9.018023	1.398984	0.646566	0.243331	2.430767	-81.816672	29.507501	162.476209
14948		-4.189196	-8.384784	1.411446	0.609846	0.266052	2.410182	-81.434411	30.894717	162.532965
14949		-4.370288	-7.962489	1.528368	0.572821	0.292668	2.370229	-81.077933	32.261573	162.579133
14950		-4.590113	-7.821908	1.514240	0.534423	0.319855	2.321642	-80.749379	33.602781	162.612326
14951		-4.847213	-7.552595	1.548983	0.511673	0.344433	2.269368	-80.440949	34.916928	162.632163
14952		-5.072073	-7.518840	1.441197	0.493704	0.359274	2.223932	-80.146102	36.206337	162.645323
14953		-5.334935	-7.383178	1.273667	0.498615	0.360223	2.183148	-79.846856	37.473164	162.661110
14954		-5.234164	-7.276565	1.059730	0.495036	0.359369	2.125952	-79.547896	38.707141	162.678954
14955		-5.048793	-7.410828	1.040230	0.586865	0.388838	2.046786	-79.211021	39.899987	162.673477
14956		-5.596680	-6.961454	1.289695	0.652504	0.425679	2.002013	-78.852036	41.071163	162.643977
14957		-5.770698	-6.682230	1.285851	0.619750	0.429362	1.952223	-78.513420	42.215402	162.613023
14958		-6.406539	-6.492166	1.394989	0.664856	0.452894	1.902222	-78.160656	43.333894	162.565257
14959		-6.377151	-6.330365	1.351293	0.623772	0.445348	1.858727	-77.827519	44.427837	162.524357
14960		-6.604658	-6.384528	1.398437	0.656172	0.455974	1.796641	-77.483643	45.487974	162.472921
14961		-6.736975	-6.422560	1.249359	0.682944	0.460045	1.705664	-77.133674	46.498485	162.409770
14962		-7.016992	-5.735511	1.217296	0.777003	0.467986	1.616118	-76.741231	47.459803	162.331816
14963		-7.389977	-5.114498	1.069725	0.726054	0.436060	1.570085	-76.360137	48.392059	162.279281
14964		-7.491773	-4.802892	1.027011	0.641080	0.374203	1.503435	-75.992787	49.278568	162.273715
14965		-7.565059	-4.679084	1.120807	0.583411	0.324369	1.419921	-75.633495	50.112103	162.301164
14966		-7.735673	-4.686877	1.283595	0.496940	0.273679	1.361880	-75.292660	50.905775	162.368412
14967		-7.842992	-4.709433	1.316903	0.424056	0.230701	1.309629	-74.966574	51.664190	162.469700
14968		-7.793195	-4.849688	1.408711	0.374420	0.201154	1.260644	-74.649504	52.390593	162.594440
14969		-7.731660	-5.174942	1.533771	0.366732	0.189884	1.211312	-74.331076	53.087721	162.725385
14970		-7.797783	-5.176402	1.574957	0.388682	0.191275	1.174986	-74.000450	53.764530	162.854534
14971		-7.975188	-5.059105	1.543727	0.398430	0.198223	1.146068	-73.668274	54.426130	162.977751
14972		-8.044110	-5.101815	1.477943	0.402535	0.203515	1.119977	-73.335616	55.073817	163.097523
14973		-7.880996	-5.289755	1.557563	0.427275	0.205646	1.110927	-72.985073	55.716482	163.221016
14974		-7.752458	-5.339082	1.721146	0.436258	0.224321	1.130976	-72.630761	56.372843	163.341756
14975		-7.553020	-5.853723	1.681606	0.432937	0.240672	1.177044	-72.271429	57.056762	163.469982
14976		-7.448784	-5.923080	1.778815	0.468575	0.269211	1.239777	-71.888479	57.779367	163.600857
14977		-7.430891	-5.795528	1.810478	0.495168	0.299672	1.309902	-71.485839	58.545175	163.736036
14978		-7.207144	-5.771596	1.832815	0.512967	0.339965	1.387402	-71.072607	59.359703	163.870425
14979		-6.784085	-5.545494	1.974742	0.576968	0.407507	1.435549	-70.656327	60.212673	163.964865
14980		-7.207834	-5.187974	2.143109	0.629551	0.508694	1.479971	-70.278153	61.108263	163.980110
14981		-7.276256	-4.863988	2.163112	0.598214	0.581765	1.586265	-69.941952	62.075704	163.968012
14982		-7.948705	-4.848560	1.929761	0.545531	0.667554	1.678096	-69.680129	63.108960	163.906135
14983		-10.252681	-3.147788	1.462178	0.478220	0.608381	1.886346	-69.299613	64.242785	164.020404
14984		-9.703006	-4.011041	0.690249	0.098120	0.456715	2.073849	-68.859006	65.445029	164.440425
14985		-8.413413	-4.125635	1.224793	0.076499	0.401617	2.046795	-68.333745	66.620296	164.962784
14986		-8.563234	-3.747415	1.282235	-0.043365	0.327651	2.074394	-67.713599	67.791681	165.657885
14987		-9.390849	-2.405712	1.221146	-0.252620	0.214985	2.057941	-67.000509	68.926833	166.576330
14988		-9.600259	-3.209642	1.136736	-0.428131	0.024809	1.834594	-66.168130	69.896114	167.723086
14989		-5.398883	-10.280867	3.123207	-0.174038	-0.365972	1.182771	-64.961945	70.425906	169.107021
14990		8.129794	-17.529246	1.936741	1.018856	-0.509423	-0.531369	-64.010488	70.024021	169.493408
14991		-5.615541	-19.237489	2.893424	2.661899	-0.674544	-2.331955	-63.144245	68.655088	168.784815
14992		-1.419718	-4.569541	3.004335	2.885333	-0.904350	-3.397857	-62.533617	66.683050	167.653558
14993		-1.772587	1.649608	0.618565	1.562979	-1.410260	-3.797003	-62.278268	64.380295	166.945743
14994		-2.577864	2.918635	1.010163	0.170511	-1.881514	-3.736035	-62.263219	61.980472	166.848772
14995		-1.750532	0.748447	0.352938	-1.102341	-2.212305	-3.484991	-62.538829	59.623292	167.251913
14996		-0.436370	-3.101918	0.365126	-1.656834	-2.325114	-3.283887	-62.960828	57.337399	167.865880
14997		0.586230	-6.534849	0.596050	-1.552499	-2.214997	-3.129854	-63.365514	55.163909	168.444091
14998		1.330679	-8.423740	0.928219	-1.015498	-1.937014	-3.040412	-63.647413	53.106089	168.809571
14999		1.502464	-8.635965	1.074153	-0.375441	-1.571575	-3.004843	-63.802267	51.163278	168.880743
15000		1.166973	-8.088718	1.082668	0.018490	-1.201243	-2.981524	-63.952199	49.321966	168.667373
15001		0.470068	-7.783754	0.989785	0.149364	-0.876915	-2.984599	-64.197948	47.563886	168.219184
15002		-0.118386	-7.538104	0.994701	0.084482	-0.639956	-3.026656	-64.593164	45.836340	167.605114
15003		-0.557485	-7.755850	1.161679	-0.137380	-0.465250	-3.160847	-65.195685	44.082801	166.858138
15004		-1.084782	-8.703029	1.413509	-0.410645	-0.333712	-3.334934	-66.007218	42.257810	166.011351
15005		-1.641125	-9.464181	1.665042	-0.609884	-0.227258	-3.481871	-66.948977	40.376089	165.108200
15006		-2.370611	-10.028516	2.044148	-0.724824	-0.154961	-3.566183	-67.939956	38.448537	164.196816
15007		-3.269730	-10.251979	2.479782	-0.758629	-0.134518	-3.560872	-68.892446	36.522415	163.339407
15008		-4.182325	-10.198664	2.913129	-0.765005	-0.192785	-3.461202	-69.756342	34.620984	162.602803
15009		-5.187063	-10.216514	3.403472	-0.803374	-0.344092	-3.295654	-70.517853	32.777444	162.052708
15010		-6.123907	-10.949895	3.852210	-0.866838	-0.586058	-3.119752	-71.180299	30.971441	161.733134
15011		-6.795393	-11.794534	4.121038	-0.886408	-0.929049	-3.011586	-71.710730	29.165598	161.680055
15012		-6.994346	-12.174715	3.983235	-0.921251	-1.303355	-2.935227	-72.135676	27.327790	161.891152
15013		-6.865445	-12.149334	3.570422	-1.017326	-1.625238	-2.829843	-72.519043	25.499569	162.330538
15014		-6.531730	-12.191883	2.928898	-1.155158	-1.817904	-2.695849	-72.933575	23.708073	162.917710
15015		-6.237400	-12.178351	2.402180	-1.302060	-1.829424	-2.548684	-73.431336	22.006278	163.546423
15016		-6.061026	-12.255801	2.043606	-1.499752	-1.678674	-2.384904	-74.078825	20.418209	164.124656
15017		-5.819940	-14.450540	1.946339	-1.676575	-1.386164	-2.297665	-74.888200	18.936546	164.561788
15018		-5.256341	-16.462385	1.857701	-1.573492	-0.943023	-2.403225	-75.731113	17.460623	164.742200
15019		-5.161399	-16.692760	1.949890	-1.280014	-0.385885	-2.621181	-76.504626	15.948861	164.588585
15020		-5.634833	-15.110298	2.298412	-1.152963	0.149506	-2.800495	-77.285021	14.398518	164.123107
15021		-6.239448	-13.545945	2.577350	-1.257634	0.561373	-2.888801	-78.163381	12.848774	163.436171
15022		-6.669900	-12.709720	2.853556	-1.474429	0.832111	-2.872845	-79.175845	11.321701	162.625501
15023		-6.945513	-12.593701	3.080250	-1.677155	0.983341	-2.773029	-80.289637	9.857872	161.772014
15024		-7.269484	-12.811464	3.282368	-1.782598	1.043803	-2.603895	-81.442477	8.473420	160.932319
15025		-7.474540	-13.005376	3.340216	-1.741070	1.049875	-2.367468	-82.544284	7.213056	160.138951
15026		-7.674199	-13.027911	3.302795	-1.555308	1.011714	-2.048607	-83.516842	6.112484	159.414716
15027		-7.872389	-12.691946	3.165396	-1.291528	0.936239	-1.689461	-84.315930	5.205837	158.774282
15028		-8.097768	-12.174572	2.964526	-1.028660	0.835132	-1.317971	-84.948914	4.493658	158.223835
15029		-8.195394	-11.411106	2.676967	-0.819250	0.705599	-0.975254	-85.447600	3.969695	157.771660
15030		-8.135556	-10.619252	2.344801	-0.695379	0.562956	-0.688333	-85.866149	3.596586	157.418018
15031		-8.141359	-9.989530	2.063627	-0.666736	0.411442	-0.467094	-86.259536	3.344775	157.162696
15032		-8.129815	-9.535293	1.799157	-0.697748	0.249308	-0.317361	-86.664736	3.168688	157.007310
15033		-7.998442	-9.155496	1.574055	-0.753147	0.090550	-0.228045	-87.095440	3.040023	156.947025
15034		-7.904254	-8.914708	1.446507	-0.795849	-0.077360	-0.211103	-87.545939	2.914592	156.984382
15035		-7.741119	-8.667855	1.383901	-0.810711	-0.237463	-0.234174	-87.999927	2.774192	157.114016
15036		-7.430877	-8.367960	1.374682	-0.816262	-0.383629	-0.283235	-88.453920	2.603500	157.327640
15037		-7.190907	-8.161501	1.321668	-0.794276	-0.523902	-0.312867	-88.892008	2.416274	157.622615
15038		-6.730861	-7.991939	1.248721	-0.734581	-0.635443	-0.304875	-89.294469	2.234963	157.982922
15039		-6.176551	-7.833917	1.171687	-0.650012	-0.722857	-0.234455	-89.647252	2.095731	158.394891
15040		-5.377942	-7.665822	1.086234	-0.516922	-0.759767	-0.102628	-89.923836	2.035113	158.829024
15041		-4.702522	-7.435226	0.982514	-0.382824	-0.761954	0.085741	-90.123444	2.083327	159.264629
15042		-3.901343	-7.459562	0.790885	-0.241840	-0.705935	0.322355	-90.242620	2.269670	159.667574
15043		-3.193538	-7.380338	0.745420	-0.101759	-0.631546	0.574115	-90.281574	2.599170	160.027020
15044		-2.520841	-7.312455	0.519121	0.007075	-0.519803	0.827899	-90.258730	3.075642	160.321750
15045		-2.023060	-7.327117	0.371977	0.056840	-0.394385	1.069471	-90.208947	3.688226	160.544380
15046		-1.544381	-7.571264	0.252562	0.080346	-0.252162	1.274387	-90.148649	4.419772	160.685722
15047		-1.307365	-7.971911	0.131130	0.072412	-0.085736	1.444017	-90.099178	5.246143	160.731998
15048		-1.146701	-8.743883	-0.045954	0.092127	0.089034	1.554931	-90.047415	6.137999	160.678378
15049		-1.032035	-9.557632	-0.248174	0.174233	0.279173	1.605134	-89.962152	7.056569	160.516050
15050		-0.859328	-10.294374	-0.380441	0.330822	0.462998	1.593054	-89.803237	7.970879	160.249147
15051		-0.729726	-10.834819	-0.560149	0.542797	0.661836	1.528281	-89.543650	8.847585	159.869633
15052		-0.436508	-10.778906	-0.721164	0.787912	0.857461	1.430467	-89.166818	9.673596	159.379997
15053		-0.188460	-10.394946	-0.826864	0.983497	1.039796	1.309783	-88.702575	10.433929	158.787965
15054		-0.130598	-9.920697	-0.919286	1.082568	1.202649	1.187368	-88.206206	11.133353	158.104159
15055		-0.177281	-9.589858	-1.015330	1.092381	1.333609	1.061940	-87.726778	11.767490	157.345781
15056		-0.192100	-9.316904	-0.974114	1.042146	1.431881	0.948052	-87.296130	12.346372	156.530421
15057		-0.453130	-9.225880	-0.813623	0.950291	1.495757	0.840841	-86.933870	12.869643	155.676896
15058		-0.815050	-9.238730	-0.594090	0.847908	1.508863	0.750468	-86.640103	13.347788	154.813961
15059		-1.221310	-9.307679	-0.411065	0.753490	1.475462	0.680221	-86.402534	13.787096	153.968924
15060		-1.724858	-9.259152	-0.121957	0.665310	1.393688	0.636807	-86.210938	14.202870	153.170407
15061		-2.139328	-9.119734	0.116382	0.577853	1.265362	0.594797	-86.055882	14.590776	152.445998
15062		-2.522174	-8.825349	0.423248	0.476221	1.094318	0.570493	-85.938956	14.960779	151.821192
15063		-2.913505	-8.573379	0.738426	0.342732	0.887963	0.551156	-85.870019	15.311099	151.317508
15064		-3.274442	-8.227391	1.201278	0.179649	0.654914	0.557884	-85.861400	15.657155	150.951498
15065		-3.624733	-8.130114	1.551040	0.021347	0.411237	0.591015	-85.905213	16.010823	150.731134
15066		-3.821583	-8.003577	1.858368	-0.125094	0.170178	0.662010	-85.994311	16.396369	150.656197
15067		-3.647195	-8.057848	2.099310	-0.256671	-0.052987	0.764790	-86.119650	16.830433	150.717896
15068		-3.697896	-8.461574	2.150791	-0.341493	-0.231671	0.862408	-86.261341	17.315085	150.889281
15069		-3.597394	-8.899114	2.151239	-0.348227	-0.378847	0.921446	-86.377862	17.827004	151.150691
15070		-3.497916	-8.862053	2.062612	-0.304761	-0.485172	0.905537	-86.447925	18.327958	151.475233
15071		-3.333700	-8.425562	1.988582	-0.296563	-0.540379	0.815812	-86.500840	18.774448	151.830159
15072		-3.118741	-8.059210	1.930314	-0.299121	-0.557158	0.666392	-86.551257	19.136791	152.190147
15073		-2.872267	-7.814906	2.000908	-0.266590	-0.543922	0.508093	-86.585505	19.407717	152.536797
15074		-2.795954	-7.750454	2.237021	-0.186392	-0.507725	0.401981	-86.580751	19.620871	152.858128
15075		-2.956706	-7.800961	2.406179	-0.057807	-0.478869	0.375811	-86.507432	19.818250	153.161484
15076		-3.187450	-7.732154	2.456762	0.115774	-0.467387	0.422721	-86.334695	20.043842	153.460633
15077		-3.270538	-7.112779	2.431383	0.255115	-0.476450	0.523721	-86.077484	20.324185	153.770618
15078		-3.507607	-6.382483	2.392714	0.300393	-0.497779	0.640848	-85.785029	20.670828	154.101003
15079		-3.804315	-6.010037	2.248341	0.249278	-0.535396	0.782499	-85.508939	21.093597	154.463407
15080		-4.137180	-5.638583	2.094131	0.143562	-0.588383	0.924703	-85.274254	21.595370	154.868828
15081		-4.452494	-5.457288	1.907497	-0.005871	-0.645397	1.039386	-85.106059	22.156810	155.318299
15082		-4.945496	-5.570645	1.751705	-0.156781	-0.708142	1.123559	-85.001154	22.764140	155.814798
15083		-5.371084	-5.727034	1.558429	-0.273296	-0.745710	1.157550	-84.948142	23.386416	156.339149
15084		-5.633861	-5.735430	1.360555	-0.320969	-0.745239	1.185780	-84.914090	24.026658	156.868346
15085		-5.732192	-5.605532	1.339714	-0.303121	-0.701618	1.240729	-84.874317	24.697974	157.375889
15086		-5.864097	-5.415194	1.327294	-0.236073	-0.616453	1.400095	-84.806202	25.466673	157.843139
15087		-5.750023	-4.834377	1.257402	-0.132742	-0.495508	1.661278	-84.699048	26.387592	158.252818
15088		-5.062152	-3.839736	1.143888	-0.096706	-0.328891	1.986271	-84.600066	27.504946	158.581620
15089		-4.575030	-3.347171	0.822765	-0.164543	-0.096783	2.328538	-84.594146	28.826983	158.785235
15090		-17.557065	-42.942814	9.296117	-3.007298	0.314430	1.552247	-86.373533	29.729832	158.659026
15091		18.350639	-77.962974	-42.689937	9.871513	1.157792	-5.982474	-81.260779	26.393788	157.492432
15092		-21.826257	69.226479	44.901050	4.377808	3.487122	-5.228657	-79.901590	23.763884	154.773276
15093		-25.632654	-8.884092	-29.870543	0.396970	0.205981	-5.369890	-79.938603	20.754412	154.064445
15094		-0.965746	3.810377	13.369020	-4.783517	-2.093132	-5.834817	-82.444323	17.270259	154.774932
15095		7.649225	-38.179638	-8.356595	0.769471	-0.488370	-5.586626	-82.043035	14.059971	154.612834
15096		0.632859	-16.822127	8.634483	-0.951084	-0.972816	-4.005152	-82.528056	11.713047	154.862093
15097		3.891054	-25.990538	-3.309365	0.190691	-1.217872	-2.978272	-82.325733	9.928615	155.335954
15098		-0.050925	-12.951737	3.080455	0.281793	-0.843216	-2.060289	-82.107814	8.694713	155.657688
15099		0.882105	-13.857039	-0.487982	0.538604	-0.655036	-1.420381	-81.757937	7.835372	155.916396
15100		0.639262	-10.828027	1.776728	0.570174	-0.532939	-0.931976	-81.397412	7.263247	156.140850
15101		0.263114	-8.523939	3.789663	0.521141	-0.257543	-0.659463	-81.083963	6.866448	156.228439
15102		0.589998	-7.598779	3.734896	-0.520679	-0.004434	-0.370144	-81.381481	6.657080	156.197084
15103		-0.211495	-10.944717	0.739616	-0.643344	0.002265	-0.207580	-81.748332	6.538725	156.176850
15104		-1.491717	-10.051443	1.066764	-0.403626	0.041326	-0.146854	-81.979174	6.459225	156.139965
15105		-1.676905	-9.505606	1.301361	-0.329010	0.014322	-0.213994	-82.166561	6.338008	156.113401
15106		-1.655515	-9.451681	1.313399	-0.355091	0.001664	-0.325244	-82.368436	6.153959	156.085919
15107		-1.752771	-9.099422	1.622506	-0.350862	0.007594	-0.474444	-82.569737	5.884118	156.044394
15108		-0.546497	-10.074177	1.847828	-0.629859	0.017853	-0.516958	-82.930938	5.592123	155.995328
15109		-0.531891	-11.902200	-1.070219	-0.187703	0.019500	-0.307867	-83.037676	5.417481	155.961189
15110		-0.531546	-9.400301	1.776374	-0.126336	0.023824	-0.205518	-83.108318	5.302695	155.932002
15111		-0.301704	-10.056655	0.917311	-0.077058	0.031193	-0.090481	-83.150723	5.252428	155.906604
15112		-0.668672	-9.721623	1.258564	-0.073723	0.031787	-0.019859	-83.190382	5.243688	155.885776
15113		-0.867089	-9.659387	1.244612	-0.110732	0.024629	0.007639	-83.251106	5.248762	155.870874
15114		-0.952717	-9.725845	1.144353	-0.081670	0.030627	0.004776	-83.295098	5.253902	155.852388
15115		-0.920155	-9.723925	1.160380	-0.114650	0.024762	0.004740	-83.358096	5.257308	155.837206
15116		-0.930417	-9.730779	1.117042	-0.102348	0.023227	-0.005255	-83.413613	5.256209	155.822277
15117		-0.963106	-9.734898	1.081431	-0.093319	0.026046	-0.013486	-83.464566	5.249295	155.805157
15118		-0.934312	-9.752846	1.084964	-0.091242	0.025087	-0.022043	-83.513920	5.238730	155.788073
15119		-0.942021	-9.759495	1.044113	-0.073424	0.024702	-0.030076	-83.553494	5.222257	155.770658
15120		-0.977715	-9.701781	1.057284	-0.067447	0.015986	-0.036982	-83.588827	5.202574	155.757831
15121		-0.920351	-9.607644	1.201445	-0.059201	0.007210	-0.040759	-83.619395	5.178880	155.749754
15122		-0.893288	-9.611509	1.187155	-0.097176	0.009191	-0.038877	-83.671407	5.157670	155.740720
15123		-0.952061	-9.714384	1.084973	-0.116265	0.003082	-0.049882	-83.734500	5.128507	155.734469
15124		-0.813276	-9.750805	1.021196	-0.096385	-0.003406	-0.046375	-83.785442	5.102220	155.732216
15125		-0.873049	-9.724927	1.045546	-0.088714	-0.000975	-0.041971	-83.832490	5.077301	155.728831
15126		-0.890675	-9.770827	0.977959	-0.085434	0.000216	-0.043140	-83.877323	5.053064	155.724750
15127		-0.864543	-9.727413	1.029363	-0.073649	-0.004563	-0.046115	-83.915574	5.025561	155.723202
15128		-0.807785	-9.794784	0.962533	-0.067970	-0.004814	-0.043462	-83.950152	5.000822	155.722013
15129		-0.827163	-9.874128	0.903957	-0.043270	-0.001173	-0.040791	-83.971133	4.976554	155.718879
15130		-0.892976	-9.786489	0.981368	-0.010360	-0.000734	-0.041309	-83.972907	4.953273	155.715502
15131		-0.877005	-9.747707	1.007270	-0.003978	-0.002477	-0.044948	-83.971330	4.926558	155.712868
15132		-0.805820	-9.661552	1.118170	-0.013255	0.002766	-0.047846	-83.974971	4.899758	155.707094
15133		-0.846211	-9.623427	1.123376	-0.032059	-0.000445	-0.046524	-83.989588	4.872267	155.703208
15134		-0.859253	-9.683069	1.080048	-0.038907	-0.002183	-0.046222	-84.007663	4.846084	155.700376
15135		-0.772672	-9.653326	1.172900	-0.063935	-0.005049	-0.040575	-84.040286	4.821706	155.699499
15136		-0.847224	-9.780187	1.027782	-0.073049	-0.006591	-0.033054	-84.077631	4.802753	155.700002
15137		-0.626374	-9.669509	1.119532	-0.059507	0.017055	-0.021463	-84.108676	4.790569	155.687644
15138		-0.976364	-10.193787	0.427136	-0.081790	-0.008827	-0.023516	-84.150869	4.776904	155.690011
15139		-0.770290	-9.387623	1.383908	0.030454	-0.005768	-0.015970	-84.129252	4.766505	155.691040
15140		-0.716879	-9.774509	0.992469	-0.012709	-0.002204	-0.003696	-84.132097	4.764523	155.690783
15141		-0.810685	-9.925114	0.805507	-0.032225	-0.003953	0.003917	-84.146381	4.765566	155.691941
15142		-0.873051	-9.704934	1.043759	0.008987	-0.002476	0.001517	-84.136773	4.766523	155.692145
15143		-0.836154	-9.714698	0.998727	0.013226	0.000019	-0.003942	-84.125243	4.763319	155.690569
15144		-0.854826	-9.726650	1.026156	0.015976	0.003293	-0.007820	-84.111949	4.759289	155.686923
15145		-0.857813	-9.712285	1.007663	0.000804	0.000462	-0.015989	-84.107616	4.749246	155.684382
15146		-0.813026	-9.704280	1.066657	0.007742	-0.001248	-0.016260	-84.098866	4.740137	155.682833
15147		-0.804042	-9.650923	1.073345	-0.023226	-0.001154	-0.014639	-84.108218	4.730768	155.681294
15148		-0.752102	-9.750937	1.016905	-0.019850	-0.001195	-0.004766	-84.115218	4.728205	155.680395
15149		-0.759681	-9.724035	1.067729	-0.020075	-0.001769	0.004242	-84.122643	4.729560	155.680323
15150		-0.755433	-9.702933	0.987570	-0.025332	-0.000022	0.014626	-84.132743	4.738104	155.679895
15151		-0.813010	-9.785884	0.997555	-0.013969	0.001583	0.020589	-84.136749	4.748973	155.678866
15152		-0.766971	-9.756480	0.977059	-0.009221	-0.003391	0.027564	-84.137399	4.764682	155.681123
15153		-0.618962	-9.569684	1.084829	0.027265	-0.013168	0.047350	-84.116946	4.789939	155.690107
15154		-0.835798	-8.862747	1.961483	-0.168091	-0.022610	0.102043	-84.207328	4.846959	155.707708
15155		-1.175035	-11.715822	-0.855424	0.001313	0.019480	0.020999	-84.203445	4.859096	155.696450
15156		-0.649935	-9.270795	1.175705	0.029271	-0.010873	0.018048	-84.181779	4.868935	155.702414
15157		-0.952358	-9.003318	1.820890	0.218250	0.013871	0.020672	-84.053333	4.880573	155.694364
15158		-0.818716	-10.461537	0.341152	-0.014321	-0.016249	0.026371	-84.056272	4.894816	155.703927
