// General information: 
//  MT Manager version: 2022.2.0 
//  XDA version: 2022.2.0 build 7381 rev 124627 built on 2023-07-19
// Device information: 
//  DeviceId: 00B4BB52
//  ProductCode: MTW2-3A7G6
//  Firmware Version: 4.6.0
//  Hardware Version: 2.0.0
// Device settings: 
//  Filter Profile: human(46.1)
//  Option Flags: Orientation Smoother Disabled, Position/Velocity Smoother Disabled, Continuous Zero Rotation Update Disabled, AHS Disabled, ICC Disabled
// Coordinate system: ENU
PacketCounter	SampleTimeFine	Acc_X	Acc_Y	Acc_Z	Gyr_X	Gyr_Y	Gyr_Z	Roll	Pitch	Yaw
63556		-0.677718	-9.768172	0.779321	0.001753	-0.004580	0.014635	-85.605714	3.749801	58.169069
63557		-0.679007	-9.768064	0.779556	0.002446	-0.004180	0.012448	-85.600152	3.755691	58.170694
63558		-0.655359	-9.753059	0.761125	0.001753	-0.004581	0.014636	-85.594813	3.762945	58.172631
63559		-0.671533	-9.772058	0.758235	0.003592	-0.000822	0.012693	-85.588719	3.769122	58.172347
63560		-0.663241	-9.725290	0.808606	0.003656	-0.003066	0.013916	-85.582348	3.776032	58.173386
63561		-0.652662	-9.763122	0.794248	-0.000163	-0.002892	0.010600	-85.578333	3.780922	58.174195
63562		-0.685313	-9.767535	0.780666	0.000420	-0.004421	0.015480	-85.573758	3.788665	58.176080
63563		-0.686536	-9.767454	0.780605	-0.002132	-0.002167	0.010098	-85.570901	3.793301	58.176452
63564		-0.660835	-9.786215	0.769310	0.003319	-0.007305	0.009174	-85.564574	3.797315	58.179710
63565		-0.673471	-9.748192	0.784212	0.003136	-0.003784	0.010261	-85.558636	3.801972	58.181016
63566		-0.641471	-9.777322	0.805336	0.001048	-0.001779	0.012069	-85.553810	3.807884	58.181240
63567		-0.634209	-9.747759	0.776302	0.000474	-0.003458	0.011947	-85.549405	3.813519	58.182435
63568		-0.675304	-9.781623	0.791951	0.001750	-0.004587	0.014639	-85.544062	3.820773	58.184382
63569		-0.660014	-9.796136	0.802624	0.002379	-0.001943	0.011227	-85.538624	3.826063	58.184679
63570		-0.662970	-9.762316	0.795613	0.002962	-0.003473	0.016107	-85.532624	3.834205	58.186056
63571		-0.654581	-9.766408	0.774154	0.004237	-0.004603	0.018799	-85.525997	3.843702	58.188215
63572		-0.691324	-9.776850	0.815271	0.007473	-0.003252	0.017235	-85.517416	3.852498	58.189518
63573		-0.684618	-9.747212	0.786737	0.004236	-0.004605	0.018800	-85.510789	3.861994	58.191681
63574		-0.669845	-9.761683	0.797621	0.004173	-0.002362	0.017577	-85.504131	3.871025	58.192491
63575		-0.686380	-9.780612	0.794913	0.004352	-0.005885	0.016491	-85.497394	3.879144	58.195286
63576		-0.684610	-9.723448	0.812937	0.001746	-0.004592	0.014642	-85.492048	3.886399	58.197242
63577		-0.700736	-9.742414	0.810042	0.002618	-0.007714	0.011367	-85.486248	3.891509	58.200854
63578		-0.681570	-9.750831	0.766628	0.001919	-0.004905	0.008797	-85.480807	3.895411	58.202727
63579		-0.677362	-9.727458	0.791649	-0.001900	-0.004725	0.005481	-85.477730	3.897294	58.204362
63580		-0.697560	-9.769825	0.763493	0.000761	-0.005053	0.003795	-85.472962	3.898332	58.206093
63581		-0.686541	-9.756856	0.820854	0.000185	-0.006732	0.003673	-85.468617	3.899090	58.208796
63582		-0.703103	-9.742218	0.810342	-0.002365	-0.004472	-0.001710	-85.465680	3.897011	58.209945
63583		-0.671296	-9.737849	0.823521	-0.006761	-0.005970	-0.005147	-85.465372	3.892766	58.211810
63584		-0.702121	-9.742393	0.809098	-0.011273	-0.006190	-0.006273	-85.467485	3.888002	58.213735
63585		-0.686502	-9.723477	0.810994	-0.015209	-0.004732	-0.007278	-85.472072	3.882597	58.214797
63586		-0.680441	-9.751231	0.762541	-0.018454	-0.002874	-0.010471	-85.478440	3.875587	58.214633
63587		-0.672927	-9.761838	0.793116	-0.017062	-0.005283	-0.010090	-85.484076	3.868550	58.215884
63588		-0.695144	-9.810597	0.817506	-0.015794	-0.003203	-0.012156	-85.488912	3.860563	58.215834
63589		-0.687120	-9.747610	0.779595	-0.015795	-0.003205	-0.012156	-85.493910	3.852440	58.215802
63590		-0.667708	-9.796171	0.795805	-0.015041	-0.005048	-0.013121	-85.498246	3.843819	58.216767
63591		-0.641560	-9.781513	0.775666	-0.015158	-0.003772	-0.010809	-85.502852	3.836440	58.217123
63592		-0.667118	-9.762837	0.785699	-0.013944	-0.002659	-0.009341	-85.506640	3.830085	58.216891
63593		-0.666473	-9.762968	0.784609	-0.008847	-0.003969	-0.003337	-85.507600	3.826965	58.217696
63594		-0.666230	-9.763049	0.783815	-0.008145	-0.006780	-0.000770	-85.507882	3.825320	58.220209
63595		-0.639584	-9.781955	0.771711	-0.005844	-0.000061	-0.000280	-85.507262	3.824122	58.218915
63596		-0.691077	-9.778013	0.801423	-0.003057	-0.004877	0.000477	-85.504698	3.823274	58.220394
63597		-0.682705	-9.748533	0.771899	-0.006356	-0.003986	0.000820	-85.504218	3.822529	58.221396
63598		-0.666262	-9.763220	0.781647	-0.007687	-0.003824	0.001665	-85.504344	3.822407	58.222327
63599		-0.666416	-9.763260	0.781021	-0.005718	-0.004552	0.002165	-85.503473	3.822404	58.223713
63600		-0.660152	-9.773724	0.812787	-0.005079	-0.005118	0.003510	-85.502049	3.823279	58.225467
63601		-0.655615	-9.750474	0.837213	-0.007803	-0.002548	0.003977	-85.502444	3.824400	58.225788
63602		-0.650628	-9.777995	0.789666	-0.005844	-0.000062	-0.000279	-85.501661	3.823338	58.224476
63603		-0.667226	-9.763395	0.778640	-0.007112	-0.002145	0.001788	-85.501681	3.823227	58.224467
63604		-0.667415	-9.763422	0.778135	-0.003749	-0.005281	0.002666	-85.499490	3.823611	58.226277
63605		-0.677716	-9.759236	0.799621	-0.004504	-0.003439	0.003633	-85.497962	3.824496	58.227092
63606		-0.651449	-9.778106	0.787618	-0.007049	-0.004391	0.003010	-85.497694	3.825117	58.228408
63607		-0.676589	-9.793024	0.805634	-0.007112	-0.002146	0.001788	-85.497714	3.825007	58.228399
63608		-0.676882	-9.793048	0.805094	-0.004441	-0.005686	0.004855	-85.495897	3.826623	58.230540
63609		-0.653859	-9.744471	0.778632	-0.007688	-0.003826	0.001666	-85.496184	3.826367	58.231488
63610		-0.685244	-9.748937	0.764505	-0.004336	-0.003746	-0.002213	-85.494401	3.824034	58.232197
63611		-0.652124	-9.778298	0.784666	-0.008505	0.000262	0.001412	-85.495313	3.823817	58.230793
63612		-0.693723	-9.778578	0.792186	-0.007688	-0.003826	0.001666	-85.495437	3.823695	58.231723
63613		-0.678856	-9.759559	0.794695	-0.006421	-0.001742	-0.000400	-85.495084	3.822353	58.231385
63614		-0.693698	-9.778686	0.790877	-0.006997	-0.003422	-0.000523	-85.494833	3.821000	58.231988
63615		-0.668734	-9.763861	0.771466	-0.008327	-0.003261	0.000322	-85.495512	3.820002	58.232552
63616		-0.693503	-9.778805	0.789567	-0.003823	0.000181	-0.003311	-85.493588	3.817219	58.230966
63617		-0.668525	-9.763949	0.770531	-0.003750	-0.005284	0.002665	-85.491560	3.817468	58.232793
63618		-0.662112	-9.774450	0.802402	-0.004452	-0.002471	0.000100	-85.489885	3.816515	58.232879
63619		-0.652212	-9.778651	0.780181	-0.003174	-0.003604	0.002788	-85.487591	3.816910	58.233751
63620		-0.679046	-9.759809	0.791454	-0.001446	0.001437	0.003157	-85.484336	3.817879	58.231728
63621		-0.679349	-9.759797	0.791335	-0.001205	-0.004332	0.003288	-85.480884	3.818527	58.233039
63622		-0.679669	-9.759794	0.791105	-0.003928	-0.001762	0.003756	-85.478924	3.819694	58.232882
63623		-0.658473	-9.751223	0.826172	-0.003813	-0.003037	0.001444	-85.477021	3.819347	58.233368
63624		-0.685087	-9.783061	0.765338	-0.003866	-0.004009	0.004978	-85.474938	3.821110	58.234553
63625		-0.680424	-9.759828	0.790032	-0.003876	-0.000791	0.000223	-85.473160	3.820168	58.233698
63626		-0.675536	-9.736609	0.814768	-0.003059	-0.004879	0.000476	-85.470595	3.819321	58.235179
63627		-0.665615	-9.740813	0.792501	-0.005720	-0.004556	0.002166	-85.469725	3.819317	58.236568
63628		-0.664108	-9.774587	0.799071	-0.007176	0.000099	0.000569	-85.469706	3.818749	58.235204
63629		-0.649280	-9.755581	0.801468	-0.009082	-0.001420	0.001292	-85.470885	3.818388	58.234758
63630		-0.675983	-9.736807	0.812033	-0.010413	-0.001259	0.002137	-85.472665	3.818655	58.234234
63631		-0.695851	-9.779177	0.782870	-0.008391	-0.001015	-0.000897	-85.473469	3.817062	58.233456
63632		-0.649253	-9.755809	0.798715	-0.010246	-0.001562	-0.003709	-85.475159	3.813974	58.232854
63633		-0.690591	-9.756113	0.806178	-0.007690	-0.003830	0.001667	-85.475447	3.813719	58.233804
63634		-0.670566	-9.764509	0.761615	-0.009545	-0.004377	-0.001144	-85.476620	3.811971	58.234914
63635		-0.655659	-9.745507	0.764019	-0.007114	-0.002150	0.001791	-85.476641	3.811863	58.234908
63636		-0.664097	-9.775130	0.792408	-0.006422	-0.001744	-0.000398	-85.476124	3.810659	58.234552
63637		-0.669145	-9.747803	0.838743	-0.006422	-0.001744	-0.000398	-85.475771	3.809318	58.234215
63638		-0.654027	-9.779397	0.769232	-0.007753	-0.001584	0.000447	-85.476018	3.808604	58.233812
63639		-0.664128	-9.775291	0.790395	-0.007114	-0.002151	0.001791	-85.476039	3.808496	58.233807
63640		-0.684340	-9.767029	0.833406	-0.008444	-0.001991	0.002637	-85.476662	3.809015	58.233725
63641		-0.675884	-9.788065	0.731778	-0.003637	-0.006561	0.000351	-85.474527	3.807884	58.236179
63642		-0.659389	-9.752206	0.813737	-0.005732	-0.001338	-0.002587	-85.473634	3.805448	58.235497
63643		-0.690824	-9.756631	0.799694	-0.004568	-0.001199	0.002414	-85.472231	3.805738	58.234975
63644		-0.699473	-9.786221	0.828477	-0.000628	-0.002655	0.003409	-85.468349	3.806667	58.235328
63645		-0.664775	-9.775457	0.787797	-0.002421	-0.005449	0.001818	-85.465556	3.806424	58.237212
63646		-0.681460	-9.760780	0.777275	-0.001844	-0.003768	0.001942	-85.462329	3.806468	58.238115
63647		-0.681662	-9.760783	0.777055	-0.003175	-0.003608	0.002788	-85.460034	3.806862	58.238989
63648		-0.660441	-9.752270	0.812121	-0.004568	-0.001199	0.002414	-85.458465	3.807293	58.238437
63649		-0.675353	-9.771368	0.808446	-0.005155	0.000343	-0.002463	-85.457471	3.804868	58.236810
63650		-0.650405	-9.756502	0.789250	-0.005721	-0.004561	0.002166	-85.456436	3.805002	58.238199
63651		-0.665558	-9.775574	0.785683	-0.002021	-0.000247	0.003036	-85.453608	3.805690	58.237160
63652		-0.677465	-9.737697	0.800029	-0.006475	-0.002720	0.003136	-85.453073	3.806463	58.237520
63653		-0.646144	-9.733359	0.813057	-0.004454	-0.002473	0.000101	-85.451563	3.805374	58.237622
63654		-0.666018	-9.775655	0.784277	-0.005784	-0.002313	0.000947	-85.450651	3.804917	58.237634
63655		-0.651126	-9.756653	0.786790	-0.008908	-0.004946	0.000202	-85.451599	3.803774	58.239156
63656		-0.685933	-9.767491	0.826648	-0.006247	-0.005267	-0.001491	-85.450851	3.801785	58.240792
63657		-0.650768	-9.756793	0.785347	-0.009096	0.001799	-0.003456	-85.452174	3.798859	58.238287
63658		-0.691895	-9.757113	0.792848	-0.008280	-0.002291	-0.003207	-85.452704	3.796027	58.238122
63659		-0.648733	-9.790694	0.790880	-0.007115	-0.002154	0.001793	-85.452726	3.795919	58.238119
63660		-0.677055	-9.738182	0.794460	-0.010992	-0.002947	0.002019	-85.454769	3.796040	58.238588
63661		-0.650581	-9.757069	0.782063	-0.006424	-0.001746	-0.000396	-85.454417	3.794701	58.238251
63662		-0.660509	-9.752995	0.803314	-0.007001	-0.003427	-0.000520	-85.454163	3.793358	58.238814
63663		-0.675460	-9.772109	0.799352	-0.008508	0.000254	0.001421	-85.455076	3.793147	58.237415
63664		-0.660630	-9.753117	0.801727	-0.008571	0.002502	0.000203	-85.455950	3.792488	58.234595
63665		-0.645914	-9.734115	0.804148	-0.007806	-0.002564	0.003983	-85.456346	3.793613	58.234926
63666		-0.690905	-9.791329	0.793652	-0.009662	-0.003109	0.001173	-85.457620	3.793238	58.235499
63667		-0.676183	-9.772344	0.795864	-0.011169	0.000571	0.003115	-85.460064	3.794009	58.233995
63668		-0.661419	-9.753357	0.798145	-0.008332	-0.003269	0.000326	-85.460585	3.793156	58.234510
63669		-0.664759	-9.810356	0.779157	-0.011633	-0.002382	0.000677	-85.463190	3.792400	58.234587
63670		-0.678017	-9.738791	0.786134	-0.003878	-0.000794	0.000226	-85.461246	3.791607	58.233637
63671		-0.654936	-9.764128	0.828066	-0.008333	-0.003269	0.000326	-85.461928	3.790611	58.234205
63672		-0.661464	-9.753598	0.795159	-0.006425	-0.001748	-0.000395	-85.461406	3.789409	58.233873
63673		-0.659920	-9.787393	0.801687	-0.005146	-0.002885	0.002290	-85.460270	3.789553	58.234310
63674		-0.671613	-9.749565	0.815979	-0.005848	-0.000067	-0.000270	-85.459482	3.788498	58.233022
63675		-0.686593	-9.768670	0.812046	-0.008509	0.000251	0.001424	-85.460395	3.788289	58.231625
63676		-0.645202	-9.768499	0.802852	-0.008910	-0.004951	0.000202	-85.461172	3.787285	58.233140
63677		-0.676714	-9.772907	0.788458	-0.009087	-0.001431	0.001299	-85.462352	3.786928	58.232700
63678		-0.645470	-9.768626	0.801083	-0.009777	-0.001841	0.003489	-85.463738	3.787944	58.232559
63679		-0.677051	-9.773028	0.786668	-0.008396	-0.001021	-0.000890	-85.464544	3.786356	58.231785
63680		-0.671988	-9.749948	0.811081	-0.006488	0.000502	-0.001612	-85.464143	3.784560	58.230117
63681		-0.645502	-9.768804	0.798889	-0.005385	0.002884	0.002171	-85.463362	3.784897	58.227247
63682		-0.660420	-9.787890	0.795174	-0.004342	-0.003747	-0.002214	-85.461586	3.782572	58.227913
63683		-0.677044	-9.773211	0.784405	-0.005837	-0.003298	0.004480	-85.460824	3.783947	58.228687
63684		-0.662278	-9.754207	0.786968	-0.008396	-0.001021	-0.000890	-85.461465	3.782489	58.227970
63685		-0.662184	-9.754279	0.786155	-0.008397	-0.001021	-0.000890	-85.462271	3.780901	58.227197
63686		-0.687039	-9.769309	0.803932	-0.009727	-0.000863	-0.000043	-85.463679	3.779949	58.226290
63687		-0.662036	-9.754425	0.784465	-0.007066	-0.001180	-0.001737	-85.463719	3.777870	58.225569
63688		-0.662004	-9.754490	0.783686	-0.009088	-0.001433	0.001300	-85.464725	3.777649	58.225157
63689		-0.696767	-9.765450	0.823306	-0.010254	-0.001565	-0.003700	-85.466584	3.774431	58.224567
63690		-0.655006	-9.765286	0.814245	-0.004342	-0.003747	-0.002215	-85.464793	3.772104	58.225275
63691		-0.686429	-9.769661	0.800170	-0.007117	-0.002162	0.001795	-85.464815	3.771998	58.225276
63692		-0.655001	-9.765387	0.813033	-0.007004	-0.003431	-0.000520	-85.464565	3.770657	58.225838
63693		-0.645018	-9.769516	0.790524	-0.005787	-0.002320	0.000948	-85.463821	3.770060	58.225891
63694		-0.681597	-9.746680	0.823504	-0.005787	-0.002320	0.000948	-85.462893	3.769596	58.225993
63695		-0.661710	-9.754874	0.779146	-0.005787	-0.002320	0.000948	-85.462150	3.768999	58.226046
63696		-0.656784	-9.731815	0.803539	-0.010306	-0.002547	-0.000167	-85.463805	3.767909	58.226056
63697		-0.671656	-9.750935	0.799405	-0.007820	0.000658	-0.000762	-85.464344	3.766469	58.224327
63698		-0.635198	-9.773857	0.765142	-0.007118	-0.002163	0.001796	-85.464209	3.766495	58.224385
63699		-0.656824	-9.731993	0.801349	-0.005611	-0.005841	-0.000151	-85.463236	3.765110	58.226403
63700		-0.661744	-9.755160	0.775531	-0.008335	-0.003275	0.000328	-85.463762	3.764266	58.226860
63701		-0.666875	-9.728027	0.821972	-0.005147	-0.002891	0.002291	-85.462627	3.764410	58.227300
63702		-0.671877	-9.751186	0.796155	-0.008398	-0.001024	-0.000887	-85.463254	3.762950	58.226628
63703		-0.650308	-9.742871	0.830880	-0.006427	-0.001751	-0.000393	-85.462903	3.761613	58.226295
63704		-0.661616	-9.755370	0.772992	-0.004984	-0.003178	-0.003557	-85.461511	3.758560	58.226487
63705		-0.656546	-9.732322	0.797572	-0.007695	-0.003846	0.001670	-85.461801	3.758306	58.227446
63706		-0.654935	-9.766162	0.803724	-0.009792	0.001384	-0.001254	-85.463340	3.756791	58.224973
63707		-0.656344	-9.732470	0.795928	-0.006892	-0.004702	-0.002835	-85.463152	3.753924	58.226218
63708		-0.659596	-9.789399	0.777077	-0.007118	-0.002165	0.001797	-85.462987	3.753962	58.226195
63709		-0.664586	-9.762315	0.823390	-0.009039	-0.000456	-0.002228	-85.464187	3.751635	58.225037
63710		-0.654497	-9.766451	0.800566	-0.009730	-0.000869	-0.000038	-85.465583	3.750693	58.224098
63711		-0.644513	-9.770578	0.777708	-0.009730	-0.000869	-0.000038	-85.467156	3.749598	58.223276
63712		-0.670989	-9.751885	0.788303	-0.012279	-0.001825	-0.000658	-85.469988	3.748234	58.223069
63713		-0.650844	-9.760071	0.743432	-0.009103	0.001796	-0.003442	-85.471311	3.745315	58.220567
63714		-0.637492	-9.781531	0.806979	-0.007006	-0.003435	-0.000519	-85.471036	3.743914	58.221687
63715		-0.659109	-9.789940	0.770655	-0.011174	0.000553	0.003127	-85.473481	3.744691	58.220194
63716		-0.654391	-9.766915	0.794963	-0.007119	-0.002168	0.001797	-85.473314	3.744724	58.220226
63717		-0.654388	-9.766986	0.794095	-0.010949	-0.001982	-0.001506	-85.475547	3.742740	58.219975
63718		-0.654302	-9.767073	0.793094	-0.009731	-0.000871	-0.000037	-85.476966	3.741788	58.219107
63719		-0.670723	-9.752417	0.781918	-0.009618	-0.002139	-0.002354	-85.478435	3.739313	58.218907
63720		-0.653897	-9.767244	0.791322	-0.007710	-0.000614	-0.003074	-85.478720	3.736653	58.217616
63721		-0.660256	-9.756616	0.758286	-0.010372	-0.000302	-0.001378	-85.480685	3.734819	58.216409
63722		-0.668450	-9.786463	0.786116	-0.010949	-0.001984	-0.001505	-85.482753	3.732983	58.216079
63723		-0.628631	-9.752479	0.769913	-0.007119	-0.002170	0.001798	-85.482777	3.732878	58.216085
63724		-0.661954	-9.797336	0.816343	-0.014428	0.002417	-0.000045	-85.487005	3.732057	58.213452
63725		-0.665223	-9.729863	0.801311	-0.009154	0.000808	0.000092	-85.488310	3.731111	58.211676
63726		-0.660250	-9.757011	0.753186	-0.011063	-0.000719	0.000813	-85.490478	3.730643	58.210845
63727		-0.662016	-9.797588	0.813261	-0.007823	0.000652	-0.000757	-85.491017	3.729206	58.209120
63728		-0.653641	-9.767881	0.783633	-0.008338	-0.003283	0.000329	-85.491517	3.728361	58.209623
63729		-0.637068	-9.782689	0.793154	-0.006430	-0.001756	-0.000392	-85.491167	3.727024	58.209293
63730		-0.648625	-9.744943	0.807562	-0.005852	-0.000074	-0.000264	-85.490361	3.725995	58.207838
63731		-0.646811	-9.778806	0.813721	-0.009683	0.000112	-0.003566	-85.491953	3.722929	58.206296
63732		-0.653340	-9.768137	0.780696	-0.008451	-0.002018	0.002646	-85.492584	3.723433	58.206429
63733		-0.661742	-9.797984	0.808695	-0.008979	-0.002713	-0.001012	-85.493661	3.721699	58.206618
63734		-0.648276	-9.745242	0.804226	-0.009043	-0.000460	-0.002224	-85.494684	3.719537	58.205249
63735		-0.653061	-9.768361	0.778121	-0.008980	-0.002713	-0.001012	-85.495761	3.717803	58.205439
63736		-0.636359	-9.783208	0.787302	-0.012346	0.000420	-0.001867	-85.498681	3.715858	58.203825
63737		-0.662814	-9.764556	0.797847	-0.011642	-0.002405	0.000686	-85.501290	3.715107	58.203915
63738		-0.636143	-9.783399	0.785099	-0.009684	0.000110	-0.003564	-85.502727	3.712182	58.202356
63739		-0.650819	-9.802525	0.780851	-0.009558	-0.004397	-0.001140	-85.504074	3.710299	58.203504
63740		-0.647387	-9.745804	0.798111	-0.013100	0.002255	-0.000888	-85.507536	3.709027	58.200580
63741		-0.655544	-9.775725	0.825715	-0.011593	-0.001418	-0.002843	-85.510164	3.706305	58.199947
63742		-0.668409	-9.754270	0.760490	-0.008290	-0.002298	-0.003201	-85.510687	3.703476	58.199825
63743		-0.634998	-9.783880	0.780013	-0.010199	-0.003827	-0.002480	-85.512426	3.700853	58.200587
63744		-0.656365	-9.742205	0.816217	-0.005916	0.002177	-0.001473	-85.511747	3.699221	58.197895
63745		-0.644690	-9.780064	0.800180	-0.014193	-0.003366	0.000067	-85.515784	3.698074	58.198507
63746		-0.667637	-9.754616	0.756728	-0.009446	-0.005664	-0.003458	-85.516855	3.694927	58.200466
63747		-0.634369	-9.784229	0.776139	-0.011066	-0.000728	0.000817	-85.519195	3.694326	58.199602
63748		-0.660742	-9.765589	0.786842	-0.010264	-0.001574	-0.003691	-85.520865	3.691264	58.198922
63749		-0.660432	-9.765687	0.785883	-0.009623	-0.002146	-0.002350	-85.522335	3.688791	58.198729
63750		-0.633718	-9.784506	0.773171	-0.010376	-0.000311	-0.001372	-85.524096	3.687114	58.197416
63751		-0.666750	-9.755058	0.751792	-0.010313	-0.002565	-0.000161	-85.525940	3.685873	58.197560
63752		-0.643470	-9.780726	0.793031	-0.012110	-0.005359	-0.001759	-85.528568	3.683751	58.199047
63753		-0.654806	-9.743070	0.807100	-0.009109	0.001790	-0.003431	-85.529891	3.680837	58.196553
63754		-0.652728	-9.776965	0.813177	-0.006785	-0.005972	-0.005157	-85.529438	3.676730	58.198410
63755		-0.644087	-9.747193	0.783686	-0.008404	-0.001037	-0.000880	-85.530246	3.675146	58.197648
63756		-0.658708	-9.766323	0.779404	-0.010906	-0.001005	-0.005029	-85.532348	3.671319	58.196804
63757		-0.631845	-9.785151	0.766510	-0.012350	0.000411	-0.001860	-85.535473	3.669239	58.195169
63758		-0.625115	-9.796082	0.797422	-0.012286	-0.001844	-0.000650	-85.538321	3.667875	58.195003
63759		-0.658058	-9.766645	0.775916	-0.011597	-0.001425	-0.002839	-85.540950	3.665154	58.194376
63760		-0.631258	-9.785460	0.763048	-0.011019	0.000258	-0.002709	-85.543118	3.662719	58.192840
63761		-0.674105	-9.752092	0.763404	-0.014324	0.001134	-0.002349	-85.547401	3.660393	58.190770
63762		-0.650754	-9.777812	0.804526	-0.009561	-0.004405	-0.001140	-85.548598	3.658631	58.192075
63763		-0.667073	-9.763130	0.793433	-0.009689	0.000104	-0.003558	-85.550192	3.655568	58.190540
63764		-0.625492	-9.762885	0.784061	-0.010251	-0.004826	0.001050	-85.551701	3.655035	58.192270
63765		-0.656910	-9.767230	0.769498	-0.011534	-0.003682	-0.001629	-85.554208	3.652905	58.192989
63766		-0.625247	-9.763076	0.781869	-0.012352	0.000407	-0.001857	-85.557185	3.650954	58.191441
63767		-0.659832	-9.774385	0.821198	-0.012176	-0.003111	-0.002968	-85.560084	3.648085	58.191774
63768		-0.656265	-9.767558	0.765876	-0.014262	-0.001125	-0.001137	-85.564048	3.646528	58.190760
63769		-0.614563	-9.767339	0.756117	-0.013059	0.003234	-0.004403	-85.567688	3.643120	58.187397
63770		-0.649244	-9.778643	0.795597	-0.008278	-0.005554	0.001538	-85.568077	3.642885	58.189092
63771		-0.650872	-9.744904	0.787909	-0.010958	-0.002002	-0.001497	-85.570314	3.640905	58.188855
63772		-0.644007	-9.755901	0.818741	-0.014969	0.001701	-0.003683	-85.574833	3.637979	58.186401
63773		-0.623796	-9.763824	0.773648	-0.009626	-0.002154	-0.002347	-85.576305	3.635507	58.186214
63774		-0.655073	-9.768164	0.759129	-0.010958	-0.002003	-0.001497	-85.578316	3.633707	58.185665
63775		-0.638299	-9.783040	0.768279	-0.009627	-0.002155	-0.002347	-85.579788	3.631235	58.185478
63776		-0.639734	-9.749301	0.760696	-0.007653	-0.002878	-0.001859	-85.579922	3.629144	58.185795
63777		-0.647834	-9.779313	0.788482	-0.011536	-0.003687	-0.001628	-85.582430	3.627015	58.186519
63778		-0.622819	-9.764263	0.768885	-0.009803	0.001362	-0.001234	-85.583949	3.625502	58.184118
63779		-0.627612	-9.787276	0.742486	-0.012114	-0.005372	-0.001759	-85.586728	3.623225	58.185800
63780		-0.663996	-9.764802	0.775229	-0.009162	0.000788	0.000105	-85.587846	3.622411	58.184170
63781		-0.607578	-9.745471	0.769482	-0.005680	-0.003603	-0.001370	-85.587002	3.620434	58.184857
63782		-0.622347	-9.764567	0.765391	-0.008986	-0.002729	-0.001008	-85.587927	3.618838	58.185084
63783		-0.647103	-9.779793	0.783110	-0.008408	-0.001046	-0.000876	-85.588736	3.617255	58.184329
63784		-0.622134	-9.764712	0.763716	-0.008986	-0.002730	-0.001008	-85.589726	3.615662	58.184505
63785		-0.605448	-9.779573	0.773056	-0.007590	-0.005137	-0.000651	-85.589918	3.614027	58.186101
63786		-0.646701	-9.780000	0.780855	-0.005745	-0.001347	-0.002577	-85.589081	3.611555	58.185804
63787		-0.638356	-9.750106	0.751485	-0.008520	0.000213	0.001445	-85.589993	3.611354	58.184430
63788		-0.641729	-9.757212	0.804793	-0.006435	-0.001770	-0.000388	-85.589474	3.610096	58.184643
63789		-0.646580	-9.780167	0.778860	-0.005681	-0.003604	-0.001370	-85.588630	3.608118	58.185330
63790		-0.621588	-9.765061	0.759687	-0.007590	-0.005138	-0.000651	-85.588604	3.606662	58.186652
63791		-0.606548	-9.746087	0.762470	-0.005681	-0.003604	-0.001370	-85.587760	3.604685	58.187339
63792		-0.631231	-9.761329	0.780206	-0.011538	-0.003692	-0.001625	-85.590092	3.602748	58.187621
63793		-0.641059	-9.757543	0.801304	-0.006435	-0.001771	-0.000387	-85.589743	3.601413	58.187302
63794		-0.614739	-9.776233	0.788920	-0.004684	0.000025	0.004742	-85.588303	3.603255	58.185900
63795		-0.648079	-9.746674	0.768062	-0.008409	-0.001048	-0.000874	-85.589113	3.601674	58.185146
63796		-0.641439	-9.757670	0.799450	-0.005793	-0.002345	0.000951	-85.588148	3.601202	58.185366
63797		-0.631512	-9.761588	0.776719	-0.010319	-0.002583	-0.000155	-85.589994	3.599964	58.185522
63798		-0.646260	-9.780712	0.772249	-0.011604	-0.001436	-0.002830	-85.592444	3.597395	58.184858
63799		-0.641085	-9.757930	0.796556	-0.010384	-0.000326	-0.001360	-85.594412	3.595568	58.183669
63800		-0.614362	-9.776680	0.783652	-0.011027	0.000247	-0.002698	-85.596620	3.593163	58.181876
63801		-0.662238	-9.766191	0.759061	-0.008988	-0.002734	-0.001006	-85.597701	3.591432	58.182082
63802		-0.620673	-9.765888	0.749735	-0.009566	-0.004418	-0.001138	-85.598786	3.589673	58.183462
63803		-0.613995	-9.776937	0.780727	-0.012470	0.001654	0.000476	-85.602015	3.588981	58.181221
63804		-0.635606	-9.785065	0.744354	-0.005793	-0.002347	0.000951	-85.601164	3.588513	58.181372
63805		-0.630717	-9.762236	0.769191	-0.005793	-0.002347	0.000951	-85.600423	3.587917	58.181442
63806		-0.630737	-9.762295	0.768420	-0.010320	-0.002586	-0.000154	-85.602096	3.586762	58.182100
63807		-0.647317	-9.747555	0.757459	-0.007768	-0.001625	0.000465	-85.602513	3.585920	58.181736
63808		-0.614138	-9.777234	0.776881	-0.007833	0.000633	-0.000739	-85.602843	3.584616	58.180186
63809		-0.652299	-9.770528	0.730560	-0.007703	-0.003883	0.001670	-85.603139	3.584363	58.181167
63810		-0.620956	-9.766357	0.743372	-0.007126	-0.002200	0.001803	-85.603026	3.584374	58.181374
63811		-0.624417	-9.773554	0.796709	-0.007126	-0.002200	0.001803	-85.603051	3.584271	58.181397
63812		-0.645958	-9.781649	0.760542	-0.007079	-0.001200	-0.001723	-85.602942	3.582349	58.180572
63813		-0.640924	-9.758853	0.785303	-0.006372	-0.004033	0.000818	-85.602472	3.581603	58.181601
63814		-0.624425	-9.773722	0.794646	-0.009100	-0.001478	0.001318	-85.603448	3.581457	58.180692
63815		-0.655958	-9.778003	0.780195	-0.010321	-0.002588	-0.000153	-85.605295	3.580220	58.180851
63816		-0.614387	-9.777702	0.770779	-0.009633	-0.002162	-0.002341	-85.606647	3.577867	58.180859
63817		-0.629317	-9.796806	0.766304	-0.011764	-0.001183	0.003022	-85.609362	3.578505	58.180354
63818		-0.631212	-9.763020	0.758757	-0.007126	-0.002202	0.001803	-85.609305	3.578553	58.180213
63819		-0.641030	-9.759282	0.779868	-0.010854	-0.003272	-0.003812	-85.611443	3.575196	58.180604
63820		-0.640869	-9.759377	0.778811	-0.011076	-0.000758	0.000833	-85.613538	3.574766	58.179608
63821		-0.639167	-9.793306	0.784389	-0.010387	-0.000331	-0.001355	-85.615507	3.572941	58.178423
63822		-0.624256	-9.774375	0.786701	-0.012986	-0.002295	0.001552	-85.618688	3.572860	58.178257
63823		-0.589354	-9.763058	0.745078	-0.010277	-0.001589	-0.003677	-85.620555	3.569653	58.177690
63824		-0.640470	-9.759756	0.774376	-0.013454	-0.005238	-0.000904	-85.623907	3.568014	58.179329
63825		-0.623669	-9.774676	0.783421	-0.007724	-0.000627	-0.003058	-85.624344	3.565203	58.178239
63826		-0.623647	-9.774755	0.782451	-0.012344	-0.002873	0.002890	-85.627126	3.565814	58.178879
63827		-0.628622	-9.797639	0.756147	-0.005749	-0.001349	-0.002574	-85.626405	3.563248	58.178224
63828		-0.625257	-9.741031	0.774341	-0.007705	-0.003890	0.001670	-85.626537	3.563190	58.178754
63829		-0.607079	-9.789763	0.790253	-0.007770	-0.001631	0.000468	-85.626955	3.562349	58.178393
63830		-0.646924	-9.749123	0.737346	-0.008349	-0.003315	0.000334	-85.627521	3.561481	58.179098
63831		-0.618663	-9.752255	0.804061	-0.008414	-0.001056	-0.000869	-85.628332	3.559902	58.178350
63832		-0.618752	-9.801694	0.730627	-0.003755	-0.005335	0.002639	-85.626064	3.560322	58.179882
63833		-0.640372	-9.760304	0.767524	-0.006439	-0.001778	-0.000384	-85.625717	3.558988	58.179568
63834		-0.615619	-9.745104	0.748478	-0.004574	-0.001244	0.002423	-85.624182	3.559411	58.179184
63835		-0.633996	-9.771422	0.798461	-0.007128	-0.002207	0.001805	-85.624207	3.559309	58.179211
63836		-0.624260	-9.775237	0.775920	-0.004574	-0.001244	0.002423	-85.622594	3.559744	58.178691
63837		-0.619469	-9.752472	0.800805	-0.007128	-0.002207	0.001805	-85.622620	3.559642	58.178718
63838		-0.608082	-9.790150	0.784674	-0.007881	-0.000376	0.002792	-85.622941	3.560308	58.177885
63839		-0.641405	-9.760525	0.763834	-0.007771	-0.001632	0.000469	-85.623359	3.559468	58.177525
63840		-0.610092	-9.756407	0.776444	-0.010610	0.002176	0.003296	-85.625359	3.560555	58.175060
63841		-0.615525	-9.779243	0.750036	-0.009084	-0.004751	0.006048	-85.626404	3.562766	58.176729
63842		-0.610852	-9.756512	0.774524	-0.011079	-0.000764	0.000838	-85.628658	3.562340	58.175604
63843		-0.632670	-9.764500	0.738219	-0.005842	-0.003360	0.004478	-85.627899	3.563715	58.176408
63844		-0.616436	-9.779387	0.747406	-0.011768	-0.001194	0.003028	-85.630367	3.564480	58.176085
63845		-0.649902	-9.749740	0.726488	-0.005907	-0.001100	0.003276	-85.629728	3.565268	58.175543
63846		-0.617111	-9.779451	0.746011	-0.005264	-0.001676	0.004613	-85.628505	3.566990	58.174914
63847		-0.627460	-9.775699	0.767470	-0.005842	-0.003361	0.004478	-85.627746	3.568365	58.175719
63848		-0.622872	-9.752932	0.792519	-0.002774	0.001547	0.004030	-85.625139	3.569896	58.173223
63849		-0.613344	-9.756706	0.770095	-0.006421	-0.005045	0.004343	-85.624651	3.571120	58.174987
63850		-0.618649	-9.779499	0.744111	-0.004575	-0.001246	0.002424	-85.623143	3.571549	58.174539
63851		-0.628765	-9.775767	0.765537	-0.007129	-0.002209	0.001806	-85.623169	3.571447	58.174568
63852		-0.645542	-9.760933	0.755082	-0.002361	-0.007745	0.002985	-85.620087	3.571955	58.177503
63853		-0.597875	-9.771628	0.778395	-0.002645	-0.002976	0.006432	-85.617504	3.574463	58.178173
63854		-0.639918	-9.771993	0.786665	-0.002066	-0.001291	0.006567	-85.614475	3.577269	58.177812
63855		-0.599029	-9.771602	0.777828	-0.005264	-0.001677	0.004613	-85.613444	3.578795	58.177660
63856		-0.616059	-9.756753	0.767329	-0.004685	0.000007	0.004749	-85.611864	3.580580	58.176854
63857		-0.638065	-9.764675	0.731236	-0.007819	-0.002640	0.003996	-85.612264	3.581711	58.177225
63858		-0.641837	-9.772029	0.784652	-0.004557	-0.004516	0.007150	-85.610575	3.584751	58.178331
63859		-0.632341	-9.775798	0.762187	-0.005734	-0.004616	0.002154	-85.609714	3.584744	58.179753
63860		-0.642646	-9.772066	0.783530	-0.007928	-0.001387	0.006321	-85.610116	3.587380	58.179634
63861		-0.633305	-9.775835	0.760913	-0.005200	-0.003940	0.005815	-85.608964	3.589494	58.180830
63862		-0.643553	-9.772105	0.782300	-0.007710	-0.003894	0.001672	-85.609002	3.589431	58.181382
63863		-0.623927	-9.779655	0.737618	-0.007067	-0.004471	0.003008	-85.608908	3.589917	58.182759
63864		-0.643951	-9.772194	0.780857	-0.008526	0.000198	0.001461	-85.609665	3.589799	58.181972
63865		-0.643997	-9.772249	0.780131	-0.006442	-0.001778	-0.000382	-85.609319	3.588468	58.181658
63866		-0.634100	-9.776065	0.757288	-0.011081	-0.000765	0.000843	-85.611471	3.588037	58.180623
63867		-0.624267	-9.779890	0.734214	-0.011082	-0.000765	0.000844	-85.613816	3.587450	58.179783
63868		-0.644197	-9.772465	0.777248	-0.008527	0.000197	0.001461	-85.614599	3.587349	58.178834
63869		-0.629330	-9.753538	0.779855	-0.009750	-0.000911	-0.000010	-85.616178	3.586268	58.178040
63870		-0.617792	-9.791215	0.763510	-0.007774	-0.001634	0.000472	-85.616451	3.585641	58.177024
63871		-0.619509	-9.757404	0.756197	-0.009107	-0.001489	0.001326	-85.617638	3.585297	58.176620
63872		-0.634352	-9.776466	0.751881	-0.007729	-0.000624	-0.003052	-85.617804	3.582562	58.176194
63873		-0.619325	-9.757542	0.754568	-0.009107	-0.001490	0.001326	-85.618991	3.582219	58.175790
63874		-0.644078	-9.772860	0.772376	-0.005517	-0.007124	-0.002497	-85.617706	3.579626	58.178080
63875		-0.619166	-9.757650	0.753293	-0.007131	-0.002213	0.001808	-85.617733	3.579526	58.178111
63876		-0.612520	-9.768842	0.784720	-0.004531	-0.000240	-0.001099	-85.616226	3.578095	58.175917
63877		-0.638967	-9.750282	0.796137	-0.007775	-0.001635	0.000473	-85.616647	3.577258	58.175559
63878		-0.617608	-9.791663	0.757900	-0.007132	-0.002213	0.001808	-85.616505	3.577345	58.175131
63879		-0.644189	-9.773103	0.769199	-0.007775	-0.001636	0.000473	-85.616925	3.576508	58.174773
63880		-0.634410	-9.776882	0.746393	-0.009044	-0.003754	0.002526	-85.617844	3.576904	58.175474
63881		-0.612925	-9.769087	0.781344	-0.002492	-0.003225	0.000582	-85.615180	3.576059	58.176030
63882		-0.639502	-9.750509	0.792913	-0.007132	-0.002214	0.001809	-85.615079	3.576145	58.175670
63883		-0.613180	-9.769162	0.780208	-0.007132	-0.002214	0.001809	-85.615107	3.576046	58.175701
63884		-0.635017	-9.777020	0.744065	-0.006488	-0.002792	0.003144	-85.614503	3.576810	58.176257
63885		-0.613603	-9.769226	0.779072	-0.003824	-0.003081	0.001436	-85.612605	3.576460	58.176768
63886		-0.628637	-9.788244	0.775105	-0.005800	-0.002359	0.000955	-85.611609	3.576085	58.176137
63887		-0.618855	-9.792002	0.752482	-0.007132	-0.002215	0.001809	-85.611636	3.575986	58.176169
63888		-0.613946	-9.769337	0.777407	-0.005220	-0.000674	0.001091	-85.610356	3.575589	58.176212
63889		-0.638895	-9.784658	0.795203	-0.009108	-0.001493	0.001329	-85.611543	3.575247	58.175810
63890		-0.640443	-9.750841	0.788062	-0.005520	-0.007124	-0.002498	-85.610259	3.572518	58.179251
63891		-0.612382	-9.803363	0.781953	-0.005845	-0.003372	0.004480	-85.609501	3.573893	58.180063
63892		-0.655610	-9.769885	0.783628	-0.002556	-0.000963	-0.000617	-85.606707	3.572755	58.177946
63893		-0.624136	-9.765829	0.796650	-0.007133	-0.002216	0.001810	-85.606735	3.572657	58.177978
63894		-0.630936	-9.754684	0.764060	-0.005800	-0.002360	0.000955	-85.605602	3.572164	58.178546
63895		-0.640865	-9.751034	0.785320	-0.009752	-0.000915	-0.000005	-85.607181	3.571086	58.177755
63896		-0.614383	-9.769713	0.772327	-0.009753	-0.000916	-0.000005	-85.608672	3.570110	58.177184
63897		-0.614564	-9.769768	0.771480	-0.007821	-0.002651	0.004000	-85.609073	3.571243	58.177563
63898		-0.639666	-9.785089	0.789250	-0.007133	-0.002217	0.001810	-85.608780	3.571402	58.176660
63899		-0.610051	-9.747170	0.795533	-0.008637	0.001441	0.003794	-85.609795	3.572597	58.174687
63900		-0.653649	-9.762757	0.723887	-0.005094	-0.005203	0.003488	-85.608458	3.573443	58.176634
63901		-0.630671	-9.788893	0.765192	-0.007885	-0.000388	0.002802	-85.608979	3.573991	58.175664
63902		-0.601010	-9.750974	0.771547	-0.006553	-0.000532	0.001948	-85.608492	3.574186	58.174799
63903		-0.616032	-9.770013	0.767203	-0.010334	-0.002602	-0.000141	-85.610345	3.572956	58.174966
63904		-0.626015	-9.766387	0.788289	-0.009046	-0.003760	0.002528	-85.611272	3.573249	58.176657
63905		-0.641071	-9.785414	0.784062	-0.005284	0.001588	-0.000104	-85.610381	3.572224	58.174428
63906		-0.637838	-9.777929	0.729567	-0.005630	-0.005875	-0.000174	-85.609288	3.571093	58.175396
63907		-0.626203	-9.766508	0.786646	-0.003416	0.002115	0.002702	-85.607338	3.571694	58.172989
63908		-0.624770	-9.800410	0.792706	-0.003826	-0.003084	0.001435	-85.605365	3.571491	58.173345
63909		-0.626510	-9.766551	0.785865	-0.005221	-0.000677	0.001093	-85.604354	3.571051	58.172465
63910		-0.616743	-9.770262	0.763443	-0.003245	-0.001399	0.001573	-85.602199	3.570945	58.172383
63911		-0.628440	-9.732712	0.778603	-0.005973	0.001152	0.002086	-85.601681	3.571152	58.170500
63912		-0.612077	-9.747669	0.787822	-0.009047	-0.003761	0.002529	-85.602665	3.571603	58.170760
63913		-0.627193	-9.766704	0.783414	-0.009110	-0.001497	0.001332	-85.603853	3.571263	58.170360
63914		-0.622257	-9.744115	0.808039	-0.009926	0.002596	0.001128	-85.605478	3.571066	58.168067
63915		-0.612598	-9.747859	0.785059	-0.009799	-0.001934	0.003521	-85.607039	3.571958	58.168013
63916		-0.649423	-9.774641	0.744864	-0.013815	0.001775	0.001367	-85.610779	3.572007	58.164976
63917		-0.642953	-9.785968	0.775563	-0.011776	-0.001213	0.003043	-85.613500	3.572657	58.164488
63918		-0.623143	-9.744420	0.803668	-0.009111	-0.001498	0.001332	-85.614682	3.572489	58.163663
63919		-0.611783	-9.782058	0.787008	-0.011839	0.001051	0.001847	-85.617523	3.572555	58.161827
63920		-0.618520	-9.770878	0.754069	-0.008423	-0.001062	-0.000857	-85.618060	3.571244	58.159999
63921		-0.633418	-9.789909	0.749767	-0.006681	0.003994	-0.000443	-85.618056	3.570131	58.156378
63922		-0.659626	-9.771384	0.761251	-0.005650	-0.002595	-0.004895	-85.617008	3.566403	58.155657
63923		-0.612771	-9.748434	0.777748	-0.005758	-0.001347	-0.002568	-85.616291	3.563842	58.155000
63924		-0.627452	-9.767473	0.773560	-0.007154	0.001060	-0.002908	-85.616263	3.561378	58.152470
63925		-0.600845	-9.786131	0.760637	-0.009756	-0.000921	-0.000001	-85.617845	3.560302	58.151681
63926		-0.627240	-9.767629	0.771754	-0.010400	-0.000341	-0.001335	-85.619652	3.558592	58.150709
63927		-0.600642	-9.786298	0.758639	-0.010400	-0.000342	-0.001335	-85.621627	3.556779	58.149531
63928		-0.626932	-9.767804	0.769792	-0.009068	-0.000484	-0.002190	-85.622750	3.554458	58.149735
63929		-0.595238	-9.763841	0.782404	-0.009005	-0.002749	-0.000995	-85.623838	3.552734	58.149950
63930		-0.600270	-9.786543	0.755766	-0.012485	0.001626	0.000515	-85.626945	3.552124	58.148404
63931		-0.601802	-9.752719	0.748530	-0.005759	-0.001348	-0.002567	-85.626228	3.549563	58.147748
63932		-0.636390	-9.764468	0.788254	-0.009757	-0.000923	-0.000000	-85.627586	3.548647	58.146749
63933		-0.624822	-9.802084	0.771686	-0.008424	-0.001065	-0.000856	-85.628402	3.547076	58.146006
63934		-0.621413	-9.745634	0.790175	-0.007717	-0.003911	0.001672	-85.628573	3.546830	58.148147
63935		-0.619773	-9.779592	0.795825	-0.006511	0.000479	-0.001572	-85.628349	3.544917	58.146489
63936		-0.609878	-9.783284	0.773115	-0.007717	-0.003911	0.001672	-85.628249	3.544869	58.147093
63937		-0.611592	-9.749414	0.766309	-0.002494	-0.003230	0.000578	-85.625586	3.544023	58.147652
63938		-0.600376	-9.786979	0.750016	-0.009909	-0.000697	0.005852	-85.627161	3.546457	58.146723
63939		-0.627077	-9.768464	0.761248	-0.008425	-0.001066	-0.000855	-85.627977	3.544886	58.145980
63940		-0.627196	-9.768525	0.760367	-0.009802	-0.001944	0.003524	-85.629382	3.545853	58.146376
63941		-0.637366	-9.764946	0.781515	-0.008469	-0.002086	0.002668	-85.630178	3.546251	58.146371
63942		-0.612832	-9.749657	0.762215	-0.009221	-0.000259	0.003663	-85.631222	3.547479	58.144998
63943		-0.616638	-9.806195	0.742089	-0.007826	-0.002667	0.004001	-85.631624	3.548613	58.145385
63944		-0.603674	-9.753344	0.738805	-0.003935	-0.001844	0.003762	-85.629656	3.549786	58.145232
63945		-0.638752	-9.765079	0.778716	-0.007826	-0.002667	0.004001	-85.630058	3.550920	58.145619
63946		-0.622718	-9.780033	0.788073	-0.003398	-0.001179	0.007424	-85.627960	3.554200	58.145207
63947		-0.629986	-9.768701	0.755789	-0.004453	-0.005796	0.004816	-85.626317	3.555663	58.147421
63948		-0.623497	-9.780045	0.787300	-0.004472	-0.002509	0.000100	-85.624495	3.554828	58.146616
63949		-0.613916	-9.783674	0.764938	-0.002647	-0.003006	0.006429	-85.621911	3.557334	58.147303
63950		-0.624399	-9.780034	0.786729	-0.002647	-0.003007	0.006429	-85.619182	3.560043	58.147377
63951		-0.631683	-9.768693	0.754471	-0.004624	-0.002285	0.005952	-85.617758	3.562308	58.147630
63952		-0.627239	-9.746114	0.779578	-0.006475	-0.006097	0.007862	-85.616999	3.565679	58.149745
63953		-0.611244	-9.761076	0.788914	-0.005268	-0.001704	0.004619	-85.615968	3.567208	58.149608
63954		-0.643127	-9.765078	0.775120	-0.001789	-0.006079	0.003104	-85.612731	3.567726	58.152616
63955		-0.626979	-9.780039	0.784604	-0.007120	-0.005516	0.006530	-85.612620	3.570180	58.154745
63956		-0.660586	-9.750135	0.764303	-0.004517	-0.003531	0.003623	-85.610852	3.571284	58.154826
63957		-0.619504	-9.749772	0.755321	-0.004517	-0.003531	0.003624	-85.609329	3.572164	58.155691
63958		-0.618162	-9.783702	0.761154	-0.005162	-0.002950	0.002291	-85.607936	3.572477	58.155894
63959		-0.628301	-9.780098	0.782813	-0.003122	-0.005939	0.003960	-85.605527	3.573444	58.158152
63960		-0.628516	-9.780111	0.782478	-0.004411	-0.004776	0.001294	-85.603544	3.572961	58.160627
63961		-0.628746	-9.780142	0.781903	-0.007827	-0.002669	0.004004	-85.603946	3.574097	58.161015
63962		-0.630766	-9.746250	0.775021	-0.004686	-0.000020	0.004760	-85.602524	3.575860	58.160313
63963		-0.624309	-9.757646	0.806193	-0.010862	-0.006563	0.000920	-85.604535	3.575063	58.162794
63964		-0.621225	-9.749959	0.751484	-0.005224	-0.000683	0.001098	-85.603291	3.574757	58.161976
63965		-0.619831	-9.783902	0.757218	-0.005913	-0.001124	0.003288	-85.602654	3.575551	58.161449
63966		-0.629888	-9.780324	0.778695	-0.005806	-0.002369	0.000958	-85.601854	3.574929	58.162784
63967		-0.646591	-9.765393	0.768235	-0.006557	-0.000543	0.001955	-85.601610	3.574987	58.161865
63968		-0.630137	-9.780405	0.777481	-0.006389	-0.004055	0.000818	-85.601013	3.574472	58.162024
63969		-0.630255	-9.780447	0.776863	-0.006557	-0.000543	0.001955	-85.600769	3.574531	58.161105
63970		-0.620568	-9.784092	0.754160	-0.007139	-0.002229	0.001815	-85.600587	3.574448	58.162213
63971		-0.645570	-9.799469	0.771992	-0.005745	-0.004637	0.002151	-85.599731	3.574439	58.163647
63972		-0.642141	-9.743043	0.790850	-0.005287	0.001585	-0.000094	-85.598663	3.573730	58.159897
63973		-0.630795	-9.780609	0.774369	-0.009055	-0.003776	0.002533	-85.599734	3.573976	58.160854
63974		-0.637593	-9.769285	0.741729	-0.006451	-0.001787	-0.000374	-85.599056	3.572828	58.160290
63975		-0.615926	-9.761781	0.776460	-0.009699	-0.003194	0.001200	-85.600521	3.572338	58.160855
63976		-0.616087	-9.761846	0.775514	-0.009867	0.000318	0.002338	-85.602022	3.572876	58.158682
63977		-0.621514	-9.784422	0.749079	-0.006434	-0.005082	0.004341	-85.601539	3.574098	58.160467
63978		-0.641374	-9.777283	0.792462	-0.008429	-0.001066	-0.000849	-85.602315	3.572605	58.160109
63979		-0.638387	-9.769533	0.737763	-0.007246	-0.000988	0.004146	-85.602444	3.573896	58.159541
63980		-0.641707	-9.777370	0.791118	-0.005057	-0.004196	-0.000039	-85.600995	3.572689	58.161549
63981		-0.632096	-9.780987	0.768519	-0.006602	-0.001571	0.005479	-85.600731	3.574715	58.161374
63982		-0.594200	-9.788468	0.813119	-0.009056	-0.003778	0.002533	-85.601478	3.575107	58.162384
63983		-0.634130	-9.747154	0.760779	-0.007035	-0.003474	-0.000514	-85.601410	3.573626	58.163034
63984		-0.622728	-9.784711	0.744283	-0.007141	-0.002232	0.001817	-85.601246	3.573695	58.162814
63985		-0.617748	-9.762237	0.769240	-0.007723	-0.003918	0.001676	-85.601551	3.573446	58.163815
63986		-0.642593	-9.777659	0.786824	-0.009825	0.001342	-0.001181	-85.603079	3.571879	58.162116
63987		-0.624510	-9.750955	0.735681	-0.007141	-0.002232	0.001817	-85.603109	3.571785	58.162158
63988		-0.616345	-9.796338	0.773074	-0.007724	-0.003919	0.001676	-85.603053	3.571631	58.163652
63989		-0.637740	-9.755305	0.810321	-0.005808	-0.002372	0.000959	-85.602317	3.571040	58.163737
63990		-0.627945	-9.758930	0.787619	-0.007786	-0.001650	0.000485	-85.602552	3.570314	58.163651
63991		-0.633125	-9.781491	0.761217	-0.007203	0.000036	0.000626	-85.602702	3.569638	58.162343
63992		-0.634856	-9.747616	0.754230	-0.009057	-0.003781	0.002534	-85.603701	3.570077	58.162696
63993		-0.611637	-9.774095	0.795123	-0.007848	0.000619	-0.000706	-85.604246	3.568666	58.160996
63994		-0.618054	-9.762743	0.762544	-0.006825	-0.005959	-0.005175	-85.603941	3.564440	58.163648
63995		-0.617859	-9.762807	0.761887	-0.007141	-0.002234	0.001818	-85.603972	3.564346	58.163691
63996		-0.642602	-9.778239	0.779572	-0.008326	-0.002309	-0.003177	-85.604490	3.561462	58.164135
63997		-0.617586	-9.762937	0.760437	-0.006454	-0.001790	-0.000372	-85.604149	3.560137	58.163828
63998		-0.610955	-9.774424	0.791595	-0.008474	-0.002097	0.002676	-85.604706	3.560556	58.164887
63999		-0.626105	-9.793416	0.787091	-0.009702	-0.003200	0.001203	-85.606172	3.560069	58.165457
64000		-0.642906	-9.778485	0.776224	-0.012306	-0.005193	0.004110	-85.608807	3.561272	58.167504
64001		-0.633171	-9.782125	0.752998	-0.011804	0.002062	-0.001651	-85.611671	3.559385	58.164937
64002		-0.634415	-9.748283	0.745925	-0.006827	-0.005959	-0.005176	-85.611304	3.555196	58.167284
64003		-0.600938	-9.778371	0.764748	-0.009827	0.001339	-0.001177	-85.613008	3.553547	58.165151
64004		-0.632446	-9.782370	0.750416	-0.008370	-0.003340	0.000345	-85.613494	3.552826	58.164746
64005		-0.617433	-9.763518	0.753062	-0.012326	-0.001897	-0.000601	-85.616513	3.551365	58.164490
64006		-0.625611	-9.793991	0.780302	-0.007849	0.000616	-0.000703	-85.617032	3.550171	58.161889
64007		-0.610602	-9.775126	0.783161	-0.008370	-0.003341	0.000345	-85.617732	3.549187	58.162501
64008		-0.643545	-9.745190	0.762749	-0.008390	-0.000040	-0.004365	-85.618433	3.545779	58.161048
64009		-0.616829	-9.763823	0.749602	-0.010181	-0.006131	-0.001270	-85.620076	3.543750	58.163186
64010		-0.641214	-9.779332	0.766903	-0.013345	-0.005482	-0.006737	-85.623628	3.538676	58.165137
64011		-0.609022	-9.775531	0.779322	-0.008223	-0.003552	-0.005507	-85.624253	3.534339	58.165614
64012		-0.613644	-9.798073	0.752970	-0.005080	-0.000900	-0.004750	-85.623019	3.530795	58.163605
64013		-0.624949	-9.760654	0.768404	-0.005164	-0.002962	0.002292	-85.621890	3.530940	58.164086
64014		-0.586932	-9.768246	0.813086	-0.007830	-0.002687	0.004009	-85.621973	3.532126	58.165435
64015		-0.609312	-9.775712	0.776821	-0.007978	-0.002479	0.009862	-85.622453	3.536617	58.165971
64016		-0.615156	-9.749731	0.823779	-0.009353	-0.003374	0.014242	-85.623548	3.543601	58.168016
64017		-0.638168	-9.757160	0.787323	-0.010582	-0.004477	0.012769	-85.625442	3.549665	58.169823
64018		-0.622936	-9.772172	0.796116	-0.010104	-0.001552	0.015244	-85.626804	3.557652	58.168182
64019		-0.629671	-9.794591	0.769432	-0.009981	-0.006096	0.017622	-85.628282	3.566418	58.171128
64020		-0.617682	-9.741723	0.765901	-0.012562	-0.003758	0.012299	-85.631147	3.572136	58.174556
64021		-0.655489	-9.768078	0.725375	-0.015769	-0.004138	0.010354	-85.636030	3.576836	58.176063
64022		-0.629537	-9.738290	0.785270	-0.012459	-0.004998	0.009967	-85.638470	3.581505	58.177720
64023		-0.645287	-9.757249	0.780397	-0.013000	-0.005652	0.006303	-85.641723	3.583825	58.179916
64024		-0.629174	-9.772376	0.788678	-0.018186	-0.005310	0.003887	-85.647789	3.585041	58.180710
64025		-0.646046	-9.757466	0.777049	-0.020748	-0.006276	0.003274	-85.655467	3.585603	58.183130
64026		-0.656057	-9.754129	0.796874	-0.026458	-0.009894	0.001903	-85.666376	3.585563	58.185524
64027		-0.646166	-9.757869	0.771865	-0.034495	-0.002463	-0.002354	-85.682082	3.583076	58.185518
64028		-0.677078	-9.762038	0.755023	-0.035641	-0.001495	-0.010866	-85.698439	3.575903	58.184504
64029		-0.618050	-9.777049	0.752724	-0.034248	-0.003908	-0.010538	-85.713974	3.568678	58.184975
64030		-0.658078	-9.777765	0.758167	-0.031603	-0.000873	-0.016962	-85.728015	3.558199	58.182129
64031		-0.656418	-9.778099	0.755294	-0.027124	0.001642	-0.017062	-85.739683	3.547484	58.179147
64032		-0.603591	-9.781504	0.721360	-0.038231	0.000830	-0.016178	-85.757398	3.537484	58.175757
64033		-0.611959	-9.778410	0.739902	-0.033857	0.004581	-0.013943	-85.773017	3.528673	58.171231
64034		-0.637120	-9.760251	0.748929	-0.034319	-0.001658	-0.011717	-85.788721	3.521048	58.169931
64035		-0.576210	-9.809172	0.752824	-0.030382	0.000211	-0.015480	-85.802198	3.511174	58.167847
64036		-0.598483	-9.782762	0.708447	-0.028070	0.002605	-0.006676	-85.814335	3.506648	58.163882
64037		-0.581512	-9.798014	0.715786	-0.020193	-0.001315	-0.001282	-85.821885	3.504822	58.163270
64038		-0.588248	-9.786478	0.682468	-0.011108	-0.000819	0.000884	-85.823941	3.504291	58.163429
64039		-0.596938	-9.817072	0.709655	-0.006647	-0.002651	0.009004	-85.823656	3.508287	58.164012
64040		-0.592747	-9.794699	0.735433	0.005524	0.002776	0.010746	-85.816530	3.513744	58.160435
64041		-0.598858	-9.768836	0.783943	0.006315	-0.005676	0.019143	-85.808686	3.523407	58.163175
64042		-0.619155	-9.767736	0.694697	-0.003480	-0.003311	0.014466	-85.806364	3.530580	58.164643
64043		-0.612585	-9.813227	0.732749	0.009357	-0.001790	0.022240	-85.796904	3.542175	58.165291
64044		-0.617798	-9.745089	0.721711	0.008649	0.001070	0.019728	-85.787704	3.552576	58.164223
64045		-0.633052	-9.797776	0.724806	0.009336	0.001522	0.017539	-85.778386	3.561625	58.162780
64046		-0.645990	-9.760206	0.741883	0.010188	-0.001533	0.014198	-85.768537	3.568643	58.163831
64047		-0.632129	-9.741164	0.746587	0.009585	0.000095	0.009350	-85.759048	3.572951	58.162860
64048		-0.623076	-9.744470	0.725529	0.011607	0.000414	0.006300	-85.748302	3.575582	58.162182
64049		-0.658450	-9.756382	0.766749	0.003933	-0.005799	0.009160	-85.741841	3.579532	58.164579
64050		-0.627565	-9.752517	0.780291	-0.002125	0.000914	0.005386	-85.738998	3.581780	58.162661
64051		-0.608289	-9.759399	0.735741	-0.005755	-0.004660	0.002146	-85.738147	3.581771	58.164107
64052		-0.611618	-9.767646	0.788908	-0.009232	-0.000296	0.003689	-85.739572	3.582919	58.163184
64053		-0.644960	-9.737552	0.768436	-0.012502	0.001600	0.000562	-85.742815	3.582271	58.160979
64054		-0.633786	-9.775034	0.751151	-0.011211	0.000424	0.003221	-85.744906	3.583219	58.159839
64055		-0.591323	-9.808676	0.747553	-0.007357	0.000214	0.006494	-85.745136	3.585902	58.158680
64056		-0.599037	-9.796980	0.715495	0.001747	-0.002615	0.013362	-85.739854	3.592484	58.159759
64057		-0.625323	-9.812317	0.734172	0.004792	0.001269	0.016458	-85.733135	3.600904	58.158421
64058		-0.622030	-9.789829	0.760665	0.009128	0.003977	0.022213	-85.724074	3.612953	58.154737
64059		-0.599622	-9.774164	0.743265	0.010537	-0.001752	0.027240	-85.713925	3.627405	58.155594
64060		-0.649084	-9.796555	0.727131	0.010855	0.004673	0.030875	-85.703507	3.644393	58.152556
64061		-0.608701	-9.781826	0.799374	0.014063	0.005044	0.032821	-85.691569	3.662326	58.149767
64062		-0.640540	-9.777074	0.733338	0.012785	0.002899	0.034868	-85.679965	3.681630	58.146780
64063		-0.663619	-9.769834	0.778654	0.010863	0.001344	0.035585	-85.669718	3.700984	58.146237
64064		-0.631171	-9.791541	0.745448	0.014771	-0.001153	0.040047	-85.656862	3.722879	58.147526
64065		-0.645037	-9.787687	0.769025	0.015839	0.003446	0.042676	-85.643821	3.746375	58.146097
64066		-0.629723	-9.876282	0.659243	0.026711	-0.000991	0.059404	-85.624108	3.779401	58.147554
64067		-0.719157	-9.793903	0.747862	0.047539	-0.000344	0.062027	-85.592706	3.813786	58.149163
64068		-0.704613	-9.751953	0.781913	0.045225	-0.006061	0.057936	-85.562251	3.845510	58.155591
64069		-0.694886	-9.732404	0.789837	0.040724	-0.005263	0.053335	-85.534586	3.874710	58.159664
64070		-0.683423	-9.746860	0.803701	0.043331	-0.003277	0.050433	-85.505514	3.902399	58.162971
64071		-0.704730	-9.731032	0.797976	0.038784	-0.003516	0.049354	-85.479035	3.929399	58.165894
64072		-0.677861	-9.726740	0.815129	0.037008	-0.008582	0.048930	-85.453183	3.955709	58.174762
64073		-0.723762	-9.726175	0.827292	0.034283	-0.002720	0.044753	-85.429324	3.980115	58.177044
64074		-0.723790	-9.751540	0.782884	0.034971	-0.005597	0.047280	-85.404622	4.005728	58.183275
64075		-0.717399	-9.706175	0.837469	0.028553	-0.006328	0.043392	-85.383902	4.029189	58.187579
64076		-0.736410	-9.724435	0.836533	0.026136	-0.007478	0.036920	-85.364523	4.049033	58.191951
64077		-0.698337	-9.724029	0.830054	0.017746	-0.007469	0.032557	-85.349980	4.066250	58.196420
64078		-0.752190	-9.720006	0.862519	0.016615	-0.006480	0.024030	-85.335746	4.078782	58.200224
64079		-0.718302	-9.742196	0.829421	0.008820	-0.004780	0.019807	-85.326468	4.088843	58.202566
64080		-0.736446	-9.726823	0.820329	0.004380	-0.006230	0.016386	-85.319389	4.097256	58.203742
64081		-0.706265	-9.723099	0.834231	0.005072	-0.005781	0.014193	-85.312235	4.104063	58.206396
64082		-0.696579	-9.760573	0.818667	0.001718	-0.002629	0.013390	-85.306904	4.110490	58.208971
64083		-0.749015	-9.756732	0.849610	0.001717	-0.002629	0.013390	-85.301803	4.116986	58.209784
64084		-0.736268	-9.703947	0.846860	-0.006721	-0.003650	0.012552	-85.301550	4.122945	58.211924
64085		-0.720794	-9.719133	0.855949	-0.007902	-0.003699	0.007550	-85.301936	4.126055	58.213075
64086		-0.751664	-9.756676	0.847903	-0.009084	-0.003746	0.002548	-85.302952	4.126392	58.214183
64087		-0.726588	-9.741668	0.828401	-0.012879	-0.002466	-0.004259	-85.306280	4.122818	58.214073
64088		-0.725930	-9.741830	0.827072	-0.015199	-0.008158	-0.008351	-85.310492	4.116891	58.216139
64089		-0.749905	-9.757127	0.844269	-0.011395	-0.002799	-0.010982	-85.312979	4.109461	58.215904
64090		-0.774728	-9.738505	0.855344	-0.014551	-0.002112	-0.016455	-85.316998	4.098694	58.218423
64091		-0.716182	-9.720130	0.848463	-0.023433	-0.005010	-0.023295	-85.326333	4.084130	58.218879
64092		-0.770306	-9.739227	0.851113	-0.026690	-0.003094	-0.026430	-85.337151	4.068071	58.218048
64093		-0.701254	-9.724571	0.821197	-0.031085	-0.006825	-0.028657	-85.350815	4.050361	58.219299
64094		-0.686297	-9.796545	0.808245	-0.032520	-0.005458	-0.025456	-85.365080	4.034652	58.220347
64095		-0.696217	-9.807696	0.747821	-0.026749	-0.007474	-0.018181	-85.376199	4.022894	58.222464
64096		-0.682450	-9.797219	0.803317	-0.016434	-0.005946	-0.014539	-85.381052	4.013500	58.223616
64097		-0.717310	-9.775059	0.836329	-0.013967	-0.007086	-0.006874	-85.384827	4.008219	58.226035
64098		-0.701414	-9.756456	0.838620	-0.014759	-0.002985	-0.007058	-85.388942	4.003062	58.227034
64099		-0.706045	-9.779008	0.811125	-0.021276	-0.002474	-0.008610	-85.397094	3.997001	58.226734
64100		-0.689919	-9.760458	0.812911	-0.017819	-0.006856	-0.010149	-85.403155	3.989987	58.228242
64101		-0.704132	-9.779435	0.807632	-0.015994	-0.004080	-0.008531	-85.408217	3.983898	58.228867
64102		-0.704557	-9.745655	0.800055	-0.015995	-0.004081	-0.008531	-85.412976	3.978219	58.227397
64103		-0.703617	-9.745853	0.798469	-0.017229	-0.005175	-0.010005	-85.418707	3.971238	58.228581
64104		-0.686189	-9.761272	0.806277	-0.022463	-0.005853	-0.008892	-85.427207	3.964885	58.231122
64105		-0.678390	-9.773165	0.836058	-0.019308	0.000110	-0.012847	-85.434347	3.956522	58.229152
64106		-0.705846	-9.768863	0.767012	-0.017231	-0.005179	-0.010003	-85.440171	3.949469	58.231521
64107		-0.657063	-9.780657	0.788362	-0.018712	-0.004859	-0.003279	-85.446743	3.946344	58.232835
64108		-0.707708	-9.777348	0.817539	-0.015506	-0.001172	-0.006047	-85.451535	3.941977	58.231400
64109		-0.687872	-9.784516	0.772244	-0.007059	-0.003458	-0.000506	-85.451477	3.940500	58.232038
64110		-0.681255	-9.796232	0.803392	-0.006515	-0.002821	0.003162	-85.451031	3.941244	58.232605
64111		-0.692501	-9.758759	0.818992	-0.004441	-0.004782	0.001293	-85.449415	3.940734	58.234083
64112		-0.692568	-9.758797	0.818493	-0.006417	-0.004051	0.000825	-85.448986	3.940158	58.234454
64113		-0.689488	-9.750709	0.763822	-0.010219	-0.006099	-0.001261	-85.450636	3.938130	58.236570
64114		-0.682682	-9.762485	0.794470	-0.013678	-0.001723	0.000285	-85.454268	3.937361	58.235843
64115		-0.682611	-9.762587	0.793277	-0.011012	-0.001998	-0.001440	-85.456535	3.935417	58.235603
64116		-0.675836	-9.774363	0.824043	-0.010318	-0.004871	0.001076	-85.458126	3.935043	58.235964
64117		-0.708827	-9.744042	0.803624	-0.012294	-0.004141	0.000609	-85.461037	3.934172	58.237044
64118		-0.693512	-9.725376	0.806131	-0.012839	-0.004777	-0.003059	-85.464246	3.931091	58.239901
64119		-0.708239	-9.744296	0.801059	-0.016050	-0.005140	-0.005000	-85.469287	3.926971	58.241299
64120		-0.692484	-9.725697	0.803126	-0.018078	-0.002131	-0.006652	-85.475314	3.922260	58.240360
64121		-0.690220	-9.759885	0.807419	-0.016549	-0.004727	-0.012191	-85.480680	3.914052	58.241196
64122		-0.688859	-9.760113	0.805822	-0.017043	-0.007643	-0.014673	-85.485857	3.904781	58.240931
64123		-0.679079	-9.729844	0.776145	-0.017142	-0.006416	-0.012334	-85.491498	3.896416	58.242729
64124		-0.702335	-9.745422	0.792514	-0.025496	-0.005364	-0.020204	-85.501902	3.883685	58.243873
64125		-0.683857	-9.760981	0.799546	-0.028808	-0.004503	-0.019805	-85.514324	3.871139	58.244243
64126		-0.666630	-9.742589	0.800233	-0.033999	-0.004142	-0.022210	-85.529471	3.857430	58.243924
64127		-0.678050	-9.795793	0.799196	-0.032570	-0.005511	-0.025409	-85.544026	3.841638	58.244626
64128		-0.670171	-9.855871	0.753927	-0.032867	-0.001832	-0.018392	-85.558613	3.829964	58.245188
64129		-0.661558	-9.791610	0.717678	-0.015276	-0.002597	-0.014231	-85.563338	3.820687	58.244726
64130		-0.648161	-9.781324	0.774099	-0.009442	-0.003553	-0.010497	-85.563817	3.813655	58.245784
64131		-0.677731	-9.737215	0.833295	-0.017451	0.000583	-0.010017	-85.569896	3.806925	58.243689
64132		-0.662692	-9.766480	0.761619	-0.014677	-0.004246	-0.009380	-85.574213	3.800515	58.243786
64133		-0.656302	-9.744460	0.785867	-0.019224	-0.004481	-0.010455	-85.581117	3.793312	58.244573
64134		-0.670376	-9.763480	0.780219	-0.020022	-0.000381	-0.010626	-85.588793	3.786608	58.240114
64135		-0.659631	-9.767120	0.756050	-0.021947	-0.001937	-0.009907	-85.597351	3.779830	58.239470
64136		-0.678116	-9.760547	0.798178	-0.021948	-0.001938	-0.009906	-85.605468	3.772978	58.240790
64137		-0.665796	-9.798210	0.779629	-0.024474	-0.001847	-0.014037	-85.615489	3.763845	58.239916
64138		-0.671325	-9.786671	0.745532	-0.023983	0.001064	-0.011549	-85.624887	3.756352	58.238167
64139		-0.649492	-9.745943	0.773024	-0.021011	-0.006217	-0.015594	-85.632763	3.746138	58.239729
64140		-0.663394	-9.764982	0.767291	-0.019917	-0.004954	-0.008259	-85.639584	3.740548	58.239232
64141		-0.662396	-9.765198	0.765401	-0.019285	-0.002212	-0.011630	-85.646610	3.732773	58.238676
64142		-0.661306	-9.765415	0.763565	-0.018641	-0.002807	-0.010302	-85.652955	3.725681	58.240170
64143		-0.669957	-9.762286	0.783679	-0.023190	-0.003047	-0.011375	-85.662186	3.718016	58.240106
64144		-0.644060	-9.747088	0.763067	-0.023345	0.000458	-0.010214	-85.671479	3.711316	58.237890
64145		-0.648549	-9.769486	0.734765	-0.025747	-0.007353	-0.007286	-85.682005	3.705801	58.240471
64146		-0.631077	-9.784928	0.741995	-0.022603	-0.001364	-0.011224	-85.691019	3.698606	58.237621
64147		-0.640097	-9.781791	0.762105	-0.018939	0.000860	-0.003278	-85.697937	3.695735	58.235674
64148		-0.672774	-9.751549	0.741129	-0.019375	-0.004336	-0.004588	-85.704898	3.692182	58.234965
64149		-0.639379	-9.782134	0.758300	-0.020807	-0.002983	-0.001382	-85.712739	3.690229	58.235300
64150		-0.654204	-9.801117	0.752429	-0.021510	-0.000108	-0.003886	-85.720779	3.687423	58.231188
64151		-0.655212	-9.767288	0.744633	-0.020767	-0.001928	-0.004899	-85.728645	3.683506	58.230768
64152		-0.661744	-9.755549	0.711076	-0.017650	-0.000335	-0.000621	-85.734697	3.682192	58.229942
64153		-0.628495	-9.786111	0.728469	-0.016963	0.000129	-0.002812	-85.740454	3.679555	58.228435
64154		-0.643466	-9.805029	0.723226	-0.012300	-0.004196	0.000614	-85.743721	3.678674	58.230612
64155		-0.628469	-9.786287	0.726118	-0.007161	-0.002266	0.001836	-85.743760	3.678590	58.230674
64156		-0.621912	-9.798241	0.757057	-0.008439	-0.004420	0.003878	-85.744198	3.679583	58.233238
64157		-0.629264	-9.786327	0.724890	-0.002007	-0.003680	0.007752	-85.741216	3.682820	58.234362
64158		-0.641107	-9.748960	0.741337	0.001841	-0.000561	0.006320	-85.735708	3.685460	58.234341
64159		-0.650039	-9.779623	0.769362	0.001307	-0.004533	0.007347	-85.730797	3.688428	58.235937
64160		-0.642502	-9.748861	0.741434	-0.003341	-0.003551	0.008617	-85.728404	3.691968	58.239779
64161		-0.673370	-9.786429	0.733578	-0.001319	-0.003215	0.005560	-85.725052	3.693971	58.240544
64162		-0.627176	-9.764016	0.750824	0.002051	-0.006351	0.006333	-85.719472	3.696500	58.242413
64163		-0.642600	-9.782784	0.747107	-0.000534	-0.003972	0.001028	-85.715654	3.695881	58.243418
64164		-0.643103	-9.782741	0.747240	0.002599	-0.005724	0.010000	-85.709652	3.700559	58.245009
64165		-0.643913	-9.782670	0.747464	0.001307	-0.004534	0.007348	-85.704740	3.703527	58.246608
64166		-0.650393	-9.723184	0.789972	-0.000027	-0.004405	0.008214	-85.700415	3.707307	58.246607
64167		-0.664809	-9.775957	0.791762	-0.002598	-0.005370	0.007604	-85.697709	3.710385	58.248695
64168		-0.646167	-9.782549	0.747107	-0.005265	-0.005111	0.009335	-85.696439	3.714408	58.252157
64169		-0.625018	-9.775665	0.782177	-0.003987	-0.002957	0.007293	-85.694619	3.717412	58.252851
64170		-0.651693	-9.757132	0.794356	-0.005773	-0.004678	0.002150	-85.693551	3.717831	58.251855
64171		-0.664295	-9.767326	0.736034	-0.008538	-0.003197	0.006223	-85.694332	3.720213	58.252640
64172		-0.674465	-9.764056	0.757309	-0.009830	-0.002006	0.003570	-85.695911	3.721287	58.252243
64173		-0.648425	-9.782658	0.743709	-0.010324	-0.004917	0.001080	-85.697667	3.720657	58.253791
64174		-0.649942	-9.748691	0.737165	-0.007754	-0.003954	0.001689	-85.697764	3.720580	58.254596
64175		-0.643138	-9.760707	0.767849	-0.012951	-0.003598	-0.000706	-85.701078	3.718986	58.255312
64176		-0.664997	-9.767646	0.731136	-0.012360	-0.001910	-0.000556	-85.703823	3.717757	58.254475
64177		-0.648268	-9.783013	0.739169	-0.018149	-0.003243	-0.003101	-85.710135	3.714811	58.254885
64178		-0.683740	-9.761370	0.772064	-0.021422	-0.001328	-0.006212	-85.718444	3.710067	58.255986
64179		-0.663798	-9.768146	0.725531	-0.024090	-0.001072	-0.004479	-85.728245	3.706426	58.255095
64180		-0.698930	-9.746587	0.757886	-0.026580	0.000089	-0.012123	-85.739186	3.698543	58.253938
64181		-0.660313	-9.721347	0.794158	-0.036347	0.003548	-0.020277	-85.756222	3.686071	58.249730
64182		-0.682921	-9.737370	0.808276	-0.049318	0.003284	-0.025671	-85.780658	3.670491	58.246462
64183		-0.608556	-9.781449	0.733133	-0.061840	0.004857	-0.025051	-85.812359	3.655342	58.241315
64184		-0.632243	-9.763567	0.740037	-0.055920	0.006027	-0.028360	-85.840376	3.638809	58.232769
64185		-0.553733	-9.832658	0.616911	-0.049357	-0.001165	-0.017452	-85.864683	3.627749	58.231400
64186		-0.624179	-9.789657	0.683121	-0.022744	0.003189	-0.013541	-85.873757	3.619177	58.228026
64187		-0.561204	-9.829947	0.633336	-0.021628	0.001077	-0.001517	-85.882215	3.617315	58.226036
64188		-0.643119	-9.783536	0.724093	-0.002652	-0.003104	0.006421	-85.879284	3.620079	58.225821
64189		-0.642715	-9.736384	0.797744	-0.011266	-0.000691	0.006783	-85.881720	3.622887	58.225186
64190		-0.660985	-9.768334	0.712714	-0.014583	0.000155	0.007193	-85.885778	3.625940	58.225449
64191		-0.634161	-9.739731	0.772674	-0.019097	0.000976	0.002611	-85.892771	3.626432	58.223687
64192		-0.649384	-9.758707	0.766275	-0.031580	0.003612	-0.000284	-85.906739	3.625531	58.220234
64193		-0.605308	-9.749708	0.700155	-0.040616	-0.002528	0.003441	-85.925933	3.626354	58.220513
64194		-0.560399	-9.855731	0.571464	-0.015548	-0.000035	0.021105	-85.930858	3.637319	58.221459
64195		-0.525079	-9.783080	0.684886	0.006665	-0.007209	0.035656	-85.922707	3.656363	58.225732
64196		-0.525569	-9.807847	0.638074	0.022021	-0.014702	0.063922	-85.904986	3.691438	58.235272
64197		-0.582334	-9.838364	0.678212	0.049916	-0.019360	0.083373	-85.871471	3.737249	58.248481
64198		-0.647589	-9.856433	0.688806	0.062305	-0.027553	0.098004	-85.830259	3.791441	58.265075
64199		-0.633384	-9.920929	0.609614	0.092214	-0.038659	0.123799	-85.771628	3.859523	58.291107
64200		-0.414006	-10.326268	0.433317	0.114198	-0.040117	0.193833	-85.699773	3.967433	58.322931
64201		-0.575052	-10.022231	0.613484	0.210286	-0.042774	0.257710	-85.572801	4.111764	58.357377
64202		-0.517817	-10.005866	0.698825	0.250384	-0.052856	0.312132	-85.421975	4.286839	58.399738
64203		-0.226583	-10.055340	0.768170	0.288057	-0.024946	0.387531	-85.250488	4.505953	58.430811
64204		-0.136980	-9.929709	1.077569	0.292159	0.023188	0.497766	-85.078488	4.790120	58.441527
64205		-0.299388	-9.633431	1.380542	0.144538	0.012401	0.614965	-84.989694	5.140741	58.463710
64206		-0.561161	-11.038230	-0.002128	0.252432	0.072759	0.782268	-84.841076	5.590064	58.459752
64207		-0.159490	-11.526022	0.016514	0.450268	0.031979	0.955705	-84.575853	6.135986	58.490841
64208		-0.107620	-11.917317	0.978643	0.530500	0.069006	1.182885	-84.264800	6.812890	58.519219
64209		-0.037499	-12.571734	1.011259	0.684414	0.125057	1.403319	-83.867261	7.619033	58.529819
64210		-0.552298	-12.498817	0.917012	0.660877	0.114383	1.649520	-83.479232	8.564394	58.568580
64211		-1.455931	-12.177360	1.264619	0.704615	0.146570	1.878091	-83.064826	9.641908	58.610420
64212		-1.316629	-10.377169	2.419426	0.448571	0.148906	1.984184	-82.793360	10.777547	58.671859
64213		-0.301106	-13.468696	1.010650	0.339209	0.177527	2.235557	-82.582665	12.059990	58.733854
64214		-0.879176	-12.144965	1.601655	0.333028	0.195691	2.539534	-82.368192	13.512572	58.823281
64215		-1.226462	-11.712824	1.649816	0.286423	0.208575	2.758978	-82.176358	15.094107	58.919017
64216		-2.202497	-12.368949	1.108569	0.232457	0.167975	2.950206	-81.999890	16.779662	59.061819
64217		-2.205733	-14.808348	0.854414	0.390354	0.067263	3.020680	-81.706737	18.497435	59.277691
64218		-2.916993	-13.068223	1.142381	0.947622	0.162593	3.106618	-81.098870	20.270168	59.460652
64219		-3.437232	-11.046741	0.599261	0.652976	0.082807	3.219901	-80.625789	22.098236	59.723121
64220		-3.007513	-10.820261	0.367131	0.591605	0.009250	3.290118	-80.151715	23.956599	60.057904
64221		-3.524488	-10.526191	0.641416	0.797925	-0.022777	3.274581	-79.531670	25.800188	60.435244
64222		-4.070268	-8.713421	0.587826	0.763924	-0.086704	3.254085	-78.890409	27.621212	60.878963
64223		-4.365864	-8.670885	0.304604	0.785859	-0.151764	3.108776	-78.198606	29.348799	61.376760
64224		-0.413234	-8.609831	-0.109854	0.845481	-0.259492	2.793200	-77.430747	30.880603	61.933568
64225		2.269355	-7.826517	-0.855095	0.953572	-0.263900	2.277052	-76.611345	32.117146	62.448312
64226		4.112027	-7.563583	-2.063448	1.015705	-0.144239	1.725326	-75.824579	33.056257	62.821260
64227		1.497675	-7.974895	-1.853304	0.597208	0.049387	0.853660	-75.417535	33.536281	62.932024
64228		3.396173	-7.090803	-1.360463	-0.016372	0.157937	-0.180032	-75.499272	33.457680	62.794027
64229		3.142908	-8.432185	-1.335011	-0.525993	0.163899	-0.958201	-75.945718	32.947993	62.521695
64230		2.669712	-8.528797	-0.778316	-0.693285	0.167796	-1.530304	-76.532878	32.117494	62.161650
64231		2.191873	-7.648830	-0.357030	-0.704545	0.152039	-1.894669	-77.137678	31.079472	61.770087
64232		1.716512	-6.401301	0.008610	-0.716424	0.113711	-2.027603	-77.731962	29.957753	61.401039
64233		1.403744	-5.762486	0.326200	-0.820429	0.049418	-2.028405	-78.350054	28.825800	61.091209
64234		1.279772	-6.010198	0.453613	-0.954273	-0.004162	-1.966583	-79.011760	27.718312	60.840975
64235		1.367016	-6.964335	0.568002	-1.037593	-0.046473	-1.905564	-79.693089	26.639500	60.642034
64236		1.532274	-7.970097	0.748990	-1.056675	-0.051810	-1.873949	-80.372453	25.574528	60.465930
64237		1.568718	-8.934380	0.916626	-1.026433	-0.019402	-1.906191	-81.034444	24.493995	60.281775
64238		1.562615	-9.711283	1.051395	-0.973841	0.040841	-1.986706	-81.675730	23.369589	60.067639
64239		1.384419	-10.238000	1.121928	-0.908336	0.125797	-2.080732	-82.292513	22.198167	59.808427
64240		1.084842	-10.588409	1.180511	-0.846377	0.208562	-2.171308	-82.884863	20.977131	59.506851
64241		0.707584	-11.052405	1.173770	-0.797936	0.295670	-2.273894	-83.458290	19.702690	59.160819
64242		0.344994	-11.622029	1.263220	-0.722342	0.361933	-2.383982	-83.991702	18.364646	58.783357
64243		-0.069549	-12.033076	1.263961	-0.631976	0.428190	-2.498170	-84.473726	16.964190	58.374844
64244		-0.441140	-12.141762	1.319050	-0.564466	0.479293	-2.611933	-84.913832	15.496336	57.944510
64245		-0.826859	-12.275888	1.359595	-0.534421	0.512674	-2.709532	-85.328044	13.973467	57.504000
64246		-1.249949	-12.488663	1.381752	-0.537834	0.534720	-2.777317	-85.733525	12.407644	57.061589
64247		-1.630428	-12.910194	1.414804	-0.539885	0.538483	-2.832831	-86.125977	10.809494	56.628482
64248		-1.984502	-13.257703	1.445409	-0.511428	0.530343	-2.877708	-86.487699	9.180373	56.211457
64249		-2.225509	-13.505925	1.438054	-0.460377	0.514461	-2.911997	-86.805184	7.530956	55.814102
64250		-2.478582	-13.598117	1.473478	-0.387758	0.503502	-2.934909	-87.068128	5.863871	55.432334
64251		-2.733839	-13.464165	1.448465	-0.320144	0.483208	-2.945442	-87.279271	4.190884	55.069936
64252		-2.962043	-13.342535	1.389237	-0.289530	0.460884	-2.931889	-87.461406	2.521631	54.727282
64253		-3.220354	-13.195724	1.315341	-0.284912	0.442006	-2.904718	-87.630235	0.868637	54.401592
64254		-3.484042	-13.097048	1.190011	-0.295612	0.425656	-2.864960	-87.796016	-0.765027	54.091207
64255		-3.774151	-13.209433	1.122265	-0.281575	0.406251	-2.824935	-87.945238	-2.374920	53.797094
64256		-4.078697	-13.066105	0.924251	-0.227418	0.389131	-2.779212	-88.056140	-3.961610	53.517101
64257		-4.382661	-12.631833	0.815755	-0.148539	0.366372	-2.710155	-88.115413	-5.507631	53.253276
64258		-4.690679	-11.759605	0.644899	-0.051355	0.326723	-2.600766	-88.114880	-6.993678	53.014554
64259		-4.935557	-10.609356	0.607269	-0.014171	0.266786	-2.431591	-88.091920	-8.382150	52.812596
64260		-5.120814	-9.484966	0.591492	-0.057154	0.199981	-2.214457	-88.095623	-9.649082	52.652697
64261		-5.183019	-8.834492	0.558731	-0.153617	0.127567	-1.973629	-88.159534	-10.777991	52.539644
64262		-5.367434	-8.608442	0.605637	-0.251692	0.050814	-1.739062	-88.287543	-11.775436	52.477242
64263		-5.607162	-8.534529	0.656605	-0.312417	-0.034365	-1.523630	-88.461114	-12.649718	52.470751
64264		-5.981715	-8.455180	0.758394	-0.345642	-0.136648	-1.332550	-88.668555	-13.417101	52.530219
64265		-6.307848	-8.083423	0.979654	-0.379095	-0.276844	-1.159584	-88.916781	-14.085797	52.677782
64266		-6.531402	-7.525746	1.155580	-0.425231	-0.439235	-0.976758	-89.218211	-14.651352	52.926881
64267		-6.501248	-7.159623	1.310577	-0.481911	-0.613335	-0.755182	-89.582039	-15.088818	53.284482
64268		-6.265223	-6.986474	1.353369	-0.523617	-0.762994	-0.512441	-89.996449	-15.385644	53.735184
64269		-5.913428	-6.950311	1.399123	-0.539811	-0.890576	-0.266557	-90.442644	-15.537555	54.263941
64270		-5.409987	-7.175535	1.361412	-0.547472	-0.972324	-0.027013	-90.906875	-15.547822	54.841059
64271		-4.609184	-7.741324	1.404365	-0.489364	-1.005787	0.200252	-91.341872	-15.422959	55.435338
64272		-2.709180	-26.481441	0.600393	0.649997	-0.612249	1.242495	-91.055358	-14.704996	55.781820
64273		2.535625	2.079721	4.369197	1.588175	-0.470838	1.340677	-90.207714	-13.935074	56.050227
64274		4.331641	-11.253946	-2.470733	1.780846	-0.268464	1.591408	-89.220755	-13.025024	56.211716
64275		4.592364	-8.316163	-2.284294	1.265513	-0.088757	1.499703	-88.506486	-12.168051	56.279993
64276		3.512937	-5.460364	-0.805492	0.848454	0.245024	1.640846	-87.992819	-11.225085	56.164690
64277		2.765594	-6.812790	-0.658976	0.267708	0.623527	1.824933	-87.774984	-10.168084	55.839370
64278		1.247715	-10.015673	-0.390464	0.180391	0.785649	1.906198	-87.598562	-9.059701	55.426587
64279		0.595383	-10.509604	0.477095	0.252756	0.782540	1.900970	-87.389612	-7.953040	55.020538
64280		0.164394	-10.018559	1.257697	0.255567	0.754699	1.891944	-87.189448	-6.850833	54.635371
64281		0.008664	-10.142507	1.584602	0.245118	0.697669	1.885137	-87.006748	-5.752946	54.287450
64282		-0.364056	-14.245399	1.541920	0.195268	0.549906	1.949542	-86.867460	-4.621687	54.030147
64283		-0.580354	-11.785295	2.478735	0.684605	0.335272	1.733413	-86.461393	-3.620084	53.894522
64284		-0.208077	-9.501837	2.622693	0.386939	0.273944	1.614486	-86.230046	-2.687845	53.795356
64285		-0.931600	-11.642899	1.367128	0.203505	0.195903	1.557063	-86.107284	-1.791258	53.741633
64286		-0.636984	-11.086023	0.986468	0.314612	0.079407	1.515861	-85.923111	-0.922543	53.755254
64287		-0.109250	-10.411685	0.842127	0.241019	0.098182	1.422126	-85.780968	-0.106833	53.756779
64288		-0.055931	-10.078422	0.932770	0.185586	0.166921	1.389352	-85.670586	0.693277	53.719382
64289		-2.851538	-15.421028	0.902687	0.169738	0.010355	1.291953	-85.568358	1.430764	53.768703
64290		-1.946688	-12.159260	0.727087	0.593879	-0.058652	0.751169	-85.221937	1.856274	53.835426
64291		-0.569967	-9.947483	0.969528	0.498178	-0.013717	0.474561	-84.931404	2.125474	53.865289
64292		-1.628962	-9.881506	2.432082	0.080194	-0.063663	0.485535	-84.878863	2.398581	53.925011
64293		-1.485535	-9.826605	1.585083	0.188750	-0.089052	0.219228	-84.764045	2.518051	53.985894
64294		-0.119639	-10.276195	0.430237	-0.350877	-0.163891	0.250907	-84.956063	2.652116	54.091037
64295		-0.916433	-9.741797	1.263144	0.084828	-0.032457	0.176400	-84.902167	2.750125	54.117200
64296		-0.785700	-9.873579	0.970544	-0.102431	-0.086232	0.157873	-84.953855	2.835153	54.173111
64297		-0.589523	-9.688430	0.957605	-0.126443	-0.082855	0.124255	-85.019627	2.900901	54.225366
64298		-0.599456	-9.885639	0.728486	-0.077936	-0.058147	0.109423	-85.058094	2.959780	54.262663
64299		-0.536723	-9.683888	0.950229	-0.076877	-0.057794	0.088427	-85.096204	3.006391	54.298730
64300		-0.598686	-9.611734	1.068560	-0.118728	-0.059303	0.087815	-85.158004	3.052936	54.335549
64301		-0.530138	-9.691609	0.885555	-0.147174	-0.050077	0.082741	-85.236590	3.096746	54.366836
64302		-0.525241	-9.729719	0.855394	-0.158536	-0.049819	0.085678	-85.321442	3.142616	54.398010
64303		-0.593129	-9.772452	0.815600	-0.155196	-0.052976	0.086578	-85.404480	3.188573	54.431009
64304		-0.603772	-9.864805	0.675254	-0.132720	-0.049283	0.078500	-85.474533	3.230455	54.461423
64305		-0.673911	-9.928940	0.613191	-0.094184	-0.041329	0.060547	-85.523017	3.262146	54.486480
64306		-0.777356	-9.810661	0.813783	-0.072468	-0.040812	0.033184	-85.558917	3.278576	54.509955
64307		-0.656878	-9.900354	0.662706	-0.045394	-0.030999	0.007421	-85.579907	3.280406	54.526707
64308		-0.610056	-9.752573	0.799727	-0.044547	-0.035030	0.007569	-85.600061	3.282483	54.545730
64309		-0.639604	-9.790763	0.785384	-0.056795	-0.033705	0.001975	-85.627507	3.281096	54.563790
64310		-0.568212	-9.752693	0.783843	-0.046893	-0.031690	-0.001271	-85.649137	3.278286	54.580515
64311		-0.581322	-9.806027	0.779886	-0.054266	-0.032766	0.002682	-85.675164	3.277359	54.598070
64312		-0.589988	-9.816326	0.716935	-0.043417	-0.026222	0.002149	-85.694972	3.276752	54.611815
64313		-0.609800	-9.823449	0.676027	-0.043655	-0.022786	0.003350	-85.715245	3.276648	54.623688
64314		-0.626746	-9.829625	0.747702	-0.028253	-0.023473	-0.002064	-85.726466	3.273760	54.635681
64315		-0.605547	-9.733007	0.797050	-0.029596	-0.017825	-0.007034	-85.738873	3.267941	54.644271
64316		-0.622892	-9.774198	0.762331	-0.044009	-0.014598	-0.010772	-85.759433	3.260461	54.650815
64317		-0.581808	-9.829933	0.730761	-0.046303	-0.013475	-0.018460	-85.781583	3.248303	54.656436
64318		-0.578949	-9.740335	0.741835	-0.043076	-0.009809	-0.021076	-85.801790	3.235143	54.659811
64319		-0.600984	-9.790735	0.759655	-0.048219	-0.009501	-0.023606	-85.825180	3.220214	54.662950
64320		-0.565317	-9.800258	0.690525	-0.042835	-0.007726	-0.028064	-85.845333	3.203150	54.664852
64321		-0.587264	-9.726580	0.718975	-0.034908	-0.004983	-0.031830	-85.861260	3.183711	54.665075
64322		-0.496846	-9.772231	0.628772	-0.027266	-0.015128	-0.030047	-85.872264	3.165210	54.671140
64323		-0.422434	-9.699252	0.737343	0.001626	-0.011054	-0.008122	-85.867014	3.159069	54.675823
64324		-0.529978	-9.682196	0.872743	-0.012941	-0.019975	0.003233	-85.869583	3.159382	54.686039
64325		-0.571995	-9.751720	0.776431	-0.025122	-0.015651	0.006051	-85.879481	3.161151	54.693938
64326		-0.549420	-9.791906	0.735757	-0.036751	-0.015210	0.014849	-85.895811	3.168302	54.701905
64327		-0.565802	-9.810927	0.727930	-0.025230	-0.017004	0.022578	-85.905689	3.179465	54.711256
64328		-0.546344	-9.816840	0.682991	-0.012526	-0.017719	0.031826	-85.908017	3.196218	54.721352
64329		-0.533574	-9.831898	0.692406	-0.007453	-0.021338	0.039000	-85.907527	3.216590	54.733855
64330		-0.563278	-9.847577	0.709283	0.008482	-0.018379	0.045630	-85.897759	3.241203	54.744897
64331		-0.594765	-9.829072	0.721658	0.011023	-0.017421	0.046324	-85.886783	3.265918	54.755466
64332		-0.540923	-9.821714	0.642186	0.028937	-0.015173	0.053457	-85.865371	3.295130	54.765007
64333		-0.519312	-9.770808	0.735127	0.036141	-0.013209	0.064882	-85.840086	3.330617	54.773952
64334		-0.562784	-9.783016	0.776761	0.029649	-0.013093	0.076227	-85.818268	3.372918	54.783279
64335		-0.556434	-9.832100	0.683984	0.036383	-0.017306	0.089768	-85.792629	3.422446	54.795644
64336		-0.606025	-9.865899	0.700054	0.045387	-0.022375	0.097967	-85.761400	3.476768	54.811243
64337		-0.617018	-9.830834	0.700128	0.064298	-0.025425	0.102895	-85.719421	3.533437	54.828873
64338		-0.676345	-9.873975	0.660735	0.073098	-0.029020	0.100417	-85.672039	3.588850	54.848461
64339		-0.644323	-9.872334	0.662677	0.094051	-0.029513	0.101203	-85.612829	3.644345	54.868457
64340		-0.636542	-9.899189	0.604321	0.128382	-0.043411	0.108809	-85.533177	3.703874	54.896776
64341		-0.733408	-9.851031	0.706242	0.160575	-0.042110	0.105501	-85.435320	3.761200	54.924332
64342		-0.681212	-9.738798	0.847265	0.160902	-0.039067	0.095036	-85.337177	3.812971	54.949726
64343		-0.665969	-9.708030	0.925044	0.139805	-0.034149	0.092002	-85.251504	3.862872	54.972284
64344		-0.698561	-9.735110	0.875060	0.120699	-0.029910	0.089462	-85.176711	3.911822	54.992329
64345		-0.690779	-9.748781	0.896670	0.105639	-0.023780	0.083256	-85.111002	3.957173	55.008663
64346		-0.744463	-9.769527	0.886774	0.089348	-0.024243	0.081360	-85.054382	4.001731	55.025180
64347		-0.743530	-9.807406	0.768755	0.101572	-0.027719	0.075068	-84.990843	4.042178	55.043457
64348		-0.751377	-9.826125	0.866007	0.130291	-0.026756	0.075570	-84.910653	4.083267	55.061223
64349		-0.858804	-9.666824	0.694313	0.165354	-0.039145	0.064533	-84.810107	4.117064	55.085612
64350		-0.506689	-9.733923	1.259262	0.141990	-0.028980	0.077539	-84.723085	4.159106	55.104888
64351		-0.826983	-9.887453	0.836036	0.083901	-0.030610	0.088339	-84.669430	4.206867	55.125758
64352		-0.613652	-9.681449	0.977669	0.105151	-0.023955	0.089306	-84.603637	4.255844	55.142888
64353		-0.681816	-9.941225	0.811681	0.147349	-0.030526	0.113513	-84.513484	4.317918	55.165199
64354		-0.775713	-9.833780	0.933958	0.162775	-0.028758	0.129563	-84.414251	4.389532	55.187458
64355		-0.646893	-10.102647	0.794081	0.187867	-0.029949	0.176700	-84.300555	4.487588	55.213233
64356		-0.855310	-9.661656	1.113052	0.232750	-0.033806	0.194664	-84.160610	4.595927	55.242439
64357		-0.763853	-9.677769	1.110272	0.210206	-0.031921	0.197181	-84.033794	4.705422	55.271006
64358		-0.840021	-9.658066	1.125786	0.185864	-0.028203	0.195634	-83.920818	4.814521	55.297554
64359		-0.874655	-9.605147	1.126212	0.174006	-0.023953	0.192624	-83.815007	4.921792	55.321734
64360		-0.885581	-9.729984	1.114277	0.146590	-0.024926	0.191393	-83.724580	5.028584	55.346549
64361		-0.913374	-9.738026	1.071031	0.150530	-0.021077	0.186603	-83.632278	5.132528	55.369067
64362		-1.010829	-9.660505	1.197995	0.153022	-0.026876	0.177855	-83.538022	5.231407	55.394480
64363		-0.892467	-9.615011	1.242009	0.116756	-0.017989	0.165864	-83.465250	5.323675	55.414211
64364		-0.927310	-9.702971	1.151044	0.113546	-0.018411	0.163894	-83.394038	5.415094	55.434142
64365		-0.829559	-9.683665	1.242457	0.108516	-0.010505	0.167365	-83.326299	5.508664	55.449929
64366		-1.001797	-9.661976	1.173056	0.121451	0.015688	0.179144	-83.252256	5.610992	55.451621
64367		-0.956375	-9.736723	1.147246	0.094851	0.006458	0.180495	-83.193138	5.713141	55.458833
64368		-1.011152	-9.591833	1.248190	0.114282	0.016644	0.176189	-83.123247	5.813849	55.460012
64369		-0.914811	-9.690615	1.278300	0.057824	0.001441	0.191035	-83.084928	5.921633	55.471037
64370		-1.032306	-9.719229	1.215291	0.080854	0.019030	0.201966	-83.034120	6.037163	55.472821
64371		-1.000788	-9.806399	1.128561	0.065292	0.018955	0.224155	-82.992276	6.164986	55.476327
64372		-1.013804	-9.707372	1.258183	0.072814	0.021202	0.239427	-82.945896	6.301966	55.479695
64373		-1.002209	-9.812701	1.168223	0.084352	0.027160	0.262955	-82.893307	6.452423	55.481476
64374		-1.137024	-9.666578	1.258740	0.092170	0.031362	0.271168	-82.836193	6.608161	55.481559
64375		-1.158324	-9.639502	1.292147	0.082306	0.030553	0.271060	-82.784891	6.763466	55.482272
64376		-1.179441	-9.612579	1.323770	0.056800	0.037282	0.269008	-82.748430	6.918403	55.479078
64377		-1.228438	-9.733779	1.234819	0.059667	0.038522	0.273525	-82.710602	7.075685	55.475630
64378		-1.187742	-9.718905	1.216191	0.067446	0.040405	0.282982	-82.668127	7.238796	55.471883
64379		-1.304507	-9.732182	1.210419	0.070015	0.039785	0.281465	-82.624377	7.400688	55.468527
64380		-1.281348	-9.718292	1.268316	0.082083	0.050823	0.293200	-82.574184	7.570377	55.459828
64381		-1.278257	-9.677677	1.283015	0.077260	0.049489	0.295697	-82.526866	7.741080	55.452246
64382		-1.335361	-9.668625	1.386269	0.070581	0.057696	0.305963	-82.483682	7.918546	55.440843
64383		-1.405611	-9.643746	1.311834	0.057837	0.058563	0.309871	-82.448080	8.097993	55.429379
64384		-1.414036	-9.598006	1.345418	0.053923	0.056441	0.307832	-82.414355	8.276441	55.419062
64385		-1.398436	-9.607361	1.374603	0.030493	0.064921	0.305034	-82.395049	8.453634	55.403762
64386		-1.468764	-9.711724	1.271450	0.020438	0.071158	0.307169	-82.381814	8.632828	55.385068
64387		-1.524186	-9.539145	1.387053	0.033217	0.067981	0.308567	-82.361253	8.812270	55.368371
64388		-1.534683	-9.673808	1.320660	0.009271	0.065796	0.304572	-82.354072	8.989591	55.352640
64389		-1.538437	-9.639531	1.382037	0.008484	0.069599	0.304487	-82.347973	9.166844	55.334747
64390		-1.632829	-9.688070	1.279665	0.002121	0.069722	0.310174	-82.345275	9.347648	55.317210
64391		-1.725689	-9.685146	1.249449	0.017821	0.067101	0.306355	-82.333674	9.525775	55.300917
64392		-1.657859	-9.748993	1.288974	0.026544	0.056008	0.318925	-82.315651	9.710507	55.292012
64393		-1.715390	-9.564210	1.371808	0.027163	0.065277	0.317925	-82.298454	9.895073	55.277755
64394		-1.725927	-9.709318	1.338387	0.020720	0.059705	0.323737	-82.284112	10.082827	55.267194
64395		-1.703521	-9.679928	1.305236	0.038667	0.069252	0.326404	-82.260686	10.272521	55.251405
64396		-1.733388	-9.684724	1.339041	0.011807	0.070336	0.345781	-82.252296	10.473615	55.236543
64397		-1.797529	-9.802661	1.245926	0.021779	0.077103	0.359681	-82.238993	10.682816	55.218907
64398		-1.809596	-9.941439	1.159184	0.036789	0.067820	0.399774	-82.215313	10.914371	55.209844
64399		-1.919784	-9.657909	1.334779	0.049907	0.067730	0.430702	-82.183891	11.163172	55.203400
64400		-1.818628	-9.748534	1.435442	0.027177	0.066340	0.452754	-82.164765	11.424690	55.199613
64401		-1.888975	-9.717119	1.446281	0.018420	0.079193	0.473624	-82.152052	11.698754	55.190123
64402		-1.906435	-9.645697	1.500495	0.011322	0.082593	0.503838	-82.143115	11.990535	55.181116
64403		-1.951046	-9.675166	1.484737	-0.017047	0.085434	0.530510	-82.150613	12.297377	55.172594
64404		-1.966662	-9.677629	1.362797	-0.035543	0.096803	0.566033	-82.169343	12.625561	55.160222
64405		-2.090728	-9.681354	1.412521	-0.048029	0.101859	0.596232	-82.195690	12.970984	55.147175
64406		-2.083944	-9.710206	1.422182	-0.053566	0.114096	0.630844	-82.226084	13.337285	55.129559
64407		-2.140590	-9.765170	1.353617	-0.063823	0.119441	0.679236	-82.262601	13.731177	55.112424
64408		-2.213092	-9.812578	1.305280	-0.069165	0.122452	0.728138	-82.301611	14.153330	55.097110
64409		-2.250252	-9.775705	1.337227	-0.055109	0.123173	0.783047	-82.332028	14.606431	55.085419
64410		-2.144860	-9.835504	1.526184	-0.072378	0.133428	0.833787	-82.372784	15.089385	55.071398
64411		-2.187445	-10.298360	1.401375	-0.079567	0.167834	0.907009	-82.421980	15.616257	55.042435
64412		-2.483535	-10.409556	1.028774	-0.025959	0.173018	1.029549	-82.438791	16.213343	55.019647
64413		-2.570673	-10.001576	1.228468	0.026000	0.152774	1.119642	-82.420909	16.859829	55.015866
64414		-2.278526	-10.134737	1.533717	0.028151	0.165627	1.214705	-82.401564	17.561502	55.012198
64415		-2.322464	-10.046279	1.641158	0.051496	0.211328	1.324786	-82.374745	18.328938	54.990295
64416		-2.539861	-10.161631	1.373954	0.085067	0.241357	1.446089	-82.331249	19.167746	54.960573
64417		-2.802488	-10.213177	1.331158	0.132438	0.257493	1.573693	-82.260824	20.080086	54.932229
64418		-3.065366	-10.012943	1.409719	0.135414	0.266352	1.680799	-82.187275	21.054100	54.908471
64419		-3.180144	-10.058332	1.451687	0.128376	0.275269	1.771022	-82.117192	22.079898	54.887976
64420		-3.396273	-9.906269	1.324169	0.167743	0.287791	1.859125	-82.024147	23.156830	54.868803
64421		-3.508714	-9.480240	1.545425	0.198518	0.295076	1.937353	-81.912352	24.278634	54.853853
64422		-3.747696	-9.378699	1.434338	0.204071	0.317163	1.996533	-81.799995	25.435916	54.832734
64423		-4.231305	-8.997595	1.442380	0.188619	0.326025	2.044315	-81.696715	26.620960	54.812552
64424		-4.242951	-8.821582	1.461546	0.182044	0.309634	2.069797	-81.590409	27.819194	54.807504
64425		-4.290092	-9.003208	1.616821	0.195524	0.329362	2.079035	-81.481190	29.024255	54.793061
64426		-4.903692	-9.280994	1.854430	0.170383	0.369667	2.060805	-81.399155	30.222503	54.752797
64427		-5.090550	-10.536257	1.520872	0.172350	0.382187	1.996645	-81.323796	31.385473	54.699185
64428		-4.751716	-9.317577	1.303487	0.263779	0.415192	2.029096	-81.205714	32.569798	54.628616
64429		-5.381429	-9.301490	0.987562	0.252516	0.402326	2.088119	-81.086397	33.786494	54.574839
64430		-5.453297	-9.755065	0.861917	0.274270	0.367004	2.152633	-80.936100	35.036639	54.555100
64431		-5.236229	-9.256673	0.687472	0.317407	0.336590	2.229205	-80.741866	36.327368	54.569336
64432		-5.660392	-9.185241	0.786821	0.350304	0.313208	2.317977	-80.508260	37.665998	54.616892
64433		-6.227190	-9.319521	0.659493	0.357800	0.266293	2.373969	-80.239353	39.031632	54.713317
64434		-6.175449	-8.598177	0.768131	0.355563	0.222162	2.426649	-79.937802	40.422167	54.859736
64435		-6.398205	-8.277867	0.863864	0.307886	0.177661	2.475682	-79.626300	41.835292	55.058922
64436		-6.674205	-7.927546	1.096791	0.247615	0.144638	2.473202	-79.318626	43.242617	55.297914
64437		-7.045096	-7.363432	1.252687	0.160869	0.113237	2.467879	-79.029200	44.642749	55.576288
64438		-6.543680	-7.235451	1.105615	0.100800	0.076306	2.451505	-78.738002	46.028433	55.898596
64439		-6.354315	-6.310226	1.238634	0.046985	0.075446	2.485907	-78.454370	47.432318	56.245549
64440		-6.734437	-5.909452	1.162227	-0.069676	0.059081	2.515844	-78.203142	48.849831	56.630831
64441		-6.792015	-5.517015	1.186869	-0.204373	0.045246	2.508717	-77.999940	50.260834	57.046344
64442		-7.101434	-4.940970	1.306932	-0.378807	0.030872	2.486380	-77.868604	51.656658	57.489496
64443		-7.064412	-4.647220	1.542617	-0.635626	0.013367	2.483185	-77.852452	53.048373	57.964710
64444		-6.962694	-4.675258	1.596753	-0.786200	0.028368	2.483680	-77.914939	54.442153	58.440645
64445		-7.337381	-4.192772	1.908245	-0.858539	0.053338	2.403674	-78.036167	55.794658	58.887552
64446		-7.475101	-4.011873	2.046738	-0.890657	0.089634	2.261920	-78.218173	57.072510	59.276528
64447		-7.501014	-4.077959	2.144505	-0.913543	0.143294	2.111651	-78.480787	58.273188	59.580372
64448		-7.500337	-4.250309	1.978047	-0.949567	0.202248	1.998270	-78.838247	59.417568	59.793499
64449		-7.461191	-4.253479	1.879500	-0.949975	0.254618	1.928222	-79.265741	60.529074	59.923728
64450		-7.592376	-4.661543	1.807354	-0.909405	0.303784	1.883459	-79.738639	61.620861	59.973911
64451		-7.698411	-5.282317	1.657514	-0.809727	0.356324	1.866737	-80.229656	62.708725	59.938714
64452		-7.842586	-5.608729	1.503651	-0.643705	0.406933	1.863712	-80.701810	63.799357	59.818245
64453		-7.914992	-5.776826	1.194640	-0.454335	0.446686	1.881028	-81.132980	64.903070	59.624226
64454		-7.870965	-5.714395	0.955009	-0.264785	0.471201	1.930048	-81.501894	66.035833	59.380808
64455		-8.071063	-5.511115	0.668254	-0.146429	0.491924	2.025893	-81.841225	67.224229	59.098141
64456		-8.298970	-5.297841	0.299051	-0.078856	0.485111	2.122505	-82.144804	68.465947	58.814574
64457		-8.544650	-5.028999	0.048196	-0.067845	0.456509	2.227147	-82.413196	69.764625	58.564585
64458		-8.740886	-4.810183	-0.241564	-0.102770	0.405991	2.351961	-82.626388	71.129681	58.396366
64459		-8.896735	-4.550861	-0.453253	-0.150913	0.342086	2.466252	-82.757666	72.555225	58.344940
64460		-8.778043	-4.247265	-0.650569	-0.227094	0.267546	2.595695	-82.769776	74.048509	58.463761
64461		-8.738881	-4.037213	-0.764844	-0.291059	0.179154	2.759244	-82.568774	75.628655	58.840556
64462		-8.690344	-3.880862	-0.807746	-0.363669	0.076070	2.909515	-82.029767	77.285067	59.604969
64463		-8.072891	-5.552381	-0.623664	-0.524688	-0.131436	2.782884	-80.857820	78.849785	61.105787
64464		-8.569982	-7.621291	-0.245592	-0.587543	-0.401286	2.156060	-78.814470	80.023895	63.522491
64465		-8.292958	-9.838168	-0.414831	-0.722172	-0.703836	1.250509	-76.006143	80.634663	66.786855
64466		-7.744138	-10.052499	-0.146663	-0.728329	-0.959500	0.294913	-72.939667	80.648627	70.313476
64467		-7.339428	-8.664532	-0.129155	-0.645738	-1.150482	-0.547655	-70.204772	80.141686	73.458327
64468		-7.898416	-7.856435	-0.104955	-0.609314	-1.312991	-1.244984	-68.094864	79.205249	75.953668
64469		-8.269919	-7.794423	0.063308	-0.560370	-1.446248	-1.752632	-66.550725	77.958484	77.852287
64470		-8.072442	-8.007963	0.198705	-0.489173	-1.512944	-2.066435	-65.464918	76.522243	79.248820
64471		-7.337076	-8.145092	0.253104	-0.380174	-1.518966	-2.298105	-64.758796	74.960979	80.197866
64472		-6.341511	-8.320772	0.178234	-0.264770	-1.477142	-2.563958	-64.442283	73.268745	80.680626
64473		-5.675978	-8.509665	0.113174	-0.117830	-1.406235	-2.934573	-64.502969	71.403786	80.683531
64474		-5.225515	-8.566173	0.094399	0.023558	-1.334005	-3.378440	-64.875413	69.324706	80.269851
64475		-4.803721	-8.631830	0.184772	0.070830	-1.254228	-3.885714	-65.536713	67.001656	79.509488
64476		-4.556260	-8.574040	0.228615	-0.005810	-1.184718	-4.439559	-66.460206	64.398986	78.496164
64477		-4.476132	-8.177869	0.383403	-0.051726	-1.099230	-4.900537	-67.505395	61.567765	77.352017
64478		-3.438336	-7.410383	0.599606	-0.066033	-1.024739	-4.934035	-68.443003	58.723750	76.310853
64479		-3.225013	-6.483802	0.845255	-0.060176	-0.946785	-4.705897	-69.207058	56.012884	75.439963
64480		-3.293953	-6.450871	1.121100	-0.029904	-0.840974	-4.454315	-69.848085	53.450047	74.671817
64481		-3.279300	-6.844059	1.392289	0.023741	-0.726278	-4.256548	-70.397656	51.014344	73.954412
64482		-3.205716	-7.054708	1.655982	0.034809	-0.613846	-4.162923	-70.919751	48.643723	73.240790
64483		-2.871966	-6.970833	1.710524	0.014941	-0.511814	-4.189938	-71.450133	46.276049	72.503977
64484		-2.666078	-6.626321	1.951982	-0.072662	-0.424312	-4.208073	-72.017199	43.906504	71.757534
64485		-2.716271	-6.540163	2.011245	-0.177814	-0.332990	-4.104437	-72.609045	41.607285	71.030005
64486		-2.677086	-6.633256	2.075150	-0.250088	-0.236077	-3.906146	-73.202511	39.424367	70.332063
64487		-2.820025	-7.239907	2.205395	-0.312838	-0.123149	-3.711644	-73.803870	37.364488	69.646012
64488		-2.972309	-8.239512	2.272653	-0.339870	0.015037	-3.591635	-74.417791	35.383470	68.933623
64489		-3.087455	-8.976660	2.389665	-0.351552	0.159216	-3.530830	-75.041621	33.455100	68.179291
64490		-3.154028	-9.600483	2.411183	-0.400395	0.277382	-3.562889	-75.695075	31.515724	67.383547
64491		-3.313470	-10.286805	2.326916	-0.440992	0.363669	-3.648506	-76.361467	29.536596	66.561213
64492		-3.292558	-10.806329	2.208070	-0.470136	0.412087	-3.734559	-77.020890	27.504144	65.737196
64493		-3.237603	-11.319746	2.071253	-0.462488	0.427988	-3.821642	-77.640743	25.420723	64.931935
64494		-3.257958	-11.586935	1.964644	-0.409324	0.414806	-3.893338	-78.189106	23.284513	64.162456
64495		-3.480949	-11.633482	1.736995	-0.340732	0.405824	-3.909207	-78.657445	21.136031	63.429399
64496		-3.540295	-11.310753	1.588625	-0.278897	0.424443	-3.821258	-79.056193	19.030084	62.723221
64497		-3.301205	-11.291973	1.325795	-0.279735	0.492724	-3.667705	-79.430769	17.017342	62.017661
64498		-3.124542	-11.663729	1.170407	-0.312146	0.619865	-3.521936	-79.811579	15.091554	61.274345
64499		-3.104847	-11.904683	1.204520	-0.339604	0.786393	-3.371211	-80.199295	13.266567	60.469487
64500		-3.256061	-11.799475	1.281351	-0.340715	0.957293	-3.185532	-80.577206	11.553676	59.602303
64501		-3.447390	-11.765214	1.493018	-0.396167	1.091313	-2.986304	-80.969834	9.964083	58.693433
64502		-3.593580	-12.453975	1.733537	-0.486575	1.180551	-2.838882	-81.393875	8.455528	57.762335
64503		-3.643961	-13.576954	2.002748	-0.519568	1.212566	-2.811324	-81.812599	6.962498	56.830037
64504		-3.699087	-14.203369	2.251806	-0.482781	1.191914	-2.879768	-82.183727	5.418773	55.917470
64505		-3.992564	-14.495351	2.515193	-0.399084	1.108742	-2.959922	-82.477628	3.821818	55.057426
64506		-4.236369	-14.174062	2.567103	-0.309189	0.961854	-3.001847	-82.691108	2.182632	54.286616
64507		-4.503022	-13.589741	2.579405	-0.243784	0.761644	-2.990783	-82.842164	0.536631	53.636417
64508		-4.795176	-13.228305	2.500585	-0.228429	0.519323	-2.925916	-82.966415	-1.094783	53.132767
64509		-4.859289	-13.143156	2.434798	-0.249479	0.232027	-2.859758	-83.094281	-2.706050	52.800455
64510		-4.608494	-12.914961	2.368808	-0.292992	-0.050947	-2.824879	-83.247777	-4.320908	52.635354
64511		-4.478953	-12.801920	2.348048	-0.351581	-0.301634	-2.779410	-83.443893	-5.923680	52.621074
64512		-4.332316	-12.566033	2.200848	-0.375321	-0.506925	-2.699998	-83.668011	-7.497563	52.735494
64513		-4.081870	-12.137287	2.037884	-0.375125	-0.656173	-2.569735	-83.909794	-9.002947	52.950829
64514		-3.732116	-11.862522	1.965686	-0.351743	-0.734709	-2.420564	-84.153779	-10.429887	53.227900
64515		-3.379410	-11.767176	1.976163	-0.346163	-0.772184	-2.283099	-84.408617	-11.776596	53.542320
64516		-3.154024	-11.592389	2.148521	-0.335791	-0.775976	-2.227494	-84.667189	-13.092923	53.869706
64517		-2.993708	-11.132262	2.347187	-0.379051	-0.772658	-2.220257	-84.959723	-14.400875	54.203835
64518		-2.708462	-10.708564	2.452785	-0.412458	-0.764261	-2.192505	-85.279883	-15.693064	54.543495
64519		-2.430008	-10.442306	2.426084	-0.403279	-0.717113	-2.095789	-85.598407	-16.923774	54.869376
64520		-2.180818	-10.474333	2.254207	-0.290218	-0.632433	-1.949847	-85.847481	-18.067891	55.159370
64521		-2.050065	-10.264931	2.006254	-0.117182	-0.503806	-1.798436	-85.982287	-19.117316	55.384322
64522		-2.147897	-9.846085	1.693165	0.026056	-0.364690	-1.655213	-86.013033	-20.080718	55.533738
64523		-2.075070	-9.318142	1.462228	0.094169	-0.219207	-1.526253	-85.978568	-20.962884	55.600922
64524		-1.996458	-8.769960	1.223598	0.128117	-0.077417	-1.400843	-85.895148	-21.769123	55.585725
64525		-1.808598	-8.203652	0.992650	0.126135	0.040587	-1.251535	-85.787708	-22.483674	55.503143
64526		-1.582316	-7.863084	0.821473	0.098342	0.148733	-1.078583	-85.671171	-23.095822	55.359359
64527		-1.425196	-7.727022	0.740674	0.072870	0.239578	-0.903295	-85.548605	-23.602389	55.165707
64528		-1.426124	-7.819706	0.705169	0.040895	0.302769	-0.752655	-85.428685	-24.020633	54.937875
64529		-1.333739	-7.910193	0.685309	-0.010901	0.335931	-0.658536	-85.330390	-24.382254	54.692775
64530		-1.094805	-8.040721	0.728064	-0.050567	0.339291	-0.586328	-85.253063	-24.702843	54.447716
64531		-0.873321	-8.115150	0.769410	-0.064443	0.331358	-0.516185	-85.186310	-24.982780	54.210617
64532		-0.814836	-8.214731	0.843456	-0.048073	0.302632	-0.457802	-85.117236	-25.230990	53.993550
64533		-0.793520	-8.096993	0.872814	-0.031255	0.251263	-0.392145	-85.053426	-25.443544	53.812091
64534		-0.786374	-7.936615	0.822929	-0.026899	0.174426	-0.322278	-85.008343	-25.620113	53.682222
64535		-0.806627	-7.859579	0.834937	-0.051584	0.081670	-0.248928	-85.004803	-25.759153	53.615250
64536		-0.753323	-8.033470	0.773364	-0.077192	-0.019386	-0.179841	-85.044744	-25.863808	53.615793
64537		-0.661274	-8.025360	0.779484	-0.073282	-0.112462	-0.119320	-85.110353	-25.938482	53.679170
64538		-0.643401	-7.944892	0.735066	-0.065376	-0.193400	-0.030328	-85.195507	-25.965973	53.798504
64539		-0.586901	-7.919298	0.680677	-0.036917	-0.255455	0.075689	-85.284691	-25.935936	53.963257
64540		-0.474395	-7.740879	0.567521	-0.019526	-0.290177	0.194742	-85.375376	-25.838859	54.155712
64541		-0.460731	-7.687450	0.398793	-0.020104	-0.305508	0.319209	-85.473418	-25.671551	54.364183
64542		-0.465849	-7.680747	0.220773	-0.022641	-0.304032	0.451256	-85.573742	-25.427774	54.577218
64543		-0.588672	-7.621193	0.132538	-0.065093	-0.295018	0.561010	-85.697484	-25.121178	54.789203
64544		12.838601	-6.637790	2.593664	-0.476195	-0.421969	1.013535	-86.095925	-24.559442	55.098938
64545		10.853086	-8.899128	-4.581843	-0.609412	-0.146828	2.155706	-86.513107	-23.333363	55.276478
64546		5.447001	-12.455222	-2.901877	-0.374971	-0.034668	2.042571	-86.759954	-22.166878	55.370759
64547		3.292295	-5.597553	1.443641	0.586156	0.044470	2.280255	-86.440042	-20.862244	55.425314
64548		3.570014	-8.574219	-0.786085	-0.054633	0.174936	2.376367	-86.460597	-19.497764	55.406954
64549		2.464991	-11.103756	-0.234802	-0.531875	0.283832	2.387697	-86.733213	-18.123540	55.319884
64550		1.078531	-12.300200	0.553582	0.103094	0.228836	2.309180	-86.652159	-16.795769	55.261170
64551		1.655028	-10.265805	0.920142	0.237318	0.177582	2.209315	-86.504203	-15.527174	55.232742
64552		1.286367	-11.192245	0.777166	0.012532	0.193798	2.050309	-86.481866	-14.348371	55.190919
64553		0.716065	-12.528960	0.446341	0.119518	0.166650	1.843634	-86.401687	-13.289220	55.158958
64554		1.070485	-11.386808	0.526081	0.292319	0.134558	1.664270	-86.225943	-12.333088	55.141463
64555		1.342767	-10.784798	0.671870	0.184764	0.144405	1.584523	-86.111138	-11.422780	55.117766
64556		1.126914	-10.846325	0.619337	0.237259	0.164620	1.511849	-85.963903	-10.552437	55.081443
64557		1.318285	-10.332162	0.489487	0.282773	0.170547	1.466220	-85.790962	-9.708553	55.042459
64558		1.137333	-11.844544	0.695035	0.135500	0.199034	1.509293	-85.700637	-8.837991	54.990795
64559		0.686204	-11.155812	0.715596	0.532448	0.165411	1.440292	-85.386806	-8.008938	54.958769
64560		1.201931	-10.005874	1.184021	0.337799	0.199877	1.398657	-85.182272	-7.201075	54.908661
64561		0.568099	-10.793245	1.063908	0.179187	0.224687	1.363341	-85.067995	-6.412856	54.845004
64562		0.297486	-10.617325	1.366909	0.203778	0.208546	1.269932	-84.940819	-5.677772	54.787597
64563		0.195613	-10.807865	1.384003	0.089677	0.213957	1.175427	-84.879425	-4.997108	54.723640
64564		-0.069746	-11.227044	1.052059	0.058873	0.211042	1.061089	-84.835770	-4.380876	54.656060
64565		-0.020951	-10.935600	1.142899	0.043913	0.208592	0.916500	-84.801300	-3.848137	54.582943
64566		-0.134282	-10.821021	1.208142	-0.004492	0.218161	0.772632	-84.794041	-3.396000	54.497017
64567		-0.157888	-10.671723	1.302537	-0.042686	0.215366	0.643111	-84.809345	-3.018884	54.406046
64568		-0.190507	-10.476415	1.376277	-0.101332	0.194911	0.550466	-84.858782	-2.694722	54.321707
64569		-0.090646	-10.168862	1.386353	-0.147480	0.166497	0.472062	-84.935991	-2.417865	54.249349
64570		-0.138203	-10.227668	1.235481	-0.205287	0.134807	0.403189	-85.046830	-2.180960	54.191117
64571		-0.097730	-10.221672	1.087873	-0.229923	0.109835	0.331137	-85.172761	-1.987590	54.143237
64572		0.113133	-10.077480	0.789481	-0.236419	0.093558	0.267353	-85.302353	-1.830424	54.101106
64573		0.275127	-10.001132	0.552435	-0.232938	0.118009	0.229616	-85.429966	-1.694869	54.042998
64574		0.341662	-9.574397	0.730420	-0.224738	0.148406	0.213145	-85.552100	-1.566371	53.966403
64575		-0.142822	-10.007330	1.138791	-0.275161	0.149229	0.178267	-85.703612	-1.459054	53.887598
64576		-0.069058	-9.782986	1.386190	-0.298697	0.092316	0.160892	-85.869124	-1.363156	53.840215
64577		-0.140964	-10.151635	0.944627	-0.294633	0.034770	0.130579	-86.033505	-1.288170	53.824316
64578		0.187138	-10.000169	0.609153	-0.307624	0.003985	0.105088	-86.205280	-1.227850	53.824723
64579		0.339773	-9.884560	0.407373	-0.274382	0.028824	0.107797	-86.358137	-1.166204	53.810946
64580		0.217161	-9.792328	0.648586	-0.220495	0.038904	0.106928	-86.479598	-1.103581	53.791140
64581		0.136673	-9.858680	0.594520	-0.239149	0.037191	0.095162	-86.612195	-1.048935	53.771858
64582		0.115888	-9.935221	0.543170	-0.233672	0.046166	0.085374	-86.741151	-0.998485	53.746906
64583		-0.009196	-9.939484	0.597135	-0.235438	0.041143	0.071902	-86.871599	-0.957108	53.724372
64584		-0.240832	-10.146695	0.663354	-0.242983	0.024149	0.046989	-87.006109	-0.929398	53.710621
64585		0.073626	-10.009028	0.353592	-0.235546	0.010901	0.004959	-87.136883	-0.927316	53.703243
64586		0.242863	-10.004037	0.226984	-0.199544	0.044346	0.008886	-87.246304	-0.920886	53.676746
64587		0.023269	-9.813204	0.688926	-0.172333	0.037779	0.003814	-87.340613	-0.918761	53.653944
64588		0.047139	-9.877268	0.412225	-0.193771	0.000159	0.019868	-87.447140	-0.907284	53.653010
64589		0.200820	-10.093890	0.048786	-0.131827	0.010707	0.006927	-87.518493	-0.904134	53.645778
64590		0.004556	-9.983223	0.424477	-0.094359	0.044772	-0.021533	-87.567653	-0.915259	53.618260
64591		0.052419	-9.681066	0.724338	-0.102672	0.027358	-0.025760	-87.622133	-0.930435	53.600703
64592		0.096326	-9.859136	0.495325	-0.163809	0.004196	-0.009728	-87.711447	-0.935797	53.596719
64593		0.094563	-9.930784	0.316767	-0.152520	0.003305	-0.009214	-87.794715	-0.942088	53.593347
64594		0.165514	-9.791902	0.387441	-0.129622	-0.000969	0.005767	-87.864493	-0.938695	53.592675
64595		0.158255	-9.854471	0.292429	-0.121887	-0.004394	0.016939	-87.930292	-0.930182	53.594278
64596		0.148259	-9.887859	0.306592	-0.103754	-0.015310	0.032645	-87.985391	-0.911691	53.602363
64597		0.236495	-9.876267	0.152701	-0.067672	-0.019800	0.050913	-88.020274	-0.884029	53.613452
64598		0.491405	-9.651919	0.025679	-0.017144	-0.010181	0.091257	-88.025720	-0.831866	53.619741
64599		0.332160	-9.762949	0.121102	0.049827	0.003677	0.141893	-87.993100	-0.751639	53.619193
64600		0.215734	-9.677755	0.372922	0.065720	-0.000770	0.179736	-87.951024	-0.648645	53.621935
64601		0.049377	-9.892121	0.314640	0.084130	-0.001647	0.198506	-87.898797	-0.536112	53.625728
64602		-0.023884	-9.995497	0.383703	0.090719	-0.007110	0.192895	-87.842422	-0.425724	53.632563
64603		-0.015910	-9.956194	0.404959	0.097622	-0.009730	0.189878	-87.782479	-0.318315	53.641016
64604		-0.087436	-9.987079	0.335081	0.111511	-0.027015	0.204271	-87.714216	-0.201869	53.659737
64605		0.015339	-10.001307	0.111015	0.164871	-0.039891	0.217240	-87.615753	-0.079522	53.686372
64606		-0.191287	-10.230777	0.105442	0.255839	-0.008897	0.188153	-87.464726	0.028079	53.694747
64607		-0.613546	-9.956163	1.004569	0.272031	-0.010256	0.108889	-87.304792	0.089053	53.702185
64608		-0.266820	-9.797031	0.896982	0.175637	-0.060898	0.067663	-87.199637	0.126255	53.737545
64609		-0.120140	-9.969912	0.509623	0.156670	-0.086800	0.074520	-87.105680	0.165353	53.788055
64610		-0.112888	-9.980101	0.425362	0.196634	-0.100224	0.074738	-86.988355	0.205328	53.846253
64611		-0.023111	-9.929457	0.355223	0.229091	-0.096969	0.080933	-86.852808	0.247576	53.902936
64612		0.073656	-9.815795	0.369308	0.259663	-0.098715	0.092313	-86.699289	0.297380	53.961023
64613		0.459654	-9.413272	0.263237	0.303858	-0.083421	0.110324	-86.520841	0.356590	54.011181
64614		0.307271	-9.960481	0.077336	0.338292	-0.005058	0.155626	-86.322512	0.445566	54.018277
64615		-0.204431	-9.272537	1.362745	0.344694	-0.000767	0.177684	-86.120902	0.546066	54.024124
64616		-0.053315	-9.634753	1.041830	0.193617	-0.060223	0.222670	-86.005063	0.671139	54.065943
64617		-0.213573	-10.333404	0.260421	0.188070	-0.096486	0.222387	-85.892439	0.793284	54.128789
64618		-0.149162	-9.839666	0.747115	0.297084	-0.082258	0.220497	-85.716944	0.916003	54.183671
64619		-0.271497	-9.960767	0.819676	0.269728	-0.098047	0.232004	-85.557229	1.043231	54.248496
64620		-0.516573	-9.741858	1.116454	0.168887	-0.112877	0.191663	-85.454626	1.147821	54.320215
64621		-0.117992	-9.753403	0.599480	0.088692	-0.136273	0.205793	-85.397941	1.258094	54.406151
64622		-0.605681	-10.028240	0.629842	0.236751	-0.093633	0.155670	-85.256468	1.342812	54.465526
64623		-0.423620	-9.305149	1.159124	0.212404	-0.079206	0.054556	-85.129604	1.369126	54.512062
64624		0.019091	-9.639547	0.838683	0.203472	-0.000203	0.023914	-85.008540	1.382987	54.511974
64625		-0.436502	-8.527396	2.331169	0.080763	-0.017107	0.042664	-84.957945	1.405455	54.522556
64626		-0.089104	-9.580963	1.037965	-0.170240	-0.041291	0.060083	-85.050316	1.437909	54.547744
64627		-0.214596	-9.916015	0.730728	-0.100440	-0.012037	0.076446	-85.103563	1.479928	54.557056
64628		-0.331679	-9.599104	1.011491	-0.124845	-0.032990	0.092049	-85.169970	1.531086	54.578986
64629		-0.295633	-10.037612	0.634684	-0.124742	-0.046142	0.091757	-85.236579	1.580233	54.608419
64630		-0.277919	-9.841928	0.752635	-0.069927	-0.046864	0.102236	-85.271247	1.636598	54.638656
64631		-0.369055	-9.947123	0.664987	-0.032055	-0.051115	0.114162	-85.284581	1.698342	54.671925
64632		-0.328867	-9.935853	0.715096	0.000351	-0.050363	0.108320	-85.278858	1.758034	54.704426
64633		-0.365949	-9.850136	0.829752	0.023859	-0.048168	0.093166	-85.260171	1.807924	54.735029
64634		-0.401883	-9.674437	0.961536	0.016776	-0.039606	0.077468	-85.245223	1.850496	54.759953
64635		-0.252249	-9.677399	0.876598	0.000485	-0.041730	0.092152	-85.240001	1.900098	54.786856
64636		-0.335623	-9.738494	0.847079	-0.005850	-0.043944	0.104656	-85.237837	1.957983	54.815563
64637		-0.347529	-9.793962	0.825219	-0.005410	-0.046674	0.112976	-85.235806	2.019237	54.846289
64638		-0.387195	-9.831664	0.815670	0.004198	-0.055255	0.114032	-85.227573	2.081932	54.881916
64639		-0.340913	-9.822767	0.734508	0.012825	-0.064187	0.123093	-85.214639	2.148119	54.923150
64640		-0.443244	-9.890117	0.783554	0.042953	-0.069387	0.131806	-85.183777	2.220264	54.967745
64641		-0.523678	-9.782671	0.823905	0.056412	-0.064922	0.117664	-85.145762	2.283275	55.009206
64642		-0.445772	-9.791616	0.847784	0.065032	-0.070581	0.122103	-85.102135	2.349771	55.054108
64643		-0.512041	-10.002511	0.745613	0.087990	-0.063558	0.097425	-85.046007	2.401230	55.093896
64644		-0.391476	-9.694535	0.887305	0.072223	-0.059286	0.091218	-84.998509	2.450583	55.130930
64645		-0.454434	-9.849737	0.806588	0.079829	-0.059712	0.097885	-84.947077	2.502428	55.168638
64646		-0.442251	-9.863609	0.937650	0.104862	-0.047264	0.096256	-84.881099	2.555196	55.199155
64647		-0.516608	-9.801707	0.907519	0.087377	-0.051304	0.094156	-84.825493	2.605266	55.231979
64648		-0.518070	-9.722720	0.963832	0.087363	-0.039142	0.079089	-84.769733	2.648600	55.257072
64649		-0.526769	-9.687452	0.966680	0.077574	-0.036895	0.074330	-84.720121	2.688053	55.280722
64650		-0.336398	-9.781976	0.864861	0.087469	-0.040434	0.076780	-84.664224	2.729960	55.306510
64651		-0.370547	-9.672561	0.902881	0.128469	-0.040599	0.101334	-84.585239	2.784568	55.333811
64652		-0.423842	-9.761581	0.908633	0.154183	-0.048919	0.123089	-84.490702	2.852345	55.367086
64653		-0.429376	-9.805663	0.961830	0.165819	-0.054472	0.148466	-84.389711	2.932973	55.405107
64654		-0.558587	-9.808041	0.979517	0.186142	-0.055801	0.164321	-84.276431	3.023744	55.444892
64655		-0.606907	-9.761594	1.058342	0.195972	-0.056236	0.162191	-84.157935	3.111945	55.485034
64656		-0.577100	-9.702168	1.089622	0.170418	-0.052892	0.155894	-84.053636	3.197929	55.523025
64657		-0.624635	-9.806647	0.998129	0.180494	-0.046976	0.157443	-83.944182	3.283826	55.557940
64658		-0.569632	-9.704687	1.170414	0.167929	-0.047823	0.159093	-83.841328	3.371802	55.593558
64659		-0.540470	-9.797442	1.030237	0.137326	-0.039730	0.160992	-83.756716	3.460047	55.624864
64660		-0.554246	-9.876871	0.977361	0.164798	-0.038947	0.175157	-83.655769	3.557610	55.656719
64661		-0.620183	-9.814275	1.044591	0.194936	-0.038511	0.187661	-83.537960	3.661007	55.689355
64662		-0.691112	-9.759143	1.166797	0.192853	-0.038004	0.187275	-83.420789	3.765398	55.721855
64663		-0.675381	-9.882873	1.058227	0.173513	-0.035843	0.191985	-83.315190	3.871302	55.753677
64664		-0.722031	-9.792628	1.076547	0.209266	-0.030741	0.189390	-83.188741	3.977257	55.782597
64665		-0.710642	-9.654483	1.251322	0.195132	-0.034442	0.183553	-83.070704	4.078327	55.813491
64666		-0.716946	-9.688506	1.254605	0.188799	-0.025478	0.184465	-82.956086	4.181728	55.839513
64667		-0.797371	-9.642704	1.316301	0.157448	-0.027352	0.183704	-82.859798	4.283266	55.866775
64668		-0.829736	-9.672921	1.248065	0.153869	-0.021894	0.168659	-82.765307	4.377849	55.889985
64669		-0.814476	-9.617264	1.350003	0.146102	-0.022541	0.165584	-82.675717	4.469348	55.913525
64670		-0.641033	-10.010327	1.115807	0.118407	-0.016746	0.198944	-82.601491	4.581451	55.936322
64671		-0.757173	-9.717683	1.360711	0.191937	-0.005732	0.225001	-82.485942	4.707883	55.955004
64672		-0.774463	-9.906932	1.198527	0.165736	-0.011391	0.244607	-82.384435	4.846234	55.978611
64673		-0.861692	-9.741959	1.320387	0.199590	-0.006273	0.254649	-82.264148	4.989388	56.000372
64674		-0.860408	-9.707091	1.400658	0.187962	-0.005696	0.263745	-82.149898	5.138947	56.022787
64675		-1.093671	-9.627657	1.441955	0.163166	0.004396	0.255081	-82.050866	5.283101	56.039074
64676		-0.695506	-9.616834	1.570300	0.112815	0.015741	0.250466	-81.980742	5.426762	56.048722
64677		-1.088413	-9.406843	1.638871	0.093800	0.043986	0.251363	-81.923528	5.571939	56.042527
64678		-0.898203	-9.701790	1.395126	0.026319	0.053070	0.254166	-81.904932	5.720686	56.031457
64679		-0.957687	-9.540481	1.567605	0.021330	0.056447	0.260123	-81.889903	5.871845	56.019005
64680		-0.957185	-9.786785	1.386421	0.009227	0.062106	0.278533	-81.881473	6.035145	56.004834
64681		-0.996366	-9.745415	1.401449	0.009752	0.071037	0.303809	-81.873653	6.212267	55.987661
64682		-1.035308	-9.814783	1.304955	0.029809	0.073061	0.330736	-81.853731	6.406063	55.971554
64683		-1.068921	-9.760496	1.380263	0.047539	0.083935	0.361795	-81.824660	6.617134	55.951872
64684		-1.149210	-9.624508	1.417310	0.045692	0.083876	0.368776	-81.796098	6.833394	55.932887
64685		-1.164038	-9.596428	1.535198	0.029852	0.091059	0.367195	-81.777724	7.048127	55.909756
64686		-1.196859	-9.619233	1.489045	0.010949	0.102277	0.374331	-81.770442	7.269056	55.880838
64687		-1.303169	-9.641050	1.433801	-0.008238	0.105972	0.375506	-81.775072	7.489731	55.849899
64688		-1.375829	-9.721755	1.352672	0.007468	0.101887	0.382452	-81.769888	7.715233	55.821857
64689		-1.284630	-9.720979	1.441905	0.003795	0.109369	0.385294	-81.768020	7.941738	55.789766
64690		-1.368880	-9.778819	1.296895	0.014947	0.112823	0.402999	-81.759413	8.179792	55.757172
64691		-1.443229	-9.696432	1.402264	0.030946	0.112587	0.414887	-81.742157	8.423352	55.725731
64692		-1.462159	-9.649844	1.432723	0.031951	0.121039	0.415411	-81.724623	8.669135	55.689552
64693		-1.438117	-9.747333	1.461847	0.014537	0.123616	0.430390	-81.717793	8.922411	55.653164
64694		-1.456695	-9.823506	1.411586	0.031241	0.136892	0.452039	-81.701924	9.190280	55.611004
64695		-1.626137	-9.769406	1.426081	0.031058	0.143268	0.471724	-81.687221	9.468634	55.566857
64696		-1.858784	-9.559001	1.651460	0.083291	0.127294	0.450432	-81.641005	9.734821	55.530235
64697		-1.265706	-10.224419	1.211336	-0.010058	0.135676	0.512554	-81.648910	10.035726	55.494079
64698		-1.854585	-9.324531	1.788445	0.087975	0.169928	0.537040	-81.603415	10.354574	55.440362
64699		-1.726386	-10.060925	1.178596	0.004778	0.164633	0.565974	-81.605406	10.688206	55.392202
64700		-1.813349	-9.474628	1.712305	0.058472	0.170627	0.583961	-81.576733	11.033738	55.342174
64701		-1.564123	-10.029875	1.700767	-0.028632	0.186783	0.616317	-81.600096	11.397774	55.285499
64702		-1.792484	-10.403843	1.303768	0.008166	0.219911	0.695335	-81.604725	11.810527	55.216277
64703		-2.070735	-10.336419	1.359672	0.047451	0.192490	0.768260	-81.583309	12.261158	55.169104
64704		-1.648755	-10.275734	1.620486	0.026013	0.167835	0.847706	-81.569423	12.755909	55.143180
64705		-1.675816	-10.077820	1.768664	0.012572	0.215581	0.934347	-81.568585	13.302631	55.096915
64706		-1.961652	-10.007940	1.633545	-0.009574	0.246985	1.020738	-81.582923	13.902039	55.039683
64707		-2.008763	-10.164111	1.595929	-0.032071	0.261129	1.105667	-81.611638	14.549658	54.981069
64708		-1.997595	-10.328830	1.567337	-0.014611	0.277281	1.214066	-81.630600	15.261092	54.921963
64709		-2.281774	-10.060379	1.473651	0.029251	0.296304	1.313747	-81.626509	16.029566	54.859911
64710		-2.454777	-10.047082	1.263781	0.041502	0.284621	1.397358	-81.611672	16.845454	54.812023
64711		-2.539302	-9.931953	1.270404	0.112383	0.281622	1.487890	-81.554480	17.711445	54.774096
64712		-2.657946	-9.849387	1.253409	0.171100	0.274326	1.578738	-81.459453	18.629288	54.749740
64713		-3.011907	-9.736452	1.348996	0.215602	0.269340	1.650103	-81.336205	19.586235	54.736452
64714		-3.191166	-9.583440	1.376821	0.188596	0.255030	1.698503	-81.222903	20.570271	54.738415
64715		-3.279539	-9.452560	1.483853	0.198326	0.256540	1.737912	-81.102758	21.575848	54.745214
64716		-3.398851	-9.342808	1.528601	0.201476	0.248671	1.777714	-80.976002	22.604099	54.763182
64717		-3.564261	-9.014840	1.556549	0.228141	0.258220	1.798986	-80.834622	23.644342	54.779976
64718		-3.732852	-8.737354	1.655336	0.206700	0.269882	1.813106	-80.705906	24.694435	54.793954
64719		-3.671765	-8.757687	1.945535	0.203083	0.296968	1.816714	-80.585526	25.748229	54.793846
64720		-3.995512	-8.678435	1.876596	0.220014	0.341852	1.819579	-80.466142	26.808671	54.768414
64721		-4.430318	-8.956064	1.680192	0.226020	0.352011	1.823841	-80.346071	27.871739	54.739025
64722		-4.363971	-9.005771	1.708010	0.275305	0.358325	1.835101	-80.197730	28.942605	54.709604
64723		-4.482401	-9.436162	1.772639	0.329484	0.377721	1.850367	-80.023267	30.023295	54.672244
64724		-4.830378	-9.466441	1.685630	0.427985	0.402991	1.859492	-79.798168	31.112488	54.623634
64725		-5.015364	-9.226305	1.552207	0.480969	0.426896	1.863184	-79.549778	32.205669	54.564082
64726		-5.538263	-8.620486	1.639173	0.403025	0.449351	1.869036	-79.351727	33.305343	54.494866
64727		-5.055742	-8.560756	1.369919	0.348591	0.415073	1.904765	-79.169203	34.421006	54.456685
64728		-5.201973	-8.497311	1.588229	0.421179	0.446045	1.931566	-78.952759	35.555837	54.405347
64729		-5.528168	-7.956268	1.686664	0.402465	0.452764	1.951752	-78.747066	36.702289	54.356207
64730		-5.629001	-7.955872	1.721834	0.387261	0.461904	1.940892	-78.552407	37.844376	54.303735
64731		-5.599447	-7.989166	1.801207	0.393456	0.482919	1.942602	-78.362407	38.989393	54.240158
64732		-6.101372	-8.036258	1.909482	0.422191	0.507676	1.924085	-78.166923	40.127592	54.160141
64733		-6.053309	-7.452909	1.667463	0.449039	0.520503	1.898824	-77.964244	41.252836	54.070148
64734		-6.220804	-7.194191	1.697815	0.409960	0.536440	1.888909	-77.791301	42.375143	53.970422
64735		-6.310415	-7.069306	1.683618	0.381880	0.543127	1.879907	-77.639445	43.492950	53.866166
64736		-6.534338	-7.350841	1.778583	0.361451	0.553377	1.862939	-77.506176	44.603170	53.753458
64737		-6.632922	-7.384272	1.831038	0.395961	0.572145	1.825500	-77.369652	45.694524	53.620284
64738		-6.829683	-6.685138	1.882730	0.407310	0.602329	1.782031	-77.250169	46.765988	53.456302
64739		-6.782234	-6.145700	1.686027	0.360796	0.616536	1.748422	-77.173943	47.820267	53.273185
64740		-6.902820	-6.249454	1.634462	0.353597	0.636081	1.716674	-77.121422	48.859830	53.066249
64741		-6.943753	-5.756128	1.504253	0.346544	0.653319	1.694113	-77.093372	49.888704	52.836245
64742		-7.157953	-5.646643	1.320643	0.314196	0.662444	1.682843	-77.096958	50.912867	52.592091
64743		-7.514176	-5.630627	1.147622	0.224629	0.654694	1.680543	-77.155511	51.934289	52.347371
64744		-7.744278	-5.824605	1.143127	0.153238	0.637217	1.671923	-77.251587	52.948870	52.109751
64745		-7.769027	-5.603720	1.157067	0.093025	0.616135	1.647612	-77.381145	53.946521	51.877068
64746		-7.644090	-5.306758	1.096583	0.039299	0.606328	1.641959	-77.544262	54.939839	51.643400
64747		-7.899223	-5.111283	1.068089	-0.044639	0.591400	1.638566	-77.756872	55.928571	51.411345
64748		-7.909163	-4.832515	0.992270	-0.140079	0.578590	1.637300	-78.025992	56.914912	51.179330
64749		-8.115805	-4.897313	1.015066	-0.229670	0.561478	1.639890	-78.347424	57.899601	50.949191
64750		-7.983142	-4.935970	1.000981	-0.302694	0.549272	1.641888	-78.715223	58.883701	50.715781
64751		-8.028739	-5.212943	1.113024	-0.335220	0.541494	1.676772	-79.107903	59.885278	50.477965
64752		-8.228058	-5.147492	1.134630	-0.311327	0.547627	1.673331	-79.513082	60.885122	50.212026
64753		-8.565203	-4.935959	1.128195	-0.285514	0.552092	1.619686	-79.942212	61.853773	49.904875
64754		-8.634853	-5.027290	1.055996	-0.329025	0.553033	1.581804	-80.428845	62.800309	49.563303
64755		-8.736368	-5.322823	0.940377	-0.362913	0.551795	1.566895	-80.966849	63.736454	49.189200
64756		-8.781835	-5.457000	0.682624	-0.378633	0.537477	1.575216	-81.526787	64.674736	48.803395
64757		-8.718769	-5.424265	0.454192	-0.374000	0.518062	1.597945	-82.092727	65.622295	48.411394
64758		-8.788272	-5.385601	0.158595	-0.384788	0.491301	1.668611	-82.654311	66.606510	48.033587
64759		-8.754370	-5.141465	-0.197110	-0.418961	0.445131	1.779819	-83.195766	67.648948	47.702067
64760		-8.836213	-4.759885	-0.393110	-0.536589	0.384390	1.933706	-83.733049	68.773874	47.449936
64761		-8.966504	-4.514601	-0.667526	-0.719240	0.306321	2.122419	-84.270887	70.000611	47.311273
64762		-9.025703	-4.175985	-0.882698	-0.950759	0.199930	2.341576	-84.774086	71.346047	47.350832
64763		-9.198056	-4.319041	-1.134976	-1.238597	0.076122	2.566109	-85.221733	72.813494	47.621955
64764		-9.402134	-4.665993	-1.276544	-1.491866	-0.079617	2.815038	-85.476487	74.416283	48.243030
64765		-9.434746	-4.750337	-1.284775	-1.700282	-0.249764	3.030810	-85.382239	76.134907	49.343494
64766		-8.317237	-4.819842	-0.815066	-1.907396	-0.506918	3.125571	-84.539433	77.892247	51.325607
64767		-10.975043	-9.931132	-0.914026	-2.156839	-0.927279	2.564869	-82.328837	79.291053	54.837071
64768		-11.881295	-12.693935	0.129139	-2.141174	-1.331948	1.582944	-78.602682	80.058159	59.867288
64769		-8.996468	-12.715390	0.043349	-2.083884	-1.610700	0.519247	-74.262043	80.130135	65.481432
64770		-7.090955	-11.937934	0.108486	-1.925944	-1.754021	-0.602732	-70.619658	79.494820	70.299212
64771		-7.504864	-12.278734	0.499252	-1.545363	-1.847897	-1.648658	-68.162396	78.236821	73.701686
64772		-8.165382	-11.812235	0.793233	-1.078893	-1.925805	-2.492161	-66.688957	76.491447	75.841163
64773		-8.588191	-10.696696	0.927111	-0.670791	-1.986288	-3.080408	-65.800805	74.416922	77.151413
64774		-8.540916	-9.133547	1.093027	-0.359419	-2.038062	-3.434680	-65.193553	72.138208	77.996707
64775		-8.502447	-7.715077	1.090506	-0.129089	-2.057631	-3.582194	-64.692201	69.779081	78.600905
64776		-7.515994	-5.809002	1.296119	0.031447	-2.067557	-3.455723	-64.134359	67.477572	79.176977
64777		-6.444799	-4.480368	1.346908	0.107264	-2.051462	-3.032161	-63.415015	65.399178	79.890137
64778		-5.313534	-3.625597	1.456374	0.151591	-2.008420	-2.531920	-62.564595	63.579911	80.732700
64779		-4.353208	-3.929697	1.482497	0.163631	-1.949083	-2.127759	-61.659522	61.979553	81.640387
64780		-3.973878	-4.971196	1.461319	0.166014	-1.846471	-1.987932	-60.875865	60.468003	82.422593
64781		-3.283881	-5.996796	1.360080	0.134110	-1.706689	-2.097345	-60.348695	58.940694	82.939390
64782		-2.350691	-6.757207	1.426735	0.101268	-1.519714	-2.371264	-60.162154	57.324678	83.087583
64783		-1.514387	-7.512204	1.483739	0.100118	-1.288578	-2.725372	-60.305882	55.602266	82.841475
64784		-1.119425	-7.780915	1.516375	0.131211	-1.046084	-3.163068	-60.755150	53.724689	82.195705
64785		-1.108723	-7.816406	1.463802	0.190966	-0.820720	-3.654507	-61.431978	51.663914	81.202275
64786		-1.375721	-7.542922	1.655140	0.134649	-0.658146	-4.197763	-62.329274	49.359304	79.937022
64787		-1.732218	-7.150455	1.693201	-0.087418	-0.569632	-4.784761	-63.444707	46.769730	78.499855
64788		-1.952555	-6.059102	1.450033	-0.330440	-0.557814	-5.260503	-64.678974	43.913183	77.028418
64789		-2.429114	-3.796052	1.539912	-0.564901	-0.550021	-5.358681	-65.912295	40.991499	75.675298
64790		-2.768144	-2.354569	1.684853	-0.863358	-0.566510	-5.039877	-67.113428	38.207153	74.564212
64791		-2.613591	-2.695070	1.776510	-1.145176	-0.556694	-4.503297	-68.281483	35.698298	73.706296
64792		-2.029631	-4.936875	2.092835	-1.298363	-0.445704	-4.049147	-69.437632	33.435728	72.976216
64793		-1.331027	-7.840472	2.127397	-1.196870	-0.210796	-3.829287	-70.524814	31.332254	72.219417
64794		-0.998294	-9.099179	2.255619	-0.982629	0.073379	-3.776789	-71.521805	29.292631	71.355444
64795		-1.319379	-8.925051	2.104260	-0.840056	0.317754	-3.779005	-72.453542	27.289086	70.396793
64796		-2.339524	-8.323403	2.179649	-0.890288	0.427849	-3.743872	-73.389668	25.303167	69.430283
64797		-3.302607	-8.325937	2.497100	-1.062277	0.433075	-3.640695	-74.364811	23.367366	68.531316
64798		-3.988258	-9.408409	2.749144	-1.199725	0.405553	-3.522557	-75.360702	21.472186	67.716405
64799		-4.333982	-10.584578	2.800791	-1.221266	0.372279	-3.408709	-76.313701	19.629876	66.983652
64800		-4.101540	-10.845224	2.503316	-1.144531	0.357002	-3.264377	-77.180596	17.848559	66.318738
64801		-3.545771	-11.249702	2.129052	-1.160448	0.380372	-3.079365	-78.022930	16.171296	65.698518
64802		-2.891977	-13.306035	1.844601	-1.196059	0.467024	-3.041354	-78.873712	14.509894	65.063118
64803		-2.655319	-14.851890	1.532690	-0.997157	0.609216	-3.168089	-79.606961	12.790886	64.360075
64804		-2.761853	-14.089183	1.330697	-0.828809	0.741819	-3.322382	-80.237688	10.983169	63.590495
64805		-2.965692	-13.189794	1.293660	-0.891724	0.840035	-3.449728	-80.886405	9.111352	62.777769
64806		-2.918578	-13.168435	1.428420	-1.015146	0.899470	-3.526283	-81.582510	7.185158	61.950818
64807		-2.766336	-13.713030	1.639819	-1.051661	0.935285	-3.560850	-82.270173	5.239445	61.127543
64808		-2.724434	-14.035911	1.984026	-1.017152	0.928060	-3.580201	-82.909034	3.265996	60.332238
64809		-2.733110	-14.238575	2.359684	-0.961240	0.860680	-3.594513	-83.484946	1.278402	59.596722
64810		-2.849580	-14.376879	2.707936	-0.917754	0.747904	-3.592485	-84.010768	-0.728733	58.945419
