// General information: 
//  MT Manager version: 2022.2.0 
//  XDA version: 2022.2.0 build 7381 rev 124627 built on 2023-07-19
// Device information: 
//  DeviceId: 00B4BB4E
//  ProductCode: MTW2-3A7G6
//  Firmware Version: 4.6.0
//  Hardware Version: 2.0.0
// Device settings: 
//  Filter Profile: human(46.1)
//  Option Flags: Orientation Smoother Disabled, Position/Velocity Smoother Disabled, Continuous Zero Rotation Update Disabled, AHS Disabled, ICC Disabled
// Coordinate system: ENU
PacketCounter	SampleTimeFine	Acc_X	Acc_Y	Acc_Z	Gyr_X	Gyr_Y	Gyr_Z	Roll	Pitch	Yaw
25273		9.756050	1.624266	1.646715	1.097019	0.014029	0.331336	52.024686	-81.540711	-75.431129
25274		9.013654	2.005565	1.869175	1.124826	0.067137	0.253926	51.861041	-81.634217	-74.613238
25275		8.723826	2.968127	1.455789	1.295858	0.003505	0.188705	52.133343	-81.721205	-74.137328
25276		8.699314	3.692046	1.387167	1.288590	-0.074532	0.170500	52.697171	-81.827121	-73.960009
25277		9.191827	2.983687	1.074340	1.114602	-0.147729	0.214989	53.285664	-81.979474	-73.908641
25278		9.621701	1.815642	0.877479	0.927443	-0.108252	0.284102	53.482825	-82.149307	-73.570088
25279		9.559469	1.858762	0.416233	0.734861	-0.047238	0.328168	53.236165	-82.319379	-72.895468
25280		9.485199	2.396903	-0.051660	0.501673	-0.073301	0.305865	52.992725	-82.486894	-72.358776
25281		9.535437	2.374804	0.026887	0.318870	-0.108543	0.254347	52.878122	-82.643703	-72.058218
25282		9.483163	1.713602	0.450444	0.145064	-0.110235	0.218989	52.769520	-82.783906	-71.863789
25283		10.575495	0.528885	0.180364	-0.029109	-0.154058	0.151621	52.890312	-82.909499	-72.001603
25284		10.422901	0.193117	-0.529313	-0.019106	-0.093551	0.159229	52.787340	-83.016676	-71.907736
25285		10.895858	-0.957441	-0.682962	0.048480	-0.224303	0.223011	53.020648	-83.199148	-72.114028
25286		10.920387	-1.157088	1.283423	0.051458	-0.178616	0.264058	52.979962	-83.383937	-72.042291
25287		10.527851	-1.023809	1.749010	-0.228401	-0.097516	0.229270	52.538615	-83.525364	-71.729038
25288		9.903864	-0.946779	1.262302	-0.038217	-0.083758	0.183411	52.291721	-83.640457	-71.501616
25289		9.615814	-0.617750	2.008068	0.276637	-0.118130	0.152707	52.446132	-83.754108	-71.496767
25290		9.672304	-0.680315	1.952031	0.362481	-0.092369	0.144196	52.582175	-83.854525	-71.423754
25291		9.551872	-0.429916	1.211763	0.401562	-0.054255	0.155777	52.529531	-83.947323	-71.138690
25292		9.392449	0.009990	0.763676	0.476684	-0.059337	0.167341	52.506987	-84.046827	-70.840494
25293		9.430239	0.355705	0.645452	0.511433	-0.067284	0.165403	52.532045	-84.148525	-70.570361
25294		9.563638	0.878485	0.282138	0.451255	-0.069844	0.168271	52.527874	-84.252188	-70.305410
25295		9.645100	1.327285	-0.038053	0.321597	-0.089418	0.154405	52.574272	-84.356610	-70.166130
25296		9.821195	1.469611	-0.125626	0.194558	-0.122440	0.128377	52.803257	-84.460442	-70.283319
25297		9.772431	1.703742	0.320150	0.065789	-0.137233	0.098891	53.132531	-84.556069	-70.575510
25298		9.721161	1.679223	0.556663	-0.078109	-0.140149	0.077636	53.492494	-84.642468	-70.981127
25299		9.728734	1.447859	0.755887	-0.191885	-0.145177	0.080741	53.801873	-84.732081	-71.401525
25300		9.761738	1.141999	0.767927	-0.243347	-0.134310	0.097122	53.989729	-84.825026	-71.729247
25301		9.779439	0.828753	0.668934	-0.205722	-0.123700	0.112215	54.084184	-84.921740	-71.941694
25302		9.616679	0.763085	0.635495	-0.143731	-0.107482	0.129685	54.079198	-85.020629	-72.018431
25303		9.492608	0.757610	0.524329	-0.073807	-0.107520	0.144856	54.043937	-85.127036	-72.024753
25304		9.738619	0.836461	0.266243	-0.026331	-0.112087	0.156718	54.025949	-85.239999	-72.020916
25305		9.878147	0.834107	0.143311	0.019025	-0.126334	0.172633	54.035906	-85.365619	-72.019238
25306		9.901034	1.093519	0.211466	0.029370	-0.128288	0.195567	53.979764	-85.502050	-71.945113
25307		9.832481	1.134349	-0.024881	-0.018045	-0.112060	0.196778	53.773564	-85.634023	-71.747934
25308		9.697767	1.229121	0.074576	-0.032830	-0.134553	0.193620	53.717213	-85.771625	-71.709360
25309		9.537726	1.307428	0.512631	-0.138614	-0.137226	0.185246	53.636233	-85.906760	-71.707065
25310		9.493599	1.313727	0.718091	-0.285040	-0.141734	0.168254	53.598880	-86.035023	-71.832400
25311		9.889110	1.222488	0.337226	-0.444110	-0.124454	0.145651	53.448699	-86.147565	-71.936189
25312		10.048209	0.517326	-0.078494	-0.499397	-0.116592	0.133435	53.293505	-86.251154	-72.066464
25313		10.040532	0.002188	-0.174525	-0.504713	-0.119049	0.142658	53.081927	-86.360507	-72.143496
25314		9.854714	-0.438868	-0.089125	-0.453386	-0.120539	0.163166	52.814138	-86.479182	-72.134527
25315		9.834659	-0.405381	0.012589	-0.404694	-0.113630	0.172423	52.435286	-86.600246	-71.986549
25316		9.708875	-0.458091	-0.324024	-0.317332	-0.087463	0.150677	52.037762	-86.701777	-71.769573
25317		9.643849	-0.253131	-0.004124	-0.197984	-0.109215	0.134591	51.944183	-86.804099	-71.788732
25318		9.847562	-0.038363	0.118093	-0.209876	-0.104961	0.119025	51.931158	-86.897600	-71.895247
25319		9.945105	-0.023047	-0.386700	-0.170649	-0.083416	0.119799	51.729601	-86.984126	-71.790587
25320		9.912358	0.206933	-0.424212	-0.085658	-0.089471	0.121794	51.633099	-87.073488	-71.742248
25321		9.669629	0.590201	-0.116468	-0.083120	-0.094362	0.125970	51.521568	-87.166656	-71.677530
25322		9.643717	1.104114	0.345729	-0.180764	-0.112023	0.113376	51.634953	-87.260315	-71.893900
25323		9.829109	1.024539	0.282555	-0.383882	-0.092275	0.092646	51.579324	-87.337778	-72.057671
25324		9.849201	0.452484	0.095131	-0.431563	-0.085061	0.084413	51.523664	-87.408747	-72.248625
25325		9.953287	-0.022103	0.332796	-0.450451	-0.085989	0.085872	51.426275	-87.480947	-72.408756
25326		9.952620	-0.364282	-0.088897	-0.431719	-0.062784	0.084411	51.144098	-87.543982	-72.373056
25327		9.842420	-0.573773	-0.308193	-0.332537	-0.054815	0.077145	50.855353	-87.601113	-72.274023
25328		9.731953	-0.563339	-0.303014	-0.236378	-0.070158	0.070370	50.873385	-87.660692	-72.426802
25329		9.734517	-0.322409	-0.192779	-0.154056	-0.069232	0.072083	50.883116	-87.720775	-72.524150
25330		9.812854	-0.171598	-0.198754	-0.104943	-0.071836	0.070030	51.008422	-87.780932	-72.708932
25331		9.879649	-0.144281	-0.189017	-0.062330	-0.066300	0.078337	50.986185	-87.842734	-72.721688
25332		9.805158	-0.303536	-0.299418	-0.009984	-0.048178	0.085965	50.736036	-87.901521	-72.476314
25333		9.650599	-0.259414	-0.077529	0.072442	-0.058131	0.090718	50.556288	-87.965843	-72.254187
25334		9.588037	-0.149010	0.319309	0.064151	-0.059347	0.095030	50.367600	-88.032751	-72.027849
25335		9.697173	-0.135412	0.113008	0.038869	-0.039756	0.085083	49.960506	-88.087780	-71.597508
25336		9.769662	-0.102195	-0.236922	0.076599	-0.034602	0.080532	49.573521	-88.139134	-71.165657
25337		9.819182	0.008476	-0.035514	0.084772	-0.039680	0.066854	49.358459	-88.186015	-70.901159
25338		9.836877	0.145186	-0.082159	0.038947	-0.030690	0.062373	49.074682	-88.227957	-70.594184
25339		9.915270	0.160755	-0.270237	0.017840	-0.014578	0.059947	48.522904	-88.262285	-70.031192
25340		9.859231	-0.104999	-0.559676	0.041855	-0.017837	0.069371	47.932029	-88.302187	-69.415332
25341		9.794327	-0.369622	-0.307774	0.087817	-0.034406	0.087682	47.288235	-88.355547	-68.720198
25342		9.707424	-0.464433	-0.324410	0.113231	-0.028088	0.105243	46.317633	-88.414101	-67.683600
25343		9.590465	-0.544259	0.011106	0.107034	-0.023738	0.096231	45.287540	-88.466046	-66.591048
25344		9.671535	-0.738599	0.171008	0.072760	-0.011637	0.069110	44.453181	-88.502408	-65.714006
25345		9.847399	-0.690469	-0.014554	0.113475	0.006279	0.047327	43.628170	-88.521571	-64.822949
25346		9.938826	-0.445261	-0.180380	0.156493	0.028490	0.035366	42.709325	-88.527338	-63.813441
25347		9.881329	-0.351152	-0.290185	0.163700	0.024063	0.030269	41.894686	-88.531675	-62.903980
25348		9.805980	0.011683	-0.296683	0.233377	0.025970	0.031855	41.102121	-88.536539	-61.976746
25349		9.688431	0.429188	-0.016239	0.303926	0.022422	0.032977	40.335340	-88.541954	-61.034794
25350		9.781191	0.692886	0.148615	0.246501	0.009748	0.025452	39.885835	-88.551023	-60.443217
25351		9.880915	0.846936	0.256561	0.181667	0.016309	0.017179	39.401024	-88.552909	-59.853401
25352		9.881403	0.953270	0.291047	0.062276	0.039974	0.002272	38.818032	-88.539836	-59.233867
25353		9.863796	0.660621	-0.021639	-0.024459	0.048311	-0.008411	38.225032	-88.517953	-58.653961
25354		9.915766	0.434473	-0.166798	-0.067703	0.046454	-0.013708	37.785945	-88.495956	-58.252852
25355		9.834477	0.370858	-0.203040	-0.103499	0.035441	-0.015900	37.475867	-88.477064	-58.001258
25356		9.885193	0.241173	-0.132444	-0.103750	0.042880	-0.029835	37.358296	-88.450992	-57.942429
25357		9.891744	0.351247	0.141643	-0.121770	0.040162	-0.047705	37.517755	-88.418852	-58.171013
25358		9.871823	0.055359	0.270803	-0.171308	0.032695	-0.062268	38.014142	-88.386027	-58.765099
25359		9.863264	-0.093470	0.377378	-0.179684	0.047943	-0.070489	38.378323	-88.342231	-59.231692
25360		9.585856	-0.431927	0.273471	-0.153439	0.061670	-0.080925	38.769552	-88.289529	-59.710358
25361		9.554887	-0.545325	0.184414	-0.092859	0.043389	-0.090777	39.485257	-88.240210	-60.478891
25362		9.717671	-0.581908	0.015723	-0.061188	0.058911	-0.097205	40.124147	-88.182520	-61.152494
25363		9.833281	-0.547934	-0.282297	0.006823	0.082397	-0.099826	40.491895	-88.112336	-61.515794
25364		9.822825	-0.183065	-0.493743	0.101491	0.094972	-0.107167	40.875883	-88.035062	-61.841158
25365		9.791615	0.184092	-0.556935	0.112206	0.075783	-0.096054	41.275270	-87.969003	-62.175730
25366		9.842152	0.585084	-0.235749	0.099763	0.069965	-0.079889	41.548866	-87.912794	-62.391654
25367		9.801733	0.795062	-0.198540	0.085283	0.090313	-0.076363	41.521955	-87.847894	-62.315098
25368		9.733409	0.889943	-0.098227	0.046823	0.079560	-0.072607	41.574500	-87.790327	-62.340171
25369		9.894388	0.952650	0.109944	0.006853	0.066495	-0.068884	41.654414	-87.738479	-62.415487
25370		9.917704	0.727649	0.322582	-0.039106	0.090036	-0.057459	41.397670	-87.682129	-62.180282
25371		9.782271	0.390960	0.188555	-0.038521	0.093083	-0.048863	41.001552	-87.626397	-61.805191
25372		9.784139	0.371234	0.202135	-0.027567	0.082850	-0.036282	40.624370	-87.580949	-61.442798
25373		9.796296	0.307421	0.121670	-0.008833	0.085875	-0.028089	40.128895	-87.535859	-60.951208
25374		9.794468	0.143650	0.053785	0.014570	0.093035	-0.014030	39.495834	-87.493838	-60.308503
25375		9.695914	0.027305	0.023307	0.039151	0.096511	-0.004926	38.746572	-87.451945	-59.535328
25376		9.628057	0.084201	-0.026622	0.060774	0.096192	0.000771	38.010866	-87.413138	-58.763338
25377		9.548446	0.116103	0.053450	0.087231	0.080987	0.008653	37.319261	-87.382188	-58.020259
25378		9.752062	0.202738	0.273145	0.077687	0.077306	0.010754	36.674964	-87.354696	-57.330040
25379		9.786451	0.070592	0.237319	0.063335	0.085762	0.016426	35.890236	-87.323371	-56.507408
25380		9.781331	-0.041416	0.315561	0.091620	0.078960	0.007358	35.305395	-87.293232	-55.868688
25381		9.763186	-0.184070	0.368697	0.113289	0.082190	0.003968	34.730625	-87.258652	-55.227555
25382		9.766358	-0.215476	0.462633	0.139385	0.084360	-0.001896	34.254136	-87.222423	-54.669886
25383		9.755636	-0.368760	0.338298	0.160384	0.091697	-0.007987	33.789749	-87.178972	-54.112211
25384		9.720567	-0.418218	0.240002	0.203072	0.092344	-0.017576	33.475085	-87.133604	-53.680003
25385		9.638571	-0.284115	0.196562	0.224320	0.088603	-0.024739	33.252894	-87.086045	-53.328109
25386		9.711838	-0.059277	0.269396	0.211189	0.089692	-0.039138	33.179311	-87.035104	-53.132619
25387		9.735135	0.023518	0.166727	0.185648	0.091418	-0.050152	33.166322	-86.978169	-53.012368
25388		9.738936	0.155647	0.178960	0.171045	0.085711	-0.054204	33.235435	-86.924457	-52.982796
25389		9.769413	0.418371	0.201633	0.167626	0.090277	-0.050848	33.228081	-86.867857	-52.878517
25390		9.800266	0.590265	0.267832	0.143290	0.089251	-0.045990	33.190900	-86.815054	-52.758410
25391		9.740754	0.729406	0.228145	0.164701	0.088080	-0.038999	33.097831	-86.763211	-52.569950
25392		9.631350	0.821653	0.442176	0.162117	0.073155	-0.043384	33.144127	-86.718928	-52.522628
25393		9.718294	0.966885	0.584274	0.119777	0.075740	-0.045257	33.149578	-86.671044	-52.458616
25394		9.786316	0.816415	0.541557	0.059400	0.084611	-0.059665	33.210657	-86.616099	-52.485034
25395		9.836064	0.615394	0.503422	0.029975	0.084370	-0.064604	33.275337	-86.558010	-52.531893
25396		9.786386	0.403334	0.458085	-0.004643	0.088513	-0.066492	33.331294	-86.498995	-52.589930
25397		9.749505	0.146313	0.321017	-0.018599	0.093944	-0.079368	33.429768	-86.431665	-52.698539
25398		9.684099	-0.054991	0.321355	-0.007393	0.094238	-0.094042	33.658156	-86.361191	-52.930932
25399		9.664954	-0.253524	0.417177	-0.010727	0.086265	-0.104795	33.975601	-86.289358	-53.254460
25400		9.796568	-0.322565	0.463162	-0.037868	0.082266	-0.104607	34.301014	-86.221074	-53.601628
25401		9.867712	-0.167387	0.416720	-0.009162	0.094659	-0.099903	34.520760	-86.146647	-53.826394
25402		9.853471	0.004833	0.151530	0.069563	0.109594	-0.124356	34.888709	-86.058888	-54.154573
25403		9.738467	0.100646	-0.083615	0.158422	0.086698	-0.148509	35.544320	-85.971924	-54.720052
25404		9.728124	0.186191	0.224215	0.200625	0.066309	-0.171038	36.454387	-85.888121	-55.516509
25405		9.713892	0.243426	0.402904	0.153704	0.064391	-0.179003	37.346428	-85.799769	-56.321873
25406		9.608727	0.091865	0.271679	0.096902	0.084821	-0.197760	38.202903	-85.696539	-57.124363
25407		9.584592	-0.224466	0.151736	0.078336	0.075202	-0.213224	39.128634	-85.589343	-58.007032
25408		9.678887	-0.045988	0.560520	0.049892	0.047387	-0.206340	40.101942	-85.497735	-58.953947
25409		9.860595	0.515609	0.951498	-0.016105	0.050906	-0.169709	40.770042	-85.415287	-59.632679
25410		9.916532	0.926988	0.795330	-0.075092	0.088265	-0.141090	41.071390	-85.328816	-59.977503
25411		9.727751	1.360577	0.648667	0.001766	0.079745	-0.111146	41.274286	-85.255337	-60.179339
25412		9.473456	2.057688	0.687067	0.080910	0.049914	-0.096117	41.588842	-85.202054	-60.447773
25413		9.397853	2.342312	0.818346	0.093316	0.022205	-0.075424	41.910207	-85.166637	-60.715891
25414		9.491442	2.247542	0.981554	0.075296	0.017028	-0.039367	42.077133	-85.148681	-60.839376
25415		9.618077	1.972486	0.928002	0.025705	0.040579	0.008936	41.850107	-85.137671	-60.596019
25416		9.725288	1.710377	0.545387	0.033296	0.041762	0.054372	41.412648	-85.144644	-60.137054
25417		9.749118	1.586862	0.473869	0.058770	0.029885	0.088952	40.845870	-85.168107	-59.533721
25418		9.824037	1.482410	0.469864	0.033496	0.021878	0.124034	40.131413	-85.208772	-58.796670
25419		9.669793	1.292891	0.339539	0.053626	0.010713	0.148746	39.313077	-85.261321	-57.943933
25420		9.578307	1.238566	0.630289	0.081060	-0.011894	0.164978	38.523232	-85.330003	-57.103996
25421		9.487467	1.127913	0.797682	0.064177	-0.024352	0.183261	37.628697	-85.408507	-56.168909
25422		9.522528	1.020118	0.826765	0.040948	-0.009471	0.202877	36.533388	-85.486842	-55.045768
25423		9.469888	0.764432	0.507806	0.091864	0.009094	0.206467	35.305037	-85.554732	-53.760128
25424		9.502124	0.739207	0.573194	0.178935	-0.006886	0.223674	34.072233	-85.634788	-52.420013
25425		9.521992	0.618542	0.572024	0.143832	-0.022741	0.251311	32.635578	-85.727482	-50.895893
25426		9.402106	0.583754	0.471165	0.170988	-0.025303	0.259684	31.128297	-85.822242	-49.285442
25427		9.268810	0.798572	0.656774	0.178783	-0.041069	0.251810	29.647711	-85.918078	-47.697569
25428		9.144206	1.000521	0.979117	0.142583	-0.070270	0.258801	28.160744	-86.028831	-46.124204
25429		8.978628	1.175681	1.209001	0.008496	-0.099388	0.256420	26.613051	-86.149434	-44.567290
25430		9.117535	1.110091	1.286921	-0.120836	-0.117207	0.261355	24.944216	-86.278705	-42.963361
25431		9.376570	0.863910	1.024104	-0.233221	-0.102187	0.262106	23.007050	-86.395570	-41.155400
25432		9.946054	0.356956	0.430143	-0.281535	-0.092657	0.264725	20.891495	-86.505000	-39.196560
25433		10.163332	-0.423700	-0.233520	-0.201840	-0.019748	0.278795	18.314525	-86.571431	-36.730009
25434		9.871828	-1.000761	-0.119251	-0.059409	-0.047933	0.294414	15.679745	-86.650532	-34.123897
25435		10.011439	-0.694941	0.067633	-0.071908	-0.044633	0.309515	12.736665	-86.720816	-31.216429
25436		9.831526	-0.468418	-0.377646	-0.107906	-0.026500	0.292398	9.815261	-86.772012	-28.351459
25437		9.824170	-0.554112	-0.105936	-0.106935	-0.058166	0.265284	7.105842	-86.829044	-25.698447
25438		10.174329	-0.754243	0.003238	-0.092734	-0.040932	0.244756	4.531229	-86.870129	-23.172405
25439		10.183484	-0.837001	0.070624	-0.048451	0.003400	0.245014	1.885096	-86.877486	-20.549401
25440		10.162016	-1.049415	0.131260	-0.041839	0.002917	0.237357	-0.671974	-86.880691	-18.011829
25441		10.189025	-1.290231	0.057003	0.004382	-0.003126	0.221637	-3.051376	-86.879549	-15.625652
25442		9.965187	-1.256768	0.231732	0.083796	0.033349	0.187950	-4.989207	-86.856237	-13.636164
25443		9.867391	-1.519667	0.389468	0.059495	0.052771	0.174960	-6.756216	-86.816887	-11.831590
25444		10.018212	-1.452960	-0.016000	0.133373	0.092936	0.167447	-8.302915	-86.754649	-10.205279
25445		9.971641	-0.908943	-0.172699	0.256087	0.119974	0.151024	-9.511538	-86.674166	-8.846968
25446		9.954432	-0.393325	-0.553427	0.294582	0.109391	0.138973	-10.548828	-86.601630	-7.638214
25447		10.023745	0.462233	-0.400964	0.332211	0.097591	0.135770	-11.502905	-86.532585	-6.491007
25448		10.163236	1.234166	0.194470	0.255557	0.155039	0.136577	-12.359961	-86.432597	-5.485045
25449		10.095210	1.275484	0.547355	0.014848	0.247100	0.190815	-13.571401	-86.270706	-4.261892
25450		9.800635	0.784878	0.175008	-0.217117	0.262532	0.244663	-15.220770	-86.093177	-2.732920
25451		9.843274	0.884118	0.187937	-0.103651	0.266498	0.255153	-16.732385	-85.906584	-1.276418
25452		9.726538	1.112778	0.538198	-0.136407	0.280663	0.254253	-18.097031	-85.712500	0.014139
25453		9.614163	0.337686	0.408168	-0.243904	0.267670	0.262129	-19.486697	-85.519222	1.268454
25454		9.701792	0.288354	0.634082	-0.228399	0.254186	0.263176	-20.802295	-85.333425	2.457603
25455		9.718942	0.680221	0.621465	-0.350796	0.259434	0.249340	-21.985844	-85.143065	3.444293
25456		9.769735	0.271410	0.410628	-0.482382	0.269457	0.219869	-22.963253	-84.955027	4.148582
25457		9.808408	-0.134765	0.299708	-0.518119	0.261570	0.206481	-23.839645	-84.770549	4.731182
25458		9.888485	-0.392072	0.383749	-0.526902	0.283994	0.198947	-24.577012	-84.578161	5.169182
25459		9.667822	-0.958913	0.227988	-0.589790	0.276718	0.205734	-25.359796	-84.384640	5.616844
25460		9.774155	-1.175364	0.494810	-0.535793	0.268720	0.216600	-26.150279	-84.194758	6.103367
25461		9.768449	-1.008264	0.474677	-0.477997	0.279688	0.219602	-26.850890	-83.995087	6.533114
25462		9.779511	-1.046172	0.668440	-0.341892	0.299261	0.225571	-27.424631	-83.786172	6.913710
25463		9.783939	-1.075891	0.672828	-0.306763	0.315397	0.243823	-27.985532	-83.561049	7.301941
25464		9.652131	-1.237004	0.649777	-0.233491	0.319039	0.251963	-28.506195	-83.334232	7.691927
25465		9.683215	-1.206889	0.707793	-0.145113	0.301338	0.255345	-28.995295	-83.112252	8.101472
25466		9.697469	-0.904833	0.758477	-0.051720	0.314183	0.266712	-29.427575	-82.882994	8.507672
25467		9.639329	-0.389264	0.628971	-0.009061	0.316269	0.257182	-29.760988	-82.652368	8.839258
25468		9.782340	-0.134365	0.447336	0.010741	0.308444	0.251924	-30.067709	-82.429625	9.155313
25469		9.739021	0.320618	0.629241	0.058287	0.285176	0.254884	-30.382462	-82.214610	9.507347
25470		9.712257	0.126210	0.681620	0.011141	0.292096	0.272366	-30.759583	-81.993649	9.895033
25471		9.689143	0.145196	0.690623	0.055381	0.285406	0.298566	-31.186957	-81.765044	10.359522
25472		9.746925	0.305668	1.056514	-0.017647	0.305185	0.333699	-31.712783	-81.518683	10.881289
25473		9.687627	0.153280	0.735881	-0.054855	0.336332	0.346126	-32.201222	-81.249806	11.344250
25474		9.753690	0.145738	0.792439	-0.082903	0.334943	0.363730	-32.738711	-80.978631	11.840716
25475		9.775456	0.035569	0.716777	-0.096034	0.360210	0.391631	-33.281271	-80.682847	12.335298
25476		9.800963	-0.103303	0.514131	-0.099955	0.373803	0.423761	-33.863704	-80.372821	12.868248
25477		9.714946	-0.189696	0.441104	-0.034329	0.381529	0.464542	-34.465180	-80.041942	13.459394
25478		9.673796	0.062916	0.723334	-0.005402	0.399510	0.496580	-35.066948	-79.694442	14.068064
25479		9.798961	0.181899	0.645870	0.020214	0.406926	0.533499	-35.688220	-79.326767	14.712410
25480		9.779134	0.431048	0.830081	0.032709	0.450954	0.579365	-36.296682	-78.925526	15.351590
25481		9.707197	0.512273	0.672772	0.031539	0.476649	0.627527	-36.922927	-78.491216	16.009361
25482		9.605718	0.705479	0.584323	0.081124	0.494094	0.677799	-37.557528	-78.033879	16.705506
25483		9.536207	1.302387	0.546701	0.177603	0.471402	0.746310	-38.261623	-77.557311	17.530732
25484		9.512846	1.569241	0.768348	0.194890	0.473010	0.786846	-38.978884	-77.067477	18.380940
25485		9.461225	1.236986	0.873143	0.223866	0.458807	0.847469	-39.753175	-76.555441	19.308685
25486		9.506971	1.302687	1.172776	0.257045	0.463659	0.948308	-40.617784	-76.005462	20.350859
25487		9.785930	1.540176	1.398399	0.231189	0.479791	1.047760	-41.562852	-75.402792	21.463559
25488		9.955259	1.391455	1.341118	0.133475	0.551772	1.135110	-42.515749	-74.736302	22.529514
25489		9.538920	1.147891	1.193559	0.083177	0.569312	1.216531	-43.505042	-74.021294	23.606967
25490		9.561283	1.121932	1.707337	-0.021863	0.564707	1.287649	-44.569028	-73.279955	24.703393
25491		9.520184	1.147508	2.345828	-0.234836	0.591688	1.343472	-45.695718	-72.494101	25.742225
25492		9.541902	0.750378	2.270721	-0.433274	0.633009	1.362723	-46.812121	-71.683595	26.655332
25493		9.377330	0.129173	2.172559	-0.513214	0.625401	1.353972	-47.887075	-70.869004	27.480614
25494		9.556791	-0.691074	2.083331	-0.587788	0.600813	1.314832	-48.915319	-70.081608	28.215087
25495		9.945553	-1.630723	2.053753	-0.634488	0.598253	1.260740	-49.853441	-69.308809	28.828501
25496		10.591985	-2.380528	1.929789	-0.643299	0.590648	1.212182	-50.704776	-68.562932	29.346667
25497		10.965746	-3.125470	1.466521	-0.631556	0.595470	1.153816	-51.447663	-67.832855	29.757824
25498		11.667621	-3.679953	0.975076	-0.502134	0.547788	1.052592	-52.047847	-67.169583	30.096840
25499		12.014995	-3.552589	1.173077	-0.358968	0.436969	0.888534	-52.524907	-66.612238	30.392688
25500		12.075385	-2.927949	2.084161	-0.448663	0.272251	0.678690	-53.042534	-66.213006	30.677659
25501		11.646899	-2.772662	3.205567	-0.737434	0.140411	0.436450	-53.661544	-65.962841	30.893394
25502		10.717353	-3.658655	3.782149	-1.110083	0.072389	0.181026	-54.364931	-65.859439	30.967844
25503		10.296076	-4.883166	3.433809	-1.291890	0.036108	-0.002855	-55.070622	-65.847249	30.930826
25504		9.881279	-6.318139	3.050409	-1.327527	-0.014235	-0.107736	-55.773803	-65.907342	30.868600
25505		10.036690	-7.831823	2.323549	-1.259357	-0.026177	-0.236832	-56.358616	-66.026659	30.719672
25506		9.719641	-8.091756	1.169291	-0.858469	-0.002983	-0.408699	-56.567864	-66.226874	30.411178
25507		8.887876	-6.948805	0.715125	-0.261693	-0.108381	-0.632245	-56.383768	-66.561504	30.047436
25508		8.278439	-5.526631	0.575043	0.227262	-0.242008	-0.854634	-55.893556	-67.049019	29.656102
25509		7.510589	-4.691852	0.760860	0.604927	-0.334733	-1.004829	-55.150663	-67.630574	29.227454
25510		7.979479	-2.931753	1.376429	0.793209	-0.458334	-1.212733	-54.242398	-68.352885	28.738204
25511		7.610866	-1.611886	1.714164	0.542197	-0.346343	-1.481321	-53.055186	-69.152576	27.798532
25512		7.024418	-1.286383	1.442960	0.359197	-0.387048	-1.719931	-51.713627	-70.072223	26.587206
25513		6.906069	-0.865242	0.999146	0.254022	-0.439149	-1.939714	-50.142125	-71.092325	25.076094
25514		7.347921	-0.046443	1.236927	0.315890	-0.510675	-2.179643	-48.175231	-72.232566	23.195198
25515		7.903617	0.372503	2.044765	0.096213	-0.466391	-2.313444	-45.838764	-73.383354	20.808074
25516		7.936190	-0.052304	1.950087	-0.138469	-0.378124	-2.338959	-43.135346	-74.481782	17.913033
25517		7.678201	-0.353462	1.734290	-0.112322	-0.319349	-2.325353	-39.942393	-75.501755	14.541639
25518		7.662300	-0.345976	1.696631	0.086275	-0.305400	-2.342742	-36.095325	-76.471714	10.628624
25519		7.690028	-0.099126	1.590259	0.277932	-0.286203	-2.372582	-31.477714	-77.364147	6.052484
25520		7.643119	0.405956	1.717126	0.434042	-0.291658	-2.404205	-26.031166	-78.179298	0.735338
25521		7.735286	1.062134	1.679079	0.528296	-0.305186	-2.428373	-19.757898	-78.882729	-5.355786
25522		8.270612	1.829353	1.500170	0.594545	-0.324198	-2.417113	-12.734567	-79.454822	-12.158020
25523		8.460417	2.432129	1.256669	0.579477	-0.294653	-2.378795	-5.188917	-79.835496	-19.489965
25524		8.441112	3.018974	1.273309	0.576435	-0.312870	-2.357118	2.749118	-80.049132	-27.214573
25525		8.531786	3.637310	1.787274	0.481494	-0.346346	-2.329850	10.722211	-80.091341	-35.027737
25526		8.785792	3.799423	1.916418	0.279980	-0.365428	-2.304342	18.476979	-79.965264	-42.736461
25527		9.119604	3.830263	1.881665	0.140827	-0.387211	-2.277434	25.751107	-79.681268	-50.043807
25528		9.524229	3.824370	2.134862	-0.055462	-0.352826	-2.223930	32.268249	-79.242406	-56.702807
25529		9.402824	3.511319	1.878042	-0.216180	-0.297509	-2.146458	37.802383	-78.677936	-62.466498
25530		9.344974	3.338076	1.914772	-0.327268	-0.285532	-2.078276	42.572481	-78.035508	-67.525896
25531		9.680467	3.262780	1.974387	-0.463994	-0.279784	-2.021245	46.597777	-77.339144	-71.917153
25532		9.926455	2.899581	1.722204	-0.510773	-0.260403	-1.942878	50.014825	-76.607179	-75.722400
25533		9.882374	2.724640	1.691176	-0.432495	-0.278378	-1.873102	53.002184	-75.869169	-79.052312
25534		10.030615	2.449966	1.930601	-0.462275	-0.334544	-1.817944	55.711767	-75.133718	-82.122089
25535		10.017350	2.022260	1.993901	-0.444071	-0.335031	-1.725700	58.032446	-74.413483	-84.790054
25536		9.766914	1.907270	2.398048	-0.434237	-0.331649	-1.622948	60.051124	-73.712690	-87.145651
25537		9.648089	2.126298	2.629897	-0.494587	-0.331038	-1.539241	61.759042	-73.037283	-89.223011
25538		9.789637	2.161739	2.167848	-0.454446	-0.342902	-1.439013	63.299940	-72.394915	-91.106996
25539		9.858820	2.330583	2.214998	-0.365712	-0.356879	-1.360198	64.716522	-71.787065	-92.815121
25540		10.378084	2.195585	2.309075	-0.430052	-0.405236	-1.282753	66.032752	-71.213999	-94.460468
25541		10.526462	1.904714	1.999280	-0.428801	-0.367406	-1.177615	67.123926	-70.681625	-95.874012
25542		11.145769	1.632924	2.217000	-0.460584	-0.383024	-1.109703	68.126174	-70.175480	-97.215436
25543		9.675719	1.700620	1.970658	-0.415937	-0.241871	-0.972611	68.802407	-69.711088	-98.188244
25544		9.767968	1.476802	1.907764	-0.361981	-0.348260	-0.873354	69.582838	-69.312592	-99.240513
25545		10.322194	0.772592	1.418569	-0.371513	-0.342104	-0.782750	70.258375	-68.961763	-100.190461
25546		11.295146	0.158333	1.454568	-0.211025	-0.312896	-0.711137	70.933997	-68.635657	-101.042645
25547		9.249669	1.152331	2.168158	0.000156	-0.157511	-0.535252	71.403879	-68.377627	-101.546765
25548		9.674762	1.033123	1.616161	-0.093723	-0.239271	-0.447347	71.889850	-68.176576	-102.125631
25549		9.436053	0.739068	1.503998	0.114552	-0.250486	-0.324073	72.438707	-68.046874	-102.645609
25550		9.421779	1.150493	2.106307	0.281255	-0.240843	-0.167734	73.006786	-67.995517	-103.082480
25551		9.204378	1.358422	2.093303	0.311800	-0.227307	0.015016	73.490022	-68.044385	-103.410156
25552		9.230385	1.295004	1.458242	0.463972	-0.216231	0.201574	73.980401	-68.189684	-103.650326
25553		9.018738	1.605641	1.804497	0.607040	-0.192364	0.423034	74.430948	-68.455996	-103.760099
25554		8.868477	1.656962	1.457423	0.610656	-0.171040	0.640927	74.781803	-68.836086	-103.759460
25555		8.720155	1.790827	1.065697	0.744887	-0.181428	0.854278	75.141004	-69.338837	-103.686324
25556		8.895047	1.799609	0.920426	0.900642	-0.177026	1.066430	75.513026	-69.955896	-103.531145
25557		8.167409	1.429434	1.048170	0.887746	-0.099961	1.270219	75.672769	-70.678114	-103.159824
25558		11.507066	-0.521366	1.482901	0.589258	-0.267923	1.273406	75.931714	-71.423611	-103.075160
25559		11.215846	-2.723328	-0.862476	0.560290	0.017126	1.254663	75.691184	-72.121224	-102.483181
25560		10.455453	-0.291640	-0.533215	1.160829	-0.202139	1.170127	76.206129	-72.801151	-102.324314
25561		10.949645	2.897859	-1.745845	0.921636	-0.209039	0.951945	76.699612	-73.362517	-102.287410
25562		10.872442	2.810561	-1.371741	0.979723	-0.394690	0.793944	77.678744	-73.858050	-102.721497
25563		11.061729	2.243983	1.384098	0.402196	-0.422518	0.721209	78.443177	-74.315464	-103.276004
25564		10.835448	1.243314	0.756995	-0.202772	-0.366845	0.685835	78.803521	-74.744048	-103.769073
25565		10.980823	0.942318	1.190328	0.026006	-0.353725	0.678675	79.287217	-75.167366	-104.253750
25566		11.285018	1.321671	3.711876	0.002550	-0.242066	0.665223	79.555111	-75.569631	-104.527822
25567		11.518511	1.092402	4.222070	-0.531018	-0.104553	0.697244	79.196230	-75.976348	-104.470714
25568		10.339460	-0.102186	3.297154	-0.510865	-0.017922	0.765907	78.610924	-76.411270	-104.168308
25569		9.192238	0.125164	3.278997	-0.146802	-0.074442	0.711360	78.364222	-76.822203	-104.000432
25570		9.070250	1.465256	1.463476	-0.090892	-0.064292	0.639579	78.153295	-77.191107	-103.836452
25571		8.682233	1.436704	-0.689983	-0.306372	-0.038609	0.606670	77.754351	-77.538714	-103.606757
25572		8.875024	0.855357	-1.761756	-0.605119	-0.132529	0.598395	77.417910	-77.892602	-103.616327
25573		9.032687	-0.092083	-2.071983	-0.744979	-0.204081	0.579620	77.189198	-78.245333	-103.818087
25574		9.278492	0.254015	-1.766141	-0.633006	-0.189845	0.522018	77.028182	-78.564215	-104.022962
25575		9.730370	1.130058	-0.965786	-0.649511	-0.182074	0.458688	76.871544	-78.846850	-104.241980
25576		9.516758	-0.114633	-0.802372	-0.726954	-0.141936	0.430483	76.582444	-79.108895	-104.370755
25577		9.657481	0.280953	0.301863	-0.401174	-0.170478	0.414698	76.566015	-79.365748	-104.587262
25578		10.205481	0.397545	0.512298	-0.449550	-0.120695	0.388627	76.402753	-79.602022	-104.682150
25579		10.204377	0.201287	0.109924	-0.183379	-0.096800	0.379167	76.316298	-79.829285	-104.700328
25580		9.964531	0.535461	0.487681	-0.021338	-0.090572	0.348574	76.334758	-80.039471	-104.730474
25581		9.956106	1.050940	0.093389	0.091512	-0.111631	0.335193	76.489388	-80.244238	-104.833463
25582		9.734095	1.462111	0.007645	0.053411	-0.115373	0.323090	76.658299	-80.443645	-104.972751
25583		9.614872	1.621692	-0.096628	0.001313	-0.107608	0.308449	76.779823	-80.632871	-105.094450
25584		9.632325	1.914486	-0.227705	-0.069835	-0.106700	0.281877	76.893032	-80.808059	-105.248692
25585		9.197099	1.218604	-0.084099	-0.239345	-0.062087	0.277600	76.750264	-80.974093	-105.242249
25586		9.804115	1.508239	-0.445482	-0.086659	-0.126502	0.274669	76.936575	-81.147832	-105.480097
25587		9.452552	1.636825	0.071133	-0.209610	-0.085770	0.275229	76.900094	-81.315616	-105.563965
25588		9.577507	1.357988	-0.024474	-0.300578	-0.097810	0.236786	76.901401	-81.464438	-105.738448
25589		9.468608	0.977097	0.235396	-0.318002	-0.103284	0.210693	76.927593	-81.598479	-105.948402
25590		9.711284	0.963762	0.751478	-0.403733	-0.092126	0.190535	76.895074	-81.720774	-106.148310
25591		9.864963	0.117802	0.109452	-0.474965	-0.063743	0.170488	76.719601	-81.827273	-106.245242
25592		9.880474	-0.192715	0.178139	-0.283948	-0.069949	0.172801	76.687387	-81.936975	-106.376027
25593		9.929018	0.226634	0.199878	-0.244509	-0.069986	0.163957	76.675757	-82.040687	-106.505022
25594		9.851665	0.327365	-0.191431	-0.141143	-0.079628	0.160367	76.779543	-82.144929	-106.690439
25595		9.671464	0.712865	0.138230	-0.034461	-0.090166	0.145211	76.994253	-82.240740	-106.926353
25596		9.708240	0.906914	0.122016	-0.039773	-0.097388	0.117934	77.279405	-82.323490	-107.236092
25597		9.646484	0.932697	0.118937	-0.016113	-0.087170	0.114129	77.532809	-82.401251	-107.500344
25598		9.581846	0.934792	0.141012	-0.027224	-0.076263	0.102350	77.762394	-82.472366	-107.746661
25599		9.520647	0.883896	0.034639	-0.010420	-0.071217	0.090816	77.982271	-82.534860	-107.973720
25600		9.703606	0.833063	-0.092897	0.017524	-0.077085	0.088839	78.262091	-82.598273	-108.244764
25601		9.818702	0.842843	-0.215946	0.067136	-0.067494	0.094774	78.514973	-82.662289	-108.460232
25602		9.906667	0.945919	-0.320033	0.143129	-0.069428	0.112742	78.822160	-82.738001	-108.686220
25603		9.901304	1.002880	-0.432499	0.247608	-0.078345	0.121067	79.213913	-82.817682	-108.937369
25604		9.803309	1.250080	-0.314598	0.277072	-0.057695	0.114736	79.556496	-82.892971	-109.121594
25605		9.596877	1.340521	0.072919	0.262089	-0.049352	0.102308	79.853268	-82.958725	-109.268592
25606		9.819257	1.301730	0.599949	0.184942	-0.070428	0.094309	80.228849	-83.023469	-109.539187
25607		9.966664	0.869893	0.506259	0.090117	-0.038431	0.080847	80.401822	-83.075853	-109.660692
25608		9.936703	0.368412	0.203239	0.114343	-0.010857	0.063624	80.490304	-83.117359	-109.682786
25609		9.614890	-0.006396	0.065058	0.171837	-0.012799	0.054246	80.613860	-83.152236	-109.707335
25610		9.791206	0.083220	-0.211505	0.175874	-0.017981	0.042856	80.788718	-83.182802	-109.780908
25611		9.824729	0.010577	-0.665134	0.201931	-0.006718	0.027133	80.923137	-83.201772	-109.799029
25612		9.780078	0.288110	-0.396532	0.258470	-0.014277	0.016539	81.149835	-83.217256	-109.877124
25613		9.788232	0.487102	-0.394647	0.235593	-0.000200	0.007136	81.288297	-83.224319	-109.879891
25614		9.627873	0.705484	-0.371076	0.274374	0.010196	-0.004397	81.423925	-83.225918	-109.857079
25615		9.581618	1.036063	-0.131104	0.306524	0.010192	-0.006963	81.563802	-83.224109	-109.820346
25616		9.678118	1.434015	-0.051809	0.303179	0.017903	0.008789	81.670214	-83.232598	-109.751479
25617		9.609617	1.754497	0.100015	0.306770	0.016377	0.020333	81.761509	-83.245771	-109.665683
25618		9.641407	2.260393	0.461536	0.249378	0.020472	0.020883	81.816431	-83.260854	-109.576011
25619		9.703159	2.256611	0.273937	0.117998	0.020313	0.023959	81.777932	-83.275776	-109.468434
25620		9.671160	2.095280	0.239134	0.084262	0.014960	0.036242	81.753339	-83.299814	-109.393973
25621		9.648321	2.104776	0.462122	0.035884	0.001368	0.041980	81.745949	-83.326502	-109.365099
25622		9.723284	1.948918	0.258321	-0.057188	0.011763	0.046568	81.647452	-83.356467	-109.297847
25623		9.738990	1.617120	0.194138	-0.085481	0.027789	0.055923	81.430433	-83.388817	-109.127941
25624		9.679163	1.240011	0.389063	-0.127886	0.022685	0.067893	81.219498	-83.429739	-108.988297
25625		9.742494	0.945491	0.391591	-0.138975	0.022767	0.071588	80.980317	-83.471250	-108.826962
25626		9.784789	0.835665	0.254668	-0.112599	0.002445	0.075177	80.868012	-83.517988	-108.777803
25627		9.870665	0.789370	0.181323	-0.026083	0.002142	0.067148	80.796189	-83.558784	-108.719828
25628		9.831716	0.826102	0.193885	-0.015447	0.003147	0.064444	80.742751	-83.599405	-108.673902
25629		9.825351	0.424337	-0.087448	0.030194	-0.014403	0.058994	80.792394	-83.637103	-108.705715
25630		9.781263	0.621995	0.073681	0.129315	-0.013546	0.050769	80.917925	-83.671584	-108.756409
25631		9.795977	0.788799	-0.002607	0.105418	-0.002856	0.044480	80.964831	-83.700017	-108.742100
25632		9.779610	0.702686	-0.059854	0.103577	-0.010895	0.036674	81.074754	-83.726322	-108.791917
25633		9.800653	0.632487	-0.001413	0.079896	0.004511	0.043484	81.070303	-83.753540	-108.740655
25634		9.782081	0.634466	-0.187472	0.055824	0.012275	0.053704	81.019412	-83.787473	-108.656215
25635		9.697613	0.663358	-0.190012	0.094119	0.007037	0.044606	81.008257	-83.815094	-108.590018
25636		9.669815	0.856346	-0.152008	0.120006	-0.000489	0.036865	81.074297	-83.840697	-108.586202
25637		9.657338	0.889974	0.022119	0.078330	-0.002648	0.025827	81.120274	-83.858558	-108.586574
25638		9.679114	0.940248	0.002028	0.061746	0.006413	0.014141	81.135732	-83.870708	-108.565451
25639		9.611794	0.883675	0.084306	0.009320	0.012098	0.007770	81.079329	-83.877041	-108.502621
25640		9.703969	0.717556	-0.008584	-0.058966	0.018706	0.012002	80.962226	-83.886882	-108.417733
25641		9.655601	0.677511	-0.072679	-0.054328	0.027734	0.003726	80.789792	-83.889480	-108.274887
25642		9.746939	0.827063	0.035514	-0.092804	0.036038	0.002809	80.569136	-83.892502	-108.105349
25643		9.700847	0.556312	-0.125394	-0.138482	0.022684	-0.002026	80.379989	-83.892221	-107.994187
25644		9.716952	0.514916	-0.065137	-0.094046	0.019060	-0.013446	80.262812	-83.887626	-107.929427
25645		9.756385	0.603796	0.000340	-0.075963	0.018333	-0.025889	80.154308	-83.874241	-107.863342
25646		9.712474	0.674222	0.012351	-0.037804	0.014130	-0.036099	80.116394	-83.857383	-107.845878
25647		9.730759	0.967440	0.169525	0.003563	0.004846	-0.042373	80.139632	-83.836008	-107.866465
25648		9.740923	1.000382	0.198949	-0.010188	0.006923	-0.036958	80.155937	-83.819390	-107.887613
25649		9.760433	0.979522	0.155151	0.007353	0.006361	-0.040698	80.171703	-83.798811	-107.898502
25650		9.725551	1.127342	0.167790	0.015294	0.008296	-0.038361	80.196353	-83.781257	-107.913358
25651		9.700103	1.090762	0.032182	0.009782	0.012228	-0.034952	80.177873	-83.763349	-107.888398
25652		9.671326	1.160641	-0.003381	0.030373	0.006628	-0.032586	80.214484	-83.749193	-107.906593
25653		9.642027	1.236244	0.037533	0.043132	0.006816	-0.031624	80.240033	-83.733692	-107.906702
25654		9.646162	1.470175	0.112873	0.029869	0.007754	-0.029401	80.267666	-83.721187	-107.916153
25655		9.640702	1.502957	0.188355	-0.003561	0.004414	-0.030344	80.277540	-83.706642	-107.927407
25656		9.711210	1.295076	0.190992	-0.061761	0.013990	-0.031216	80.222343	-83.692419	-107.906347
25657		9.687478	0.954740	0.010098	-0.049864	0.014408	-0.017214	80.143237	-83.684312	-107.854771
25658		9.723042	0.894997	0.101905	-0.007691	0.015497	-0.009299	80.092215	-83.682281	-107.806739
25659		9.758368	0.745884	0.014109	0.027620	0.010362	-0.003448	80.066042	-83.682333	-107.763752
25660		9.765527	0.751801	0.068881	0.054291	0.015214	-0.003626	80.046892	-83.683553	-107.712052
25661		9.695514	0.791181	0.097461	0.064716	0.017264	-0.007477	80.010404	-83.680643	-107.637302
25662		9.684391	0.769185	0.146837	0.100737	0.020687	-0.014894	80.000037	-83.674991	-107.567660
25663		9.636954	0.814624	0.182977	0.075520	0.019200	-0.017863	79.969381	-83.666022	-107.492548
25664		9.642470	0.656068	0.034192	0.089746	0.015005	-0.023140	79.988968	-83.656310	-107.459374
25665		9.632602	0.712397	0.108497	0.102155	0.025037	-0.023578	79.949369	-83.643530	-107.359906
25666		9.703764	0.787953	-0.073281	0.127117	0.028560	-0.027307	79.925610	-83.630158	-107.261564
25667		9.717806	0.961577	-0.148137	0.144754	0.019214	-0.032989	79.948743	-83.612646	-107.200654
25668		9.788077	1.133528	-0.076259	0.157280	0.018476	-0.026545	79.992947	-83.600743	-107.153294
25669		9.891348	1.339264	0.030668	0.160673	0.010377	-0.014789	80.053534	-83.594389	-107.120892
25670		9.703750	1.372456	-0.059168	0.184766	0.035546	-0.028090	80.029295	-83.579899	-106.988805
25671		9.725867	0.889556	0.038946	0.080032	0.003834	-0.034337	80.093700	-83.563163	-107.006740
25672		9.658616	1.078373	0.036711	0.324469	0.033988	-0.008629	80.140787	-83.559816	-106.865868
25673		9.618442	1.547891	0.317189	0.156706	0.004883	-0.005402	80.218487	-83.559309	-106.852973
25674		9.632566	1.751838	0.057606	0.139163	0.043253	-0.021609	80.124351	-83.547695	-106.676829
25675		9.696088	1.054490	0.180949	-0.015317	0.000658	-0.032204	80.147830	-83.532472	-106.708556
25676		9.619799	0.538971	-0.110211	0.081436	0.026499	-0.017279	80.101015	-83.524868	-106.613319
25677		9.669874	0.611357	0.008531	0.189117	0.010472	-0.006877	80.170843	-83.522978	-106.573811
25678		9.564670	0.965490	0.243202	0.266890	0.012077	-0.003066	80.289807	-83.524898	-106.538463
25679		9.733890	1.063191	0.139736	0.270736	-0.004938	0.000332	80.476953	-83.528575	-106.569962
25680		9.688708	1.504328	0.128750	0.308501	0.013094	-0.006323	80.617197	-83.528583	-106.532037
25681		9.697876	1.544153	0.230221	0.210103	0.001431	-0.016436	80.751737	-83.522170	-106.545555
25682		9.661208	1.315557	0.019173	0.168921	-0.003884	-0.015249	80.903671	-83.518623	-106.599889
25683		9.751656	1.337838	0.046469	0.157787	-0.002723	-0.012722	81.025684	-83.514678	-106.630967
25684		9.693885	1.439985	0.149074	0.124093	0.003837	-0.008583	81.108149	-83.514147	-106.641236
25685		9.683027	1.295278	0.203292	0.070169	0.000311	-0.010606	81.163092	-83.511121	-106.655337
25686		9.696011	0.935872	0.096240	0.078879	-0.001868	-0.005802	81.245780	-83.512604	-106.691906
25687		9.649308	0.972088	0.051209	0.153307	-0.005853	0.000953	81.370186	-83.516654	-106.727977
25688		9.660789	1.254204	0.295717	0.162059	-0.008100	0.003558	81.524616	-83.523968	-106.788781
25689		9.635786	1.217608	0.235357	0.104510	-0.004515	-0.002647	81.617266	-83.525846	-106.821029
25690		9.674229	0.921867	0.005262	0.094234	-0.006514	0.001271	81.726620	-83.531667	-106.875583
25691		9.677986	0.907351	0.083244	0.123542	-0.005700	-0.000622	81.834745	-83.534777	-106.912430
25692		9.646117	0.949705	0.068570	0.107398	-0.000722	0.000928	81.923088	-83.539930	-106.938243
25693		9.692286	0.950923	0.005606	0.097214	-0.001863	-0.000674	81.997065	-83.542691	-106.955904
25694		9.683423	0.874554	0.005913	0.113172	-0.005899	-0.005608	82.119378	-83.544548	-107.012570
25695		9.691207	0.873673	-0.019183	0.144204	-0.012511	-0.005784	82.277327	-83.545228	-107.087644
25696		9.683510	0.963328	0.099210	0.180511	-0.008371	-0.000127	82.447057	-83.550379	-107.153194
25697		9.681869	1.222108	0.156337	0.180023	-0.014157	-0.005441	82.633680	-83.551326	-107.236470
25698		9.699045	1.262137	0.233758	0.152087	-0.011670	-0.006787	82.808151	-83.552875	-107.323180
25699		9.704471	1.228732	0.157531	0.132461	-0.011036	0.003208	82.946481	-83.558462	-107.385281
25700		9.695081	1.187744	0.051392	0.115180	-0.008613	0.000291	83.079982	-83.563738	-107.452044
25701		9.655194	1.142678	-0.038690	0.106979	-0.010357	0.004556	83.199803	-83.570014	-107.510209
25702		9.675518	1.114845	-0.083865	0.113230	-0.011594	0.010022	83.341821	-83.580971	-107.586666
25703		9.704956	1.251996	-0.034519	0.099414	-0.007396	0.013074	83.437739	-83.591871	-107.625137
25704		9.696545	1.262916	0.063269	0.057822	-0.008473	0.014146	83.530529	-83.604917	-107.683998
25705		9.712964	1.223113	0.122257	0.009099	-0.005064	0.010537	83.564712	-83.614211	-107.712415
25706		9.660344	1.088395	0.139879	-0.021312	-0.002308	0.019809	83.577819	-83.630038	-107.736721
25707		9.685371	1.035507	0.100614	-0.032586	0.000905	0.020026	83.552328	-83.644350	-107.729126
25708		9.650216	0.964257	0.016462	-0.015830	-0.001208	0.029432	83.557319	-83.665573	-107.742106
25709		9.722876	1.077810	0.032395	-0.000054	0.001756	0.032906	83.538522	-83.687163	-107.722492
25710		9.702428	1.137171	-0.030853	0.004442	0.000998	0.030367	83.543234	-83.708773	-107.723504
25711		9.692168	1.202635	0.115649	-0.016650	0.001136	0.033574	83.517549	-83.730782	-107.706529
25712		9.688300	1.123738	-0.060604	-0.043653	0.000487	0.033672	83.495279	-83.754277	-107.708121
25713		9.701058	1.094857	-0.079565	-0.039153	0.006663	0.037364	83.425264	-83.778081	-107.659525
25714		9.694932	1.047244	-0.025614	-0.072418	0.006354	0.035336	83.354534	-83.802116	-107.628948
25715		9.697292	0.987737	-0.071143	-0.088578	0.004529	0.032831	83.269256	-83.823469	-107.593488
25716		9.678742	0.965606	0.002694	-0.093269	0.005391	0.037528	83.189539	-83.848798	-107.565890
25717		9.693852	0.845040	0.043478	-0.118449	0.006838	0.031197	83.075093	-83.869051	-107.518309
25718		9.707181	0.806386	-0.051299	-0.091790	0.008576	0.032090	82.981825	-83.891061	-107.476231
25719		9.720815	0.830436	0.133646	-0.076882	0.007834	0.030123	82.885615	-83.910616	-107.423042
25720		9.691319	0.813517	0.074321	-0.071329	0.009724	0.034218	82.795493	-83.933758	-107.372338
25721		9.730566	0.900516	0.134240	-0.043073	0.005964	0.032357	82.726217	-83.954700	-107.326758
25722		9.733437	0.929387	0.185715	-0.052178	0.008410	0.034065	82.653153	-83.977848	-107.282177
25723		9.718493	0.955379	0.050942	-0.028704	0.015188	0.033110	82.540914	-83.998523	-107.185123
25724		9.763831	1.096437	0.135642	-0.032854	0.013906	0.038002	82.445121	-84.023476	-107.106561
25725		9.740434	1.133692	0.100891	-0.062039	0.014028	0.034385	82.317667	-84.044925	-107.013421
25726		9.762755	1.047466	0.012757	-0.075209	0.016034	0.035456	82.186188	-84.068203	-106.923389
25727		9.659545	0.924460	0.013787	-0.069552	0.018748	0.034034	82.027177	-84.089035	-106.802857
25728		9.660673	0.911358	-0.060399	-0.075609	0.017152	0.036428	81.886784	-84.112716	-106.704103
25729		9.667012	0.962468	-0.033647	-0.052973	0.020253	0.030039	81.730207	-84.131094	-106.576478
25730		9.729192	1.054498	0.034925	-0.067043	0.009004	0.031600	81.641990	-84.152661	-106.525245
25731		9.738471	0.966967	0.148147	-0.076966	0.005943	0.034535	81.545743	-84.174737	-106.472093
25732		9.819940	1.041412	0.249811	-0.085523	0.008050	0.027546	81.454502	-84.194052	-106.428469
25733		9.710154	1.035452	0.188658	-0.094722	0.011449	0.025891	81.323536	-84.210740	-106.350649
25734		9.750627	0.942465	0.209804	-0.098108	0.007850	0.026604	81.225765	-84.229494	-106.307719
25735		9.721176	0.793046	0.081063	-0.085793	0.008139	0.029684	81.114054	-84.248590	-106.244114
25736		9.699652	0.871800	0.173301	-0.052267	0.006415	0.038501	81.039001	-84.274191	-106.197623
25737		9.668553	0.910716	0.161098	-0.043677	0.006093	0.036610	80.955693	-84.297371	-106.138317
25738		9.689883	1.004963	0.111512	-0.029819	0.001843	0.033555	80.922749	-84.320570	-106.121224
25739		9.686708	0.979145	0.138169	-0.037122	0.005553	0.034398	80.847357	-84.342536	-106.066104
25740		9.742000	0.928587	0.083039	-0.054140	0.004236	0.042685	80.777571	-84.370657	-106.025997
25741		9.695907	0.827533	-0.029186	-0.041213	0.012000	0.040038	80.656308	-84.395200	-105.927144
25742		9.659737	0.899404	0.032504	-0.026296	0.003465	0.037346	80.610785	-84.420361	-105.895390
25743		9.733714	1.011185	0.051654	-0.041730	0.006320	0.036907	80.523646	-84.443643	-105.831128
25744		9.713684	0.900787	0.026182	-0.062898	0.006477	0.037853	80.438185	-84.468782	-105.780322
25745		9.745297	0.854384	0.040254	-0.059688	0.002334	0.036357	80.363338	-84.492115	-105.738753
25746		9.709885	0.880128	0.130752	-0.064854	0.007137	0.032005	80.277613	-84.513869	-105.688810
25747		9.670534	0.787724	0.072186	-0.064725	0.013929	0.036124	80.130643	-84.535927	-105.577690
25748		9.712000	0.817769	0.085951	-0.040986	0.010880	0.039021	80.027746	-84.561251	-105.496763
25749		9.742884	0.817656	0.071840	-0.037299	0.013366	0.037315	79.896622	-84.583991	-105.385785
25750		9.729804	0.752718	-0.005259	-0.030711	0.012815	0.035113	79.790398	-84.606886	-105.295610
25751		9.779156	0.781609	-0.014731	0.006744	0.014321	0.036758	79.677500	-84.629173	-105.177599
25752		9.745929	0.884797	0.098579	0.005875	0.017571	0.037575	79.559302	-84.652943	-105.054346
25753		9.751365	0.848470	0.026086	-0.001386	0.012527	0.038805	79.448289	-84.676526	-104.942917
25754		9.753026	0.931154	0.126668	0.002805	0.020688	0.040236	79.304224	-84.701410	-104.795462
25755		9.735748	0.889949	0.047219	-0.007218	0.019562	0.036448	79.147577	-84.722862	-104.641568
25756		9.757391	0.946316	0.104368	0.009100	0.012465	0.039420	79.055665	-84.748098	-104.542878
25757		9.798107	0.842930	0.047424	-0.001581	0.012609	0.040964	78.937149	-84.772794	-104.424043
25758		9.775300	0.880438	0.012901	0.019226	0.021326	0.043989	78.788789	-84.799568	-104.262855
25759		9.766430	0.932649	0.085537	0.035691	0.014141	0.044795	78.674963	-84.826194	-104.127297
25760		9.769250	1.006070	0.109289	0.010564	0.021690	0.045848	78.514016	-84.853888	-103.958469
25761		9.756168	0.940490	0.032496	0.009704	0.018073	0.040368	78.363483	-84.877515	-103.801017
25762		9.726258	0.886366	0.078312	0.007512	0.016995	0.045551	78.227359	-84.905483	-103.658885
25763		9.765212	0.883858	0.041523	0.006136	0.021438	0.049526	78.038335	-84.933773	-103.464855
25764		9.752347	0.771555	-0.006342	-0.014397	0.021361	0.041764	77.863711	-84.959005	-103.296689
25765		9.758268	0.641893	-0.020882	-0.007625	0.019757	0.040747	77.685622	-84.982475	-103.121566
25766		9.742684	0.640654	0.027274	0.006588	0.022145	0.039677	77.517680	-85.006365	-102.948048
25767		9.734972	0.638601	0.052738	0.003660	0.028048	0.030143	77.304845	-85.022772	-102.731569
25768		9.692464	0.658028	0.091062	-0.005326	0.024565	0.020025	77.140136	-85.035293	-102.568153
25769		9.712493	0.629603	0.050255	-0.022112	0.025073	0.017240	76.948452	-85.044756	-102.387735
25770		9.722376	0.620141	0.185694	-0.027009	0.019146	0.017792	76.807966	-85.056666	-102.261105
25771		9.754498	0.520285	0.152983	-0.017378	0.024212	0.012562	76.630322	-85.063546	-102.092061
25772		9.757182	0.596821	0.177629	-0.000429	0.023620	0.013184	76.481848	-85.072253	-101.942128
25773		9.761241	0.571870	0.182617	0.008725	0.022054	0.008168	76.339046	-85.076898	-101.793047
25774		9.738422	0.612866	0.148463	0.038039	0.022601	0.008588	76.225361	-85.083144	-101.655909
25775		9.711601	0.677736	0.111170	0.061932	0.019364	0.009380	76.127954	-85.088779	-101.521797
25776		9.745164	0.665189	0.176726	0.051411	0.019460	0.008734	76.041317	-85.095511	-101.404115
25777		9.731615	0.695481	0.042363	0.056636	0.021426	0.017203	75.914216	-85.105169	-101.243249
25778		9.741065	0.826076	0.090990	0.061705	0.020396	0.008193	75.827515	-85.111441	-101.119585
25779		9.783780	0.849676	0.028005	0.053912	0.017523	0.009230	75.736494	-85.117173	-100.996499
25780		9.751873	0.854703	0.121350	0.039863	0.016016	0.004772	75.670996	-85.122123	-100.906678
25781		9.757279	0.963741	0.195456	0.024790	0.017846	0.003290	75.570676	-85.124482	-100.791007
25782		9.761283	0.939614	0.199901	-0.006165	0.015989	0.001542	75.484065	-85.127593	-100.706469
25783		9.713174	0.851987	0.164298	-0.012253	0.014432	0.003902	75.383474	-85.130752	-100.611829
25784		9.723898	0.835222	0.222435	-0.021061	0.015844	0.004574	75.283783	-85.135514	-100.522735
25785		9.713208	0.804578	0.196722	-0.020760	0.022558	0.006515	75.120608	-85.138899	-100.370178
25786		9.693194	0.688087	0.095403	-0.013813	0.018019	0.013374	74.994991	-85.148158	-100.250900
25787		9.711944	0.669231	0.130969	-0.000126	0.023478	0.008803	74.833002	-85.152605	-100.087672
25788		9.697288	0.662244	0.102565	0.006305	0.022975	0.008796	74.693818	-85.158541	-99.943211
25789		9.714723	0.603195	0.010639	0.027977	0.020555	0.008115	74.567636	-85.162984	-99.799760
25790		9.773462	0.627002	0.134909	0.049295	0.019246	0.008426	74.477510	-85.169250	-99.679811
25791		9.701326	0.589641	0.139657	0.056705	0.023232	0.008376	74.349310	-85.173379	-99.517819
25792		9.741443	0.724355	0.172861	0.069720	0.023085	0.002854	74.255412	-85.175953	-99.382339
25793		9.778784	0.735044	0.212933	0.059042	0.023270	0.004360	74.135357	-85.177811	-99.227178
25794		9.761510	0.696941	0.133481	0.046520	0.023165	0.003374	74.026272	-85.180612	-99.089798
25795		9.772074	0.680457	0.191918	0.053103	0.021634	0.004544	73.912915	-85.182778	-98.944775
25796		9.733326	0.724870	0.202947	0.043655	0.018388	0.000919	73.837660	-85.184950	-98.842993
25797		9.750734	0.619911	0.139890	0.042780	0.021646	0.001716	73.723490	-85.185518	-98.703089
25798		9.701345	0.634251	0.123298	0.060004	0.019931	0.001378	73.646373	-85.187670	-98.590036
25799		9.718624	0.718439	0.176844	0.071487	0.015552	0.002410	73.587000	-85.189571	-98.488619
25800		9.687820	0.715445	0.193178	0.090370	0.017033	-0.003304	73.555003	-85.189606	-98.403386
25801		9.705055	0.800093	0.246082	0.091015	0.012932	0.001402	73.525804	-85.191367	-98.321021
25802		9.723866	0.875112	0.221880	0.081737	0.008654	-0.001043	73.539003	-85.193992	-98.286108
25803		9.726501	0.953343	0.243673	0.069701	0.014243	0.001058	73.489605	-85.195348	-98.195728
25804		9.734422	0.905795	0.250556	0.053868	0.011490	-0.002557	73.471074	-85.196646	-98.145004
25805		9.730390	0.930036	0.248173	0.026732	0.011155	-0.002687	73.424459	-85.196440	-98.082124
25806		9.705001	0.847501	0.220160	0.001973	0.009907	-0.003473	73.388171	-85.197455	-98.043425
25807		9.751671	0.755229	0.218342	-0.006805	0.010392	0.000530	73.321021	-85.199132	-97.979221
25808		9.695548	0.669055	0.205768	0.001443	0.010188	0.003024	73.269673	-85.203644	-97.925716
25809		9.685085	0.684664	0.150080	0.009526	0.011939	0.000991	73.200737	-85.205307	-97.850332
25810		9.693045	0.636673	0.157074	0.019326	0.005309	0.004073	73.189207	-85.211197	-97.826502
25811		9.684943	0.638088	0.180663	0.034793	0.011045	0.001975	73.138500	-85.213540	-97.754883
25812		9.697195	0.658347	0.132125	0.038182	0.004920	0.005057	73.138141	-85.220041	-97.731420
25813		9.734631	0.715299	0.141474	0.045906	0.007788	0.004005	73.110964	-85.224035	-97.677024
25814		9.746902	0.735463	0.092809	0.045896	0.007789	0.004003	73.098155	-85.229481	-97.636631
25815		9.782671	0.802451	0.178747	0.064394	0.009445	0.002621	73.073313	-85.232437	-97.573949
25816		9.752075	0.845019	0.165058	0.045865	0.006865	0.007343	73.059744	-85.239859	-97.532812
25817		9.752278	0.890665	0.136278	0.040626	0.012686	0.001757	73.001525	-85.241794	-97.450304
25818		9.736038	0.893937	0.183232	0.017224	0.013882	0.003263	72.933385	-85.245776	-97.370878
25819		9.706744	0.834603	0.152368	0.024482	0.010118	0.002480	72.881206	-85.248525	-97.303713
25820		9.727956	0.894891	0.207738	0.012709	0.004993	0.009574	72.856029	-85.257428	-97.270000
25821		9.750500	0.852825	0.245384	-0.006644	0.007526	0.008386	72.790838	-85.263841	-97.207674
25822		9.691954	0.733644	0.182613	0.002737	0.010792	0.011991	72.716253	-85.273049	-97.130123
25823		9.674476	0.838122	0.246954	0.018752	0.005608	0.010559	72.673438	-85.280965	-97.075652
25824		9.701166	0.818227	0.258382	0.003958	0.007335	0.006878	72.632504	-85.287941	-97.031169
25825		9.685714	0.722601	0.131000	0.013854	0.008459	0.010683	72.567367	-85.295430	-96.957116
25826		9.711152	0.804558	0.160051	0.033547	0.004803	0.010891	72.551479	-85.305016	-96.920758
25827		9.760521	0.789358	0.179132	0.007637	0.008867	0.008514	72.484225	-85.311240	-96.848157
25828		9.746041	0.781905	0.149268	0.009819	0.008050	0.010025	72.434578	-85.319773	-96.791570
25829		9.723411	0.776391	0.142278	-0.008133	0.006108	0.004906	72.383979	-85.324493	-96.744747
25830		9.715291	0.777732	0.166138	-0.021604	0.010283	0.003514	72.314943	-85.329062	-96.686772
25831		9.704708	0.746977	0.139800	-0.029149	0.007322	0.002401	72.249321	-85.332195	-96.636958
25832		9.754005	0.732441	0.159157	-0.030303	0.003856	0.001290	72.222839	-85.336653	-96.626682
25833		9.764323	0.716659	0.216978	-0.040619	0.011704	0.001335	72.123486	-85.338428	-96.549619
25834		9.708383	0.676478	0.175134	-0.034176	0.002426	0.001811	72.103040	-85.343414	-96.547625
25835		9.768265	0.692219	0.221836	-0.037413	0.006603	0.003244	72.035369	-85.347118	-96.500507
25836		9.718981	0.706277	0.204103	-0.030840	0.006000	0.001084	71.994271	-85.351072	-96.475876
25837		9.708118	0.629652	0.206720	-0.032693	0.004773	0.001935	71.944270	-85.354381	-96.443773
25838		9.712336	0.651607	0.181162	-0.023931	0.003352	0.001287	71.924226	-85.358912	-96.436294
25839		9.715055	0.729491	0.202777	-0.013848	0.004372	0.002936	71.885423	-85.362835	-96.404593
25840		9.708121	0.629090	0.208287	-0.013488	0.004180	-0.001394	71.871546	-85.365754	-96.397298
25841		9.716554	0.673417	0.156507	-0.001217	0.004380	0.001767	71.842410	-85.369037	-96.368035
25842		9.680277	0.750124	0.216212	0.005365	0.003777	-0.000390	71.839709	-85.372577	-96.361113
25843		9.753722	0.684705	0.195669	-0.005239	0.004900	-0.002240	71.813563	-85.373584	-96.337162
25844		9.739477	0.724497	0.136023	-0.004203	0.000615	-0.001842	71.829751	-85.376891	-96.354692
25845		9.744302	0.788744	0.236978	-0.000169	0.001023	-0.001182	71.830251	-85.379166	-96.354560
25846		9.768484	0.737646	0.197461	-0.018336	-0.001740	-0.000807	71.851924	-85.383445	-96.385719
25847		9.741852	0.757046	0.186755	-0.019013	0.002354	-0.005534	71.842284	-85.383114	-96.386247
25848		9.783215	0.790875	0.199388	-0.023231	0.002042	-0.004031	71.842759	-85.384952	-96.398953
25849		9.692221	0.726037	0.198170	-0.043776	0.000193	-0.003007	71.827912	-85.386382	-96.408490
25850		9.690087	0.740058	0.119089	-0.037459	0.006601	0.003232	71.773304	-85.391345	-96.374116
25851		9.669840	0.767033	0.162336	-0.041266	-0.002673	0.000862	71.770645	-85.395395	-96.394438
25852		9.723056	0.728669	0.184401	-0.034572	0.004476	-0.000572	71.740470	-85.398656	-96.382917
25853		9.692212	0.725598	0.200204	-0.040117	0.001723	-0.001370	71.713717	-85.400704	-96.378408
25854		9.726972	0.704823	0.188502	-0.027656	0.001826	-0.000369	71.704877	-85.404542	-96.384316
25855		9.704301	0.700025	0.181097	-0.029510	0.000598	0.000479	71.687655	-85.407798	-96.383271
25856		9.728516	0.648703	0.141668	-0.019594	0.001707	0.004301	71.673698	-85.414192	-96.379414
25857		9.708261	0.675653	0.184817	-0.017382	0.002752	-0.000878	71.651847	-85.416321	-96.366753
25858		9.739094	0.678696	0.169835	-0.008613	0.000396	0.001823	71.658570	-85.421605	-96.377329
25859		9.766596	0.746808	0.278864	-0.015557	0.002113	0.004963	71.628899	-85.427026	-96.355774
25860		9.780239	0.665260	0.211782	-0.012824	0.001016	-0.000021	71.633043	-85.431187	-96.366184
25861		9.721265	0.737094	0.263811	0.001852	0.001229	-0.000848	71.632450	-85.433607	-96.363794
25862		9.710694	0.706859	0.236254	-0.010285	-0.000924	0.000506	71.649957	-85.438398	-96.386151
25863		9.734894	0.655821	0.196583	-0.016867	0.000610	-0.000685	71.642487	-85.441018	-96.387622
25864		9.685604	0.670450	0.178154	-0.016337	-0.000598	-0.003835	71.664055	-85.443384	-96.417531
25865		9.689522	0.646857	0.181112	-0.019692	-0.004172	-0.003125	71.693149	-85.445539	-96.457306
25866		9.716099	0.628205	0.191676	-0.017479	-0.003125	-0.008303	71.741394	-85.445925	-96.514632
25867		9.703948	0.654498	0.211370	-0.021524	-0.003530	-0.008968	71.778255	-85.444780	-96.563251
25868		9.745018	0.642505	0.252482	-0.020656	-0.006789	-0.009760	71.852877	-85.445021	-96.648862
25869		9.720165	0.653172	0.164469	-0.015914	-0.008616	-0.011068	71.932359	-85.443630	-96.737013
25870		9.753337	0.689173	0.199169	-0.010019	-0.006980	-0.011252	72.017556	-85.443073	-96.827117
25871		9.765374	0.664903	0.178588	-0.005445	-0.007779	-0.013740	72.103126	-85.440057	-96.915358
25872		9.757390	0.714024	0.171535	0.016346	-0.011237	-0.013185	72.236611	-85.439166	-97.038750
25873		9.714623	0.783776	0.176476	0.022059	-0.009510	-0.011205	72.344030	-85.437807	-97.133101
25874		9.735880	0.891728	0.201505	0.020564	-0.010920	-0.014689	72.480867	-85.435988	-97.257433
25875		9.748100	0.913915	0.151389	0.007731	-0.009910	-0.014706	72.590196	-85.432752	-97.361935
25876		9.725329	0.910408	0.142648	-0.008983	-0.011271	-0.010861	72.704155	-85.433016	-97.480307
25877		9.747917	0.916182	0.149455	-0.019794	-0.010059	-0.010546	72.789692	-85.432051	-97.576763
25878		9.772070	0.866229	0.108821	-0.032109	-0.011194	-0.010369	72.888915	-85.432510	-97.693651
25879		9.698245	0.886411	0.158326	-0.035461	-0.013834	-0.013006	72.996464	-85.430806	-97.821195
25880		9.701960	0.817484	0.189389	-0.058252	-0.014874	-0.013501	73.112556	-85.430103	-97.970037
25881		9.679221	0.813731	0.180829	-0.059146	-0.012553	-0.009366	73.190068	-85.430146	-98.081063
25882		9.691275	0.789258	0.159963	-0.043766	-0.014556	-0.012178	73.309481	-85.430056	-98.224915
25883		9.662986	0.864986	0.195786	-0.029082	-0.015269	-0.009669	73.423493	-85.430344	-98.355277
25884		9.735948	0.989872	0.289984	-0.050843	-0.019657	-0.013127	73.575831	-85.430493	-98.536230
25885		9.780466	0.959568	0.176928	-0.046171	-0.013644	-0.011527	73.672642	-85.429450	-98.659158
25886		9.762374	0.926338	0.327412	-0.064251	-0.017451	-0.009993	73.795787	-85.430869	-98.818543
25887		9.793888	0.834200	0.136014	-0.085589	-0.016149	-0.010349	73.884888	-85.430838	-98.956393
25888		9.762142	0.744758	0.051981	-0.094784	-0.013622	-0.008718	73.961656	-85.432281	-99.086810
25889		9.735140	0.625466	0.126955	-0.086189	-0.014946	-0.007215	74.035984	-85.433755	-99.210184
25890		9.732554	0.548490	0.103875	-0.089581	-0.016628	-0.013211	74.145466	-85.433165	-99.370427
25891		9.735533	0.392472	0.035493	-0.069315	-0.014588	-0.009899	74.232302	-85.433071	-99.496650
25892		9.732336	0.457733	0.159033	-0.029348	-0.013263	-0.014238	74.354969	-85.431375	-99.635488
25893		9.722648	0.515816	0.228751	-0.024245	-0.016190	-0.016550	74.491385	-85.427816	-99.785544
25894		9.745226	0.475903	0.263823	-0.033070	-0.012879	-0.022579	74.624624	-85.421426	-99.937122
25895		9.769372	0.380952	0.251007	-0.022920	-0.011859	-0.020920	74.739610	-85.414742	-100.064920
25896		9.711846	0.398781	0.254387	-0.010674	-0.018456	-0.021872	74.921657	-85.409549	-100.252582
25897		9.658349	0.439408	0.231571	-0.014220	-0.020054	-0.025697	75.106042	-85.401377	-100.445005
25898		9.709209	0.465289	0.142545	-0.003543	-0.020221	-0.027198	75.312638	-85.393421	-100.653191
25899		9.688854	0.541247	0.154908	0.017003	-0.025120	-0.032337	75.560101	-85.382182	-100.890954
25900		9.767231	0.635326	0.174677	0.025466	-0.024456	-0.035349	75.824712	-85.370183	-101.140667
25901		9.752233	0.725729	0.084181	0.019359	-0.025072	-0.036345	76.077563	-85.356539	-101.382489
25902		9.765004	0.790911	0.159882	0.026019	-0.033465	-0.041460	76.411418	-85.342174	-101.701363
25903		9.781848	0.832527	0.238132	0.006501	-0.030959	-0.042634	76.704047	-85.325603	-101.990498
25904		9.719048	0.789735	0.138593	-0.015748	-0.025492	-0.045492	76.961912	-85.307668	-102.257156
25905		9.722865	0.770074	0.138527	-0.011278	-0.035912	-0.042089	77.273067	-85.291805	-102.575113
25906		9.723053	0.681347	0.192418	-0.025697	-0.036334	-0.045575	77.594607	-85.274937	-102.911397
25907		9.713924	0.600544	0.113459	-0.018991	-0.029155	-0.046974	77.858468	-85.255241	-103.186349
25908		9.648143	0.621686	0.138275	0.008012	-0.037357	-0.042125	78.196502	-85.240150	-103.519815
25909		9.722653	0.647924	0.211017	0.012919	-0.039236	-0.045628	78.539979	-85.222121	-103.856326
25910		9.678840	0.767129	0.185634	0.022870	-0.036204	-0.048509	78.882524	-85.202994	-104.185789
25911		9.692845	0.824474	0.183566	0.018509	-0.044285	-0.047782	79.260471	-85.183959	-104.553697
25912		9.747960	0.915544	0.193818	0.014698	-0.037042	-0.049831	79.599893	-85.163822	-104.884743
25913		9.752556	0.934160	0.087697	0.001452	-0.034978	-0.048815	79.901684	-85.142892	-105.186052
25914		9.753323	0.930220	0.007844	-0.001831	-0.029877	-0.050681	80.179681	-85.121246	-105.464982
25915		9.734944	0.859836	0.028940	-0.020992	-0.029487	-0.049465	80.428059	-85.099174	-105.725608
25916		9.704464	0.814333	0.070277	-0.024868	-0.031894	-0.045604	80.695936	-85.080356	-106.007648
25917		9.688811	0.774845	0.142113	-0.016591	-0.031119	-0.046474	80.949919	-85.059925	-106.271385
25918		9.647901	0.783363	0.021804	-0.036126	-0.028680	-0.047599	81.188094	-85.039473	-106.530104
25919		9.697955	0.860678	0.135779	-0.025769	-0.035506	-0.051102	81.465669	-85.016601	-106.822817
25920		9.747220	0.851836	0.150739	-0.041804	-0.029554	-0.055095	81.708912	-84.991765	-107.089906
25921		9.766627	0.792321	0.211346	-0.075695	-0.007089	-0.042926	81.762137	-84.971007	-107.186142
25922		9.776073	0.617026	0.380365	-0.185011	0.014279	-0.036507	81.621036	-84.953029	-107.149785
25923		9.816082	0.253763	-0.050796	-0.225459	0.004093	-0.027371	81.502044	-84.940173	-107.159281
25924		9.705709	0.349360	0.062383	-0.106318	-0.004417	-0.040419	81.529827	-84.921586	-107.247191
25925		9.730610	0.693648	0.158368	-0.122797	-0.010080	-0.059411	81.589936	-84.891764	-107.377444
25926		9.761031	0.742596	0.037277	-0.140261	-0.021193	-0.075062	81.734708	-84.854940	-107.602334
25927		9.828819	0.633031	-0.012568	-0.157196	-0.018897	-0.086748	81.851913	-84.810289	-107.809721
25928		9.686738	0.643673	0.015933	-0.155283	-0.008990	-0.092314	81.922201	-84.762627	-107.968482
25929		9.668402	0.748081	0.005461	-0.147240	-0.024624	-0.091539	82.079100	-84.715647	-108.210033
25930		9.656666	0.820007	0.153128	-0.174909	-0.024197	-0.095029	82.228129	-84.667578	-108.459189
25931		9.671687	0.827755	0.105961	-0.151100	-0.024287	-0.104318	82.384093	-84.613198	-108.702061
25932		9.632371	0.834500	0.143055	-0.119624	-0.030063	-0.109953	82.603705	-84.556949	-108.990330
25933		9.593205	0.925988	0.279891	-0.092452	-0.037133	-0.108561	82.863513	-84.500922	-109.303809
25934		9.735847	1.005586	0.194953	-0.110992	-0.040094	-0.108228	83.134606	-84.446107	-109.638887
25935		9.616990	0.929668	0.051107	-0.058486	-0.038891	-0.101848	83.407977	-84.393740	-109.946498
25936		9.655803	1.064870	0.237923	-0.060090	-0.049968	-0.099575	83.747663	-84.344146	-110.321268
25937		9.689551	1.010365	0.015515	-0.083277	-0.044474	-0.093658	84.022721	-84.296467	-110.644901
25938		9.694155	0.988602	-0.063102	-0.076717	-0.053667	-0.093414	84.358649	-84.250187	-111.025500
25939		9.779090	1.042065	-0.039781	-0.057037	-0.055968	-0.092334	84.702288	-84.203533	-111.403006
25940		9.707851	1.005681	-0.118852	-0.065210	-0.056914	-0.095849	85.052683	-84.155565	-111.791647
25941		9.787922	1.083450	-0.098064	-0.025190	-0.054898	-0.095984	85.398605	-84.106320	-112.153169
25942		9.741839	1.099415	0.345774	-0.104027	-0.055595	-0.098918	85.708993	-84.056062	-112.523920
25943		9.673972	0.807052	0.197499	-0.149202	-0.040355	-0.091315	85.891762	-84.008506	-112.792905
25944		9.585996	0.622643	0.194610	-0.105992	-0.044282	-0.082000	86.123355	-83.967160	-113.085644
25945		9.627332	0.651590	0.050104	-0.059715	-0.041509	-0.081164	86.352753	-83.925239	-113.350003
25946		9.547979	0.893196	0.041495	-0.028899	-0.043827	-0.086005	86.619912	-83.881368	-113.634134
25947		9.636368	1.124168	0.088922	-0.061983	-0.056241	-0.088851	86.921214	-83.835267	-113.972161
25948		9.647953	1.269239	0.188973	-0.075416	-0.062127	-0.090883	87.251058	-83.788818	-114.346271
25949		9.517285	1.264738	0.346597	-0.099118	-0.070182	-0.091222	87.594786	-83.741310	-114.748440
25950		9.495717	1.143515	0.336780	-0.154761	-0.062053	-0.097112	87.869261	-83.690799	-115.112588
25951		9.568195	0.746375	0.078706	-0.176933	-0.062012	-0.087511	88.115114	-83.644821	-115.461215
25952		9.718715	0.631771	0.022278	-0.126137	-0.060696	-0.081590	88.386970	-83.602825	-115.806402
25953		9.786809	0.566974	-0.139786	-0.063506	-0.061555	-0.083617	88.686345	-83.558707	-116.143549
25954		9.758427	0.747929	-0.104337	-0.021722	-0.055969	-0.089139	88.986380	-83.511985	-116.456727
25955		9.797862	0.940053	-0.122876	-0.059394	-0.049441	-0.104111	89.220094	-83.455648	-116.725480
25956		9.749453	0.832972	-0.218944	-0.033268	-0.043172	-0.101172	89.441995	-83.401666	-116.966805
25957		9.667420	0.933421	-0.122245	0.014968	-0.054321	-0.103143	89.733761	-83.345648	-117.251167
25958		9.771400	1.249699	-0.351738	0.031611	-0.051452	-0.108253	90.025004	-83.287378	-117.524948
25959		9.739567	1.255287	-0.341876	0.039030	-0.061796	-0.117864	90.356519	-83.222569	-117.835522
25960		9.714019	1.432621	-0.074167	0.015952	-0.056660	-0.116148	90.653291	-83.159385	-118.123977
25961		9.527102	1.286965	0.040191	-0.016966	-0.063590	-0.111339	90.950210	-83.097913	-118.432102
25962		9.573871	1.261048	0.076218	-0.033808	-0.057750	-0.108635	91.213816	-83.038647	-118.715951
25963		9.496272	1.077196	0.047088	-0.015093	-0.055575	-0.107930	91.464728	-82.978893	-118.976721
25964		9.584952	0.931582	0.045958	0.013290	-0.050951	-0.095855	91.716367	-82.926745	-119.221394
25965		9.726846	0.944886	-0.323264	0.041413	-0.044278	-0.090465	91.942217	-82.876930	-119.424343
25966		9.913739	0.974826	-0.601737	0.134073	-0.052213	-0.092239	92.262248	-82.826582	-119.668239
25967		10.034187	1.278081	-0.723922	0.171501	-0.038138	-0.103169	92.525582	-82.769397	-119.833889
25968		10.109595	1.494158	-0.885585	0.138737	-0.034631	-0.120497	92.756328	-82.703065	-119.985128
25969		10.081591	1.553903	-0.848162	0.120926	-0.030511	-0.138791	92.942340	-82.625549	-120.102084
25970		9.804291	1.388729	-0.426310	0.042640	-0.025861	-0.154445	93.065890	-82.539900	-120.200794
25971		9.707709	1.251905	-0.175627	-0.043268	-0.018600	-0.157037	93.096808	-82.452252	-120.256249
25972		9.748734	0.870153	-0.236375	-0.094039	0.001659	-0.158827	93.020126	-82.364910	-120.231998
25973		9.775019	0.673075	-0.148504	-0.037715	0.008422	-0.163396	92.938052	-82.274442	-120.170251
25974		9.869568	0.777645	-0.270017	-0.078374	0.023188	-0.167882	92.781003	-82.182576	-120.055792
25975		9.835779	0.634332	-0.609815	-0.054731	0.040156	-0.181060	92.559332	-82.082801	-119.862937
25976		9.904050	0.914064	-0.379203	0.000570	0.028082	-0.193079	92.430304	-81.976600	-119.731007
25977		9.735063	0.975271	-0.301169	-0.071215	0.039637	-0.214512	92.205308	-81.857502	-119.544231
25978		9.614731	1.002269	-0.181103	-0.061214	0.035185	-0.227198	92.016560	-81.731836	-119.387627
25979		9.634870	1.037093	-0.092869	-0.067211	0.034157	-0.243575	91.822814	-81.595810	-119.229996
25980		9.611297	1.090547	0.033301	-0.093393	0.042745	-0.255619	91.594233	-81.453875	-119.051632
25981		9.633995	0.902814	-0.185625	-0.096851	0.038945	-0.261655	91.375649	-81.307396	-118.885941
25982		9.678024	0.964694	-0.191262	-0.042787	0.045985	-0.266484	91.175989	-81.159124	-118.707342
25983		9.529538	0.869771	-0.286268	-0.012855	0.046600	-0.271711	90.989006	-81.006796	-118.524790
25984		9.537688	1.103044	-0.252156	0.104497	0.029232	-0.272652	90.944542	-80.854741	-118.417716
25985		9.414776	1.410582	-0.133681	0.116393	0.017488	-0.283847	90.941996	-80.695118	-118.346836
25986		9.469029	1.575236	-0.191211	0.163242	0.011709	-0.290691	90.994482	-80.532582	-118.303799
25987		9.582840	1.831709	0.051998	0.180733	-0.005623	-0.289877	91.107754	-80.369283	-118.312917
25988		9.593414	2.061447	-0.021475	0.148583	0.006444	-0.294194	91.167792	-80.204683	-118.286023
25989		9.679701	2.187470	-0.070624	0.127679	-0.005226	-0.292957	91.246290	-80.039622	-118.290708
25990		9.714534	2.359692	-0.007856	0.100271	-0.002312	-0.286408	91.306077	-79.879323	-118.291664
25991		9.657145	2.427076	0.025404	0.029145	-0.004766	-0.285592	91.325306	-79.718485	-118.293495
25992		9.705855	2.344596	0.042326	-0.018001	-0.000512	-0.284403	91.311038	-79.559277	-118.288087
25993		9.668437	2.032337	0.056039	-0.064362	0.000675	-0.273090	91.261160	-79.405670	-118.274124
25994		9.589773	1.824402	0.262180	-0.068131	-0.002876	-0.259321	91.228128	-79.260745	-118.278865
25995		9.536203	1.633254	0.296147	-0.091292	-0.006316	-0.260794	91.186058	-79.114094	-118.288545
25996		9.634380	1.075770	-0.011661	-0.078521	-0.013438	-0.276369	91.177705	-78.959280	-118.324495
25997		9.592416	0.963808	-0.001908	0.031042	-0.017687	-0.277672	91.237558	-78.802823	-118.366625
25998		9.621058	1.153606	-0.017090	0.050839	-0.019393	-0.301080	91.316452	-78.633852	-118.415961
25999		9.529336	1.064111	-0.204898	0.125476	-0.030174	-0.322253	91.458971	-78.451662	-118.487280
26000		9.679796	1.208236	-0.054865	0.091566	-0.034762	-0.348679	91.595216	-78.255235	-118.571369
26001		9.728232	1.031374	-0.327096	0.107454	-0.018268	-0.378634	91.684302	-78.040889	-118.598743
26002		9.326159	1.050788	-0.255041	0.141124	-0.044954	-0.387324	91.866099	-77.822168	-118.700458
26003		10.173403	1.371121	-0.186208	0.131471	-0.031766	-0.435733	91.993354	-77.574839	-118.752861
26004		9.623825	1.310085	-0.239848	0.177174	-0.028651	-0.446445	92.139460	-77.322587	-118.796986
26005		9.447902	1.724212	0.194300	0.212594	-0.000435	-0.450438	92.225978	-77.067476	-118.760049
26006		9.418219	1.815127	-0.048933	0.220070	-0.047804	-0.455184	92.436178	-76.809793	-118.844797
26007		9.771259	1.844730	-0.145084	0.157113	-0.025555	-0.470229	92.545203	-76.542776	-118.863580
26008		9.974547	2.176846	-0.129279	0.103696	-0.027907	-0.515425	92.627002	-76.251081	-118.884989
26009		9.252687	1.926902	-0.362596	-0.026522	0.026609	-0.521803	92.502609	-75.955875	-118.771749
26010		9.594014	1.827297	-0.251831	-0.061035	-0.031919	-0.538523	92.497643	-75.650885	-118.801050
26011		9.828674	1.399542	-0.746767	-0.114618	0.004628	-0.563535	92.374861	-75.331195	-118.741306
26012		9.460262	1.559408	-0.447717	-0.038002	0.011228	-0.572956	92.289008	-75.007598	-118.673306
26013		9.469970	1.767746	-0.025133	-0.068063	0.022082	-0.594913	92.160400	-74.670278	-118.579710
26014		9.718360	1.488792	-0.461207	-0.066532	0.016746	-0.616068	92.051138	-74.322125	-118.504114
26015		9.782699	1.646303	-0.303401	0.013361	0.037992	-0.631919	91.943383	-73.963838	-118.383382
26016		9.856385	1.744445	-0.013495	-0.056811	0.060725	-0.656133	91.759332	-73.593578	-118.223756
26017		9.992754	1.578397	-0.555534	-0.049145	0.093702	-0.664779	91.519841	-73.217185	-118.002480
26018		10.096075	1.626444	-0.688892	0.037305	0.112603	-0.690694	91.307283	-72.827649	-117.755969
26019		10.427566	1.822401	-0.613871	0.050419	0.115458	-0.711473	91.102423	-72.424301	-117.510285
26020		10.408041	1.741602	-0.534312	0.054907	0.115249	-0.745956	90.913611	-72.002772	-117.276937
26021		10.231971	2.126702	-0.228684	0.075327	0.130915	-0.777047	90.714434	-71.561491	-117.021047
26022		9.928439	2.172831	-0.079338	0.011879	0.144903	-0.811840	90.469836	-71.102017	-116.753572
26023		9.749147	2.180054	-0.068775	-0.035737	0.162287	-0.846474	90.178009	-70.620392	-116.465577
26024		9.675011	2.194925	-0.201038	-0.080211	0.182626	-0.874053	89.846336	-70.124540	-116.160058
26025		9.769253	2.197400	-0.456934	-0.093697	0.192285	-0.891979	89.504179	-69.615707	-115.852046
26026		9.890353	2.385882	-0.408376	-0.115764	0.204312	-0.918220	89.151104	-69.093333	-115.543355
26027		9.920099	2.667112	-0.407154	-0.140340	0.210084	-0.946088	88.789113	-68.552053	-115.240603
26028		9.885625	2.932728	-0.296303	-0.178862	0.205625	-0.971903	88.432063	-67.997700	-114.964212
26029		9.873939	3.196847	-0.096728	-0.238255	0.205907	-1.002689	88.054499	-67.422736	-114.702909
26030		9.834821	3.340566	0.114319	-0.283828	0.205133	-1.026794	87.672142	-66.835751	-114.461997
26031		9.945521	3.450727	-0.011403	-0.307629	0.216824	-1.042798	87.274041	-66.236273	-114.219369
26032		10.190151	3.544534	0.013026	-0.335356	0.213842	-1.048263	86.882697	-65.635582	-113.998722
26033		10.461752	3.375637	0.307647	-0.350739	0.217571	-1.055038	86.490010	-65.027808	-113.786943
26034		10.467426	3.324977	0.782034	-0.353018	0.230606	-1.053797	86.096998	-64.422251	-113.573438
26035		10.295640	3.394622	0.975022	-0.362759	0.226780	-1.062021	85.714542	-63.808962	-113.378552
26036		9.908666	3.370336	0.717557	-0.392563	0.219342	-1.064967	85.339051	-63.196489	-113.207692
26037		9.793538	3.221710	0.458087	-0.400764	0.210154	-1.065159	84.978444	-62.581156	-113.059723
26038		9.563794	3.257077	0.180858	-0.442627	0.221833	-1.074986	84.595387	-61.962034	-112.910782
26039		9.239768	3.441122	0.652220	-0.530202	0.236803	-1.097184	84.158133	-61.326081	-112.758292
26040		9.170345	3.290487	1.142300	-0.595222	0.251723	-1.117728	83.685225	-60.679947	-112.604741
26041		9.006374	3.592765	1.465630	-0.589423	0.279089	-1.150939	83.203125	-60.009536	-112.437762
26042		8.951794	3.813545	1.268840	-0.600888	0.276329	-1.164258	82.733863	-59.334183	-112.290155
26043		8.510326	3.923219	1.287941	-0.660159	0.337999	-1.186624	82.186889	-58.637755	-112.092438
26044		8.242017	3.281209	1.065248	-0.708396	0.327347	-1.189769	81.639258	-57.942644	-111.922983
26045		8.114098	2.849883	0.786384	-0.516518	0.331381	-1.135530	81.202428	-57.273995	-111.755280
26046		7.353850	3.687906	1.524566	-0.360018	0.358214	-1.099550	80.838950	-56.626030	-111.564829
26047		7.073112	4.212022	1.740604	-0.432125	0.313514	-1.083291	80.478556	-55.987440	-111.428380
26048		6.869893	4.361106	1.554914	-0.347308	0.284787	-1.036055	80.192773	-55.381234	-111.320425
26049		6.754979	5.348182	1.893024	-0.233002	0.239289	-0.999207	80.008617	-54.796708	-111.257767
26050		6.935801	6.911829	2.092302	-0.287555	0.210558	-0.973541	79.816880	-54.232724	-111.221819
26051		7.409568	7.695363	1.933616	-0.511115	0.199130	-0.992885	79.511818	-53.655634	-111.205813
26052		7.474921	7.448872	1.214529	-0.663579	0.228958	-1.000725	79.103670	-53.073977	-111.168312
26053		7.347993	7.538221	1.326653	-0.763288	0.212362	-1.004855	78.657004	-52.488621	-111.155680
26054		7.563310	7.102359	1.343064	-0.968043	0.207609	-0.990293	78.101737	-51.914811	-111.152277
26055		7.194814	6.433910	1.125330	-1.043684	0.256580	-0.965461	77.471629	-51.346117	-111.110386
26056		7.276235	6.260498	1.326230	-1.023584	0.250639	-0.923481	76.859456	-50.804137	-111.074743
26057		7.502176	6.112702	1.343024	-1.105394	0.297818	-0.898945	76.171880	-50.266558	-111.003559
26058		7.491606	5.688812	1.064128	-1.088920	0.349988	-0.881317	75.465716	-49.733642	-110.893564
26059		7.664962	5.974212	1.270303	-1.070649	0.392990	-0.872124	74.749315	-49.195950	-110.757136
26060		7.823878	5.443188	1.201223	-1.231434	0.480663	-0.887981	73.899198	-48.637498	-110.562688
26061		7.638737	4.051710	0.832931	-1.139557	0.459215	-0.881485	73.124943	-48.081634	-110.399361
26062		7.904260	3.290190	1.235388	-0.674017	0.342237	-0.868956	72.695195	-47.554068	-110.337787
26063		8.171091	3.344966	2.152769	-0.327989	0.312814	-0.858414	72.482568	-47.034237	-110.303180
26064		8.306831	3.781174	2.052905	-0.288449	0.354832	-0.849607	72.269599	-46.514950	-110.234832
26065		8.372251	4.260816	1.501948	-0.376562	0.418925	-0.823589	71.967654	-45.995266	-110.114518
26066		8.294661	4.543358	1.271865	-0.455600	0.440895	-0.811649	71.611006	-45.481022	-109.978036
26067		8.087871	4.227714	1.175268	-0.516280	0.408183	-0.817967	71.243257	-44.965386	-109.875665
26068		8.160289	4.156515	1.176096	-0.389554	0.306348	-0.827818	71.008980	-44.466484	-109.856776
26069		8.198636	4.767410	1.706181	-0.190145	0.260490	-0.836394	70.915861	-43.967902	-109.878426
26070		8.062057	5.335503	2.174343	-0.158049	0.241279	-0.849125	70.854180	-43.469856	-109.916898
26071		8.158005	5.661320	2.099855	-0.186359	0.217348	-0.855052	70.789103	-42.969337	-109.976728
26072		8.322176	6.321647	2.047370	-0.116359	0.269929	-0.883037	70.742878	-42.447753	-110.003461
26073		8.153530	6.858340	2.017975	-0.149721	0.427172	-0.932667	70.609059	-41.865600	-109.930808
26074		9.011484	5.521286	1.534059	-0.313712	0.342585	-0.836207	70.408334	-41.355631	-109.895688
26075		9.617975	4.694179	0.221151	0.294799	0.237791	-0.582554	70.563397	-40.998626	-109.873553
26076		8.294035	7.129251	2.809018	0.463923	0.363041	-0.463830	70.737144	-40.686475	-109.728966
26077		6.975501	7.962125	2.897140	0.097733	0.383666	-0.516799	70.700355	-40.337503	-109.585011
26078		6.363350	8.515296	2.411338	-0.001538	0.356689	-0.660267	70.643867	-39.920409	-109.494923
26079		6.655197	8.269548	2.758182	-0.302763	0.294220	-0.727395	70.454599	-39.474404	-109.469050
26080		7.323839	7.022532	1.731430	-0.189235	0.145969	-0.639832	70.383654	-39.108408	-109.524401
26081		7.669340	7.300303	2.404469	-0.022717	0.055852	-0.519315	70.427894	-38.820474	-109.614292
26082		7.416343	7.666606	2.442360	-0.035905	0.013527	-0.424486	70.468185	-38.596196	-109.707648
26083		6.842040	7.500983	2.390655	0.009809	-0.045161	-0.345697	70.546741	-38.421225	-109.823618
26084		6.388753	7.539472	2.454089	0.153227	-0.141553	-0.247715	70.733915	-38.321732	-109.979659
26085		6.562883	8.187337	2.805755	0.243122	-0.188489	-0.098719	70.969438	-38.306835	-110.133691
26086		6.811639	8.573480	3.248376	0.132798	-0.146683	0.047573	71.102971	-38.367403	-110.222224
26087		6.748070	8.628533	3.176038	0.063611	-0.088166	0.169314	71.153408	-38.478646	-110.243564
26088		6.515287	8.721089	3.160223	-0.037835	-0.034437	0.242299	71.112404	-38.623798	-110.208549
26089		5.973718	8.464817	2.652625	-0.132758	-0.003337	0.294624	70.994833	-38.787190	-110.141007
26090		5.355614	8.011409	2.332548	-0.100071	-0.062333	0.355232	70.912708	-38.998525	-110.097601
26091		5.109928	7.420809	2.623601	0.000537	-0.160395	0.449338	70.916146	-39.274985	-110.101406
26092		5.346057	7.423505	2.897683	0.174889	-0.254903	0.566843	71.044467	-39.636780	-110.141800
26093		5.282531	7.610878	2.789180	0.260553	-0.246210	0.660840	71.203896	-40.043798	-110.156495
26094		4.990097	7.808124	2.966534	0.313776	-0.250587	0.721158	71.388217	-40.488225	-110.159799
26095		5.007761	8.131374	3.117169	0.294512	-0.268756	0.760319	71.564512	-40.953314	-110.170257
26096		5.028967	8.109956	2.748023	0.289807	-0.272647	0.787953	71.737512	-41.437807	-110.177272
26097		5.050775	8.128909	2.599097	0.320051	-0.310462	0.825814	71.941107	-41.945942	-110.206574
26098		5.003442	8.091933	2.684471	0.222888	-0.336732	0.886060	72.094720	-42.494966	-110.241735
26099		5.187660	7.859415	2.657931	0.104284	-0.390990	0.979932	72.193557	-43.101175	-110.298191
26100		5.418100	7.550692	2.537652	-0.004781	-0.406392	1.077414	72.223778	-43.766475	-110.342906
26101		5.517561	7.223346	2.712301	-0.107354	-0.396148	1.190570	72.170661	-44.488456	-110.353914
26102		5.648503	7.297204	3.098714	-0.260442	-0.349364	1.314578	71.981886	-45.272892	-110.294800
26103		5.492714	7.128981	2.878515	-0.391030	-0.296759	1.427212	71.663072	-46.105964	-110.161350
26104		5.331194	7.061286	2.740073	-0.451123	-0.264264	1.513852	71.266608	-46.982488	-109.968419
26105		5.417032	7.223024	2.575064	-0.424538	-0.315303	1.619875	70.882627	-47.922139	-109.776408
26106		5.332622	7.210107	2.776175	-0.535186	-0.337820	1.693309	70.420986	-48.907471	-109.566541
26107		5.202095	6.839375	2.656874	-0.611867	-0.387135	1.748523	69.918243	-49.928254	-109.365242
26108		5.408501	6.433120	2.544340	-0.613064	-0.430794	1.811111	69.411851	-50.992615	-109.161651
26109		5.598795	5.942213	2.470444	-0.562725	-0.455920	1.900441	68.910006	-52.106304	-108.931634
26110		5.809117	5.547416	2.705731	-0.556787	-0.478596	2.014370	68.375747	-53.286445	-108.658783
26111		5.915483	5.196914	2.720149	-0.597311	-0.472357	2.136365	67.751519	-54.526099	-108.308939
26112		5.936656	5.114602	2.792970	-0.623426	-0.492990	2.265704	67.053061	-55.838372	-107.891196
26113		6.173762	5.099109	2.846224	-0.639961	-0.504546	2.386895	66.269221	-57.211722	-107.390254
26114		6.425026	5.111187	2.805082	-0.637958	-0.497529	2.501504	65.382811	-58.641131	-106.773671
26115		6.384826	4.978464	2.543266	-0.608436	-0.485319	2.584590	64.398698	-60.103196	-106.034375
26116		6.216714	4.702164	2.302218	-0.590511	-0.536839	2.654373	63.355067	-61.609068	-105.225157
26117		6.228489	4.404699	2.330307	-0.591693	-0.637328	2.740019	62.265793	-63.175520	-104.377784
26118		6.506398	4.489041	2.607485	-0.604259	-0.720923	2.850984	61.075861	-64.814184	-103.437492
26119		6.696239	4.580858	2.642773	-0.628804	-0.717514	2.947878	59.659820	-66.488753	-102.278017
26120		6.744947	4.478252	2.419690	-0.634165	-0.689686	3.014816	57.963255	-68.175738	-100.831886
26121		7.048001	4.602209	2.232064	-0.546531	-0.724201	3.083798	56.046818	-69.886888	-99.114338
26122		7.081137	4.141823	1.947999	-0.600816	-0.695993	3.105573	53.705146	-71.576205	-96.997297
26123		7.211842	3.475686	1.612269	-0.589578	-0.783177	3.141946	51.015973	-73.279184	-94.530408
26124		7.668129	3.220807	2.046040	-0.618366	-0.861538	3.222009	47.745867	-75.006400	-91.498425
26125		8.022506	2.861434	2.225163	-0.699281	-0.861242	3.284949	43.518399	-76.700845	-87.551749
26126		8.408440	2.594924	1.976906	-0.645949	-0.806703	3.354990	37.925585	-78.310568	-82.201943
26127		8.723263	2.559767	1.919122	-0.478910	-0.752000	3.408585	30.552428	-79.771133	-74.971534
26128		8.565918	1.998428	1.349497	-0.386021	-0.677665	3.396840	20.968188	-80.973742	-65.474805
26129		8.429857	1.380033	0.837296	-0.137353	-0.769417	3.389398	9.151595	-81.910995	-53.605359
26130		8.974158	1.279405	1.179479	0.013391	-0.910357	3.403778	-5.009905	-82.509126	-39.304773
26131		9.618245	0.836211	1.218288	0.007958	-0.891083	3.420269	-20.539045	-82.574967	-23.639449
26132		10.170770	0.134791	0.827919	0.100950	-0.808149	3.403328	-34.950921	-82.072915	-9.039517
26133		10.210929	-0.618356	0.452215	0.331526	-0.739732	3.349200	-46.527886	-81.135814	2.854317
26134		10.364975	-1.029402	0.506081	0.556737	-0.760525	3.273703	-55.364068	-79.948554	12.135512
26135		10.617363	-1.108517	0.757137	0.662375	-0.762828	3.167929	-61.963715	-78.621250	19.238508
26136		10.977563	-1.281719	0.412146	0.646183	-0.648524	3.050275	-66.706843	-77.203415	24.468120
26137		10.792337	-1.763424	0.077364	0.687392	-0.491870	2.880894	-69.948768	-75.770623	28.207820
26138		10.497913	-2.170454	0.106625	0.762049	-0.396760	2.720066	-72.222928	-74.367267	31.013880
26139		10.460675	-2.233370	0.443451	0.753921	-0.318124	2.551412	-73.851316	-73.019618	33.161204
26140		10.577428	-2.184026	0.702657	0.688468	-0.172940	2.371381	-74.916311	-71.735242	34.693155
26141		10.364048	-2.651483	0.323155	0.684132	0.039386	2.118301	-75.376582	-70.553862	35.594469
26142		9.779062	-3.334874	0.296985	0.841925	0.125126	1.845134	-75.442637	-69.510341	36.178628
26143		9.339427	-3.666105	1.097601	0.859928	0.083777	1.587561	-75.430701	-68.615453	36.694158
26144		9.066819	-3.543427	2.170239	0.801757	0.052886	1.345158	-75.390028	-67.859579	37.145619
26145		8.614651	-3.636622	2.873380	0.632998	0.087430	1.057945	-75.285527	-67.258052	37.425742
26146		8.142478	-3.860977	2.289548	0.538685	0.112942	0.737176	-75.089236	-66.830758	37.548441
26147		8.008282	-3.922541	1.478537	0.571549	0.031792	0.420884	-74.869952	-66.590712	37.667022
26148		8.576138	-3.689718	1.011883	0.499224	-0.033765	0.101972	-74.667205	-66.536947	37.758538
26149		8.658307	-3.564378	0.652091	0.269372	-0.017925	-0.185606	-74.474271	-66.639789	37.717274
26150		8.640303	-3.582930	0.453908	0.018717	-0.002096	-0.460079	-74.305955	-66.891537	37.546511
26151		9.399155	-3.905726	-0.371633	0.023554	-0.006150	-0.679183	-74.053632	-67.264513	37.288001
26152		10.276682	-3.012388	-1.283013	0.206016	-0.029561	-0.679781	-73.719840	-67.640983	37.055099
26153		10.429902	-3.432815	0.086007	0.249402	-0.309158	-0.434564	-73.827266	-67.927176	37.326281
26154		10.515040	-4.843161	3.989170	-0.368796	-0.344091	-0.146217	-74.457093	-68.059326	37.778305
26155		10.053601	-7.489367	3.526371	-1.331633	-0.101107	-0.054958	-75.342873	-68.102404	37.911470
26156		9.347215	-7.907337	1.374423	-1.119492	0.201099	-0.157790	-75.655282	-68.158469	37.557739
26157		8.699386	-5.367492	0.726790	-0.682638	0.241448	-0.345523	-75.591794	-68.313454	37.069021
26158		8.775497	-4.264967	0.590220	-0.353009	0.054748	-0.528784	-75.531348	-68.596151	36.787521
26159		9.332958	-4.333302	1.809062	-0.140778	-0.003025	-0.632449	-75.386438	-68.944913	36.546311
26160		9.081738	-5.547676	1.939606	-0.179720	0.055867	-0.597295	-75.186422	-69.264837	36.222983
26161		8.801446	-6.040536	1.074264	0.091012	0.037854	-0.516723	-74.879589	-69.542835	35.951686
26162		8.815154	-5.335614	0.346268	0.535016	-0.004024	-0.452703	-74.399710	-69.790404	35.767950
26163		8.991048	-4.273282	0.015457	0.860389	-0.044048	-0.440655	-73.788683	-70.037744	35.643022
26164		9.400224	-4.330184	-1.766052	1.046696	-0.057629	-0.467504	-73.071617	-70.300664	35.519447
26165		9.523205	-4.623094	-2.754095	1.478309	-0.138755	-0.491745	-72.206664	-70.590964	35.501180
26166		10.133539	-3.648389	-1.704029	1.405435	-0.251803	-0.520726	-71.536368	-70.916203	35.645272
26167		10.838384	-2.861805	-2.540343	0.936714	-0.339125	-0.572283	-71.237331	-71.286676	35.897246
26168		10.209341	-2.165073	-3.057311	0.844170	-0.428334	-0.630175	-71.109045	-71.704559	36.273061
26169		9.425547	-1.911411	-1.198456	0.834621	-0.575243	-0.682984	-71.205742	-72.179083	36.878511
26170		9.340243	-2.211623	0.288807	0.764026	-0.572493	-0.672227	-71.369090	-72.646216	37.510021
26171		9.498999	-1.611120	1.660264	0.648826	-0.549692	-0.594556	-71.621216	-73.066933	38.163666
26172		9.896586	-1.270760	3.242260	0.330929	-0.518473	-0.549148	-72.055195	-73.455620	38.815759
26173		10.408553	-0.992365	5.477121	-0.042145	-0.483858	-0.530315	-72.672181	-73.826862	39.434366
26174		10.689966	-1.199572	5.368330	-0.194125	-0.292862	-0.609531	-72.993432	-74.207193	39.653780
26175		10.111899	-1.198775	4.214746	0.246635	-0.139392	-0.741311	-72.683001	-74.634247	39.478969
26176		9.754192	-0.692550	3.845146	0.687477	-0.170654	-0.819112	-72.118253	-75.108344	39.302966
26177		10.102691	-0.644273	3.343542	0.819212	-0.138909	-0.815979	-71.385514	-75.574974	39.031499
26178		10.081346	-0.936233	1.856732	0.772469	-0.047106	-0.778230	-70.477344	-76.002549	38.552190
26179		9.821804	-0.881901	0.047404	0.792804	-0.053550	-0.758189	-69.543658	-76.419044	38.059277
26180		9.446660	-0.454093	-1.093118	0.872574	-0.176599	-0.725635	-68.829690	-76.841150	37.840191
26181		9.337227	0.228168	-1.088840	0.789186	-0.310251	-0.675146	-68.494466	-77.263959	37.960937
26182		9.123434	0.504904	-0.771360	0.451667	-0.345971	-0.609321	-68.500458	-77.659224	38.232935
26183		9.385144	0.830657	-0.632267	0.137343	-0.375860	-0.569336	-68.811587	-78.039255	38.632433
26184		9.463099	1.032506	-0.269188	-0.207072	-0.337575	-0.542885	-69.274559	-78.396947	38.984759
26185		9.409404	0.609920	0.314619	-0.524780	-0.359390	-0.510445	-70.037362	-78.740535	39.456978
26186		9.421482	-0.049565	0.717390	-0.694808	-0.353187	-0.487557	-70.944536	-79.069661	39.976189
26187		9.294311	-0.827010	1.399337	-0.677411	-0.324036	-0.458024	-71.827387	-79.375337	40.480535
26188		9.470529	-1.636979	1.402095	-0.616596	-0.306468	-0.436501	-72.684841	-79.665312	40.993640
26189		9.865753	-1.821390	1.024736	-0.363617	-0.252240	-0.414976	-73.285262	-79.932614	41.392761
26190		9.766566	-1.850383	0.931285	-0.091208	-0.190763	-0.399952	-73.574520	-80.181610	41.633777
26191		9.676726	-1.976306	0.537226	0.065527	-0.169613	-0.384819	-73.730651	-80.418164	41.831001
26192		9.646714	-2.204107	-0.089492	0.222280	-0.178892	-0.367546	-73.853720	-80.647126	42.085311
26193		9.701589	-1.976628	-0.269298	0.376546	-0.196484	-0.344248	-73.978582	-80.865455	42.431137
26194		9.684994	-1.553710	-0.454334	0.408808	-0.206703	-0.330512	-74.147602	-81.078149	42.839890
26195		9.766065	-1.160417	-0.499493	0.382720	-0.208080	-0.326496	-74.352964	-81.288165	43.270350
26196		9.832872	-1.010047	-0.468622	0.304628	-0.209726	-0.322100	-74.632338	-81.496218	43.729857
26197		9.749880	-0.776439	-0.107233	0.233174	-0.224809	-0.316295	-75.032207	-81.702421	44.269847
26198		9.742228	-0.518750	0.331602	0.089506	-0.222600	-0.309387	-75.540678	-81.904390	44.835760
26199		9.688358	-0.560014	0.318208	-0.054996	-0.199943	-0.314753	-76.061062	-82.104878	45.330167
26200		9.699691	-0.773513	0.334387	-0.123557	-0.179394	-0.318433	-76.562358	-82.304618	45.765025
26201		9.684313	-1.061511	0.212909	-0.175686	-0.154700	-0.321341	-77.007963	-82.501643	46.113759
26202		9.693372	-1.349853	0.100674	-0.194619	-0.133530	-0.312801	-77.405233	-82.691502	46.402244
26203		9.740618	-1.542615	-0.181260	-0.199269	-0.122415	-0.313690	-77.769370	-82.879605	46.654938
26204		9.756067	-1.659314	-0.371786	-0.146540	-0.119305	-0.323066	-78.099878	-83.073005	46.903680
26205		9.728155	-1.577380	-0.294245	-0.112861	-0.123701	-0.328103	-78.439495	-83.268952	47.181331
26206		9.654341	-1.422157	-0.233789	-0.102125	-0.134569	-0.332762	-78.844722	-83.469095	47.530732
26207		9.617630	-1.315602	-0.133968	-0.122574	-0.138842	-0.340682	-79.294948	-83.673284	47.913865
26208		9.588056	-1.403997	0.020958	-0.116603	-0.134333	-0.346229	-79.745786	-83.880325	48.300536
26209		9.540458	-1.492480	0.376074	-0.103118	-0.142920	-0.343899	-80.261458	-84.086009	48.760388
26210		9.637289	-1.507835	0.471171	-0.105957	-0.131859	-0.342202	-80.758691	-84.289741	49.199562
26211		9.615138	-1.622264	0.395937	-0.018648	-0.120250	-0.338223	-81.168966	-84.489336	49.601808
26212		9.539968	-1.566614	0.614466	0.091694	-0.138968	-0.332592	-81.670568	-84.687435	50.158866
26213		9.604997	-1.386798	0.573463	0.163227	-0.125028	-0.324834	-82.083376	-84.879171	50.668034
26214		9.505939	-1.113781	0.399806	0.246881	-0.126124	-0.317279	-82.503034	-85.066695	51.231795
26215		9.430630	-0.742402	0.441008	0.299389	-0.140585	-0.317201	-83.023489	-85.254478	51.926994
26216		9.532119	-0.390915	0.412025	0.262083	-0.145356	-0.316892	-83.656449	-85.442110	52.713202
26217		9.688918	-0.286276	0.013865	0.199432	-0.135309	-0.309879	-84.310372	-85.624113	53.484461
26218		9.798594	-0.231211	-0.245747	0.198064	-0.142868	-0.311188	-85.091556	-85.806827	54.382113
26219		9.971357	-0.050170	-0.406686	0.108798	-0.127044	-0.306339	-85.868011	-85.984805	55.223791
26220		9.989702	-0.052013	-0.927668	0.070691	-0.113559	-0.305032	-86.635357	-86.161074	56.033981
26221		9.697525	-0.082673	-0.831298	0.049643	-0.122699	-0.301894	-87.565158	-86.334609	56.995013
26222		9.986707	0.014535	-0.566476	-0.067489	-0.137586	-0.304582	-88.806941	-86.509145	58.200871
26223		9.918959	-0.153080	-0.575642	-0.137952	-0.107678	-0.312909	-89.911393	-86.686282	59.228822
26224		9.863877	-0.242425	-0.321907	-0.191825	-0.099249	-0.318416	-91.093331	-86.865801	60.302909
26225		10.064351	-0.589738	-0.319520	-0.234203	-0.086158	-0.319853	-92.278432	-87.044656	61.356036
26226		10.022647	-0.851121	-0.139965	-0.221004	-0.059380	-0.322133	-93.300505	-87.224868	62.252955
26227		9.973286	-1.214429	-0.220798	-0.172058	-0.042387	-0.312067	-94.186538	-87.398781	63.042002
26228		9.847485	-1.216796	-0.294482	-0.068949	-0.023514	-0.310760	-94.893494	-87.572613	63.710483
26229		9.817426	-1.042278	-0.382622	0.025362	-0.020121	-0.308721	-95.578825	-87.744758	64.411659
26230		9.793971	-0.868130	-0.492856	0.101936	-0.018326	-0.306267	-96.322118	-87.915489	65.214365
26231		9.772310	-0.521464	-0.418456	0.137149	-0.009220	-0.310451	-97.012386	-88.088575	65.984409
26232		9.846521	-0.240953	-0.467044	0.096749	0.002390	-0.316937	-97.698561	-88.266051	66.726847
26233		9.860468	-0.184979	-0.513175	0.053653	0.003957	-0.316220	-98.508311	-88.442746	67.568413
26234		9.816520	-0.252663	-0.195231	0.055888	-0.001330	-0.316987	-99.690660	-88.619117	68.783631
26235		9.750618	-0.251069	-0.063331	0.031320	0.002008	-0.310010	-101.071155	-88.791020	70.183155
26236		9.602340	-0.283141	0.015482	0.061786	0.005683	-0.305133	-102.792884	-88.959825	71.941077
26237		9.510161	-0.090075	0.091550	0.090754	0.002784	-0.307074	-105.233845	-89.127881	74.435109
26238		9.501138	0.109584	0.066072	0.080924	-0.006381	-0.304316	-109.277963	-89.290343	78.526441
26239		9.556622	0.044962	0.004536	0.079594	-0.010757	-0.297996	-115.662149	-89.442881	84.957347
26240		9.579134	-0.000041	-0.118848	0.102649	-0.006191	-0.288843	-125.981194	-89.580491	95.336030
26241		9.685531	0.182940	-0.338933	0.106246	-0.016864	-0.288303	-145.397658	-89.687600	114.814479
26242		9.807020	0.296106	-0.427551	0.123389	-0.016925	-0.284486	-176.324330	-89.730622	145.812677
26243		9.931398	0.389478	-0.284147	0.115551	-0.010733	-0.283579	152.795653	-89.689297	176.760003
26244		9.878761	0.461260	-0.224340	0.102386	-0.005964	-0.275863	133.498069	-89.590149	-163.882950
26245		9.884343	0.366472	-0.199806	0.043973	-0.008334	-0.271009	122.673350	-89.465878	-153.031948
26246		10.003698	0.235796	-0.189954	0.037855	-0.003179	-0.268728	115.953631	-89.331605	-146.289760
26247		9.897320	0.176411	-0.149310	0.036063	0.003336	-0.269040	111.226470	-89.193079	-141.540818
26248		9.883041	0.251116	-0.126119	0.026172	0.018084	-0.272841	107.415055	-89.050521	-137.713551
26249		9.711490	0.032275	-0.211883	0.006910	0.007018	-0.272664	104.882897	-88.903919	-135.176302
26250		9.768156	-0.127491	-0.068538	0.039714	0.002719	-0.278386	103.080695	-88.751375	-133.350550
26251		9.778094	-0.001774	-0.138692	0.052221	0.027740	-0.282979	101.053918	-88.598636	-131.292575
26252		9.800442	-0.195729	-0.262864	0.070035	0.015915	-0.284534	99.709775	-88.441981	-129.907407
26253		9.814544	-0.041148	-0.201758	0.106567	0.028469	-0.290757	98.353511	-88.282613	-128.488778
26254		9.807562	0.033678	-0.277369	0.084665	0.026939	-0.292116	97.270494	-88.121109	-127.356229
26255		9.771905	-0.066154	-0.264005	0.059382	0.021832	-0.295115	96.401788	-87.957380	-126.452242
26256		9.833619	0.023988	-0.162601	0.070179	0.031496	-0.299997	95.543305	-87.790635	-125.552441
26257		9.696438	0.084237	-0.074535	0.055376	0.047952	-0.306815	94.545129	-87.620655	-124.520982
26258		9.642787	0.104186	-0.139714	0.038677	0.036831	-0.317212	93.827016	-87.443372	-123.779507
26259		9.718635	0.149128	-0.059293	0.044694	0.037402	-0.318476	93.180675	-87.265309	-123.106113
26260		9.590951	0.387556	0.139532	0.048965	0.045516	-0.321126	92.542440	-87.085376	-122.438473
26261		9.741092	0.541625	0.094088	-0.020125	0.040861	-0.326866	91.972374	-86.901955	-121.878439
26262		9.760082	0.448932	-0.052386	-0.041583	0.047878	-0.328200	91.398484	-86.717378	-121.326973
26263		9.705300	0.472243	-0.039600	-0.019758	0.050981	-0.334581	90.851889	-86.529107	-120.790038
26264		9.696071	0.723601	-0.133135	0.017210	0.055474	-0.329714	90.355519	-86.343172	-120.282267
26265		9.708116	0.805457	-0.199237	0.041904	0.046833	-0.323549	89.982084	-86.160714	-119.883241
26266		9.712398	1.141339	-0.003453	0.055493	0.033907	-0.318095	89.769199	-85.981067	-119.637429
26267		9.851265	1.249702	0.074816	0.034441	0.029791	-0.295230	89.582726	-85.814673	-119.429962
26268		9.831672	1.279564	0.200835	0.008909	0.027417	-0.297253	89.426674	-85.646846	-119.267826
26269		9.772953	1.266918	0.004667	-0.026670	0.047082	-0.288827	89.107736	-85.483892	-118.962526
26270		9.504379	1.321061	0.152739	-0.037928	0.020744	-0.267671	88.996702	-85.332935	-118.872431
26271		9.783188	1.272786	-0.010647	-0.088449	0.017927	-0.258425	88.871005	-85.187573	-118.796423
26272		9.551833	1.178784	0.040009	-0.054950	0.016991	-0.259554	88.786468	-85.041235	-118.742699
26273		9.504011	1.457228	0.551968	-0.065588	-0.000564	-0.247096	88.801109	-84.902571	-118.794389
26274		9.481360	1.269150	0.281460	-0.164169	0.014525	-0.242415	88.672408	-84.766026	-118.759154
26275		9.619927	0.992944	0.137150	-0.086229	-0.005851	-0.234105	88.706110	-84.634881	-118.841887
26276		9.715737	1.035978	0.146512	-0.136819	0.011898	-0.228093	88.610335	-84.506546	-118.823982
26277		9.683044	0.689266	-0.368310	-0.126951	0.014032	-0.214394	88.500022	-84.386422	-118.785496
26278		9.730162	0.774770	-0.167217	-0.108744	-0.004916	-0.203846	88.517890	-84.272230	-118.865613
26279		9.835427	0.919794	-0.098387	-0.106178	0.006451	-0.209970	88.464539	-84.154750	-118.872402
26280		9.695027	0.886647	-0.043141	-0.101002	-0.000543	-0.221302	88.462981	-84.030513	-118.928551
26281		9.704420	0.993250	0.325918	-0.033391	-0.016005	-0.231202	88.575168	-83.901205	-119.059868
26282		9.700264	1.092457	0.432183	-0.096205	-0.008636	-0.238241	88.616323	-83.767374	-119.156232
26283		9.633884	0.844268	0.111821	-0.067247	-0.007571	-0.231283	88.657435	-83.637876	-119.235624
26284		9.710989	0.862818	0.343862	-0.038603	-0.006610	-0.215567	88.712668	-83.517000	-119.312980
26285		9.647074	0.986812	-0.082429	-0.093808	0.002327	-0.202604	88.681706	-83.403791	-119.335182
26286		9.695417	1.065341	-0.267695	-0.044614	-0.006245	-0.200102	88.726831	-83.291784	-119.405851
26287		9.814732	1.441882	-0.179154	-0.064521	-0.010580	-0.214479	88.774558	-83.171932	-119.490405
26288		9.876637	1.555692	-0.125358	-0.115230	-0.007495	-0.233866	88.785020	-83.040580	-119.566952
26289		9.888091	1.483311	-0.099498	-0.175418	-0.007803	-0.250473	88.756403	-82.900072	-119.638652
26290		9.891423	1.383334	-0.180866	-0.187980	0.000655	-0.249185	88.687798	-82.759820	-119.677579
26291		9.828599	1.447318	0.191496	-0.187671	-0.003632	-0.249258	88.632763	-82.619969	-119.729767
26292		9.804446	1.391361	0.310357	-0.255583	-0.005342	-0.245174	88.552211	-82.482094	-119.795739
26293		9.695053	1.084579	0.020739	-0.266965	0.006609	-0.246928	88.408823	-82.343444	-119.804660
26294		9.694565	1.008666	-0.060801	-0.241528	0.005704	-0.258236	88.293047	-82.197946	-119.826994
26295		9.564338	0.825108	-0.297717	-0.233190	0.024691	-0.267561	88.101483	-82.047161	-119.767750
26296		9.621693	0.690132	-0.495931	-0.124190	0.002044	-0.257710	88.071769	-81.902088	-119.809088
26297		9.602984	0.837007	-0.385069	-0.082945	0.029548	-0.261293	87.951594	-81.754771	-119.734956
26298		9.605683	0.964691	-0.398033	-0.008090	0.000721	-0.261675	87.994915	-81.607526	-119.782866
26299		9.814857	1.147870	-0.208898	-0.015838	0.022166	-0.275743	87.946869	-81.452077	-119.742728
26300		9.665607	0.881869	-0.024087	-0.024140	0.024608	-0.282639	87.893098	-81.292377	-119.701745
26301		9.602998	0.942621	0.270761	0.026081	0.011771	-0.292283	87.912466	-81.127669	-119.705484
26302		9.544489	1.082227	0.342043	0.038504	0.028118	-0.302012	87.886221	-80.956856	-119.655957
26303		9.503898	1.075909	0.250612	0.126098	0.027027	-0.305138	87.910161	-80.784467	-119.606290
26304		9.419877	1.411984	0.383039	0.185709	0.025345	-0.300819	87.978641	-80.614445	-119.567204
26305		9.457030	1.833928	0.175559	0.167155	0.025076	-0.301803	88.032266	-80.444019	-119.523735
26306		9.535177	1.835489	-0.187628	0.174746	0.018574	-0.304084	88.116628	-80.272269	-119.507092
26307		9.578163	2.159222	-0.042248	0.143746	0.014289	-0.307236	88.192100	-80.098951	-119.499361
26308		9.527497	2.123639	-0.166877	0.067091	0.016391	-0.302389	88.220125	-79.928187	-119.488145
26309		9.720333	2.161094	-0.203252	0.041191	0.013745	-0.301317	88.237001	-79.758270	-119.480572
26310		9.588002	2.177497	-0.141569	0.022016	0.024067	-0.293306	88.214349	-79.592534	-119.444105
26311		9.491839	2.357864	0.127857	0.059085	0.008389	-0.279768	88.256127	-79.435052	-119.451423
26312		9.485478	2.563670	0.196262	0.040048	0.008742	-0.273048	88.289046	-79.281141	-119.460976
26313		9.428164	2.547057	0.072140	0.047327	0.009796	-0.267438	88.317572	-79.130695	-119.461669
26314		9.273871	2.473857	0.116008	0.104332	0.001637	-0.248173	88.404730	-78.991074	-119.489004
26315		9.275384	2.574727	0.097875	0.089152	0.000929	-0.219781	88.477513	-78.868062	-119.510376
26316		9.384155	2.372125	-0.171643	0.048363	-0.005707	-0.206851	88.548238	-78.752141	-119.553713
26317		9.385274	2.394401	-0.042553	0.069879	-0.011294	-0.198980	88.641448	-78.641204	-119.607194
26318		9.587043	2.377559	-0.057422	0.001154	-0.009981	-0.200497	88.694483	-78.528912	-119.660139
26319		9.590066	1.908248	-0.309563	0.018158	-0.010583	-0.198810	88.753781	-78.418041	-119.709295
26320		9.597476	1.909469	0.051451	0.034135	-0.023439	-0.200882	88.860909	-78.305649	-119.798225
26321		9.656535	1.768102	-0.126578	0.038049	-0.012553	-0.212221	88.935164	-78.187087	-119.851059
26322		9.567155	1.605872	-0.097321	0.084599	-0.014831	-0.214525	89.044947	-78.066754	-119.913218
26323		9.391522	1.598531	0.252285	0.148812	-0.033108	-0.210917	89.234638	-77.949072	-120.019230
26324		9.416506	1.965710	0.366831	0.136749	-0.030440	-0.219575	89.411595	-77.825923	-120.119560
26325		9.474400	1.691964	-0.058516	0.112269	-0.023306	-0.223549	89.549393	-77.700823	-120.193994
26326		9.412220	1.878639	0.242620	0.151861	-0.032239	-0.217219	89.734449	-77.578940	-120.293829
26327		9.518171	2.170860	0.272336	0.091691	-0.040139	-0.218510	89.899186	-77.456668	-120.408001
26328		9.755416	2.063946	-0.051977	0.051405	-0.012402	-0.228017	89.971013	-77.328487	-120.450877
26329		9.713190	2.284061	0.158385	0.020759	-0.019869	-0.226608	90.039655	-77.201496	-120.508309
26330		9.979172	2.350357	0.119665	-0.046770	-0.019069	-0.238893	90.069852	-77.067065	-120.566222
26331		10.313543	2.181934	-0.097344	-0.125108	0.003359	-0.264761	89.995774	-76.918216	-120.563014
26332		9.860255	1.812556	-0.198833	-0.151622	0.030939	-0.263108	89.843440	-76.769908	-120.495231
26333		10.237042	1.668511	-0.010850	-0.133787	0.018612	-0.262720	89.730189	-76.622194	-120.456876
26334		10.005468	1.556812	-0.298224	-0.163491	0.060389	-0.277910	89.505589	-76.465272	-120.321651
26335		9.927317	1.321347	-0.496579	-0.100089	0.064360	-0.290710	89.309056	-76.301195	-120.177690
26336		9.763026	1.137119	-0.280407	-0.026202	0.069032	-0.296162	89.151218	-76.133631	-120.029958
26337		10.286096	1.153845	-0.492076	0.040993	0.063029	-0.319646	89.046735	-75.952809	-119.897344
26338		10.647681	1.249536	-0.489018	0.110819	0.091676	-0.370790	88.925831	-75.742242	-119.706411
26339		9.708651	1.561002	-0.186740	0.173199	0.098876	-0.366994	88.825511	-75.533771	-119.499665
26340		10.407584	1.847904	-0.025778	0.088751	0.100242	-0.384645	88.682760	-75.315087	-119.298779
26341		10.616738	1.543783	-0.602608	0.097941	0.125136	-0.416104	88.495212	-75.077861	-119.045997
26342		10.360953	1.890771	-0.172828	0.110456	0.159002	-0.420102	88.253625	-74.837685	-118.729385
26343		10.471943	2.010162	-0.110473	0.041977	0.158400	-0.433060	87.980719	-74.589598	-118.420781
26344		10.664120	2.057412	-0.183302	0.067573	0.166320	-0.453277	87.720291	-74.329612	-118.109302
26345		10.613351	2.303263	-0.055075	0.083830	0.171153	-0.465136	87.466562	-74.062123	-117.794930
26346		10.739636	2.735058	0.205880	0.061536	0.179463	-0.479100	87.197692	-73.786337	-117.477384
26347		10.689171	2.749215	0.363927	-0.033235	0.187534	-0.497836	86.867970	-73.498827	-117.152840
26348		10.779780	2.849203	0.426001	-0.050502	0.189996	-0.506677	86.538921	-73.206004	-116.838527
26349		10.860651	3.003274	0.597290	-0.106366	0.198799	-0.512102	86.170424	-72.908864	-116.516258
26350		11.081591	2.923166	0.609683	-0.188139	0.203251	-0.523407	85.763325	-72.604836	-116.201776
26351		11.213402	2.888650	0.730329	-0.239401	0.218461	-0.529166	85.310263	-72.295763	-115.869697
26352		11.223440	2.855129	0.942722	-0.319416	0.224886	-0.526943	84.815932	-71.987262	-115.541489
26353		11.160884	2.812586	1.131468	-0.372985	0.230254	-0.524613	84.292752	-71.678472	-115.215012
26354		11.076064	2.915153	1.205122	-0.471741	0.231720	-0.506053	83.723626	-71.379724	-114.898773
26355		11.137700	2.730912	1.187231	-0.592914	0.240810	-0.501736	83.081318	-71.081277	-114.578416
26356		10.750543	2.221305	1.301536	-0.696400	0.249782	-0.479838	82.377363	-70.794019	-114.254564
26357		11.097057	2.221056	0.965436	-0.716251	0.234201	-0.495240	81.703741	-70.497418	-113.974786
26358		11.039375	2.356358	0.614729	-0.708877	0.262188	-0.485663	81.003396	-70.203457	-113.661116
26359		10.653002	1.939523	1.148643	-0.774098	0.203715	-0.437616	80.357141	-69.940147	-113.444700
26360		10.720334	1.663418	0.968629	-0.840148	0.214360	-0.424964	79.665786	-69.682940	-113.219587
26361		9.939643	1.850901	1.230594	-0.611053	0.200114	-0.399732	79.129064	-69.439760	-113.019657
26362		9.661879	2.645882	1.457205	-0.559175	0.157084	-0.391498	78.692614	-69.206397	-112.894118
26363		9.725565	2.894427	1.034032	-0.658210	0.154675	-0.398504	78.210422	-68.968000	-112.780865
26364		9.589478	2.752859	1.011369	-0.743868	0.157908	-0.390285	77.679468	-68.734561	-112.667036
26365		9.381294	2.077791	0.835139	-0.921225	0.164114	-0.353191	77.032735	-68.519583	-112.538562
26366		9.138750	0.955842	0.279949	-0.840820	0.162816	-0.318617	76.430247	-68.324742	-112.407157
26367		9.076431	1.162916	0.889294	-0.638387	0.133155	-0.269650	75.973329	-68.159579	-112.308232
26368		9.120028	2.003436	1.471710	-0.669034	0.157386	-0.248523	75.462752	-68.003811	-112.169366
26369		9.130847	2.277989	1.501317	-0.806624	0.193357	-0.286535	74.842377	-67.819815	-111.997834
26370		9.064416	2.105867	0.733010	-0.923036	0.190322	-0.372994	74.198516	-67.589336	-111.871786
26371		9.087976	2.524756	0.729836	-0.792497	0.091516	-0.492420	73.812099	-67.306767	-111.944249
26372		9.337336	3.679469	1.585828	-0.883310	0.092036	-0.635416	73.431439	-66.947301	-112.078566
26373		9.095714	4.034417	1.626499	-1.168553	0.164139	-0.830269	72.874749	-66.467853	-112.200629
26374		8.700190	3.968945	1.514068	-1.338519	0.186750	-1.051548	72.286765	-65.865634	-112.394432
26375		8.891263	3.843071	1.408009	-1.401727	0.165766	-1.253723	71.773317	-65.156152	-112.711955
26376		9.464361	3.401326	1.701579	-1.472559	0.144924	-1.438680	71.317491	-64.352604	-113.138997
26377		11.343460	2.981558	0.288675	-1.282666	0.100633	-1.503032	71.040378	-63.521983	-113.647809
26378		10.481551	4.667336	1.469694	-1.000029	0.239568	-1.588985	70.799424	-62.621490	-114.018284
26379		9.589109	4.847440	1.790106	-1.210786	0.182607	-1.766200	70.553434	-61.635030	-114.523954
26380		9.272772	4.912346	1.483278	-1.064418	0.138533	-1.855600	70.452777	-60.611099	-115.103502
26381		8.571008	5.444792	2.319213	-1.211239	0.193707	-1.970433	70.237835	-59.513682	-115.655468
26382		8.726570	4.865076	1.357140	-1.301819	0.186279	-1.973733	69.966270	-58.418732	-116.207053
26383		8.538285	4.895148	1.775547	-1.174836	0.259555	-1.957413	69.687757	-57.317846	-116.672192
26384		8.629559	4.980930	2.360616	-1.194298	0.343389	-1.979697	69.329467	-56.191197	-117.059959
26385		8.978714	4.537348	2.057929	-1.009652	0.397917	-1.994537	69.034106	-55.045112	-117.402146
26386		8.894875	5.063818	2.600688	-0.741954	0.506863	-1.999052	68.807615	-53.876712	-117.644147
26387		8.532016	4.687404	2.360859	-0.627068	0.534194	-2.001921	68.625160	-52.699950	-117.863821
26388		8.336873	4.937322	2.039246	-0.347731	0.486019	-1.935624	68.613593	-51.570560	-118.099387
26389		8.135512	5.326309	2.423310	-0.181782	0.475154	-1.879019	68.681459	-50.471856	-118.319724
26390		7.855248	5.009939	2.139514	0.061367	0.422700	-1.815061	68.896749	-49.419622	-118.552817
26391		7.606001	5.476950	2.537843	0.324502	0.412723	-1.768728	69.245436	-48.391724	-118.767804
26392		7.357946	5.975979	2.467538	0.476391	0.401044	-1.697338	69.659163	-47.405384	-118.955231
26393		7.038923	6.134047	2.178334	0.608832	0.377705	-1.638488	70.136738	-46.452527	-119.130450
26394		6.763645	6.477149	2.198747	0.658678	0.365864	-1.554636	70.620585	-45.548054	-119.276087
26395		6.579485	6.831171	2.129736	0.721630	0.335473	-1.454931	71.127002	-44.700592	-119.406216
26396		6.662772	6.858155	1.953170	0.696768	0.320646	-1.367194	71.601858	-43.904502	-119.512135
26397		6.431570	6.776691	1.600092	0.698478	0.345902	-1.280191	72.041615	-43.148895	-119.568506
26398		6.167497	6.790594	1.568510	0.724165	0.303551	-1.186717	72.496210	-42.453145	-119.624471
26399		6.375608	6.907405	1.336849	0.723340	0.228160	-1.077576	72.964628	-41.827868	-119.703823
26400		6.563978	7.178544	0.837692	0.846620	0.230797	-0.998476	73.485255	-41.246795	-119.754916
26401		6.176993	7.229976	1.309335	0.975344	0.212246	-0.943237	74.074894	-40.697000	-119.800782
26402		6.036827	7.342472	1.778227	0.969994	0.131814	-0.907110	74.689522	-40.180936	-119.888884
26403		6.274768	7.530360	1.682072	0.873740	0.054919	-0.844885	75.270904	-39.708322	-120.013535
26404		6.446837	7.545993	1.219630	0.765525	0.071510	-0.790180	75.771769	-39.264489	-120.108739
26405		6.341165	7.421477	1.229024	0.674553	0.095855	-0.731341	76.198548	-38.847711	-120.171519
26406		6.325406	7.253406	1.413253	0.626502	0.082713	-0.664006	76.594016	-38.471557	-120.227166
26407		6.615024	7.335628	1.631115	0.670682	0.076807	-0.585480	77.006160	-38.137983	-120.270953
26408		6.735956	7.205454	1.439902	0.742195	0.139493	-0.523928	77.424230	-37.832339	-120.256423
26409		6.879083	7.095851	1.547327	0.822258	0.191286	-0.464254	77.857850	-37.552106	-120.193897
26410		7.142579	7.338643	1.611789	0.877083	0.238347	-0.390162	78.295299	-37.310023	-120.083871
26411		7.107116	7.691710	1.389470	0.890657	0.276949	-0.344217	78.718666	-37.088187	-119.938860
26412		7.241607	7.702896	0.753826	0.832509	0.287478	-0.337914	79.103836	-36.871444	-119.783193
26413		6.714945	7.617142	0.191151	0.853556	0.361714	-0.350778	79.469983	-36.638479	-119.576583
26414		6.253795	7.937341	0.825550	0.984137	0.198545	-0.316087	79.976813	-36.444996	-119.477597
26415		6.193518	8.204994	1.189485	0.971796	0.003785	-0.275026	80.552969	-36.292345	-119.509012
26416		6.713448	8.579515	1.329068	0.874345	-0.028336	-0.252192	81.084607	-36.157291	-119.557672
26417		6.783236	8.717473	1.250229	0.715394	0.095776	-0.205592	81.469318	-36.035546	-119.513695
26418		6.260807	8.252829	0.906715	0.699657	0.163926	-0.162925	81.814638	-35.934540	-119.415874
26419		6.208953	8.201149	0.788803	0.822300	0.125777	-0.110443	82.241840	-35.864878	-119.339692
26420		6.430578	8.616010	0.946240	0.862221	0.153701	-0.048604	82.677544	-35.830714	-119.236812
26421		6.037113	8.534651	0.715233	0.807219	0.234266	-0.016517	83.046169	-35.807631	-119.075154
26422		5.477069	8.248520	0.348371	0.762942	0.255197	-0.017378	83.381613	-35.785447	-118.897981
26423		5.566825	8.711813	0.793285	0.745649	0.152245	-0.008329	83.748177	-35.773903	-118.792980
26424		5.655444	8.576663	0.681038	0.576951	0.129106	0.009446	84.027553	-35.776322	-118.702105
26425		5.425009	8.104429	0.385919	0.486237	0.142024	0.084615	84.245642	-35.819202	-118.597418
26426		5.033820	8.075308	0.422547	0.415820	0.143216	0.229270	84.417701	-35.946677	-118.481201
26427		4.572025	7.638827	0.325016	0.303732	0.158629	0.406471	84.510962	-36.172674	-118.342753
26428		4.324419	7.409784	0.251153	0.266945	0.141313	0.580929	84.583684	-36.501102	-118.204122
26429		4.440956	7.357725	0.458738	0.198045	0.135594	0.741652	84.611135	-36.919793	-118.059000
26430		4.701901	7.181938	0.499586	0.172974	0.147583	0.921337	84.611167	-37.442095	-117.891920
26431		4.769897	6.845775	0.523583	0.202231	0.222055	1.088527	84.585027	-38.053986	-117.658761
26432		4.631644	6.672047	0.585391	0.249663	0.253999	1.269612	84.561075	-38.769033	-117.386956
26433		4.400935	6.611875	0.659849	0.314709	0.257298	1.439394	84.559660	-39.579016	-117.098109
26434		4.298072	6.560427	0.816686	0.302798	0.248158	1.581256	84.544506	-40.471991	-116.801929
26435		4.248318	6.711081	1.079580	0.266989	0.243527	1.723139	84.496695	-41.444404	-116.494518
26436		4.184450	6.759541	1.011977	0.233743	0.263636	1.841204	84.406176	-42.484258	-116.156229
26437		3.784826	6.614456	0.789477	0.172095	0.253762	1.933131	84.269366	-43.575077	-115.810181
26438		3.591943	6.362130	0.824802	0.152405	0.137227	2.036356	84.169160	-44.732289	-115.538583
26439		3.783406	6.422786	1.172062	0.041929	0.038595	2.158851	84.044088	-45.963379	-115.327984
26440		4.185630	6.537570	1.232153	-0.088795	-0.014524	2.296027	83.857826	-47.276593	-115.139580
26441		4.404691	6.614681	1.131056	-0.291533	-0.008575	2.416715	83.529267	-48.656404	-114.921160
26442		4.499810	6.238480	1.031479	-0.450134	-0.040389	2.546667	83.102690	-50.112266	-114.697106
26443		4.701370	5.668110	1.133694	-0.592809	-0.051966	2.651653	82.568275	-51.626391	-114.445140
26444		5.151971	5.490688	1.360562	-0.707543	-0.068193	2.722376	81.942771	-53.181044	-114.165719
26445		5.497960	5.686119	1.377578	-0.822762	-0.033736	2.725677	81.184651	-54.731689	-113.810294
26446		5.690492	5.518480	1.065027	-0.972083	-0.014828	2.687521	80.281713	-56.256498	-113.389052
26447		5.821508	5.148872	0.841111	-1.069593	-0.043892	2.649180	79.294355	-57.757816	-112.941729
26448		6.149159	4.919983	0.997736	-1.109156	-0.089453	2.594730	78.271604	-59.229662	-112.486265
26449		6.746108	4.938994	1.490859	-1.165205	-0.123554	2.588356	77.180162	-60.696893	-111.995931
26450		7.179830	4.307271	1.477036	-1.273709	-0.065916	2.545516	75.897199	-62.127629	-111.364834
26451		7.542058	3.803565	1.590985	-1.350421	-0.047958	2.489739	74.466292	-63.516829	-110.625382
26452		7.882901	3.832508	1.285348	-1.328884	-0.123629	2.365900	73.064443	-64.841677	-109.912855
26453		7.850833	3.516263	0.770292	-1.140876	-0.179995	2.152517	71.812945	-66.051735	-109.254863
26454		8.160046	3.611738	0.939270	-0.865490	-0.229841	1.975167	70.768243	-67.169407	-108.655877
26455		8.084437	3.170799	0.642380	-0.804384	-0.172462	1.831197	69.670220	-68.193270	-107.966390
26456		7.937550	2.870737	0.546630	-0.572137	-0.157114	1.687330	68.679959	-69.132445	-107.254169
26457		8.183423	3.352663	0.929756	-0.378305	-0.169374	1.565259	67.814035	-70.004513	-106.560663
26458		8.404788	3.602062	0.756498	-0.305137	-0.152163	1.391058	67.007769	-70.777432	-105.889345
26459		8.366016	3.491912	0.853276	-0.144803	-0.155593	1.248210	66.336777	-71.472580	-105.267145
26460		8.563806	4.144981	1.302177	-0.081658	-0.115243	1.106313	65.692566	-72.082060	-104.637216
26461		7.870270	3.571858	0.731713	-0.141025	-0.053281	0.931140	65.000868	-72.582802	-103.995322
26462		7.912436	3.395280	0.782203	-0.013601	-0.145775	0.790777	64.616108	-73.031730	-103.599843
26463		8.136224	3.646956	1.166595	-0.056831	-0.143340	0.662941	64.286473	-73.412974	-103.288802
26464		7.851793	3.487976	0.722002	-0.131023	-0.093303	0.541997	63.916771	-73.718962	-102.980817
26465		7.398824	3.415229	0.699433	-0.103433	-0.085298	0.434694	63.629287	-73.967106	-102.742453
26466		7.194407	3.743056	0.980344	-0.102354	-0.071444	0.331104	63.405106	-74.158339	-102.569574
26467		6.955690	3.554407	0.852795	-0.145084	-0.045484	0.240286	63.185634	-74.296164	-102.427137
26468		6.766405	3.238747	0.930747	-0.090736	-0.031814	0.179421	63.028342	-74.399118	-102.317155
26469		6.567515	3.088726	1.189611	-0.084556	-0.002345	0.155471	62.838816	-74.482176	-102.169951
26470		6.282380	3.037506	1.220898	-0.052772	0.028696	0.162339	62.604620	-74.560206	-101.957776
26471		6.010883	3.073436	1.007792	0.005865	0.047227	0.172966	62.354723	-74.638714	-101.694330
26472		5.744476	3.127487	0.882893	0.063588	0.054226	0.207077	62.091676	-74.731972	-101.383371
26473		5.931716	3.565424	1.996337	0.187021	0.067481	0.192479	61.883135	-74.814296	-101.055432
26474		8.937931	2.374449	5.177314	-0.002928	0.166678	-0.259849	61.833085	-74.640552	-101.004946
26475		20.448236	2.409654	1.207052	0.069389	-0.472343	-0.910266	63.599219	-74.304173	-102.795944
26476		28.813044	-2.521352	-8.381148	0.420336	-0.734491	-1.020240	66.057193	-73.956658	-105.100504
26477		15.335203	0.539152	-3.690630	2.118287	0.113827	-0.968458	67.809778	-73.423713	-105.661219
26478		7.147825	6.432920	7.423485	1.528797	-0.678243	-0.619901	70.326548	-73.234244	-107.373127
26479		8.190476	5.391462	9.766037	-0.632580	-0.669708	-0.436605	71.436203	-73.126667	-108.910246
26480		8.309145	1.966734	5.045552	-1.256249	0.101478	-0.377607	70.769039	-72.905993	-108.964673
26481		5.501798	2.469026	1.766370	-0.603727	0.582174	-0.440194	69.689281	-72.558928	-108.195431
26482		3.052865	4.702947	-0.862618	0.049253	0.389411	-0.537942	69.400661	-72.194930	-107.862451
26483		5.043776	6.041503	-1.281045	0.203680	-0.107871	-0.631257	70.083913	-71.880134	-108.457262
26484		8.870323	4.113762	-1.762058	-0.033813	-0.362368	-0.652332	71.038049	-71.599210	-109.482036
26485		11.562703	2.322532	0.014954	0.116450	-0.359860	-0.645147	72.038551	-71.316985	-110.466167
26486		13.094912	1.376181	1.771230	-0.011413	-0.265160	-0.593596	72.762440	-71.041204	-111.237458
26487		12.084034	1.711650	1.305824	0.323298	-0.023439	-0.468659	73.213761	-70.791462	-111.518244
26488		9.821126	4.127878	1.817698	0.697264	0.053936	-0.334922	73.688325	-70.601394	-111.597241
26489		9.185704	5.973318	1.415798	0.545029	-0.016128	-0.273275	74.150388	-70.456600	-111.755337
26490		9.153506	6.676337	0.812166	0.350270	-0.020915	-0.266219	74.502707	-70.315474	-111.915877
26491		9.457777	6.377939	0.743415	0.122567	-0.066792	-0.306904	74.807257	-70.159115	-112.164092
26492		9.883046	5.575173	0.913667	-0.052392	-0.079152	-0.325434	75.035785	-69.993075	-112.438841
26493		9.619060	4.718066	0.816476	-0.154051	-0.040508	-0.321729	75.140649	-69.824003	-112.643707
26494		9.360844	4.277676	0.622567	-0.118186	-0.058194	-0.259257	75.267231	-69.690953	-112.850622
26495		9.133659	3.910856	0.591422	-0.028598	-0.062276	-0.171802	75.413223	-69.607834	-113.023032
26496		9.120863	4.081282	0.921792	0.050649	-0.096812	-0.088178	75.624669	-69.574776	-113.217536
26497		9.322227	4.422120	1.430745	0.028714	-0.097937	-0.033815	75.802171	-69.572927	-113.388613
26498		9.269972	4.643330	1.142742	0.010224	-0.046906	-0.006791	75.884680	-69.577627	-113.470321
26499		9.071957	4.761974	1.126270	-0.016084	-0.040720	0.006510	75.936045	-69.590002	-113.534184
26500		9.027227	4.681891	1.113246	-0.101874	-0.043235	0.023751	75.937527	-69.610997	-113.598033
26501		9.212379	4.570904	0.909676	-0.166890	-0.056813	0.041958	75.913423	-69.645309	-113.673543
26502		9.711562	4.209327	0.967688	-0.243224	-0.048655	0.066658	75.826012	-69.690812	-113.729007
26503		9.759201	3.961144	0.815552	-0.269918	-0.006973	0.100240	75.645752	-69.750538	-113.700929
26504		9.582905	3.862822	0.732608	-0.213226	-0.021455	0.141107	75.505370	-69.833520	-113.681616
26505		9.716637	3.729793	0.885288	-0.217755	-0.050527	0.196251	75.382133	-69.952712	-113.682466
26506		9.696263	3.593682	0.520682	-0.194195	-0.042220	0.225672	75.249274	-70.085522	-113.659601
26507		9.235939	3.539433	0.367292	-0.075726	-0.031948	0.260192	75.151557	-70.237415	-113.601069
26508		8.789968	3.613943	0.360779	0.025987	-0.045855	0.280898	75.126392	-70.401313	-113.558644
26509		8.889127	3.453784	0.239661	0.067259	-0.062018	0.287727	75.144689	-70.572851	-113.536397
26510		9.248598	3.194163	0.211882	0.074962	-0.058233	0.279391	75.167282	-70.737714	-113.514953
26511		9.371777	2.828216	0.337139	0.146249	-0.030536	0.276304	75.185484	-70.898316	-113.444733
26512		9.365249	3.239177	0.798446	0.214144	-0.027917	0.277953	75.239948	-71.057993	-113.372672
26513		9.425082	3.483899	0.804191	0.119588	-0.029616	0.267299	75.244567	-71.213497	-113.304374
26514		9.452769	3.509849	0.655846	0.088478	-0.055303	0.264043	75.276996	-71.369468	-113.285214
26515		9.555742	3.562591	0.865210	0.063063	-0.059262	0.271945	75.295349	-71.531878	-113.265691
26516		9.643819	3.548721	1.105750	0.045800	-0.042033	0.290282	75.269559	-71.700433	-113.211009
26517		9.392296	3.403865	1.024795	0.078794	-0.025720	0.301834	75.226492	-71.874506	-113.117377
26518		9.234934	3.349563	1.026559	0.176574	-0.080166	0.324557	75.323982	-72.067572	-113.113684
26519		9.162881	3.301575	1.081564	0.213460	-0.127045	0.344561	75.513178	-72.280039	-113.183183
26520		9.164129	3.427743	1.070553	0.251480	-0.164532	0.350956	75.793156	-72.499708	-113.325965
