// General information: 
//  MT Manager version: 2022.2.0 
//  XDA version: 2022.2.0 build 7381 rev 124627 built on 2023-07-19
// Device information: 
//  DeviceId: 00B4BB4D
//  ProductCode: MTW2-3A7G6
//  Firmware Version: 4.6.0
//  Hardware Version: 2.0.0
// Device settings: 
//  Filter Profile: human(46.1)
//  Option Flags: Orientation Smoother Disabled, Position/Velocity Smoother Disabled, Continuous Zero Rotation Update Disabled, AHS Disabled, ICC Disabled
// Coordinate system: ENU
PacketCounter	SampleTimeFine	Acc_X	Acc_Y	Acc_Z	Gyr_X	Gyr_Y	Gyr_Z	Roll	Pitch	Yaw
02305		9.290448	-0.895324	-1.854335	0.085653	-0.048860	-0.134887	-145.178433	-77.311089	114.269388
02306		9.407840	-0.777229	-1.985011	0.014939	-0.058444	-0.121976	-145.533477	-77.324186	114.638598
02307		9.572397	-0.685142	-2.113549	-0.038538	-0.051402	-0.111945	-145.853428	-77.338588	114.941506
02308		9.730427	-0.628357	-2.045817	-0.111406	-0.020757	-0.094609	-146.171343	-77.359887	115.198400
02309		9.773632	-0.634889	-1.880720	-0.197225	0.015593	-0.072447	-146.404772	-77.392969	115.319416
02310		9.846421	-0.689562	-1.797013	-0.283023	0.050239	-0.044693	-146.616451	-77.431987	115.366626
02311		9.794017	-0.799232	-1.774289	-0.348911	0.082026	-0.020268	-146.732306	-77.480269	115.278120
02312		9.672687	-1.010723	-1.726513	-0.389562	0.099972	-0.005146	-146.850759	-77.530777	115.167294
02313		9.606053	-1.263417	-1.716834	-0.403231	0.097600	0.002000	-146.927334	-77.579635	115.006725
02314		9.578628	-1.538852	-1.740248	-0.388853	0.094368	0.005224	-147.030692	-77.624370	114.880904
02315		9.535932	-1.761076	-1.862649	-0.309141	0.084386	-0.000172	-147.076376	-77.667650	114.743955
02316		9.454020	-1.961768	-1.954803	-0.183870	0.076058	-0.009393	-147.119882	-77.708161	114.677138
02317		9.387923	-2.013465	-1.959316	-0.060833	0.053662	-0.023981	-147.119210	-77.744098	114.638389
02318		9.424318	-1.982663	-1.852811	0.031775	0.036759	-0.031774	-147.144322	-77.772532	114.679216
02319		9.519001	-1.865775	-1.946705	0.103283	0.023764	-0.034048	-147.114784	-77.797213	114.707150
02320		9.511913	-1.692327	-1.881579	0.153912	0.029032	-0.042817	-147.105216	-77.825223	114.784098
02321		9.368286	-1.489108	-1.759828	0.183351	0.037577	-0.057200	-147.061579	-77.863762	114.844532
02322		9.322847	-1.282529	-1.591109	0.212417	0.027360	-0.070468	-147.082885	-77.899481	114.987335
02323		9.319295	-1.024478	-1.464696	0.240661	0.004144	-0.075198	-147.095813	-77.927540	115.139181
02324		9.338046	-0.779726	-1.438191	0.252151	-0.013656	-0.082408	-147.181648	-77.947177	115.371227
02325		9.476397	-0.556067	-1.536210	0.255722	-0.023518	-0.083937	-147.246724	-77.964553	115.585195
02326		9.532625	-0.325471	-1.669312	0.222909	-0.040427	-0.089685	-147.405826	-77.973415	115.874988
02327		9.545883	-0.160995	-1.712125	0.162763	-0.045790	-0.105519	-147.606187	-77.986443	116.172797
02328		9.554980	-0.110992	-1.713915	0.110237	-0.040802	-0.129735	-147.923466	-78.006976	116.558253
02329		9.499218	-0.093214	-1.577498	0.080225	-0.033363	-0.155055	-148.268678	-78.040409	116.955747
02330		9.465312	-0.148577	-1.454711	0.085482	-0.037631	-0.200619	-148.763727	-78.082758	117.508298
02331		9.365479	-0.195171	-1.423889	0.115905	-0.075011	-0.237305	-149.343725	-78.118577	118.166512
02332		9.316472	-0.147146	-1.435281	0.145724	-0.109635	-0.283253	-150.105992	-78.146869	119.027234
02333		9.219407	-0.042430	-1.433175	0.164122	-0.162538	-0.327552	-150.997807	-78.160878	120.032149
02334		9.298077	0.060980	-1.554244	0.125015	-0.224722	-0.371817	-152.140710	-78.149742	121.269585
02335		9.536506	0.122207	-1.707754	0.086403	-0.226321	-0.433561	-153.415727	-78.151012	122.620557
02336		9.777419	0.302354	-1.778254	0.123162	-0.171097	-0.491906	-154.789987	-78.186450	124.093216
02337		9.868746	0.685354	-2.019505	0.133030	-0.105095	-0.542129	-156.178978	-78.263635	125.587533
02338		9.646051	1.036404	-2.285885	0.025918	-0.095902	-0.578529	-157.773493	-78.343046	127.227496
02339		9.459543	1.254164	-2.540256	-0.196675	-0.157541	-0.610085	-159.617552	-78.389178	128.992793
02340		9.373750	1.348807	-2.531404	-0.441599	-0.214426	-0.646996	-161.806274	-78.395648	130.965360
02341		9.354087	1.212645	-2.257737	-0.699688	-0.230486	-0.686125	-164.216747	-78.387613	133.014508
02342		9.397934	0.669487	-1.948816	-1.114474	-0.154854	-0.708888	-166.915607	-78.402464	135.114244
02343		9.484914	-0.172678	-1.702227	-1.524635	-0.025332	-0.708432	-169.739662	-78.473973	137.102747
02344		9.633725	-1.120131	-1.372837	-1.726523	0.048076	-0.651148	-172.561145	-78.557741	138.968916
02345		9.741289	-1.516417	-1.484946	-1.746743	0.041370	-0.556817	-175.115448	-78.619316	140.551348
02346		9.858080	-1.882707	-1.919145	-1.828049	0.023493	-0.419561	-177.389602	-78.647362	141.799234
02347		10.011736	-2.686029	-2.237233	-1.827158	0.079760	-0.269138	-179.195295	-78.701508	142.570729
02348		9.975280	-3.478528	-2.043519	-1.537376	0.107073	-0.132688	179.507225	-78.761777	142.992247
02349		9.801797	-4.052296	-2.100846	-1.045351	0.074171	0.017283	178.958544	-78.808324	142.938626
02350		9.704160	-4.201837	-2.392815	-0.425417	-0.039694	0.155425	179.134623	-78.785788	142.507480
02351		9.800429	-3.882051	-2.602917	0.133466	-0.143386	0.275472	-179.989264	-78.708726	141.689783
02352		10.116665	-3.433251	-2.560590	0.610871	-0.257774	0.389643	-178.564314	-78.556949	140.590255
02353		10.588484	-2.929723	-2.273275	1.010951	-0.322946	0.500816	-176.614904	-78.363852	139.189432
02354		10.972603	-2.238730	-2.291199	1.293269	-0.316981	0.585843	-174.354096	-78.155156	137.634093
02355		10.851062	-1.346668	-2.333633	1.384282	-0.273108	0.623354	-171.967083	-77.960982	136.002580
02356		10.411351	-0.520127	-2.346508	1.349717	-0.219600	0.602288	-169.720529	-77.780749	134.492632
02357		9.943545	0.232385	-2.196202	1.194422	-0.173849	0.547422	-167.708168	-77.625282	133.131055
02358		9.645697	0.806159	-1.824855	0.967199	-0.100814	0.496769	-165.975450	-77.503261	131.921001
02359		9.293140	1.141368	-1.656503	0.689024	-0.017627	0.458581	-164.442352	-77.429898	130.752505
02360		8.966856	1.333401	-1.566882	0.468285	0.039626	0.442274	-163.076765	-77.380139	129.624865
02361		8.715832	1.361708	-1.483841	0.260273	0.026580	0.424636	-161.865511	-77.324761	128.533932
02362		8.748172	1.374538	-1.629435	0.015352	0.020079	0.376525	-160.955356	-77.266586	127.606520
02363		8.980497	1.257497	-1.831380	-0.160498	0.026044	0.320095	-160.253039	-77.223058	126.789753
02364		9.158137	0.990947	-2.111582	-0.229467	0.021173	0.273082	-159.742979	-77.180979	126.128325
02365		9.256995	0.577168	-2.446636	-0.255732	0.037086	0.235665	-159.293110	-77.156894	125.514262
02366		9.396527	0.373749	-2.601753	-0.264376	0.011119	0.214717	-158.956930	-77.119233	125.010410
02367		9.537440	0.179554	-2.687957	-0.272374	-0.025580	0.199424	-158.662693	-77.067493	124.546047
02368		9.533684	-0.051033	-2.671152	-0.266981	-0.066626	0.201361	-158.437060	-76.990048	124.153802
02369		9.571138	-0.222924	-2.626204	-0.220511	-0.114629	0.203541	-158.192386	-76.889132	123.770534
02370		9.578405	-0.145101	-2.427178	-0.178776	-0.147671	0.213441	-157.972619	-76.765276	123.435818
02371		9.607008	-0.310781	-2.185077	-0.187458	-0.155673	0.218185	-157.724042	-76.638714	123.067628
02372		9.641805	-0.489378	-1.983090	-0.203333	-0.131363	0.220354	-157.499327	-76.521418	122.712941
02373		9.615034	-0.552778	-1.777359	-0.189939	-0.095384	0.213774	-157.217359	-76.426990	122.308595
02374		9.695347	-0.529906	-1.784320	-0.186765	-0.043884	0.188088	-156.982412	-76.362470	121.952821
02375		9.719561	-0.469520	-1.981610	-0.180636	0.020045	0.147481	-156.738953	-76.342966	121.593381
02376		9.712473	-0.443367	-2.152339	-0.131131	0.062957	0.106253	-156.553078	-76.352725	121.320808
02377		9.519338	-0.415219	-2.304036	-0.079461	0.041153	0.065206	-156.410266	-76.362561	121.124596
02378		9.336799	-0.503338	-2.318721	-0.112500	0.015650	0.031072	-156.421178	-76.364512	121.065493
02379		9.199911	-0.686392	-2.330100	-0.205192	0.017045	0.013924	-156.484051	-76.373401	121.006811
02380		9.222800	-0.868327	-2.408216	-0.221801	0.003383	0.006192	-156.623444	-76.374616	121.015455
02381		9.356876	-0.982710	-2.417284	-0.185376	-0.019141	0.005400	-156.727451	-76.366454	121.010782
02382		9.405914	-1.073308	-2.343014	-0.155854	-0.012831	0.009837	-156.836322	-76.358251	121.026892
02383		9.432251	-1.068277	-2.298670	-0.158963	-0.018066	0.013421	-156.906683	-76.348854	121.003168
02384		9.490115	-1.213801	-2.166227	-0.169206	-0.047278	0.021185	-157.030052	-76.319895	121.026328
02385		9.559219	-1.383087	-2.116105	-0.154840	-0.038483	0.041386	-157.056189	-76.293493	120.959513
02386		9.521227	-1.474352	-2.145430	-0.128713	-0.007444	0.043702	-157.070440	-76.280507	120.894250
02387		9.468256	-1.590356	-2.300821	-0.123137	0.010281	0.055478	-157.003474	-76.276679	120.750287
02388		9.467384	-1.593659	-2.302123	-0.065922	-0.006012	0.060246	-156.944169	-76.260656	120.646359
02389		9.526207	-1.558351	-2.275597	0.019619	0.000376	0.060726	-156.793510	-76.250328	120.500426
02390		9.435225	-1.482637	-2.177296	0.121967	-0.009934	0.046591	-156.659243	-76.235120	120.430168
02391		9.409948	-1.330420	-2.121355	0.173365	-0.053585	0.037825	-156.520268	-76.201465	120.386943
02392		9.526828	-1.187582	-2.148166	0.165544	-0.057447	0.027013	-156.446914	-76.165624	120.405124
02393		9.618943	-1.067402	-2.171601	0.156592	-0.027957	0.022110	-156.327836	-76.148992	120.372482
02394		9.579282	-0.895543	-2.108012	0.128868	-0.009044	0.021921	-156.241204	-76.139696	120.355351
02395		9.516008	-0.814655	-1.963544	0.137365	-0.018307	0.019236	-156.130494	-76.128762	120.319979
02396		9.539758	-0.685027	-1.909192	0.129097	-0.014809	0.010511	-156.073381	-76.119112	120.333383
02397		9.478291	-0.660637	-2.013475	0.055448	0.012855	0.012761	-155.994119	-76.125976	120.282056
02398		9.515582	-0.614498	-2.122902	-0.047515	0.030745	0.021767	-155.971477	-76.137632	120.226728
02399		9.430385	-0.726135	-2.116712	-0.112958	0.024730	0.027482	-155.946132	-76.147257	120.131558
02400		9.412223	-0.828982	-2.075597	-0.124487	0.004330	0.030233	-155.974746	-76.143173	120.083591
02401		9.457184	-0.928007	-2.072829	-0.148605	-0.010783	0.024729	-156.009262	-76.134867	120.029037
02402		9.422281	-1.101127	-2.136156	-0.185506	-0.018665	0.026064	-156.103301	-76.119787	120.012442
02403		9.448427	-1.301619	-2.096304	-0.177030	-0.026114	0.021448	-156.175448	-76.104241	119.979870
02404		9.531136	-1.418452	-2.131014	-0.182968	-0.027207	0.009589	-156.310338	-76.088513	120.006868
02405		9.494435	-1.567846	-2.246611	-0.135586	-0.012726	-0.001323	-156.394390	-76.085257	120.011021
02406		9.397457	-1.607281	-2.193406	-0.065503	-0.026939	-0.005527	-156.492787	-76.073068	120.069792
02407		9.439485	-1.573627	-2.185294	-0.013109	-0.045678	-0.015097	-156.566096	-76.055634	120.135179
02408		9.595868	-1.442846	-2.245904	0.052415	-0.037564	-0.018855	-156.633745	-76.040778	120.231927
02409		9.579913	-1.268735	-2.207810	0.099759	-0.015370	-0.012852	-156.609687	-76.038748	120.263628
02410		9.533398	-1.108169	-2.124839	0.099498	-0.004206	-0.007182	-156.594462	-76.038719	120.302808
02411		9.501168	-1.053344	-2.158390	0.092012	-0.002111	-0.008779	-156.554089	-76.042738	120.313122
02412		9.500152	-0.939296	-2.262560	0.118343	-0.001060	-0.004376	-156.518909	-76.043724	120.342880
02413		9.480594	-0.771373	-2.295481	0.117624	0.004136	-0.011578	-156.464016	-76.051668	120.353353
02414		9.456294	-0.701444	-2.346692	0.071966	0.001533	-0.014852	-156.475178	-76.056399	120.403479
02415		9.425458	-0.713686	-2.303464	0.049184	-0.012902	-0.017315	-156.487327	-76.056705	120.442626
02416		9.463639	-0.738261	-2.174917	0.077266	-0.031840	-0.026822	-156.551639	-76.046604	120.550635
02417		9.472414	-0.790722	-2.117381	0.079024	-0.036688	-0.027749	-156.590521	-76.036767	120.634949
02418		9.459691	-0.856701	-2.147670	0.074806	-0.034874	-0.023602	-156.651984	-76.024318	120.738575
02419		9.420890	-0.835924	-2.117076	0.069664	-0.039208	-0.026395	-156.695452	-76.012811	120.822096
02420		9.493013	-0.832476	-2.287194	0.040614	-0.022723	-0.027615	-156.773600	-76.007637	120.922737
02421		9.502594	-0.837116	-2.255658	0.053989	-0.007082	-0.027619	-156.799374	-76.013284	120.978770
02422		9.487929	-0.776199	-2.113384	0.081508	-0.035633	-0.029198	-156.869038	-76.001615	121.094814
02423		9.542938	-0.786331	-2.135422	0.063880	-0.045767	-0.028820	-156.926529	-75.987118	121.189381
02424		9.601802	-0.885023	-2.028871	0.056035	-0.034370	-0.026558	-157.003710	-75.975496	121.298139
02425		9.613584	-0.817108	-2.003609	0.068355	-0.017255	-0.020398	-157.015063	-75.974108	121.347801
02426		9.495703	-0.824720	-2.062729	0.053789	-0.018526	-0.027437	-157.080899	-75.971073	121.443548
02427		9.415901	-0.852114	-2.155826	0.053688	-0.027966	-0.025377	-157.120693	-75.965123	121.513866
02428		9.411835	-0.860023	-2.068591	0.048094	-0.057004	-0.029423	-157.227881	-75.942194	121.648887
02429		9.477498	-0.845169	-2.201286	0.039782	-0.060977	-0.034215	-157.323180	-75.920702	121.768222
02430		9.485239	-0.891678	-2.309401	0.038053	-0.050519	-0.035312	-157.441957	-75.902409	121.909285
02431		9.534646	-0.889304	-2.291982	0.059345	-0.044349	-0.035867	-157.514398	-75.889978	122.016628
02432		9.525396	-0.838689	-2.192092	0.049914	-0.033516	-0.023299	-157.585678	-75.877945	122.115743
02433		9.524930	-0.837289	-2.194651	0.020740	-0.026439	-0.022364	-157.636000	-75.871996	122.177479
02434		9.507139	-0.844427	-2.211281	0.012824	-0.018805	-0.019992	-157.708530	-75.867015	122.255976
02435		9.505713	-0.732535	-2.156356	0.019085	-0.028973	-0.013876	-157.744017	-75.857848	122.301439
02436		9.474638	-0.743634	-2.115762	0.004059	-0.037856	-0.011080	-157.818977	-75.840832	122.377269
02437		9.456271	-0.751283	-2.134716	-0.006223	-0.054015	-0.012681	-157.887686	-75.818093	122.442048
02438		9.546600	-0.760553	-2.242652	-0.019785	-0.047153	-0.010937	-157.983458	-75.796119	122.525264
02439		9.457510	-0.738967	-2.234237	-0.043822	-0.028262	-0.011109	-158.048165	-75.786681	122.563703
02440		9.453896	-0.699049	-2.174475	-0.082994	-0.025862	-0.008300	-158.156257	-75.775441	122.622272
02441		9.483907	-0.731286	-2.193189	-0.113227	-0.022973	0.000848	-158.231035	-75.766241	122.630080
02442		9.525935	-0.649741	-2.212203	-0.104944	-0.009700	-0.000185	-158.320973	-75.761903	122.656945
02443		9.518244	-0.662157	-2.195623	-0.114770	-0.003014	0.001369	-158.378811	-75.763218	122.646364
02444		9.475548	-0.692027	-2.208307	-0.108677	-0.009632	-0.000064	-158.470608	-75.758944	122.672935
02445		9.475382	-0.736797	-2.182644	-0.126636	-0.018023	0.008062	-158.533623	-75.750858	122.660681
02446		9.435344	-0.803943	-2.260020	-0.164595	-0.020824	0.012073	-158.641115	-75.738124	122.670386
02447		9.443540	-0.943773	-2.310926	-0.162426	-0.006647	0.014430	-158.701863	-75.734792	122.634633
02448		9.463671	-0.923007	-2.388733	-0.149636	0.001262	0.020428	-158.764899	-75.732134	122.607317
02449		9.463459	-0.874412	-2.417042	-0.139465	0.009793	0.022227	-158.782684	-75.735980	122.540808
02450		9.415631	-0.847512	-2.415269	-0.113709	0.020029	0.022975	-158.804317	-75.742814	122.492020
02451		9.372407	-0.769440	-2.367568	-0.107502	0.013513	0.025228	-158.794399	-75.748034	122.415827
02452		9.382257	-0.775101	-2.335812	-0.132993	-0.008048	0.018653	-158.858990	-75.740762	122.399962
02453		9.482581	-0.868624	-2.240849	-0.146812	-0.014636	0.018717	-158.908216	-75.732307	122.361552
02454		9.601108	-0.968689	-2.244525	-0.142194	0.002569	0.017914	-158.970881	-75.730901	122.338263
02455		9.611779	-0.988875	-2.325612	-0.118079	0.025256	0.019579	-158.969515	-75.743617	122.264638
02456		9.642844	-1.070611	-2.312641	-0.081437	0.042599	0.025726	-158.948135	-75.762034	122.190573
02457		9.570471	-1.068678	-2.305005	-0.049358	0.037006	0.017538	-158.901930	-75.781439	122.111321
02458		9.516167	-1.168010	-2.342733	-0.021460	0.023829	0.019229	-158.874500	-75.791137	122.066498
02459		9.461299	-1.173367	-2.436264	0.005633	-0.004790	0.023307	-158.818535	-75.786988	122.009687
02460		9.425771	-1.192691	-2.466545	0.015477	-0.013322	0.023587	-158.790574	-75.775864	121.986172
02461		9.422123	-1.159422	-2.404089	0.058315	-0.019453	0.020823	-158.721763	-75.764379	121.947242
02462		9.501474	-1.041220	-2.367756	0.111713	-0.020633	0.014104	-158.664223	-75.751233	121.950118
02463		9.517904	-0.927275	-2.293987	0.136011	-0.011105	0.008217	-158.570678	-75.746812	121.931597
02464		9.456826	-0.861674	-2.261178	0.130221	-0.010149	0.001931	-158.519240	-75.741779	121.951723
02465		9.489286	-0.873204	-2.254665	0.121219	-0.014473	-0.004438	-158.463546	-75.738211	121.963509
02466		9.431336	-0.842456	-2.285259	0.111854	-0.000130	-0.012592	-158.444600	-75.741582	122.006310
02467		9.403879	-0.845500	-2.331998	0.091615	-0.009721	-0.016484	-158.427204	-75.743086	122.040111
02468		9.426582	-0.800864	-2.385448	0.062300	-0.008476	-0.017315	-158.453325	-75.742997	122.100123
02469		9.489780	-0.796408	-2.422301	-0.003378	0.005864	-0.011375	-158.466745	-75.751728	122.109562
02470		9.409432	-0.901830	-2.344690	-0.022050	0.006498	-0.010512	-158.514530	-75.758159	122.142063
02471		9.429383	-1.007879	-2.225435	-0.001745	-0.014078	-0.008360	-158.537205	-75.755623	122.162016
02472		9.469599	-1.095465	-2.182816	0.020722	-0.011039	-0.009459	-158.572482	-75.752468	122.206910
02473		9.460157	-1.104200	-2.329137	0.067270	-0.008026	-0.018190	-158.571262	-75.755213	122.243007
02474		9.472963	-1.147433	-2.360269	0.103726	-0.019187	-0.023152	-158.593957	-75.750554	122.324013
02475		9.553637	-1.229779	-2.327763	0.121283	-0.012842	-0.023502	-158.576912	-75.751840	122.375713
02476		9.495859	-1.245457	-2.330511	0.143252	-0.006310	-0.022541	-158.564497	-75.753871	122.443889
02477		9.503526	-1.184952	-2.374386	0.139845	0.003398	-0.017029	-158.509825	-75.762470	122.467739
02478		9.442825	-1.023637	-2.395283	0.142820	0.018022	-0.009447	-158.449441	-75.774681	122.486200
02479		9.381755	-0.893568	-2.274813	0.152789	0.016990	-0.009348	-158.359851	-75.788915	122.481678
02480		9.386676	-0.843963	-2.227370	0.162465	0.004452	-0.012727	-158.306065	-75.794570	122.518569
02481		9.537498	-0.752415	-2.217405	0.177464	0.007627	-0.013604	-158.218996	-75.804721	122.531231
02482		9.550540	-0.704510	-2.301611	0.174142	0.009647	-0.021292	-158.172014	-75.814999	122.582044
02483		9.525682	-0.683189	-2.324314	0.161735	0.007572	-0.018217	-158.103642	-75.826112	122.604695
02484		9.523822	-0.711149	-2.344490	0.150530	0.015406	-0.021607	-158.066010	-75.839549	122.651191
02485		9.499041	-0.689404	-2.367135	0.138654	0.007952	-0.018709	-158.011542	-75.850979	122.674539
02486		9.479813	-0.772512	-2.373723	0.110744	0.013755	-0.016538	-157.987478	-75.862463	122.711512
02487		9.487984	-0.805383	-2.361253	0.082776	0.015786	-0.014251	-157.948916	-75.877102	122.718245
02488		9.477814	-0.782669	-2.278539	0.096482	0.014620	-0.014326	-157.927598	-75.888561	122.749622
02489		9.505784	-0.780036	-2.228962	0.110067	0.020786	-0.022027	-157.885494	-75.907533	122.768825
02490		9.556557	-0.733656	-2.232969	0.122091	0.026410	-0.019431	-157.850092	-75.926373	122.800809
02491		9.590134	-0.743170	-2.222245	0.128523	0.035059	-0.017569	-157.775572	-75.951960	122.797492
02492		9.533226	-0.759389	-2.221299	0.121084	0.033477	-0.015320	-157.725800	-75.973702	122.814068
02493		9.491367	-0.792943	-2.229020	0.086634	0.015603	-0.010864	-157.677778	-75.987515	122.813326
02494		9.475609	-0.914229	-2.296594	0.074976	0.023411	-0.008336	-157.648194	-76.002429	122.823482
02495		9.451120	-0.938911	-2.290209	0.088069	0.018223	-0.006096	-157.586833	-76.016590	122.809841
02496		9.491754	-0.888285	-2.327616	0.089532	0.019037	0.000594	-157.533439	-76.027218	122.804066
02497		9.506341	-0.842827	-2.248565	0.066025	0.017693	0.008048	-157.454928	-76.037989	122.759740
02498		9.522064	-0.862113	-2.253581	0.024367	0.026613	0.008406	-157.415288	-76.050897	122.729673
02499		9.487812	-0.881560	-2.279291	-0.011366	0.040371	0.016658	-157.342458	-76.071743	122.645517
02500		9.437257	-0.818260	-2.212910	-0.003332	0.040264	0.014069	-157.294108	-76.090607	122.590139
02501		9.472791	-0.754892	-2.209258	-0.002908	0.034708	0.010194	-157.234894	-76.109852	122.525016
02502		9.494434	-0.785169	-2.252943	-0.018302	0.050139	0.008951	-157.196829	-76.135070	122.471413
02503		9.458612	-0.783735	-2.327616	-0.034905	0.063181	0.010313	-157.129625	-76.169295	122.379194
02504		9.457802	-0.857089	-2.315391	-0.011929	0.055010	0.010932	-157.078795	-76.196622	122.316224
02505		9.503500	-0.799459	-2.277421	0.005754	0.052127	0.020020	-156.976786	-76.222793	122.212176
02506		9.505843	-0.866425	-2.356792	-0.009918	0.048600	0.019373	-156.911906	-76.244798	122.135945
02507		9.514178	-0.946562	-2.313562	-0.029852	0.033932	0.028888	-156.827317	-76.259318	122.028849
02508		9.539728	-0.972023	-2.285088	-0.025769	0.039797	0.037772	-156.739456	-76.272454	121.919629
02509		9.511668	-1.006496	-2.186508	0.001148	0.048448	0.035833	-156.608201	-76.292949	121.782793
02510		9.420561	-0.904771	-2.137434	0.000419	0.044304	0.034447	-156.507523	-76.309100	121.675855
02511		9.467101	-0.913948	-2.185039	-0.029058	0.032571	0.035966	-156.407567	-76.321102	121.553439
02512		9.515772	-0.896478	-2.210668	-0.030034	0.045328	0.038071	-156.314903	-76.336887	121.436814
02513		9.553940	-0.762306	-2.212052	-0.008631	0.060786	0.035280	-156.177409	-76.363737	121.287832
02514		9.519132	-0.672355	-2.179523	0.006029	0.071420	0.040088	-156.033953	-76.392614	121.140234
02515		9.496177	-0.561564	-2.091562	0.005995	0.075052	0.036245	-155.870990	-76.426522	120.973707
02516		9.519163	-0.503142	-2.025259	-0.013717	0.084800	0.039328	-155.726258	-76.462441	120.813192
02517		9.531164	-0.418598	-2.041260	-0.044793	0.102188	0.031553	-155.574206	-76.511415	120.628014
02518		9.570521	-0.329508	-2.007921	-0.063842	0.125162	0.026401	-155.444702	-76.571367	120.453679
02519		9.567771	-0.271683	-1.983829	-0.071257	0.143934	0.014948	-155.299579	-76.645839	120.260131
02520		9.566723	-0.232490	-1.907828	-0.077773	0.147999	-0.000409	-155.211362	-76.724063	120.120107
02521		9.585409	-0.200852	-1.929974	-0.083341	0.144807	-0.023616	-155.154177	-76.808113	120.009909
02522		9.551744	-0.239887	-1.968505	-0.082222	0.135240	-0.050310	-155.191047	-76.891825	119.995801
02523		9.550044	-0.332025	-1.972298	-0.056736	0.120185	-0.071366	-155.249935	-76.974551	120.020486
02524		9.538046	-0.396638	-2.059990	-0.030926	0.127673	-0.096857	-155.371611	-77.065594	120.123569
02525		9.529673	-0.453158	-2.073871	-0.002547	0.138220	-0.121936	-155.497599	-77.169742	120.248917
02526		9.544146	-0.490592	-2.162455	0.022760	0.151061	-0.147289	-155.684189	-77.284873	120.450018
02527		9.519406	-0.485932	-2.267790	0.050700	0.167062	-0.168546	-155.863023	-77.414882	120.660679
02528		9.455245	-0.439680	-2.390667	0.082754	0.168021	-0.191646	-156.110051	-77.548911	120.958715
02529		9.433448	-0.359612	-2.501908	0.117749	0.160787	-0.219861	-156.389160	-77.687084	121.311151
02530		9.347230	-0.281513	-2.579632	0.151284	0.137750	-0.250578	-156.785082	-77.817834	121.801428
02531		9.297695	-0.150565	-2.535048	0.189163	0.110961	-0.283516	-157.247811	-77.942943	122.383171
02532		9.245759	0.002863	-2.544413	0.216921	0.082626	-0.329723	-157.881576	-78.059873	123.154595
02533		9.243894	0.167836	-2.460650	0.247985	0.066887	-0.376345	-158.614327	-78.178586	124.046194
02534		9.239125	0.356496	-2.430543	0.285194	0.042284	-0.429825	-159.536883	-78.290020	125.151900
02535		9.292073	0.600332	-2.303954	0.318054	0.022542	-0.490710	-160.605458	-78.401284	126.426649
02536		9.261706	0.863313	-2.138599	0.333527	0.012900	-0.554122	-161.899863	-78.510949	127.939249
02537		9.194941	1.140542	-1.984118	0.309651	-0.003113	-0.626258	-163.409612	-78.619621	129.658194
02538		9.212827	1.382224	-1.863091	0.234759	-0.038418	-0.698162	-165.253696	-78.706880	131.672561
02539		9.316142	1.671714	-1.709476	0.106793	-0.052930	-0.772596	-167.382315	-78.785660	133.902906
02540		9.456870	1.745819	-1.686127	-0.061035	-0.062955	-0.842813	-169.878693	-78.845680	136.408329
02541		9.747242	1.843585	-1.756087	-0.230091	-0.077314	-0.922131	-172.691915	-78.885647	139.138758
02542		10.146336	1.962051	-1.908801	-0.419775	-0.082573	-0.999126	-175.891601	-78.895321	142.150759
02543		10.602477	2.049017	-2.044895	-0.639744	-0.071041	-1.077001	-179.402334	-78.883841	145.352587
02544		10.814808	1.945889	-2.277444	-0.853116	-0.009239	-1.157527	176.700968	-78.862105	148.822053
02545		11.046871	1.909591	-2.390838	-1.092776	0.064238	-1.241968	172.464355	-78.835552	152.499592
02546		11.228417	1.767758	-2.185346	-1.382544	0.193134	-1.330484	167.735530	-78.811761	156.508662
02547		11.023272	1.526614	-1.795742	-1.576288	0.376380	-1.404871	162.615254	-78.818360	160.804969
02548		11.065809	1.395661	-1.449112	-1.696195	0.459359	-1.460953	157.177865	-78.775020	165.353621
02549		11.135292	1.256858	-1.417729	-1.721335	0.525686	-1.501078	151.640578	-78.679123	169.991685
02550		11.160170	1.142710	-1.166286	-1.633527	0.603001	-1.519947	146.083718	-78.520668	174.702105
02551		10.909313	1.075901	-0.989832	-1.507269	0.666984	-1.527724	140.670714	-78.308864	179.343605
02552		10.516109	1.038528	-0.932866	-1.413081	0.696709	-1.523843	135.455050	-78.017568	-176.157973
02553		10.227229	0.856392	-0.887306	-1.367244	0.680240	-1.478604	130.652144	-77.667887	-172.048731
02554		9.798791	0.663410	-0.703697	-1.293321	0.672346	-1.409030	126.265745	-77.270047	-168.317460
02555		9.508932	0.309807	-0.384239	-1.138203	0.645199	-1.323154	122.409194	-76.855562	-165.032067
02556		9.333354	-0.145339	-0.148672	-0.850931	0.605703	-1.246002	119.105292	-76.414230	-162.140176
02557		9.303536	-0.432974	-0.137972	-0.479370	0.514611	-1.161141	116.492879	-75.965981	-159.735280
02558		9.252496	-0.389508	-0.153527	-0.166257	0.397243	-1.088789	114.512905	-75.496084	-157.793277
02559		9.397090	-0.173093	-0.294388	0.032866	0.263722	-1.018532	113.096665	-75.025735	-156.311811
02560		9.653257	0.077558	-0.646850	0.164012	0.204100	-0.947868	112.008625	-74.564854	-155.089539
02561		9.845186	0.427450	-0.920578	0.268668	0.253784	-0.861460	111.018716	-74.161469	-153.904167
02562		9.809939	0.895083	-0.882064	0.356996	0.306787	-0.779205	110.087994	-73.801558	-152.725559
02563		9.691976	1.280102	-0.879472	0.437823	0.304769	-0.701880	109.303356	-73.484176	-151.648826
02564		9.706993	1.599439	-1.607246	0.549778	0.261050	-0.626280	108.740723	-73.190526	-150.735157
02565		9.436337	2.181522	-0.494511	0.700147	0.282890	-0.587920	108.273017	-72.924865	-149.829319
02566		9.313193	2.272829	-1.183393	0.478006	0.032560	-0.559020	108.153635	-72.623533	-149.419950
02567		9.605697	2.439696	-1.206193	0.570002	0.059135	-0.534846	108.063406	-72.345105	-148.985318
02568		9.404062	2.732688	-0.786242	0.529784	0.125076	-0.498785	107.867311	-72.092597	-148.462915
02569		9.251932	2.777812	-0.459690	0.411078	0.167265	-0.458663	107.563582	-71.873709	-147.898308
02570		9.162210	2.785638	-0.311017	0.255208	0.212395	-0.406314	107.134076	-71.685109	-147.294494
02571		9.036503	2.732263	-0.191514	0.081987	0.254745	-0.338812	106.578829	-71.543881	-146.662340
02572		9.027396	2.725543	-0.210123	-0.075339	0.271598	-0.276530	105.944804	-71.432765	-146.041586
02573		8.991596	2.650902	-0.227223	-0.216081	0.304621	-0.214052	105.211016	-71.363655	-145.400444
02574		8.824136	2.545475	-0.103845	-0.297098	0.327343	-0.161565	104.421283	-71.319615	-144.748946
02575		8.712909	2.457652	-0.097024	-0.349512	0.316662	-0.121799	103.638000	-71.297959	-144.135924
02576		8.746461	2.343035	-0.129500	-0.387038	0.309758	-0.091818	102.857728	-71.285024	-143.548659
02577		8.791114	2.282952	-0.206637	-0.415462	0.324308	-0.056336	102.050505	-71.295544	-142.950190
02578		8.776575	2.188523	-0.256705	-0.379024	0.355870	-0.024781	101.221578	-71.320512	-142.306787
02579		8.784159	2.194202	-0.291265	-0.315350	0.341782	0.019186	100.464253	-71.370013	-141.700634
02580		8.911543	2.208479	-0.407070	-0.232941	0.312797	0.058320	99.810897	-71.432378	-141.154512
02581		8.956678	2.341243	-0.428127	-0.137608	0.287850	0.101582	99.262145	-71.518883	-140.661389
02582		8.989330	2.405336	-0.500921	-0.021726	0.245187	0.139481	98.858096	-71.618030	-140.251008
02583		9.022698	2.499256	-0.536980	0.098566	0.202567	0.165416	98.598158	-71.731051	-139.920153
02584		8.970982	2.638996	-0.659348	0.174318	0.156505	0.181734	98.462422	-71.845585	-139.674481
02585		8.818901	2.626164	-0.726204	0.220412	0.124577	0.173748	98.403696	-71.956237	-139.482296
02586		8.683390	2.732072	-0.724172	0.267130	0.058973	0.148757	98.479577	-72.043863	-139.403478
02587		8.821643	2.838712	-0.821365	0.281827	0.015582	0.115935	98.630548	-72.112597	-139.394892
02588		8.960119	2.991398	-0.983929	0.281174	0.022784	0.094961	98.764604	-72.166760	-139.368767
02589		8.790831	3.100001	-1.002449	0.270534	0.032110	0.086424	98.872827	-72.220249	-139.322084
02590		8.895129	3.274241	-1.031438	0.242030	-0.045763	0.081395	99.103036	-72.260594	-139.420436
02591		9.196302	3.372713	-1.030437	0.261788	-0.050730	0.072588	99.349852	-72.298748	-139.524533
02592		9.027545	3.629950	-0.797453	0.329344	-0.042634	0.052311	99.617941	-72.322577	-139.610050
02593		8.845857	3.790987	-0.458819	0.281057	-0.090847	0.025162	99.933829	-72.329744	-139.775026
02594		8.923790	3.737729	-0.324357	0.213668	-0.135891	0.022871	100.292376	-72.327083	-140.025042
02595		8.937763	3.792130	-0.193098	0.156898	-0.151005	0.020534	100.642243	-72.324775	-140.300343
02596		8.970876	3.906442	-0.177990	0.090752	-0.125948	0.004062	100.905812	-72.311507	-140.524661
02597		8.944680	3.933294	-0.130029	0.080919	-0.151654	-0.034995	101.193602	-72.277053	-140.780545
02598		9.019201	4.146810	-0.109127	0.053887	-0.206507	-0.060720	101.552572	-72.217342	-141.127379
02599		9.214635	4.241754	-0.243131	-0.063117	-0.191797	-0.076180	101.810281	-72.154266	-141.438503
02600		9.268635	4.244143	-0.052536	-0.145163	-0.148605	-0.080893	101.942378	-72.088853	-141.667119
02601		9.408868	4.164336	-0.285931	-0.184756	-0.147952	-0.052319	102.060052	-72.043843	-141.904520
02602		9.223111	4.119306	-0.276848	-0.228708	-0.124706	-0.028230	102.119766	-72.010279	-142.107572
02603		8.969504	3.969815	-0.250157	-0.344122	-0.140995	-0.018884	102.145286	-71.984668	-142.344178
02604		9.021393	3.627964	-0.308184	-0.415676	-0.149262	-0.003058	102.148076	-71.961946	-142.600160
02605		9.150442	3.450352	-0.262069	-0.451686	-0.144827	0.004595	102.126672	-71.949020	-142.852290
02606		9.253917	3.194301	-0.280090	-0.473166	-0.133693	0.014765	102.075382	-71.938125	-143.086144
02607		9.247526	2.972353	-0.519774	-0.467197	-0.119692	0.036084	102.013313	-71.945975	-143.304868
02608		9.022804	2.745575	-0.657854	-0.424600	-0.114579	0.065533	101.975377	-71.965992	-143.523525
02609		8.792794	2.624149	-0.702034	-0.381897	-0.129273	0.098943	102.002234	-72.007998	-143.784309
02610		8.574130	2.512479	-0.732186	-0.315860	-0.170167	0.123884	102.145148	-72.054031	-144.127489
02611		8.619679	2.438084	-0.695450	-0.208181	-0.244834	0.154615	102.494836	-72.112606	-144.622812
02612		8.665931	2.235830	-0.586519	-0.096844	-0.293599	0.173147	103.000643	-72.169469	-145.215219
02613		8.707630	2.058754	-0.532427	0.033483	-0.338948	0.164014	103.662296	-72.218151	-145.892465
02614		8.919689	2.010724	-0.479176	0.174175	-0.378888	0.155204	104.470680	-72.249190	-146.639261
02615		9.020036	2.160272	-0.525080	0.322887	-0.408688	0.153270	105.420580	-72.275766	-147.444787
02616		9.033658	2.734661	-0.568866	0.392204	-0.396096	0.168789	106.395503	-72.304506	-148.235075
02617		8.821804	3.214565	-0.505883	0.372537	-0.382812	0.194224	107.356063	-72.349560	-149.021643
02618		8.668960	3.376637	-0.435567	0.310894	-0.409900	0.223025	108.344292	-72.397298	-149.874475
02619		8.509654	3.451832	-0.436180	0.300344	-0.418864	0.241935	109.362025	-72.453282	-150.763975
02620		8.493429	3.468738	-0.597428	0.348747	-0.446694	0.253645	110.463125	-72.500883	-151.712043
02621		8.483276	3.520473	-0.792006	0.371153	-0.457663	0.282605	111.625571	-72.560323	-152.710204
02622		8.749876	3.380350	-0.848804	0.391022	-0.501980	0.327330	112.906766	-72.623051	-153.821127
02623		9.081686	3.312694	-0.840806	0.441850	-0.531794	0.381360	114.322345	-72.703826	-155.041306
02624		9.595685	3.427457	-0.689769	0.447687	-0.590587	0.457719	115.904850	-72.795949	-156.432876
02625		10.096277	3.180929	-0.739008	0.468655	-0.566539	0.523698	117.538893	-72.920794	-157.864311
02626		10.243976	3.295712	-0.541404	0.560322	-0.504354	0.541943	119.152672	-73.055425	-159.219444
02627		10.460795	3.471687	-0.258475	0.559338	-0.447040	0.531201	120.693862	-73.194394	-160.497520
02628		11.060531	3.514359	-0.388624	0.604344	-0.405248	0.505775	122.179085	-73.319434	-161.690305
02629		11.156717	3.712608	-0.741030	0.753173	-0.292801	0.462509	123.553653	-73.454066	-162.676849
02630		10.794740	4.083821	-0.993370	0.766138	-0.205762	0.397428	124.730569	-73.575533	-163.449996
02631		10.170763	4.253351	-1.011611	0.585890	-0.171359	0.343202	125.714414	-73.682741	-164.127972
02632		9.930813	4.180647	-0.884564	0.296924	-0.164535	0.300621	126.467688	-73.765546	-164.739170
02633		9.909708	3.873643	-0.665757	0.030801	-0.108554	0.283565	126.981020	-73.861839	-165.257746
02634		9.905893	3.434171	-0.864391	-0.132139	-0.089072	0.294951	127.373165	-73.964760	-165.748523
02635		9.879846	2.841188	-1.485115	-0.117098	-0.153894	0.323721	127.934535	-74.061041	-166.404698
02636		9.930168	2.479405	-1.881525	0.013573	-0.214435	0.366173	128.709186	-74.148678	-167.205996
02637		9.875766	2.373395	-2.028029	0.122094	-0.265307	0.391187	129.684915	-74.229673	-168.149812
02638		9.896841	2.304043	-1.904214	0.156142	-0.295420	0.394181	130.721836	-74.292334	-169.138114
02639		9.837918	2.238916	-1.978402	0.167737	-0.328926	0.363079	131.800613	-74.327867	-170.161240
02640		9.932912	2.311330	-1.806471	0.140715	-0.345628	0.333770	132.833795	-74.335624	-171.154511
02641		10.317557	2.531925	-1.741515	0.066115	-0.361383	0.336684	133.871257	-74.337273	-172.195068
02642		10.733634	2.461106	-1.976267	-0.101525	-0.388080	0.373555	134.885009	-74.334682	-173.312337
02643		11.299511	2.285291	-2.428780	-0.183719	-0.416896	0.441882	136.011956	-74.345675	-174.594470
02644		11.539356	2.234973	-2.346456	-0.244286	-0.383394	0.510374	137.141900	-74.387392	-175.917196
02645		11.193725	1.868859	-1.813571	-0.494856	-0.230000	0.530605	137.974950	-74.498970	-177.078661
02646		10.364583	0.947773	-1.533554	-0.738097	-0.038069	0.510666	138.366752	-74.678479	-177.927783
02647		9.421568	0.076524	-1.668714	-0.824514	0.039185	0.499767	138.619318	-74.888750	-178.681520
02648		8.909003	-0.410222	-1.996359	-0.779744	0.010615	0.521549	138.967245	-75.091336	-179.508223
02649		8.699652	-0.536982	-2.043915	-0.658834	-0.032801	0.588618	139.594656	-75.300821	179.449968
02650		8.472055	-0.537782	-1.985283	-0.467988	-0.073500	0.707764	140.598524	-75.530367	178.131845
02651		8.309137	-0.468489	-1.970063	-0.253419	-0.138104	0.806588	142.048091	-75.761191	176.483289
02652		8.378403	-0.272587	-2.190885	-0.060668	-0.204299	0.882765	143.871206	-75.974769	174.563834
02653		8.782250	-0.065076	-2.486610	0.040651	-0.268928	0.910030	145.963356	-76.152253	172.429838
02654		9.085205	0.121237	-2.718709	0.054001	-0.282953	0.896285	148.088011	-76.298577	170.270669
02655		9.275190	0.196705	-2.771733	0.014196	-0.267010	0.851697	150.139155	-76.421755	168.165980
02656		9.345192	0.129265	-2.725531	-0.049291	-0.247501	0.792741	152.026940	-76.520383	166.191925
02657		9.308150	0.041060	-2.591371	-0.154031	-0.217119	0.738776	153.747641	-76.606578	164.329671
02658		9.291560	-0.228556	-2.398300	-0.289146	-0.202606	0.697672	155.292736	-76.677103	162.568087
02659		9.394503	-0.523473	-2.311567	-0.304419	-0.203624	0.686393	156.835367	-76.734073	160.801363
02660		9.502609	-0.718285	-2.296409	-0.194698	-0.217814	0.696111	158.475758	-76.773911	158.998392
02661		9.573247	-0.736145	-2.238687	-0.048041	-0.214138	0.703752	160.236408	-76.805324	157.159220
02662		9.515309	-0.765576	-2.155867	0.121798	-0.204955	0.702822	162.081268	-76.828161	155.333069
02663		9.364004	-0.698771	-2.256322	0.299560	-0.195691	0.695385	164.019562	-76.841138	153.516334
02664		9.134742	-0.455586	-2.448547	0.437114	-0.187257	0.677951	165.982811	-76.842186	151.754425
02665		8.940623	-0.214307	-2.521804	0.486543	-0.201297	0.664577	167.956965	-76.819737	150.010860
02666		8.844516	-0.142662	-2.603052	0.472005	-0.238525	0.652375	169.893612	-76.761604	148.296518
02667		9.020768	-0.209955	-2.556433	0.442655	-0.288098	0.653935	171.824501	-76.662186	146.570719
02668		9.235040	-0.366884	-2.739808	0.425462	-0.322801	0.647233	173.703381	-76.529551	144.887021
02669		9.458850	-0.439355	-2.793731	0.412854	-0.325519	0.625094	175.493882	-76.381571	143.286219
02670		9.554687	-0.480981	-2.681544	0.389615	-0.285205	0.584625	177.128471	-76.244093	141.830860
02671		9.632337	-0.452810	-2.578816	0.347193	-0.221885	0.528507	178.579410	-76.132334	140.539168
02672		9.685109	-0.255023	-2.531630	0.274075	-0.149618	0.470740	179.827654	-76.054354	139.412292
02673		9.664064	-0.045626	-2.432166	0.173148	-0.086289	0.426799	-179.088999	-76.007239	138.395755
02674		9.596895	0.089107	-2.464744	0.090731	-0.060901	0.389611	-178.148019	-75.970936	137.476798
02675		9.514807	0.124278	-2.535597	-0.002263	-0.038872	0.350750	-177.347049	-75.944643	136.647413
02676		9.507093	-0.027995	-2.661831	-0.068155	-0.027569	0.329486	-176.638674	-75.922897	135.874169
02677		9.552091	-0.145248	-2.628487	-0.089623	-0.027236	0.308421	-175.988123	-75.899788	135.148093
02678		9.712463	-0.281803	-2.678671	-0.050379	-0.023421	0.278863	-175.388563	-75.878255	134.497402
02679		9.804866	-0.121864	-2.889921	0.019042	-0.004763	0.213877	-174.889872	-75.868950	133.992002
02680		9.762863	0.060241	-3.349130	0.075685	0.011258	0.140658	-174.526413	-75.871709	133.659214
02681		9.573457	0.260681	-3.636878	0.051659	0.073255	0.069100	-174.320064	-75.913414	133.474559
02682		9.403748	0.153471	-3.369917	-0.113830	0.108278	0.038593	-174.274184	-75.976450	133.357309
02683		9.446719	-0.393416	-3.068472	-0.270440	0.100805	0.049847	-174.288194	-76.034849	133.209651
02684		9.493642	-0.838394	-2.989995	-0.334298	0.093373	0.072991	-174.292186	-76.087213	133.013699
02685		9.462459	-0.919560	-2.901710	-0.358922	0.087170	0.095538	-174.253533	-76.135221	132.759636
02686		9.382429	-0.880774	-2.784778	-0.434865	0.061825	0.110966	-174.232531	-76.167223	132.478726
02687		9.275263	-0.982157	-2.607894	-0.558102	0.030460	0.128598	-174.243391	-76.180964	132.158195
02688		9.274038	-1.161863	-2.324868	-0.615146	-0.005524	0.165021	-174.214928	-76.171341	131.763310
02689		9.428802	-0.632700	-2.037965	-0.556151	-0.037565	0.236014	-173.992808	-76.139811	131.203955
02690		9.384553	-1.211872	-1.995457	-0.689869	-0.031270	0.341584	-173.607661	-76.103921	130.397511
02691		9.499264	-1.662876	-1.745915	-0.604849	-0.049083	0.379550	-173.091772	-76.054551	129.506566
02692		9.037934	-2.370725	-2.660265	-0.522837	0.053504	0.309048	-172.665879	-76.066157	128.756606
02693		8.881395	-2.227722	-3.534788	0.135411	-0.062443	0.210360	-172.122343	-76.018465	128.274073
02694		9.189642	-1.734742	-3.399654	0.354030	-0.104960	0.174906	-171.551861	-75.947537	127.892800
02695		9.230259	-1.332095	-2.957230	0.351600	-0.108712	0.177483	-170.983053	-75.874222	127.511642
02696		9.049350	-1.269685	-2.722968	0.201003	-0.094058	0.184415	-170.483193	-75.806557	127.112623
02697		9.113224	-1.091438	-2.708788	0.258552	-0.126026	0.193499	-169.948055	-75.720216	126.710953
02698		9.215348	-0.915397	-2.347266	0.241680	-0.098574	0.188450	-169.426358	-75.647691	126.313226
02699		9.337290	-1.007925	-2.113265	0.236059	-0.068331	0.168003	-168.946010	-75.594800	125.954560
02700		9.359990	-1.176865	-2.075652	0.290650	-0.043181	0.141416	-168.482159	-75.557032	125.645370
02701		9.308967	-1.222669	-2.162249	0.354900	-0.031377	0.095512	-168.080007	-75.531908	125.437650
02702		9.155113	-1.161966	-2.332886	0.350894	-0.031435	0.045994	-167.785666	-75.511145	125.339149
02703		9.000762	-1.221543	-2.484499	0.345194	-0.048666	0.019462	-167.563542	-75.485097	125.311593
02704		9.014059	-1.369430	-2.836593	0.435753	-0.128595	0.013822	-167.337010	-75.413751	125.333395
02705		9.171312	-1.472549	-3.114010	0.552776	-0.187371	0.038092	-167.024730	-75.307786	125.335568
02706		9.317700	-1.567190	-2.950111	0.633786	-0.195887	0.053241	-166.636461	-75.193633	125.307534
02707		9.393688	-1.605695	-2.684996	0.729317	-0.143820	0.056505	-166.167626	-75.109458	125.252391
02708		9.249505	-1.523892	-2.285855	0.874347	-0.105155	0.040611	-165.626736	-75.047263	125.209098
02709		9.237797	-1.376415	-2.159513	1.030060	-0.134492	0.017428	-165.067762	-74.973677	125.238986
02710		9.465380	-1.171507	-2.200753	1.138327	-0.177569	0.009893	-164.483208	-74.875899	125.307142
02711		9.704208	-0.997103	-2.371974	1.136389	-0.174823	0.019222	-163.888017	-74.779971	125.362654
02712		9.704032	-0.731646	-2.591912	0.993233	-0.135515	0.025797	-163.335598	-74.703195	125.378035
02713		9.558648	-0.461957	-2.800434	0.768408	-0.098078	0.034363	-162.880345	-74.647110	125.360073
02714		9.448723	-0.293285	-2.953650	0.568994	-0.109685	0.029232	-162.552599	-74.583967	125.356366
02715		9.522395	-0.203610	-3.042899	0.456230	-0.126479	0.024688	-162.315634	-74.513989	125.379296
02716		9.533193	-0.199630	-2.998449	0.393673	-0.107422	0.027941	-162.092158	-74.452257	125.379505
02717		9.468521	-0.311048	-2.780431	0.365568	-0.077420	0.030512	-161.866357	-74.408028	125.360113
02718		9.501570	-0.482718	-2.474588	0.347316	-0.048339	0.042674	-161.605194	-74.375784	125.293569
02719		9.518141	-0.579091	-2.276304	0.325581	-0.043725	0.055013	-161.334336	-74.345355	125.203589
02720		9.578021	-0.550685	-2.255442	0.294012	-0.043707	0.059789	-161.069165	-74.312384	125.101116
02721		9.540162	-0.542744	-2.222956	0.270483	-0.045526	0.063770	-160.815583	-74.279118	124.996259
02722		9.414814	-0.513898	-2.174201	0.269632	-0.036658	0.056401	-160.567824	-74.250474	124.897306
02723		9.337457	-0.548301	-2.191325	0.225981	-0.047834	0.060848	-160.348314	-74.216284	124.801327
02724		9.340646	-0.693592	-2.332231	0.153469	-0.059032	0.074653	-160.149110	-74.171955	124.683602
02725		9.362781	-0.787141	-2.619214	0.089376	-0.043288	0.085317	-159.959649	-74.135247	124.537461
02726		9.373478	-0.926003	-2.686355	0.038854	-0.030671	0.093823	-159.771984	-74.102216	124.363397
02727		9.280473	-0.980729	-2.757592	0.062345	-0.042531	0.104903	-159.562126	-74.061747	124.179888
02728		9.253303	-0.850349	-2.820673	0.096101	-0.061111	0.111890	-159.331035	-74.008369	123.994695
02729		9.301126	-0.651925	-2.899905	0.109547	-0.075822	0.123111	-159.086097	-73.945963	123.802730
02730		9.371283	-0.508166	-2.754972	0.085084	-0.052866	0.135336	-158.815213	-73.891682	123.569424
02731		9.455385	-0.501713	-2.580995	0.047661	-0.028253	0.149474	-158.526125	-73.848675	123.294485
02732		9.381075	-0.601705	-2.386522	0.017264	-0.025224	0.152031	-158.246984	-73.804992	123.011972
02733		9.239301	-0.675281	-2.293990	-0.010664	-0.034343	0.158942	-157.981470	-73.755986	122.726657
02734		9.161892	-0.804891	-2.255592	-0.043935	-0.074526	0.161561	-157.760020	-73.683458	122.467532
02735		9.320583	-0.898950	-2.168886	-0.075685	-0.100620	0.174587	-157.556520	-73.595288	122.207816
02736		9.472262	-1.051399	-2.259319	-0.071411	-0.104464	0.185309	-157.335177	-73.501257	121.932146
02737		9.532814	-1.125363	-2.320511	-0.032458	-0.077164	0.198344	-157.052380	-73.419610	121.615307
02738		9.512869	-1.118108	-2.409922	0.003639	-0.062666	0.199781	-156.736766	-73.343687	121.285894
02739		9.565689	-1.116712	-2.506256	0.047991	-0.057756	0.207784	-156.382574	-73.269097	120.942386
02740		9.593119	-1.140042	-2.596205	0.098521	-0.044405	0.210200	-155.986507	-73.199223	120.585467
02741		9.548068	-1.160279	-2.676204	0.162248	-0.038488	0.206694	-155.560072	-73.133609	120.234625
02742		9.438539	-0.984766	-2.790214	0.207950	-0.048478	0.202367	-155.124305	-73.061999	119.901478
02743		9.280013	-0.769875	-2.861303	0.224918	-0.044900	0.201638	-154.681883	-72.992752	119.571205
02744		9.104213	-0.560125	-2.592252	0.226892	-0.036693	0.198348	-154.239244	-72.926742	119.241944
02745		8.981334	-0.446918	-2.379040	0.182015	-0.051299	0.198160	-153.838556	-72.853625	118.929375
02746		9.203296	-0.372832	-2.355512	0.082787	-0.078585	0.196093	-153.522985	-72.765456	118.646376
02747		9.484027	-0.383667	-2.406423	0.011837	-0.060830	0.211424	-153.211654	-72.682977	118.324993
02748		9.426315	-0.383087	-2.479826	-0.029063	-0.027813	0.227926	-152.872366	-72.611692	117.949688
02749		9.216767	-0.383923	-2.516112	-0.122436	-0.031273	0.247087	-152.561223	-72.533819	117.547604
02750		9.222294	-0.591767	-2.595150	-0.231923	-0.062748	0.266180	-152.312543	-72.433599	117.145023
02751		9.578615	-0.837881	-2.794371	-0.265385	-0.094994	0.281787	-152.088388	-72.313077	116.747831
02752		9.873599	-1.143655	-2.966993	-0.259880	-0.077914	0.287751	-151.842721	-72.198455	116.331032
02753		9.803295	-1.400891	-2.922641	-0.214319	-0.045165	0.292951	-151.538206	-72.098968	115.879654
02754		9.570610	-1.556717	-2.797919	-0.134707	-0.039116	0.291165	-151.191417	-72.001596	115.431443
02755		9.348592	-1.619326	-2.788799	-0.025401	-0.058036	0.292454	-150.799235	-71.894127	115.001194
02756		9.287787	-1.573328	-2.760827	0.062897	-0.080496	0.290931	-150.384479	-71.774291	114.600060
02757		9.441260	-1.644645	-2.702517	0.144701	-0.085028	0.282053	-149.944114	-71.654449	114.221133
02758		6.527696	-1.487644	-2.085542	0.218537	-0.654994	-0.017495	-150.397501	-71.336029	114.828724
02759		10.280883	-1.276579	-2.711439	-0.063253	-0.749887	0.149891	-150.825461	-70.922362	115.240222
02760		10.178862	-1.777627	-3.100530	0.150194	-0.482776	0.150285	-150.905182	-70.641045	115.413218
02761		10.122476	-1.156818	-3.001262	0.137386	-0.390922	0.191346	-150.857941	-70.394877	115.444128
02762		10.053068	-1.347431	-3.175861	0.128048	-0.284030	0.232733	-150.677096	-70.190007	115.327370
02763		9.956720	-1.208897	-3.073094	0.238616	-0.169451	0.269898	-150.294850	-70.032171	115.063784
02764		9.899208	-1.066102	-3.064738	0.286632	-0.064752	0.312524	-149.751758	-69.912857	114.657896
02765		10.354993	-1.479041	-3.776863	0.436431	0.137482	0.364791	-148.895011	-69.876745	114.009350
02766		10.009970	-1.182008	-3.174139	0.870903	0.516119	0.391095	-147.443304	-70.012047	112.992442
02767		9.596148	-1.235024	-2.794580	0.701023	0.617586	0.470514	-145.876791	-70.162139	111.751037
02768		8.951991	-1.173024	-2.368052	0.796735	0.632330	0.467062	-144.228189	-70.308018	110.481568
02769		7.884026	-0.821183	-2.102794	0.616642	0.293793	0.407884	-143.063452	-70.307522	109.617261
02770		8.364942	-0.710273	-2.532003	0.465812	-0.002600	0.398832	-142.289206	-70.170010	109.075366
02771		9.098459	-0.957702	-2.824702	0.405020	0.017484	0.404605	-141.529123	-70.037247	108.511341
02772		9.129915	-0.782664	-2.628065	0.407014	0.054794	0.410288	-140.736104	-69.916445	107.912624
02773		9.449974	-0.379599	-2.630458	0.330678	0.014979	0.429272	-140.008803	-69.768462	107.337208
02774		9.756399	-0.195275	-2.812553	0.176549	0.022612	0.451989	-139.348655	-69.613190	106.738157
02775		9.603013	-0.303444	-2.819258	-0.003266	0.052834	0.458395	-138.758777	-69.466130	106.104073
02776		9.353059	-0.430071	-2.758713	-0.178266	0.038473	0.469318	-138.284609	-69.307204	105.485182
02777		9.320032	-0.713041	-2.713067	-0.360601	-0.010262	0.471179	-137.965135	-69.124763	104.919983
02778		9.546590	-1.033752	-2.774314	-0.524727	-0.046582	0.458026	-137.803510	-68.931858	104.421615
02779		9.846344	-1.530887	-2.955841	-0.615374	-0.048118	0.436431	-137.719065	-68.745474	103.950482
02780		9.857632	-1.982895	-3.146709	-0.619853	-0.028639	0.406661	-137.660856	-68.579555	103.503303
02781		9.618927	-2.438207	-3.236882	-0.577035	-0.019230	0.374912	-137.600833	-68.428766	103.080951
02782		9.474809	-2.816400	-3.146840	-0.525262	-0.043239	0.337331	-137.583956	-68.283194	102.735565
02783		9.564176	-3.165963	-3.157613	-0.455141	-0.073134	0.301906	-137.589578	-68.137697	102.458263
02784		9.765797	-3.550714	-3.143017	-0.351629	-0.071779	0.270176	-137.575672	-68.005880	102.222658
02785		9.894812	-3.701486	-3.217698	-0.165162	-0.056040	0.236764	-137.470546	-67.892698	102.004617
02786		9.825255	-3.673783	-3.061262	0.039859	-0.012895	0.204716	-137.247242	-67.810591	101.784805
02787		9.627388	-3.612287	-2.801864	0.244357	0.027817	0.176613	-136.893010	-67.755417	101.550878
02788		9.383576	-3.479284	-2.631030	0.414009	0.062168	0.161171	-136.430703	-67.720561	101.304351
02789		9.136016	-3.294623	-2.516101	0.552678	0.075507	0.136971	-135.896559	-67.699436	101.066781
02790		9.117765	-2.961009	-2.447816	0.694851	0.089465	0.106640	-135.302716	-67.695781	100.852008
02791		9.006352	-2.580102	-2.483819	0.805274	0.146916	0.067938	-134.622505	-67.729670	100.612994
02792		8.738211	-2.176986	-2.423572	0.876792	0.189503	0.032782	-133.895699	-67.794393	100.367326
02793		8.529744	-1.860972	-2.274665	0.898413	0.189662	0.003746	-133.177406	-67.869548	100.145018
02794		8.483970	-1.595928	-2.214749	0.887838	0.195001	-0.026567	-132.490054	-67.959073	99.949006
02795		8.456169	-1.303991	-2.198739	0.831513	0.208462	-0.048175	-131.833514	-68.061476	99.752238
02796		8.439081	-1.013651	-2.156623	0.723879	0.189809	-0.059705	-131.270581	-68.161711	99.589293
02797		8.521501	-0.872084	-2.195053	0.594061	0.160532	-0.074327	-130.819714	-68.255926	99.467780
02798		8.704892	-0.740772	-2.200084	0.458425	0.142861	-0.079598	-130.473953	-68.346539	99.375006
02799		8.821293	-0.775596	-2.154053	0.304772	0.119539	-0.090516	-130.245302	-68.432066	99.314379
02800		8.941979	-0.992171	-2.063028	0.170193	0.090137	-0.097679	-130.138184	-68.511098	99.300623
02801		9.034727	-1.362406	-1.984716	0.071907	0.076876	-0.106031	-130.103737	-68.587577	99.305370
02802		9.053249	-1.805718	-1.985712	-0.021263	0.044962	-0.122732	-130.180626	-68.661137	99.371361
02803		9.094855	-2.270655	-1.964208	-0.080753	0.026315	-0.137314	-130.320524	-68.732574	99.469350
02804		9.141388	-2.658214	-1.992599	-0.107337	0.009452	-0.163974	-130.527476	-68.810935	99.621889
02805		9.143542	-2.977812	-2.128262	-0.127499	0.003865	-0.198282	-130.780282	-68.900241	99.812115
02806		9.251634	-3.445005	-2.243175	-0.099406	0.031357	-0.241131	-131.036154	-69.019755	100.021778
02807		9.433620	-3.679134	-2.401112	-0.009993	0.091306	-0.270628	-131.198306	-69.172677	100.186726
02808		9.476928	-3.649639	-2.343537	0.048556	0.149861	-0.296769	-131.294655	-69.360332	100.316113
02809		9.409282	-3.586148	-2.219472	0.125648	0.200000	-0.324576	-131.313035	-69.577388	100.410118
02810		9.205199	-3.340682	-1.895313	0.219929	0.230227	-0.347515	-131.272277	-69.817081	100.497732
02811		9.112922	-3.126291	-1.626751	0.283155	0.239900	-0.385244	-131.217775	-70.075379	100.609933
02812		9.105652	-2.868465	-1.414156	0.333704	0.296538	-0.425900	-131.114861	-70.373884	100.700562
02813		9.016304	-2.604779	-1.171131	0.351658	0.364013	-0.446195	-130.934829	-70.705350	100.720838
02814		8.940117	-2.469126	-1.053788	0.291760	0.392967	-0.455352	-130.765069	-71.052958	100.714998
02815		8.953223	-2.580576	-1.009982	0.137446	0.379071	-0.465595	-130.705707	-71.398507	100.733010
02816		9.121193	-3.113134	-1.019758	0.020501	0.397281	-0.461843	-130.689397	-71.750615	100.725191
02817		9.224241	-3.696774	-1.210865	0.025827	0.413480	-0.445867	-130.624857	-72.100442	100.670411
02818		9.323991	-3.875502	-1.595552	0.006806	0.397946	-0.405407	-130.546260	-72.428161	100.589102
02819		9.362749	-3.869448	-2.053346	0.012954	0.390034	-0.361186	-130.415754	-72.732308	100.457655
02820		9.233540	-3.697747	-2.336969	0.092561	0.403130	-0.326568	-130.176649	-73.027117	100.260188
02821		8.986121	-3.470183	-2.363418	0.184554	0.403797	-0.303875	-129.845160	-73.310851	100.021899
02822		8.915232	-3.205262	-2.221185	0.285474	0.367080	-0.286201	-129.481213	-73.573703	99.810157
02823		9.072245	-2.936504	-2.089409	0.377857	0.345272	-0.277143	-129.074329	-73.823446	99.609362
02824		9.121584	-2.719705	-1.915158	0.431698	0.340113	-0.276594	-128.636588	-74.071212	99.408600
02825		9.160845	-2.393435	-1.713382	0.471105	0.348842	-0.292644	-128.170214	-74.328296	99.202010
02826		9.142126	-2.117860	-1.448435	0.486799	0.350482	-0.309727	-127.704913	-74.593650	99.005947
02827		9.048171	-1.768359	-1.181212	0.449176	0.354228	-0.332001	-127.270097	-74.869574	98.819578
02828		8.987464	-1.382387	-0.944313	0.364196	0.350199	-0.375060	-126.938010	-75.163914	98.689229
02829		8.969316	-1.007774	-0.760777	0.219990	0.342723	-0.417910	-126.747924	-75.474707	98.620613
02830		9.001215	-0.709669	-0.722705	0.041806	0.344104	-0.466545	-126.720758	-75.808915	98.614711
02831		9.035010	-0.704035	-0.700426	-0.140371	0.350471	-0.519255	-126.857775	-76.168852	98.670628
02832		9.212587	-0.797863	-0.700115	-0.285632	0.362177	-0.575000	-127.144487	-76.559168	98.794654
02833		9.315946	-0.980245	-0.792398	-0.364473	0.368342	-0.634376	-127.563910	-76.977598	99.008591
02834		9.435379	-1.041072	-0.936045	-0.385243	0.365975	-0.701402	-128.129275	-77.426167	99.359401
02835		9.504924	-1.046659	-1.047441	-0.355185	0.360180	-0.775862	-128.844281	-77.904095	99.880591
02836		9.621364	-0.981888	-1.007163	-0.260380	0.326580	-0.846420	-129.754771	-78.400682	100.655852
02837		9.761920	-0.901960	-0.921199	-0.178026	0.274727	-0.903064	-130.911134	-78.898661	101.728851
02838		9.903216	-0.786220	-0.819224	-0.163636	0.240417	-0.954016	-132.348940	-79.401785	103.094740
02839		9.847353	-0.714839	-0.908887	-0.201199	0.217621	-1.007769	-134.115797	-79.909774	104.771210
02840		9.823594	-0.646828	-0.991261	-0.249956	0.190115	-1.055458	-136.277203	-80.416606	106.816869
02841		9.738583	-0.733085	-1.178473	-0.287434	0.152021	-1.101177	-138.898989	-80.908673	109.304560
02842		9.708531	-0.783719	-1.451717	-0.284280	0.095950	-1.141251	-142.060248	-81.370974	112.336478
02843		9.741191	-0.829832	-1.513740	-0.300050	0.050192	-1.177994	-145.785251	-81.794361	115.925843
02844		9.920542	-0.958138	-1.510607	-0.329765	0.016040	-1.218050	-150.130714	-82.176531	120.120666
02845		10.250988	-1.076202	-1.507718	-0.336504	0.003303	-1.271033	-155.112138	-82.516352	124.949901
02846		10.660031	-1.222706	-1.470085	-0.273797	0.032447	-1.330197	-160.699252	-82.824651	130.422164
02847		10.842869	-1.246736	-1.391041	-0.162396	0.037921	-1.368202	-166.813410	-83.068563	136.486737
02848		10.816097	-1.202874	-1.422624	-0.016234	-0.018663	-1.389985	-173.354518	-83.199565	143.063020
02849		10.711466	-1.124123	-1.370615	0.126533	-0.110982	-1.385088	-179.944760	-83.186277	149.770601
02850		10.585195	-0.961020	-1.460737	0.250430	-0.219107	-1.375589	173.740219	-83.022186	156.273495
02851		10.438942	-0.788402	-1.679063	0.349007	-0.292816	-1.341103	168.076925	-82.738776	162.179865
02852		10.248377	-0.440578	-1.658177	0.371033	-0.350107	-1.310763	163.098811	-82.361233	167.412130
02853		10.081928	-0.316524	-1.567593	0.319359	-0.396793	-1.262090	158.862700	-81.914377	171.870723
02854		10.146369	-0.032279	-1.371552	0.246596	-0.401717	-1.208531	155.248295	-81.436118	175.663835
02855		10.328742	0.145078	-1.117888	0.115917	-0.365794	-1.156711	152.072511	-80.958058	178.942269
02856		10.496743	0.254200	-0.947315	-0.055668	-0.314176	-1.112720	149.167593	-80.492099	-178.149202
02857		10.487222	0.342615	-0.904355	-0.222732	-0.243432	-1.085384	146.396484	-80.046348	-175.469526
02858		10.199061	0.465135	-0.941403	-0.353545	-0.151423	-1.085626	143.616698	-79.622268	-172.853755
02859		9.745674	0.669014	-0.890330	-0.458559	-0.092904	-1.099855	140.853288	-79.197949	-170.312160
02860		9.352778	0.879438	-0.866386	-0.538254	-0.072485	-1.117369	138.170200	-78.754361	-167.895390
02861		9.272294	0.961493	-0.939496	-0.586895	-0.068813	-1.124723	135.637728	-78.288842	-165.656780
02862		9.374419	1.005315	-1.023762	-0.587660	-0.061226	-1.120279	133.280854	-77.809740	-163.594440
02863		9.615755	0.885429	-1.075517	-0.560853	-0.043672	-1.094966	131.119493	-77.331590	-161.712682
02864		9.813036	0.863791	-1.094978	-0.501186	-0.018449	-1.062953	129.139586	-76.862673	-159.978674
02865		9.971716	0.905442	-0.974036	-0.445497	0.047634	-1.028391	127.247475	-76.419736	-158.298715
02866		9.873124	0.967417	-0.760924	-0.434268	0.123865	-1.000130	125.368490	-76.003536	-156.622766
02867		9.701499	0.801374	-0.743868	-0.445382	0.171138	-0.978891	123.527216	-75.599610	-154.989127
02868		9.654363	0.746004	-0.860300	-0.330543	0.189352	-0.952652	121.841024	-75.202397	-153.444983
02869		9.681735	0.841132	-0.829477	-0.230984	0.206625	-0.914998	120.306764	-74.817449	-151.996113
02870		9.600367	0.982517	-0.877505	-0.149085	0.180384	-0.880118	118.973268	-74.433979	-150.704311
02871		9.590880	1.206868	-0.838341	-0.090461	0.137397	-0.845206	117.846996	-74.048343	-149.590343
02872		9.538884	1.523905	-0.825159	-0.038507	0.123209	-0.821097	116.847461	-73.666703	-148.575348
02873		9.394030	1.767900	-0.792965	0.035041	0.133167	-0.802579	115.935555	-73.291455	-147.605675
02874		9.131175	2.095705	-0.838492	0.101463	0.124608	-0.782854	115.130950	-72.921350	-146.706645
02875		8.959052	2.421125	-0.965034	0.129502	0.084456	-0.760620	114.463495	-72.548700	-145.932447
02876		8.969579	2.727772	-1.108307	0.124835	0.017052	-0.731404	113.952697	-72.174321	-145.324048
02877		9.114077	3.009146	-1.220615	0.086364	-0.044602	-0.700486	113.564925	-71.799316	-144.866715
02878		9.343055	3.222677	-1.411287	0.020021	-0.061221	-0.655784	113.210793	-71.444255	-144.484142
02879		9.362798	3.341257	-1.585791	-0.055819	-0.058123	-0.602923	112.858737	-71.115906	-144.148657
02880		9.381695	3.320031	-1.615746	-0.148872	-0.046793	-0.562515	112.471957	-70.811754	-143.832427
02881		9.297844	3.218717	-1.365912	-0.231151	0.002768	-0.535409	111.993005	-70.530936	-143.467694
02882		9.168433	3.190947	-1.114800	-0.303136	0.040020	-0.501382	111.447908	-70.276001	-143.076146
02883		9.043264	3.091833	-0.950008	-0.399497	0.046089	-0.449954	110.881465	-70.047604	-142.719785
02884		8.865765	2.999033	-0.911083	-0.506724	0.052087	-0.399005	110.281460	-69.847439	-142.392857
02885		8.687364	2.934933	-0.938442	-0.599415	0.082330	-0.361221	109.615035	-69.671400	-142.051104
02886		8.525158	2.975663	-1.195236	-0.640101	0.083959	-0.319972	108.950485	-69.517533	-141.736119
02887		8.441066	2.992044	-1.329028	-0.652024	0.071640	-0.275320	108.327422	-69.383518	-141.472180
02888		8.443809	2.968657	-1.183642	-0.602937	0.080667	-0.223906	107.747297	-69.279038	-141.224110
02889		8.389050	3.044097	-0.914099	-0.586285	0.061242	-0.174368	107.232644	-69.196569	-141.035459
02890		8.438218	3.098578	-0.850744	-0.629265	0.000686	-0.129065	106.801411	-69.129092	-140.962558
02891		8.701719	3.173798	-0.840589	-0.605273	-0.012844	-0.111765	106.413871	-69.067843	-140.921443
02892		8.889769	3.231295	-0.583669	-0.494945	-0.016546	-0.110823	106.094767	-69.007295	-140.886151
02893		9.168681	3.448100	-0.538090	-0.418336	-0.045184	-0.110013	105.863395	-68.941753	-140.897563
02894		9.473303	3.596070	-0.592848	-0.490951	-0.049079	-0.102846	105.597812	-68.880450	-140.917183
02895		9.432591	3.562445	-0.836481	-0.625105	0.010770	-0.097253	105.174752	-68.830509	-140.850101
02896		9.061220	3.535748	-0.902509	-0.636977	0.045196	-0.106599	104.691486	-68.781150	-140.726019
02897		8.599007	3.549279	-0.479399	-0.618224	0.011370	-0.112510	104.268266	-68.722454	-140.654488
02898		8.298348	3.325276	-0.318754	-0.673661	-0.065682	-0.087424	103.931286	-68.667595	-140.709909
02899		8.446447	3.014939	-0.482729	-0.650336	-0.148381	-0.040239	103.744377	-68.626927	-140.911810
02900		8.564516	2.935637	-0.515027	-0.633681	-0.155131	0.017440	103.594523	-68.618505	-141.143638
02901		8.717705	2.896238	-0.677380	-0.651897	-0.148279	0.080669	103.448396	-68.645613	-141.390312
02902		8.738207	2.733519	-0.590157	-0.515079	-0.158574	0.127220	103.409462	-68.698335	-141.668187
02903		8.686664	2.623710	-0.196990	-0.363267	-0.182831	0.153989	103.504366	-68.761792	-141.995885
02904		8.651508	2.346062	-0.175628	-0.276856	-0.197623	0.173656	103.676110	-68.834947	-142.353100
02905		8.649306	2.076656	-0.327292	-0.176272	-0.192449	0.198057	103.910898	-68.920912	-142.715573
02906		8.512128	2.065408	-0.537971	-0.048732	-0.195286	0.226436	104.233606	-69.022819	-143.094080
02907		8.441802	2.152259	-0.666091	0.080788	-0.224875	0.263419	104.693415	-69.138874	-143.539281
02908		8.411262	2.294161	-0.838437	0.244757	-0.263897	0.316715	105.328389	-69.278484	-144.071312
02909		8.277713	2.509720	-1.015614	0.405164	-0.295375	0.374099	106.135787	-69.441080	-144.688518
02910		8.223816	2.739135	-0.985236	0.534208	-0.350413	0.424664	107.130357	-69.620440	-145.426190
02911		8.274275	2.940726	-1.049258	0.633686	-0.404811	0.483144	108.307809	-69.815829	-146.296880
02912		8.297581	3.204668	-1.051786	0.715916	-0.432917	0.546109	109.624966	-70.034968	-147.265245
02913		8.213031	3.362532	-0.934412	0.766469	-0.460677	0.608203	111.074145	-70.272355	-148.341521
02914		8.684823	3.317558	-0.494851	0.696881	-0.504745	0.690897	112.628244	-70.536083	-149.570041
02915		10.008309	3.387672	-0.311403	0.605240	-0.557155	0.801351	114.321009	-70.832695	-150.998771
02916		11.155129	3.728710	-1.017049	0.560002	-0.550341	0.930407	116.117555	-71.184791	-152.562135
02917		11.485972	4.146137	-1.877772	0.664232	-0.477209	0.961381	117.952120	-71.553988	-154.098971
02918		11.716430	4.560698	-1.991190	0.787182	-0.461744	0.880733	119.828766	-71.872317	-155.603140
02919		12.358922	5.076482	-1.416987	0.748047	-0.461424	0.725912	121.598667	-72.097865	-157.016030
02920		12.623117	5.308597	-1.060861	0.610619	-0.369955	0.520251	122.987550	-72.240909	-158.110246
02921		11.684908	5.512948	-1.026605	0.520824	-0.248147	0.277394	123.920460	-72.298251	-158.778838
02922		10.510973	5.812541	-0.710797	0.230859	-0.179295	0.040336	124.345480	-72.263936	-159.089075
02923		9.785533	5.266952	-0.535286	-0.271187	-0.093872	-0.081350	124.236428	-72.198278	-159.140175
02924		9.193503	4.139090	-0.764841	-0.710791	-0.030328	-0.107032	123.752017	-72.141623	-159.062228
02925		8.923584	2.861413	-0.855132	-0.918780	-0.077924	-0.016817	123.314027	-72.112046	-159.157598
02926		9.017746	1.702314	-0.963129	-0.915978	-0.132637	0.154569	123.120780	-72.148299	-159.509168
02927		8.954607	0.737779	-1.187235	-0.698547	-0.135688	0.346482	123.251441	-72.274990	-160.069174
02928		8.812034	0.138995	-1.540890	-0.326723	-0.119806	0.511541	123.737765	-72.485573	-160.778998
02929		8.560793	0.054224	-1.766105	0.082515	-0.109043	0.621173	124.577912	-72.748157	-161.612256
02930		8.693893	0.343950	-1.927734	0.421195	-0.172408	0.686700	125.802478	-73.017218	-162.644074
02931		9.255615	1.032815	-2.209573	0.638809	-0.235583	0.710230	127.315786	-73.266948	-163.845321
02932		9.978685	1.811495	-2.346941	0.665163	-0.281849	0.710798	128.950962	-73.492333	-165.156939
02933		10.506188	2.607170	-2.375622	0.519489	-0.305459	0.670960	130.529736	-73.679449	-166.494926
02934		10.704360	2.984273	-2.394735	0.142825	-0.287892	0.598344	131.799249	-73.833842	-167.734798
02935		10.698774	2.691023	-2.480002	-0.275972	-0.282198	0.505958	132.720666	-73.943143	-168.860897
02936		10.795116	2.051997	-2.340741	-0.540060	-0.279814	0.422469	133.382076	-74.015437	-169.873760
02937		10.800006	1.331725	-2.202830	-0.621008	-0.253944	0.375365	133.904277	-74.074185	-170.789379
02938		10.558673	0.633849	-2.092975	-0.533415	-0.191324	0.348263	134.351107	-74.146041	-171.574468
02939		10.020577	0.172242	-1.942266	-0.394885	-0.121681	0.361282	134.804335	-74.248119	-172.283066
02940		9.465741	-0.117082	-1.721299	-0.296059	-0.059544	0.406484	135.296759	-74.393693	-172.973354
02941		8.873426	-0.385791	-1.757403	-0.148515	-0.037235	0.469595	135.948787	-74.570221	-173.740784
02942		8.460858	-0.433491	-1.917008	0.065082	-0.086743	0.544529	136.925418	-74.754680	-174.717355
02943		8.535804	-0.306485	-2.150403	0.277519	-0.173528	0.603786	138.265486	-74.918228	-175.943435
02944		9.014041	-0.068761	-2.293103	0.483677	-0.251219	0.638507	139.917019	-75.054717	-177.368821
02945		9.192243	0.163989	-2.430858	0.598158	-0.277437	0.656600	141.726368	-75.172923	-178.888792
02946		9.102019	0.301217	-2.547014	0.614233	-0.287845	0.627092	143.534166	-75.265776	179.603230
02947		9.115346	0.414741	-2.465955	0.626278	-0.305655	0.586384	145.314996	-75.322650	178.130664
02948		9.360384	0.640981	-2.474738	0.629788	-0.318151	0.554426	147.068669	-75.353828	176.688762
02949		9.361107	0.951895	-2.461863	0.621612	-0.281982	0.544191	148.759083	-75.386494	175.307389
02950		9.254919	1.251523	-2.318707	0.537461	-0.254848	0.555728	150.403623	-75.427666	173.924109
02951		9.193824	1.398247	-2.041128	0.413059	-0.225748	0.565551	151.968788	-75.474494	172.549190
02952		9.202329	1.455895	-1.961059	0.296147	-0.188433	0.558946	153.429662	-75.531270	171.213422
02953		9.260027	1.367807	-2.096366	0.197914	-0.162196	0.538479	154.773492	-75.586452	169.940434
02954		9.731832	1.237787	-2.110996	0.168733	-0.197331	0.531275	156.131471	-75.615848	168.636112
02955		10.313072	1.161893	-2.347828	0.206145	-0.196307	0.527695	157.502667	-75.635527	167.340125
02956		10.187102	1.075282	-2.453178	0.233130	-0.140171	0.514702	158.824291	-75.676408	166.111733
02957		9.535421	0.840592	-2.412336	0.148186	-0.090674	0.461893	159.949284	-75.725018	165.035983
02958		9.139291	0.429396	-2.633034	0.037819	-0.117363	0.411769	160.935506	-75.746302	164.038644
02959		9.070997	0.069581	-2.937219	-0.006441	-0.167985	0.375316	161.851384	-75.727769	163.087419
02960		9.115332	-0.067681	-3.095279	-0.010453	-0.187324	0.366466	162.761573	-75.694882	162.139944
02961		9.008384	-0.151726	-2.951361	-0.003626	-0.200770	0.384538	163.713025	-75.652354	161.153401
02962		9.055544	-0.246579	-2.682575	-0.002432	-0.227083	0.410636	164.737000	-75.596504	160.092912
02963		9.237322	-0.298229	-2.571280	0.027577	-0.213572	0.426866	165.791173	-75.544444	159.018308
02964		9.343554	-0.223316	-2.562565	0.035339	-0.189421	0.436114	166.856473	-75.503366	157.937077
02965		9.502465	-0.168243	-2.555538	0.003639	-0.168225	0.439738	167.888363	-75.468457	156.870913
02966		9.550773	0.048859	-2.502066	-0.002557	-0.148653	0.437935	168.906590	-75.440695	155.815596
02967		9.464521	0.257977	-2.358081	-0.048053	-0.133574	0.432565	169.869610	-75.415166	154.789709
02968		9.457494	0.257381	-2.307821	-0.144309	-0.135439	0.419308	170.753333	-75.384222	153.789214
02969		9.524542	0.158789	-2.486663	-0.168402	-0.144325	0.404048	171.581097	-75.342097	152.831550
02970		9.428923	0.116868	-2.595720	-0.189288	-0.135666	0.384141	172.353793	-75.300922	151.918845
02971		9.334443	-0.006869	-2.548913	-0.263516	-0.135296	0.353542	173.005126	-75.253869	151.086879
02972		9.360510	-0.271469	-2.627426	-0.344779	-0.139802	0.349102	173.604565	-75.202572	150.260848
02973		9.466797	-0.444055	-2.576403	-0.347461	-0.136190	0.347915	174.186207	-75.150191	149.450832
02974		9.393219	-0.484766	-2.489776	-0.319668	-0.103560	0.355048	174.796107	-75.115502	148.628539
02975		9.354498	-0.391114	-2.504757	-0.283448	-0.086190	0.355669	175.413435	-75.087681	147.819268
02976		9.415153	-0.416431	-2.726991	-0.259232	-0.089375	0.350367	176.039616	-75.056336	147.015766
02977		9.317800	-0.332201	-2.830747	-0.227275	-0.080550	0.336238	176.641052	-75.026549	146.256032
02978		9.269943	-0.293872	-2.830188	-0.207276	-0.096064	0.316116	177.218669	-74.985923	145.533412
02979		9.264544	-0.255543	-2.753783	-0.178568	-0.114457	0.304587	177.777142	-74.931980	144.846768
02980		9.305189	-0.226222	-2.774637	-0.186194	-0.140935	0.287561	178.301320	-74.861423	144.191665
02981		9.392220	-0.267443	-2.980106	-0.176039	-0.161375	0.289173	178.820996	-74.777087	143.546270
02982		9.576922	-0.229901	-3.022724	-0.136325	-0.157904	0.286409	179.360137	-74.693607	142.904798
02983		9.601286	-0.124740	-2.947511	-0.127193	-0.104214	0.278160	179.871703	-74.638883	142.296361
02984		9.477746	-0.041421	-2.830805	-0.194907	-0.066640	0.261562	-179.684350	-74.604703	141.718474
02985		9.441971	-0.144490	-2.689180	-0.277407	-0.068457	0.250165	-179.322692	-74.568139	141.176028
02986		9.491405	-0.156351	-2.677714	-0.308889	-0.056479	0.241239	-178.990201	-74.537906	140.645830
02987		9.451865	-0.061069	-2.494290	-0.361842	-0.054192	0.272648	-178.633689	-74.507509	140.058359
02988		9.509042	-0.690144	-2.632556	-0.427819	-0.057142	0.284222	-178.284227	-74.474498	139.439672
02989		9.488540	-1.186173	-2.371581	-0.491373	0.053049	0.247776	-178.048719	-74.504206	138.900662
02990		9.127849	-1.622914	-3.173016	-0.276080	0.080581	0.197023	-177.781599	-74.550291	138.457765
02991		8.955582	-1.399524	-3.277813	-0.038923	0.026139	0.168272	-177.450514	-74.565103	138.088720
02992		8.983315	-1.320279	-3.080578	0.046650	-0.061199	0.180732	-177.043137	-74.528988	137.692270
02993		9.199772	-1.282919	-2.764016	0.044223	-0.086363	0.203268	-176.605699	-74.476969	137.262199
02994		9.434765	-1.301899	-2.695339	0.079223	-0.069971	0.217635	-176.108846	-74.432785	136.792132
02995		9.512836	-1.257387	-2.679966	0.208357	-0.067735	0.206827	-175.573131	-74.389300	136.357473
02996		9.467451	-1.119938	-2.649595	0.292550	-0.064031	0.177772	-175.039502	-74.348061	135.975992
02997		9.411309	-1.076146	-2.541492	0.321319	-0.083854	0.136557	-174.590232	-74.296931	135.698153
02998		9.447043	-1.121375	-2.624638	0.352965	-0.096403	0.093657	-174.203154	-74.240323	135.504741
02999		9.484592	-1.037298	-2.794234	0.387929	-0.074261	0.060745	-173.870889	-74.198158	135.388009
03000		9.410835	-0.928430	-2.875212	0.399938	-0.076211	0.053064	-173.537229	-74.154973	135.278042
03001		9.444886	-0.862619	-2.896746	0.366310	-0.092294	0.051378	-173.242641	-74.102807	135.187549
03002		9.433790	-0.882969	-2.843148	0.298516	-0.083110	0.056994	-172.963010	-74.055095	135.073311
03003		9.429239	-1.022435	-2.759982	0.274871	-0.099593	0.055403	-172.716978	-73.998257	134.978785
03004		9.472339	-1.085069	-2.793977	0.320878	-0.083830	0.054568	-172.431607	-73.950018	134.871873
03005		9.490624	-1.100639	-2.824233	0.379919	-0.053637	0.045663	-172.134784	-73.919771	134.787081
03006		9.539819	-1.175742	-2.762077	0.414506	-0.046034	0.031943	-171.831709	-73.894478	134.717573
03007		9.545533	-1.247047	-2.774910	0.416721	-0.041557	0.010590	-171.580496	-73.873744	134.702183
03008		9.542425	-1.456867	-2.808187	0.433573	-0.037461	-0.015862	-171.358266	-73.857206	134.728227
03009		9.448091	-1.541614	-2.892277	0.506887	-0.024146	-0.038121	-171.146029	-73.850544	134.807194
03010		9.277938	-1.520353	-3.036832	0.626612	-0.015003	-0.067847	-170.907838	-73.851413	134.931817
03011		9.022399	-1.536655	-3.263433	0.737129	-0.020874	-0.080581	-170.645748	-73.850683	135.096222
03012		8.844822	-1.428298	-3.332482	0.832365	-0.056495	-0.076135	-170.318853	-73.829175	135.251288
03013		8.911836	-1.304464	-3.351778	0.907545	-0.085157	-0.063677	-169.947590	-73.791012	135.403719
03014		8.983937	-1.090536	-3.269941	0.958294	-0.085468	-0.048706	-169.505577	-73.750870	135.514137
03015		9.030066	-0.888801	-3.145138	0.971908	-0.077320	-0.036357	-169.043076	-73.714847	135.610001
03016		9.120211	-0.663978	-3.058830	0.953287	-0.083489	-0.030627	-168.570011	-73.674280	135.685142
03017		9.187266	-0.478819	-2.859563	0.904042	-0.071127	-0.021587	-168.117220	-73.640463	135.750639
03018		9.471666	-0.329249	-2.755726	0.808064	-0.053596	-0.008038	-167.674059	-73.614293	135.770244
03019		9.760422	-0.290644	-2.851516	0.725407	-0.020664	0.010517	-167.242803	-73.604994	135.751520
03020		9.696276	-0.212947	-2.889263	0.640573	0.032990	0.019960	-166.806165	-73.623712	135.677867
03021		9.438456	-0.268235	-2.855656	0.516836	0.046940	0.033300	-166.421061	-73.648995	135.582698
03022		9.254624	-0.436063	-2.879350	0.403108	0.032893	0.044113	-166.073975	-73.664123	135.460558
03023		9.276468	-0.671952	-2.955491	0.345344	0.011125	0.056824	-165.758349	-73.665895	135.335412
03024		9.368145	-0.849616	-2.944456	0.361386	0.001467	0.068304	-165.404237	-73.659727	135.181025
03025		9.354576	-0.934037	-2.808801	0.416876	0.005724	0.063140	-165.038371	-73.657156	135.046231
03026		9.243514	-0.913956	-2.719382	0.478274	0.006300	0.052238	-164.645507	-73.655504	134.921243
03027		9.187676	-0.804377	-2.647701	0.549021	0.001056	0.039352	-164.251305	-73.653500	134.835819
03028		9.065718	-0.581465	-2.582300	0.602422	-0.002267	0.037390	-163.819970	-73.649000	134.744859
03029		9.061814	-0.402095	-2.663731	0.617969	-0.023450	0.039642	-163.399398	-73.633127	134.673117
03030		9.228332	-0.226854	-2.707366	0.575320	-0.046290	0.044826	-162.995177	-73.602922	134.594191
03031		9.459245	-0.101667	-2.651334	0.487254	-0.039024	0.050303	-162.639614	-73.576441	134.512127
03032		9.599220	-0.031194	-2.652912	0.392750	-0.018622	0.055364	-162.306261	-73.559313	134.397962
03033		9.643390	-0.036133	-2.578218	0.302226	0.002345	0.063886	-162.008215	-73.552745	134.265318
03034		9.643966	-0.056837	-2.465372	0.214099	0.020702	0.071202	-161.725477	-73.553936	134.097135
03035		9.532753	-0.127343	-2.380788	0.125969	0.034074	0.086891	-161.466811	-73.560090	133.900256
03036		9.446505	-0.237019	-2.399648	0.042758	0.035288	0.092542	-161.234251	-73.564944	133.681987
03037		9.379957	-0.405499	-2.390234	0.003577	0.039244	0.098391	-161.021021	-73.571313	133.459380
03038		9.389389	-0.492003	-2.429034	0.014922	0.035328	0.106908	-160.778104	-73.573072	133.213652
03039		9.394039	-0.538006	-2.502757	0.053904	0.030340	0.114957	-160.511173	-73.570951	132.965125
03040		9.386561	-0.538239	-2.552069	0.104841	0.030109	0.114725	-160.206111	-73.567778	132.708283
03041		9.344409	-0.468952	-2.511423	0.167608	0.027227	0.112770	-159.880275	-73.563670	132.466256
03042		9.303120	-0.353573	-2.415976	0.192252	0.001229	0.114280	-159.546051	-73.544289	132.231173
03043		9.384726	-0.281804	-2.373781	0.153517	-0.020167	0.117979	-159.251877	-73.512943	132.013698
03044		9.555883	-0.246599	-2.388593	0.067304	-0.021550	0.125884	-158.985880	-73.478376	131.774994
03045		9.681569	-0.274637	-2.423023	-0.000721	-0.012712	0.132738	-158.750191	-73.447396	131.526269
03046		9.661820	-0.226921	-2.452492	-0.059150	-0.003935	0.133280	-158.533309	-73.420197	131.263093
03047		9.535189	-0.216632	-2.531200	-0.104781	0.009559	0.144559	-158.321978	-73.398049	130.977502
03048		9.292043	-0.220127	-2.561706	-0.150816	0.020432	0.150419	-158.111537	-73.379676	130.666127
03049		9.196216	-0.322523	-2.523160	-0.190590	0.021062	0.164675	-157.906574	-73.358729	130.335811
03050		9.233383	-0.374702	-2.594641	-0.217321	0.005272	0.169645	-157.712860	-73.327558	130.002000
03051		9.331588	-0.524293	-2.620198	-0.245274	0.003142	0.182102	-157.523146	-73.292670	129.654793
03052		9.354711	-0.583994	-2.614172	-0.239793	-0.005332	0.196510	-157.305342	-73.249337	129.282218
03053		9.386536	-0.675248	-2.595359	-0.248945	-0.014725	0.208819	-157.086754	-73.198345	128.902499
03054		9.400898	-0.803758	-2.516115	-0.254335	-0.016701	0.220042	-156.848360	-73.142925	128.499481
03055		9.427560	-0.926517	-2.517820	-0.243199	-0.031076	0.227162	-156.610833	-73.078285	128.103183
03056		9.398077	-1.010695	-2.571302	-0.219597	-0.036679	0.223595	-156.366141	-73.010604	127.714102
03057		9.328198	-1.011541	-2.586159	-0.185679	-0.033064	0.230251	-156.096875	-72.943209	127.318795
03058		9.299711	-0.963116	-2.559369	-0.154841	-0.042817	0.232010	-155.810816	-72.869303	126.924953
03059		9.294707	-0.955540	-2.637645	-0.116686	-0.049007	0.238516	-155.505879	-72.790480	126.533373
03060		9.237553	-0.951417	-2.732131	-0.094123	-0.049001	0.237289	-155.187251	-72.710882	126.141509
03061		9.119769	-1.017279	-2.767790	-0.058088	-0.044805	0.238723	-154.851602	-72.632907	125.752593
03062		9.060764	-1.095572	-2.735212	-0.018332	-0.063988	0.244925	-154.495577	-72.542310	125.366682
03063		9.190474	-1.166837	-2.761750	0.006817	-0.070513	0.246273	-154.137671	-72.447770	124.993044
03064		9.348505	-1.286901	-2.690744	0.067840	-0.072543	0.255063	-153.730688	-72.348726	124.605059
03065		9.620088	-1.250704	-2.638429	0.127751	-0.079350	0.258951	-153.298630	-72.244852	124.225907
03066		9.792622	-1.193102	-2.598584	0.207646	-0.054061	0.267364	-152.786396	-72.150253	123.811068
03067		9.773250	-1.085420	-2.492581	0.279541	-0.036211	0.279326	-152.209830	-72.060882	123.371046
03068		9.691879	-1.022594	-2.398823	0.331238	-0.023093	0.298763	-151.562482	-71.970975	122.888160
03069		9.702759	-0.965676	-2.454924	0.369550	-0.029762	0.314339	-150.885773	-71.872202	122.396586
03070		9.769040	-0.969595	-2.499442	0.394903	-0.022889	0.327831	-150.169658	-71.770778	121.879152
03071		9.782311	-0.952989	-2.631555	0.426473	-0.001887	0.342146	-149.407401	-71.673999	121.331271
03072		9.573970	-0.932364	-2.707031	0.459858	0.023326	0.352956	-148.589922	-71.583668	120.745637
03073		9.435648	-0.847647	-2.639076	0.482839	0.027843	0.352357	-147.767474	-71.493488	120.167762
03074		9.408544	-0.742724	-2.672165	0.495119	0.033558	0.350926	-146.937350	-71.403526	119.589442
03075		9.369588	-0.641918	-2.626091	0.491449	0.040231	0.346379	-146.120401	-71.315925	119.021970
03076		9.369600	-0.496342	-2.632510	0.452939	0.042523	0.341911	-145.332202	-71.228018	118.461743
03077		9.439498	-0.487892	-2.634911	0.394544	0.045529	0.348676	-144.575202	-71.137193	117.898354
03078		9.531574	-0.588539	-2.630336	0.342965	0.051387	0.352811	-143.839487	-71.045124	117.326326
03079		9.532992	-0.722091	-2.924253	0.327959	0.058859	0.363640	-143.100015	-70.950657	116.740504
03080		9.305194	-0.860434	-2.917858	0.370257	0.083212	0.377920	-142.297036	-70.859617	116.113137
03081		9.378100	-0.550623	-2.820131	0.435768	0.043595	0.398397	-141.480140	-70.740751	115.510038
03082		9.934266	-0.057454	-2.884900	0.321044	-0.022235	0.433625	-140.758639	-70.577101	114.938128
03083		10.162642	-0.034734	-3.032005	0.082654	0.021825	0.452776	-140.116796	-70.423790	114.304994
03084		9.549563	-0.359924	-2.931775	-0.096848	0.097969	0.465656	-139.491176	-70.296757	113.579496
03085		9.103470	-0.602107	-2.599595	-0.208062	0.074973	0.472701	-138.954682	-70.154603	112.880222
03086		9.169405	-0.910968	-2.426029	-0.353035	0.032462	0.460777	-138.567539	-69.996890	112.250871
03087		9.510525	-1.406180	-2.431332	-0.486451	0.033437	0.432596	-138.296984	-69.848927	111.663577
03088		9.778488	-1.843062	-2.578466	-0.546232	0.055265	0.391276	-138.091226	-69.725484	111.108348
03089		9.931258	-2.113312	-2.712350	-0.557496	0.083389	0.342900	-137.923004	-69.631685	110.585848
03090		9.862626	-2.354315	-2.793620	-0.565657	0.114952	0.298233	-137.780250	-69.568266	110.085275
03091		9.701484	-2.628211	-2.841281	-0.554058	0.117699	0.249881	-137.685021	-69.523993	109.642332
03092		9.451155	-2.990439	-2.769596	-0.516858	0.111435	0.206489	-137.624773	-69.493875	109.259390
03093		9.227388	-3.313101	-2.671323	-0.396170	0.100461	0.163102	-137.556640	-69.475459	108.941790
03094		9.061674	-3.477888	-2.582411	-0.210850	0.101068	0.129549	-137.419304	-69.470278	108.663697
03095		9.016306	-3.418434	-2.498763	-0.012153	0.105029	0.095263	-137.203117	-69.479597	108.422927
03096		9.239543	-3.278770	-2.616219	0.207408	0.135831	0.067732	-136.858631	-69.512248	108.179622
03097		9.282797	-2.932668	-2.616642	0.440968	0.205405	0.043023	-136.334002	-69.582864	107.886859
03098		9.049662	-2.477206	-2.474688	0.614357	0.252706	0.041897	-135.656421	-69.672349	107.537195
03099		8.858971	-1.887397	-2.506566	0.730730	0.285803	0.041208	-134.873057	-69.774023	107.145926
03100		8.762928	-1.338373	-2.416206	0.731238	0.291762	0.045173	-134.071715	-69.874586	106.736189
03101		8.859364	-0.912392	-2.415629	0.656767	0.232972	0.043346	-133.377124	-69.950770	106.394797
03102		9.103736	-0.560339	-2.464266	0.599841	0.217567	0.054954	-132.716157	-70.014768	106.054689
03103		9.081524	-0.148939	-2.471897	0.483955	0.206978	0.077513	-132.107574	-70.063749	105.699733
03104		9.045964	-0.002670	-2.618913	0.286022	0.157227	0.103694	-131.641499	-70.081652	105.375770
03105		9.162920	-0.291974	-2.638302	0.158845	0.109213	0.111552	-131.296465	-70.076924	105.103097
03106		9.209932	-0.537195	-2.523609	0.050333	0.083743	0.098785	-131.058088	-70.068055	104.877583
03107		9.107655	-1.060337	-2.457075	-0.042258	0.068954	0.075313	-130.914148	-70.063089	104.696229
03108		9.086573	-1.723760	-2.316952	-0.069146	0.053851	0.042339	-130.839012	-70.067192	104.571453
03109		9.125204	-2.383914	-2.384175	-0.044813	0.048848	0.006555	-130.791575	-70.084327	104.491201
03110		9.150540	-2.930842	-2.460863	-0.016084	0.058571	-0.029093	-130.754114	-70.121134	104.438833
03111		8.999549	-3.308479	-2.465674	-0.008948	0.087321	-0.061660	-130.710124	-70.182230	104.384131
03112		8.981106	-3.363364	-2.266410	0.029597	0.106218	-0.094619	-130.656415	-70.265185	104.342372
03113		9.194005	-3.266095	-2.106948	0.023504	0.120115	-0.108598	-130.602156	-70.358894	104.296568
03114		9.465436	-3.140401	-1.910945	0.004378	0.141546	-0.109220	-130.533899	-70.461251	104.224116
03115		9.504459	-2.859232	-1.495605	0.059796	0.171240	-0.091353	-130.376450	-70.566401	104.090966
03116		9.358168	-2.335952	-0.860149	0.065686	0.160990	-0.075672	-130.211159	-70.661177	103.953011
03117		9.259075	-1.978008	-0.745745	-0.091573	0.137476	-0.054782	-130.141281	-70.737619	103.820906
03118		9.319313	-1.857836	-1.176143	-0.282079	0.113112	-0.039570	-130.195047	-70.798923	103.704073
03119		9.305140	-1.860388	-1.641341	-0.433366	0.142712	-0.033762	-130.291343	-70.868161	103.540677
03120		9.073638	-2.063082	-1.946366	-0.544975	0.167635	-0.015171	-130.400460	-70.939261	103.323110
03121		8.889176	-2.287563	-2.163549	-0.611603	0.144802	0.015518	-130.542787	-70.988009	103.100505
03122		8.733894	-2.378743	-2.483242	-0.656043	0.106958	0.046148	-130.725675	-71.010174	102.893775
03123		8.585307	-2.509914	-2.740832	-0.678672	0.062611	0.059670	-130.962249	-71.009458	102.730265
03124		8.527077	-2.746680	-2.731650	-0.586982	-0.000826	0.071304	-131.213885	-70.980630	102.638086
03125		8.730330	-2.768532	-2.712162	-0.437341	-0.070154	0.060970	-131.476658	-70.929570	102.648517
03126		8.834029	-2.797680	-2.678770	-0.455508	-0.069332	0.028617	-131.784386	-70.893122	102.695365
03127		9.018437	-3.160393	-2.441778	-0.402649	-0.054406	-0.013988	-132.089179	-70.880008	102.771309
03128		9.279417	-3.381748	-2.124679	-0.273188	-0.005572	-0.052068	-132.302812	-70.902094	102.829151
03129		9.412141	-3.448780	-1.797111	-0.196713	0.052752	-0.082273	-132.434552	-70.959074	102.846817
03130		9.333160	-3.477474	-1.735609	-0.186011	0.074214	-0.110260	-132.566106	-71.036449	102.870688
03131		9.371420	-3.454072	-1.597280	-0.157931	0.100188	-0.137741	-132.680956	-71.135192	102.893972
03132		9.278236	-3.408224	-1.406488	-0.086907	0.140253	-0.159978	-132.731442	-71.259077	102.892215
03133		9.138213	-3.144465	-1.137016	-0.052464	0.212891	-0.204203	-132.722748	-71.429593	102.848848
03134		9.000787	-2.816555	-0.854379	-0.050520	0.324411	-0.284554	-132.664357	-71.677466	102.754354
03135		8.935321	-2.460884	-0.878204	0.034179	0.389423	-0.364756	-132.566808	-71.984136	102.669840
03136		9.025151	-2.124443	-0.876006	0.129313	0.441092	-0.445229	-132.439192	-72.344997	102.611232
03137		9.187056	-1.924404	-0.829170	0.207333	0.504154	-0.534810	-132.288948	-72.767835	102.575819
03138		9.314422	-1.686512	-0.743096	0.289065	0.560004	-0.632255	-132.130969	-73.253840	102.581451
03139		9.381745	-1.388022	-0.646695	0.321453	0.618599	-0.732702	-131.998021	-73.804722	102.632440
03140		9.404121	-1.235957	-0.742164	0.308296	0.669865	-0.836291	-131.932119	-74.419888	102.745222
03141		9.471431	-1.206108	-0.800524	0.308792	0.710356	-0.936791	-131.949508	-75.092920	102.944200
03142		9.593271	-1.179667	-0.780579	0.317282	0.736364	-1.030490	-132.068610	-75.816381	103.252685
03143		9.658140	-1.221728	-0.977149	0.306384	0.755522	-1.124218	-132.336606	-76.586105	103.706995
03144		9.725146	-1.148193	-1.111477	0.272147	0.773851	-1.214379	-132.788642	-77.401035	104.328578
03145		9.743687	-1.121754	-1.181467	0.188261	0.723986	-1.289546	-133.607973	-78.225467	105.274739
03146		9.875277	-1.211156	-1.434589	0.150674	0.630118	-1.364967	-134.933408	-79.040274	106.712320
03147		10.009558	-1.282614	-1.481048	0.249545	0.498866	-1.413068	-136.821249	-79.811246	108.775796
03148		10.341523	-1.158282	-1.495254	0.363016	0.360508	-1.479161	-139.441215	-80.533915	111.643392
03149		10.669805	-1.078312	-1.553164	0.445932	0.283213	-1.549219	-142.837963	-81.219872	115.339976
03150		10.713530	-0.910846	-1.598076	0.465314	0.235035	-1.611313	-147.116393	-81.863900	119.932444
03151		10.422247	-0.830136	-1.565777	0.412541	0.193934	-1.643050	-152.354917	-82.437786	125.456615
03152		10.421584	-0.705484	-1.580067	0.300062	0.077605	-1.663077	-158.757106	-82.877223	132.082475
03153		10.905704	-0.556720	-1.707546	0.144467	-0.002320	-1.666924	-166.106792	-83.168232	139.567855
03154		11.215119	-0.507681	-1.793797	0.006747	0.019478	-1.649678	-173.955871	-83.347694	147.472846
03155		10.959636	-0.402724	-1.723084	-0.098702	0.061481	-1.621471	177.995943	-83.419689	155.515531
03156		10.455913	-0.284226	-1.666189	-0.183657	-0.003113	-1.586525	170.104579	-83.328127	163.351395
03157		10.077290	-0.152315	-1.615039	-0.249956	-0.116994	-1.552078	162.843719	-83.058513	170.517060
03158		9.910629	-0.049506	-1.572875	-0.310335	-0.232321	-1.516501	156.530191	-82.636010	176.698296
03159		9.967441	0.023633	-1.451978	-0.364469	-0.315845	-1.479762	151.224488	-82.103715	-178.161771
03160		10.143591	0.178947	-1.246027	-0.435374	-0.361126	-1.437650	146.798306	-81.506205	-173.944521
03161		10.387041	0.209930	-1.286567	-0.511785	-0.350574	-1.403704	142.991837	-80.882929	-170.391830
03162		10.505050	0.300723	-1.384265	-0.555299	-0.294125	-1.367000	139.611867	-80.265685	-167.290665
03163		10.354701	0.448231	-1.480027	-0.588234	-0.227666	-1.341940	136.523322	-79.658341	-164.498813
03164		10.057441	0.575769	-1.495165	-0.650969	-0.195198	-1.311483	133.722425	-79.052775	-162.030913
03165		9.800329	0.668541	-1.390436	-0.748033	-0.174267	-1.275153	131.171958	-78.449655	-159.869903
03166		9.693726	0.730431	-1.105807	-0.888892	-0.142083	-1.225759	128.793574	-77.862995	-157.962674
03167		9.609269	0.697563	-0.874195	-1.057449	-0.102431	-1.166366	126.531020	-77.301352	-156.268732
03168		9.710436	0.527443	-0.883484	-1.154853	-0.063909	-1.112475	124.378608	-76.764615	-154.741502
03169		9.838534	0.584334	-0.896728	-1.181954	0.018194	-1.080567	122.234509	-76.255983	-153.235424
03170		9.802705	0.655784	-0.893723	-1.177353	0.105235	-1.067495	120.068184	-75.767394	-151.700588
03171		9.778315	0.688725	-0.976875	-1.144301	0.154056	-1.067982	117.950794	-75.277926	-150.193334
03172		9.751479	0.706631	-1.038496	-1.072586	0.190316	-1.057095	115.931571	-74.790989	-148.741842
03173		9.609110	0.608813	-1.091156	-0.984584	0.199984	-1.033629	114.072803	-74.305353	-147.401094
03174		9.415730	0.561473	-1.042572	-0.862034	0.185164	-0.999529	112.431553	-73.824638	-146.210386
03175		9.193985	0.540962	-0.971858	-0.732298	0.156091	-0.955248	111.028699	-73.351826	-145.187793
03176		9.040107	0.494926	-0.942337	-0.572133	0.120123	-0.916756	109.869966	-72.887332	-144.321911
03177		9.036817	0.643390	-0.838269	-0.384826	0.078142	-0.878238	108.965583	-72.430022	-143.607905
03178		9.147164	0.847756	-0.727980	-0.208774	0.050503	-0.838704	108.269316	-71.987590	-143.004728
03179		9.290968	1.007742	-0.720339	-0.059141	0.046695	-0.798092	107.716597	-71.563243	-142.460956
03180		9.350676	1.260498	-0.668254	0.066393	0.083236	-0.752557	107.223155	-71.170121	-141.902496
03181		9.234441	1.546488	-0.604746	0.138585	0.101770	-0.699415	106.788364	-70.806202	-141.361107
03182		9.008971	1.770914	-0.642885	0.146227	0.088812	-0.642637	106.421548	-70.471865	-140.885922
03183		8.767404	2.007349	-0.768180	0.129331	0.062803	-0.594748	106.120309	-70.157029	-140.489765
03184		8.463496	2.297461	-0.914228	0.088031	0.024478	-0.539200	105.887374	-69.867974	-140.190656
03185		8.290173	2.513206	-0.974328	0.036787	-0.012102	-0.480161	105.711960	-69.603540	-139.983690
03186		8.125216	2.613753	-0.935968	0.017557	-0.039730	-0.423210	105.593896	-69.367972	-139.849317
03187		8.143637	2.742934	-0.980814	0.012699	-0.084782	-0.360121	105.566918	-69.158332	-139.815187
03188		8.257709	2.936759	-1.086647	0.012849	-0.132679	-0.265207	105.647267	-68.995598	-139.895750
03189		8.507404	3.143863	-1.229713	0.007387	-0.161421	-0.181038	105.798359	-68.872857	-140.055629
03190		8.635010	3.397131	-1.305567	-0.003990	-0.169591	-0.109936	105.981565	-68.789734	-140.256951
03191		8.713842	3.641828	-1.457791	-0.024738	-0.163226	-0.070089	106.158809	-68.727446	-140.464826
03192		8.720410	3.928712	-1.640564	-0.038793	-0.126220	-0.052312	106.282189	-68.682483	-140.623486
03193		8.581737	4.383470	-1.508757	-0.083114	-0.139417	-0.054887	106.396992	-68.632037	-140.800376
03194		8.500650	4.650279	-1.382623	-0.156026	-0.234736	-0.073033	106.595410	-68.557626	-141.111880
03195		8.844052	4.893699	-1.443676	-0.283029	-0.289781	-0.083566	106.791284	-68.466297	-141.499171
03196		8.928162	4.979708	-1.511133	-0.399750	-0.301529	-0.118803	106.919509	-68.354795	-141.885765
03197		9.139283	5.168631	-1.265994	-0.452474	-0.317916	-0.144839	107.026096	-68.224492	-142.282045
03198		9.382296	5.276174	-0.615713	-0.557886	-0.273702	-0.173672	106.997346	-68.087011	-142.597835
03199		9.378116	5.036202	-0.242305	-0.748769	-0.175974	-0.219828	106.706119	-67.939474	-142.748946
03200		9.337609	4.745857	-0.533522	-0.866142	-0.119312	-0.275448	106.250127	-67.772117	-142.794891
03201		9.372935	4.510832	-0.807015	-0.825367	-0.104180	-0.312368	105.785965	-67.585807	-142.806862
03202		9.310446	4.163016	-0.651862	-0.787495	-0.075388	-0.319653	105.305793	-67.401002	-142.778023
03203		8.911500	3.731812	-0.537439	-0.747258	-0.049454	-0.318797	104.818907	-67.219385	-142.716888
03204		8.620456	3.223252	-0.361655	-0.676636	-0.112869	-0.322327	104.457899	-67.027492	-142.748398
03205		8.651207	2.614828	-0.534678	-0.657271	-0.155645	-0.287927	104.177873	-66.847675	-142.855887
03206		8.286457	2.162056	-0.783615	-0.571075	-0.129266	-0.225045	103.934149	-66.707773	-142.949301
03207		7.895895	1.985901	-0.764909	-0.469138	-0.164459	-0.145802	103.820406	-66.606128	-143.120719
03208		7.775722	1.874419	-0.915213	-0.379459	-0.252640	-0.053910	103.899473	-66.544743	-143.446385
03209		7.863951	1.811847	-1.076792	-0.212584	-0.347524	0.031416	104.222179	-66.515894	-143.933527
03210		8.156617	1.924202	-1.070272	-0.019255	-0.378783	0.110414	104.720780	-66.526364	-144.491669
03211		8.179126	2.213016	-1.019348	0.174055	-0.361829	0.182332	105.334208	-66.575633	-145.054158
03212		8.196091	2.553442	-1.055461	0.321004	-0.392211	0.235941	106.092710	-66.648550	-145.682625
03213		8.214213	2.888585	-1.026917	0.408114	-0.442731	0.283493	106.988002	-66.734261	-146.405405
03214		8.409633	3.213016	-0.972259	0.459618	-0.479332	0.318032	107.979610	-66.829354	-147.200265
03215		8.608373	3.477608	-1.021503	0.469998	-0.469207	0.358107	108.988472	-66.941051	-148.006929
03216		8.702397	3.797959	-0.903863	0.441634	-0.447841	0.394882	109.979623	-67.072679	-148.811142
03217		8.744161	4.009228	-0.757959	0.340677	-0.408993	0.434480	110.892107	-67.226577	-149.592048
03218		8.777651	4.165243	-0.733893	0.167582	-0.371674	0.473391	111.688670	-67.405955	-150.353738
03219		8.818363	4.163096	-0.901254	0.014529	-0.357213	0.540955	112.426362	-67.618894	-151.145653
03220		8.838275	4.109865	-1.005082	-0.033748	-0.345322	0.625683	113.182473	-67.876673	-151.985933
03221		8.733396	3.930383	-1.166245	-0.041247	-0.320109	0.716941	113.972728	-68.182425	-152.866069
03222		8.460268	3.664545	-1.311337	-0.000633	-0.287247	0.793895	114.813544	-68.532734	-153.773488
03223		8.237482	3.170478	-0.871377	-0.034106	-0.288916	0.876721	115.718996	-68.919071	-154.768622
03224		9.244433	2.433327	-0.365648	-0.126603	-0.448593	1.031693	116.928062	-69.339012	-156.142651
03225		11.753131	2.381399	-1.805095	-0.048121	-0.718815	1.246523	118.762654	-69.781059	-158.132391
03226		12.631281	3.148025	-3.731274	0.326317	-0.566161	1.322369	120.749897	-70.282252	-160.050180
03227		11.658755	4.687562	-3.583929	0.689666	-0.453451	1.101199	122.694607	-70.685402	-161.696643
03228		12.818856	5.540087	-1.398111	0.750315	-0.483082	0.783731	124.490986	-70.910753	-163.145919
03229		14.096773	6.109796	-0.088662	0.825592	-0.331741	0.473957	125.858278	-71.026426	-164.094354
03230		12.866331	7.380639	-0.277019	0.739430	-0.150050	0.147772	126.620011	-71.048361	-164.454258
03231		11.292646	7.878431	0.154167	-0.021802	0.032219	-0.133163	126.422839	-71.001284	-164.261435
03232		10.376184	6.127611	0.466104	-0.962871	0.234437	-0.321325	125.232035	-70.934863	-163.588034
03233		9.576284	3.944340	0.020981	-1.390710	0.339142	-0.346125	123.638355	-70.884339	-162.747272
03234		8.870325	1.969959	-0.605962	-1.494991	0.240914	-0.180650	122.272744	-70.876589	-162.211354
03235		8.470116	0.251776	-1.392701	-1.348156	0.122655	0.116449	121.419292	-70.973387	-162.128102
03236		7.951937	-1.065898	-1.827479	-0.921403	0.040277	0.427311	121.192300	-71.198647	-162.449032
03237		7.523418	-1.720569	-2.021590	-0.242397	0.006439	0.659897	121.617796	-71.526299	-163.047107
03238		7.455936	-1.501866	-2.121530	0.486157	-0.040748	0.804465	122.686535	-71.908540	-163.881964
03239		8.378840	-0.789423	-2.523117	1.057365	-0.235908	0.892180	124.505208	-72.262686	-165.159049
03240		10.040740	0.549282	-3.049090	1.385087	-0.399568	0.918044	126.842535	-72.561318	-166.780956
03241		11.500495	2.142311	-3.098570	1.414350	-0.424844	0.857072	129.228193	-72.801453	-168.433486
03242		11.655293	3.640685	-2.892813	1.137273	-0.322344	0.715781	131.189810	-73.000473	-169.806447
03243		10.883857	4.060336	-2.612143	0.594443	-0.257990	0.539932	132.560897	-73.135625	-170.886074
03244		10.334539	3.525694	-2.335257	0.123835	-0.289809	0.422372	133.570474	-73.204036	-171.869081
03245		10.176096	2.742831	-2.155025	-0.179646	-0.298973	0.368156	134.353181	-73.240502	-172.796532
03246		9.985611	1.959196	-2.015107	-0.330008	-0.263870	0.378314	135.020185	-73.293250	-173.692861
03247		9.748578	1.398646	-1.861620	-0.350920	-0.200017	0.447292	135.689003	-73.395401	-174.603271
03248		9.482756	1.031194	-1.888123	-0.318579	-0.104237	0.548353	136.401105	-73.575514	-175.538766
03249		9.145759	0.982975	-1.832273	-0.250121	-0.026783	0.668066	137.239808	-73.829900	-176.564317
03250		9.042386	0.992413	-2.020737	-0.191674	0.004358	0.763216	138.243957	-74.130962	-177.725613
03251		8.940540	1.028087	-2.314921	-0.118579	0.014079	0.827831	139.418322	-74.452986	-179.018530
03252		8.776080	1.115294	-2.426395	-0.118504	-0.003779	0.838630	140.687078	-74.765068	179.592832
03253		8.773480	0.927691	-2.480147	-0.215063	-0.044985	0.801476	141.944096	-75.035762	178.160824
03254		8.869804	0.577587	-2.550035	-0.245402	-0.080131	0.731283	143.157554	-75.259312	176.757740
03255		8.881656	0.324497	-2.334666	-0.178637	-0.124670	0.653569	144.363872	-75.426915	175.402644
03256		9.104626	0.153143	-2.250684	-0.085165	-0.194080	0.573662	145.596369	-75.529709	174.076907
03257		9.392150	0.111938	-2.344057	0.068924	-0.233209	0.524024	146.886534	-75.589358	172.783025
03258		9.448299	0.337282	-2.564386	0.244413	-0.237798	0.500881	148.252702	-75.633546	171.515091
03259		9.186248	0.656334	-2.718592	0.307315	-0.229277	0.496706	149.640570	-75.671755	170.261883
03260		9.223053	0.743238	-2.487820	0.289206	-0.251701	0.506845	151.073257	-75.695307	168.952245
03261		9.500792	0.815533	-2.223566	0.276693	-0.244213	0.520821	152.517939	-75.717023	167.622603
03262		9.645261	0.827861	-2.008860	0.290270	-0.190113	0.536079	153.956005	-75.763309	166.308402
03263		9.535257	0.834226	-1.953367	0.277429	-0.158419	0.557641	155.404243	-75.821936	164.976036
03264		9.385382	0.717744	-1.920887	0.282302	-0.158079	0.579554	156.916719	-75.878531	163.581040
03265		9.241305	0.600155	-2.059618	0.290370	-0.150499	0.577196	158.427780	-75.928462	162.192197
03266		9.069870	0.373259	-2.206752	0.299922	-0.150550	0.556130	159.913862	-75.966347	160.835424
03267		8.919083	0.248598	-2.458311	0.337290	-0.181956	0.533260	161.395835	-75.973263	159.504675
03268		8.955628	0.191116	-2.776605	0.378435	-0.227355	0.506373	162.879671	-75.943399	158.196680
03269		9.057895	0.318995	-2.941295	0.368208	-0.239244	0.487520	164.310965	-75.894864	156.936147
03270		9.127045	0.447999	-2.979069	0.236672	-0.198560	0.474972	165.612760	-75.860603	155.731684
03271		9.424863	0.399773	-2.893403	0.102860	-0.196196	0.477206	166.828832	-75.820620	154.535885
03272		9.786455	0.509382	-2.748588	0.040339	-0.173894	0.467965	167.977363	-75.786716	153.373109
03273		9.743274	0.560668	-2.482371	-0.106865	-0.099286	0.441471	168.938539	-75.785652	152.316010
03274		9.517924	0.363485	-2.388365	-0.287999	-0.050382	0.396435	169.682144	-75.804181	151.376833
03275		9.456259	0.060649	-2.324042	-0.418282	-0.055305	0.367155	170.282964	-75.813620	150.507491
03276		9.493934	-0.246889	-2.380306	-0.449779	-0.044805	0.351335	170.834022	-75.826019	149.671418
03277		9.347696	-0.499242	-2.466737	-0.416588	-0.032517	0.362097	171.418674	-75.843656	148.819852
03278		9.196282	-0.718734	-2.489973	-0.341896	-0.051910	0.372070	172.083220	-75.849447	147.930610
03279		9.116374	-1.047623	-2.531334	-0.257533	-0.091479	0.382351	172.823894	-75.830286	147.012140
03280		9.204373	-1.323409	-2.615090	-0.133460	-0.118233	0.388679	173.661529	-75.793771	146.067456
03281		9.238157	-1.354328	-2.681682	-0.020601	-0.119808	0.393846	174.563456	-75.752641	145.122409
03282		9.231916	-1.309828	-2.751599	0.059584	-0.114376	0.390869	175.506195	-75.711183	144.183130
03283		9.224946	-1.291806	-2.844214	0.152415	-0.115763	0.376267	176.455784	-75.664109	143.290841
03284		9.166633	-1.106831	-2.859547	0.253102	-0.128798	0.360699	177.431981	-75.605749	142.431133
03285		9.054694	-0.917667	-2.852816	0.332343	-0.150184	0.337999	178.388206	-75.530767	141.637964
03286		9.030581	-0.674092	-2.911050	0.394854	-0.177252	0.315256	179.330564	-75.436990	140.896570
03287		9.221663	-0.408548	-2.961393	0.435623	-0.191040	0.301568	-179.753662	-75.332084	140.205701
03288		9.479165	-0.176353	-2.858336	0.406138	-0.180540	0.294988	-178.871045	-75.230636	139.532103
03289		9.743871	-0.044603	-2.645734	0.308149	-0.142219	0.285022	-178.082843	-75.148717	138.897025
03290		9.942471	-0.080496	-2.569855	0.229298	-0.087055	0.259886	-177.387306	-75.096900	138.311670
03291		9.780290	0.023504	-2.501488	0.176103	-0.041224	0.213416	-176.829699	-75.070989	137.836621
03292		9.484615	0.153293	-2.617921	0.126596	-0.028633	0.162784	-176.400200	-75.052959	137.465534
03293		9.355375	0.239577	-2.567361	0.044526	-0.059047	0.114294	-176.135520	-75.018763	137.215553
03294		9.431546	0.213565	-2.666877	0.002557	-0.085532	0.086656	-175.950416	-74.970260	137.023778
03295		9.390470	0.232092	-2.596124	-0.031852	-0.080408	0.070281	-175.828614	-74.925240	136.876332
03296		9.372052	0.090583	-2.530004	-0.087398	-0.094573	0.066745	-175.740905	-74.872176	136.731947
03297		9.406493	-0.180710	-2.532351	-0.092199	-0.087406	0.071633	-175.653482	-74.822970	136.584228
03298		9.423391	-0.525314	-2.504775	-0.080488	-0.090990	0.068324	-175.559627	-74.771763	136.437501
03299		9.555703	-0.842178	-2.521143	-0.062514	-0.097165	0.072970	-175.455612	-74.716796	136.290140
03300		9.717081	-1.030943	-2.580233	0.008314	-0.088781	0.086687	-175.273894	-74.665839	136.105009
03301		9.695400	-0.986725	-2.643536	0.090527	-0.050640	0.093650	-175.033121	-74.636194	135.906696
03302		9.477317	-0.854136	-2.677752	0.117698	-0.030238	0.094811	-174.763082	-74.617834	135.694932
03303		9.343377	-0.813998	-2.670575	0.126992	-0.039015	0.083063	-174.522642	-74.594920	135.518592
03304		9.404618	-0.737151	-2.778615	0.166610	-0.071027	0.078058	-174.268641	-74.553738	135.352501
03305		9.503143	-0.635491	-2.689750	0.206322	-0.083380	0.071119	-174.018330	-74.505828	135.213016
03306		9.592047	-0.663146	-2.586564	0.175247	-0.094120	0.062509	-173.798550	-74.452051	135.087514
03307		9.749043	-0.819048	-2.710228	0.167490	-0.084588	0.061345	-173.593004	-74.403780	134.971333
03308		9.640523	-0.924111	-2.727869	0.200574	-0.067121	0.056635	-173.366502	-74.365509	134.853875
03309		9.434798	-0.947270	-2.666446	0.210338	-0.052162	0.040704	-173.172424	-74.336844	134.775055
03310		9.280214	-1.037355	-2.714492	0.192787	-0.033967	0.027930	-173.001637	-74.319192	134.710814
03311		9.095160	-1.094421	-2.741247	0.211221	-0.022378	0.026268	-172.829608	-74.308350	134.655408
03312		9.024048	-1.016902	-2.751590	0.253564	-0.025807	0.031304	-172.615378	-74.294966	134.582227
03313		8.996084	-1.016560	-2.813986	0.324890	-0.035771	0.045747	-172.342865	-74.274942	134.490082
03314		9.103749	-0.896125	-2.931736	0.431835	-0.066649	0.055476	-171.989650	-74.236277	134.378627
03315		9.224962	-0.749221	-2.957362	0.531130	-0.084272	0.057814	-171.590094	-74.187463	134.277226
03316		9.370286	-0.542719	-2.927566	0.594882	-0.085512	0.048528	-171.165513	-74.138278	134.188657
03317		9.401561	-0.323312	-2.791004	0.615975	-0.062065	0.026279	-170.776105	-74.104477	134.148302
03318		9.353513	-0.143166	-2.647299	0.584989	-0.051865	0.007358	-170.430615	-74.077848	134.136044
03319		9.295056	-0.014937	-2.679966	0.481505	-0.043301	-0.002903	-170.171165	-74.057333	134.150705
03320		9.255696	-0.023498	-2.817386	0.377589	-0.014717	-0.006868	-169.960861	-74.053072	134.155435
03321		9.141013	0.091665	-2.846376	0.296110	-0.023388	-0.002572	-169.800477	-74.043786	134.162653
03322		9.146175	0.148135	-2.956176	0.161490	-0.033292	0.010158	-169.687399	-74.027322	134.139702
03323		9.267621	0.009567	-3.032298	0.036951	-0.049501	0.030573	-169.619784	-73.999915	134.088961
03324		9.274625	-0.273848	-2.967067	-0.012723	-0.041066	0.052200	-169.527319	-73.974668	133.983579
03325		9.288317	-0.565710	-2.810832	-0.004147	-0.044222	0.072399	-169.399863	-73.945806	133.846059
03326		9.388830	-0.715594	-2.709797	0.019214	-0.059367	0.103074	-169.197408	-73.904682	133.645213
03327		9.602398	-0.782017	-2.513102	0.016361	-0.062293	0.136427	-168.941722	-73.858437	133.386393
03328		9.825383	-0.761538	-2.400652	-0.021703	-0.024170	0.165936	-168.629500	-73.829598	133.046781
03329		9.736446	-0.710414	-2.277981	-0.071075	0.011848	0.179053	-168.314747	-73.819349	132.674222
03330		9.540116	-0.518654	-2.198742	-0.142100	0.038588	0.178525	-168.023310	-73.823245	132.284385
03331		9.233799	-0.495297	-2.249115	-0.197826	0.023745	0.168780	-167.796528	-73.819876	131.927801
03332		9.195260	-0.453979	-2.473685	-0.238349	-0.042347	0.163668	-167.623334	-73.779439	131.603617
03333		9.326597	-0.580432	-2.822279	-0.322892	-0.063889	0.168132	-167.508154	-73.726520	131.288515
03334		9.334998	-0.802183	-2.869985	-0.408713	-0.050824	0.182718	-167.402415	-73.678558	130.932743
03335		9.279039	-1.166158	-2.762745	-0.453354	-0.028948	0.188695	-167.310295	-73.642273	130.563628
03336		9.147324	-1.447370	-2.609736	-0.397426	-0.014993	0.192045	-167.167141	-73.612735	130.175474
03337		8.989955	-1.621242	-2.503957	-0.323739	-0.033105	0.204022	-166.975674	-73.571647	129.780081
03338		9.066675	-1.726830	-2.470863	-0.274816	-0.075507	0.225724	-166.727960	-73.503189	129.356000
03339		9.295785	-1.792750	-2.651632	-0.177877	-0.101386	0.246687	-166.407885	-73.417391	128.913360
03340		9.459639	-1.617370	-2.680863	-0.016143	-0.098278	0.250629	-165.982536	-73.331461	128.458249
03341		9.408514	-1.177916	-2.581102	0.113218	-0.082159	0.241685	-165.504533	-73.255241	128.024470
03342		9.311384	-0.849644	-2.422087	0.190999	-0.074492	0.221940	-165.010513	-73.184553	127.621251
03343		9.368140	-0.602259	-2.382627	0.239183	-0.064243	0.207073	-164.522640	-73.121334	127.252247
03344		9.376128	-0.304760	-2.446012	0.238088	-0.055208	0.193873	-164.049839	-73.063715	126.899128
03345		9.511341	-0.174501	-2.577953	0.180205	-0.062640	0.183193	-163.644000	-73.003476	126.580330
03346		9.601693	-0.125880	-2.630054	0.108841	-0.058991	0.175361	-163.285909	-72.945379	126.269483
03347		9.510825	-0.175177	-2.716215	0.026762	-0.044936	0.180346	-162.968129	-72.894156	125.950639
03348		9.305469	-0.339126	-2.639455	-0.057484	-0.041626	0.182742	-162.687034	-72.843342	125.620435
03349		9.283900	-0.520993	-2.686267	-0.069846	-0.063521	0.186355	-162.428003	-72.780000	125.304961
03350		9.452454	-0.636776	-2.691222	-0.033448	-0.075120	0.188517	-162.145951	-72.709002	124.987933
03351		9.491693	-0.694475	-2.686123	-0.004054	-0.068639	0.187477	-161.854678	-72.641769	124.677939
03352		9.416538	-0.710799	-2.679309	0.024241	-0.060870	0.194961	-161.525204	-72.576404	124.345608
03353		9.390330	-0.681320	-2.684062	0.068134	-0.057258	0.202266	-161.165238	-72.511588	124.006740
03354		9.436795	-0.667005	-2.742466	0.103776	-0.065470	0.202890	-160.784599	-72.441039	123.668286
03355		9.350543	-0.630310	-2.853092	0.099970	-0.059661	0.201340	-160.414773	-72.373783	123.337955
03356		9.222724	-0.638199	-2.819167	0.086223	-0.051042	0.213947	-160.022427	-72.307547	122.976390
03357		9.200850	-0.681421	-2.877182	0.114890	-0.070702	0.222657	-159.620546	-72.228790	122.621124
03358		9.314977	-0.604297	-2.896393	0.140991	-0.076122	0.235091	-159.183592	-72.143293	122.245335
03359		9.319092	-0.543613	-2.927121	0.162895	-0.066067	0.246463	-158.718933	-72.060483	121.852671
03360		9.378866	-0.531552	-2.914741	0.175463	-0.076107	0.255640	-158.236622	-71.968846	121.449576
03361		9.460445	-0.546866	-2.822150	0.157611	-0.081177	0.266684	-157.760301	-71.871672	121.041054
03362		9.696994	-0.648683	-2.718761	0.117253	-0.075286	0.268871	-157.298662	-71.775551	120.624148
03363		9.676556	-0.852770	-2.672571	0.129476	-0.044542	0.271070	-156.815756	-71.694658	120.191284
03364		9.567669	-0.976984	-2.588077	0.183943	-0.023209	0.271478	-156.284931	-71.623153	119.741327
03365		9.395437	-1.058172	-2.676539	0.243596	-0.030697	0.268054	-155.739774	-71.547749	119.311392
03366		9.245267	-1.083377	-2.841049	0.339151	-0.050795	0.256960	-155.170317	-71.462668	118.914057
03367		9.209092	-1.001547	-2.921854	0.453467	-0.070438	0.245313	-154.577278	-71.369498	118.560042
03368		9.138877	-0.816832	-2.873201	0.558798	-0.059968	0.241412	-153.921857	-71.280941	118.204375
03369		9.187339	-0.569323	-2.712778	0.610695	-0.047227	0.234547	-153.247210	-71.199911	117.858946
03370		9.376043	-0.443625	-2.693328	0.594591	-0.036494	0.238217	-152.567644	-71.121566	117.499060
03371		9.502590	-0.415886	-2.701819	0.527189	-0.035014	0.240038	-151.931751	-71.042698	117.143695
03372		9.559678	-0.512571	-2.758434	0.422535	-0.047842	0.258324	-151.338878	-70.950672	116.770840
03373		9.587350	-0.749916	-2.767856	0.320005	-0.047665	0.300779	-150.752234	-70.846209	116.341576
03374		9.552484	-1.177987	-2.740593	0.284379	-0.042819	0.338886	-150.129164	-70.731468	115.852412
03375		9.479990	-1.494572	-2.733556	0.347326	-0.021885	0.363576	-149.428749	-70.618578	115.318590
03376		9.254251	-1.650213	-2.686714	0.461346	0.001456	0.382051	-148.621226	-70.508951	114.740662
03377		9.105162	-1.670087	-2.611859	0.562897	-0.010291	0.390766	-147.765443	-70.388651	114.172291
03378		9.212765	-1.565654	-2.707230	0.627947	-0.028633	0.401577	-146.878798	-70.252831	113.610836
03379		9.331037	-1.424765	-2.954756	0.672661	-0.027095	0.406042	-145.972978	-70.113859	113.055186
03380		9.322229	-1.321468	-3.112017	0.736429	0.012834	0.417032	-144.987150	-69.986619	112.453369
03381		9.484487	-0.875815	-3.090809	0.766387	-0.011790	0.438515	-143.993076	-69.837694	111.859972
03382		10.009562	-0.302570	-3.125464	0.639708	-0.052008	0.469994	-143.077855	-69.655686	111.273141
03383		10.122292	-0.182624	-3.096827	0.421557	0.008671	0.497374	-142.213512	-69.489136	110.606049
03384		9.755199	-0.299044	-2.771063	0.228674	0.049910	0.518492	-141.404687	-69.329914	109.879934
03385		9.639238	-0.620495	-2.579941	0.038158	0.006375	0.523740	-140.754405	-69.146548	109.205379
03386		9.749798	-1.103936	-2.681096	-0.118293	0.011185	0.510184	-140.213528	-68.967493	108.551543
03387		9.898907	-1.535824	-2.683743	-0.210069	0.003169	0.490944	-139.766663	-68.790287	107.940967
03388		10.108281	-1.961365	-2.754680	-0.233902	-0.008960	0.467675	-139.377516	-68.614620	107.377289
03389		10.023370	-2.213835	-2.791579	-0.211655	0.033176	0.429762	-138.986679	-68.470256	106.824536
03390		9.599037	-2.467625	-2.793616	-0.165277	0.077081	0.391723	-138.572822	-68.357571	106.275438
03391		9.253612	-2.701276	-2.787996	-0.097067	0.062641	0.352957	-138.182175	-68.252232	105.792643
03392		9.041797	-2.863131	-2.756450	-0.011586	0.005182	0.333446	-137.820783	-68.128534	105.394053
03393		8.921151	-3.065949	-2.865072	0.132659	-0.016905	0.331447	-137.406402	-67.995470	105.026749
03394		8.800068	-3.066258	-2.580930	0.344676	-0.029309	0.337023	-136.879797	-67.853648	104.669417
03395		8.766019	-2.869920	-2.530307	0.499696	-0.081234	0.367346	-136.291454	-67.677234	104.340595
03396		8.695687	-2.658706	-2.745815	0.579530	-0.078142	0.404311	-135.622965	-67.485728	103.974487
03397		8.528356	-2.303331	-2.881281	0.605237	-0.059206	0.439987	-134.897393	-67.286151	103.561612
03398		8.473203	-1.878390	-3.058454	0.616067	-0.089665	0.498333	-134.147805	-67.048165	103.129114
03399		8.570168	-1.424126	-3.114209	0.561838	-0.114882	0.564718	-133.406144	-66.770874	102.670271
03400		8.618547	-0.967517	-3.194053	0.420909	-0.145444	0.617469	-132.739389	-66.457061	102.204364
03401		8.699010	-0.828631	-3.238412	0.204167	-0.180540	0.664962	-132.204507	-66.107976	101.745361
03402		8.924894	-0.997258	-3.255527	0.019382	-0.203725	0.680491	-131.796637	-65.741664	101.308474
03403		9.011188	-1.357027	-3.165219	-0.152703	-0.183990	0.670973	-131.489516	-65.386058	100.872472
03404		8.997462	-2.035501	-3.020678	-0.305330	-0.160764	0.626205	-131.293856	-65.057571	100.461878
03405		9.106179	-3.046412	-2.868229	-0.370885	-0.136059	0.553082	-131.179806	-64.769593	100.098738
03406		9.203856	-4.186733	-2.908301	-0.331755	-0.088994	0.463205	-131.076408	-64.537742	99.771544
03407		9.255018	-5.025004	-3.037542	-0.209244	-0.036264	0.364773	-130.936775	-64.368085	99.481313
03408		9.107620	-5.519116	-3.022393	-0.060812	-0.003091	0.275879	-130.753425	-64.248841	99.236768
03409		9.070141	-5.777008	-2.949884	0.103958	0.035075	0.208750	-130.495761	-64.172817	99.014161
03410		9.048218	-5.665440	-2.926784	0.269362	0.084554	0.139591	-130.151940	-64.144489	98.801283
03411		9.066377	-5.272295	-2.673322	0.459051	0.143234	0.065958	-129.703522	-64.169806	98.592686
03412		9.070088	-4.704119	-2.357343	0.625135	0.198989	-0.013460	-129.166542	-64.249290	98.391840
03413		9.017729	-4.001029	-1.996085	0.726043	0.225252	-0.100320	-128.611223	-64.376612	98.234643
03414		8.823183	-3.459341	-1.923564	0.732549	0.231932	-0.188346	-128.106501	-64.544703	98.138225
03415		8.691494	-3.062109	-1.995484	0.739206	0.270086	-0.278236	-127.625958	-64.767032	98.072563
03416		8.488739	-2.763010	-2.030908	0.791796	0.333134	-0.354997	-127.104536	-65.045500	97.995552
03417		8.254031	-2.523463	-1.909832	0.858315	0.352415	-0.437402	-126.582320	-65.368558	97.959454
03418		8.109273	-2.347631	-1.593740	0.871041	0.320056	-0.514707	-126.135211	-65.715724	98.014342
03419		8.069476	-2.199399	-1.460666	0.746166	0.320954	-0.608458	-125.826712	-66.107236	98.142162
03420		8.099278	-2.228305	-1.449374	0.620927	0.282489	-0.678393	-125.681089	-66.518246	98.369439
03421		8.419158	-2.604766	-1.468685	0.482023	0.215234	-0.681859	-125.695124	-66.908842	98.682848
03422		9.166169	-3.253493	-1.315353	0.397603	0.238344	-0.644167	-125.706051	-67.289328	98.939819
03423		9.526322	-3.584710	-1.296750	0.334662	0.333112	-0.593054	-125.611105	-67.678018	99.042081
03424		9.644293	-3.703257	-1.517082	0.267004	0.388412	-0.513097	-125.423464	-68.047686	99.002507
03425		9.828414	-3.745855	-1.700711	0.185020	0.425946	-0.402584	-125.145072	-68.378265	98.814350
03426		9.882270	-3.747806	-1.792913	0.104817	0.497609	-0.268800	-124.705141	-68.668817	98.404006
03427		9.562102	-3.489820	-1.844726	0.026436	0.555525	-0.162227	-124.140951	-68.926682	97.812597
03428		9.023857	-3.042308	-2.038547	-0.070164	0.504629	-0.089369	-123.619039	-69.131319	97.208502
03429		8.949904	-2.538377	-2.011480	-0.200421	0.368634	-0.009632	-123.270180	-69.253523	96.709961
03430		8.991837	-2.390163	-1.794787	-0.407524	0.307832	0.087726	-123.030157	-69.308770	96.201583
03431		8.828927	-2.279265	-1.678698	-0.562884	0.309194	0.135597	-122.838709	-69.341038	95.649752
03432		8.475032	-2.163372	-1.552678	-0.676116	0.326650	0.133422	-122.688004	-69.378919	95.072619
03433		8.068457	-2.104495	-1.652219	-0.768085	0.315197	0.092870	-122.638967	-69.432731	94.547618
03434		8.019156	-2.116342	-1.793172	-0.812558	0.263652	0.016988	-122.740567	-69.507028	94.156822
03435		8.242908	-2.335449	-1.845897	-0.874455	0.237650	-0.068145	-122.983378	-69.614861	93.878768
03436		8.460188	-2.681694	-1.947211	-0.857286	0.242459	-0.184119	-123.305622	-69.780086	93.696465
03437		8.765011	-2.696395	-1.996684	-0.709984	0.226527	-0.305539	-123.672286	-69.998896	93.651247
03438		9.070182	-2.435870	-1.961125	-0.544674	0.231075	-0.422960	-124.043110	-70.274879	93.711538
03439		9.081771	-2.226297	-1.898495	-0.417234	0.236808	-0.532055	-124.440672	-70.604478	93.877271
03440		9.031945	-2.001873	-1.882939	-0.301378	0.242850	-0.635878	-124.868524	-70.984354	94.145297
03441		8.846295	-1.803781	-1.731285	-0.208808	0.248642	-0.729459	-125.342781	-71.409510	94.517438
03442		8.725590	-1.731618	-1.502082	-0.130015	0.264170	-0.828234	-125.867693	-71.884635	94.989787
03443		8.744020	-1.727037	-1.433369	-0.093978	0.258295	-0.930918	-126.518947	-72.403862	95.614969
03444		8.863888	-1.702707	-1.286830	-0.096744	0.250207	-1.044395	-127.348142	-72.969664	96.423229
03445		9.247593	-1.671287	-1.153711	-0.125676	0.219131	-1.138310	-128.412239	-73.563051	97.456735
03446		9.822051	-1.674282	-1.032578	-0.177456	0.199784	-1.210345	-129.704414	-74.175256	98.693784
03447		10.177282	-1.718856	-1.007312	-0.174327	0.233810	-1.287854	-131.151023	-74.825531	100.088886
03448		10.312338	-1.689114	-0.882008	-0.095526	0.277802	-1.370036	-132.726013	-75.517735	101.659259
03449		10.195988	-1.647812	-0.854106	-0.006321	0.277044	-1.449204	-134.537772	-76.230206	103.521324
03450		10.089679	-1.535134	-1.025654	0.032861	0.223915	-1.522744	-136.742250	-76.934270	105.804740
03451		10.078945	-1.519826	-1.259322	0.019440	0.138842	-1.565462	-139.436683	-77.594931	108.576085
03452		10.186515	-1.558633	-1.431319	0.008756	0.085240	-1.594908	-142.586026	-78.210708	111.799769
03453		10.236999	-1.519442	-1.582926	0.013670	0.078501	-1.612405	-146.126516	-78.788411	115.418315
03454		10.170344	-1.507268	-1.551339	0.015522	0.134213	-1.614135	-149.952816	-79.346629	119.322060
03455		10.069545	-1.405520	-1.590035	0.032840	0.163623	-1.606057	-154.112746	-79.864239	123.568050
03456		10.112577	-1.235727	-1.652212	0.057430	0.138549	-1.586075	-158.645850	-80.305056	128.200943
03457		10.341239	-1.099758	-1.705293	0.069192	0.090415	-1.548265	-163.497015	-80.645461	133.157645
03458		10.556994	-1.018001	-1.833427	0.111737	0.047666	-1.513279	-168.555284	-80.885669	138.344839
03459		10.701747	-0.895392	-1.869428	0.156009	0.024383	-1.473079	-173.686737	-81.033586	143.628889
03460		10.725535	-0.770965	-1.850299	0.161811	0.045850	-1.457178	-178.880916	-81.118482	148.978211
03461		10.546055	-0.524727	-1.747479	0.148868	0.057280	-1.448403	175.887845	-81.133573	154.356700
03462		10.279908	-0.164419	-1.711058	0.106689	0.021912	-1.443774	170.700027	-81.054102	159.667349
03463		10.048332	0.141705	-1.729331	0.021580	-0.026238	-1.437044	165.661853	-80.874631	164.778895
03464		9.860751	0.397983	-1.676919	-0.072445	-0.058256	-1.430865	160.860712	-80.611182	169.598968
03465		9.719459	0.633290	-1.624616	-0.170900	-0.087777	-1.426325	156.347939	-80.270032	174.073540
03466		9.775357	0.859019	-1.526768	-0.308999	-0.094396	-1.407051	152.150591	-79.875657	178.152574
03467		9.922932	0.899911	-1.473382	-0.458638	-0.090007	-1.382622	148.252917	-79.440977	-178.154951
03468		10.143800	0.956648	-1.422215	-0.570512	-0.062313	-1.338829	144.664204	-78.991912	-174.836869
03469		10.389362	1.015589	-1.392915	-0.641635	-0.028890	-1.290640	141.363256	-78.537466	-171.848671
03470		10.549100	1.032991	-1.439977	-0.661373	0.025951	-1.248541	138.284746	-78.091782	-169.094360
03471		10.496226	1.186035	-1.486823	-0.625218	0.085991	-1.224658	135.377194	-77.651192	-166.489260
03472		10.079290	1.251607	-1.634295	-0.549706	0.089133	-1.219647	132.709053	-77.188711	-164.080602
03473		9.818002	1.326139	-1.617951	-0.458152	0.024409	-1.211394	130.405551	-76.681990	-161.987800
03474		9.707740	1.397978	-1.420730	-0.412714	-0.031690	-1.200611	128.408077	-76.143150	-160.178503
03475		9.748644	1.458467	-1.112190	-0.441642	-0.061777	-1.177472	126.623021	-75.589723	-158.601101
03476		9.890096	1.500791	-0.925324	-0.522470	-0.046318	-1.157001	124.914844	-75.040434	-157.147134
03477		10.022450	1.674022	-0.818227	-0.607834	0.048111	-1.148841	123.117512	-74.513357	-155.647813
03478		10.089436	1.920366	-0.837824	-0.692705	0.203292	-1.159816	121.104051	-74.016384	-153.970770
03479		10.048845	2.096832	-1.041839	-0.751885	0.346882	-1.166787	118.920328	-73.539809	-152.147627
03480		9.934262	2.157137	-1.085323	-0.775467	0.432375	-1.155209	116.702476	-73.073759	-150.298561
03481		9.600426	2.043983	-1.008252	-0.787486	0.441045	-1.115169	114.605357	-72.609884	-148.578446
03482		9.433636	1.721222	-0.829436	-0.779222	0.402261	-1.047408	112.722261	-72.156358	-147.073651
03483		9.276794	1.263140	-0.738823	-0.714659	0.356750	-0.966253	111.085717	-71.721458	-145.785454
03484		9.101967	0.975121	-0.664007	-0.618341	0.334286	-0.880566	109.655407	-71.318703	-144.653465
03485		8.990013	0.795017	-0.679890	-0.507678	0.332574	-0.805006	108.385433	-70.947103	-143.621253
03486		8.866634	0.836069	-0.721053	-0.375645	0.347519	-0.732497	107.244995	-70.612008	-142.643970
03487		8.718280	0.907689	-0.628374	-0.236333	0.363709	-0.667272	106.225127	-70.308109	-141.707944
03488		8.624363	1.092128	-0.619615	-0.077460	0.346083	-0.608255	105.375489	-70.030349	-140.854467
03489		8.596374	1.343895	-0.773845	0.085607	0.308558	-0.553479	104.721121	-69.772129	-140.107923
03490		8.458402	1.594093	-0.941158	0.211836	0.246383	-0.496118	104.269163	-69.535891	-139.498985
03491		8.274364	1.849252	-0.909056	0.322811	0.163280	-0.434256	104.038637	-69.319584	-139.057695
03492		8.238035	2.138701	-0.801280	0.386995	0.069535	-0.364813	104.012304	-69.130138	-138.794914
03493		8.209914	2.368249	-0.886152	0.376245	-0.019376	-0.293885	104.137546	-68.966181	-138.700687
03494		8.534321	2.551619	-1.214975	0.381774	-0.052660	-0.231792	104.335036	-68.833780	-138.680436
03495		8.860459	2.858059	-1.327243	0.343453	0.016369	-0.183764	104.429687	-68.736210	-138.573381
03496		8.807434	3.300409	-1.240978	0.215667	0.084457	-0.129185	104.373585	-68.680333	-138.383059
03497		8.757810	3.544794	-1.257387	0.013786	0.096017	-0.063465	104.210655	-68.660760	-138.202174
03498		8.719895	3.589472	-1.145009	-0.164437	0.130300	0.003345	103.920035	-68.684491	-137.993831
03499		8.606759	3.541639	-0.881156	-0.279263	0.148007	0.054098	103.556139	-68.736790	-137.777514
03500		8.581814	3.551404	-0.582279	-0.374507	0.128503	0.111390	103.182868	-68.819552	-137.609776
03501		8.669149	3.580895	-0.612451	-0.490143	0.113676	0.176481	102.785033	-68.934720	-137.486847
03502		8.653211	3.642798	-0.682413	-0.587849	0.106311	0.222839	102.353212	-69.076153	-137.387592
03503		8.433702	3.799538	-0.746895	-0.702263	0.076072	0.241688	101.903614	-69.222646	-137.339549
03504		8.436636	4.041208	-0.810740	-0.754958	-0.005138	0.224484	101.535031	-69.351441	-137.410455
03505		8.686367	4.211193	-0.857980	-0.620399	-0.094611	0.186043	101.365283	-69.447061	-137.611350
03506		8.982472	4.367749	-0.824714	-0.374777	-0.169302	0.163095	101.441206	-69.522829	-137.924193
03507		9.065195	4.503021	-0.568452	-0.248714	-0.144629	0.165314	101.555274	-69.601039	-138.200491
03508		8.796255	4.340388	-0.470431	-0.212455	-0.093473	0.167946	101.614119	-69.687810	-138.395604
03509		8.601794	4.022720	-0.272558	-0.247383	-0.043452	0.173884	101.580595	-69.782316	-138.513449
03510		8.420189	3.563796	-0.211637	-0.236457	-0.049873	0.200274	101.570937	-69.892170	-138.650014
03511		8.275311	3.200172	-0.159487	-0.198666	-0.112562	0.208794	101.684011	-69.998266	-138.894045
03512		8.945639	3.119309	-0.330233	-0.171495	-0.235190	0.222257	102.007758	-70.098397	-139.345536
03513		9.450478	3.116302	-0.621623	-0.096125	-0.219790	0.211980	102.352294	-70.192504	-139.772884
03514		9.267515	3.207699	-0.688925	0.102746	-0.173649	0.201094	102.737830	-70.286577	-140.122522
03515		8.838113	3.444427	-0.503873	0.308696	-0.184434	0.197182	103.261585	-70.374893	-140.493380
03516		8.418219	3.526199	-0.446291	0.400716	-0.211477	0.200771	103.884849	-70.461543	-140.913745
03517		8.190926	3.541311	-0.572360	0.389395	-0.198946	0.231410	104.499861	-70.564215	-141.331939
03518		7.963501	3.575347	-0.640408	0.359742	-0.188382	0.283058	105.107315	-70.696723	-141.759887
03519		8.029599	3.365239	-0.499844	0.360468	-0.241025	0.349013	105.836236	-70.854764	-142.315596
03520		9.197454	2.894290	-0.384959	0.346790	-0.379046	0.436399	106.828541	-71.036968	-143.157735
03521		11.188516	2.410091	-0.320029	0.242978	-0.441798	0.549181	107.938485	-71.263906	-144.185934
03522		11.854392	1.805030	-0.527712	0.217188	-0.217815	0.648058	108.749597	-71.580591	-144.912869
