// General information: 
//  MT Manager version: 2022.2.0 
//  XDA version: 2022.2.0 build 7381 rev 124627 built on 2023-07-19
// Device information: 
//  DeviceId: 00B4BB52
//  ProductCode: MTW2-3A7G6
//  Firmware Version: 4.6.0
//  Hardware Version: 2.0.0
// Device settings: 
//  Filter Profile: human(46.1)
//  Option Flags: Orientation Smoother Disabled, Position/Velocity Smoother Disabled, Continuous Zero Rotation Update Disabled, AHS Disabled, ICC Disabled
// Coordinate system: ENU
PacketCounter	SampleTimeFine	Acc_X	Acc_Y	Acc_Z	Gyr_X	Gyr_Y	Gyr_Z	Roll	Pitch	Yaw
02305		-0.652221	-9.798541	0.810794	-0.007622	0.024612	-0.000399	-84.457395	3.961426	55.920456
02306		-0.678012	-9.846883	0.835802	0.015376	0.019054	0.015909	-84.453104	3.966926	55.908835
02307		-0.714032	-9.881732	0.832382	0.040441	0.020966	0.037327	-84.426643	3.988370	55.897591
02308		-0.722187	-9.726306	0.942018	0.040395	0.014984	0.043276	-84.407790	4.009255	55.889822
02309		-0.742742	-9.709077	0.937661	0.035876	0.021997	0.044742	-84.383964	4.034994	55.878421
02310		-0.738927	-9.721585	0.971300	0.025362	0.021956	0.043897	-84.374014	4.056638	55.866709
02311		-0.791993	-9.705536	0.954519	0.021367	0.018842	0.039589	-84.358402	4.079268	55.856834
02312		-0.733511	-9.786062	0.885980	0.025984	0.020089	0.042854	-84.348030	4.100233	55.846132
02313		-0.831825	-9.680991	0.996322	0.014684	0.010070	0.037163	-84.335904	4.120988	55.841144
02314		-0.732442	-9.764122	0.915187	0.016712	0.015185	0.037533	-84.330675	4.138667	55.832944
02315		-0.764950	-9.647478	0.992398	-0.003104	0.007933	0.026611	-84.328698	4.153286	55.828582
02316		-0.793022	-9.685944	0.963121	-0.003030	0.015072	0.023030	-84.334841	4.162701	55.819618
02317		-0.771378	-9.705892	0.947456	-0.010289	0.012927	0.019260	-84.337221	4.173410	55.811982
02318		-0.774953	-9.764534	0.902395	-0.013627	0.009155	0.016262	-84.349217	4.178651	55.806010
02319		-0.800382	-9.744428	0.916444	-0.002465	0.009698	0.014877	-84.347000	4.186677	55.799970
02320		-0.783906	-9.702304	0.967738	-0.006454	0.006602	0.010561	-84.354816	4.188545	55.795129
02321		-0.817002	-9.703348	0.955684	-0.014374	0.006381	-0.004021	-84.359362	4.185608	55.789917
02322		-0.783608	-9.702602	0.964980	-0.018889	0.014654	-0.012057	-84.374721	4.175055	55.779196
02323		-0.813026	-9.645347	0.995008	-0.037348	0.010828	-0.022744	-84.392690	4.161689	55.770390
02324		-0.763613	-9.720179	0.966261	-0.039933	0.015898	-0.029195	-84.420204	4.141454	55.758004
02325		-0.801652	-9.708672	0.919870	-0.051118	0.015373	-0.033736	-84.446288	4.122065	55.746000
02326		-0.758373	-9.746033	0.907743	-0.052449	0.015536	-0.038729	-84.480980	4.096383	55.733315
02327		-0.802182	-9.706865	0.932236	-0.055042	0.020597	-0.045170	-84.509557	4.070747	55.717715
02328		-0.836523	-9.681195	0.986475	-0.075577	0.010476	-0.064522	-84.557373	4.030088	55.706546
02329		-0.844918	-9.631758	0.966691	-0.065493	0.038587	-0.087514	-84.592794	3.981252	55.678397
02330		-0.803736	-9.700705	0.979445	-0.091185	0.042108	-0.118552	-84.650941	3.911498	55.646306
02331		-0.809233	-9.744593	0.917013	-0.114849	0.050610	-0.137331	-84.715213	3.834828	55.608729
02332		-0.869178	-9.814244	0.915271	-0.120177	0.057150	-0.163166	-84.790568	3.740373	55.565872
02333		-0.681545	-9.745807	0.925967	-0.126857	0.054148	-0.165556	-84.861813	3.647686	55.525010
02334		-0.462593	-10.086603	0.613942	-0.135394	0.050440	-0.123339	-84.945340	3.575542	55.488293
02335		-0.467336	-9.910257	0.626823	-0.056460	0.041885	-0.072451	-84.975413	3.535282	55.459362
02336		-0.581583	-9.798824	0.801147	-0.007768	0.036666	-0.041675	-84.985078	3.508959	55.434727
02337		-0.676875	-9.847237	0.824635	-0.014432	0.012253	-0.015801	-84.989834	3.499535	55.425603
02338		-0.457153	-9.873283	0.773273	0.002060	0.014598	0.001615	-84.992953	3.496823	55.415764
02339		-0.535356	-10.002476	0.584868	0.052116	0.012744	0.044498	-84.959413	3.521842	55.409388
02340		-1.008684	-9.800135	0.765135	0.067024	-0.022597	0.046170	-84.923906	3.542660	55.423067
02341		-0.535208	-9.921904	0.670619	0.114131	-0.059553	0.055334	-84.852238	3.570181	55.458621
02342		-0.547369	-9.869258	0.804372	0.140404	-0.060043	0.065238	-84.773306	3.599975	55.494743
02343		-0.582547	-9.713586	1.049052	0.174496	-0.067335	0.075507	-84.666659	3.638491	55.535896
02344		-0.640434	-9.400558	1.288831	0.132043	-0.116468	0.087498	-84.590304	3.677845	55.605565
02345		-0.952489	-9.503409	1.025935	0.035334	-0.208485	0.093835	-84.558059	3.719064	55.728493
02346		-1.125474	-9.742383	0.799553	0.002970	-0.336331	0.040772	-84.547503	3.719817	55.921337
02347		-0.622370	-10.058382	0.707302	0.044227	-0.460930	-0.068846	-84.501480	3.654344	56.179666
02348		0.345597	-10.221633	0.614445	0.135644	-0.513222	-0.257664	-84.410237	3.474937	56.457020
02349		-0.666039	-8.788280	1.322865	0.123434	-0.412132	-0.276514	-84.322547	3.293087	56.675508
02350		-2.020053	-8.999860	1.408348	-0.045514	-0.218692	-0.109430	-84.345683	3.214201	56.792638
02351		-0.672661	-10.006848	0.991679	-0.111377	0.061897	-0.195548	-84.408054	3.105170	56.744961
02352		-0.492607	-10.346719	0.691458	-0.116441	0.023374	-0.200829	-84.479752	2.988087	56.718924
02353		0.076196	-9.584800	0.644883	-0.164254	-0.039435	-0.071197	-84.568897	2.944317	56.736216
02354		-0.448400	-9.638422	0.888927	0.019882	-0.002596	-0.030531	-84.561257	2.922813	56.734524
02355		-0.522442	-9.369466	1.317254	-0.050638	-0.011016	0.001388	-84.585943	2.921999	56.739559
02356		-0.410126	-9.565402	1.033639	-0.177298	-0.029970	0.020762	-84.690247	2.928299	56.756278
02357		-0.474573	-9.758309	0.893647	-0.182849	-0.036161	0.050494	-84.789813	2.954196	56.778264
02358		-0.538039	-9.799755	0.838309	-0.153184	-0.039877	0.060690	-84.879842	2.982825	56.802671
02359		-0.542246	-9.776701	0.872645	-0.151210	-0.046781	0.067021	-84.960900	3.017685	56.831485
02360		-0.597651	-9.796776	0.845506	-0.138793	-0.046313	0.064607	-85.042435	3.048329	56.859665
02361		-0.663610	-9.861327	0.744079	-0.134983	-0.047951	0.059452	-85.114153	3.078889	56.888681
02362		-0.668156	-9.896144	0.736718	-0.109543	-0.029471	0.038107	-85.179485	3.095345	56.905853
02363		-0.638093	-9.895381	0.737210	-0.092713	-0.034681	0.024648	-85.227469	3.106734	56.925545
02364		-0.601447	-9.921166	0.668046	-0.056604	-0.028040	0.015805	-85.262569	3.110609	56.940802
02365		-0.610078	-9.884102	0.683494	-0.013168	-0.028750	0.015335	-85.265182	3.116981	56.956650
02366		-0.607592	-9.802456	0.777229	0.005278	-0.026985	0.015100	-85.264873	3.120548	56.971264
02367		-0.614256	-9.775709	0.850078	0.003302	-0.026192	0.014748	-85.258128	3.126705	56.985621
02368		-0.568151	-9.745969	0.810410	0.007350	-0.025443	0.020191	-85.256630	3.133291	56.999595
02369		-0.603022	-9.781327	0.804921	-0.002472	-0.022690	0.021977	-85.253281	3.143740	57.012293
02370		-0.628220	-9.761794	0.820467	-0.005950	-0.024062	0.011922	-85.259430	3.145703	57.025083
02371		-0.596254	-9.760536	0.830169	-0.007191	-0.015554	0.011699	-85.259033	3.150622	57.033213
02372		-0.588095	-9.705583	0.851049	-0.011090	-0.015191	0.014543	-85.268356	3.154544	57.041051
02373		-0.542361	-9.744553	0.817862	-0.022167	-0.018358	0.023189	-85.276419	3.165893	57.051328
02374		-0.561490	-9.762299	0.813041	-0.018690	-0.017000	0.033247	-85.289941	3.180438	57.061079
02375		-0.590819	-9.800606	0.782800	-0.009345	-0.019213	0.041992	-85.290576	3.202488	57.072727
02376		-0.623802	-9.754381	0.869833	-0.015899	-0.019788	0.044371	-85.302338	3.223282	57.084588
02377		-0.655331	-9.782021	0.785729	-0.019263	-0.011588	0.035516	-85.308910	3.241994	57.091564
02378		-0.625880	-9.780756	0.794343	-0.014651	-0.016281	0.038700	-85.320031	3.259764	57.101143
02379		-0.671546	-9.802418	0.757022	-0.009445	-0.011955	0.032547	-85.320970	3.276765	57.108186
02380		-0.641526	-9.801107	0.766903	0.001669	-0.014847	0.029802	-85.322775	3.289569	57.116520
02381		-0.675158	-9.812670	0.810805	0.008232	-0.009469	0.025066	-85.313684	3.302414	57.121792
02382		-0.670040	-9.815433	0.788278	0.002884	-0.007678	0.019397	-85.315018	3.309659	57.125538
02383		-0.631495	-9.817097	0.776220	0.014685	-0.006434	0.015589	-85.302354	3.317234	57.128631
02384		-0.647174	-9.776688	0.819812	0.018644	-0.003222	0.013930	-85.294784	3.321608	57.129572
02385		-0.695427	-9.737435	0.852753	0.005409	0.001782	0.006859	-85.287731	3.324583	57.127556
02386		-0.648465	-9.742235	0.816692	-0.004578	-0.001362	0.002730	-85.293504	3.322699	57.126907
02387		-0.632324	-9.758842	0.823362	-0.007161	0.003699	0.002268	-85.293729	3.323143	57.123579
02388		-0.663453	-9.770659	0.865763	-0.011842	0.002406	-0.000922	-85.303748	3.319389	57.120604
02389		-0.648610	-9.742484	0.813612	-0.019794	0.002036	-0.003511	-85.311171	3.316454	57.117956
02390		-0.641166	-9.779873	0.793017	-0.016515	0.003520	-0.005290	-85.323858	3.310301	57.114141
02391		-0.664454	-9.794755	0.811678	-0.014536	0.005126	-0.006120	-85.328377	3.306020	57.109604
02392		-0.623851	-9.796730	0.797553	-0.008564	0.003888	-0.002700	-85.336465	3.301406	57.105703
02393		-0.590861	-9.761392	0.803053	0.001393	-0.002602	0.006149	-85.331569	3.303770	57.106160
02394		-0.639011	-9.756527	0.839327	0.002129	0.000295	0.008639	-85.333335	3.305493	57.104844
02395		-0.609000	-9.744683	0.796084	-0.000486	-0.004281	0.012898	-85.329442	3.311633	57.106577
02396		-0.643459	-9.779953	0.790174	-0.001104	-0.002432	0.013968	-85.332902	3.316307	57.107071
02397		-0.659226	-9.773956	0.836437	0.000876	-0.000826	0.013139	-85.328343	3.322746	57.106838
02398		-0.652969	-9.742591	0.808823	-0.004423	-0.000268	0.011019	-85.333731	3.325881	57.105956
02399		-0.654055	-9.776835	0.812572	-0.007124	0.000047	0.007000	-85.333801	3.328854	57.104938
02400		-0.647392	-9.779814	0.788672	-0.008470	0.001409	0.004400	-85.341528	3.328332	57.102788
02401		-0.654790	-9.776891	0.811307	-0.001282	0.004940	-0.001409	-85.338436	3.326731	57.098578
02402		-0.630948	-9.796464	0.795227	-0.002019	0.002044	-0.003899	-85.342461	3.321541	57.095678
02403		-0.644765	-9.722075	0.832726	-0.000601	0.006668	-0.001288	-85.339034	3.320089	57.090486
02404		-0.652130	-9.753410	0.859886	-0.004626	-0.000123	-0.000820	-85.344416	3.316596	57.088972
02405		-0.651886	-9.719201	0.855070	-0.005926	-0.000002	0.000130	-85.343816	3.315643	57.087661
02406		-0.628379	-9.738789	0.838540	-0.007234	-0.002291	0.002259	-85.350540	3.313852	57.087533
02407		-0.670883	-9.760540	0.801387	-0.011861	-0.002414	0.001439	-85.353257	3.313536	57.087663
02408		-0.628479	-9.738962	0.836452	-0.012588	-0.002901	-0.002231	-85.362980	3.309197	57.087677
02409		-0.646961	-9.780279	0.783244	-0.009244	0.002163	-0.002818	-85.364361	3.306661	57.084992
02410		-0.659043	-9.716669	0.873629	-0.007234	-0.002292	0.002259	-85.370968	3.304954	57.084868
02411		-0.637446	-9.759857	0.807231	-0.019180	0.000186	-0.004578	-85.377980	3.301321	57.083233
02412		-0.637002	-9.760035	0.805429	-0.017889	-0.002346	-0.004349	-85.390638	3.295883	57.082837
02413		-0.643860	-9.757270	0.826896	-0.016535	-0.001300	-0.002928	-85.396082	3.293123	57.082129
02414		-0.636481	-9.794610	0.806455	-0.015918	-0.003150	-0.003999	-85.407521	3.287889	57.082214
02415		-0.652444	-9.778149	0.797922	-0.011282	-0.000615	-0.004357	-85.409981	3.284345	57.081048
02416		-0.649803	-9.754781	0.845990	-0.012637	-0.001663	-0.005778	-85.419536	3.278206	57.080204
02417		-0.651281	-9.778408	0.795691	-0.009357	-0.000174	-0.007557	-85.420915	3.272854	57.078641
02418		-0.650556	-9.778511	0.795019	-0.004801	-0.006036	-0.006754	-85.425775	3.266004	57.080257
02419		-0.640632	-9.758002	0.820739	-0.003383	-0.001412	-0.004140	-85.423682	3.262547	57.079559
02420		-0.623778	-9.774643	0.827758	-0.000791	-0.004062	-0.004863	-85.426243	3.256912	57.080135
02421		-0.639756	-9.758096	0.820303	-0.004683	-0.001293	-0.003189	-85.424895	3.254004	57.079413
02422		-0.639374	-9.758156	0.819891	-0.004064	-0.003141	-0.004261	-85.429292	3.248796	57.079493
02423		-0.596879	-9.736541	0.855849	-0.002670	-0.005749	0.001885	-85.426633	3.248581	57.081552
02424		-0.622772	-9.740538	0.822254	-0.003962	-0.003219	0.001658	-85.430880	3.246787	57.081950
02425		-0.639607	-9.758248	0.818612	-0.010516	-0.003789	0.004041	-85.432775	3.247894	57.082986
02426		-0.632642	-9.761220	0.794427	-0.011182	-0.000697	0.001565	-85.441172	3.246203	57.081939
02427		-0.639791	-9.724141	0.812194	-0.012545	-0.004155	0.001322	-85.444225	3.245740	57.083061
02428		-0.632912	-9.761378	0.792268	-0.008527	0.000230	0.002035	-85.451068	3.244403	57.081507
02429		-0.614664	-9.754571	0.847888	-0.008543	-0.004592	0.004389	-85.451806	3.245672	57.083018
02430		-0.650020	-9.744851	0.783582	-0.005889	-0.003665	0.004858	-85.456935	3.245809	57.083824
02431		-0.624802	-9.775175	0.820676	-0.003289	-0.003903	0.002957	-85.454689	3.246291	57.084875
02432		-0.624942	-9.740918	0.816075	-0.005279	-0.007924	0.004963	-85.459268	3.246338	57.088123
02433		-0.641792	-9.758578	0.812955	0.001283	-0.004942	0.001402	-85.454372	3.245885	57.089698
02434		-0.648834	-9.721452	0.831474	-0.009875	0.001594	-0.000560	-85.461839	3.243251	57.087253
02435		-0.658250	-9.776352	0.808750	-0.007348	-0.004632	-0.002481	-85.461909	3.240595	57.088474
02436		-0.641366	-9.758768	0.811001	-0.008030	-0.006361	-0.002602	-85.467996	3.236482	57.090490
02437		-0.641072	-9.758853	0.810215	-0.008640	-0.002102	-0.002705	-85.468889	3.233813	57.090255
02438		-0.640718	-9.758950	0.809323	-0.009996	-0.003150	-0.004126	-85.476144	3.229020	57.090367
02439		-0.647573	-9.756168	0.831577	-0.008640	-0.002103	-0.002705	-85.477036	3.226350	57.090133
02440		-0.607022	-9.758087	0.817680	-0.009996	-0.003150	-0.004125	-85.484220	3.221604	57.090249
02441		-0.639453	-9.759242	0.806801	-0.005415	-0.001776	-0.006857	-85.483286	3.216578	57.089640
02442		-0.645872	-9.722188	0.825154	-0.007405	-0.005799	-0.004852	-85.488834	3.211334	57.091243
02443		-0.645537	-9.756563	0.828521	-0.009989	-0.000740	-0.005300	-85.490550	3.207244	57.090112
02444		-0.604915	-9.758473	0.814626	-0.008712	-0.008094	-0.002724	-85.496695	3.203160	57.093127
02445		-0.644592	-9.722497	0.822512	-0.011297	-0.003035	-0.003172	-85.499080	3.200182	57.093406
02446		-0.618637	-9.752996	0.858484	-0.019882	-0.003977	-0.003504	-85.511687	3.195879	57.094034
02447		-0.646121	-9.780512	0.773739	-0.025187	-0.003426	-0.005615	-85.522025	3.191488	57.094427
02448		-0.669218	-9.795548	0.791712	-0.019925	-0.000320	-0.008224	-85.534714	3.184694	57.092757
02449		-0.613646	-9.803224	0.730717	-0.014805	-0.009192	-0.010878	-85.538933	3.177039	57.096215
02450		-0.633728	-9.760577	0.795081	-0.004892	0.001286	-0.016197	-85.543028	3.165808	57.093276
02451		-0.615577	-9.708791	0.793052	-0.012747	0.000821	-0.012858	-85.546390	3.157469	57.090919
02452		-0.595954	-9.736530	0.852088	-0.019366	-0.003339	-0.011668	-85.558554	3.148659	57.090832
02453		-0.604204	-9.722992	0.819776	-0.022592	-0.003674	-0.007514	-85.567402	3.143173	57.091286
02454		-0.561204	-9.701697	0.853283	-0.035079	-0.004277	-0.004986	-85.588442	3.138172	57.092039
02455		-0.610760	-9.755020	0.840954	-0.033618	-0.003319	0.002354	-85.603594	3.138339	57.092728
02456		-0.643993	-9.756381	0.827186	-0.041534	-0.004957	0.003325	-85.628203	3.138086	57.094241
02457		-0.629858	-9.796572	0.781148	-0.036948	-0.001164	-0.000578	-85.645338	3.136672	57.093569
02458		-0.632158	-9.820060	0.728685	-0.027017	-0.003996	0.003516	-85.661587	3.136616	57.094542
02459		-0.606520	-9.816369	0.759872	-0.016573	-0.008580	0.000613	-85.666813	3.135561	57.098166
02460		-0.573626	-9.781112	0.764698	-0.009164	-0.002775	0.005467	-85.672816	3.136712	57.098527
02461		-0.614247	-9.779406	0.777085	-0.004589	-0.003802	0.003905	-85.671317	3.137745	57.099560
02462		-0.638472	-9.760011	0.792610	-0.007139	-0.004827	0.009356	-85.676023	3.141058	57.101264
02463		-0.622798	-9.776647	0.798936	-0.009171	-0.005191	0.006639	-85.677100	3.143593	57.103209
02464		-0.609361	-9.782209	0.751754	-0.009071	-0.007698	0.013729	-85.682741	3.149325	57.106748
02465		-0.633992	-9.762767	0.767505	0.001387	-0.007452	0.008479	-85.677692	3.152814	57.110066
02466		-0.649215	-9.757167	0.813722	-0.004482	-0.003896	0.009824	-85.680773	3.156517	57.111261
02467		-0.625983	-9.742300	0.792977	-0.008605	-0.005783	0.002018	-85.681517	3.156387	57.113346
02468		-0.642900	-9.759998	0.789180	-0.007873	-0.005306	0.005688	-85.686431	3.157711	57.115171
02469		-0.619604	-9.779444	0.772342	-0.007916	-0.001637	0.000972	-85.686914	3.157162	57.114838
02470		-0.619653	-9.779488	0.771741	-0.004640	-0.002550	0.000361	-85.690009	3.155602	57.114859
02471		-0.642931	-9.725833	0.783443	-0.002716	-0.002093	-0.002841	-85.687507	3.152855	57.114623
02472		-0.609547	-9.724893	0.792822	-0.012665	-0.004093	-0.004584	-85.695098	3.148444	57.115317
02473		-0.616618	-9.756579	0.818278	-0.023799	-0.003660	-0.000626	-85.704621	3.146894	57.116073
02474		-0.639625	-9.737431	0.831917	-0.027300	-0.004977	-0.010680	-85.720508	3.138998	57.117015
02475		-0.617508	-9.780263	0.763592	-0.031080	0.000096	-0.004240	-85.734328	3.135544	57.115468
02476		-0.624180	-9.777779	0.783853	-0.028481	-0.000133	-0.006145	-85.750959	3.130485	57.113839
02477		-0.639854	-9.761403	0.774138	-0.025875	0.002055	-0.009221	-85.761869	3.124267	57.110962
02478		-0.639031	-9.761644	0.771777	-0.022613	-0.003690	-0.007494	-85.774962	3.118327	57.111317
02479		-0.595712	-9.740492	0.805707	-0.027307	-0.004989	-0.010675	-85.786477	3.110980	57.112411
02480		-0.660773	-9.742829	0.782611	-0.032504	-0.002128	-0.008026	-85.805212	3.104838	57.111857
02481		-0.619956	-9.779134	0.770194	-0.035853	-0.007217	-0.007449	-85.821547	3.099243	57.114365
02482		-0.626291	-9.742424	0.786302	-0.028490	-0.000153	-0.006134	-85.837970	3.094309	57.112766
02483		-0.618677	-9.779718	0.763776	-0.039071	-0.002743	-0.005624	-85.856283	3.089944	57.112794
02484		-0.604202	-9.819640	0.718321	-0.023135	-0.004381	0.000678	-85.869421	3.088767	57.113902
02485		-0.618546	-9.814418	0.762822	-0.015216	-0.002730	-0.000297	-85.874055	3.087446	57.114144
02486		-0.601983	-9.796872	0.764473	-0.014540	-0.003416	0.000998	-85.882239	3.086525	57.114716
02487		-0.587626	-9.767987	0.713148	-0.007244	-0.002339	0.002270	-85.882311	3.086687	57.114840
02488		-0.609353	-9.760005	0.782073	-0.005950	-0.004867	0.002482	-85.885466	3.086582	57.116305
02489		-0.586213	-9.779327	0.765508	-0.002561	-0.005877	0.007784	-85.882734	3.089750	57.118681
02490		-0.603583	-9.762633	0.758334	-0.001833	-0.007825	0.012619	-85.883345	3.095346	57.122259
02491		-0.628133	-9.743260	0.774376	-0.001879	-0.004145	0.007911	-85.880275	3.098658	57.123650
02492		-0.629151	-9.777517	0.778194	-0.000527	-0.005518	0.010499	-85.880145	3.103172	57.125822
02493		-0.639244	-9.763490	0.747871	-0.003245	-0.007611	0.007657	-85.877750	3.106196	57.129185
02494		-0.614152	-9.759809	0.780765	-0.005157	-0.003240	0.008528	-85.880281	3.109719	57.129976
02495		-0.616858	-9.748502	0.726784	-0.007869	-0.002915	0.004520	-85.880689	3.111144	57.130522
02496		-0.624776	-9.780156	0.753126	-0.007818	-0.004178	0.008063	-85.884653	3.114394	57.131832
02497		-0.608707	-9.762522	0.755658	-0.003902	0.000330	0.002865	-85.882892	3.115007	57.130453
02498		-0.625634	-9.780196	0.751898	-0.009847	-0.002119	0.004182	-85.888029	3.116157	57.130426
02499		-0.600180	-9.776601	0.784217	-0.009847	-0.002120	0.004183	-85.889595	3.117422	57.130504
02500		-0.626507	-9.780279	0.750090	-0.007804	0.000658	0.005731	-85.893578	3.119602	57.128953
02501		-0.643496	-9.797947	0.746289	-0.006563	-0.000607	0.002400	-85.893313	3.119909	57.128092
02502		-0.627182	-9.780343	0.748685	-0.007863	-0.000498	0.003355	-85.897240	3.120721	57.127108
02503		-0.627169	-9.746101	0.743815	-0.012560	-0.001793	0.000175	-85.900380	3.119709	57.126834
02504		-0.634535	-9.777834	0.769793	-0.009900	-0.000857	0.000641	-85.905409	3.118990	57.125947
02505		-0.611266	-9.797232	0.752395	-0.014427	-0.001107	0.005756	-85.909628	3.121195	57.125509
02506		-0.611466	-9.762985	0.747406	-0.008540	0.000187	0.002063	-85.913844	3.121362	57.124085
02507		-0.652015	-9.795670	0.763402	-0.011127	0.005244	0.001644	-85.916379	3.121476	57.119843
02508		-0.628498	-9.780749	0.742250	-0.010525	-0.001437	0.002890	-85.921619	3.122085	57.119385
02509		-0.635787	-9.778164	0.764541	-0.007916	0.000765	-0.000185	-85.922178	3.120971	57.117632
02510		-0.609866	-9.774632	0.796999	-0.008593	0.001451	-0.001478	-85.926349	3.119235	57.115345
02511		-0.635662	-9.778315	0.762721	-0.011878	-0.000064	0.000305	-85.929152	3.118367	57.114087
02512		-0.626081	-9.758127	0.788081	-0.007284	0.003762	-0.003598	-85.932580	3.115544	57.110395
02513		-0.618769	-9.760867	0.763697	-0.017208	-0.004358	0.000537	-85.938302	3.114634	57.111604
02514		-0.618775	-9.761009	0.761874	-0.020480	-0.001035	-0.000008	-85.949065	3.113699	57.110807
02515		-0.602256	-9.777859	0.766752	-0.021760	0.006331	-0.002543	-85.957734	3.111461	57.105773
02516		-0.635107	-9.779001	0.754333	-0.025804	-0.002914	-0.000939	-85.971426	3.109943	57.106016
02517		-0.594802	-9.780865	0.738767	-0.024430	0.002970	-0.001843	-85.981519	3.107969	57.102936
02518		-0.618248	-9.761741	0.752878	-0.019182	-0.001150	-0.000961	-85.991412	3.106536	57.102172
02519		-0.604270	-9.801385	0.708619	-0.015109	-0.000436	0.004467	-85.996045	3.108031	57.101295
02520		-0.618945	-9.796249	0.753758	-0.010529	-0.001447	0.002892	-86.000909	3.108814	57.100858
02521		-0.610073	-9.776058	0.779154	-0.009124	-0.004091	0.009017	-86.001990	3.112764	57.102255
02522		-0.636810	-9.779599	0.745093	-0.007073	0.001107	0.009406	-86.004873	3.117399	57.100619
02523		-0.604678	-9.778678	0.754294	-0.011103	-0.003297	0.008681	-86.007112	3.121188	57.101547
02524		-0.589028	-9.761054	0.756696	-0.004419	-0.000378	0.011035	-86.008365	3.126722	57.100828
02525		-0.583060	-9.763636	0.732752	-0.010986	-0.000995	0.013438	-86.010599	3.133322	57.100628
02526		-0.631869	-9.759352	0.768031	-0.010251	-0.000533	0.017109	-86.015117	3.142337	57.100241
02527		-0.617033	-9.776049	0.773771	-0.014275	-0.002516	0.015222	-86.019183	3.149896	57.100983
02528		-0.604793	-9.815527	0.729960	-0.010142	-0.000657	0.023030	-86.023555	3.162317	57.100903
02529		-0.637779	-9.793550	0.768640	-0.006188	-0.002251	0.023702	-86.022977	3.174733	57.101829
02530		-0.647115	-9.756547	0.787242	-0.010692	0.004750	0.025336	-86.027773	3.188711	57.098746
02531		-0.602450	-9.795078	0.753883	-0.005506	-0.000523	0.023835	-86.026859	3.201271	57.098688
02532		-0.588120	-9.743069	0.752483	-0.010634	0.005895	0.027718	-86.031588	3.216679	57.095044
02533		-0.547687	-9.872925	0.677648	0.006182	-0.001547	0.049458	-86.023887	3.243844	57.096590
02534		-0.574321	-9.796047	0.741404	0.027593	-0.005170	0.067302	-86.006222	3.281437	57.100863
02535		-0.569663	-9.752456	0.819894	0.024506	-0.006960	0.080939	-85.987768	3.326379	57.106785
02536		-0.550255	-9.796557	0.733178	0.021506	-0.011309	0.101668	-85.973228	3.383364	57.115976
02537		-0.550953	-9.926668	0.652441	0.055038	-0.014083	0.133458	-85.936897	3.458030	57.128136
02538		-0.247922	-10.412631	0.530154	0.062117	-0.031562	0.214993	-85.898032	3.578928	57.153613
02539		-0.302866	-10.534394	0.218143	0.225933	-0.026447	0.373594	-85.762618	3.790276	57.183044
02540		0.274475	-10.622521	0.627936	0.298441	-0.010605	0.532294	-85.588110	4.093115	57.210759
02541		0.153395	-9.664467	1.394156	0.245500	0.041460	0.750391	-85.442727	4.522568	57.219406
02542		-0.231794	-10.514769	0.463811	0.316450	0.101147	0.949567	-85.260957	5.068392	57.204228
02543		-0.342411	-10.675146	0.850771	0.264016	0.090179	1.105632	-85.105577	5.702951	57.204617
02544		-0.315383	-11.619911	1.140290	0.267716	0.108559	1.270312	-84.950545	6.432070	57.204211
02545		-0.064974	-13.435060	1.064682	0.397799	0.162483	1.477048	-84.720695	7.282286	57.186217
02546		-0.587249	-12.199219	1.475367	0.445348	0.202577	1.697723	-84.467284	8.259830	57.160467
02547		-0.654297	-11.709658	0.991595	0.225108	0.138505	1.950061	-84.329771	9.378539	57.189558
02548		-0.549053	-12.084412	0.915570	0.368488	0.199001	2.153019	-84.115247	10.615179	57.198734
02549		-1.101296	-11.666250	1.111804	0.402725	0.221292	2.327368	-83.878020	11.953615	57.211001
02550		-2.041015	-10.467290	1.061795	0.409246	0.214694	2.400725	-83.636041	13.331730	57.237096
02551		-2.116426	-10.005178	0.956538	0.278671	0.150749	2.445347	-83.454716	14.732655	57.309589
02552		-1.138921	-10.997809	1.079398	0.319294	0.069897	2.435904	-83.236869	16.120863	57.434056
02553		-4.217907	-11.594386	1.289776	0.356192	0.090150	2.392635	-82.994976	17.487076	57.550716
02554		-2.285079	-10.514430	0.824097	0.290609	0.028408	2.377879	-82.777304	18.838168	57.709084
02555		-2.228914	-9.012080	0.959581	0.225013	0.005140	2.280106	-82.586937	20.133344	57.881049
02556		-0.795668	-8.362421	1.025698	0.105539	-0.064263	2.116544	-82.452006	21.327756	58.086492
02557		0.175628	-8.674694	0.895108	-0.083388	-0.184223	1.978411	-82.394205	22.436532	58.358839
02558		1.983028	-8.980675	0.976409	-0.117068	-0.308544	1.729844	-82.330805	23.391289	58.689492
02559		1.781939	-10.696634	0.933793	-0.100315	-0.376771	1.308362	-82.246437	24.104227	59.031598
02560		2.866669	-12.348971	0.824248	0.024880	-0.409278	0.551578	-82.107696	24.379439	59.330771
02561		3.292855	-11.611793	0.697517	0.129937	-0.430858	-0.175968	-81.925678	24.244360	59.582160
02562		3.051503	-10.175749	0.839814	0.206709	-0.446220	-0.675831	-81.718818	23.816186	59.795936
02563		2.511424	-8.814485	0.776091	0.219409	-0.485112	-0.942929	-81.504225	23.240220	60.008377
02564		2.065890	-8.083627	0.670461	0.151374	-0.530650	-1.102908	-81.330369	22.559422	60.229285
02565		1.818512	-8.021390	0.604569	0.045324	-0.577833	-1.236065	-81.211283	21.808236	60.465113
02566		1.730573	-8.348281	0.541350	-0.038927	-0.602995	-1.369758	-81.147222	20.967635	60.699416
02567		1.726747	-8.649606	0.532267	-0.091119	-0.601442	-1.498601	-81.117993	20.065214	60.920153
02568		1.665682	-8.906137	0.440562	-0.109631	-0.575675	-1.608478	-81.115971	19.090248	61.111872
02569		1.467065	-9.005439	0.378103	-0.113636	-0.533368	-1.705354	-81.126663	18.076767	61.269847
02570		1.225961	-8.936024	0.314282	-0.123141	-0.482660	-1.753752	-81.160445	17.026543	61.391079
02571		0.959236	-8.884884	0.275687	-0.129131	-0.424925	-1.759203	-81.205257	15.992258	61.479420
02572		0.740032	-8.971012	0.306075	-0.149227	-0.363126	-1.715436	-81.276246	14.973329	61.534434
02573		0.514590	-9.183829	0.286324	-0.162110	-0.301541	-1.673670	-81.358692	13.998364	61.559887
02574		0.320054	-9.187733	0.219275	-0.237882	-0.230851	-1.687477	-81.499405	13.005968	61.543242
02575		0.155916	-9.366322	0.236719	-0.393075	-0.157745	-1.741930	-81.733303	12.004465	61.484364
02576		0.014578	-9.772861	0.312862	-0.560517	-0.074988	-1.803641	-82.076801	10.958088	61.376440
02577		-0.177957	-10.378623	0.443251	-0.695535	0.010331	-1.855143	-82.498845	9.904625	61.224049
02578		-0.356244	-11.017238	0.531585	-0.733235	0.099401	-1.908341	-82.952606	8.809586	61.023819
02579		-0.600622	-11.533027	0.740858	-0.713193	0.177238	-1.953523	-83.391328	7.709337	60.786103
02580		-0.856776	-11.804514	0.917216	-0.688511	0.237029	-2.002584	-83.820202	6.566295	60.518863
02581		-1.075348	-11.902993	1.090900	-0.680929	0.277792	-2.062479	-84.235921	5.406559	60.234733
02582		-1.287096	-12.087287	1.270115	-0.690268	0.302926	-2.121422	-84.657063	4.195697	59.941142
02583		-1.437473	-11.994438	1.443683	-0.689229	0.324697	-2.174504	-85.066580	2.970450	59.642370
02584		-1.496288	-11.739429	1.645404	-0.692535	0.341343	-2.199496	-85.476458	1.713085	59.341394
02585		-1.583191	-11.868955	1.783557	-0.673570	0.360291	-2.189497	-85.864098	0.476726	59.039484
02586		-1.661136	-12.001608	1.825166	-0.577619	0.379616	-2.157851	-86.194610	-0.758603	58.735189
02587		-1.761123	-12.003437	1.706966	-0.454865	0.403976	-2.111212	-86.443834	-1.951934	58.425170
02588		-1.867723	-11.899977	1.492019	-0.321457	0.436656	-2.067015	-86.613436	-3.135138	58.101895
02589		-2.073715	-11.795161	1.287723	-0.220787	0.461535	-2.036458	-86.714263	-4.285636	57.768016
02590		-2.081455	-11.594353	1.015666	-0.187801	0.488260	-2.030309	-86.791683	-5.446386	57.420194
02591		-2.091262	-11.431442	0.747846	-0.184490	0.524744	-2.029768	-86.854734	-6.591972	57.052240
02592		-2.140339	-11.036832	0.613868	-0.166891	0.564655	-1.999554	-86.900792	-7.732292	56.662516
02593		-2.298163	-10.516305	0.550408	-0.159524	0.603071	-1.925724	-86.929121	-8.816522	56.252553
02594		-2.487297	-10.070030	0.537233	-0.167545	0.634232	-1.808625	-86.955037	-9.844571	55.827664
02595		-2.552729	-9.820154	0.600251	-0.179271	0.655740	-1.675225	-86.975919	-10.784237	55.393369
02596		-2.423176	-9.717859	0.634498	-0.167966	0.664566	-1.533785	-86.985941	-11.652907	54.957499
02597		-2.322922	-9.665048	0.694577	-0.119726	0.683276	-1.389958	-86.957831	-12.428569	54.513435
02598		-2.207016	-9.607699	0.668184	-0.058651	0.689736	-1.243949	-86.891392	-13.128714	54.068606
02599		-2.304160	-9.474781	0.654963	0.000393	0.673217	-1.103245	-86.786463	-13.739658	53.635473
02600		-2.278061	-9.179456	0.594322	0.042327	0.626293	-0.974261	-86.662765	-14.284581	53.232427
02601		-2.129240	-8.805948	0.511023	0.026953	0.545132	-0.862253	-86.554579	-14.760331	52.878822
02602		-1.896267	-8.580986	0.410410	-0.038364	0.431950	-0.752548	-86.501303	-15.182360	52.595190
02603		-1.625127	-8.615209	0.425693	-0.124537	0.289135	-0.675940	-86.516290	-15.559891	52.397899
02604		-1.365288	-8.885708	0.429386	-0.197590	0.133419	-0.622945	-86.599706	-15.916862	52.295533
02605		-0.925256	-8.954714	0.532016	-0.239876	-0.030535	-0.585397	-86.732112	-16.253775	52.292065
02606		-0.631050	-8.945363	0.579210	-0.258859	-0.184586	-0.555665	-86.904060	-16.581608	52.382965
02607		-0.250216	-8.843982	0.662189	-0.283211	-0.325483	-0.515107	-87.113234	-16.887137	52.560009
02608		0.118505	-8.954974	0.625166	-0.294979	-0.439647	-0.459572	-87.353057	-17.165384	52.809131
02609		0.318294	-9.055680	0.496880	-0.275707	-0.519223	-0.407744	-87.595860	-17.412961	53.108280
02610		0.484472	-9.262586	0.299523	-0.249455	-0.572201	-0.367785	-87.837174	-17.638834	53.442317
02611		0.582857	-9.457868	0.054274	-0.197933	-0.597970	-0.335381	-88.053445	-17.844239	53.793240
02612		0.785091	-9.262722	-0.204076	-0.127148	-0.606066	-0.314524	-88.234400	-18.037076	54.151282
02613		0.964825	-9.068794	-0.413188	-0.091752	-0.601553	-0.286643	-88.393675	-18.212473	54.507373
02614		0.976182	-8.764975	-0.566660	-0.074680	-0.577210	-0.250546	-88.542248	-18.365627	54.850987
02615		0.995908	-8.451970	-0.662186	-0.091891	-0.546137	-0.207271	-88.693694	-18.492997	55.176378
02616		1.035312	-8.176389	-0.624566	-0.138564	-0.489746	-0.147977	-88.864584	-18.583973	55.469956
02617		0.939078	-8.062367	-0.591332	-0.190367	-0.414888	-0.072594	-89.048930	-18.630994	55.718622
02618		0.797344	-7.998279	-0.499417	-0.240914	-0.318756	-0.004484	-89.246765	-18.635987	55.910992
02619		0.662197	-8.002595	-0.360095	-0.297754	-0.216229	0.040926	-89.454717	-18.615059	56.040691
02620		0.473809	-8.115181	-0.120016	-0.353787	-0.121677	0.062676	-89.679344	-18.578811	56.114303
02621		5.679661	-18.291463	5.376222	-1.085976	-0.009395	0.597356	-90.298897	-18.237683	56.118750
02622		-1.885419	-6.473978	-1.503655	3.269150	1.032739	0.940664	-88.233680	-17.689974	55.503497
02623		5.662278	-6.236604	-1.117527	0.272757	0.455393	1.584961	-88.001298	-16.774864	55.260372
02624		4.630114	-5.016737	1.317135	0.947750	0.948371	1.556037	-87.307983	-15.860589	54.732211
02625		2.942514	-6.569780	0.626409	0.406631	1.114715	1.598475	-86.907730	-14.914729	54.117228
02626		1.571253	-8.171593	1.048801	-0.068296	1.175183	1.676028	-86.785391	-13.918304	53.476958
02627		1.191407	-8.974007	1.900129	-0.218789	1.168661	1.719766	-86.760225	-12.897866	52.845401
02628		-0.448019	-12.131027	2.727483	-0.109183	0.998143	1.760452	-86.707590	-11.857545	52.318898
02629		-0.508630	-10.955758	4.280506	0.446100	0.658416	1.742281	-86.384148	-10.839428	51.994858
02630		-0.000738	-9.200604	4.485462	0.421555	0.314540	1.787177	-86.118689	-9.804286	51.879098
02631		0.265648	-9.128645	3.555723	0.122091	0.063373	1.889446	-86.050597	-8.722804	51.915972
02632		0.567760	-11.579996	1.645301	-0.111189	-0.066275	2.029799	-86.126683	-7.563117	52.033154
02633		0.829488	-12.339242	-0.826396	0.308167	-0.091029	2.000603	-85.961962	-6.424227	52.163928
02634		1.396741	-10.393047	-0.912186	0.254357	0.087916	1.938320	-85.815016	-5.310670	52.192276
02635		0.220924	-11.682512	-0.147497	0.195316	0.271193	1.860182	-85.692573	-4.237320	52.114659
02636		-0.474626	-11.399095	1.276625	0.307157	0.304763	1.803159	-85.506666	-3.191582	52.018481
02637		-0.601281	-11.121979	1.408156	0.455989	0.197497	1.751842	-85.239770	-2.183021	51.985307
02638		-0.411423	-9.813983	1.938538	0.411692	0.130036	1.701991	-85.000288	-1.202474	51.992870
02639		-0.379993	-10.538102	1.698943	0.113386	0.169594	1.666792	-84.931068	-0.243647	51.978555
02640		-3.023927	-16.889303	0.224448	0.141645	-0.039549	1.340092	-84.845589	0.521814	52.068357
02641		-1.485650	-11.446512	0.810203	0.649642	0.007292	0.741641	-84.468862	0.944275	52.102439
02642		-2.826544	-10.235748	3.189726	0.249416	-0.028988	0.444910	-84.321331	1.199684	52.142717
02643		-0.795310	-8.634303	2.581980	-0.093352	-0.143195	0.286156	-84.368596	1.353754	52.239209
02644		-0.209826	-11.500866	-0.496870	-0.165206	-0.055886	0.235184	-84.457686	1.488511	52.283064
02645		-0.575575	-8.785719	2.077464	-0.015166	-0.029498	0.196151	-84.461594	1.597735	52.309415
02646		-0.769902	-9.663273	1.521921	-0.316577	-0.075100	0.200028	-84.637043	1.711469	52.362018
02647		-0.551618	-10.209547	0.650342	-0.270701	-0.056655	0.141839	-84.786896	1.788387	52.400521
02648		-0.613773	-9.885925	0.988332	-0.225807	-0.033878	0.107060	-84.911056	1.851505	52.424242
02649		-0.541929	-9.592619	1.092985	-0.263308	-0.034883	0.097939	-85.057079	1.904639	52.447749
02650		-0.437831	-9.914177	0.729039	-0.248281	-0.033517	0.096600	-85.194052	1.961926	52.470477
02651		-0.444646	-9.972920	0.662611	-0.183580	-0.041577	0.089083	-85.294240	2.009793	52.497148
02652		-0.431594	-9.718702	0.888153	-0.171306	-0.034085	0.095481	-85.387110	2.066460	52.519953
02653		-0.562866	-9.966812	0.696166	-0.114591	-0.037904	0.094505	-85.447794	2.117671	52.544629
02654		-0.561126	-9.992757	0.613552	-0.103879	-0.056405	0.092894	-85.501523	2.171879	52.579957
02655		-0.643791	-10.004201	0.659852	0.004643	-0.052684	0.068612	-85.493572	2.207670	52.611846
02656		-0.602973	-9.892563	0.721138	0.049770	-0.050545	0.049788	-85.459471	2.237522	52.641877
02657		-0.526824	-9.655161	0.967846	0.044513	-0.054785	0.049791	-85.428628	2.262438	52.674144
02658		-0.514719	-9.670992	0.979742	0.025453	-0.052470	0.043450	-85.408378	2.288537	52.705014
02659		-0.534800	-9.722786	0.981074	0.001529	-0.038748	0.048154	-85.402506	2.313233	52.728057
02660		-0.492390	-9.611633	1.037948	-0.030131	-0.040649	0.048556	-85.414281	2.342758	52.752410
02661		-0.588602	-9.822699	0.863885	-0.067084	-0.038563	0.047931	-85.447704	2.367345	52.775328
02662		-0.545658	-9.746319	0.920472	-0.049192	-0.026562	0.036538	-85.470688	2.390640	52.791062
02663		-0.570710	-9.807970	0.835087	-0.053760	-0.027881	0.033190	-85.496744	2.407310	52.807186
02664		-0.602529	-9.889951	0.723439	-0.036473	-0.028119	0.023785	-85.512393	2.423241	52.823224
02665		-0.574850	-9.808279	0.828587	-0.011943	-0.020186	0.012499	-85.514707	2.428446	52.834011
02666		-0.600454	-9.789267	0.841658	-0.019092	-0.023558	0.006193	-85.520542	2.434520	52.846652
02667		-0.533306	-9.798402	0.762713	-0.000589	-0.020471	0.003022	-85.516360	2.434299	52.857177
02668		-0.559889	-9.790541	0.831009	0.007292	-0.015327	0.003591	-85.507277	2.439232	52.864996
02669		-0.552702	-9.770037	0.858622	0.006647	-0.014667	0.002284	-85.499092	2.438848	52.872170
02670		-0.545474	-9.749551	0.886033	0.003335	-0.013796	0.002794	-85.492297	2.443366	52.879078
02671		-0.539705	-9.706074	0.962339	-0.005232	-0.017142	0.003306	-85.490855	2.443453	52.887713
02672		-0.538348	-9.694948	0.907378	-0.028984	-0.017375	0.003077	-85.502451	2.447943	52.896680
02673		-0.536822	-9.718219	0.855237	-0.027606	-0.013906	-0.002490	-85.513918	2.444867	52.903205
02674		-0.563011	-9.642049	0.912813	-0.025747	-0.011261	0.005064	-85.523777	2.450740	52.908766
02675		-0.595666	-9.620712	0.947127	-0.034596	-0.012399	-0.022878	-85.539324	2.436088	52.913519
02676		-0.527878	-9.675850	0.922173	-0.050489	-0.021652	-0.015709	-85.563105	2.429619	52.924097
02677		-0.491617	-9.755192	0.835166	-0.038052	-0.024642	-0.007249	-85.580307	2.423357	52.936552
02678		-0.498783	-9.775912	0.804315	-0.046141	-0.031198	0.007528	-85.601294	2.429711	52.953620
02679		-0.529141	-9.891865	0.697787	-0.014538	-0.027019	0.011820	-85.604930	2.434245	52.968276
02680		-0.550306	-9.806582	0.838308	0.011198	-0.029894	0.013554	-85.593089	2.444065	52.984863
02681		-0.510092	-9.773340	0.825599	0.015880	-0.029645	0.008608	-85.579236	2.446644	53.000881
02682		-0.530045	-9.710680	0.919356	0.037499	-0.033532	0.022499	-85.552200	2.461371	53.019948
02683		-0.465575	-9.753587	0.847338	0.009614	-0.041870	0.037882	-85.541571	2.480117	53.044261
02684		-0.509540	-9.809193	0.813976	0.025227	-0.038838	0.054223	-85.521329	2.512677	53.067786
02685		-0.580883	-9.822566	0.845598	0.025776	-0.046694	0.064858	-85.501240	2.546600	53.096080
02686		-0.595340	-9.750658	0.864356	0.047511	-0.042230	0.065904	-85.468079	2.585629	53.122098
02687		-0.657704	-9.766281	0.875768	0.052967	-0.029549	0.047140	-85.432856	2.610182	53.139822
02688		-0.571406	-9.805313	0.840808	0.039823	-0.029473	0.042063	-85.404435	2.636138	53.157496
02689		-0.576434	-9.815923	0.899068	0.056326	-0.019789	0.038551	-85.367548	2.656216	53.169272
02690		-0.562807	-9.786258	0.854765	0.043693	-0.007588	0.043282	-85.337461	2.683836	53.174518
02691		-0.585570	-9.757223	0.953374	0.033087	-0.013744	0.048099	-85.314018	2.709636	53.183306
02692		-0.555532	-9.733063	0.861945	0.031695	-0.009008	0.052645	-85.290719	2.742503	53.189825
02693		-0.578671	-9.761383	0.914202	0.027592	-0.007645	0.063687	-85.270547	2.777484	53.195883
02694		-0.600492	-9.801623	0.863263	0.024183	-0.011590	0.072412	-85.251412	2.821477	53.204836
02695		-0.656012	-9.819830	0.849558	0.026825	-0.005963	0.070694	-85.231700	2.860535	53.210290
02696		-0.630123	-9.818055	0.864277	0.024303	-0.005586	0.060698	-85.212681	2.898100	53.215280
02697		-0.651982	-9.800863	0.858696	0.025617	-0.013939	0.060841	-85.193446	2.931147	53.224848
02698		-0.666074	-9.797523	0.883885	0.023727	-0.016587	0.053295	-85.174444	2.963932	53.235795
02699		-0.630941	-9.832863	0.880355	0.034183	-0.016528	0.060217	-85.150212	2.996491	53.246837
02700		-0.676385	-9.761956	0.885882	0.026372	-0.022700	0.051390	-85.129498	3.027862	53.261209
02701		-0.682253	-9.772401	0.942384	0.033016	-0.023273	0.046830	-85.105753	3.052441	53.275479
02702		-0.644816	-9.796855	0.885140	0.018512	-0.024234	0.046193	-85.089481	3.080744	53.290496
02703		-0.665627	-9.848282	0.887912	0.033749	-0.025018	0.039846	-85.065267	3.101240	53.305438
02704		-0.684912	-9.831066	0.883780	0.043729	-0.021763	0.032470	-85.034645	3.121794	53.318384
02705		-0.679790	-9.867521	0.870167	0.053588	-0.029198	0.033223	-84.998939	3.138286	53.335408
02706		-0.674468	-9.754400	0.944105	0.067495	-0.033396	0.026555	-84.954346	3.154844	53.354729
02707		-0.685605	-9.785039	0.977354	0.059629	-0.031414	0.022592	-84.915129	3.165133	53.372505
02708		-0.670627	-9.674777	1.027864	0.050476	-0.024580	0.017238	-84.880565	3.176776	53.386330
02709		-0.679594	-9.752490	0.960028	0.026757	-0.028116	0.015852	-84.860300	3.183366	53.401887
02710		-0.600295	-9.766675	0.995607	0.037966	-0.023938	0.015853	-84.832899	3.194218	53.415281
02711		-0.666627	-9.825935	0.930013	0.032559	-0.025924	0.026587	-84.809343	3.207035	53.430147
02712		-0.685671	-9.727568	1.020103	0.043125	-0.021081	0.025275	-84.779033	3.223363	53.442406
02713		-0.662451	-9.793540	0.910781	0.031177	-0.027044	0.031050	-84.756211	3.238654	53.458158
02714		-0.658052	-9.748978	0.989756	0.029179	-0.025121	0.033040	-84.733720	3.259165	53.473145
02715		-0.685932	-9.705261	1.057592	0.050297	-0.021317	0.030329	-84.700121	3.274333	53.485601
02716		-0.679567	-9.731173	0.989341	0.022622	-0.022094	0.030547	-84.681461	3.293542	53.498743
02717		-0.674053	-9.710189	1.018125	0.020055	-0.022925	0.024074	-84.665147	3.305046	53.511796
02718		-0.627951	-9.783218	0.996330	0.039160	-0.019564	0.024496	-84.637090	3.320904	53.523180
02719		-0.695046	-9.726813	1.020666	0.027235	-0.023142	0.029126	-84.616633	3.335268	53.536638
02720		-0.656557	-9.751888	0.964162	0.040368	-0.017493	0.034276	-84.587902	3.356775	53.547377
02721		-0.660910	-9.761970	1.020994	0.024506	-0.022991	0.036890	-84.568979	3.375564	53.561183
02722		-0.720977	-9.742609	1.027481	0.052850	-0.018215	0.035667	-84.533052	3.397781	53.572427
02723		-0.715300	-9.768623	0.959735	0.029115	-0.024042	0.035471	-84.511447	3.415690	53.586774
02724		-0.719403	-9.720733	1.061201	0.031131	-0.016602	0.034775	-84.488009	3.437458	53.597066
02725		-0.722792	-9.778085	1.019555	0.031096	-0.022488	0.034719	-84.465313	3.455012	53.610498
02726		-0.717826	-9.756877	1.049247	0.031809	-0.016070	0.032553	-84.441490	3.475514	53.620378
02727		-0.687853	-9.779090	1.015660	0.040400	-0.017493	0.028378	-84.413649	3.489718	53.630619
02728		-0.731141	-9.718332	1.075080	0.037085	-0.015435	0.031281	-84.386814	3.509495	53.640081
02729		-0.709712	-9.737490	1.064054	0.032456	-0.017909	0.031499	-84.363492	3.525446	53.650749
02730		-0.704621	-9.716295	1.093302	0.022553	-0.017514	0.034216	-84.344875	3.546749	53.661579
02731		-0.732381	-9.754141	1.064521	0.004180	-0.010884	0.032859	-84.337990	3.563866	53.668321
02732		-0.686462	-9.817211	0.987056	0.008783	-0.015450	0.030210	-84.327326	3.582972	53.677752
02733		-0.745040	-9.681867	1.080728	0.023316	-0.009887	0.028499	-84.309524	3.597658	53.683683
02734		-0.748998	-9.749935	1.091430	0.012115	-0.015161	0.026152	-84.296966	3.614435	53.692726
02735		-0.717251	-9.704074	1.046808	0.016739	-0.012704	0.025938	-84.282836	3.627497	53.700128
02736		-0.720450	-9.714151	1.102003	0.014821	-0.010686	0.021993	-84.268888	3.642131	53.706383
02737		-0.738447	-9.697127	1.095320	0.014103	-0.013603	0.025392	-84.256234	3.654826	53.714274
02738		-0.732337	-9.699937	1.074058	0.013432	-0.015300	0.025244	-84.242880	3.671021	53.723358
02739		-0.703157	-9.733022	1.091563	0.008131	-0.014795	0.028912	-84.233586	3.685652	53.732137
02740		-0.738268	-9.733569	1.080376	0.004217	-0.009681	0.029331	-84.225685	3.704468	53.738252
02741		-0.701054	-9.769907	1.074242	-0.001068	-0.010320	0.030618	-84.221815	3.720326	53.744579
02742		-0.753988	-9.798405	1.112191	-0.001724	-0.008503	0.031686	-84.217339	3.740522	53.750160
02743		-0.755234	-9.777426	1.004583	-0.008317	-0.005500	0.035106	-84.217782	3.759216	53.753994
02744		-0.741190	-9.701592	1.053113	0.011456	-0.005208	0.032048	-84.205871	3.779784	53.757717
02745		-0.753396	-9.756112	1.032425	0.012679	-0.012446	0.034633	-84.194020	3.797806	53.765498
02746		-0.756863	-9.731786	1.083570	0.027875	-0.004075	0.035440	-84.172728	3.820346	53.768780
02747		-0.768394	-9.728159	1.108025	0.006801	-0.011184	0.031060	-84.164301	3.836400	53.775642
02748		-0.747352	-9.771594	1.045330	0.011419	-0.002934	0.036821	-84.152462	3.859769	53.778361
02749		-0.740875	-9.705889	1.015328	0.022514	-0.009464	0.039070	-84.135061	3.880486	53.784717
02750		-0.762519	-9.733042	1.068495	0.042839	-0.008815	0.045643	-84.104959	3.908508	53.791329
02751		-0.759581	-9.817307	0.958090	0.076900	-0.014975	0.052638	-84.056119	3.936625	53.801660
02752		-0.772603	-9.730726	1.082253	0.081302	-0.022115	0.063046	-84.003387	3.973732	53.816948
02753		-0.803983	-9.719542	1.158069	0.072513	-0.032527	0.073107	-83.956261	4.012440	53.838588
02754		-0.819136	-9.762912	1.089695	0.065253	-0.032370	0.074014	-83.912228	4.055128	53.860457
02755		-0.777298	-9.767538	1.062687	0.063698	-0.042972	0.083199	-83.869649	4.098914	53.888742
02756		-0.776728	-9.721243	1.145343	0.080680	-0.044991	0.089104	-83.816155	4.149364	53.918816
02757		-0.787796	-9.836225	1.065030	0.081844	-0.045332	0.100093	-83.762950	4.202576	53.949579
02758		-0.428741	-9.899008	1.322892	0.078971	-0.038386	0.128131	-83.710466	4.275578	53.978421
02759		-0.498188	-10.084378	0.974534	0.110133	0.031778	0.246680	-83.643588	4.417073	53.974534
02760		-0.749165	-9.624326	1.330528	0.070810	0.027919	0.279228	-83.597855	4.580156	53.975302
02761		-0.695763	-9.874509	1.171161	0.096873	0.043044	0.305089	-83.538791	4.755636	53.969008
02762		-0.759847	-9.837274	1.162710	0.075943	0.056771	0.353478	-83.491053	4.962792	53.958415
02763		-0.874851	-9.758243	1.182744	0.096464	0.061629	0.379544	-83.432747	5.181879	53.946700
02764		-0.914396	-9.778115	1.141978	0.080102	0.063816	0.405157	-83.382733	5.418878	53.935875
02765		-0.986736	-9.724246	1.235698	0.096185	0.072116	0.419662	-83.324964	5.661513	53.921243
02766		-1.147646	-9.663263	1.217075	0.078082	0.076525	0.429427	-83.276728	5.913153	53.905217
02767		-1.211666	-9.611885	1.286369	0.071651	0.078349	0.406895	-83.233564	6.148968	53.886562
02768		-1.119693	-9.704487	1.277249	0.043719	0.081270	0.414551	-83.205511	6.392487	53.867158
02769		-1.343449	-9.641021	1.229984	0.045636	0.085821	0.409323	-83.177846	6.630211	53.844636
02770		-1.224096	-9.541937	1.352984	0.014516	0.084262	0.405486	-83.166934	6.868783	53.823086
02771		-1.204580	-9.606603	1.386504	-0.002458	0.093191	0.402181	-83.167573	7.102956	53.795930
02772		-1.191972	-9.755089	1.324362	-0.050169	0.107954	0.430806	-83.195368	7.357509	53.762480
02773		-1.309513	-10.001338	0.994789	-0.029404	0.121282	0.474270	-83.213170	7.634583	53.723951
02774		-1.345827	-9.794672	1.171969	0.003225	0.118058	0.512103	-83.210776	7.936007	53.690084
02775		-1.331288	-9.909971	1.217555	-0.013288	0.131283	0.565945	-83.219689	8.265909	53.651966
02776		-1.277128	-9.948020	1.343569	-0.029737	0.151188	0.622399	-83.238299	8.632263	53.606438
02777		-1.351299	-10.224020	1.310204	-0.032061	0.173894	0.708906	-83.260769	9.046354	53.553255
02778		-1.392895	-10.229778	1.348123	-0.026231	0.197452	0.798888	-83.280441	9.516111	53.492699
02779		-1.440254	-10.272416	1.368646	-0.019393	0.231418	0.884701	-83.300197	10.034050	53.417801
02780		-1.471876	-10.422334	1.393389	-0.024965	0.255043	0.976998	-83.324115	10.608850	53.335494
02781		-1.827450	-9.860804	0.395672	0.083515	0.253135	1.045629	-83.286762	11.219795	53.258546
02782		-1.324317	-10.634130	2.556025	-0.136875	0.209821	1.079974	-83.370057	11.850068	53.209000
02783		-1.997811	-10.704894	0.798304	0.109655	0.279041	1.207904	-83.320446	12.555032	53.127203
02784		-2.298651	-9.510089	1.307315	-0.069451	0.193171	1.266654	-83.361271	13.290252	53.099731
02785		-2.180168	-9.987665	1.077448	0.035203	0.190812	1.312679	-83.342592	14.048982	53.076195
02786		-2.143948	-9.875518	1.280985	-0.003615	0.180557	1.403139	-83.342279	14.860984	53.065324
02787		-2.456651	-9.518937	1.274464	0.040763	0.188768	1.456449	-83.318089	15.701403	53.053038
02788		-2.611293	-9.423159	1.281248	0.017001	0.176710	1.503386	-83.303582	16.570100	53.051817
02789		-2.563179	-9.617774	1.246572	0.019648	0.173260	1.548340	-83.287141	17.461778	53.055613
02790		-2.754470	-9.562500	1.388036	0.052129	0.196982	1.595647	-83.254060	18.384241	53.049441
02791		-3.077580	-9.460532	1.179059	0.060847	0.204513	1.620379	-83.217981	19.319012	53.040601
02792		-3.318712	-9.270160	1.190052	0.036657	0.197883	1.615956	-83.193273	20.253007	53.036423
02793		-3.448048	-9.338346	1.147725	0.037887	0.191045	1.616593	-83.167513	21.184716	53.036365
02794		-3.592135	-9.219903	1.078050	0.057295	0.188461	1.606259	-83.128897	22.112508	53.038227
02795		-3.756128	-9.162288	1.153140	0.074743	0.181343	1.603343	-83.079592	23.036011	53.044498
02796		-3.884445	-9.074402	1.126759	0.091173	0.182769	1.605248	-83.019445	23.962782	53.051606
02797		-3.958840	-9.124701	1.187624	0.099053	0.180621	1.606532	-82.954843	24.888034	53.060735
02798		-4.087882	-9.188388	1.263340	0.122083	0.184643	1.620969	-82.875690	25.823798	53.070426
02799		-4.134927	-9.223162	1.390254	0.148560	0.196724	1.648398	-82.784180	26.773976	53.075658
02800		-4.159664	-9.076519	1.525587	0.176636	0.220387	1.675101	-82.680291	27.742959	53.070467
02801		-4.360173	-8.961426	1.530099	0.170272	0.251858	1.711731	-82.588726	28.733152	53.049189
02802		-4.622793	-8.903044	1.558691	0.157073	0.282618	1.752722	-82.511020	29.750733	53.013583
02803		-4.805857	-8.934648	1.618126	0.137343	0.301413	1.806998	-82.449906	30.798804	52.970638
02804		-4.896398	-9.487010	1.728436	0.129419	0.336872	1.827814	-82.403457	31.863084	52.907464
02805		-5.160088	-10.198680	1.681663	0.105948	0.368825	1.817261	-82.385006	32.922151	52.820992
02806		-5.213771	-9.811924	1.458380	0.305544	0.441606	1.823913	-82.278709	33.992070	52.686853
02807		-5.117201	-9.319759	1.165830	0.297767	0.460900	1.900764	-82.183765	35.105876	52.546250
02808		-5.350759	-8.951296	1.054465	0.368749	0.481538	1.967494	-82.053009	36.260571	52.399380
02809		-5.531824	-8.265312	1.191275	0.369080	0.466010	2.042967	-81.914330	37.455955	52.271238
02810		-5.795156	-8.371445	1.258421	0.347117	0.474530	2.086095	-81.788914	38.677720	52.143831
02811		-6.098079	-8.110899	1.110309	0.371672	0.467773	2.096614	-81.648449	39.904128	52.022928
02812		-6.415866	-7.579563	0.949018	0.343537	0.451371	2.095891	-81.515445	41.129833	51.916918
02813		-6.450620	-7.141708	1.045156	0.275071	0.428372	2.095832	-81.412532	42.352850	51.828651
02814		-6.560213	-6.786080	1.032352	0.190575	0.417226	2.078793	-81.352787	43.566198	51.748794
02815		-6.935057	-6.624801	1.017463	0.071116	0.395375	2.057753	-81.354686	44.764928	51.681743
02816		-6.606236	-6.348788	0.984844	-0.012133	0.379742	2.032605	-81.398249	45.948935	51.623370
02817		-6.755082	-6.240762	1.243057	-0.094758	0.384851	2.033167	-81.497224	47.132758	51.556209
02818		-7.138878	-6.192339	1.345043	-0.176301	0.391329	1.996607	-81.653453	48.297185	51.474960
02819		-7.272462	-5.966340	1.315700	-0.226728	0.410440	1.940678	-81.864857	49.430396	51.361355
02820		-7.230200	-5.485094	1.285587	-0.325088	0.424638	1.879502	-82.155343	50.530604	51.218861
02821		-7.288011	-5.277232	1.236155	-0.463913	0.440578	1.839553	-82.554922	51.607848	51.041675
02822		-7.436832	-5.512162	1.254375	-0.604967	0.459902	1.816403	-83.065724	52.673391	50.827503
02823		-7.660461	-6.093326	1.187633	-0.689360	0.479867	1.793222	-83.664822	53.724738	50.567519
02824		-7.761245	-6.465255	1.073022	-0.718768	0.494258	1.786178	-84.314269	54.772141	50.268655
02825		-7.769828	-6.520560	0.911304	-0.716007	0.505142	1.798454	-84.999954	55.824044	49.928694
02826		-7.797271	-6.447637	0.657064	-0.723088	0.505475	1.832551	-85.715532	56.893771	49.560910
02827		-7.729183	-6.195271	0.482874	-0.759175	0.499719	1.916511	-86.478943	58.007753	49.166479
02828		-7.772829	-5.950995	0.343845	-0.819510	0.487658	2.021753	-87.297612	59.179094	48.751730
02829		-7.947881	-6.035177	0.218999	-0.881018	0.467954	2.132145	-88.177918	60.409278	48.312551
02830		-8.012108	-6.043307	0.062766	-0.888263	0.441652	2.225848	-89.084251	61.689516	47.852924
02831		-8.008495	-6.107867	-0.126880	-0.821479	0.411201	2.301573	-89.982430	63.008983	47.365758
02832		-8.045984	-5.925686	-0.206633	-0.725637	0.382682	2.399299	-90.857290	64.380931	46.848356
02833		-7.909397	-5.818498	-0.393669	-0.592002	0.350272	2.491172	-91.695596	65.802300	46.293628
02834		-8.165038	-5.742556	-0.552291	-0.496618	0.327246	2.606666	-92.534244	67.286373	45.684545
02835		-8.314595	-4.884933	-0.560767	-0.554542	0.282130	2.757821	-93.456938	68.854712	45.028088
02836		-8.437559	-4.040932	-0.819756	-0.750168	0.212724	2.927759	-94.525963	70.517776	44.341651
02837		-8.616600	-3.660247	-1.038120	-1.072610	0.125659	3.104452	-95.829936	72.281530	43.610085
02838		-8.694630	-3.309721	-1.027827	-1.415121	0.016030	3.290794	-97.385981	74.151379	42.827143
02839		-6.640251	-3.952696	-1.718273	-1.896892	-0.151746	3.387469	-99.202692	76.083215	42.067940
02840		-3.999050	-7.556337	-2.462005	-2.266189	-0.196680	2.796592	-101.241287	77.677678	41.303560
02841		-3.544958	-12.802914	-2.175275	-2.482079	-0.171751	1.324945	-102.961462	78.439198	40.994785
02842		-2.122803	-17.246251	-1.190159	-2.029853	0.018426	-0.384025	-103.922292	78.218316	41.196655
02843		-1.146206	-17.115545	-0.217495	-0.941235	0.223322	-1.824075	-103.880045	77.171666	41.787687
02844		-2.509905	-16.148701	0.252654	0.278356	0.336440	-2.890312	-102.906953	75.508188	42.619838
02845		-4.430838	-14.309102	0.228190	1.254684	0.298747	-3.678748	-101.206067	73.409733	43.634625
02846		-4.743966	-12.033287	-0.062005	1.734053	0.179373	-4.303569	-99.163041	70.954039	44.730982
02847		-5.038568	-10.927930	-0.237500	1.739901	-0.018764	-4.908969	-97.070295	68.169706	45.895547
02848		-6.789372	-10.091466	-0.624253	1.676959	-0.260413	-5.600528	-94.982580	64.981782	47.116835
02849		-7.137558	-7.423432	-0.072089	1.622944	-0.689468	-6.061028	-92.800066	61.542474	48.513918
02850		-7.022325	-5.395624	0.229523	1.113961	-1.225496	-6.049303	-90.764545	58.086485	50.123010
02851		-7.276775	-4.806084	0.369171	0.475106	-1.836512	-5.935737	-88.920740	54.681147	52.004325
02852		-6.319785	-6.309760	0.302849	-0.099493	-2.359741	-5.927306	-87.330538	51.228987	54.060630
02853		-5.100618	-7.308403	0.461303	-0.267450	-2.685988	-5.949780	-85.917962	47.733773	56.114048
02854		-4.017840	-7.671389	0.575674	-0.139904	-2.836857	-5.872501	-84.606431	44.232574	58.041988
02855		-3.220473	-7.681034	0.609536	0.152284	-2.841385	-5.550885	-83.335780	40.897444	59.784599
02856		-3.044854	-7.457201	0.228168	0.484987	-2.722393	-5.032654	-82.086826	37.825476	61.308923
02857		-2.894140	-6.439488	-0.325399	0.628926	-2.544708	-4.510784	-80.940075	35.053042	62.625483
02858		-2.691385	-6.154111	-1.042191	0.377423	-2.373216	-4.161661	-80.088912	32.463226	63.762088
02859		-2.172982	-6.972197	-1.223244	-0.086092	-2.177927	-3.965474	-79.632561	30.006023	64.729199
02860		-1.765231	-8.674490	-0.979127	-0.535428	-1.892986	-3.841134	-79.570685	27.631765	65.489352
02861		-1.628761	-10.542820	-0.638439	-0.624995	-1.516725	-3.719474	-79.690426	25.378147	66.014327
02862		-1.852340	-11.122660	-0.087733	-0.472310	-1.116277	-3.545769	-79.840051	23.251088	66.304841
02863		-2.161565	-10.927240	0.069252	-0.353838	-0.750967	-3.351479	-80.003435	21.284271	66.397978
02864		-2.474543	-10.551553	-0.066060	-0.419941	-0.429997	-3.223745	-80.271861	19.407797	66.315571
02865		-2.645274	-10.325906	0.009753	-0.635952	-0.183299	-3.115416	-80.696814	17.629083	66.112133
02866		-2.410655	-10.509985	0.025668	-0.804987	-0.007226	-2.887899	-81.235840	15.979719	65.841392
02867		-2.625729	-10.658410	0.778310	-1.047535	0.159470	-2.598522	-81.916478	14.519388	65.520221
02868		-2.742286	-11.701384	1.131560	-1.053123	0.307882	-2.347448	-82.608144	13.195789	65.150310
02869		-2.720789	-12.258512	1.516448	-1.085026	0.441898	-2.141310	-83.315862	12.008206	64.737407
02870		-2.774084	-13.300921	1.939568	-1.141491	0.550067	-2.082101	-84.059870	10.842573	64.280920
02871		-3.116627	-14.535696	2.256882	-1.074385	0.618592	-2.129480	-84.756946	9.661805	63.800301
02872		-3.762113	-14.814943	2.530915	-0.856897	0.620084	-2.184129	-85.321168	8.431359	63.329495
02873		-4.348984	-14.298267	2.659824	-0.713412	0.543607	-2.249682	-85.782285	7.169391	62.913849
02874		-4.494163	-13.868151	2.621642	-0.698244	0.410516	-2.328454	-86.218788	5.840960	62.581493
02875		-4.320513	-13.862709	2.471250	-0.676358	0.282171	-2.394828	-86.624685	4.480540	62.332198
02876		-3.924844	-13.747890	2.240156	-0.635805	0.195422	-2.456896	-87.000037	3.067972	62.139402
02877		-3.526678	-13.242088	1.995811	-0.592124	0.155436	-2.524196	-87.341871	1.626806	61.977657
02878		-3.194260	-12.550844	1.771581	-0.552531	0.169953	-2.525867	-87.659039	0.172652	61.815121
02879		-3.002326	-11.944378	1.468489	-0.518177	0.212145	-2.451614	-87.950251	-1.227413	61.638578
02880		-2.810814	-11.771153	1.322317	-0.502321	0.269278	-2.354965	-88.229126	-2.582661	61.437324
02881		-2.643187	-12.006459	1.239372	-0.455467	0.344265	-2.289097	-88.472677	-3.889092	61.200780
02882		-2.450154	-12.008473	1.161845	-0.384164	0.414105	-2.242038	-88.668784	-5.178463	60.928855
02883		-2.332384	-11.820153	1.197972	-0.346953	0.481440	-2.235847	-88.832444	-6.454295	60.622320
02884		-2.204700	-11.505833	1.288458	-0.392117	0.539268	-2.274504	-89.012531	-7.761765	60.284548
02885		-2.109536	-11.307165	1.244328	-0.427907	0.598128	-2.298039	-89.199707	-9.074052	59.916141
02886		-2.090363	-11.104971	1.233305	-0.424986	0.653828	-2.258215	-89.372867	-10.372650	59.518038
02887		-2.067909	-10.992054	1.151029	-0.382476	0.721559	-2.176300	-89.505013	-11.616593	59.083213
02888		-2.130764	-11.025895	0.998112	-0.322394	0.779898	-2.102312	-89.587091	-12.826176	58.614566
02889		-2.186364	-10.792781	0.861297	-0.308748	0.840490	-2.084771	-89.642789	-14.018527	58.109974
02890		-2.088977	-10.499586	0.668817	-0.331268	0.887088	-2.073714	-89.694125	-15.211373	57.575938
02891		-2.061085	-10.292640	0.632022	-0.333433	0.932631	-2.035625	-89.727942	-16.376123	57.013237
02892		-2.085805	-9.971611	0.643933	-0.319643	0.968878	-1.961688	-89.735961	-17.504133	56.425756
02893		-2.213813	-9.737584	0.701648	-0.308556	0.987947	-1.859661	-89.722323	-18.568086	55.823872
02894		-2.290016	-9.534421	0.855612	-0.280979	0.981699	-1.742286	-89.682370	-19.569010	55.221559
02895		-2.368357	-9.347625	0.914035	-0.230143	0.954270	-1.609485	-89.608315	-20.488905	54.632233
02896		-2.350134	-9.169924	0.936322	-0.177985	0.903822	-1.456801	-89.504990	-21.324047	54.069235
02897		-2.520389	-9.030956	0.825270	-0.132072	0.829205	-1.307825	-89.384177	-22.069858	53.548786
02898		-2.616722	-8.775878	0.761280	-0.108459	0.708176	-1.161477	-89.270573	-22.733866	53.099698
02899		-2.735755	-8.639801	0.656064	-0.131201	0.549614	-1.042092	-89.203908	-23.327811	52.747563
02900		-2.873886	-8.487702	0.602246	-0.188623	0.338603	-0.951608	-89.218493	-23.872480	52.525877
02901		-2.772665	-8.403704	0.628923	-0.224933	0.104184	-0.850740	-89.313227	-24.360227	52.452277
02902		-2.614427	-8.245911	0.614864	-0.257094	-0.138815	-0.742928	-89.489280	-24.787681	52.533051
02903		-2.365381	-8.245333	0.616103	-0.285143	-0.367329	-0.640247	-89.744882	-25.157036	52.761146
02904		-2.050188	-8.240275	0.643899	-0.304685	-0.568243	-0.544970	-90.067485	-25.469702	53.118968
02905		-1.678469	-8.295828	0.655848	-0.305856	-0.727308	-0.472872	-90.438343	-25.739933	53.581030
02906		-1.396018	-8.411996	0.601097	-0.296281	-0.834875	-0.395252	-90.835165	-25.959984	54.113548
02907		-1.103633	-8.261403	0.516096	-0.243843	-0.900519	-0.307372	-91.223864	-26.127950	54.689905
02908		-1.011554	-8.131462	0.420944	-0.203776	-0.929560	-0.207845	-91.597722	-26.231948	55.284674
02909		-1.028356	-8.091819	0.283395	-0.166093	-0.916120	-0.114500	-91.948038	-26.282449	55.870617
02910		-1.077122	-7.868412	0.276831	-0.136064	-0.874755	-0.020644	-92.267221	-26.273104	56.427869
02911		-1.190705	-7.831055	0.250626	-0.127243	-0.808455	0.081747	-92.562634	-26.207970	56.940326
02912		-1.250528	-7.937180	0.320996	-0.107016	-0.717565	0.206675	-92.816276	-26.066878	57.389772
02913		8.563996	-25.411686	-3.503616	-0.713053	-0.511563	1.411530	-93.339924	-25.244753	57.664991
02914		9.011086	1.797910	1.191449	2.323660	-0.154131	1.130429	-92.029133	-24.589440	57.727147
02915		4.190459	-13.322278	-4.360650	2.134524	-0.235793	1.515152	-90.852286	-23.719377	57.849924
02916		4.220181	-5.947899	-0.076736	1.856062	-0.211499	1.677924	-89.832422	-22.753805	57.973978
02917		4.950914	-5.151913	-0.144121	1.170334	0.280835	1.685189	-89.095079	-21.787923	57.808538
02918		3.261588	-10.167006	-1.071154	0.587720	0.540128	1.695646	-88.639355	-20.807374	57.495526
02919		2.884319	-9.928132	0.508893	0.931283	0.556261	1.747942	-87.994234	-19.798042	57.185872
02920		2.669732	-8.431060	2.154513	0.774727	0.565144	1.820093	-87.446113	-18.739940	56.885643
02921		1.709490	-9.307193	2.874834	0.509377	0.482706	1.869042	-87.075759	-17.658135	56.647367
02922		1.410823	-9.469243	2.967244	0.490629	0.308411	1.915862	-86.752599	-16.549162	56.523073
02923		1.353961	-9.457500	3.000301	0.406433	0.144325	1.860637	-86.509567	-15.481135	56.501023
02924		1.322576	-9.689593	2.229214	0.195551	0.044719	1.761953	-86.401052	-14.468379	56.537593
02925		1.677194	-9.710827	1.431576	0.097486	-0.027538	1.753252	-86.360491	-13.467889	56.617826
02926		1.639106	-10.017243	0.636532	0.036854	-0.036229	1.763869	-86.352436	-12.456913	56.703446
02927		1.602809	-10.034758	0.097076	0.068755	0.002673	1.735663	-86.321830	-11.465434	56.765498
02928		1.828969	-10.040560	0.299346	0.068175	0.067046	1.740903	-86.281444	-10.463798	56.790551
02929		0.914503	-13.137317	-0.596547	0.072824	0.103831	1.776727	-86.236656	-9.445143	56.796395
02930		0.755691	-10.861761	0.496014	0.439765	0.113261	1.647306	-85.978467	-8.495216	56.794399
02931		1.058404	-10.614108	0.465766	0.248907	0.226145	1.610277	-85.822665	-7.566733	56.729170
02932		0.182482	-11.638733	0.709816	0.343809	0.248915	1.488838	-85.609868	-6.701469	56.648819
02933		0.373713	-10.700584	1.195466	0.323334	0.241996	1.375684	-85.411936	-5.905856	56.570498
02934		0.282103	-10.766720	1.015502	0.218838	0.279517	1.299019	-85.271031	-5.146916	56.469681
02935		0.361236	-10.508753	0.909299	0.174805	0.323747	1.211812	-85.156048	-4.440565	56.341003
02936		0.078934	-10.243727	1.497170	0.066510	0.387482	1.123198	-85.100117	-3.776302	56.172890
02937		-0.744395	-10.750049	2.184594	-0.022922	0.329449	1.037985	-85.100769	-3.168652	56.034040
02938		-0.731278	-10.145418	2.298200	-0.152580	0.183372	0.964559	-85.179308	-2.604754	55.975003
02939		-0.220281	-10.025915	1.382362	-0.261105	0.103077	0.900090	-85.324123	-2.086946	55.957505
02940		0.010647	-10.147572	0.770344	-0.314851	0.110781	0.848629	-85.497637	-1.592750	55.932064
02941		-0.582297	-11.420047	1.054406	-0.299937	0.092243	0.781137	-85.664951	-1.143481	55.912535
02942		-0.802758	-11.950440	0.413633	-0.013458	-0.011518	0.580792	-85.667134	-0.807668	55.943244
02943		-0.220945	-10.959760	0.030905	0.031162	-0.016884	0.407740	-85.645522	-0.576488	55.969275
02944		-0.022604	-10.246342	0.498850	0.156504	0.047257	0.334769	-85.549831	-0.378604	55.956007
02945		-0.258611	-9.652124	1.200905	0.178581	0.038284	0.322219	-85.443396	-0.193864	55.947322
02946		-0.222971	-9.949427	0.952225	0.110348	0.002333	0.312489	-85.374291	-0.010743	55.959333
02947		-0.357812	-10.121832	0.816421	0.121215	0.002763	0.277091	-85.300756	0.146596	55.969345
02948		-0.173187	-9.985683	0.707045	0.176560	0.012611	0.249423	-85.193685	0.294156	55.973004
02949		-0.087022	-9.743221	0.841037	0.168679	0.007964	0.257549	-85.092925	0.440555	55.979632
02950		-0.128246	-9.702736	0.902548	0.214074	0.033516	0.262437	-84.964469	0.596523	55.972553
02951		-0.165883	-9.413074	1.018632	0.162765	0.017672	0.279374	-84.867107	0.755843	55.975330
02952		-0.067560	-9.378779	1.146835	0.141082	0.026570	0.295902	-84.780421	0.930522	55.974488
02953		-1.108798	-10.247207	1.997915	0.000475	0.013643	0.278579	-84.775981	1.089172	55.979905
02954		-1.129077	-9.666683	1.554267	-0.016312	-0.104966	0.133317	-84.778058	1.164244	56.045794
02955		0.042348	-10.264154	0.278699	-0.225283	-0.080956	0.132792	-84.901981	1.234834	56.097520
02956		-0.365345	-9.561652	1.256571	-0.000786	-0.050121	0.121435	-84.895717	1.306058	56.131356
02957		-0.682714	-9.904006	1.005865	-0.164993	-0.070219	0.114138	-84.985141	1.366634	56.175888
02958		-0.418096	-10.090408	0.661107	-0.080260	-0.054705	0.087791	-85.024285	1.418482	56.210547
02959		-0.461319	-9.953883	0.811443	-0.025858	-0.046256	0.064315	-85.034320	1.451878	56.238830
02960		-0.413874	-9.764391	0.961507	-0.028600	-0.054399	0.061397	-85.043898	1.488670	56.271980
02961		-0.390579	-9.898634	0.827537	-0.008276	-0.037341	0.050997	-85.043977	1.514913	56.294506
02962		-0.408240	-9.802946	0.917114	0.009367	-0.044063	0.042156	-85.031958	1.541200	56.320802
02963		-0.368811	-9.724559	1.000566	-0.003669	-0.032325	0.049514	-85.029457	1.566840	56.340397
02964		-0.407413	-9.782462	0.944082	0.000092	-0.040915	0.041811	-85.022774	1.593045	56.364882
02965		-0.418208	-9.780140	0.966623	-0.017141	-0.032240	0.039008	-85.027991	1.612690	56.383908
02966		-0.430577	-9.800213	0.938771	-0.011967	-0.027776	0.032892	-85.028422	1.634424	56.400446
02967		-0.391041	-9.778810	0.974155	-0.015420	-0.021959	0.025330	-85.032828	1.646773	56.412921
02968		-0.445171	-9.751660	0.902264	-0.025409	-0.021675	0.022469	-85.041066	1.662828	56.425454
02969		-0.388363	-9.746933	0.943304	-0.023392	-0.016456	0.022883	-85.050129	1.674057	56.434662
02970		-0.383260	-9.749279	0.917961	-0.021438	-0.023232	0.023125	-85.056063	1.690379	56.448112
02971		-0.392578	-9.747167	0.939129	-0.022696	-0.019571	0.025318	-85.064666	1.702846	56.459217
02972		-0.394694	-9.747281	0.937057	-0.021457	-0.020819	0.021984	-85.070650	1.718600	56.471227
02973		-0.434629	-9.724182	0.998352	-0.015531	-0.015872	0.019522	-85.075215	1.727943	56.479932
02974		-0.457937	-9.683421	1.061801	-0.046047	-0.016860	0.016725	-85.095354	1.740858	56.489418
02975		-0.408586	-9.802409	0.903753	-0.065903	-0.016409	0.016927	-85.128772	1.748700	56.498297
02976		-0.402950	-9.805058	0.874779	-0.051987	-0.008564	0.015855	-85.152450	1.761498	56.502993
02977		-0.444775	-9.804488	0.883008	-0.051271	-0.016536	0.020574	-85.177473	1.771423	56.512113
02978		-0.420786	-9.801446	0.911537	-0.046623	-0.016352	0.021363	-85.197940	1.786961	56.521515
02979		-0.454209	-9.746499	0.943658	-0.046483	-0.018923	0.028415	-85.220162	1.801256	56.532366
02980		-0.355242	-9.755169	0.842800	-0.049134	-0.024759	0.030245	-85.241896	1.821440	56.546985
02981		-0.388643	-9.768942	0.881578	-0.041788	-0.015179	0.030447	-85.261486	1.837082	56.555783
02982		-0.429225	-9.711835	0.937532	-0.041322	-0.012023	0.021163	-85.278995	1.852647	56.562684
02983		-0.376880	-9.717349	0.873699	-0.042629	-0.011944	0.022128	-85.299135	1.863696	56.569233
02984		-0.288518	-9.643292	0.916697	-0.036804	-0.016588	0.046573	-85.313927	1.893522	56.579926
02985		-0.370952	-9.756261	0.823168	-0.034503	-0.032248	0.065556	-85.328951	1.928425	56.600100
02986		-0.427128	-9.740597	0.804921	-0.003162	-0.027264	0.073217	-85.324208	1.972918	56.618128
02987		-0.483254	-9.725419	0.968587	0.016559	-0.027603	0.067084	-85.310037	2.008910	56.635722
02988		-0.395374	-9.697067	0.892818	-0.006601	-0.028716	0.069116	-85.307218	2.050954	56.654401
02989		-0.540254	-9.973025	0.722621	0.009209	-0.026368	0.064723	-85.297264	2.085651	56.671189
02990		-0.492117	-9.669994	0.994998	0.030905	-0.020201	0.055472	-85.273150	2.120265	56.684376
02991		-0.516336	-9.880279	0.781516	0.033636	-0.020548	0.059463	-85.249313	2.152222	56.697615
02992		-0.509965	-9.769137	0.855048	0.032750	-0.030594	0.054467	-85.223907	2.185728	56.716717
02993		-0.552370	-9.779635	0.926033	0.056564	-0.018087	0.048006	-85.186992	2.211248	56.728034
02994		-0.483744	-9.744875	0.923748	0.031976	-0.026203	0.048535	-85.162122	2.241534	56.744373
02995		-0.460503	-9.787436	0.837841	0.046687	-0.027678	0.055678	-85.130623	2.270958	56.761567
02996		-0.477403	-9.760195	0.939709	0.062011	-0.026132	0.059433	-85.088514	2.307414	56.778427
02997		-0.483364	-9.759350	0.945422	0.052202	-0.032125	0.068351	-85.053704	2.343830	56.798827
02998		-0.503907	-9.719626	0.994030	0.054309	-0.030661	0.073452	-85.015846	2.388004	56.819012
02999		-0.450223	-9.761288	0.919349	0.051136	-0.034837	0.082325	-84.981521	2.432235	56.841706
03000		-0.545106	-9.755194	0.975373	0.065082	-0.031951	0.083515	-84.937400	2.482021	56.863189
03001		-0.522430	-9.741194	0.937849	0.050477	-0.035509	0.084614	-84.903390	2.527493	56.886445
03002		-0.589615	-9.778484	0.904351	0.069714	-0.024578	0.080871	-84.856770	2.576085	56.903645
03003		-0.525038	-9.662641	1.022857	0.053667	-0.030302	0.078173	-84.821042	2.618117	56.923662
03004		-0.578971	-9.657715	1.065044	0.055693	-0.014079	0.070435	-84.782730	2.661246	56.934384
03005		-0.435689	-9.649048	0.984381	0.009608	-0.022229	0.086323	-84.772409	2.708328	56.950261
03006		-0.537067	-9.721593	0.941661	0.050872	-0.014227	0.092081	-84.736773	2.763750	56.962235
03007		-0.650406	-9.651008	1.111586	0.019145	-0.008816	0.090430	-84.721320	2.813868	56.970708
03008		-0.565316	-9.693055	1.042104	-0.006005	-0.002741	0.086330	-84.718584	2.866579	56.975851
03009		-0.661245	-9.755479	1.097476	-0.032451	0.003447	0.083195	-84.733050	2.913214	56.976941
03010		-0.644891	-9.821796	0.952894	-0.071480	0.010261	0.079166	-84.768211	2.962494	56.974255
03011		-0.655729	-9.878525	0.900260	-0.055966	-0.000725	0.072207	-84.796057	3.002643	56.977110
03012		-0.658761	-9.903158	0.821965	-0.050102	-0.001853	0.069641	-84.818653	3.045832	56.980807
03013		-0.662099	-9.880791	0.868505	-0.016082	-0.009673	0.058672	-84.823408	3.077798	56.988047
03014		-0.687284	-9.804687	0.929975	-0.018912	-0.012888	0.053453	-84.827863	3.111155	56.997201
03015		-0.645666	-9.843082	0.895841	0.002655	-0.020246	0.047503	-84.821577	3.136201	57.009903
03016		-0.595739	-9.815071	0.833380	0.015740	-0.026307	0.046069	-84.805782	3.164621	57.026348
03017		-0.644954	-9.741143	1.045637	0.037676	-0.028016	0.052051	-84.779159	3.191851	57.043742
03018		-0.569284	-9.791399	0.897894	0.003956	-0.032751	0.058262	-84.769863	3.226845	57.064524
03019		-0.628912	-9.784029	0.959873	0.029463	-0.024666	0.067287	-84.747988	3.262934	57.080819
03020		-0.639054	-9.839956	0.916059	0.018798	-0.029718	0.069040	-84.730238	3.304183	57.100455
03021		-0.744642	-9.759119	1.008937	0.030666	-0.025945	0.063950	-84.707618	3.338288	57.117331
03022		-0.710219	-9.760492	0.998263	0.025069	-0.031215	0.055899	-84.686246	3.371920	57.137153
03023		-0.682009	-9.759557	1.010286	0.018383	-0.029227	0.051274	-84.670572	3.398608	57.155256
03024		-0.653252	-9.805676	0.899672	0.028277	-0.030848	0.051718	-84.647367	3.429834	57.174666
03025		-0.688067	-9.783038	0.943223	0.038950	-0.029608	0.054678	-84.619865	3.458429	57.193191
03026		-0.657934	-9.875401	0.891829	0.059440	-0.031123	0.055688	-84.578775	3.491851	57.213001
03027		-0.702463	-9.837798	0.909386	0.085842	-0.035099	0.057662	-84.524182	3.521823	57.234868
03028		-0.722954	-9.737880	1.031184	0.097648	-0.030070	0.049018	-84.461257	3.551428	57.253763
03029		-0.694789	-9.817932	0.932720	0.122630	-0.031369	0.044877	-84.385737	3.574268	57.272854
03030		-0.754002	-9.715194	1.070733	0.117195	-0.031959	0.040464	-84.311566	3.598813	57.292409
03031		-0.701398	-9.733005	1.075534	0.122436	-0.031320	0.039001	-84.236160	3.618256	57.311196
03032		-0.701353	-9.708896	1.136303	0.103196	-0.032363	0.038220	-84.169984	3.641422	57.330903
03033		-0.674613	-9.695522	1.102799	0.102124	-0.028886	0.046365	-84.106260	3.665161	57.348780
03034		-0.692389	-9.688738	1.158635	0.084394	-0.025288	0.048204	-84.051051	3.694358	57.365079
03035		-0.774692	-9.613911	1.186252	0.071066	-0.024996	0.043653	-84.005257	3.716749	57.380619
03036		-0.729134	-9.629707	1.208148	0.042566	-0.026142	0.041320	-83.973981	3.741920	57.397031
03037		-0.723669	-9.691564	1.119861	0.036726	-0.018798	0.038006	-83.948101	3.761448	57.408718
03038		-0.738308	-9.745237	1.101029	0.032786	-0.017160	0.037362	-83.922761	3.784863	57.419781
03039		-0.729375	-9.784420	1.061949	0.040026	-0.021065	0.040930	-83.894883	3.805909	57.432959
03040		-0.753212	-9.775275	1.136194	0.045286	-0.020403	0.039440	-83.862249	3.830268	57.446020
03041		-0.729911	-9.785650	1.048185	0.058487	-0.018165	0.036896	-83.823910	3.849179	57.457318
03042		-0.739338	-9.747464	1.074905	0.088295	-0.018544	0.041838	-83.766693	3.874970	57.469496
03043		-0.745415	-9.686150	1.151982	0.079004	-0.022475	0.045060	-83.716386	3.898241	57.483800
03044		-0.717650	-9.718888	1.174106	0.096302	-0.023396	0.052682	-83.654339	3.929849	57.499474
03045		-0.762526	-9.714749	1.196358	0.073885	-0.024662	0.056102	-83.606813	3.959241	57.515776
03046		-0.750652	-9.696276	1.205966	0.064136	-0.019391	0.056863	-83.563314	3.993426	57.529482
03047		-0.756934	-9.729409	1.215880	0.054263	-0.017697	0.056423	-83.527286	4.023425	57.541875
03048		-0.789407	-9.636830	1.252760	0.048986	-0.014630	0.053183	-83.492656	4.055774	57.552664
03049		-0.787023	-9.733507	1.168950	0.031357	-0.008436	0.053805	-83.470122	4.084872	57.559636
03050		-0.790531	-9.792937	1.104938	0.059801	-0.007499	0.056159	-83.429559	4.119343	57.566581
03051		-0.797708	-9.731346	1.179652	0.066388	-0.008301	0.057270	-83.386933	4.150413	57.573742
03052		-0.768300	-9.790509	1.127349	0.068869	-0.013467	0.057721	-83.340923	4.185340	57.584243
03053		-0.825979	-9.745890	1.190899	0.077500	-0.013976	0.061547	-83.291660	4.218454	57.594978
03054		-0.788144	-9.724224	1.233724	0.072937	-0.012917	0.063174	-83.243312	4.256474	57.605585
03055		-0.804901	-9.743016	1.215093	0.075107	-0.009058	0.067092	-83.195583	4.293057	57.613948
03056		-0.803566	-9.710420	1.194920	0.073558	-0.017440	0.069278	-83.146641	4.334193	57.627611
03057		-0.891227	-9.736987	1.233682	0.062869	-0.026060	0.075876	-83.105125	4.374594	57.646337
03058		-0.859483	-9.772900	1.230961	0.072265	-0.038645	0.072807	-83.055963	4.416228	57.672402
03059		-0.849114	-9.754307	1.240570	0.066033	-0.029553	0.076472	-83.012445	4.456694	57.693230
03060		-0.776575	-9.759316	1.219700	0.069727	-0.037321	0.077173	-82.964736	4.500835	57.718910
03061		-0.843410	-9.649761	1.374082	0.066992	-0.024463	0.083756	-82.920821	4.545769	57.737416
03062		-0.880885	-9.735711	1.231370	0.074847	-0.025462	0.083914	-82.870632	4.594506	57.756880
03063		-0.820697	-9.604796	1.316919	0.077592	-0.023486	0.086756	-82.820634	4.641184	57.775123
03064		-0.911233	-9.664722	1.360466	0.061133	-0.024627	0.089987	-82.778272	4.693371	57.794627
03065		-0.822327	-9.713989	1.273996	0.075280	-0.021172	0.099466	-82.729592	4.747411	57.812549
03066		-0.833829	-9.589936	1.416168	0.055138	-0.019588	0.110374	-82.690737	4.811491	57.830747
03067		-0.782326	-9.673531	1.323260	0.050614	-0.011060	0.130943	-82.656436	4.884132	57.845290
03068		-0.744998	-9.638669	1.464621	0.027166	-0.002169	0.159057	-82.634094	4.977091	57.857211
03069		-0.467767	-10.049001	1.224022	-0.012452	0.036595	0.240029	-82.637556	5.115209	57.852664
03070		-0.905732	-9.599664	1.556538	0.032993	0.060774	0.293889	-82.614177	5.289325	57.838665
03071		-0.905013	-9.770626	1.308398	-0.035294	0.072783	0.320586	-82.632130	5.475880	57.819445
03072		-0.909841	-9.730976	1.333127	-0.021760	0.074802	0.344531	-82.640624	5.679763	57.801142
03073		-1.023014	-9.685389	1.353105	-0.029269	0.078230	0.369740	-82.655218	5.894640	57.782339
03074		-1.036219	-9.668834	1.327750	-0.048215	0.082904	0.381124	-82.679229	6.119863	57.761985
03075		-1.044465	-9.700545	1.335971	-0.052034	0.083288	0.404717	-82.707069	6.354971	57.742668
03076		-1.116552	-9.661539	1.315683	-0.059593	0.090242	0.425271	-82.737911	6.605759	57.721119
03077		-1.111696	-9.676448	1.325048	-0.067435	0.090853	0.451904	-82.774880	6.868213	57.700624
03078		-1.206098	-9.652833	1.300476	-0.076632	0.092833	0.475979	-82.815464	7.147945	57.680933
03079		-1.239782	-9.578078	1.438177	-0.099474	0.099613	0.501347	-82.871228	7.439102	57.658551
03080		-1.131085	-9.650866	1.481502	-0.153174	0.123135	0.520134	-82.957825	7.746005	57.624036
03081		-1.114996	-9.972860	1.147487	-0.212807	0.150733	0.598172	-83.082003	8.095716	57.578168
03082		-1.352494	-10.122551	0.999589	-0.154550	0.165517	0.691068	-83.171798	8.502559	57.529953
03083		-1.447653	-9.654528	1.291308	-0.140116	0.173662	0.755146	-83.255529	8.942977	57.480349
03084		-1.505074	-9.419029	1.575636	-0.219969	0.181275	0.776538	-83.384330	9.399297	57.427349
03085		-1.410800	-9.688807	1.305672	-0.316603	0.215769	0.835038	-83.573525	9.887701	57.356510
03086		-1.495810	-9.729318	1.305653	-0.316831	0.235038	0.917185	-83.763111	10.427129	57.278509
03087		-1.573625	-9.994716	1.340402	-0.387666	0.255972	1.004607	-83.997402	11.014090	57.191182
03088		-1.613561	-10.483387	0.982744	-0.376842	0.273140	1.129368	-84.225699	11.675997	57.099249
03089		-2.152899	-10.475562	0.852352	-0.262544	0.293368	1.279851	-84.392521	12.421350	57.001213
03090		-2.002816	-10.282244	0.903982	-0.266573	0.253450	1.379847	-84.555371	13.224358	56.930218
03091		-2.073812	-10.210795	0.942173	-0.198642	0.255726	1.474174	-84.681627	14.078008	56.860255
03092		-2.190941	-10.041439	1.163390	-0.193739	0.260067	1.534572	-84.804809	14.969216	56.789388
03093		-2.414591	-10.148253	1.194509	-0.159409	0.270241	1.573807	-84.912693	15.880175	56.711863
03094		-2.594259	-10.275003	0.886049	-0.140169	0.237001	1.593271	-85.003762	16.803366	56.653746
03095		-2.744164	-9.269111	1.276297	-0.160432	0.240429	1.644741	-85.109454	17.753081	56.593677
03096		-2.924136	-9.641345	0.725131	-0.174268	0.241302	1.680557	-85.222598	18.726030	56.533347
03097		-3.108121	-9.201737	0.963826	-0.166256	0.236366	1.709752	-85.333183	19.712446	56.474424
03098		-3.142030	-9.543227	0.840386	-0.179258	0.235264	1.734190	-85.450649	20.715457	56.415642
03099		-3.294877	-9.300266	0.944671	-0.097322	0.268556	1.759647	-85.531641	21.731608	56.334703
03100		-3.438261	-9.436763	0.891006	-0.110830	0.283843	1.785054	-85.623921	22.765557	56.244094
03101		-3.738762	-9.373356	0.963889	-0.064002	0.306652	1.804853	-85.698819	23.808958	56.137106
03102		-3.924678	-9.394308	0.674760	-0.073905	0.306217	1.826890	-85.779859	24.867443	56.029850
03103		-4.054000	-9.464809	0.749873	-0.061356	0.293933	1.867286	-85.854276	25.945718	55.928852
03104		-4.182645	-9.827210	0.735132	-0.010477	0.297417	1.913890	-85.900497	27.053241	55.826481
03105		-4.301305	-9.512781	0.697432	0.057801	0.300127	1.965351	-85.911673	28.187670	55.722158
03106		-4.393827	-9.465316	0.804903	0.067524	0.302591	2.016491	-85.917578	29.353859	55.618268
03107		-4.470599	-9.707690	0.805836	0.146659	0.317699	2.075874	-85.885871	30.552178	55.505317
03108		-4.502679	-9.595858	0.959835	0.238929	0.339834	2.133136	-85.807771	31.786525	55.381332
03109		-4.827970	-9.430332	1.183157	0.345839	0.385301	2.170676	-85.687607	33.042142	55.228239
03110		-5.340475	-9.008316	0.981851	0.398299	0.434909	2.200164	-85.555704	34.319167	55.044899
03111		-5.397078	-8.499386	0.802674	0.398201	0.452496	2.207783	-85.435639	35.599560	54.849152
03112		-5.231582	-8.905891	0.821195	0.398469	0.476474	2.265637	-85.325118	36.916438	54.640987
03113		-5.405025	-8.710891	1.427591	0.461664	0.505983	2.318153	-85.195465	38.263032	54.413223
03114		-5.166450	-9.587417	1.819188	0.624264	0.554484	2.328647	-84.996279	39.620348	54.152606
03115		-5.577540	-8.616938	1.998090	0.906341	0.721495	2.338021	-84.721433	40.990577	53.768398
03116		-6.958511	-9.715136	1.447311	0.920115	0.827414	2.284275	-84.499569	42.338683	53.301020
03117		-5.767583	-8.683845	2.163282	1.312640	0.927040	2.239250	-84.118904	43.667026	52.750456
03118		-5.689904	-8.463094	1.125061	1.443464	1.040791	2.214250	-83.734601	44.992033	52.109134
03119		-6.277392	-6.759050	0.942342	1.510656	1.097026	2.185549	-83.361283	46.305985	51.415070
03120		-6.644213	-6.517970	0.784391	1.347776	1.099866	2.152038	-83.098092	47.604937	50.711261
03121		-6.747917	-7.519221	0.713863	1.325645	1.097287	2.106794	-82.869761	48.878838	49.993693
03122		-7.325489	-6.896048	0.698495	1.417059	1.109167	2.033604	-82.618349	50.115113	49.249669
03123		-7.526820	-7.104372	0.253842	1.366301	1.082770	1.992653	-82.403211	51.326993	48.511024
03124		-7.304268	-6.149434	0.052415	1.374271	1.074534	1.953319	-82.198108	52.518676	47.764816
03125		-7.493638	-5.624932	-0.205624	1.180432	1.039220	1.971741	-82.099983	53.718209	47.036857
03126		-8.036678	-5.225350	-0.214292	0.968799	0.978183	1.985778	-82.095438	54.922364	46.353025
03127		-8.224256	-5.445484	-0.257264	0.783240	0.915098	1.992365	-82.173463	56.123981	45.709070
03128		-8.599193	-5.029126	-0.149473	0.603966	0.854900	1.977624	-82.329700	57.312980	45.102541
03129		-8.761609	-4.869646	-0.300385	0.394388	0.785339	1.953204	-82.578607	58.480536	44.537159
03130		-8.932068	-4.196599	-0.368396	0.107302	0.723483	1.933292	-82.966599	59.631878	44.007718
03131		-8.864496	-3.899057	-0.227354	-0.293412	0.653973	1.956933	-83.553155	60.788378	43.520898
03132		-8.955420	-4.490275	-0.175131	-0.594529	0.576798	1.937700	-84.276333	61.927810	43.079919
03133		-8.918398	-4.473690	-0.088451	-0.816067	0.520149	1.937392	-85.115231	63.059644	42.656716
03134		-8.721005	-4.239213	-0.186465	-1.056703	0.445145	1.983271	-86.053889	64.212670	42.279936
03135		-8.428008	-3.702689	-0.358097	-1.371485	0.378666	2.083222	-87.148480	65.415974	41.934259
03136		-8.470005	-3.307857	-0.410991	-1.745188	0.304766	2.264119	-88.425657	66.719384	41.626247
03137		-8.564880	-3.303820	-0.582615	-2.193435	0.200303	2.477458	-89.907807	68.139247	41.377825
03138		-8.754956	-3.904109	-0.771491	-2.644083	0.079242	2.724170	-91.590844	69.699693	41.193237
03139		-8.811636	-4.551049	-0.775780	-2.978831	-0.042409	2.970350	-93.439739	71.399762	41.038314
03140		-8.854658	-5.372362	-0.854750	-3.233972	-0.180797	3.211323	-95.411996	73.242294	40.908861
03141		-8.825288	-6.186980	-0.876294	-3.288275	-0.324350	3.413003	-97.415559	75.204976	40.780641
03142		-8.932696	-6.823816	-0.627985	-3.170378	-0.467573	3.536304	-99.354570	77.248057	40.650430
03143		-5.856528	-7.182675	-0.495500	-3.062093	-0.670738	3.452222	-100.969032	79.261405	40.789415
03144		-5.447101	-12.515569	-0.557643	-2.826149	-0.868801	2.439485	-101.351882	80.727839	42.040662
03145		-6.014991	-17.241710	0.019484	-2.333507	-1.059272	0.667993	-99.367025	81.212335	45.400046
03146		-2.950683	-17.622339	-0.025974	-1.740968	-0.949853	-1.114035	-96.434201	80.651266	49.375667
03147		-1.776927	-15.273015	-0.074365	-1.355422	-0.757454	-2.813639	-93.975739	79.083328	52.657570
03148		-3.017513	-14.506225	0.045057	-0.892782	-0.628142	-4.303757	-92.197542	76.634257	54.994650
03149		-5.322805	-14.320812	0.425276	-0.326975	-0.648524	-5.395066	-90.696311	73.551974	56.737224
03150		-7.090726	-13.427611	1.023572	0.165580	-0.786686	-6.020633	-89.233118	70.094318	58.171941
03151		-8.395000	-11.472723	0.836628	0.813100	-0.997720	-6.261132	-87.580864	66.491153	59.443687
03152		-7.331589	-6.644476	1.270336	1.035671	-1.300744	-6.009079	-85.827516	63.002068	60.720382
03153		-6.453746	-2.389848	1.009485	0.748508	-1.642849	-5.390742	-84.169454	59.841872	62.114801
03154		-5.632778	-0.307887	1.256040	0.103593	-1.986260	-4.760962	-82.773465	56.993288	63.678144
03155		-5.239917	-2.889284	1.246397	-0.631825	-2.298882	-4.370021	-81.717141	54.333407	65.390454
03156		-4.221570	-6.138014	1.353667	-0.835689	-2.551542	-4.230496	-80.765534	51.706446	67.175447
03157		-3.063406	-8.473346	1.548437	-0.643839	-2.736639	-4.247234	-79.762451	49.041674	68.950990
03158		-1.883157	-10.145638	1.328707	-0.166936	-2.769933	-4.281883	-78.648933	46.325450	70.580564
03159		-1.385428	-9.601695	1.098631	0.417374	-2.665305	-4.221732	-77.415138	43.641470	71.981377
03160		-1.505218	-8.421503	0.694813	0.778832	-2.434819	-4.073538	-76.215158	41.041174	73.094962
03161		-1.873850	-7.752233	0.167729	0.805113	-2.152400	-3.923787	-75.217272	38.557405	73.926565
03162		-1.947928	-7.410035	-0.093620	0.564095	-1.804750	-3.880044	-74.573617	36.131653	74.449805
03163		-2.063394	-7.634572	-0.189758	0.273140	-1.433171	-3.878613	-74.278207	33.769739	74.685090
03164		-2.374164	-7.905380	-0.093326	0.031856	-1.063592	-3.776212	-74.259500	31.511680	74.681310
03165		-2.678779	-8.516205	0.117576	-0.136633	-0.728427	-3.572654	-74.423221	29.427265	74.504838
03166		-2.485085	-9.498041	-0.234720	-0.212343	-0.424594	-3.389538	-74.697566	27.480011	74.179927
03167		-2.440648	-9.308411	0.058572	-0.338096	-0.118718	-3.304297	-75.101675	25.633659	73.700331
03168		-2.860988	-10.377422	0.107338	-0.603833	0.142293	-3.296495	-75.702779	23.815618	73.086015
03169		-3.451228	-10.779359	0.624964	-0.701849	0.360610	-3.234864	-76.375644	22.065954	72.381160
03170		-3.892116	-11.187078	1.137192	-0.701367	0.553109	-3.088277	-77.054849	20.405650	71.610877
03171		-4.099064	-11.505780	1.286443	-0.687539	0.697306	-2.923717	-77.714847	18.857323	70.806987
03172		-4.261729	-11.845559	1.300199	-0.685869	0.815342	-2.822550	-78.366094	17.360945	69.970665
03173		-4.312479	-12.250001	1.191294	-0.714349	0.878876	-2.763296	-79.012072	15.906318	69.129768
03174		-4.165296	-12.816353	1.060476	-0.768332	0.912573	-2.770532	-79.670159	14.431987	68.290502
03175		-3.841451	-13.636422	0.972026	-0.836859	0.937645	-2.872731	-80.344078	12.903304	67.450644
03176		-3.558463	-13.929587	0.918663	-0.804636	0.975291	-3.008050	-80.981874	11.282346	66.598327
03177		-3.334094	-13.579469	0.827627	-0.753024	1.008154	-3.110737	-81.564659	9.607341	65.741415
03178		-3.148127	-13.042947	0.689028	-0.748929	1.028803	-3.191757	-82.121826	7.869850	64.886329
03179		-2.850498	-12.561216	0.657182	-0.816115	1.027888	-3.263889	-82.687330	6.093047	64.047831
03180		-2.541445	-12.449841	0.729110	-0.908573	1.005187	-3.299722	-83.278978	4.276255	63.239943
03181		-2.389399	-12.398262	0.827813	-0.965780	0.971749	-3.295671	-83.873396	2.461118	62.472765
03182		-2.304963	-12.446026	1.046732	-0.977166	0.922036	-3.255202	-84.450672	0.648958	61.755410
03183		-2.359990	-12.491969	1.286882	-0.968751	0.855878	-3.188136	-84.998965	-1.125911	61.097859
03184		-2.294825	-12.648535	1.360220	-0.941670	0.770985	-3.129986	-85.515558	-2.886727	60.507307
03185		-2.307569	-12.931537	1.370688	-0.938815	0.676700	-3.105083	-86.015299	-4.633363	59.986871
03186		-2.308148	-13.261385	1.403662	-0.913891	0.576887	-3.090151	-86.493305	-6.388177	59.537748
03187		-2.447493	-13.457893	1.372020	-0.866395	0.488372	-3.071960	-86.937080	-8.130413	59.153181
03188		-2.593746	-13.417208	1.266305	-0.790189	0.386465	-3.065181	-87.337956	-9.882436	58.839003
03189		-2.873411	-13.162322	1.092878	-0.734801	0.287711	-3.029799	-87.709187	-11.610714	58.593736
03190		-3.101967	-12.502752	0.983937	-0.748643	0.179313	-2.985839	-88.098449	-13.324841	58.423116
03191		-3.094479	-11.911265	0.919926	-0.899189	0.072407	-2.968446	-88.586392	-15.024812	58.328307
03192		-2.995954	-11.868013	0.877677	-1.001656	-0.000563	-2.901080	-89.147747	-16.694054	58.293175
03193		-2.948935	-11.580737	1.047002	-0.993805	-0.033043	-2.736700	-89.713783	-18.263289	58.295391
03194		-2.917819	-11.511591	1.163338	-0.904613	-0.033773	-2.522372	-90.235024	-19.714924	58.313937
03195		-3.051980	-11.239299	1.333700	-0.800428	-0.004097	-2.302127	-90.693974	-21.035020	58.326548
03196		-3.254850	-11.139255	1.465624	-0.717824	0.022114	-2.103005	-91.103964	-22.245407	58.332039
03197		-3.393882	-11.153825	1.465322	-0.591184	0.051281	-1.916004	-91.436000	-23.344732	58.325263
03198		-3.415718	-10.790538	1.341397	-0.410802	0.082810	-1.731137	-91.658151	-24.341819	58.301434
03199		-3.415231	-10.313510	1.140113	-0.267600	0.110858	-1.555867	-91.789919	-25.235939	58.259730
03200		-3.375469	-9.732867	0.882967	-0.193190	0.125598	-1.408364	-91.874070	-26.047932	58.207255
03201		-3.153194	-9.087461	0.566067	-0.147424	0.123428	-1.263738	-91.930709	-26.775118	58.153848
03202		-2.890324	-8.518521	0.433687	-0.138534	0.124425	-1.096598	-91.979996	-27.407598	58.096554
03203		-2.465987	-8.028780	0.255288	-0.154722	0.111686	-0.916176	-92.040070	-27.935621	58.043792
03204		-1.745930	-7.922548	0.107047	-0.176805	0.112639	-0.744112	-92.110381	-28.365205	57.986792
03205		-1.131038	-8.144087	0.078644	-0.225251	0.135530	-0.629844	-92.199891	-28.729919	57.912555
03206		-0.551248	-8.293535	0.027586	-0.232941	0.171958	-0.554062	-92.281055	-29.051409	57.812922
03207		-0.230678	-8.296769	0.175536	-0.186489	0.205194	-0.475303	-92.323658	-29.329419	57.689539
03208		0.034879	-8.077462	0.206422	-0.137209	0.239660	-0.380732	-92.324922	-29.552736	57.540776
03209		-0.031899	-8.034271	0.208977	-0.095254	0.247561	-0.289741	-92.297923	-29.725509	57.384058
03210		-0.357588	-8.028939	0.275248	-0.050187	0.213206	-0.213967	-92.254596	-29.852059	57.247627
03211		-0.691138	-7.779714	0.286066	-0.076607	0.124048	-0.167072	-92.255060	-29.951684	57.168682
03212		-1.041906	-7.644100	0.344989	-0.146354	-0.011507	-0.124418	-92.339270	-30.021211	57.178169
03213		-1.119762	-7.684567	0.457806	-0.207598	-0.167837	-0.049178	-92.509696	-30.046475	57.289162
03214		-1.101583	-7.842769	0.545435	-0.197202	-0.325054	0.065272	-92.723983	-29.998492	57.500619
03215		-0.882617	-7.889009	0.630337	-0.153385	-0.449681	0.191115	-92.952198	-29.877557	57.789968
03216		-0.668493	-7.923690	0.567750	-0.104057	-0.542189	0.311150	-93.178449	-29.680131	58.134879
03217		-0.578197	-7.860891	0.424822	-0.060242	-0.578222	0.433625	-93.387661	-29.414314	58.497387
03218		-0.680014	-7.889664	0.302623	-0.021383	-0.576676	0.554309	-93.568165	-29.073852	58.851718
03219		-0.765142	-7.801196	0.211788	-0.019877	-0.550867	0.663220	-93.735198	-28.675728	59.182464
03220		-0.867207	-8.028150	0.259090	-0.040468	-0.484695	0.761487	-93.887024	-28.217917	59.463033
03221		-0.939438	-8.221069	0.446538	-0.049468	-0.385011	0.833796	-94.010094	-27.727341	59.673668
03222		24.855115	-20.169483	7.824565	-1.871329	-0.818431	1.650444	-95.277554	-26.742215	60.111609
03223		8.245874	-22.785085	-16.833668	5.076002	1.108049	1.676460	-92.021398	-25.825321	59.335587
03224		20.131226	-0.011493	-5.673013	1.306589	0.414956	1.333643	-91.144319	-25.064142	59.047623
03225		5.275334	-0.045983	2.194637	3.439196	1.249233	1.449845	-88.840719	-24.234504	58.258917
03226		2.780243	-8.252369	1.583732	0.761509	1.104636	1.959204	-88.135177	-23.093399	57.599144
03227		3.043899	-9.510429	2.910655	1.039844	1.221609	1.711762	-87.260177	-22.086374	56.882970
03228		2.405388	-8.718631	3.223330	0.803178	1.070056	1.618662	-86.572166	-21.124914	56.276735
03229		1.793989	-7.027136	4.199900	0.568657	0.913438	1.764539	-86.069805	-20.083452	55.786687
03230		1.306770	-8.738409	4.189612	0.186009	0.767564	1.819503	-85.828126	-19.009943	55.397771
03231		0.970564	-9.767833	4.553464	0.065555	0.541777	1.807110	-85.708115	-17.955496	55.150550
03232		0.756618	-10.086115	4.494301	0.039044	0.230642	1.852533	-85.663480	-16.884304	55.094460
03233		1.293535	-9.490100	3.434339	-0.017748	-0.043010	1.859120	-85.699941	-15.825019	55.202291
03234		1.817934	-9.422744	1.569929	-0.187733	-0.186584	1.865216	-85.851789	-14.764015	55.392704
03235		2.272986	-9.754755	-0.310771	-0.224823	-0.165606	1.856229	-86.019346	-13.710913	55.566772
03236		2.035114	-10.310717	-1.179581	-0.238933	-0.029019	1.799841	-86.170274	-12.680093	55.654318
03237		2.270623	-11.327162	-0.356926	-0.288820	0.161231	1.785858	-86.325969	-11.654067	55.627184
03238		0.371681	-14.257283	-1.022679	0.067967	0.222122	1.705930	-86.268398	-10.667346	55.560581
03239		0.846080	-10.888546	1.327967	0.165226	0.215635	1.521913	-86.157568	-9.790143	55.492513
03240		0.641358	-11.658855	0.586462	0.046678	0.267198	1.431411	-86.108890	-8.958193	55.392349
03241		0.678287	-11.090124	0.762253	0.165409	0.251553	1.305819	-85.995923	-8.202909	55.297708
03242		0.833949	-10.545154	0.892874	0.098357	0.294058	1.215462	-85.917407	-7.492853	55.176271
03243		0.356908	-11.139466	1.131780	0.035966	0.305478	1.137602	-85.876486	-6.831240	55.046009
03244		0.236919	-10.849942	1.313425	0.056894	0.258179	1.023973	-85.826121	-6.231781	54.938913
03245		0.386479	-10.335620	1.158867	-0.006704	0.228285	0.943009	-85.816247	-5.684418	54.846026
03246		0.420887	-10.217648	1.144686	-0.062470	0.223596	0.885797	-85.837665	-5.165217	54.753491
03247		0.413056	-9.969562	1.105784	-0.118066	0.220380	0.844526	-85.893289	-4.674532	54.660790
03248		0.237064	-10.266449	1.044107	-0.172461	0.205838	0.814324	-85.979785	-4.197032	54.574700
03249		0.150690	-10.303419	1.051832	-0.177462	0.171874	0.751948	-86.072544	-3.761449	54.504845
03250		0.204718	-10.228722	0.664104	-0.163603	0.153480	0.712814	-86.156793	-3.344225	54.443437
03251		0.224926	-10.259841	0.603259	-0.135926	0.136952	0.664304	-86.227609	-2.960281	54.389037
03252		0.274331	-10.116808	0.524115	-0.084961	0.140682	0.637866	-86.267841	-2.586504	54.331251
03253		0.233929	-10.094392	0.603657	-0.023578	0.127358	0.624005	-86.275140	-2.226034	54.280341
03254		0.026166	-10.100135	0.709035	0.008915	0.101878	0.610503	-86.263104	-1.869373	54.243647
03255		-0.286836	-11.214667	0.615494	0.068785	0.027470	0.556354	-86.219737	-1.551305	54.247540
03256		-0.113300	-10.878734	0.463078	0.198983	0.013344	0.439758	-86.100331	-1.295546	54.255620
03257		0.036813	-10.458135	0.357403	0.300547	0.031025	0.362674	-85.923962	-1.088057	54.251034
03258		-0.008918	-9.860590	0.772519	0.343762	0.040300	0.321876	-85.721278	-0.898580	54.240274
03259		-0.009794	-9.737866	1.014987	0.305670	0.038351	0.294508	-85.541922	-0.729688	54.229906
03260		-0.203318	-9.869678	0.968311	0.270655	0.023387	0.268259	-85.381274	-0.571548	54.227548
03261		0.137892	-9.543217	0.918084	0.231323	0.034819	0.250291	-85.244580	-0.428016	54.218066
03262		-0.219804	-9.874960	1.076803	0.173069	0.040787	0.241574	-85.139780	-0.284282	54.205217
03263		-0.471957	-9.739504	1.367010	0.135008	0.020017	0.213216	-85.058345	-0.162605	54.202907
03264		-0.117700	-9.937700	0.845232	0.057975	0.002031	0.199058	-85.019537	-0.045002	54.210452
03265		-0.156134	-9.851772	0.841793	0.122037	0.001334	0.180043	-84.945541	0.056810	54.217390
03266		0.049280	-9.741340	0.817694	0.093591	-0.000257	0.191430	-84.886310	0.169911	54.226099
03267		-0.254856	-9.913505	0.950488	0.133132	0.009045	0.187132	-84.805946	0.276148	54.229245
03268		0.046678	-9.892333	0.658052	0.138655	-0.005911	0.196004	-84.720849	0.391515	54.241710
03269		0.075504	-9.827956	0.790194	0.202702	0.018564	0.205965	-84.600644	0.508992	54.240774
03270		-0.948933	-10.126194	1.675537	0.096027	-0.014059	0.193071	-84.539912	0.622146	54.258104
03271		-0.399115	-9.373546	1.560498	0.104904	-0.061132	0.126540	-84.475271	0.689956	54.298580
03272		0.124660	-10.163087	0.308724	-0.047186	-0.066643	0.156658	-84.496084	0.779470	54.344063
03273		-0.139908	-9.406938	1.482394	0.060437	-0.049587	0.137700	-84.456891	0.854260	54.378609
03274		-0.389676	-9.572289	1.236899	-0.020879	-0.057862	0.153506	-84.462596	0.942384	54.418950
03275		-0.312453	-10.058004	0.811990	-0.069941	-0.054553	0.158962	-84.497933	1.029029	54.457497
03276		-0.336077	-9.607111	1.207342	-0.018570	-0.042559	0.141460	-84.502366	1.111142	54.488394
03277		-0.137649	-9.925533	0.886836	-0.064969	-0.071211	0.133675	-84.534585	1.182478	54.535003
03278		-0.516023	-9.819171	0.983515	-0.030072	-0.045745	0.126463	-84.545496	1.255854	54.566850
03279		-0.404533	-9.867146	1.000841	-0.013617	-0.042721	0.120089	-84.548560	1.321015	54.596433
03280		-0.247589	-9.857924	0.873268	-0.036181	-0.049417	0.119474	-84.562855	1.390212	54.629979
03281		-0.228196	-9.849626	1.164031	-0.018343	-0.063196	0.114092	-84.568278	1.450852	54.670899
03282		-0.666041	-9.910071	0.922108	-0.017881	-0.043373	0.102921	-84.572121	1.510905	54.700087
03283		-0.373061	-9.830982	0.989218	-0.002221	-0.035828	0.084703	-84.568686	1.556269	54.723793
03284		-0.196161	-9.782919	0.916830	-0.017357	-0.060555	0.094395	-84.571924	1.610529	54.762325
03285		-0.470170	-9.773140	1.059630	-0.002828	-0.052107	0.091302	-84.568520	1.658774	54.795681
03286		-0.515197	-9.894728	0.851793	0.006459	-0.051717	0.092972	-84.558192	1.712668	54.829100
03287		-0.427059	-9.808887	0.828383	0.058739	-0.039535	0.084825	-84.519681	1.757886	54.854956
03288		-0.264573	-9.569055	1.180228	0.075809	-0.034650	0.072651	-84.469922	1.801078	54.877581
03289		-0.345563	-9.590292	1.136605	0.019449	-0.049994	0.076533	-84.453707	1.840955	54.909009
03290		-0.482282	-9.641515	1.150772	-0.007675	-0.034214	0.079210	-84.451715	1.887857	54.931778
03291		-0.375695	-9.642093	1.134270	-0.040914	-0.042223	0.075558	-84.470187	1.927607	54.958720
03292		-0.344690	-9.720891	1.020488	-0.046179	-0.044351	0.080500	-84.490001	1.974677	54.987327
03293		-0.394714	-9.707371	0.975278	-0.053254	-0.042508	0.098195	-84.515451	2.027341	55.015647
03294		-0.193678	-9.761367	0.941631	-0.027922	-0.054600	0.114176	-84.524473	2.093044	55.051921
03295		-0.277888	-9.739624	0.991805	-0.014237	-0.060391	0.150687	-84.527016	2.174680	55.093300
03296		-0.565623	-9.787470	0.830319	0.011654	-0.065833	0.158677	-84.512920	2.265093	55.138427
03297		-0.438176	-9.707501	0.948648	0.022831	-0.056465	0.150268	-84.494191	2.346690	55.177579
03298		-0.599489	-9.912111	0.973512	0.032713	-0.065277	0.154211	-84.467929	2.434536	55.222209
03299		-0.582909	-9.692746	1.098133	0.072086	-0.053316	0.118856	-84.421017	2.498354	55.257907
03300		-0.408134	-9.715725	1.036227	0.030772	-0.050614	0.104686	-84.396240	2.558710	55.291514
03301		-0.612390	-9.778897	1.086261	0.040683	-0.052139	0.105224	-84.367308	2.614782	55.325848
03302		-0.678436	-9.725119	1.093560	0.041425	-0.039639	0.103274	-84.336641	2.674893	55.353170
03303		-0.300060	-9.823439	0.792580	0.024742	-0.054569	0.109567	-84.316692	2.733271	55.389196
03304		-0.394199	-9.821090	1.002970	0.083288	-0.054368	0.126846	-84.261517	2.805919	55.426335
03305		-0.568968	-9.780202	1.240057	0.108438	-0.049420	0.123077	-84.193631	2.872232	55.460306
03306		-0.886731	-9.721171	1.072056	0.122407	-0.039358	0.121013	-84.116384	2.942308	55.488705
03307		-0.591315	-9.762518	1.030376	0.103892	-0.036695	0.125008	-84.051384	3.010388	55.515699
03308		-0.539516	-9.700486	0.952164	0.106985	-0.041037	0.117248	-83.982859	3.078149	55.544996
03309		-0.442438	-9.806264	1.315459	0.097976	-0.061162	0.114234	-83.920456	3.138552	55.585460
03310		-0.987652	-9.727823	1.123518	0.094359	-0.032008	0.109372	-83.859396	3.202269	55.609270
03311		-0.657363	-9.655414	1.025114	0.056416	-0.029806	0.094575	-83.821790	3.253322	55.630755
03312		-0.643085	-9.720426	1.249619	0.042752	-0.046259	0.086076	-83.789871	3.302860	55.661345
03313		-0.387784	-10.003581	1.057550	0.050905	-0.036421	0.090018	-83.755179	3.350881	55.686383
03314		-0.880375	-9.769188	1.042944	0.078184	-0.027741	0.090155	-83.703507	3.403816	55.706728
03315		-0.750571	-9.803199	1.071516	0.067638	-0.024379	0.090768	-83.659586	3.452984	55.725023
03316		-0.611902	-9.690371	1.009649	0.068265	-0.020082	0.083851	-83.613860	3.502782	55.740679
03317		-0.412682	-9.794744	1.400077	0.058508	-0.041848	0.080736	-83.574562	3.545093	55.768374
03318		-0.932988	-9.721593	1.135765	0.058809	-0.021321	0.073940	-83.534213	3.589098	55.784166
03319		-0.771378	-9.778419	1.121774	0.027776	-0.020147	0.078067	-83.513269	3.631258	55.799363
03320		-0.533155	-9.781082	1.150627	0.045042	-0.010861	0.069327	-83.481188	3.673301	55.808931
03321		-0.664157	-9.748991	1.088152	0.056089	-0.027390	0.081754	-83.443714	3.717071	55.828547
03322		-0.695675	-9.808801	1.170635	0.062285	-0.020516	0.090036	-83.401297	3.770216	55.845034
03323		-0.760226	-9.787938	1.182856	0.057995	-0.032023	0.086833	-83.362497	3.816543	55.867694
03324		-0.733907	-9.671498	1.135678	0.070033	-0.022365	0.081924	-83.315577	3.864901	55.884769
03325		-0.790142	-9.653001	1.126424	0.088609	-0.013255	0.072211	-83.259986	3.904127	55.895822
03326		-0.686921	-9.723750	1.305314	0.077912	-0.018230	0.073895	-83.208731	3.948147	55.910078
03327		-0.736371	-9.625908	1.390909	0.062764	-0.014859	0.073683	-83.167857	3.988083	55.922215
03328		-0.824553	-9.689696	1.249589	0.034364	-0.012426	0.072337	-83.141748	4.031565	55.933114
03329		-0.803220	-9.617399	1.278613	0.024413	-0.011898	0.069435	-83.122967	4.069275	55.943311
03330		-0.719681	-9.764665	1.222530	0.010543	-0.011028	0.069412	-83.110557	4.111167	55.953240
03331		-0.690533	-9.823478	1.165670	0.031730	-0.013588	0.077843	-83.087457	4.153537	55.965003
03332		-0.765357	-9.774434	1.272455	0.062501	0.003627	0.072646	-83.045863	4.198239	55.966833
03333		-0.883844	-9.652908	1.229120	0.041719	-0.008023	0.074906	-83.017265	4.239312	55.975270
03334		-0.764184	-9.661070	1.349855	0.032471	-0.004441	0.068579	-82.992553	4.281119	55.981461
03335		-0.811649	-9.691698	1.368938	0.016070	0.005491	0.057472	-82.979307	4.313217	55.981002
03336		-0.911832	-9.670184	1.209964	0.011236	0.003362	0.045933	-82.967195	4.342665	55.981174
03337		-0.874070	-9.684213	1.251520	0.014753	-0.008773	0.036980	-82.954195	4.362108	55.987421
03338		-0.834314	-9.663916	1.290165	0.027393	-0.003422	0.032090	-82.932612	4.383196	55.990497
03339		-0.825448	-9.737621	1.253037	0.008781	-0.004792	0.026460	-82.923259	4.396936	55.993740
03340		-0.823884	-9.634359	1.243109	0.016680	-0.004368	0.023090	-82.907821	4.412817	55.996726
03341		-0.793967	-9.714436	1.315049	0.003479	-0.002830	0.020794	-82.901622	4.423473	55.998454
03342		-0.799218	-9.690918	1.209174	0.011329	-0.006152	0.022149	-82.889176	4.438668	56.002393
03343		-0.775532	-9.687885	1.244204	0.022509	-0.009302	0.025276	-82.871761	4.451411	56.008136
03344		-0.815369	-9.661691	1.309106	0.023230	-0.010212	0.032532	-82.852265	4.472189	56.015138
03345		-0.845896	-9.698032	1.281851	0.022582	-0.012128	0.038356	-82.834605	4.492163	56.023437
03346		-0.818031	-9.731930	1.297747	0.016815	-0.007398	0.042129	-82.818851	4.518570	56.029534
03347		-0.826524	-9.659905	1.315273	0.020797	-0.007950	0.045204	-82.802355	4.542732	56.035955
03348		-0.832333	-9.693576	1.320821	0.014141	-0.010924	0.048790	-82.787927	4.572643	56.044555
03349		-0.801522	-9.753098	1.263273	0.010280	-0.009459	0.054072	-82.777330	4.601734	56.052490
03350		-0.783864	-9.866633	1.183820	0.027947	-0.002633	0.078597	-82.755191	4.649154	56.058535
03351		-0.851643	-9.690967	1.327640	0.046418	-0.007539	0.090150	-82.723750	4.698883	56.068018
03352		-0.856548	-9.715210	1.259594	0.048483	-0.006174	0.095297	-82.689574	4.755500	56.077347
03353		-0.805590	-9.723081	1.360467	0.035526	-0.000143	0.102590	-82.664626	4.812828	56.083581
03354		-0.889143	-9.672318	1.309634	0.035038	0.002572	0.112059	-82.638450	4.879573	56.089209
03355		-0.860009	-9.719969	1.356843	0.028290	-0.001539	0.113277	-82.617494	4.942865	56.097077
03356		-0.905824	-9.706644	1.296540	0.037005	0.001428	0.118414	-82.590077	5.013106	56.103885
03357		-0.863727	-9.760165	1.297683	0.031876	0.004098	0.127081	-82.567235	5.084652	56.109620
03358		-0.902423	-9.760964	1.268458	0.052389	0.004398	0.133106	-82.531041	5.163425	56.115897
03359		-0.839860	-9.740218	1.320407	0.059900	0.008348	0.147587	-82.492200	5.246930	56.120831
03360		-0.850142	-9.775336	1.307266	0.067737	0.020483	0.166919	-82.447805	5.346075	56.120589
03361		-0.853595	-9.790237	1.320873	0.070150	0.021381	0.216323	-82.403272	5.469597	56.123430
03362		-0.896217	-9.637989	1.404304	0.070990	0.024704	0.233295	-82.356753	5.606715	56.126001
03363		-0.906141	-9.592054	1.485764	0.055608	0.035356	0.252191	-82.321036	5.751667	56.123809
03364		-1.126393	-9.655430	1.413270	0.028360	0.049151	0.258243	-82.300126	5.904784	56.114521
03365		-0.998903	-9.665528	1.386503	0.023604	0.048926	0.257551	-82.283508	6.053824	56.105115
03366		-1.114723	-9.734216	1.319466	0.024477	0.054573	0.273407	-82.265068	6.215952	56.094002
03367		-1.121842	-9.680093	1.320187	0.022226	0.051629	0.271986	-82.249329	6.373401	56.084259
03368		-1.125322	-9.769107	1.291740	0.043283	0.051547	0.287914	-82.219858	6.543516	56.076114
03369		-1.136231	-9.759885	1.351884	0.043426	0.056481	0.306108	-82.192025	6.720721	56.066402
03370		-1.099807	-9.663656	1.441192	0.061331	0.060774	0.323947	-82.152550	6.911988	56.055997
03371		-1.144183	-9.678899	1.418751	0.032966	0.077554	0.350241	-82.131797	7.115903	56.037908
03372		-1.206208	-9.675985	1.387544	0.033412	0.090429	0.373412	-82.110014	7.337544	56.014625
03373		-1.204065	-9.687157	1.429802	0.022083	0.093421	0.396944	-82.096316	7.569225	55.991285
03374		-1.307515	-9.583351	1.473775	0.014585	0.107231	0.419991	-82.086296	7.818600	55.962184
03375		-1.349691	-9.517065	1.540637	-0.014452	0.113833	0.430743	-82.094970	8.071077	55.929862
03376		-1.382206	-9.481051	1.508556	-0.054668	0.121574	0.439456	-82.125845	8.332589	55.893978
03377		-1.495834	-9.565848	1.415109	-0.078795	0.133234	0.442694	-82.173219	8.593335	55.851165
03378		-1.498089	-9.675525	1.358621	-0.086598	0.132272	0.456286	-82.223511	8.865154	55.810025
03379		-1.585811	-9.734982	1.346264	-0.074044	0.130800	0.476140	-82.268014	9.144628	55.770723
03380		-1.474724	-9.715966	1.461532	-0.094522	0.141678	0.503200	-82.323631	9.443712	55.727308
03381		-1.519025	-10.089738	1.201382	-0.108229	0.161419	0.561992	-82.390068	9.774196	55.676388
03382		-1.652180	-10.022633	1.314167	-0.055134	0.174766	0.623932	-82.425446	10.144217	55.622514
03383		-1.551215	-9.739838	1.599175	-0.072562	0.193823	0.681351	-82.473929	10.544854	55.561360
03384		-1.604100	-9.922108	1.623342	-0.129398	0.217628	0.765774	-82.555382	10.998498	55.492662
03385		-1.631608	-9.877742	1.669796	-0.148267	0.254483	0.838408	-82.652986	11.492684	55.406893
03386		-1.598399	-10.051686	1.588625	-0.192881	0.276093	0.922596	-82.776878	12.039392	55.314077
03387		-1.701545	-10.173704	1.454850	-0.228441	0.300014	1.028930	-82.925256	12.644769	55.213195
03388		-1.932670	-10.119916	1.409149	-0.210671	0.323088	1.124454	-83.064864	13.309002	55.104306
03389		-2.049256	-10.277403	1.385513	-0.237630	0.311273	1.204592	-83.220284	14.014567	55.005494
03390		-2.162404	-10.010983	1.164407	-0.228778	0.290945	1.280226	-83.366556	14.764640	54.922076
03391		-2.402071	-9.821310	1.099873	-0.221060	0.284785	1.355244	-83.509385	15.553718	54.844670
03392		-2.527277	-9.734823	1.119037	-0.203100	0.277430	1.406903	-83.639880	16.374571	54.773301
03393		-2.648093	-9.649414	1.117106	-0.183953	0.282490	1.455757	-83.762552	17.220395	54.699439
03394		-2.865481	-9.629009	1.072806	-0.155490	0.275282	1.493268	-83.866999	18.089953	54.630751
03395		-3.044864	-9.289230	1.039377	-0.110444	0.281192	1.511986	-83.949537	18.967472	54.557337
03396		-3.132792	-9.169661	1.232362	-0.124447	0.282797	1.498173	-84.040803	19.840020	54.480861
03397		-3.168181	-9.402771	1.325891	-0.102059	0.311145	1.484418	-84.128821	20.703379	54.383842
03398		-3.361458	-9.585050	1.205333	-0.053797	0.342694	1.468468	-84.196907	21.562219	54.265376
03399		-3.566715	-9.688480	1.070659	0.005961	0.363871	1.461443	-84.239653	22.415310	54.131214
03400		-3.703634	-9.577426	0.894576	0.064136	0.365414	1.460642	-84.250170	23.270766	53.995482
03401		-3.866847	-9.540491	1.015872	0.068273	0.354648	1.475384	-84.259170	24.131196	53.865643
03402		-3.907385	-9.790331	0.954390	0.111891	0.356217	1.495494	-84.243581	25.005916	53.735993
03403		-4.102625	-9.544819	0.898258	0.167880	0.360810	1.540174	-84.199567	25.903703	53.605124
03404		-4.173144	-9.509446	0.960127	0.169760	0.352987	1.589112	-84.151216	26.831667	53.482970
03405		-4.205380	-9.302991	0.998516	0.214337	0.362115	1.641113	-84.081823	27.787276	53.357670
03406		-4.405295	-8.903894	1.197424	0.178869	0.370820	1.680254	-84.034442	28.768368	53.230179
03407		-4.459832	-9.039873	1.572017	0.117890	0.382944	1.689368	-84.029449	29.752878	53.093868
03408		-4.062237	-9.542055	1.903607	0.159627	0.438457	1.715898	-84.019047	30.758300	52.922469
03409		-4.363725	-9.107043	2.032737	0.340850	0.561018	1.734533	-83.951378	31.779335	52.668744
03410		-5.439353	-9.361647	1.771558	0.317751	0.652397	1.737851	-83.932758	32.810229	52.352795
03411		-5.486362	-10.058224	1.110370	0.500129	0.701090	1.682716	-83.837992	33.810670	51.996151
03412		-4.562160	-9.031887	1.383201	0.577462	0.767986	1.718674	-83.727912	34.838452	51.595127
03413		-5.233878	-8.353470	1.309066	0.654623	0.819461	1.745458	-83.602563	35.883244	51.156581
03414		-5.536689	-8.293188	0.927356	0.607431	0.834053	1.773865	-83.515655	36.947847	50.707746
03415		-5.655491	-7.954854	0.970083	0.551873	0.826939	1.793288	-83.468118	38.021431	50.259574
03416		-5.780352	-7.684133	0.833759	0.506716	0.820375	1.815942	-83.450634	39.109665	49.813491
03417		-5.911636	-7.824111	0.590598	0.428605	0.796902	1.844818	-83.478442	40.210793	49.378777
03418		-6.202519	-7.418195	0.603212	0.358906	0.780887	1.864470	-83.547152	41.323723	48.950739
03419		-6.385536	-7.455719	0.458775	0.256932	0.744585	1.888793	-83.669235	42.445711	48.541295
03420		-6.537833	-7.038776	0.305990	0.173711	0.708690	1.921022	-83.829761	43.584970	48.152686
03421		-6.332251	-6.442564	0.367009	-0.001732	0.667374	1.982533	-84.081180	44.753841	47.787455
03422		-6.775598	-6.506088	0.482713	-0.138327	0.636869	2.034133	-84.405057	45.950957	47.436673
03423		-7.093824	-6.032756	0.580030	-0.272851	0.612660	2.031538	-84.812165	47.141773	47.085634
03424		-7.176998	-5.442948	0.841904	-0.410344	0.594766	1.985171	-85.308490	48.305254	46.726024
03425		-7.317043	-5.339692	0.943814	-0.589503	0.596572	1.912282	-85.938159	49.422775	46.333065
03426		-7.480686	-5.498799	0.913056	-0.747149	0.611668	1.830113	-86.697774	50.492719	45.893703
03427		-7.588074	-5.575723	0.770265	-0.842430	0.617786	1.741647	-87.552735	51.506046	45.409455
03428		-7.780568	-5.795307	0.564283	-0.928295	0.632419	1.675058	-88.501137	52.478754	44.874715
03429		-7.823733	-6.116833	0.416851	-1.007123	0.621343	1.617728	-89.526061	53.410535	44.308427
03430		-7.783050	-6.113403	0.265228	-1.055833	0.616375	1.574701	-90.611517	54.313379	43.707539
03431		-7.862715	-6.071151	0.161493	-1.132931	0.608277	1.568047	-91.777995	55.203197	43.069138
03432		-7.888444	-5.788691	-0.299948	-1.146205	0.595685	1.556052	-92.983083	56.080744	42.399164
03433		-7.870400	-5.315018	-0.649934	-1.134250	0.557045	1.567272	-94.197265	56.955785	41.717746
03434		-7.917893	-5.126385	-1.145940	-1.080321	0.500672	1.611639	-95.379327	57.852891	41.043883
03435		-8.100428	-5.403582	-1.330942	-1.029354	0.437418	1.651190	-96.529570	58.766611	40.380461
03436		-8.491603	-5.320592	-1.415288	-1.028617	0.379351	1.718164	-97.681677	59.717398	39.720325
03437		-8.730327	-4.935992	-1.552503	-1.207565	0.289968	1.811809	-98.920520	60.719342	39.085488
03438		-8.736254	-4.563630	-1.734003	-1.488441	0.173793	1.926128	-100.283951	61.791578	38.498084
03439		-8.866781	-4.666600	-1.830166	-1.765440	0.041038	2.049056	-101.766242	62.938092	37.962164
03440		-8.548227	-5.215492	-2.059071	-1.969515	-0.098335	2.171091	-103.323593	64.165208	37.478347
03441		-7.151130	-6.696917	-1.994352	-2.148682	-0.269185	2.207368	-104.889766	65.427978	37.103601
03442		-6.505005	-9.361246	-1.562561	-2.061323	-0.490234	1.912212	-106.117125	66.559061	37.048268
03443		-7.637306	-12.014122	-1.117171	-1.918023	-0.816621	1.283394	-106.645709	67.395072	37.663572
03444		-7.213964	-14.442453	-0.671225	-1.621062	-1.082228	0.422022	-106.294022	67.802008	39.043853
03445		-5.228208	-14.879675	-0.278718	-1.085288	-1.251499	-0.466578	-105.047952	67.736876	41.057318
03446		-4.337682	-14.307072	0.068594	-0.392213	-1.368907	-1.350772	-102.982573	67.173452	43.531920
03447		-4.839518	-13.842090	0.290500	0.345388	-1.471841	-2.105874	-100.303236	66.160272	46.229746
03448		-6.059403	-12.271873	0.259091	1.010246	-1.626331	-2.640081	-97.194793	64.802647	49.004595
03449		-6.001664	-9.268309	0.391146	1.401363	-1.834084	-2.838955	-93.917523	63.283796	51.751589
03450		-5.996920	-7.168090	0.473861	1.430422	-2.078842	-2.733035	-90.683219	61.761619	54.467628
03451		-5.816981	-5.969486	0.444265	1.248191	-2.331423	-2.580748	-87.595124	60.261573	57.175337
03452		-5.317360	-5.484259	0.357839	0.984884	-2.576565	-2.458659	-84.686128	58.750977	59.890638
03453		-4.715776	-5.500903	0.219134	0.654045	-2.778223	-2.422071	-82.038130	57.187172	62.566878
03454		-3.695078	-6.578150	0.311084	0.320378	-2.897041	-2.520577	-79.733328	55.492354	65.109700
03455		-2.748513	-8.277905	0.257297	0.168869	-2.940616	-2.758091	-77.746495	53.612308	67.424389
03456		-1.539901	-9.833057	0.414986	0.179727	-2.865889	-3.064225	-76.070908	51.524009	69.399250
03457		-0.773056	-10.921588	0.565606	0.450810	-2.679600	-3.414103	-74.613673	49.242079	70.949972
03458		-0.576289	-10.311028	0.519167	0.841568	-2.426766	-3.702464	-73.295903	46.812000	72.068554
03459		-0.763604	-8.419581	0.651316	1.111225	-2.196382	-3.821362	-72.095037	44.346555	72.852445
03460		-1.373903	-5.947786	0.993600	1.119943	-2.004032	-3.708813	-71.060159	41.959877	73.422245
03461		-2.022837	-4.292699	1.032155	0.804339	-1.865599	-3.454583	-70.290638	39.737675	73.887759
03462		-2.083610	-3.722422	1.303509	0.340289	-1.746102	-3.161163	-69.835509	37.685951	74.298704
03463		-1.887457	-5.227128	1.669641	-0.144046	-1.589764	-2.919710	-69.708843	35.800679	74.641555
03464		-1.345680	-7.992739	1.865781	-0.317827	-1.359675	-2.782866	-69.764853	34.027065	74.856679
03465		-0.797381	-9.847158	2.114271	-0.201762	-1.057110	-2.761002	-69.862623	32.332659	74.881830
03466		-0.725810	-10.767756	1.883015	0.000460	-0.731679	-2.836952	-69.961752	30.653536	74.686263
03467		-1.122230	-10.031933	1.690891	0.065577	-0.436431	-2.958524	-70.117902	28.974243	74.288468
03468		-2.004823	-9.118588	1.559071	-0.131838	-0.211592	-3.048907	-70.446075	27.279688	73.747102
03469		-2.821580	-9.154187	1.578776	-0.430091	-0.053964	-3.037998	-70.960904	25.625939	73.135533
03470		-3.408267	-9.792142	1.815178	-0.637580	0.087439	-2.945883	-71.597290	24.033974	72.484040
03471		-3.864472	-10.550042	2.251747	-0.735488	0.212432	-2.808498	-72.279853	22.541144	71.813284
03472		-4.468823	-11.208791	2.645494	-0.774442	0.300585	-2.707071	-72.973117	21.102684	71.135216
03473		-4.918753	-11.978115	2.945757	-0.732460	0.343077	-2.646306	-73.621444	19.706188	70.467810
03474		-5.373208	-11.947904	3.092127	-0.602681	0.342205	-2.582124	-74.171153	18.329580	69.832543
03475		-5.566622	-11.616745	3.029178	-0.506414	0.321151	-2.496226	-74.636634	17.000712	69.241442
03476		-5.527631	-11.672381	2.766182	-0.426403	0.289136	-2.420856	-75.032044	15.695922	68.694846
03477		-5.194299	-11.576152	2.371197	-0.390127	0.267053	-2.391616	-75.385777	14.409313	68.177874
03478		-4.573750	-11.570648	1.882866	-0.357636	0.282612	-2.392104	-75.710429	13.113429	67.662578
03479		-3.879486	-11.305824	1.376291	-0.343605	0.345977	-2.379693	-76.019769	11.838852	67.123192
03480		-3.250706	-10.843644	1.028143	-0.398320	0.432377	-2.376921	-76.357528	10.566638	66.544888
03481		-2.761798	-10.424292	0.953952	-0.530203	0.525477	-2.388989	-76.764532	9.304479	65.923168
03482		-2.347198	-10.508540	0.901019	-0.671412	0.623113	-2.387396	-77.246684	8.043204	65.258571
03483		-1.957709	-10.689244	1.082210	-0.749880	0.717111	-2.406609	-77.763495	6.785023	64.551766
03484		-1.803420	-10.773517	1.253530	-0.799866	0.775470	-2.426526	-78.297041	5.508490	63.823105
03485		-1.714625	-10.897221	1.390540	-0.817704	0.813739	-2.436293	-78.824154	4.231921	63.085206
03486		-1.594224	-10.880735	1.453946	-0.825399	0.831343	-2.431933	-79.340203	2.945449	62.350746
03487		-1.475329	-11.006660	1.514433	-0.830724	0.833572	-2.416406	-79.841188	1.669128	61.628875
03488		-1.327958	-11.157614	1.532025	-0.815676	0.830024	-2.406944	-80.318249	0.384229	60.921380
03489		-1.152978	-11.166196	1.561635	-0.793605	0.823357	-2.400578	-80.765809	-0.895907	60.228640
03490		-1.133037	-11.170031	1.559851	-0.779187	0.813270	-2.392214	-81.190956	-2.184719	59.551981
03491		-1.122172	-11.169336	1.504244	-0.782239	0.781099	-2.384167	-81.603084	-3.469373	58.902983
03492		-1.121471	-11.293671	1.479918	-0.801341	0.748817	-2.384789	-82.014278	-4.768648	58.280791
03493		-1.116771	-11.578673	1.486937	-0.815752	0.705896	-2.402638	-82.421743	-6.078775	57.689667
03494		-1.143640	-11.784708	1.544748	-0.826353	0.653981	-2.450266	-82.826321	-7.430599	57.132757
03495		-1.169372	-11.900527	1.563235	-0.839081	0.603599	-2.475772	-83.229343	-8.797618	56.610720
03496		-1.305769	-11.990994	1.645844	-0.832279	0.550646	-2.488996	-83.622788	-10.185454	56.126210
03497		-1.563313	-12.087007	1.768375	-0.789943	0.492264	-2.481202	-83.987720	-11.569334	55.683114
03498		-1.829719	-11.940862	1.864218	-0.727026	0.434211	-2.439968	-84.315643	-12.941421	55.282867
03499		-2.097929	-11.726174	1.896857	-0.651976	0.361940	-2.365157	-84.603188	-14.271209	54.934521
03500		-2.290203	-11.627527	1.915221	-0.577059	0.287202	-2.266245	-84.854243	-15.555099	54.640252
03501		-2.457855	-11.548535	1.881249	-0.466705	0.220913	-2.145604	-85.049305	-16.769550	54.394983
03502		-2.734971	-11.230840	1.922102	-0.352807	0.150186	-2.013974	-85.189619	-17.917208	54.201009
03503		-3.020613	-10.680494	1.918776	-0.295001	0.070372	-1.874375	-85.311056	-18.985142	54.063520
03504		-3.333880	-10.490969	1.929972	-0.279547	-0.016936	-1.748006	-85.441462	-19.988541	53.986766
03505		-3.436356	-10.182587	1.919841	-0.310024	-0.121087	-1.676757	-85.612383	-20.952765	53.979218
03506		-3.615106	-9.892347	1.816364	-0.352190	-0.220637	-1.644060	-85.831239	-21.904915	54.037700
03507		-3.956722	-9.459525	1.890675	-0.379202	-0.310300	-1.555882	-86.091017	-22.807717	54.160159
03508		-4.465736	-8.937051	1.840080	-0.376718	-0.404965	-1.397263	-86.378573	-23.624146	54.353339
03509		-4.775603	-8.479413	1.862432	-0.337055	-0.477184	-1.154623	-86.670515	-24.302106	54.606679
03510		-4.865490	-8.162845	1.849605	-0.281074	-0.523844	-0.875940	-86.950476	-24.821160	54.903823
03511		-4.809802	-7.919466	1.882047	-0.244925	-0.533704	-0.603355	-87.220360	-25.183023	55.219983
03512		-4.586853	-7.894898	1.889983	-0.205983	-0.505966	-0.352404	-87.465256	-25.398322	55.528161
03513		-4.415281	-7.911529	1.959817	-0.137677	-0.441829	-0.128640	-87.658286	-25.483806	55.803357
03514		-4.174141	-7.871391	1.931908	-0.054391	-0.356056	0.103734	-87.781827	-25.431656	56.029874
03515		-4.018822	-7.874123	1.882823	0.040589	-0.259709	0.329247	-87.827735	-25.249930	56.200988
03516		-3.868674	-7.939030	1.779998	0.115977	-0.159729	0.521917	-87.803428	-24.952735	56.312594
03517		-3.746471	-7.927787	1.732093	0.119635	-0.081072	0.638839	-87.758181	-24.589860	56.377924
03518		-2.857522	-7.991979	1.885768	0.037453	-0.037189	0.696190	-87.747229	-24.189302	56.416429
03519		4.192517	-20.215057	-2.174254	-0.195953	0.130078	2.114404	-87.842714	-22.976948	56.384642
03520		19.354517	2.519602	2.064051	0.222884	-0.194738	1.870291	-87.771940	-21.906900	56.547685
03521		3.385498	-12.499681	-3.077053	1.075331	0.084779	1.942528	-87.151527	-20.793932	56.547134
03522		2.723867	-7.311956	0.265130	0.859992	0.051219	2.179904	-86.666878	-19.542932	56.585835
03523		3.527720	-6.408266	0.907734	0.448986	0.238928	2.379885	-86.386642	-18.174623	56.527368
03524		2.058584	-10.176563	0.436409	0.184006	0.348586	2.452211	-86.241123	-16.757530	56.411370
03525		1.130163	-11.361926	0.723396	0.512319	0.310751	2.332209	-85.918245	-15.413269	56.320230
03526		1.497470	-9.881705	1.005353	0.456142	0.307757	2.192665	-85.629244	-14.145022	56.232440
03527		1.565075	-9.749492	1.202721	0.254436	0.366660	2.069929	-85.450825	-12.947324	56.110519
03528		1.047156	-10.630565	1.121621	0.105355	0.394583	2.018949	-85.355759	-11.773666	55.973107
03529		0.742273	-10.367577	1.777940	0.158533	0.359675	1.998697	-85.238522	-10.616479	55.858110
03530		0.475027	-10.304603	2.056572	0.088997	0.284167	1.962030	-85.169805	-9.479987	55.787215
03531		0.306034	-12.255600	2.446764	-0.129139	0.193487	1.958190	-85.236904	-8.353708	55.769024
03532		-0.066767	-12.682735	0.620654	0.378159	0.057342	1.875397	-85.022514	-7.277431	55.826529
03533		1.042887	-10.537003	0.780663	0.061365	0.107004	1.774216	-84.986380	-6.260420	55.852835
03534		-0.273161	-13.045739	-0.059425	-0.021186	0.186433	1.680730	-84.990625	-5.288821	55.828954
03535		0.267809	-11.023812	0.962938	0.203880	0.230886	1.531384	-84.865027	-4.404158	55.773236
03536		-0.331968	-11.203793	1.365403	0.089914	0.283516	1.409429	-84.801802	-3.582167	55.682523
03537		-0.679185	-11.141795	1.699982	0.133590	0.208129	1.302294	-84.718277	-2.829246	55.630510
03538		-0.475041	-10.692432	1.619269	0.098887	0.118123	1.194777	-84.655935	-2.138113	55.625099
03539		-0.326578	-10.647315	1.122420	0.086564	0.072332	1.119496	-84.602816	-1.496633	55.642555
03540		-0.126988	-10.187249	0.925666	0.131130	0.074036	1.053056	-84.522471	-0.888634	55.656125
03541		-0.353359	-10.570500	0.945892	0.080821	0.091289	0.990535	-84.472100	-0.319704	55.657153
03542		-0.810531	-11.712595	1.345493	0.072003	0.046460	0.877305	-84.425390	0.186539	55.677930
03543		-1.080427	-11.584381	0.920588	0.268884	-0.021070	0.658488	-84.266944	0.559799	55.725781
03544		-0.518356	-10.806818	0.604506	0.258238	-0.035812	0.475467	-84.112943	0.832216	55.772432
03545		-0.420603	-9.889298	1.227366	0.286574	-0.001082	0.413359	-83.944278	1.066709	55.796352
03546		-0.346889	-10.108080	1.025722	0.298046	0.022566	0.385712	-83.767869	1.291312	55.805809
03547		-1.290378	-9.698446	2.352681	0.105875	-0.053424	0.325155	-83.701941	1.472172	55.855238
03548		-0.422014	-8.858615	2.096623	-0.106390	-0.141588	0.284525	-83.754736	1.628900	55.952389
03549		-0.212708	-10.653259	0.198927	-0.151725	-0.098329	0.272464	-83.835467	1.777018	56.023959
03550		-0.581799	-9.569564	1.434671	-0.028501	-0.073090	0.257614	-83.844438	1.922786	56.080141
03551		-0.787599	-9.955944	1.354751	-0.073171	-0.090620	0.212556	-83.880099	2.037333	56.143482
03552		-0.363270	-9.814940	0.927936	-0.147511	-0.112643	0.179170	-83.956336	2.136099	56.217270
03553		-0.594740	-9.896246	0.986823	-0.091723	-0.080517	0.140493	-84.002805	2.210321	56.270290
03554		-0.654726	-9.736962	1.257431	-0.105034	-0.071935	0.112709	-84.055588	2.273764	56.316726
03555		-0.536400	-9.786549	1.059675	-0.089486	-0.054379	0.089655	-84.101384	2.320650	56.351706
03556		-0.527208	-9.916449	0.938696	-0.079854	-0.050516	0.075961	-84.140235	2.364475	56.383677
03557		-0.493522	-9.624302	1.151026	-0.068926	-0.051617	0.063526	-84.174331	2.396677	56.415494
03558		-0.489547	-9.640265	1.172227	-0.106762	-0.052934	0.068226	-84.228522	2.435979	56.448342
