// General information: 
//  MT Manager version: 2022.2.0 
//  XDA version: 2022.2.0 build 7381 rev 124627 built on 2023-07-19
// Device information: 
//  DeviceId: 00B4BB4D
//  ProductCode: MTW2-3A7G6
//  Firmware Version: 4.6.0
//  Hardware Version: 2.0.0
// Device settings: 
//  Filter Profile: human(46.1)
//  Option Flags: Orientation Smoother Disabled, Position/Velocity Smoother Disabled, Continuous Zero Rotation Update Disabled, AHS Disabled, ICC Disabled
// Coordinate system: ENU
PacketCounter	SampleTimeFine	Acc_X	Acc_Y	Acc_Z	Gyr_X	Gyr_Y	Gyr_Z	Roll	Pitch	Yaw
15775		9.435450	-2.390962	-1.617846	-0.879752	-0.017619	0.088142	-157.910714	-79.276051	60.847778
15776		9.309440	-2.658996	-1.438409	-0.627735	-0.008083	0.129817	-157.912580	-79.246198	60.480926
15777		9.237280	-2.620062	-1.325892	-0.362843	-0.001375	0.174335	-157.624198	-79.210816	59.973413
15778		9.297186	-2.421365	-1.361115	-0.090937	-0.021425	0.213655	-157.105265	-79.154730	59.389396
15779		9.435262	-2.051300	-1.595111	0.142199	-0.071743	0.239675	-156.440151	-79.065890	58.792717
15780		9.690619	-1.600369	-1.908762	0.299488	-0.115316	0.258367	-155.704730	-78.947738	58.215716
15781		9.747509	-1.174759	-2.150780	0.343213	-0.125030	0.259757	-154.959769	-78.823545	57.654584
15782		9.708379	-0.765524	-2.248386	0.300913	-0.121085	0.241558	-154.302012	-78.703744	57.157109
15783		9.592605	-0.400203	-2.268892	0.189198	-0.136103	0.215110	-153.799658	-78.582653	56.752950
15784		9.701558	-0.084689	-2.299789	0.050357	-0.148967	0.185474	-153.483238	-78.461107	56.456852
15785		9.819831	0.104726	-2.370865	-0.115103	-0.133619	0.155264	-153.316579	-78.355746	56.217058
15786		9.783289	0.226918	-2.463802	-0.318527	-0.096360	0.130686	-153.290914	-78.274877	56.001791
15787		9.801636	0.217800	-2.382119	-0.523668	-0.067582	0.105518	-153.403014	-78.216073	55.807482
15788		9.694775	0.046298	-2.304976	-0.708374	-0.038739	0.094227	-153.621191	-78.174235	55.613009
15789		9.581620	-0.208481	-2.241413	-0.838915	-0.007983	0.093211	-153.871453	-78.149453	55.375258
15790		9.474633	-0.454931	-2.146764	-0.902531	0.011154	0.106352	-154.111251	-78.130610	55.089144
15791		9.581056	-0.650504	-2.179134	-0.914271	0.004990	0.139205	-154.276585	-78.101429	54.720442
15792		9.657183	-0.779028	-2.313225	-0.891409	0.023007	0.166816	-154.349175	-78.074028	54.269881
15793		9.539189	-1.000135	-2.321477	-0.871938	0.054122	0.179672	-154.334843	-78.060379	53.742269
15794		9.502197	-1.100434	-2.353008	-0.791562	0.034751	0.184879	-154.294143	-78.034542	53.234306
15795		9.453833	-1.199813	-2.296549	-0.671663	0.007528	0.166410	-154.254203	-78.000013	52.797724
15796		9.424726	-1.224978	-2.241191	-0.568757	-0.010592	0.125887	-154.284829	-77.965327	52.493072
15797		9.360538	-1.270918	-2.229941	-0.506298	-0.026243	0.092832	-154.369735	-77.931705	52.280920
15798		9.381440	-1.369326	-2.262031	-0.441005	-0.039886	0.069288	-154.498934	-77.896017	52.151850
15799		9.399397	-1.402747	-2.269365	-0.369337	-0.048911	0.043313	-154.651190	-77.863039	52.088791
15800		9.377846	-1.472685	-2.281093	-0.298049	-0.051353	0.020210	-154.829389	-77.833499	52.093597
15801		9.336339	-1.526907	-2.379859	-0.174470	-0.058892	0.009807	-154.961230	-77.803561	52.123860
15802		9.282559	-1.460440	-2.459798	-0.044559	-0.090587	0.001163	-155.082914	-77.758176	52.219449
15803		9.386578	-1.359183	-2.522716	0.049798	-0.118131	-0.003707	-155.183388	-77.700674	52.349124
15804		9.496353	-1.254192	-2.553206	0.096648	-0.128107	-0.006538	-155.282001	-77.637451	52.503953
15805		9.466575	-1.208380	-2.316181	0.138833	-0.104265	-0.023374	-155.360911	-77.591783	52.663834
15806		9.488211	-1.103287	-2.078065	0.199040	-0.094491	-0.033496	-155.426162	-77.552332	52.844629
15807		9.577351	-0.988000	-1.996619	0.278125	-0.106581	-0.030694	-155.443499	-77.507132	53.023240
15808		9.693576	-0.901907	-2.076986	0.357809	-0.110235	-0.019268	-155.399864	-77.456031	53.185742
15809		9.650565	-0.802316	-2.075931	0.414679	-0.102299	-0.000413	-155.262605	-77.405889	53.286190
15810		9.615677	-0.674532	-2.153208	0.434765	-0.102316	0.022005	-155.070256	-77.349098	53.341538
15811		9.576409	-0.564816	-2.192647	0.445010	-0.110742	0.037303	-154.838281	-77.285571	53.362758
15812		9.583258	-0.413690	-2.196986	0.449130	-0.114842	0.052796	-154.582370	-77.214820	53.361390
15813		9.618989	-0.358870	-2.191137	0.426237	-0.118501	0.054218	-154.333336	-77.143145	53.354095
15814		9.646910	-0.277374	-2.207330	0.400463	-0.116266	0.051415	-154.112909	-77.071982	53.360501
15815		9.726789	-0.168824	-2.238688	0.363987	-0.094509	0.043037	-153.900911	-77.015460	53.354608
15816		9.746134	-0.137686	-2.258831	0.308877	-0.072124	0.027155	-153.741155	-76.973130	53.369404
15817		9.756858	-0.045533	-2.287337	0.231071	-0.057627	0.015750	-153.626783	-76.942474	53.385547
15818		9.714776	-0.055378	-2.282648	0.142356	-0.039742	0.000580	-153.586766	-76.923544	53.425293
15819		9.616831	-0.159020	-2.317422	0.060446	-0.035267	-0.020277	-153.625351	-76.913547	53.498106
15820		9.522789	-0.244925	-2.391541	-0.018245	-0.035361	-0.034475	-153.750317	-76.905760	53.612742
15821		9.475041	-0.395616	-2.425685	-0.080686	-0.036671	-0.048032	-153.932384	-76.901983	53.749851
15822		9.460047	-0.625267	-2.486715	-0.129029	-0.039614	-0.052577	-154.165637	-76.896364	53.910479
15823		9.472131	-0.772666	-2.516316	-0.153629	-0.033328	-0.047998	-154.385633	-76.894069	54.043624
15824		9.455247	-0.936596	-2.554643	-0.163457	-0.027638	-0.036191	-154.589567	-76.890279	54.153885
15825		9.418021	-1.086891	-2.484319	-0.161974	-0.029063	-0.020085	-154.747645	-76.883143	54.218550
15826		9.330452	-1.185923	-2.414829	-0.141341	-0.036258	-0.002353	-154.872613	-76.866432	54.260737
15827		9.264248	-1.300949	-2.258386	-0.108091	-0.048300	0.025784	-154.917663	-76.838106	54.241045
15828		9.249394	-1.370741	-2.230842	-0.054655	-0.065276	0.049660	-154.907533	-76.793627	54.195496
15829		9.402309	-1.353184	-2.184290	0.001904	-0.065622	0.074670	-154.799870	-76.744412	54.083661
15830		9.534424	-1.269404	-2.127369	0.051835	-0.044032	0.093287	-154.611835	-76.700166	53.917993
15831		9.651696	-1.191399	-2.010431	0.093672	-0.025222	0.102569	-154.350612	-76.664789	53.702346
15832		9.733810	-1.025505	-1.937414	0.143413	-0.011596	0.100872	-154.062017	-76.635029	53.487202
15833		9.734048	-0.813829	-1.945001	0.179064	-0.007932	0.079961	-153.784888	-76.613761	53.305445
15834		9.697595	-0.590899	-1.982908	0.192900	-0.006425	0.059408	-153.553788	-76.596732	53.178503
15835		9.603822	-0.430107	-2.050878	0.154617	-0.015502	0.029236	-153.409024	-76.584236	53.118394
15836		9.517071	-0.403595	-2.094734	0.091616	-0.035553	0.008958	-153.376455	-76.565106	53.135865
15837		9.542940	-0.413869	-2.174822	0.014752	-0.057331	-0.000486	-153.420635	-76.538787	53.187622
15838		9.537408	-0.517264	-2.248606	-0.063728	-0.060890	-0.004376	-153.532840	-76.510086	53.262423
15839		9.541661	-0.709537	-2.324736	-0.129444	-0.057031	-0.004959	-153.668282	-76.485018	53.323081
15840		9.445621	-0.926619	-2.283931	-0.176870	-0.037612	-0.011070	-153.834578	-76.469886	53.386838
15841		9.446952	-1.153198	-2.207246	-0.203282	-0.020589	-0.001686	-153.966480	-76.462669	53.400349
15842		9.484890	-1.358032	-2.088901	-0.204360	-0.016437	0.005978	-154.089727	-76.454073	53.403625
15843		9.479316	-1.449061	-2.036989	-0.198672	0.004604	0.019196	-154.148028	-76.454609	53.344146
15844		9.477308	-1.527237	-2.023559	-0.177004	0.008230	0.034750	-154.168264	-76.451524	53.257593
15845		9.408428	-1.613210	-2.048219	-0.144732	0.009796	0.045249	-154.134558	-76.448237	53.135263
15846		9.333188	-1.594816	-2.109122	-0.101215	0.005287	0.046985	-154.088120	-76.440528	53.024802
15847		9.342291	-1.544281	-2.104302	-0.056483	-0.000814	0.049584	-154.005776	-76.430636	52.904444
15848		9.321042	-1.478460	-2.096094	-0.016174	-0.010610	0.050661	-153.919389	-76.413707	52.803012
15849		9.386828	-1.333388	-2.050464	0.011668	-0.027884	0.053945	-153.817396	-76.388701	52.702595
15850		9.420397	-1.228827	-2.099053	0.035495	-0.033879	0.057381	-153.711934	-76.357992	52.611982
15851		9.450538	-1.139266	-2.107916	0.031116	-0.022572	0.051911	-153.598323	-76.336144	52.511053
15852		9.471079	-1.102345	-2.121835	0.025529	-0.014705	0.043698	-153.508058	-76.318661	52.430185
15853		9.517743	-1.063185	-2.087093	0.009168	-0.007350	0.031968	-153.433543	-76.309643	52.356537
15854		9.571881	-1.016915	-2.018360	-0.003938	0.005464	0.030629	-153.366746	-76.305780	52.282436
15855		9.571773	-1.019423	-2.017609	-0.013391	0.012063	0.025434	-153.298525	-76.308341	52.201960
15856		9.549529	-1.030877	-1.992068	-0.029322	0.013116	0.020747	-153.259009	-76.310906	52.140968
15857		9.540360	-1.094192	-2.121170	-0.046359	0.014546	0.018571	-153.221409	-76.316476	52.072569
15858		9.501803	-1.195804	-2.146924	-0.058047	0.016701	0.006802	-153.223837	-76.324457	52.037807
15859		9.437321	-1.320911	-2.109483	-0.065127	0.003682	0.000828	-153.245754	-76.329046	52.019598
15860		9.412097	-1.376693	-2.058610	-0.051830	-0.006702	0.001084	-153.281405	-76.326508	52.022699
15861		9.450008	-1.395019	-2.154399	-0.025961	-0.010862	0.002491	-153.292798	-76.323229	52.016755
15862		9.405990	-1.423225	-2.230675	0.003903	-0.009922	0.006166	-153.289104	-76.317700	52.012235
15863		9.375502	-1.407813	-2.227984	0.038353	-0.012957	0.006457	-153.257537	-76.312326	52.000001
15864		9.448952	-1.374557	-2.269274	0.083067	-0.024191	0.007136	-153.221458	-76.299191	52.008839
15865		9.459088	-1.356594	-2.276326	0.126998	-0.023903	0.006739	-153.150164	-76.288143	52.007991
15866		9.427674	-1.311364	-2.261070	0.156360	-0.021758	0.001372	-153.081581	-76.277690	52.026603
15867		9.444558	-1.255459	-2.221600	0.172944	-0.011890	-0.001668	-152.988881	-76.274961	52.030818
15868		9.483204	-1.157281	-2.194223	0.176225	-0.008044	-0.007388	-152.912628	-76.273748	52.053256
15869		9.500467	-1.100587	-2.153915	0.164074	0.000684	-0.006900	-152.822513	-76.278800	52.054901
15870		9.521425	-1.028922	-2.152973	0.141507	0.003852	-0.006189	-152.750906	-76.283318	52.061643
15871		9.482834	-0.956380	-2.157405	0.113253	0.006370	-0.001460	-152.672382	-76.289838	52.045246
15872		9.515248	-0.895860	-2.175278	0.087840	0.004276	0.004235	-152.609359	-76.291812	52.029169
15873		9.482294	-0.928329	-2.142972	0.060717	0.006439	0.006485	-152.544221	-76.296260	51.995567
15874		9.460843	-0.971956	-2.128831	0.040776	0.008882	0.007843	-152.495757	-76.299603	51.966713
15875		9.486869	-0.971828	-2.079267	0.014348	0.017147	0.010199	-152.437746	-76.308493	51.913103
15876		9.487814	-1.005193	-2.089455	-0.010303	0.014695	0.007801	-152.412353	-76.314781	51.877869
15877		9.470149	-1.032976	-2.114669	-0.026820	0.019811	0.006851	-152.381897	-76.325898	51.828347
15878		9.471880	-1.097814	-2.136711	-0.033826	0.016910	0.004769	-152.373900	-76.334101	51.797144
15879		9.465752	-1.136399	-2.180349	-0.029506	0.016746	0.001026	-152.360406	-76.345203	51.763498
15880		9.489233	-1.158710	-2.214981	-0.027327	0.027299	-0.003574	-152.354728	-76.360874	51.738516
15881		9.456748	-1.187800	-2.182044	-0.029304	0.018978	-0.009745	-152.361135	-76.375971	51.725471
15882		9.502523	-1.200151	-2.241666	-0.016910	0.016456	-0.006134	-152.366722	-76.386786	51.718224
15883		9.484303	-1.194459	-2.255218	-0.007538	0.016134	-0.002385	-152.348325	-76.398484	51.692492
15884		9.462387	-1.203328	-2.229301	-0.005529	0.012916	-0.006334	-152.351693	-76.407515	51.689672
15885		9.495857	-1.172607	-2.258898	0.003870	0.017657	-0.000688	-152.321462	-76.419531	51.658492
15886		9.473923	-1.182338	-2.232572	0.011859	0.016512	0.003316	-152.290612	-76.427775	51.630721
15887		9.482083	-1.209263	-2.209286	0.024278	0.019053	0.008827	-152.227039	-76.437952	51.577272
15888		9.470069	-1.166855	-2.177500	0.039865	0.011702	0.009330	-152.172739	-76.442098	51.541887
15889		9.515251	-1.205023	-2.124432	0.059253	0.012074	0.015028	-152.083711	-76.447051	51.482870
15890		9.518031	-1.183103	-2.037945	0.061561	0.015124	0.015225	-152.000700	-76.451291	51.430740
15891		9.517481	-1.153227	-2.023959	0.074434	0.016037	0.010328	-151.908296	-76.459472	51.377201
15892		9.524294	-1.094936	-2.089485	0.081074	0.007781	0.016035	-151.820503	-76.459731	51.331657
15893		9.516553	-1.072131	-2.109102	0.086517	0.012264	0.011646	-151.722522	-76.465610	51.279504
15894		9.508872	-1.049064	-2.128691	0.085293	0.008793	0.008909	-151.646101	-76.468265	51.248142
15895		9.512044	-1.004925	-2.154831	0.090081	0.012254	0.006317	-151.557144	-76.475554	51.207372
15896		9.504459	-0.981393	-2.174442	0.083726	0.010360	0.002423	-151.493447	-76.480730	51.188172
15897		9.478628	-1.006627	-2.108120	0.082001	0.014576	-0.001076	-151.421838	-76.491188	51.160484
15898		9.508362	-0.992031	-2.097603	0.066651	0.013029	-0.003092	-151.376460	-76.499191	51.150057
15899		9.563733	-0.975165	-2.039237	0.055984	0.011324	-0.003231	-151.327877	-76.508594	51.130722
15900		9.535349	-1.024372	-2.057345	0.043433	0.016490	-0.003884	-151.293519	-76.518547	51.117944
15901		9.535752	-1.024757	-2.055281	0.032520	0.018635	-0.004405	-151.252354	-76.531940	51.092414
15902		9.536833	-1.057530	-2.064964	0.024678	0.012305	-0.003562	-151.232884	-76.539693	51.083894
15903		9.519983	-1.118178	-2.101351	0.025229	0.014754	0.000947	-151.189041	-76.549654	51.051316
15904		9.551932	-1.200697	-2.125139	0.030125	0.022083	0.003579	-151.140138	-76.560324	51.015742
15905		9.489668	-1.247744	-2.100152	0.030175	0.015812	0.005068	-151.083458	-76.569663	50.972883
15906		9.504721	-1.268031	-2.043283	0.041831	0.018536	0.008993	-151.020428	-76.577008	50.929686
15907		9.542076	-1.279616	-2.011054	0.052986	0.012537	0.009899	-150.944213	-76.583341	50.880183
15908		9.553015	-1.261245	-2.015623	0.066091	0.014873	0.016910	-150.854726	-76.586596	50.824083
15909		9.545370	-1.238839	-2.034895	0.083513	0.017010	0.020173	-150.734103	-76.592256	50.746911
15910		9.513836	-1.160757	-2.006972	0.095104	0.009575	0.020361	-150.626829	-76.591825	50.689621
15911		9.561038	-1.120746	-1.970344	0.102220	0.004722	0.017574	-150.515332	-76.592015	50.632849
15912		9.619774	-1.092294	-1.952035	0.103759	0.002867	0.014328	-150.423644	-76.589887	50.596680
15913		9.563319	-1.048717	-1.984511	0.105596	0.007312	0.015179	-150.312140	-76.591998	50.541889
15914		9.462218	-1.022731	-1.967073	0.105381	0.015930	0.006918	-150.219452	-76.598447	50.505646
15915		9.395199	-0.998994	-1.992188	0.105716	0.010601	0.000986	-150.133487	-76.606195	50.477183
15916		9.372970	-1.009750	-1.965635	0.095892	0.007259	-0.003902	-150.079160	-76.611402	50.474782
15917		9.425706	-1.018840	-1.991519	0.089106	0.006780	-0.007068	-150.024009	-76.619543	50.468211
15918		9.459900	-1.023057	-2.032564	0.087259	0.007373	-0.006121	-149.979140	-76.625440	50.470446
15919		9.459457	-0.991357	-2.019795	0.084164	0.010754	-0.009383	-149.926789	-76.636213	50.463844
15920		9.519327	-0.992645	-2.012313	0.079037	0.012327	-0.010561	-149.889958	-76.645838	50.469493
15921		9.508855	-1.013799	-2.003424	0.073187	0.014086	-0.013285	-149.847928	-76.659382	50.467035
15922		9.478361	-0.964477	-1.988056	0.066464	0.007356	-0.014896	-149.833446	-76.667794	50.488245
15923		9.470962	-0.938489	-2.008963	0.047617	0.005591	-0.021218	-149.832942	-76.679414	50.513406
15924		9.438001	-0.966733	-1.976414	0.031875	0.005517	-0.022465	-149.856518	-76.689098	50.553352
15925		9.439029	-0.997824	-1.986789	0.013180	0.001405	-0.022047	-149.882643	-76.698878	50.585600
15926		9.428405	-1.016595	-1.979854	-0.004135	-0.001896	-0.021898	-149.934873	-76.704720	50.633782
15927		9.447919	-1.051802	-1.975760	-0.016120	0.000712	-0.019888	-149.974192	-76.713526	50.662335
15928		9.506032	-1.109472	-2.065424	-0.025313	-0.006394	-0.018697	-150.037441	-76.716203	50.709368
15929		9.548658	-1.116780	-2.199185	-0.016610	0.002450	-0.009520	-150.053211	-76.722895	50.713435
15930		9.545935	-1.161393	-2.169403	-0.015872	0.018366	-0.015545	-150.074535	-76.736929	50.722945
15931		9.494685	-1.184784	-2.151345	-0.006552	0.018043	-0.011829	-150.070507	-76.752024	50.712592
15932		9.509868	-1.201694	-2.094656	-0.009037	0.017659	-0.009045	-150.075126	-76.763815	50.708962
15933		9.534919	-1.165578	-2.034317	-0.005625	0.009258	-0.002008	-150.060486	-76.771740	50.688255
15934		9.514971	-1.095552	-2.026715	-0.005010	0.010566	0.005848	-150.039936	-76.775727	50.661144
15935		9.515101	-1.096388	-2.025653	-0.003018	0.012686	0.013435	-149.986956	-76.780926	50.602588
15936		9.471189	-1.095905	-2.087750	0.003290	0.014577	0.017272	-149.932621	-76.783609	50.545656
15937		9.433309	-1.108099	-2.003887	0.016272	0.013033	0.019060	-149.856211	-76.787336	50.474387
15938		9.439499	-1.069907	-1.958699	0.016184	0.009128	0.013871	-149.808336	-76.788254	50.431678
15939		9.439514	-1.071854	-1.957562	0.030812	0.009633	0.017635	-149.730722	-76.790674	50.367731
15940		9.489821	-0.983391	-1.951060	0.024233	0.006500	0.011552	-149.686367	-76.790941	50.333373
15941		9.480673	-0.893814	-1.950336	0.011452	0.010462	0.008639	-149.637742	-76.796347	50.287810
15942		9.532629	-0.869678	-1.965872	-0.001545	0.006932	0.005029	-149.621469	-76.798722	50.267120
15943		9.597168	-0.837323	-2.112362	-0.011856	0.006197	-0.002486	-149.614868	-76.805236	50.251006
15944		9.608257	-0.815835	-2.118463	-0.022334	0.013204	-0.005243	-149.624614	-76.813702	50.244796
15945		9.620197	-0.826192	-2.135457	-0.048584	0.009978	-0.012898	-149.656351	-76.825101	50.246445
15946		9.623476	-0.829895	-2.062021	-0.071204	0.010914	-0.011002	-149.709418	-76.834110	50.255957
15947		9.598211	-0.881956	-2.007870	-0.103408	0.015998	-0.013273	-149.766011	-76.848596	50.250874
15948		9.441545	-0.887841	-1.936383	-0.126777	0.017084	-0.012964	-149.847801	-76.861243	50.257172
15949		9.416262	-0.939329	-1.882865	-0.155808	0.011302	-0.007136	-149.927318	-76.871640	50.244799
15950		9.370690	-0.921145	-1.823225	-0.172323	0.005376	0.001168	-150.019843	-76.874454	50.235320
15951		9.379122	-0.976535	-1.814115	-0.183546	-0.004804	0.007670	-150.103607	-76.872629	50.210989
15952		9.432854	-0.923448	-1.748592	-0.177165	-0.010431	0.016328	-150.186059	-76.863313	50.188314
15953		9.464140	-0.826458	-1.760798	-0.173338	-0.030741	0.009191	-150.292332	-76.848172	50.193103
15954		9.628353	-0.662597	-1.797367	-0.176043	-0.033889	0.003313	-150.430284	-76.830944	50.228077
15955		9.698442	-0.408148	-1.886117	-0.176184	-0.026743	-0.011305	-150.576731	-76.823574	50.272451
15956		9.804995	-0.128538	-1.931278	-0.166681	-0.012897	-0.040745	-150.778114	-76.829240	50.378064
15957		9.814087	0.197685	-1.999051	-0.172236	-0.009704	-0.083358	-151.056119	-76.850396	50.559865
15958		9.781442	0.524420	-2.056718	-0.166361	-0.021604	-0.136225	-151.474531	-76.877866	50.888469
15959		9.839939	0.941368	-2.240504	-0.159910	-0.031501	-0.204004	-152.034666	-76.920127	51.367148
15960		9.829478	1.504753	-2.454331	-0.174283	-0.016599	-0.290739	-152.796594	-76.989778	52.043524
15961		9.877839	2.094119	-2.697814	-0.219578	0.005615	-0.410522	-153.819238	-77.101237	52.961425
15962		9.987106	2.809282	-3.024705	-0.309010	0.019868	-0.567865	-155.273937	-77.252431	54.268421
15963		9.844795	3.644074	-2.935327	-0.386814	0.060486	-0.749965	-157.176223	-77.460469	55.988485
15964		9.558015	4.419701	-2.346333	-0.536654	0.034046	-0.958409	-159.781984	-77.681244	58.338447
15965		9.324347	4.994560	-2.184252	-0.844307	-0.032449	-1.189849	-163.270292	-77.883016	61.410243
15966		9.341021	5.071855	-2.456632	-1.341241	-0.009832	-1.456740	-167.862742	-78.086863	65.316189
15967		9.663700	4.829281	-3.087345	-1.947557	0.101878	-1.759026	-173.689586	-78.309889	70.126397
15968		10.384402	4.593402	-3.571956	-2.570877	0.262682	-2.067105	179.073324	-78.516657	76.006441
15969		11.669594	4.308872	-3.609494	-3.152084	0.465942	-2.304368	170.629995	-78.668353	82.774780
15970		12.867676	3.532564	-3.328809	-3.563219	0.727425	-2.434657	161.272756	-78.733230	90.230910
15971		13.867208	2.341858	-2.755935	-3.672955	1.030249	-2.453038	151.513266	-78.715361	98.033693
15972		14.020172	1.291700	-2.515070	-3.454757	1.249053	-2.444578	141.723625	-78.539109	105.996324
15973		13.569852	0.694235	-2.318678	-3.142997	1.311168	-2.452125	132.443497	-78.135497	113.630345
15974		12.414259	-0.007040	-1.431448	-2.755840	1.349655	-2.486341	123.942513	-77.488608	120.708347
15975		11.219510	-0.816988	-0.710410	-2.026170	1.208620	-2.556588	116.948105	-76.578577	126.691585
15976		10.941452	-1.112119	-0.435575	-1.190192	0.943596	-2.639783	111.769771	-75.418070	131.322588
15977		11.316647	-0.664263	-0.961254	-0.401662	0.782439	-2.695933	108.044753	-74.120296	134.941988
15978		11.551164	0.321003	-1.181183	0.270004	0.672344	-2.685881	105.454731	-72.752798	137.802903
15979		11.144856	1.330834	-1.120319	0.794782	0.603253	-2.680249	103.671684	-71.355348	140.153212
15980		10.773579	2.046567	-1.340647	1.197073	0.451167	-2.657841	102.644863	-69.927005	141.966268
15981		10.752769	3.004298	-1.566302	1.337755	0.301931	-2.628299	102.104469	-68.495187	143.361624
15982		10.874719	4.232430	-1.279010	1.160686	0.213189	-2.616355	101.712739	-67.049583	144.501202
15983		10.722421	5.353849	-0.873234	0.832891	0.229157	-2.621377	101.205266	-65.605671	145.573788
15984		10.710178	6.413244	-0.683028	0.426046	0.262091	-2.636391	100.521648	-64.146450	146.596568
15985		10.832267	6.828395	-0.339183	0.003151	0.338389	-2.601460	99.611138	-62.714677	147.613957
15986		10.342034	6.761122	0.100683	-0.316456	0.492019	-2.540567	98.469810	-61.317077	148.699238
15987		9.704037	6.401452	0.340834	-0.676161	0.636871	-2.447081	97.092960	-59.979087	149.831660
15988		9.488167	6.033736	0.197189	-1.024101	0.634528	-2.345592	95.640345	-58.679176	150.836512
15989		9.210958	5.288550	0.248158	-1.200548	0.674859	-2.231336	94.151039	-57.439984	151.778142
15990		8.648293	4.535549	0.450863	-1.166661	0.673797	-2.131420	92.774904	-56.239647	152.621757
15991		8.324223	3.758474	0.205109	-1.149482	0.684336	-2.033490	91.471428	-55.091303	153.399849
15992		7.907105	3.097265	-0.191554	-1.079689	0.737311	-1.943283	90.231905	-53.979777	154.160526
15993		7.543225	2.879832	-0.600239	-0.986133	0.750366	-1.850703	89.087816	-52.918138	154.878459
15994		7.213932	2.793356	-0.478711	-0.837800	0.695414	-1.760587	88.118202	-51.895831	155.494895
15995		6.796898	2.828407	-0.242788	-0.570991	0.596532	-1.659339	87.402270	-50.933614	155.989293
15996		6.323250	2.676615	-0.106551	-0.376290	0.518893	-1.554552	86.876893	-50.025443	156.389629
15997		5.744076	2.272354	0.202406	-0.190778	0.442738	-1.449389	86.519185	-49.182847	156.712766
15998		5.386254	2.039555	0.529465	0.002111	0.343583	-1.333798	86.346842	-48.404524	156.942311
15999		5.245286	2.093375	0.246968	0.176408	0.235486	-1.208128	86.340453	-47.706175	157.083706
16000		5.279312	2.598068	-0.181052	0.359016	0.131181	-1.073212	86.502919	-47.084870	157.141313
16001		5.441977	3.303301	-0.329031	0.553487	0.035854	-0.929470	86.824662	-46.553106	157.131837
16002		5.568867	4.108688	-0.298430	0.743589	-0.062434	-0.784706	87.309050	-46.103387	157.050147
16003		5.729868	4.896180	-0.254143	0.803775	-0.103833	-0.650934	87.840846	-45.734420	156.947747
16004		5.921083	5.417539	-0.479823	0.755524	-0.116610	-0.531503	88.349226	-45.429968	156.841117
16005		6.070685	5.742736	-0.407344	0.684653	-0.086520	-0.408902	88.791218	-45.198202	156.767966
16006		6.056197	6.020144	-0.299383	0.597857	-0.031767	-0.272506	89.152077	-45.040227	156.741310
16007		6.014682	6.145935	-0.206318	0.442810	0.016969	-0.122929	89.390720	-44.970933	156.759374
16008		5.913801	6.158069	-0.139722	0.281957	0.056485	0.037001	89.517063	-44.989673	156.808438
16009		5.763920	6.209994	0.146073	0.147947	0.073630	0.219526	89.552301	-45.116380	156.875176
16010		5.584032	6.266594	0.303924	-0.003661	0.106013	0.395348	89.484387	-45.340203	156.967141
16011		5.419942	6.163512	0.347141	-0.157654	0.122546	0.537172	89.313033	-45.648492	157.077534
16012		5.287470	6.267335	0.644441	-0.218361	0.097379	0.637584	89.122554	-46.010715	157.167846
16013		5.351427	6.655650	0.711022	-0.241272	0.041964	0.691683	88.945853	-46.407799	157.217947
16014		5.321378	7.045779	0.257574	-0.218395	-0.026536	0.721711	88.825236	-46.819031	157.210767
16015		5.274796	7.243431	-0.084735	-0.218994	-0.091522	0.725307	88.740018	-47.236844	157.152612
16016		5.271352	7.068059	-0.389673	-0.256598	-0.115302	0.717861	88.651590	-47.646716	157.072066
16017		5.392874	6.726224	-0.527348	-0.297570	-0.125481	0.708248	88.542857	-48.055361	156.985668
16018		5.731292	6.628315	-0.399118	-0.222511	-0.174202	0.700108	88.512575	-48.455779	156.854454
16019		6.270741	6.846330	-0.213288	-0.180700	-0.262404	0.707184	88.561328	-48.865879	156.648570
16020		6.726149	7.104705	-0.031288	-0.231101	-0.332662	0.701950	88.634252	-49.269249	156.375872
16021		7.166539	7.409923	0.461065	-0.234405	-0.380300	0.711713	88.736921	-49.683139	156.061104
16022		7.796420	8.286712	1.188951	-0.231099	-0.330928	0.696004	88.816175	-50.082319	155.783328
16023		8.678337	8.845648	1.481159	-0.057814	-0.207440	0.625720	88.910389	-50.444347	155.614753
16024		9.061541	9.994243	1.861639	0.152035	-0.299980	0.456280	89.197545	-50.704767	155.354511
16025		10.269114	11.015430	1.018334	-0.003811	-0.621217	0.159912	89.622750	-50.801317	154.799673
16026		11.333335	10.965396	0.879569	-0.358464	-0.586379	-0.098866	89.824890	-50.742089	154.271992
16027		10.543577	9.461650	1.525651	-1.023574	-0.269605	-0.260403	89.421034	-50.595191	154.032942
16028		8.974209	6.768034	1.368625	-1.500329	-0.011982	-0.337727	88.569052	-50.397390	154.021185
16029		7.546382	4.721547	1.192749	-1.461394	0.158041	-0.326053	87.623112	-50.208848	154.159374
16030		6.028297	3.433999	1.192312	-1.025986	0.224283	-0.212068	86.883332	-50.076963	154.355248
16031		4.755857	2.961215	1.521420	-0.437450	0.104640	-0.022474	86.554990	-50.061757	154.453584
16032		3.832860	2.678695	1.483161	0.104389	-0.198132	0.198320	86.736911	-50.177667	154.292201
16033		3.803920	2.699415	0.904871	0.721243	-0.607098	0.387861	87.548138	-50.418071	153.771942
16034		4.699919	3.299846	0.198170	1.336472	-0.894784	0.524033	88.919806	-50.730013	152.985013
16035		5.737416	4.323703	-0.345913	1.822527	-1.017998	0.568164	90.673061	-51.058916	152.068376
16036		6.899438	5.738404	-0.727803	2.169742	-1.123892	0.528339	92.721607	-51.338784	151.032370
16037		8.430759	7.201750	-0.739556	2.081161	-1.071097	0.463486	94.697075	-51.565646	150.028235
16038		9.662198	8.030121	-1.044357	1.690699	-0.812615	0.423508	96.274781	-51.759236	149.249155
16039		10.196289	9.045936	-1.391826	1.375689	-0.609683	0.379034	97.530594	-51.934621	148.651607
16040		10.603673	9.845583	-1.394750	0.838432	-0.500169	0.332838	98.401748	-52.080373	148.153071
16041		10.859539	9.382618	-1.325049	0.072380	-0.267235	0.303021	98.664228	-52.231228	147.870294
16042		10.320855	8.480912	-1.301694	-0.417538	-0.034609	0.282920	98.475081	-52.385004	147.804258
16043		9.474481	7.591308	-1.419746	-0.564713	0.042168	0.287031	98.144232	-52.553088	147.810560
16044		8.552450	6.780147	-1.162944	-0.625376	0.085186	0.317622	97.748971	-52.736412	147.854333
16045		7.488748	5.879132	-0.719972	-0.750025	0.205594	0.368346	97.194094	-52.962792	148.008462
16046		6.417411	5.173337	-0.816743	-0.792860	0.222812	0.450438	96.605699	-53.230596	148.173518
16047		5.773129	4.954457	-1.046708	-0.629251	0.048172	0.548272	96.248223	-53.547588	148.166849
16048		5.782987	4.987372	-0.864525	-0.378414	-0.138579	0.643277	96.186701	-53.901532	147.971625
16049		6.117313	5.039569	-0.400446	-0.186083	-0.261708	0.728045	96.341388	-54.301551	147.646218
16050		6.835360	5.037054	-0.420674	-0.149887	-0.349673	0.806047	96.600948	-54.733921	147.219391
16051		7.570946	4.892294	-0.787967	-0.124980	-0.388404	0.869940	96.920654	-55.204462	146.738706
16052		8.346657	4.886680	-1.135349	0.035236	-0.523305	0.908154	97.460136	-55.679332	146.105503
16053		9.326144	5.206098	-1.619590	0.174430	-0.635680	0.928191	98.192654	-56.158437	145.338989
16054		10.021456	5.265731	-1.891516	0.187902	-0.566234	0.953582	98.898210	-56.646954	144.618575
16055		10.117143	4.998256	-1.059781	0.060124	-0.481877	0.947270	99.475632	-57.140584	143.967641
16056		10.108356	4.642917	-1.448082	0.075114	-0.488096	0.937201	100.084450	-57.619028	143.293338
16057		9.954652	4.651943	-1.630260	0.122883	-0.485480	0.919527	100.733618	-58.088955	142.607085
16058		9.648741	4.651069	-1.489337	0.012429	-0.392432	0.908957	101.251957	-58.554476	142.003853
16059		9.084452	4.433664	-1.413024	-0.062042	-0.311433	0.907702	101.667434	-59.030799	141.473846
16060		8.506571	4.432430	-1.495257	0.051658	-0.355952	0.906636	102.205780	-59.494276	140.879474
16061		8.336971	4.392267	-1.711501	0.096618	-0.441044	0.924599	102.872373	-59.958673	140.169073
16062		8.629409	4.164941	-1.762046	0.051343	-0.465109	0.968820	103.568805	-60.435697	139.397961
16063		8.895873	3.803748	-1.817718	0.041906	-0.474033	1.026234	104.306098	-60.943186	138.577337
16064		9.289792	3.563886	-1.854639	0.052356	-0.474869	1.071061	105.090597	-61.465570	137.713991
16065		9.584129	3.268308	-2.090773	0.032158	-0.454789	1.126560	105.888270	-62.020335	136.826730
16066		9.924152	2.935656	-2.232205	0.046716	-0.439890	1.135242	106.715914	-62.572078	135.919851
16067		10.017902	2.672946	-2.208915	0.140574	-0.406005	1.127079	107.592356	-63.122934	135.022813
16068		9.922236	2.551483	-2.215649	0.238313	-0.363650	1.105236	108.508764	-63.659129	134.148370
16069		9.725245	2.459677	-2.290015	0.345706	-0.344271	1.069804	109.486478	-64.177014	133.277796
16070		9.285899	2.389545	-2.234487	0.461742	-0.353162	1.028628	110.562835	-64.660589	132.375688
16071		8.987681	2.340526	-1.871682	0.534158	-0.397453	0.986996	111.748236	-65.108452	131.401998
16072		8.843818	2.513937	-1.934866	0.596202	-0.447628	0.958638	113.054482	-65.518058	130.338307
16073		8.638257	2.613591	-1.872221	0.634079	-0.479772	0.963791	114.459454	-65.915535	129.193027
16074		8.533630	2.766970	-1.953055	0.685362	-0.503773	0.959864	115.963902	-66.290003	127.975034
16075		8.608386	2.914677	-2.125536	0.717793	-0.513808	0.970910	117.545218	-66.657172	126.696424
16076		8.808957	2.951751	-2.278130	0.760273	-0.531050	0.998745	119.236275	-67.015958	125.328908
16077		9.257497	3.012520	-2.362490	0.741791	-0.542609	1.040538	121.003772	-67.378765	123.870145
16078		9.625263	3.017875	-2.415155	0.638764	-0.503457	1.092988	122.758428	-67.758386	122.365813
16079		10.135035	3.196885	-2.474352	0.514738	-0.445212	1.145570	124.467269	-68.167092	120.838004
16080		10.383928	3.266357	-2.576950	0.370085	-0.369553	1.176229	126.091827	-68.595310	119.316588
16081		10.415977	3.160416	-2.620145	0.188149	-0.281410	1.188636	127.578158	-69.047166	117.835769
16082		10.203460	2.964733	-2.735244	0.026164	-0.184527	1.159411	128.893396	-69.503949	116.443496
16083		9.792227	2.564007	-2.706026	-0.144526	-0.123893	1.129382	130.064918	-69.961815	115.103954
16084		9.424812	2.170790	-2.752332	-0.235598	-0.113545	1.095537	131.195077	-70.396311	113.757043
16085		9.258350	1.686562	-2.599453	-0.317392	-0.118962	1.085257	132.326033	-70.818366	112.362855
16086		9.164420	1.289453	-2.695243	-0.317353	-0.120293	1.090443	133.522801	-71.229495	110.902950
16087		9.105604	0.912196	-2.626289	-0.279033	-0.141482	1.103057	134.839102	-71.629952	109.343291
16088		9.048768	0.556665	-2.615063	-0.238810	-0.146949	1.114400	136.265264	-72.017705	107.696177
16089		8.943008	0.334231	-2.591001	-0.199029	-0.168929	1.105616	137.792805	-72.382485	105.969677
16090		8.856889	0.057814	-2.719476	-0.077932	-0.185180	1.087997	139.455405	-72.715868	104.178079
16091		8.826890	0.143061	-2.633446	0.085556	-0.215248	1.070934	141.285436	-73.016151	102.311973
16092		8.900820	0.003120	-2.371884	0.220118	-0.225323	1.051538	143.243115	-73.283912	100.396339
16093		8.872101	-0.015499	-2.416816	0.376950	-0.206058	1.025436	145.284934	-73.535216	98.488813
16094		8.880102	0.207792	-2.423804	0.571089	-0.237177	0.992247	147.479677	-73.738108	96.540574
16095		8.835003	0.473504	-2.277584	0.673517	-0.247527	0.975497	149.759893	-73.912129	94.565812
16096		8.758635	0.699195	-2.236131	0.744809	-0.263574	0.944930	152.090157	-74.044617	92.583511
16097		8.849026	1.049733	-2.501258	0.766103	-0.239283	0.899722	154.357440	-74.158571	90.680087
16098		8.724811	1.098608	-2.403428	0.727362	-0.210816	0.857708	156.532793	-74.254280	88.850593
16099		8.748253	1.071787	-2.574343	0.687361	-0.192435	0.809398	158.597350	-74.333493	87.112694
16100		8.902656	1.088735	-2.651344	0.607290	-0.177609	0.775408	160.561009	-74.394404	85.432948
16101		9.098464	1.095292	-2.701379	0.549141	-0.140271	0.757475	162.441693	-74.460038	83.804846
16102		9.212899	1.185704	-2.673922	0.539497	-0.123292	0.733529	164.275883	-74.513866	82.220098
16103		9.452920	1.341333	-2.622900	0.469397	-0.087489	0.712218	166.016525	-74.574164	80.690807
16104		9.427996	1.322680	-2.695164	0.326892	-0.010671	0.689390	167.608014	-74.659384	79.232348
16105		9.173031	1.058861	-2.702643	0.195834	0.016699	0.671912	169.091405	-74.750617	77.808439
16106		9.145248	0.797911	-2.694993	0.140337	0.017856	0.665243	170.546048	-74.829023	76.382145
16107		8.961761	0.439859	-2.681862	0.150067	0.049186	0.636098	171.948968	-74.916425	75.015564
16108		8.745596	0.117651	-2.749147	0.075822	0.025059	0.599124	173.252298	-74.975749	73.708682
16109		9.082421	-0.109836	-2.659038	0.090448	-0.028581	0.582524	174.549111	-74.998978	72.417326
16110		9.162684	-0.381403	-2.666573	0.166256	-0.031080	0.552431	175.828850	-75.008573	71.188847
16111		9.356082	-0.567087	-2.665098	0.274286	-0.000474	0.526283	177.112540	-75.030869	70.020306
16112		9.337833	-0.838987	-2.513145	0.290558	0.100068	0.487652	178.319386	-75.100034	68.941342
16113		9.159779	-1.072156	-2.883595	0.504155	0.096060	0.464046	179.608208	-75.163828	67.904369
16114		9.110228	-0.809412	-3.004700	0.749649	-0.018378	0.466853	-178.949728	-75.152418	66.854691
16115		9.415544	-0.578395	-2.762588	0.774716	-0.049752	0.475017	-177.481125	-75.119337	65.792120
16116		9.467703	-0.230326	-2.672867	0.873266	0.015763	0.454405	-175.996605	-75.114051	64.771610
16117		9.331138	0.229659	-2.787446	0.913613	0.048377	0.418295	-174.561786	-75.125760	63.826259
16118		9.328132	0.492696	-2.791635	0.805155	0.082476	0.369274	-173.284478	-75.150756	62.979819
16119		9.428944	0.538217	-2.742705	0.688886	0.118118	0.320984	-172.163669	-75.198330	62.226336
16120		9.411242	0.466714	-2.442569	0.621666	0.125307	0.279713	-171.163088	-75.246452	61.557615
16121		9.336401	0.352834	-2.447750	0.506209	0.077281	0.256488	-170.289697	-75.270139	60.952033
16122		9.345837	0.237326	-2.583582	0.395426	0.048230	0.251108	-169.502578	-75.272428	60.370077
16123		9.304227	0.225165	-2.731978	0.371925	0.020852	0.249132	-168.742430	-75.260838	59.802055
16124		9.373511	0.194781	-2.694447	0.340210	0.023907	0.240969	-168.020432	-75.246734	59.254616
16125		9.399663	0.024674	-2.797224	0.325191	0.031797	0.226303	-167.332677	-75.240420	58.733707
16126		9.511383	-0.088541	-2.816574	0.347192	0.037305	0.215380	-166.656918	-75.233712	58.238125
16127		9.518985	-0.136585	-2.741090	0.385766	0.051865	0.213845	-165.951450	-75.237083	57.734770
16128		9.402286	-0.130355	-2.544928	0.362971	0.113459	0.211374	-165.234419	-75.270094	57.205851
16129		9.347078	-0.152723	-2.356311	0.273808	0.173535	0.229337	-164.488523	-75.335210	56.594540
16130		9.323842	-0.139754	-2.192554	0.188122	0.191830	0.260365	-163.714209	-75.400239	55.903111
16131		9.297293	-0.153140	-2.169165	0.119045	0.171414	0.292588	-162.913087	-75.449573	55.143457
16132		9.335691	-0.184997	-2.073714	0.050155	0.146218	0.318478	-162.114768	-75.474899	54.345812
16133		9.474394	-0.261037	-1.663132	0.004602	0.128885	0.334480	-161.312707	-75.488207	53.517649
16134		9.792191	-0.262282	-1.252526	-0.007637	0.061486	0.353735	-160.532386	-75.455636	52.704377
16135		10.169204	-0.382148	-1.422410	0.009939	0.030151	0.369589	-159.730339	-75.403165	51.879193
16136		10.293560	-0.547734	-1.740424	0.169055	0.075606	0.372091	-158.808894	-75.368859	51.024341
16137		9.811796	-0.355340	-2.075755	0.246769	0.113346	0.348139	-157.857934	-75.358739	50.185248
16138		9.300863	-0.442978	-2.381702	0.187284	0.117501	0.313989	-157.014997	-75.352659	49.422178
16139		9.130890	-0.465733	-2.349373	0.138061	0.078882	0.295836	-156.264228	-75.330030	48.725544
16140		9.169077	-0.377747	-2.076968	0.156269	0.034208	0.285839	-155.573326	-75.281884	48.101060
16141		9.334338	-0.134054	-1.814430	0.248300	0.021713	0.288914	-154.831798	-75.226769	47.479017
16142		9.541370	0.081261	-1.577702	0.356730	0.046010	0.290268	-154.016062	-75.179646	46.843865
16143		9.820465	0.296465	-1.821210	0.470606	0.050662	0.284343	-153.138387	-75.136082	46.212467
16144		10.050901	0.301600	-2.232803	0.508609	0.038174	0.251408	-152.327845	-75.090650	45.672387
16145		10.097446	0.045011	-2.486392	0.457000	0.061440	0.197310	-151.620391	-75.071461	45.208855
16146		9.875804	-0.152319	-2.266624	0.299279	0.089372	0.155845	-151.063956	-75.074821	44.807438
16147		9.575948	-0.279754	-2.338240	0.115004	0.037534	0.136706	-150.693094	-75.058286	44.489435
16148		9.432276	-0.434561	-2.556367	-0.021825	-0.015860	0.112167	-150.514473	-75.020180	44.288526
16149		9.435519	-0.703961	-2.692605	-0.034950	0.009362	0.087519	-150.352503	-75.002876	44.097746
16150		9.454951	-0.985000	-2.470708	-0.025580	0.073838	0.088786	-150.126101	-75.015712	43.845073
16151		9.439798	-1.223512	-2.132857	-0.044177	0.121503	0.130363	-149.769974	-75.041313	43.447855
16152		9.358400	-1.554964	-2.089393	-0.020638	0.130059	0.183062	-149.304088	-75.053742	42.950274
16153		9.159370	-1.801937	-2.312477	0.091163	0.101211	0.218320	-148.729019	-75.041760	42.406740
16154		9.072706	-2.002782	-2.408418	0.216273	0.049568	0.232701	-148.126820	-74.997468	41.908523
16155		9.202518	-2.172061	-2.311331	0.344657	-0.007048	0.239702	-147.495145	-74.923517	41.456546
16156		9.558603	-2.180592	-2.303662	0.448832	-0.052884	0.254652	-146.846381	-74.820120	41.047812
16157		9.781927	-1.943176	-2.291881	0.493142	-0.042151	0.245419	-146.172294	-74.724943	40.639651
16158		9.779870	-1.698652	-2.316907	0.484828	-0.016664	0.224139	-145.526506	-74.645998	40.255051
16159		9.575968	-1.433409	-2.279588	0.529501	-0.026166	0.194494	-144.911932	-74.572599	39.929905
16160		9.464931	-1.047140	-2.139394	0.580948	-0.051402	0.182359	-144.333185	-74.489089	39.671720
16161		9.414083	-0.742668	-2.080037	0.574585	-0.060570	0.185774	-143.757830	-74.400915	39.413839
16162		9.422329	-0.629962	-2.065370	0.546327	-0.023353	0.217044	-143.117072	-74.317137	39.070400
16163		9.396032	-0.629179	-2.096722	0.533202	0.017703	0.257345	-142.363017	-74.238276	38.602030
16164		9.346261	-0.747490	-2.066340	0.472086	0.066185	0.305771	-141.523381	-74.161286	38.007367
16165		9.464415	-0.770973	-2.160173	0.334624	0.055708	0.351913	-140.699916	-74.061782	37.348150
16166		9.797738	-0.923623	-2.342859	0.161767	0.046890	0.376361	-139.969678	-73.946064	36.681688
16167		10.163987	-1.149593	-2.396716	0.082617	0.079122	0.379587	-139.236985	-73.841785	35.965944
16168		10.270644	-1.306562	-2.250448	0.109918	0.129465	0.366452	-138.463451	-73.760803	35.222718
16169		10.232098	-1.350382	-2.028191	0.154561	0.139341	0.337940	-137.688596	-73.692884	34.505388
16170		10.162182	-1.294602	-2.046872	0.191383	0.101927	0.314180	-136.994452	-73.615276	33.892940
16171		10.150900	-1.249452	-2.189151	0.201050	0.060301	0.278353	-136.395112	-73.532993	33.385802
16172		10.114303	-1.241310	-2.322874	0.247433	0.031209	0.235706	-135.884935	-73.453846	32.998172
16173		10.033851	-1.171914	-2.458198	0.325042	-0.011811	0.188954	-135.444506	-73.375242	32.730550
16174		10.023240	-1.111403	-2.486983	0.380819	-0.056235	0.147994	-135.103232	-73.294288	32.598625
16175		10.150469	-1.046057	-2.607875	0.410651	-0.101891	0.121964	-134.831075	-73.205442	32.557724
16176		10.256619	-1.047011	-2.698121	0.430655	-0.107065	0.110017	-134.584900	-73.119167	32.554794
16177		10.247835	-1.042356	-2.724334	0.424436	-0.078207	0.095113	-134.311468	-73.050704	32.520780
16178		10.265203	-1.009618	-2.524821	0.387081	-0.053322	0.101749	-134.032182	-72.989349	32.457039
16179		10.419237	-0.955313	-2.362068	0.283708	-0.058910	0.114273	-133.790923	-72.920555	32.372317
16180		10.858640	-0.841165	-2.282119	0.148660	-0.069046	0.126086	-133.640877	-72.842891	32.300739
16181		11.203829	-0.744660	-2.174548	0.038468	-0.009789	0.123631	-133.464316	-72.789449	32.136597
16182		11.409324	-0.839227	-2.099450	-0.015473	0.060686	0.100374	-133.269185	-72.773677	31.919241
16183		11.563139	-0.929384	-2.115749	0.000496	0.066282	0.085226	-133.062028	-72.765776	31.700246
16184		11.627021	-0.942330	-2.265255	0.037456	0.092349	0.051358	-132.856476	-72.782771	31.503650
16185		11.442031	-1.111336	-2.300696	0.071750	0.163325	-0.029509	-132.620236	-72.860403	31.297007
16186		11.179310	-1.359555	-2.117616	0.103329	0.150395	-0.104386	-132.492147	-72.965468	31.221025
16187		11.299246	-1.624169	-1.975529	0.074367	0.040692	-0.154328	-132.578847	-73.048078	31.353838
16188		11.749679	-1.984092	-1.851241	0.017389	-0.032903	-0.175999	-132.845564	-73.112298	31.639104
16189		11.969518	-2.427803	-1.729459	0.006224	0.007234	-0.216223	-133.100819	-73.207490	31.907125
16190		11.814211	-2.668544	-1.490246	0.065131	0.092967	-0.282490	-133.309327	-73.364983	32.159892
16191		11.570290	-2.667502	-1.262956	0.145530	0.135894	-0.352982	-133.493129	-73.567175	32.436207
16192		11.396721	-2.469578	-1.225327	0.267520	0.170838	-0.416487	-133.665131	-73.810663	32.771320
16193		10.976223	-2.190549	-1.244718	0.447753	0.247840	-0.481217	-133.703043	-74.109898	33.075315
16194		10.297518	-1.822868	-1.304524	0.646019	0.327647	-0.547212	-133.624533	-74.469555	33.374557
16195		9.515194	-1.486853	-1.371224	0.786095	0.365156	-0.619072	-133.501433	-74.872523	33.711550
16196		8.955812	-1.148977	-1.278769	0.898499	0.367150	-0.692389	-133.443033	-75.308438	34.180224
16197		8.684942	-0.814428	-1.112722	0.955946	0.360348	-0.757758	-133.459629	-75.767373	34.760633
16198		8.578802	-0.375202	-0.888414	0.953792	0.337334	-0.832262	-133.674990	-76.249453	35.542200
16199		8.561538	-0.025714	-0.778113	0.885919	0.328796	-0.894905	-134.068628	-76.751441	36.466674
16200		8.558312	0.208019	-0.810488	0.816728	0.298217	-0.973538	-134.769916	-77.272994	37.663074
16201		8.608952	0.247831	-0.970190	0.750534	0.243872	-1.040352	-135.796692	-77.793600	39.152687
16202		8.843412	0.265105	-1.160746	0.677046	0.201097	-1.092683	-137.187197	-78.311974	40.966962
16203		9.087494	0.197805	-1.272846	0.603472	0.177481	-1.131085	-138.872399	-78.823097	43.036673
16204		9.195201	0.240645	-1.245833	0.484126	0.119207	-1.144710	-140.974484	-79.301533	45.456647
16205		9.380864	0.252544	-1.209411	0.236790	0.029953	-1.133993	-143.540481	-79.715238	48.201882
16206		9.564575	0.303928	-1.171066	-0.062442	-0.038410	-1.109614	-146.583681	-80.065232	51.253218
16207		9.758724	0.458073	-1.168228	-0.312144	-0.059220	-1.082835	-149.909466	-80.365654	54.444245
16208		9.940512	0.905724	-1.101757	-0.536281	-0.000205	-1.087759	-153.520193	-80.664775	57.789963
16209		10.016057	1.273643	-0.922004	-0.732850	0.145395	-1.135422	-157.380274	-81.014033	61.272223
16210		10.023261	1.435395	-0.682868	-0.924615	0.328827	-1.217019	-161.741744	-81.438013	65.145735
16211		9.949310	1.242530	-0.835987	-1.046796	0.448002	-1.338155	-166.895225	-81.896173	69.745617
16212		9.727134	0.843186	-1.104253	-1.020005	0.454189	-1.485276	-173.231955	-82.303226	75.549435
16213		9.539102	0.321598	-1.354307	-0.986652	0.376847	-1.607006	179.369088	-82.572461	82.440548
16214		9.535720	-0.049295	-1.756502	-0.983849	0.230906	-1.686851	171.258394	-82.627805	90.047318
16215		10.040503	-0.023844	-2.277647	-1.016781	0.124476	-1.723044	163.182460	-82.482793	97.601865
16216		10.702732	-0.047712	-2.799669	-1.064046	0.157449	-1.729101	155.388814	-82.217074	104.846855
16217		11.031901	-0.039680	-3.048517	-1.011197	0.243047	-1.726386	148.090645	-81.874882	111.628405
16218		11.111426	0.109080	-2.884343	-0.903958	0.319187	-1.679099	141.443450	-81.468065	117.819657
16219		10.922265	0.170801	-2.389015	-0.803407	0.351859	-1.621932	135.585372	-81.006787	123.278691
16220		10.606027	0.064567	-1.662178	-0.599446	0.298238	-1.566356	130.683146	-80.466676	127.894576
16221		10.316992	0.043401	-1.114364	-0.316114	0.189078	-1.554624	126.787514	-79.842799	131.662181
16222		10.223755	0.437420	-0.627008	-0.136445	0.102394	-1.578609	123.615513	-79.135330	134.805847
16223		10.048883	1.072731	-0.278074	-0.291853	0.053971	-1.619765	120.813165	-78.369620	137.490156
16224		10.067288	1.702076	-0.699277	-0.688161	-0.013698	-1.688865	118.197947	-77.521373	139.758258
16225		10.294332	2.098648	-1.252702	-1.078456	-0.027368	-1.781555	115.614700	-76.606834	141.772327
16226		10.272727	2.168170	-1.643666	-1.269221	0.022110	-1.863170	113.042549	-75.636886	143.669859
16227		10.204432	2.216914	-1.582890	-1.236455	0.038417	-1.936859	110.686659	-74.617748	145.371946
16228		10.150449	2.212087	-1.395643	-1.106036	0.008317	-1.981120	108.681289	-73.547945	146.795498
16229		10.079505	2.313791	-1.162765	-0.961326	-0.030660	-2.004582	107.020324	-72.451715	147.953916
16230		10.026091	2.320195	-1.202790	-0.915876	-0.051056	-2.005043	105.582164	-71.338219	148.912197
16231		10.071440	2.401767	-1.175114	-0.881333	-0.084084	-1.982845	104.356521	-70.230503	149.672909
16232		10.009915	2.352304	-1.060485	-0.869031	-0.089216	-1.962057	103.256928	-69.124033	150.311910
16233		10.093191	2.247555	-0.910675	-0.926011	-0.037199	-1.930572	102.147895	-68.042413	150.930774
16234		9.991648	2.039182	-0.824812	-0.975101	0.063078	-1.905164	100.965384	-66.977813	151.603396
16235		9.669203	1.920777	-0.998776	-0.968064	0.108308	-1.883161	99.813477	-65.929709	152.252338
16236		9.439462	2.019902	-1.114298	-0.834136	0.066599	-1.860650	98.866272	-64.881891	152.765995
16237		9.301439	2.490133	-1.132474	-0.670123	0.001580	-1.853594	98.143242	-63.833546	153.139543
16238		9.299619	2.826054	-1.011712	-0.535508	-0.065800	-1.839829	97.615241	-62.782458	153.384785
16239		9.210307	3.052863	-0.904781	-0.396355	-0.101875	-1.804799	97.234668	-61.751319	153.555576
16240		9.209585	3.266525	-0.649747	-0.270555	-0.123521	-1.770578	96.971743	-60.734474	153.676440
16241		9.191043	3.594659	-0.439694	-0.202974	-0.113954	-1.735274	96.752220	-59.741327	153.792702
16242		9.089265	3.834440	-0.236747	-0.226581	-0.071769	-1.708107	96.494467	-58.763341	153.939355
16243		8.896733	4.052701	-0.075204	-0.291080	-0.011934	-1.682265	96.158426	-57.806326	154.135624
16244		8.697868	4.256523	-0.010367	-0.336609	0.008393	-1.660998	95.796923	-56.859483	154.333706
16245		8.549543	4.501500	-0.151597	-0.416917	0.034054	-1.639602	95.383127	-55.928115	154.540960
16246		8.441682	4.530426	-0.206940	-0.470653	0.068675	-1.614431	94.929256	-55.009757	154.762253
16247		8.192226	4.575124	-0.222841	-0.447945	0.091091	-1.575393	94.487735	-54.116081	154.986324
16248		7.866516	4.640338	-0.273010	-0.462662	0.086996	-1.530177	94.059922	-53.245057	155.185940
16249		7.685264	4.629665	-0.271728	-0.487861	0.077131	-1.469393	93.640341	-52.409596	155.358821
16250		7.548677	4.595261	-0.271856	-0.469602	0.075395	-1.404163	93.248175	-51.608833	155.512653
16251		7.461761	4.464875	-0.218971	-0.495575	0.082549	-1.325927	92.848021	-50.854240	155.658750
16252		7.398622	4.201159	-0.318849	-0.505672	0.100361	-1.248197	92.442757	-50.142406	155.806095
16253		7.329793	4.056642	-0.268819	-0.464785	0.096603	-1.165771	92.072945	-49.478632	155.938585
16254		7.265477	4.032363	-0.155196	-0.397230	0.114536	-1.079531	91.740009	-48.862835	156.075425
16255		7.068222	4.082021	-0.145914	-0.347988	0.142862	-0.987238	91.423466	-48.301082	156.228595
16256		6.900931	4.157633	0.034324	-0.296399	0.152905	-0.901233	91.137896	-47.787319	156.381859
16257		6.670527	4.355079	0.091323	-0.249535	0.147082	-0.804028	90.887310	-47.329586	156.524571
16258		6.424760	4.432420	-0.009597	-0.229521	0.095733	-0.707047	90.685307	-46.926056	156.618343
16259		6.254311	4.553382	-0.271002	-0.222593	0.028947	-0.616770	90.529699	-46.574221	156.653733
16260		6.248968	4.728509	-0.433360	-0.218675	-0.020959	-0.535330	90.409052	-46.268400	156.644904
16261		6.364049	4.785716	-0.355146	-0.259251	-0.022917	-0.437274	90.266262	-46.019121	156.633747
16262		6.352903	4.551615	-0.290546	-0.297064	0.053093	-0.320618	90.058911	-45.836667	156.683097
16263		6.138129	4.280471	-0.222748	-0.241298	0.104478	-0.195262	89.852894	-45.726052	156.774448
16264		5.953585	4.273115	-0.276759	-0.137873	0.100295	-0.077237	89.710070	-45.682960	156.861327
16265		5.716278	4.264189	-0.493453	0.025930	0.053600	0.032520	89.687035	-45.702720	156.911072
16266		5.518134	4.444519	-0.546705	0.233076	0.003233	0.093398	89.813433	-45.757812	156.918841
16267		5.294931	5.028159	-0.490245	0.420495	-0.098751	0.137732	90.106143	-45.838074	156.843407
16268		5.196294	5.579262	-0.660971	0.543459	-0.270550	0.164388	90.573109	-45.933040	156.624601
16269		5.348519	5.855023	-1.094311	0.642301	-0.415858	0.216433	91.183399	-46.054751	156.284572
16270		5.494068	5.963820	-1.127647	0.742132	-0.483030	0.284971	91.896365	-46.212205	155.883515
16271		5.670316	6.316108	-0.826551	0.688558	-0.470735	0.356763	92.574993	-46.407401	155.487426
16272		6.094716	6.837225	-0.355602	0.421866	-0.387801	0.433429	93.059227	-46.646137	155.151457
16273		6.496669	7.442698	-0.002805	0.035772	-0.260781	0.527495	93.249870	-46.941215	154.914879
16274		6.698099	7.959284	0.232136	-0.266200	-0.181514	0.608394	93.225773	-47.284827	154.737766
16275		6.769443	8.234729	0.358815	-0.375357	-0.182386	0.664053	93.141005	-47.660437	154.557849
16276		6.663857	8.104466	0.175146	-0.394901	-0.251841	0.690595	93.092824	-48.048856	154.315659
16277		6.536834	7.583229	-0.181545	-0.371590	-0.361688	0.691000	93.129147	-48.434463	153.978480
16278		6.350934	6.871438	-0.647444	-0.389109	-0.448915	0.686163	93.217312	-48.813643	153.561771
16279		6.301498	6.091145	-1.535952	-0.538977	-0.464589	0.697223	93.233436	-49.199044	153.128231
16280		6.047780	5.553336	-1.427012	-0.707444	-0.438756	0.735054	93.143256	-49.606285	152.711181
16281		5.858930	5.057823	-1.146270	-0.798129	-0.476981	0.828442	93.032740	-50.067058	152.254405
16282		5.866050	4.846938	-0.979570	-0.823256	-0.494029	0.949986	92.931162	-50.596546	151.771767
16283		6.028540	4.697825	-0.303321	-0.807681	-0.448453	1.052411	92.814206	-51.187406	151.323152
16284		6.720298	5.313117	0.698144	-0.367282	-0.455212	1.128124	92.967315	-51.820442	150.856887
16285		7.508283	7.544177	1.683906	0.211682	-0.594184	1.072021	93.563228	-52.415815	150.252648
16286		8.978637	10.151733	0.962544	0.855827	-1.093582	0.810545	94.910908	-52.833267	149.171773
16287		11.567395	12.143899	-0.848597	0.903575	-1.710210	0.414106	96.742300	-52.971546	147.521931
16288		14.423202	10.111348	-1.979843	-0.017503	-1.528857	0.140397	97.890980	-52.940012	146.067929
16289		13.602826	7.067668	-0.014717	-0.441839	-0.469080	0.062613	97.989651	-52.940256	145.624173
16290		10.531351	5.334929	1.145345	-0.546829	0.102429	0.140052	97.607530	-53.028302	145.707988
16291		8.073749	4.240624	-0.305883	-0.639283	0.060361	0.311522	97.218966	-53.211567	145.732975
16292		6.703418	3.971757	-0.743203	-0.677837	-0.003634	0.533700	96.877238	-53.515702	145.672323
16293		5.488553	3.696535	0.458239	-0.441591	-0.157291	0.721636	96.805802	-53.917259	145.444223
16294		5.479085	3.254839	-0.366967	0.024003	-0.466686	0.852434	97.262664	-54.370278	144.894950
16295		6.236399	2.987967	-1.519229	0.410191	-0.600197	0.927633	98.069753	-54.852978	144.190437
16296		7.037953	3.332256	-1.735849	0.773603	-0.706688	0.963036	99.198689	-55.339015	143.351897
16297		8.252913	4.555674	-1.352098	1.140577	-0.797891	0.999354	100.645846	-55.826245	142.387071
16298		9.685130	6.240854	-0.622248	1.181090	-0.770522	1.024853	102.131749	-56.316354	141.409549
16299		11.090160	7.633281	-0.607230	0.818962	-0.626841	1.016714	103.318192	-56.807624	140.547350
16300		12.075204	8.148033	-1.228260	0.301721	-0.330096	0.939444	103.963495	-57.287872	139.981922
16301		11.798546	7.477654	-1.395905	-0.271105	-0.049334	0.846171	104.027658	-57.753687	139.719012
16302		10.746413	6.021519	-1.673756	-0.696792	0.117635	0.752470	103.681505	-58.190160	139.653894
16303		9.622145	4.724472	-2.143035	-0.749660	0.163700	0.693862	103.246157	-58.600815	139.658037
16304		8.450368	3.930171	-1.981028	-0.598172	0.173733	0.685283	102.882516	-59.007600	139.680078
16305		7.373123	3.630559	-1.910319	-0.394670	0.027725	0.704381	102.772508	-59.406785	139.542230
16306		7.018057	3.366569	-1.450825	-0.219323	-0.149655	0.740987	102.943291	-59.803519	139.196303
16307		6.856344	3.309018	-1.296352	0.110235	-0.330981	0.797542	103.498932	-60.207173	138.625022
16308		7.311223	3.626426	-1.245947	0.372015	-0.488386	0.846498	104.389143	-60.612507	137.844260
16309		7.929388	3.687331	-1.464934	0.484510	-0.559685	0.908604	105.453330	-61.035264	136.940763
16310		8.607960	3.731731	-1.657510	0.529730	-0.621188	0.959408	106.650511	-61.467350	135.919362
16311		9.413080	3.653713	-2.082243	0.532349	-0.615779	0.988406	107.884394	-61.905849	134.861680
16312		9.981113	3.558961	-2.346839	0.566825	-0.556678	1.005233	109.120176	-62.353305	133.829134
16313		10.312289	3.732255	-2.575668	0.590074	-0.490491	0.995734	110.330620	-62.798065	132.843762
16314		10.445546	4.052062	-2.458619	0.539969	-0.401667	0.991100	111.454153	-63.249285	131.928350
16315		10.218779	4.264901	-2.174494	0.395366	-0.329728	0.979732	112.443537	-63.702025	131.073202
16316		9.918863	4.469433	-2.108286	0.246963	-0.266299	0.974191	113.310097	-64.159900	130.264231
16317		9.564963	4.463571	-1.985397	0.075917	-0.199465	0.971708	114.029666	-64.626717	129.511989
16318		9.121984	4.228849	-2.030501	-0.039305	-0.159651	0.974371	114.669506	-65.100547	128.778550
16319		8.882119	3.882870	-2.254681	-0.115185	-0.136575	0.981558	115.266268	-65.580206	128.046767
16320		8.630391	3.515086	-2.333124	-0.183424	-0.130763	1.002948	115.858326	-66.069169	127.280819
16321		8.496196	2.998186	-2.301390	-0.222106	-0.159360	1.016145	116.494240	-66.554310	126.444934
16322		8.542163	2.646874	-2.326407	-0.192094	-0.220562	1.016827	117.255589	-67.019759	125.495046
16323		8.613817	2.484347	-2.251915	-0.137794	-0.281307	1.019736	118.155238	-67.465109	124.431355
16324		8.795773	2.384333	-2.169737	-0.095714	-0.318506	1.015456	119.165007	-67.891108	123.278862
16325		8.940957	2.258797	-2.084360	-0.067302	-0.315782	1.002371	120.215769	-68.303515	122.102334
16326		9.019100	2.089048	-2.040084	-0.020658	-0.289035	0.989542	121.297053	-68.709172	120.925920
16327		9.028834	1.876634	-2.035625	0.036712	-0.267984	0.982864	122.417761	-69.109650	119.744847
16328		9.084705	1.778701	-1.947289	0.101477	-0.266876	0.968563	123.611526	-69.494971	118.529326
16329		9.159874	1.656976	-1.990846	0.158639	-0.279191	0.952814	124.879900	-69.859546	117.271249
16330		9.388327	1.687064	-2.064067	0.213723	-0.295327	0.935991	126.236070	-70.200910	115.957104
16331		9.505015	1.701157	-2.005792	0.247998	-0.247411	0.921672	127.576258	-70.541476	114.682666
16332		9.490070	1.612021	-1.990833	0.301405	-0.218831	0.896791	128.936360	-70.870973	113.423126
16333		9.503402	1.595576	-2.047314	0.367632	-0.181380	0.871197	130.297318	-71.192755	112.204341
16334		9.393689	1.575891	-2.089100	0.397035	-0.132723	0.846614	131.635487	-71.512978	111.030671
16335		9.205689	1.350954	-2.154396	0.380968	-0.097978	0.826649	132.932669	-71.829242	109.891699
16336		9.181845	1.321721	-2.195327	0.497164	-0.122227	0.812006	134.359048	-72.121482	108.689836
16337		9.208383	1.332071	-2.356038	0.466800	-0.143409	0.817228	135.836460	-72.397536	107.417072
16338		9.288080	1.056286	-2.224206	0.481643	-0.159947	0.840257	137.424496	-72.665502	106.040171
16339		9.393904	1.118940	-2.262415	0.597844	-0.150598	0.850709	139.119950	-72.929354	104.621510
16340		9.323552	1.071045	-2.047817	0.604606	-0.120812	0.850777	140.839457	-73.193865	103.184790
16341		9.215295	1.078532	-2.175553	0.632901	-0.103764	0.831666	142.566191	-73.446435	101.758381
16342		9.141898	1.234453	-2.164895	0.668441	-0.094864	0.804840	144.316915	-73.681549	100.331024
16343		8.953757	1.248422	-2.113144	0.683309	-0.094437	0.771937	146.057267	-73.893618	98.923940
16344		8.877900	1.317679	-2.034406	0.660391	-0.077776	0.741215	147.764112	-74.092211	97.540527
16345		8.839226	1.276712	-2.054784	0.658047	-0.062624	0.713884	149.434177	-74.278747	96.194251
16346		8.800754	1.290694	-2.057000	0.643286	-0.080112	0.677228	151.091551	-74.435381	94.854497
16347		8.896865	1.199426	-1.988574	0.662456	-0.094409	0.653355	152.749256	-74.567954	93.525747
16348		9.005485	1.157247	-1.922166	0.611771	-0.066507	0.629492	154.341507	-74.698476	92.236561
16349		8.996149	1.107478	-2.091040	0.581502	-0.059242	0.611890	155.890395	-74.819331	90.974160
16350		9.054034	1.065934	-2.222659	0.557617	-0.055987	0.611082	157.452133	-74.932436	89.685893
16351		9.021202	0.966705	-2.420608	0.611472	-0.075867	0.608306	159.065765	-75.025304	88.375545
16352		9.051945	1.070971	-2.407571	0.585771	-0.079828	0.610948	160.699215	-75.106551	87.030880
16353		9.057325	0.979958	-2.385516	0.556596	-0.093715	0.599580	162.307677	-75.168764	85.694320
16354		9.065263	1.002080	-2.278823	0.571744	-0.109049	0.580532	163.914725	-75.209265	84.369389
16355		9.047876	0.966134	-2.111703	0.514754	-0.119085	0.550152	165.428837	-75.230927	83.106122
16356		9.158503	0.881446	-2.260873	0.434291	-0.113777	0.513219	166.827782	-75.241690	81.915204
16357		9.298567	0.854552	-2.293214	0.411962	-0.094549	0.485104	168.138177	-75.253167	80.801852
16358		9.422675	0.955274	-2.198330	0.363987	-0.052404	0.461290	169.362557	-75.278739	79.749909
16359		9.463831	0.903383	-2.124235	0.237965	-0.004162	0.444193	170.455738	-75.325085	78.758330
16360		9.465245	0.651050	-2.117084	0.160360	-0.004474	0.425525	171.477845	-75.364242	77.795194
16361		9.521054	0.366938	-2.211073	0.143063	0.004175	0.409727	172.450482	-75.403505	76.872369
16362		9.472614	0.098411	-2.277891	0.170397	-0.000287	0.390679	173.410391	-75.434268	75.979736
16363		9.434201	-0.107210	-2.242212	0.219903	0.011443	0.384469	174.378806	-75.468265	75.107039
16364		9.338357	-0.234831	-2.174246	0.273475	0.047465	0.375996	175.364208	-75.517944	74.249377
16365		9.345174	-0.111579	-2.107133	0.313316	0.048159	0.374713	176.368175	-75.564960	73.395593
16366		9.366580	-0.004664	-2.115158	0.338143	0.045908	0.368174	177.385408	-75.606020	72.543680
16367		9.300818	0.124098	-2.208592	0.319681	0.061245	0.354089	178.357031	-75.652602	71.727385
16368		9.227737	0.048286	-2.288863	0.308365	0.061465	0.329622	179.280249	-75.694965	70.955214
16369		9.216011	0.070365	-2.283441	0.352912	0.055489	0.292355	-179.857615	-75.731540	70.271854
16370		9.246223	0.074020	-2.307109	0.372560	0.035037	0.252827	-179.062987	-75.753445	69.670529
16371		9.286889	0.071763	-2.354179	0.440099	-0.008488	0.220414	-178.310861	-75.749590	69.152326
16372		9.264836	0.332633	-2.424944	0.495016	-0.054167	0.180138	-177.615363	-75.718045	68.725641
16373		9.275955	0.377765	-2.602922	0.407496	-0.100160	0.154734	-177.041652	-75.660454	68.372144
16374		9.411692	0.359532	-2.865062	0.337345	-0.100680	0.129457	-176.561529	-75.601792	68.074306
16375		9.446925	0.357805	-2.833614	0.325499	-0.104106	0.112239	-176.136585	-75.542010	67.825725
16376		9.485123	0.413975	-2.645862	0.281381	-0.094438	0.095021	-175.769988	-75.487166	67.611838
16377		9.534533	0.134646	-2.664541	0.180491	-0.074507	0.087285	-175.482887	-75.444608	67.419709
16378		9.495713	-0.123024	-2.766220	0.165891	-0.062064	0.085152	-175.202305	-75.408130	67.226211
16379		9.550579	-0.200050	-2.566142	0.205594	-0.057000	0.090291	-174.893562	-75.374931	67.026515
16380		9.526561	-0.274225	-2.378290	0.224281	-0.014949	0.093423	-174.554314	-75.364354	66.806905
16381		9.308951	-0.314992	-2.424990	0.253917	0.002850	0.088507	-174.210786	-75.364800	66.599849
16382		9.279213	-0.327784	-2.473011	0.257236	-0.056908	0.107728	-173.831912	-75.328803	66.358771
16383		9.494117	-0.320183	-2.433112	0.298934	-0.103919	0.144282	-173.368521	-75.264179	66.054395
16384		9.659244	-0.195554	-2.176803	0.338456	-0.069009	0.166858	-172.822613	-75.216258	65.688589
16385		9.696980	-0.161755	-2.213837	0.310382	-0.001183	0.171603	-172.271264	-75.206561	65.299906
16386		9.596066	-0.296960	-2.424872	0.303492	0.024458	0.167856	-171.719457	-75.209889	64.907204
16387		9.475973	-0.494347	-2.585889	0.301664	0.029882	0.148629	-171.213110	-75.217877	64.559903
16388		9.438029	-0.535526	-2.621930	0.299250	0.050671	0.134657	-170.725365	-75.237239	64.230968
16389		9.437933	-0.507279	-2.638414	0.314589	0.057653	0.142789	-170.212834	-75.259931	63.884986
16390		9.431885	-0.408974	-2.480110	0.279971	0.079286	0.143326	-169.704263	-75.293070	63.523171
16391		9.359766	-0.461022	-2.283508	0.229295	0.125784	0.126004	-169.246236	-75.354365	63.183132
16392		9.336238	-0.587090	-2.322881	0.240632	0.121353	0.100792	-168.829719	-75.414342	62.893324
16393		9.302027	-0.750564	-2.319658	0.256039	0.092955	0.067183	-168.491787	-75.462590	62.693375
16394		9.160088	-0.731681	-2.223139	0.238173	0.035415	0.047314	-168.226236	-75.479670	62.558181
16395		9.316751	-0.784451	-2.115625	0.202878	-0.064396	0.046502	-168.032955	-75.441661	62.476222
16396		9.648789	-0.795159	-2.302419	0.308791	-0.122822	0.044000	-167.806886	-75.370257	62.423607
16397		9.584708	-0.547032	-2.472985	0.435057	-0.121081	0.034735	-167.534120	-75.301795	62.396948
16398		9.386716	-0.265634	-2.523624	0.443658	-0.130406	0.034246	-167.258039	-75.227277	62.372494
16399		9.484374	-0.238140	-2.622349	0.440932	-0.128970	0.035473	-166.986900	-75.154253	62.350982
16400		9.520496	-0.150419	-2.693930	0.500067	-0.099028	0.037454	-166.659618	-75.096770	62.306957
16401		9.451226	0.036253	-2.567919	0.516952	-0.061198	0.039504	-166.305661	-75.060904	62.244802
16402		9.463616	0.123340	-2.374412	0.467606	-0.020990	0.056171	-165.921073	-75.044130	62.122164
16403		9.519093	0.153681	-2.216551	0.429940	0.022677	0.085032	-165.479862	-75.048174	61.918085
16404		9.536581	0.210287	-2.121238	0.376996	0.056731	0.102800	-165.009297	-75.067257	61.652677
16405		9.557331	0.283613	-2.154625	0.311076	0.066592	0.114288	-164.550034	-75.090331	61.359466
16406		9.539086	0.320372	-2.189109	0.209557	0.057308	0.106137	-164.166886	-75.108263	61.085230
16407		9.553892	0.105480	-2.189959	0.059145	0.053508	0.096598	-163.894521	-75.125931	60.836102
16408		9.585861	-0.260516	-2.404931	0.005447	0.055872	0.072155	-163.698863	-75.147906	60.634836
16409		9.549124	-0.559901	-2.322252	-0.024761	0.038908	0.058803	-163.560747	-75.163202	60.474902
16410		9.513328	-0.764404	-2.387237	0.015185	-0.024526	0.083664	-163.384644	-75.138879	60.299630
16411		9.538130	-0.583308	-2.358571	0.100019	-0.069015	0.122029	-163.111697	-75.084250	60.074124
16412		9.534577	-0.487578	-2.364462	0.071886	-0.054789	0.173914	-162.739035	-75.027759	59.728954
16413		9.591433	-0.571156	-2.300992	0.030878	-0.023934	0.230513	-162.259758	-74.978319	59.248719
16414		9.648563	-0.611750	-2.261581	0.036396	-0.005720	0.278799	-161.668588	-74.928505	58.656042
16415		9.584963	-0.561272	-2.184177	0.046403	0.021093	0.316768	-160.983132	-74.885146	57.971257
16416		9.411038	-0.555501	-2.048397	0.009024	0.040098	0.344864	-160.251542	-74.843985	57.216601
16417		9.315593	-0.603120	-1.871736	-0.040071	0.017749	0.362781	-159.535249	-74.785321	56.448227
16418		9.492962	-0.798345	-1.932534	-0.019107	-0.030991	0.374072	-158.825832	-74.695299	55.699380
16419		9.677347	-0.837886	-2.296602	0.000723	-0.032256	0.378183	-158.108531	-74.601752	54.953590
16420		9.739117	-0.974041	-2.610468	0.013582	-0.024887	0.394824	-157.353416	-74.505567	54.176083
16421		9.634721	-1.097251	-2.679997	-0.003527	-0.026248	0.413038	-156.586123	-74.402247	53.375176
16422		9.565171	-1.375345	-2.735438	-0.056926	-0.031800	0.423735	-155.842851	-74.290287	52.567226
16423		9.580922	-1.639418	-2.692105	-0.035932	-0.040076	0.436037	-155.084748	-74.168682	51.755695
16424		9.598916	-1.731389	-2.623813	0.051001	-0.053731	0.468188	-154.241238	-74.028539	50.906850
16425		9.498460	-1.664485	-2.401525	0.146260	-0.053631	0.514109	-153.278376	-73.873683	49.989754
16426		9.183666	-1.551553	-2.286087	0.225787	-0.027116	0.560220	-152.182026	-73.715127	48.980626
16427		8.960932	-1.444621	-2.211734	0.244353	-0.003120	0.602123	-151.003620	-73.552258	47.895984
16428		8.987318	-1.444468	-2.319756	0.186535	-0.000522	0.644319	-149.806169	-73.371854	46.756223
16429		9.296130	-1.412382	-2.461891	0.132187	0.011355	0.696440	-148.570747	-73.175747	45.542916
16430		9.534720	-1.386827	-2.545369	0.112184	0.042551	0.710955	-147.319092	-72.982231	44.299676
16431		9.517824	-1.304700	-2.540781	0.066714	0.086385	0.670262	-146.140678	-72.815498	43.104347
16432		9.573369	-1.339427	-2.518009	0.131289	0.071927	0.580341	-145.097494	-72.663626	42.088581
16433		9.795747	-1.226114	-2.658744	0.330003	0.026176	0.481183	-144.155389	-72.518696	41.297002
16434		9.996758	-0.833153	-2.895555	0.494175	-0.031483	0.387858	-143.329912	-72.374523	40.725981
16435		10.092370	-0.601004	-3.025611	0.496374	-0.046341	0.309151	-142.643721	-72.249040	40.301847
16436		9.995651	-0.467793	-3.030176	0.387965	-0.067954	0.254976	-142.126331	-72.130819	39.989606
16437		9.939951	-0.434372	-3.106471	0.258029	-0.111086	0.220418	-141.783981	-72.005153	39.782753
16438		9.988114	-0.661295	-3.246143	0.189051	-0.140841	0.223365	-141.513540	-71.864292	39.609835
16439		9.969911	-0.890094	-3.164036	0.195547	-0.105638	0.255761	-141.160255	-71.727732	39.353465
16440		9.827436	-1.225436	-2.909572	0.197389	-0.026986	0.302106	-140.663986	-71.608431	38.947325
16441		9.759286	-1.495085	-2.497963	0.172025	0.050042	0.349513	-140.039956	-71.504921	38.390989
16442		9.875356	-1.488207	-2.241394	0.077036	0.083978	0.387302	-139.391784	-71.399969	37.751330
16443		10.080220	-1.438570	-2.128017	-0.049768	0.099823	0.373901	-138.821187	-71.305071	37.116603
16444		10.220038	-1.442720	-2.036409	-0.111185	0.158964	0.322646	-138.291454	-71.252873	36.487441
16445		10.214153	-1.424709	-1.989532	-0.061520	0.186649	0.239494	-137.807204	-71.242726	35.936399
16446		10.085933	-1.266651	-1.964438	0.000378	0.145947	0.161494	-137.433132	-71.244128	35.538961
16447		10.074413	-1.043096	-2.246789	-0.010642	0.048343	0.092074	-137.261379	-71.230759	35.348708
16448		10.150396	-1.031452	-2.729195	-0.082396	-0.036493	0.054499	-137.276530	-71.196367	35.312173
16449		10.283364	-1.245323	-3.163406	-0.133657	-0.118749	0.028449	-137.444738	-71.137279	35.406560
16450		10.406547	-1.406991	-3.482997	-0.095645	-0.160717	0.010816	-137.662046	-71.067402	35.575573
16451		10.540991	-1.636968	-3.469074	-0.048074	-0.171090	0.000314	-137.872686	-70.996730	35.766756
16452		10.709096	-1.893031	-3.296057	0.023428	-0.153996	-0.004912	-138.031635	-70.935364	35.946273
16453		10.815795	-2.079277	-3.038575	0.088788	-0.120141	-0.025361	-138.136813	-70.895899	36.108971
16454		10.975694	-2.185093	-2.805104	0.125559	-0.085833	-0.064236	-138.234060	-70.886066	36.285163
16455		11.243513	-2.097061	-2.612887	0.176081	-0.046387	-0.123773	-138.329034	-70.915483	36.490006
16456		11.384925	-2.138847	-2.351187	0.212608	0.015249	-0.183717	-138.413765	-70.994286	36.705636
16457		11.498475	-2.093958	-2.087654	0.209781	0.052496	-0.241341	-138.528861	-71.110555	36.951981
16458		11.573852	-2.064609	-1.947181	0.223968	0.136654	-0.288938	-138.608170	-71.281288	37.168441
16459		11.357523	-1.938309	-1.648115	0.313759	0.239975	-0.347204	-138.593271	-71.518064	37.339979
16460		10.953813	-1.654313	-1.571946	0.452388	0.226713	-0.386144	-138.569966	-71.764499	37.585652
16461		10.667156	-1.429357	-1.693670	0.528745	0.134261	-0.387538	-138.611534	-71.971143	37.945755
16462		10.427353	-1.360371	-1.662885	0.550492	0.092670	-0.364858	-138.667078	-72.151984	38.332778
16463		9.988469	-1.315294	-1.461229	0.547410	0.108231	-0.362281	-138.703592	-72.337687	38.698039
16464		9.608027	-1.164539	-1.206077	0.526630	0.149266	-0.387833	-138.745909	-72.551576	39.055997
16465		9.332333	-0.949051	-0.937107	0.473193	0.228641	-0.449354	-138.809907	-72.821867	39.404616
16466		9.066457	-0.717089	-0.926752	0.429379	0.311976	-0.545885	-138.944061	-73.165462	39.799254
16467		9.038043	-0.394306	-0.946497	0.395046	0.350552	-0.654303	-139.215873	-73.564900	40.316773
16468		9.210833	-0.077528	-1.074421	0.307437	0.375924	-0.755052	-139.682721	-74.013322	40.983446
16469		9.313426	-0.067295	-1.270008	0.168359	0.420692	-0.848162	-140.347764	-74.512462	41.772217
16470		9.311742	-0.127565	-1.596315	0.031429	0.456353	-0.927187	-141.229489	-75.054718	42.701636
16471		9.280547	-0.359186	-1.976392	-0.063389	0.483425	-1.008843	-142.336142	-75.632232	43.805582
16472		9.239283	-0.490659	-2.299372	-0.106954	0.507134	-1.083756	-143.673916	-76.242010	45.118465
16473		9.177184	-0.746910	-2.545994	-0.070397	0.505432	-1.154717	-145.250292	-76.864707	46.695413
16474		9.204031	-1.022506	-2.663269	0.047209	0.440845	-1.202596	-147.114109	-77.462212	48.631678
16475		9.477173	-1.281146	-2.642898	0.189960	0.363103	-1.235248	-149.255678	-78.014866	50.932232
16476		9.868598	-1.429322	-2.420394	0.309857	0.316026	-1.245712	-151.635313	-78.528602	53.540878
16477		10.218098	-1.412084	-2.062776	0.362567	0.325913	-1.233025	-154.155185	-79.019756	56.319307
16478		10.442797	-1.261352	-1.598924	0.369845	0.360420	-1.215725	-156.831175	-79.500761	59.255685
16479		10.627806	-1.071941	-1.315761	0.318062	0.391372	-1.183871	-159.655761	-79.963780	62.309067
16480		10.639937	-0.733567	-1.148396	0.289574	0.406620	-1.171013	-162.725931	-80.404910	65.590261
16481		10.602416	-0.159861	-0.931202	0.251970	0.427464	-1.185229	-166.130873	-80.826776	69.185336
16482		10.370991	0.402844	-0.807026	0.197547	0.443761	-1.203489	-169.957657	-81.222825	73.171182
16483		10.042773	0.861170	-0.753907	0.110322	0.386959	-1.209300	-174.212569	-81.541779	77.536227
16484		9.839616	0.979242	-0.868914	-0.055926	0.305934	-1.228516	-178.970082	-81.763119	82.309297
16485		9.773672	0.622298	-1.161099	-0.198761	0.256719	-1.267565	175.836379	-81.894392	87.438661
16486		9.692168	0.293083	-1.422612	-0.241091	0.265755	-1.327584	170.230609	-81.957543	92.957986
16487		9.431891	0.231081	-1.447441	-0.280420	0.230003	-1.391729	164.372986	-81.914891	98.709416
16488		9.389076	0.227142	-1.726184	-0.410432	0.141970	-1.430372	158.528715	-81.734888	104.373047
16489		9.679723	0.163024	-2.362492	-0.540587	0.093340	-1.409956	153.076272	-81.456387	109.569167
16490		9.988691	0.266650	-3.008501	-0.660684	0.150767	-1.349756	147.994616	-81.154198	114.323943
16491		9.987134	0.552463	-3.239310	-0.801604	0.259011	-1.260521	143.226114	-80.872519	118.684321
16492		9.730008	0.751943	-2.758807	-0.905189	0.302802	-1.151660	138.871541	-80.595069	122.568071
16493		9.512773	0.662737	-1.890057	-0.883413	0.224821	-1.063742	135.184504	-80.277521	125.791415
16494		9.443088	0.364694	-0.985601	-0.688179	0.103040	-1.027529	132.197921	-79.894650	128.420179
16495		9.391323	0.205965	-0.370509	-0.466396	0.003832	-1.051698	129.740120	-79.444587	130.644488
16496		9.459977	0.321707	-0.453267	-0.395026	-0.053819	-1.108984	127.542126	-78.930995	132.648987
16497		9.714548	0.799962	-1.088475	-0.593330	-0.053696	-1.174095	125.320487	-78.374798	134.565813
16498		10.030870	1.210120	-1.606399	-0.989860	0.053581	-1.234254	122.737021	-77.807748	136.623684
16499		10.029637	1.525211	-1.708719	-1.317529	0.176184	-1.277274	119.859662	-77.237930	138.795096
16500		9.737659	1.671904	-1.467425	-1.411068	0.202546	-1.289160	117.075332	-76.645480	140.820625
16501		9.473581	1.481250	-1.181596	-1.306222	0.152331	-1.295803	114.657458	-76.018330	142.536340
16502		9.330503	1.303090	-1.188854	-1.072183	0.089706	-1.308874	112.662310	-75.353428	143.958683
16503		9.206087	1.304929	-1.155821	-0.860477	0.042073	-1.328048	111.014785	-74.658731	145.151477
16504		9.228088	1.432604	-1.003506	-0.748436	0.015276	-1.359926	109.579942	-73.932278	146.193816
16505		9.263445	1.667065	-0.801705	-0.700468	0.004260	-1.374054	108.291405	-73.190893	147.116406
16506		9.307118	1.842734	-0.940599	-0.707507	-0.004444	-1.381653	107.101460	-72.437253	147.934976
16507		9.503226	2.029455	-1.105306	-0.726867	0.007757	-1.391736	105.958420	-71.676428	148.696260
16508		9.645904	2.175128	-1.132940	-0.754166	0.041581	-1.401813	104.815783	-70.909655	149.443770
16509		9.710053	2.314305	-0.922571	-0.751917	0.084986	-1.391520	103.684146	-70.151115	150.184637
16510		9.681832	2.508220	-0.869056	-0.715529	0.087507	-1.380760	102.640381	-69.393500	150.857466
16511		9.642811	2.614769	-0.908074	-0.712536	0.076315	-1.376968	101.675917	-68.633561	151.450717
16512		9.582510	2.598166	-0.948884	-0.707886	0.079444	-1.370916	100.763604	-67.873280	151.993659
16513		9.489516	2.673637	-1.035100	-0.661828	0.082908	-1.359234	99.923038	-67.117670	152.490554
16514		9.441167	2.797219	-0.885925	-0.615165	0.092448	-1.354358	99.139220	-66.362549	152.957494
16515		9.224930	2.903492	-0.590434	-0.519088	0.101400	-1.336008	98.439743	-65.616831	153.395114
16516		8.969318	3.068107	-0.338270	-0.418514	0.081480	-1.325347	97.856034	-64.873211	153.771274
16517		8.720259	3.203024	-0.313570	-0.351596	0.070573	-1.319088	97.350759	-64.131241	154.105333
16518		8.465026	3.403974	-0.297314	-0.318324	0.069401	-1.314283	96.889094	-63.390491	154.414111
16519		8.372390	3.741314	-0.195638	-0.303021	0.057976	-1.324053	96.467731	-62.642632	154.689537
16520		8.396959	4.009761	-0.144724	-0.257263	0.039151	-1.332122	96.109413	-61.888011	154.925205
16521		8.560370	4.360158	-0.193599	-0.243653	0.004614	-1.336926	95.809192	-61.128133	155.105341
16522		8.775044	4.614936	-0.356381	-0.275015	0.010449	-1.331291	95.497628	-60.371246	155.279148
16523		8.837376	4.810494	-0.488242	-0.316363	0.043017	-1.321477	95.143411	-59.621312	155.476209
16524		8.898056	4.889530	-0.552002	-0.398971	0.081898	-1.304938	94.719370	-58.882014	155.700895
16525		8.880207	4.816328	-0.526247	-0.450238	0.127750	-1.307076	94.238252	-58.142730	155.959877
16526		8.712561	4.621465	-0.450922	-0.462918	0.155203	-1.298265	93.741711	-57.408445	156.230547
16527		8.516201	4.509075	-0.468609	-0.454894	0.151470	-1.284422	93.269816	-56.680757	156.479575
16528		8.273279	4.482494	-0.459253	-0.434289	0.149475	-1.262859	92.826776	-55.964400	156.710182
16529		7.979545	4.468526	-0.331936	-0.397727	0.150950	-1.233473	92.417453	-55.263857	156.927257
16530		7.682814	4.395650	-0.151724	-0.399354	0.165363	-1.193802	92.008380	-54.585725	157.144733
16531		7.411024	4.285132	-0.128286	-0.371233	0.152757	-1.165074	91.636947	-53.922743	157.337476
16532		7.328209	4.365552	-0.036060	-0.248972	0.097461	-1.139326	91.387643	-53.273432	157.467167
16533		7.494896	4.579827	0.003413	-0.110860	0.008227	-1.116671	91.290610	-52.635313	157.506281
16534		7.841697	4.841834	-0.055625	-0.018483	-0.022035	-1.097545	91.270795	-52.008223	157.515072
16535		7.999883	5.141480	0.055237	-0.013028	0.002567	-1.061454	91.237375	-51.401629	157.545220
16536		7.946709	5.228208	0.163312	-0.083235	0.049794	-1.006739	91.132341	-50.827535	157.615970
16537		7.826145	5.233563	0.162041	-0.153472	0.117947	-0.955761	90.943181	-50.282619	157.744080
16538		7.555709	5.267196	0.303341	-0.163238	0.144498	-0.894778	90.734867	-49.773337	157.890867
16539		7.310344	5.219303	0.377798	-0.142290	0.131603	-0.838608	90.551743	-49.295081	158.021391
16540		7.077941	5.127190	0.104497	-0.115721	0.102630	-0.763285	90.406367	-48.860464	158.122950
16541		6.868297	5.034266	-0.121042	-0.098990	0.074454	-0.680017	90.291696	-48.472445	158.197076
16542		6.688594	4.868215	-0.207778	-0.115700	0.070604	-0.573900	90.171576	-48.146084	158.266035
16543		6.532639	4.700523	-0.242532	-0.116434	0.091662	-0.459297	90.039307	-47.884341	158.351144
16544		6.406806	4.825786	-0.027727	-0.093171	0.103409	-0.350067	89.913908	-47.686135	158.445271
16545		6.364619	5.132620	0.353578	-0.080416	0.089375	-0.247581	89.805497	-47.545457	158.526558
16546		6.310820	5.316970	0.513197	-0.078589	0.085423	-0.173070	89.700733	-47.448542	158.604443
16547		6.156781	5.424577	0.377188	0.005358	0.054333	-0.120084	89.663766	-47.380856	158.655704
16548		6.120241	5.516195	0.164863	0.096831	-0.036093	-0.070191	89.735067	-47.343227	158.630986
16549		6.232042	5.658906	-0.006084	0.151069	-0.133851	-0.018876	89.898316	-47.333955	158.523574
16550		6.463382	5.523887	-0.298907	0.212913	-0.251276	0.051273	90.169757	-47.365749	158.317164
16551		6.590714	5.427355	-0.446756	0.279515	-0.273239	0.134147	90.494104	-47.443034	158.090999
16552		6.339558	5.211276	-0.644086	0.277617	-0.244267	0.212193	90.800639	-47.565614	157.887855
16553		6.121272	5.249630	-1.142342	0.263073	-0.254722	0.258206	91.107516	-47.712480	157.673431
16554		6.238738	5.609232	-1.067036	0.232923	-0.257006	0.278628	91.400529	-47.871531	157.455039
16555		6.231458	6.293178	-0.817736	0.236127	-0.270451	0.286460	91.705886	-48.032817	157.222932
16556		6.366463	7.146511	-0.776103	0.261116	-0.378227	0.279102	92.096444	-48.188117	156.896427
16557		6.580963	7.806358	-0.463150	0.269863	-0.502174	0.269826	92.573704	-48.332335	156.460964
16558		6.712815	8.111245	0.069270	0.191691	-0.565841	0.277555	93.050743	-48.477791	155.967173
16559		6.709731	8.094361	0.263460	0.042691	-0.594925	0.288694	93.464548	-48.625096	155.444676
16560		6.832469	7.717372	0.162421	-0.226892	-0.532472	0.302514	93.686989	-48.781389	154.972704
16561		6.902008	7.217574	0.077867	-0.545478	-0.416293	0.332633	93.654300	-48.957873	154.598122
16562		6.866769	6.809647	0.015987	-0.822380	-0.340230	0.383487	93.416371	-49.167318	154.286392
16563		6.863001	6.357069	-0.048371	-1.029823	-0.289498	0.460530	93.029300	-49.422968	154.015618
16564		6.806527	5.756975	0.066433	-1.032403	-0.272192	0.545654	92.631913	-49.729559	153.757616
16565		6.620622	5.263591	0.116026	-0.811904	-0.322311	0.633576	92.397905	-50.085600	153.452425
16566		6.409046	5.115201	0.313203	-0.504942	-0.409002	0.712854	92.404014	-50.485886	153.065391
16567		6.294056	5.143651	0.520628	-0.268558	-0.485577	0.792786	92.607064	-50.929007	152.601244
16568		6.124993	5.131070	0.425227	-0.138939	-0.563078	0.882086	92.951007	-51.420234	152.054546
16569		6.147514	5.017282	0.294177	-0.128498	-0.601105	0.979390	93.344529	-51.963155	151.456302
16570		6.402654	5.272208	-0.202060	-0.085926	-0.614826	1.059718	93.790674	-52.549335	150.826790
16571		6.753427	6.435830	-0.192112	0.079771	-0.690272	1.100245	94.409196	-53.151438	150.105265
16572		7.263596	8.106857	-0.277120	0.364276	-0.935096	0.986095	95.394214	-53.670690	149.135418
16573		9.146886	9.903925	-0.632346	0.839816	-1.369402	0.690278	96.993134	-53.980976	147.747949
16574		11.817625	10.418649	-2.088162	0.891774	-1.591589	0.390760	98.783230	-54.079555	146.164409
16575		14.279552	8.962330	-1.783869	0.414175	-1.153705	0.203745	99.939908	-54.089145	145.026399
16576		13.514688	7.368045	0.905113	-0.290592	-0.295163	0.201401	100.023734	-54.175525	144.714483
16577		10.924264	5.340916	0.317336	-1.158747	0.150469	0.339732	99.279634	-54.383826	144.810423
16578		8.667740	3.811170	-0.639760	-1.504309	0.369039	0.530386	98.180701	-54.718558	145.098189
16579		6.827702	3.112537	-0.246251	-0.922943	0.161301	0.648547	97.586552	-55.101148	145.175237
16580		6.304199	3.033482	-1.201338	-0.206917	-0.136274	0.704711	97.648560	-55.493434	144.952458
16581		5.925228	3.400815	-1.590072	0.304749	-0.388729	0.792610	98.230827	-55.914292	144.456236
16582		6.213332	4.049981	-1.927926	0.843600	-0.758031	0.926104	99.467239	-56.374402	143.546455
16583		7.364616	4.911408	-2.113306	1.275638	-0.990492	1.059349	101.203095	-56.871717	142.340292
16584		8.673914	6.026295	-1.406174	1.331051	-1.024995	1.132573	103.057282	-57.385549	141.037929
16585		10.222318	7.139934	-1.148376	1.031042	-0.993235	1.154412	104.762939	-57.893020	139.715355
16586		11.704206	8.263495	-0.542734	0.306978	-0.805974	1.109111	105.917893	-58.386609	138.559880
16587		12.571641	7.975202	-1.075872	-0.460718	-0.519428	1.011074	106.379032	-58.862645	137.707901
16588		12.451974	6.308189	-1.852290	-0.931520	-0.199356	0.874903	106.255052	-59.314540	137.227448
16589		11.010496	4.602740	-2.349519	-1.099440	0.112512	0.763727	105.716526	-59.755296	137.118735
16590		9.043329	3.459942	-2.401441	-0.971093	0.201200	0.706987	105.145667	-60.179414	137.132653
16591		7.685859	2.778074	-2.101053	-0.618032	0.106176	0.714380	104.866252	-60.592800	137.044099
16592		6.868216	2.612517	-1.723459	-0.287170	-0.083879	0.769338	104.979401	-61.009443	136.723385
16593		6.658765	2.587959	-1.708330	0.057574	-0.337972	0.858802	105.580016	-61.435382	136.073162
16594		6.965055	2.642787	-1.740033	0.252247	-0.528187	0.970290	106.540665	-61.889153	135.143464
16595		7.451220	2.993949	-1.936989	0.363587	-0.647631	1.063449	107.750415	-62.364429	134.008032
16596		8.458591	3.202613	-2.084946	0.366418	-0.695625	1.113262	109.070836	-62.847223	132.754983
16597		9.360417	3.431250	-2.258319	0.359773	-0.648106	1.120013	110.383651	-63.328526	131.511345
16598		10.124575	3.440915	-2.394726	0.317953	-0.537592	1.066990	111.576756	-63.792722	130.380134
16599		10.592831	3.481868	-2.424336	0.320942	-0.418295	0.980625	112.641093	-64.225771	129.398081
16600		10.654656	3.450924	-2.532268	0.265822	-0.307511	0.892679	113.544080	-64.631021	128.563798
16601		10.335674	3.398049	-2.435493	0.205416	-0.220900	0.838600	114.313763	-65.021670	127.840858
16602		9.715422	3.430736	-2.257244	0.178530	-0.186968	0.814999	115.042133	-65.405284	127.149261
16603		9.240554	3.521944	-2.070797	0.143572	-0.194117	0.823288	115.783100	-65.786501	126.423415
16604		8.790000	3.326267	-1.842075	0.089089	-0.169351	0.849620	116.504381	-66.184847	125.687734
16605		8.431468	3.165760	-1.895998	0.088258	-0.158537	0.876942	117.251040	-66.594910	124.925555
16606		8.264039	2.806484	-2.001611	0.093590	-0.170187	0.902448	118.059680	-67.011802	124.102229
16607		8.400219	2.599875	-2.035691	0.186872	-0.212047	0.924846	119.014573	-67.422323	123.180182
16608		8.582241	2.362350	-2.157978	0.230116	-0.232091	0.934617	120.062503	-67.826896	122.187660
16609		8.766760	2.457770	-2.058558	0.279522	-0.244916	0.933090	121.187722	-68.218609	121.144509
16610		8.965189	2.429277	-2.094374	0.317889	-0.252105	0.911700	122.369255	-68.590942	120.067876
16611		9.088715	2.551553	-1.983071	0.325546	-0.236485	0.871734	123.538654	-68.939595	119.010956
16612		9.071832	2.419677	-1.773160	0.319185	-0.208935	0.834464	124.678143	-69.272769	117.985256
16613		8.987489	2.351359	-1.915709	0.343098	-0.182499	0.793519	125.792447	-69.587148	117.002594
16614		8.946422	2.305388	-2.031344	0.353707	-0.168439	0.773880	126.912697	-69.891578	116.022738
16615		8.949924	2.082036	-2.164170	0.365747	-0.190132	0.777873	128.098533	-70.182260	114.981615
16616		9.114687	2.106687	-2.138589	0.402412	-0.238775	0.789000	129.414065	-70.453744	113.827612
16617		9.326941	2.096532	-2.060751	0.424432	-0.283326	0.807081	130.846308	-70.706227	112.564397
16618		9.672548	2.112652	-1.913592	0.417076	-0.287394	0.827678	132.341350	-70.956253	111.232901
16619		9.910882	2.137782	-1.914400	0.346513	-0.227457	0.844436	133.774093	-71.224451	109.925873
16620		9.751507	2.005849	-1.750725	0.277484	-0.138510	0.865546	135.128515	-71.527657	108.662687
16621		9.495850	2.034780	-1.906591	0.244167	-0.089157	0.867431	136.444461	-71.841370	107.421476
16622		9.232932	1.922596	-1.989377	0.229982	-0.103823	0.865099	137.815455	-72.139838	106.116703
16623		9.041571	1.878780	-1.984338	0.226261	-0.134121	0.853456	139.243331	-72.409920	104.751365
16624		8.879474	1.681121	-2.082128	0.171620	-0.168924	0.841560	140.710687	-72.650758	103.314431
16625		8.927009	1.620510	-2.110366	0.122334	-0.190221	0.830189	142.191452	-72.865855	101.834991
16626		8.958130	1.261857	-2.212061	0.089953	-0.164022	0.814908	143.642962	-73.077282	100.369123
16627		8.893800	1.078913	-2.191644	0.109941	-0.130636	0.812367	145.095737	-73.291574	98.914873
16628		8.850905	0.839529	-2.231327	0.127992	-0.133932	0.792571	146.572852	-73.487974	97.448275
16629		8.964292	0.735399	-2.349242	0.179477	-0.169480	0.776831	148.118390	-73.650406	95.941762
16630		9.118918	0.566536	-2.518431	0.156708	-0.165339	0.767422	149.666340	-73.801330	94.421081
16631		9.182083	0.423524	-2.571960	0.209987	-0.162955	0.761205	151.252880	-73.939212	92.892392
16632		9.119113	0.323344	-2.391713	0.293542	-0.164781	0.747290	152.896874	-74.061136	91.355509
16633		9.017849	0.283406	-2.271034	0.397026	-0.168611	0.707549	154.547252	-74.158106	89.873700
16634		8.965966	0.332094	-2.197551	0.462237	-0.149978	0.678485	156.191286	-74.246804	88.438806
16635		8.934262	0.435143	-2.434017	0.531169	-0.153185	0.637759	157.809060	-74.312924	87.071956
16636		9.013244	0.610381	-2.632644	0.581051	-0.188156	0.601372	159.430473	-74.342884	85.732172
16637		9.165093	0.814287	-2.497696	0.599211	-0.209516	0.569889	161.012443	-74.344556	84.443420
16638		9.164021	0.828332	-2.484682	0.585385	-0.205477	0.545714	162.544339	-74.335123	83.199274
16639		9.183432	0.751744	-2.296752	0.582444	-0.176536	0.521709	164.000617	-74.328433	82.031010
16640		8.950172	0.790549	-2.066144	0.594259	-0.138449	0.491700	165.390858	-74.330812	80.939198
16641		8.870969	0.739896	-2.293781	0.576671	-0.147289	0.467300	166.718566	-74.317566	79.900993
16642		8.941464	0.874785	-2.497540	0.589602	-0.172281	0.448050	168.031352	-74.281813	78.886689
16643		9.055715	0.870763	-2.644642	0.606616	-0.191961	0.431923	169.315699	-74.226684	77.911004
16644		9.245698	1.019746	-2.601816	0.545596	-0.172873	0.409047	170.512485	-74.174553	76.990539
16645		9.314514	0.879123	-2.531224	0.493772	-0.121982	0.386429	171.604642	-74.144012	76.146965
16646		9.322064	0.751769	-2.544999	0.475519	-0.084856	0.351805	172.610788	-74.127782	75.382620
16647		9.320183	0.745911	-2.482942	0.418514	-0.057530	0.324005	173.513180	-74.121547	74.691361
16648		9.280485	0.585283	-2.528793	0.354174	-0.057996	0.304381	174.345710	-74.111130	74.035135
16649		9.278929	0.429551	-2.639913	0.347499	-0.059113	0.285160	175.128038	-74.096427	73.426335
16650		9.309931	0.489488	-2.804326	0.387392	-0.043971	0.280059	175.926192	-74.087942	72.825546
16651		9.308958	0.632495	-2.671438	0.402305	-0.019479	0.270346	176.702886	-74.090769	72.255213
16652		9.318904	0.655157	-2.462115	0.370943	0.013146	0.248661	177.421714	-74.109632	71.727106
16653		9.298856	0.677963	-2.348643	0.297541	0.042661	0.226262	178.046101	-74.143163	71.252818
16654		9.276859	0.690366	-2.487307	0.246389	0.008533	0.200890	178.600140	-74.155430	70.821916
16655		9.352746	0.718961	-2.642710	0.191369	-0.034824	0.176969	179.070281	-74.141501	70.444786
16656		9.272048	0.556820	-2.580359	0.112227	-0.078777	0.149503	179.445742	-74.101456	70.119528
16657		9.287914	0.221549	-2.722300	0.075952	-0.092508	0.111367	179.716476	-74.052862	69.880860
16658		9.413295	0.094370	-2.656084	0.124670	-0.086568	0.085447	179.967305	-74.007347	69.692481
16659		9.591526	-0.042382	-3.129672	0.206226	-0.054300	0.080459	-179.751736	-73.980078	69.520729
16660		9.526540	-0.231882	-3.358177	0.338564	-0.046355	0.049731	-179.451357	-73.957227	69.408247
16661		9.352745	-0.537041	-2.707582	0.139598	-0.003201	0.041368	-179.286601	-73.959050	69.317653
16662		9.009320	-0.488958	-2.094331	0.269161	-0.009072	0.071347	-178.982404	-73.957083	69.159836
16663		9.196475	-0.397221	-2.417333	0.379803	-0.080072	0.099936	-178.566854	-73.913894	68.951466
16664		9.541428	-0.275981	-2.653892	0.456019	-0.118093	0.094475	-178.116745	-73.848559	68.753159
16665		9.809904	-0.062823	-2.965401	0.472115	-0.077547	0.085718	-177.679904	-73.806237	68.577578
16666		9.861121	0.110331	-2.819811	0.477602	-0.014297	0.101348	-177.199295	-73.799290	68.360308
16667		9.538067	0.036903	-2.639490	0.484604	0.024267	0.110123	-176.699193	-73.813673	68.126285
16668		9.410351	0.037997	-2.507351	0.479308	0.024744	0.118286	-176.179791	-73.827417	67.869640
16669		9.447619	-0.034997	-2.785643	0.470192	0.019581	0.146077	-175.616491	-73.836449	67.561250
16670		9.550547	-0.154532	-2.896348	0.417682	0.062918	0.156150	-175.050315	-73.868868	67.219176
16671		9.504487	-0.222358	-2.921204	0.366953	0.134465	0.144124	-174.527331	-73.941889	66.891296
16672		9.350048	-0.190764	-2.715116	0.333388	0.174901	0.107076	-174.079885	-74.039218	66.622725
16673		9.165418	-0.126307	-2.447316	0.260813	0.161219	0.070832	-173.750846	-74.130539	66.433578
16674		9.195083	-0.248359	-2.287237	0.199739	0.077934	0.049551	-173.510385	-74.175447	66.300770
16675		9.320410	-0.407257	-2.361865	0.173150	-0.020619	0.052079	-173.307528	-74.164042	66.190650
16676		9.474686	-0.393082	-2.562693	0.194673	-0.070057	0.079781	-173.043744	-74.122452	66.030565
16677		9.501019	-0.359204	-2.545944	0.236309	-0.061836	0.096585	-172.726957	-74.084181	65.839575
16678		9.431825	-0.429619	-2.557585	0.228072	-0.018743	0.093991	-172.404654	-74.070248	65.638480
16679		9.369115	-0.466458	-2.753173	0.207318	0.013546	0.090173	-172.098696	-74.074692	65.441449
16680		9.378902	-0.559963	-2.944724	0.214312	0.023112	0.091203	-171.778554	-74.084127	65.234405
16681		9.459194	-0.592239	-2.981335	0.240200	0.054658	0.107785	-171.406158	-74.109776	64.987905
16682		9.423770	-0.596353	-2.761624	0.266563	0.107844	0.121882	-170.967578	-74.163712	64.688923
16683		9.344653	-0.492742	-2.609318	0.314600	0.156377	0.137692	-170.456483	-74.243071	64.342713
16684		9.304309	-0.378766	-2.559613	0.330881	0.165740	0.150151	-169.898035	-74.325480	63.957707
16685		9.325488	-0.325361	-2.540574	0.265816	0.153444	0.152226	-169.377878	-74.399907	63.573331
16686		9.293770	-0.499013	-2.441834	0.176508	0.114587	0.151599	-168.916054	-74.451498	63.197062
16687		9.486063	-0.584070	-2.482956	0.137777	0.065902	0.143305	-168.515801	-74.476061	62.861182
16688		9.596043	-0.588523	-2.458021	0.185589	0.038422	0.134758	-168.110639	-74.485412	62.549214
16689		9.652317	-0.448191	-2.384015	0.294865	0.006665	0.127961	-167.675353	-74.477338	62.270416
16690		9.523649	-0.118023	-2.409523	0.339137	-0.012444	0.122659	-167.229173	-74.458523	62.007157
16691		9.411107	-0.052953	-2.478400	0.314719	-0.008501	0.127361	-166.791786	-74.440912	61.737943
16692		9.310785	-0.062679	-2.503670	0.250865	-0.002400	0.127307	-166.383994	-74.426053	61.461958
16693		9.321233	-0.061238	-2.417519	0.198119	0.018869	0.138975	-165.978198	-74.421037	61.156150
16694		9.479857	-0.084160	-2.573597	0.165941	0.023027	0.165581	-165.531372	-74.413856	60.789073
16695		9.646443	-0.037785	-2.851560	0.118694	0.031581	0.195088	-165.053581	-74.406450	60.361255
16696		9.597332	-0.114932	-3.023602	0.042540	0.068766	0.200608	-164.584364	-74.417703	59.897485
16697		9.472933	-0.272697	-2.828399	-0.019921	0.092954	0.194026	-164.154020	-74.442472	59.436517
16698		9.367557	-0.354869	-2.540448	-0.070944	0.077881	0.186747	-163.770672	-74.459047	58.994445
16699		9.349863	-0.399972	-2.378002	-0.115341	0.064828	0.183246	-163.430513	-74.468439	58.570414
16700		9.280847	-0.435809	-2.366944	-0.146257	0.046606	0.181191	-163.118855	-74.467360	58.157976
16701		9.281164	-0.497894	-2.339571	-0.153379	0.020247	0.186542	-162.820684	-74.450525	57.754894
16702		9.330335	-0.533304	-2.333752	-0.135243	-0.003191	0.189632	-162.517746	-74.419624	57.357975
16703		9.448411	-0.643910	-2.377970	-0.076022	-0.026974	0.203799	-162.173216	-74.372833	56.952656
16704		9.515786	-0.718991	-2.467121	0.004510	-0.019744	0.210214	-161.764311	-74.327987	56.528668
16705		9.463934	-0.798363	-2.462897	0.056637	-0.005565	0.210730	-161.321192	-74.290051	56.099722
16706		9.392563	-0.761502	-2.467536	0.103008	-0.007780	0.218463	-160.836880	-74.248397	55.655849
16707		9.410651	-0.708539	-2.557213	0.130848	-0.013621	0.224974	-160.334042	-74.201462	55.208852
16708		9.459898	-0.577607	-2.612485	0.141719	-0.005476	0.219542	-159.829159	-74.158757	54.766448
16709		9.408431	-0.610954	-2.631777	0.146713	-0.007226	0.202441	-159.360717	-74.117664	54.364467
16710		9.308216	-0.590197	-2.552527	0.140624	-0.021138	0.177032	-158.952600	-74.073302	54.021823
16711		9.336993	-0.612364	-2.417988	0.114697	-0.044460	0.162373	-158.608804	-74.019074	53.730218
16712		9.384883	-0.636853	-2.363697	0.068608	-0.053812	0.159069	-158.303661	-73.959952	53.451576
16713		9.429316	-0.819092	-2.377817	0.032279	-0.045383	0.163241	-158.010331	-73.904179	53.163180
16714		9.452839	-0.978028	-2.534065	0.046774	-0.035634	0.180747	-157.668623	-73.849223	52.833281
16715		9.505930	-1.124464	-2.682912	0.067042	-0.034137	0.205809	-157.273588	-73.789105	52.459560
16716		9.460053	-1.230814	-2.751525	0.096300	-0.034178	0.235980	-156.807574	-73.721294	52.029538
16717		9.445546	-1.278814	-2.746869	0.127547	-0.029764	0.267164	-156.270808	-73.647792	51.544005
16718		9.387196	-1.166423	-2.549678	0.187683	-0.033239	0.287727	-155.667961	-73.566132	51.025609
16719		9.330567	-0.973586	-2.547186	0.249740	-0.032400	0.291501	-155.030506	-73.482625	50.507686
16720		9.286822	-0.744607	-2.499522	0.270169	-0.036762	0.280046	-154.408136	-73.397850	50.017778
16721		9.271938	-0.579180	-2.434999	0.249423	-0.050072	0.267358	-153.838763	-73.308147	49.570265
16722		9.387703	-0.411917	-2.341789	0.217951	-0.072812	0.259318	-153.323547	-73.207437	49.160516
16723		9.534318	-0.245311	-2.206725	0.175996	-0.101093	0.265363	-152.854214	-73.089884	48.773092
16724		9.584682	-0.169970	-2.340679	0.092545	-0.104045	0.277562	-152.418829	-72.966628	48.371140
16725		9.472540	-0.324489	-2.659691	-0.064896	-0.043690	0.270281	-152.040547	-72.875193	47.934108
16726		9.222943	-0.850535	-2.855389	-0.219010	0.011885	0.269158	-151.706162	-72.811306	47.450585
16727		9.249223	-1.260079	-2.865116	-0.266590	0.008982	0.282816	-151.383966	-72.741454	46.950944
16728		9.380175	-1.559857	-2.799546	-0.232253	0.002421	0.291734	-151.035726	-72.664918	46.444581
16729		9.436466	-1.756612	-2.705917	-0.161299	0.021551	0.284231	-150.646716	-72.599148	45.937751
16730		9.335580	-1.902421	-2.621017	-0.066202	0.024905	0.269034	-150.226391	-72.538174	45.455190
16731		9.362366	-1.896806	-2.652724	0.047730	-0.000273	0.264256	-149.775831	-72.465086	45.009038
16732		9.432634	-1.844081	-2.632670	0.141147	-0.025327	0.266609	-149.293612	-72.377708	44.585802
16733		9.544064	-1.758932	-2.704708	0.217783	-0.039730	0.265395	-148.788670	-72.282661	44.184411
16734		9.464659	-1.699626	-2.729332	0.287801	-0.052098	0.256209	-148.272614	-72.183062	43.813446
16735		9.372235	-1.538011	-2.820167	0.357217	-0.085388	0.235967	-147.784983	-72.072613	43.513728
16736		9.408557	-1.290264	-2.785302	0.390457	-0.106555	0.227125	-147.314940	-71.953686	43.252521
16737		9.462722	-1.204490	-2.771368	0.388863	-0.088326	0.231443	-146.828191	-71.841712	42.972416
16738		9.544242	-1.047388	-2.756275	0.386191	-0.039585	0.253469	-146.267749	-71.745099	42.613123
16739		9.517183	-0.892743	-2.756673	0.320110	-0.003792	0.266609	-145.697461	-71.660365	42.203227
16740		9.503356	-0.809057	-2.861094	0.213909	-0.012448	0.276135	-145.186554	-71.567081	41.791700
16741		9.680790	-0.733070	-2.846656	0.126108	-0.024743	0.270319	-144.751540	-71.469034	41.406795
16742		9.909074	-0.663687	-2.774307	0.040572	0.003031	0.259699	-144.356408	-71.386488	41.012131
16743		9.980045	-0.687896	-2.648890	-0.027493	0.048308	0.241335	-143.984126	-71.330405	40.600191
16744		10.033189	-0.793188	-2.538463	-0.097511	0.068148	0.226267	-143.654813	-71.287767	40.191151
16745		10.070851	-1.024937	-2.569937	-0.164756	0.048972	0.206470	-143.411828	-71.242402	39.832469
16746		10.120910	-1.308679	-2.656419	-0.191946	0.023228	0.174091	-143.255703	-71.195956	39.548936
16747		10.294842	-1.644490	-2.689496	-0.170478	-0.013560	0.148604	-143.159403	-71.141104	39.341566
16748		10.649967	-1.859014	-2.751190	-0.131474	-0.060572	0.116864	-143.131742	-71.075658	39.230216
16749		11.005928	-1.965110	-2.847463	-0.052495	-0.035224	0.072695	-143.092418	-71.036873	39.154415
16750		11.046245	-2.044902	-2.906054	0.052761	0.035902	0.018109	-142.994865	-71.049588	39.080721
16751		10.797072	-2.056562	-2.848172	0.149890	0.077058	-0.038457	-142.874981	-71.100446	39.042349
16752		10.660762	-1.959860	-2.802694	0.221015	0.076164	-0.075365	-142.764627	-71.163836	39.057035
16753		10.690911	-1.886781	-2.883162	0.267867	0.065524	-0.098437	-142.668388	-71.230205	39.115076
16754		10.710451	-1.832047	-2.864799	0.320427	0.073658	-0.110098	-142.549762	-71.304579	39.181149
16755		10.812114	-1.864772	-2.784731	0.355955	0.094435	-0.120604	-142.402659	-71.391899	39.238722
16756		10.865094	-1.899189	-2.627682	0.384357	0.138641	-0.148863	-142.231589	-71.509451	39.288027
16757		10.968941	-1.926097	-2.539818	0.430695	0.132745	-0.189180	-142.093668	-71.638309	39.400340
16758		11.186973	-1.998996	-2.648987	0.463435	0.080499	-0.226067	-142.043849	-71.756890	39.624996
16759		11.576278	-2.049582	-2.914745	0.533080	0.018531	-0.254242	-142.059865	-71.857137	39.960945
16760		11.823773	-2.125078	-3.074078	0.622418	0.032825	-0.278474	-142.045594	-71.972694	40.318530
16761		11.824245	-2.189855	-3.037149	0.718708	0.061007	-0.306260	-141.985783	-72.110532	40.686124
16762		11.706751	-2.139388	-2.810677	0.804706	0.082556	-0.363537	-141.937135	-72.278745	41.116726
16763		11.405635	-2.139159	-2.470735	0.888482	0.115692	-0.425401	-141.894823	-72.483548	41.604042
16764		11.009667	-2.081224	-2.144136	0.976466	0.116080	-0.493373	-141.906297	-72.712946	42.199818
16765		10.547623	-1.973030	-1.879221	1.079815	0.128982	-0.567869	-141.960854	-72.974030	42.902014
16766		9.990374	-1.780335	-1.489764	1.123718	0.171225	-0.649368	-142.076575	-73.283024	43.693193
16767		9.383225	-1.555783	-1.110758	1.126093	0.213593	-0.724374	-142.273242	-73.636521	44.569010
16768		8.997878	-1.211322	-0.670231	1.076562	0.221512	-0.789014	-142.616427	-74.015507	45.566042
16769		8.751863	-0.826927	-0.517473	0.995007	0.230523	-0.830903	-143.096717	-74.410608	46.655214
16770		8.681269	-0.449567	-0.501613	0.930318	0.222756	-0.857513	-143.710777	-74.809031	47.842419
16771		8.800459	-0.006564	-0.704788	0.888702	0.208759	-0.873678	-144.442782	-75.202020	49.124983
16772		8.985100	0.406892	-1.021640	0.813376	0.206290	-0.881429	-145.291250	-75.592637	50.480766
16773		8.921377	0.559066	-1.276769	0.678116	0.260302	-0.899264	-146.243961	-76.008333	51.861902
16774		8.774602	0.508494	-1.416050	0.495605	0.316047	-0.922834	-147.351353	-76.453003	53.291754
16775		8.794020	0.336713	-1.630176	0.302860	0.339606	-0.940331	-148.661145	-76.906161	54.813709
16776		8.928783	0.031251	-1.765960	0.081734	0.346182	-0.938276	-150.189714	-77.354239	56.426971
16777		9.052719	-0.386249	-1.852847	-0.127579	0.359978	-0.906976	-151.860810	-77.789259	58.060949
16778		9.154788	-1.007566	-1.971485	-0.289233	0.365060	-0.872180	-153.657981	-78.207991	59.726098
16779		9.265301	-1.604131	-2.046208	-0.326841	0.337723	-0.815614	-155.484453	-78.586432	61.397142
16780		9.253765	-2.050982	-2.054068	-0.243816	0.295967	-0.771654	-157.312462	-78.922940	63.115775
16781		9.158867	-2.312316	-1.925139	-0.103657	0.236516	-0.720880	-159.084641	-79.205355	64.857895
16782		9.118929	-2.286929	-1.671848	0.053307	0.184736	-0.688570	-160.819759	-79.444140	66.651992
16783		9.145919	-1.947274	-1.475191	0.180791	0.131464	-0.656117	-162.509757	-79.637241	68.473540
16784		9.470210	-1.315812	-1.044533	0.249728	0.096818	-0.621199	-164.150301	-79.796632	70.283688
16785		10.023029	-0.511807	-0.465999	0.203380	0.168471	-0.611882	-165.781849	-79.984273	72.056996
16786		10.349658	0.139379	-0.050790	0.086108	0.344094	-0.633096	-167.490428	-80.264279	73.838763
16787		10.291157	0.570682	-0.146034	-0.014348	0.507204	-0.721151	-169.551769	-80.634954	75.918395
16788		10.250605	1.070351	-0.649177	-0.005426	0.580871	-0.851588	-172.209733	-81.045634	78.604890
16789		10.150786	1.477186	-1.434452	-0.014117	0.601549	-0.990195	-175.637403	-81.452371	82.062381
16790		9.842827	1.781863	-2.085295	-0.102837	0.531858	-1.088743	-179.844934	-81.786495	86.253028
16791		9.514641	1.685931	-2.462178	-0.306046	0.400588	-1.100666	175.500248	-81.996086	90.775358
16792		9.373825	1.234593	-2.735964	-0.478566	0.243261	-1.038677	170.880253	-82.068699	95.160736
16793		9.395522	0.788644	-2.941856	-0.611176	0.149904	-0.938036	166.630919	-82.052241	99.095281
16794		9.459198	0.391286	-3.275315	-0.723122	0.110727	-0.829576	162.815136	-81.992618	102.527220
16795		9.436904	0.162288	-3.272242	-0.747341	0.126300	-0.744496	159.361238	-81.926943	105.580627
16796		9.325189	0.124520	-2.697472	-0.629169	0.185503	-0.673538	156.193392	-81.883453	108.413522
16797		9.221302	0.167623	-1.787209	-0.456888	0.203449	-0.634698	153.278347	-81.837769	111.091460
16798		9.235378	0.197857	-1.061747	-0.279857	0.161893	-0.636180	150.569985	-81.751881	113.663153
16799		9.268934	0.324725	-0.634466	-0.127139	0.104824	-0.682035	147.981740	-81.607875	116.202979
16800		9.248606	0.784044	-0.461014	-0.107616	0.055029	-0.761039	145.349032	-81.398270	118.799886
16801		9.258834	1.486074	-0.722391	-0.335455	-0.029653	-0.874086	142.581040	-81.093786	121.403693
16802		9.579133	2.177822	-1.251578	-0.772729	-0.097554	-1.023490	139.495793	-80.685015	124.077235
16803		9.747351	2.454725	-1.548999	-1.167100	-0.050001	-1.179901	135.956149	-80.212708	126.986161
16804		9.501827	2.381514	-1.445833	-1.379909	0.012713	-1.295420	132.202850	-79.687520	129.992192
16805		9.314309	1.979357	-1.431536	-1.441076	0.010670	-1.355093	128.649113	-79.103830	132.765252
16806		9.233627	1.547430	-1.541075	-1.394502	0.022781	-1.352050	125.421244	-78.495817	135.238449
16807		9.210372	1.244669	-1.721691	-1.314378	0.030919	-1.315852	122.567436	-77.883831	137.382209
16808		9.356264	1.114362	-1.920846	-1.178137	0.006915	-1.260842	120.151459	-77.271256	139.162087
16809		9.593937	1.284907	-1.602426	-1.025851	-0.003390	-1.198425	118.111869	-76.673535	140.649877
16810		9.656737	1.485303	-1.044402	-0.892768	-0.001789	-1.165047	116.326632	-76.081525	141.957696
16811		9.582201	1.600122	-0.777572	-0.804735	-0.037317	-1.163508	114.792755	-75.473753	143.062026
16812		9.542448	1.594014	-0.777302	-0.771457	-0.096785	-1.196691	113.467757	-74.827308	143.972750
16813		9.546122	1.633516	-1.026101	-0.779557	-0.141429	-1.269950	112.258544	-74.128084	144.761774
16814		9.687910	1.839681	-1.304324	-0.834472	-0.163574	-1.357567	111.078291	-73.372524	145.490343
16815		9.935436	1.978855	-1.326241	-0.894346	-0.150492	-1.430448	109.880372	-72.577161	146.204831
16816		9.951957	2.180861	-1.192340	-0.889018	-0.104006	-1.477183	108.663028	-71.760395	146.945748
16817		9.779888	2.307784	-1.127688	-0.873390	-0.051710	-1.483457	107.453124	-70.945571	147.692091
16818		9.535388	2.260781	-1.181427	-0.831745	-0.007992	-1.456603	106.289756	-70.147367	148.417704
16819		9.351333	2.276704	-1.235094	-0.727463	0.003547	-1.420250	105.256224	-69.367136	149.072561
16820		9.282974	2.484518	-1.262760	-0.625317	-0.010424	-1.395350	104.368478	-68.594450	149.637001
16821		9.335030	2.728284	-1.027783	-0.533749	-0.025963	-1.382952	103.608603	-67.824196	150.123514
16822		9.424189	3.081808	-0.708063	-0.481952	-0.016075	-1.381586	102.905334	-67.053333	150.583283
16823		9.401434	3.373263	-0.629360	-0.519393	0.018501	-1.391989	102.171820	-66.279233	151.055519
16824		9.287254	3.528398	-0.799106	-0.587143	0.019740	-1.404265	101.431780	-65.495696	151.494942
16825		9.321487	3.557984	-0.854107	-0.596718	0.029618	-1.409240	100.709876	-64.708584	151.911343
16826		9.269565	3.615889	-0.661141	-0.571473	0.065957	-1.392594	99.996223	-63.932164	152.337073
16827		9.080757	3.632001	-0.485858	-0.553884	0.133493	-1.376059	99.252656	-63.169570	152.810536
16828		8.847390	3.668691	-0.448693	-0.515782	0.154764	-1.350876	98.543555	-62.420289	153.272699
16829		8.656119	3.824494	-0.414139	-0.443494	0.139423	-1.324650	97.926261	-61.682445	153.681232
16830		8.611032	4.035801	-0.415928	-0.386493	0.112425	-1.301513	97.396522	-60.953661	154.029744
16831		8.499804	4.156833	-0.476922	-0.337853	0.100439	-1.288198	96.929435	-60.230303	154.341069
16832		8.430041	4.203372	-0.570104	-0.297771	0.074439	-1.274237	96.528922	-59.511930	154.603938
16833		8.557617	4.357932	-0.618294	-0.256951	0.054396	-1.279588	96.185334	-58.788477	154.829987
16834		8.705566	4.501224	-0.615049	-0.232702	0.059601	-1.287352	95.861693	-58.060237	155.050392
16835		8.928115	4.551361	-0.481750	-0.229652	0.088126	-1.299449	95.525565	-57.326084	155.289682
16836		8.929299	4.631605	-0.442610	-0.239851	0.128398	-1.301752	95.159982	-56.592071	155.558837
16837		8.842146	4.616899	-0.422350	-0.247694	0.144282	-1.286292	94.791328	-55.866673	155.828828
16838		8.588269	4.670108	-0.319460	-0.166008	0.110414	-1.262670	94.510595	-55.152540	156.050971
16839		8.357065	4.912608	-0.312990	-0.107993	0.067032	-1.225072	94.310182	-54.457267	156.217688
16840		8.098138	5.081257	-0.406832	-0.115607	0.058294	-1.175624	94.121242	-53.789844	156.366006
16841		7.820776	5.194854	-0.391888	-0.141712	0.040356	-1.118945	93.940601	-53.153531	156.486905
16842		7.594141	5.190406	-0.315680	-0.160037	0.039602	-1.067362	93.756917	-52.546796	156.599156
16843		7.488271	5.210747	-0.227721	-0.160933	0.050180	-1.008079	93.572682	-51.973788	156.712625
16844		7.443963	5.264797	-0.179398	-0.175348	0.034346	-0.973077	93.396709	-51.420421	156.805625
16845		7.550294	5.401737	-0.245931	-0.204048	0.029030	-0.935106	93.213746	-50.888031	156.887486
16846		7.668178	5.530044	-0.134490	-0.267674	0.064413	-0.885739	92.974498	-50.385237	156.995292
16847		7.647316	5.543285	0.101571	-0.334932	0.131174	-0.815114	92.658220	-49.923971	157.154296
16848		7.400979	5.522506	0.299167	-0.380879	0.172249	-0.732828	92.294779	-49.510736	157.341301
16849		7.164330	5.502209	0.272197	-0.365920	0.179066	-0.652556	91.942913	-49.142353	157.525777
16850		6.826976	5.514566	0.224635	-0.367468	0.164258	-0.587210	91.604823	-48.810976	157.691395
16851		6.566319	5.465658	0.159227	-0.346777	0.125832	-0.519852	91.308866	-48.516463	157.817884
16852		6.512195	5.396180	-0.035710	-0.292922	0.038212	-0.462450	91.102692	-48.254001	157.865655
16853		6.520365	5.114214	-0.175109	-0.212492	-0.032567	-0.389941	90.990556	-48.031660	157.849668
16854		6.492936	4.727327	-0.452318	-0.185794	-0.026466	-0.311348	90.890313	-47.855052	157.837773
16855		6.405863	4.471407	-0.685826	-0.180044	0.018024	-0.244714	90.766931	-47.716373	157.861983
16856		6.300259	4.399664	-0.652845	-0.159291	0.044824	-0.166233	90.638965	-47.623538	157.908148
16857		6.189885	4.566092	-0.394054	-0.066085	0.037924	-0.092814	90.570109	-47.571944	157.947012
16858		6.105648	4.926279	0.000930	0.111253	-0.003739	-0.031199	90.628864	-47.556221	157.950358
16859		5.857090	5.359688	0.050795	0.319625	-0.065869	0.025241	90.846899	-47.571558	157.899958
16860		5.682162	5.888408	-0.029911	0.529141	-0.212792	0.059509	91.277084	-47.605615	157.724518
16861		5.799441	6.455459	-0.333298	0.702268	-0.391962	0.101894	91.920804	-47.659128	157.394752
16862		6.035650	6.856576	-0.564189	0.766901	-0.494061	0.156838	92.667915	-47.739815	156.975317
16863		6.315092	7.186193	-0.488217	0.676969	-0.475420	0.200581	93.355800	-47.841785	156.567185
16864		6.592177	7.434672	-0.392959	0.359221	-0.373078	0.227661	93.799718	-47.960830	156.242925
16865		6.776961	7.446536	-0.505631	0.017140	-0.274081	0.247743	93.987868	-48.093360	155.999976
16866		6.979102	7.617877	-0.608997	-0.203389	-0.235657	0.269292	94.026794	-48.239944	155.787968
16867		7.097843	7.811505	-1.024417	-0.396489	-0.250307	0.282598	93.966366	-48.393054	155.561628
16868		7.311144	7.847701	-0.861564	-0.528187	-0.234351	0.293545	93.820859	-48.553709	155.348434
16869		7.150621	7.619544	-0.286684	-0.625714	-0.157274	0.324210	93.571456	-48.734835	155.200025
16870		6.873081	7.043291	0.047295	-0.682278	-0.147967	0.371880	93.284807	-48.944280	155.058230
16871		6.689505	6.386579	0.306540	-0.671066	-0.186379	0.428516	93.032111	-49.185071	154.880732
16872		6.571957	5.900751	0.524291	-0.661431	-0.216893	0.473604	92.806304	-49.451469	154.675417
16873		6.499747	5.373114	0.700715	-0.704938	-0.231075	0.515231	92.567199	-49.741638	154.455996
16874		6.493641	4.734561	0.836287	-0.685117	-0.254656	0.547912	92.356196	-50.050706	154.215243
16875		6.422964	4.176794	0.993505	-0.555514	-0.283632	0.591277	92.242295	-50.384159	153.946297
16876		6.299847	3.729878	1.187143	-0.393472	-0.361070	0.645438	92.278076	-50.747291	153.604605
16877		6.408552	3.603386	0.927431	-0.155615	-0.426969	0.712201	92.504095	-51.146267	153.195788
16878		6.541054	4.066631	0.653924	0.064336	-0.483165	0.782054	92.905169	-51.582733	152.725995
16879		7.243440	5.139019	-0.093662	0.395082	-0.529905	0.837220	93.544067	-52.046121	152.198242
16880		7.630518	7.173352	-0.295845	0.743870	-0.561336	0.818400	94.418625	-52.493684	151.627847
16881		8.207561	9.569712	-1.151844	1.012636	-0.847249	0.618063	95.665946	-52.805430	150.785764
16882		10.678638	11.055170	-1.938750	1.245773	-1.155689	0.311834	97.266549	-52.910482	149.669795
16883		11.880556	10.366545	-2.093795	0.704364	-0.994640	0.163528	98.426828	-52.927334	148.718417
16884		11.357216	8.240897	-1.283802	-0.003748	-0.434089	0.178648	98.762644	-52.993409	148.291604
16885		10.261913	7.212892	0.567724	-0.270171	-0.061881	0.251924	98.676366	-53.132600	148.203010
16886		9.053116	6.019463	1.019208	-0.547438	0.007969	0.382532	98.391817	-53.352099	148.163199
16887		8.000396	4.861850	-0.373783	-0.754955	-0.014980	0.538737	98.023001	-53.658244	148.081055
16888		7.024264	4.292270	-0.505473	-0.804306	0.034099	0.666607	97.597972	-54.041410	148.033171
16889		6.495042	3.940285	-0.241451	-0.627725	-0.066262	0.746272	97.360446	-54.462224	147.879856
16890		6.772757	3.494196	-1.228481	-0.220904	-0.290206	0.772008	97.538439	-54.881428	147.503054
16891		7.333740	3.233165	-1.838506	0.365182	-0.424484	0.753283	98.169640	-55.277584	146.985635
16892		7.557012	3.788693	-1.370053	0.989181	-0.518395	0.744205	99.248025	-55.656483	146.361254
16893		8.111294	5.005015	-1.012206	1.239813	-0.597977	0.765813	100.559409	-56.031768	145.632196
16894		9.043645	6.028196	-1.062037	1.018132	-0.549774	0.812694	101.730787	-56.430372	144.921598
16895		10.004193	6.845171	-0.954674	0.766605	-0.471701	0.829591	102.716267	-56.839814	144.264818
16896		10.722748	7.569322	-1.095414	0.474239	-0.403410	0.817067	103.490008	-57.246117	143.663310
16897		11.005183	7.560447	-1.311293	-0.010816	-0.238758	0.806279	103.855417	-57.664860	143.219765
16898		10.425632	6.594312	-1.497195	-0.461128	-0.028018	0.814231	103.784472	-58.116773	142.988381
16899		9.422072	5.646343	-1.884931	-0.656099	0.060155	0.806061	103.523073	-58.575898	142.851153
16900		8.541686	4.625132	-2.066266	-0.609105	0.032101	0.796258	103.309968	-59.026627	142.689131
16901		7.770391	4.381849	-2.060236	-0.454156	-0.005933	0.782672	103.220017	-59.464500	142.488337
16902		7.190209	4.176927	-1.926708	-0.311258	-0.139814	0.789018	103.343155	-59.888767	142.136046
16903		7.054792	4.131451	-1.751083	-0.168925	-0.372976	0.816935	103.790004	-60.295851	141.506249
16904		7.391079	3.890197	-1.634692	0.011277	-0.577870	0.861263	104.568033	-60.695909	140.616797
16905		7.794075	4.130764	-1.850560	0.144020	-0.707699	0.909180	105.588800	-61.095719	139.540351
16906		8.341599	4.181982	-1.786969	0.163072	-0.769335	0.937341	106.719026	-61.491793	138.355456
16907		8.947445	4.205011	-1.637966	0.133986	-0.755287	0.924565	107.846163	-61.871489	137.159707
16908		9.602013	4.075291	-1.583816	0.083617	-0.667557	0.888520	108.871528	-62.237204	136.050477
16909		9.908211	3.863768	-1.608350	-0.004256	-0.524593	0.860960	109.715735	-62.606031	135.092724
16910		9.988793	3.855758	-1.703829	-0.027967	-0.415514	0.836104	110.445489	-62.977413	134.251456
16911		9.795209	3.740172	-1.535347	0.034190	-0.356309	0.828487	111.166938	-63.351261	133.462322
16912		9.739871	3.488400	-1.247249	0.070040	-0.318106	0.845749	111.896121	-63.738492	132.690019
16913		9.792091	3.131552	-1.439018	0.113016	-0.312694	0.894882	112.688963	-64.147653	131.877007
16914		10.036447	2.847241	-1.536413	0.133604	-0.317454	0.974488	113.562156	-64.593268	130.990812
16915		10.452738	2.625082	-1.642544	0.144888	-0.326477	1.070441	114.531996	-65.079949	130.008481
16916		10.623673	2.354734	-1.956335	0.149434	-0.263761	1.142840	115.510383	-65.613228	129.023631
16917		10.750385	2.104067	-2.060415	0.167105	-0.210708	1.169330	116.496003	-66.165375	128.046203
16918		10.651410	2.215307	-2.309436	0.208784	-0.157228	1.160702	117.483169	-66.721235	127.097352
16919		10.349085	2.409188	-2.542170	0.226346	-0.123303	1.131154	118.466733	-67.263489	126.167202
16920		9.678733	2.437910	-2.589625	0.239332	-0.095333	1.082351	119.436451	-67.784045	125.263831
16921		9.102481	2.403158	-2.745966	0.271783	-0.113492	1.041926	120.461409	-68.271963	124.324052
16922		8.603385	2.230085	-2.903595	0.334094	-0.165005	1.013028	121.610006	-68.725033	123.293046
16923		8.368999	2.149593	-2.938653	0.379889	-0.247245	1.021531	122.941071	-69.147478	122.097475
16924		8.346578	2.184909	-2.804355	0.388877	-0.317084	1.037057	124.431861	-69.545698	120.740281
16925		8.453446	2.191752	-2.511682	0.404498	-0.367840	1.058725	126.069059	-69.922807	119.239677
16926		8.528433	2.317077	-2.343961	0.450699	-0.409755	1.065905	127.853221	-70.274289	117.614790
16927		8.724873	2.502970	-2.176444	0.424919	-0.394765	1.062596	129.657481	-70.610993	115.956018
16928		8.763636	2.642515	-2.267375	0.372126	-0.352388	1.056309	131.433227	-70.944367	114.299225
16929		8.748270	2.679493	-2.176323	0.321387	-0.343221	1.038563	133.204042	-71.255610	112.619727
16930		8.828070	2.594977	-2.266695	0.252163	-0.341927	1.029069	134.980683	-71.547503	110.895641
16931		8.954957	2.407941	-2.310985	0.174240	-0.317871	1.016173	136.718346	-71.826137	109.168036
16932		8.976378	2.172503	-2.230763	0.126015	-0.277337	1.006176	138.422182	-72.102546	107.450101
16933		9.031037	1.791073	-2.045240	0.090242	-0.260326	1.000034	140.125781	-72.367211	105.713102
16934		9.159929	1.567444	-2.205963	0.039989	-0.210016	0.999249	141.796083	-72.639126	103.983817
16935		9.155241	1.243293	-2.357672	-0.016895	-0.166230	1.005280	143.442937	-72.917080	102.247142
16936		9.088542	0.977597	-2.239359	-0.032946	-0.164877	1.007877	145.140732	-73.182221	100.450552
16937		8.978301	0.711750	-2.254606	-0.024719	-0.195248	0.996546	146.906992	-73.412566	98.589325
16938		8.985304	0.604348	-2.490999	0.046857	-0.223676	0.976830	148.763249	-73.606863	96.679521
16939		8.954684	0.354393	-2.410952	0.148836	-0.229923	0.954307	150.684137	-73.772844	94.764565
16940		8.888553	0.390566	-2.323258	0.240925	-0.217758	0.940378	152.664133	-73.923495	92.845042
16941		8.741415	0.324522	-2.226874	0.309272	-0.213022	0.898985	154.633966	-74.046876	90.977658
16942		8.699236	0.120568	-2.015916	0.351611	-0.209067	0.843958	156.555741	-74.142390	89.187018
16943		8.771943	0.123023	-2.294650	0.430729	-0.220983	0.782342	158.430900	-74.201148	87.492100
16944		8.855661	0.201556	-2.307373	0.449585	-0.208925	0.713464	160.194064	-74.238342	85.925755
16945		8.886235	0.241366	-2.391880	0.443549	-0.174977	0.656178	161.822369	-74.270043	84.495631
16946		8.969955	0.256344	-2.583604	0.553617	-0.198260	0.598333	163.425422	-74.268721	83.157960
16947		9.005097	0.512527	-2.586458	0.649883	-0.198870	0.563673	165.008844	-74.251056	81.897333
16948		8.901858	0.454951	-2.574449	0.658965	-0.181983	0.548415	166.561349	-74.231755	80.674734
16949		8.878072	0.386927	-2.659362	0.721499	-0.185567	0.530486	168.105463	-74.198792	79.497319
16950		8.931568	0.541518	-2.633212	0.735308	-0.194767	0.533147	169.665882	-74.152683	78.311575
16951		8.967598	0.654928	-2.747359	0.711046	-0.187786	0.550117	171.229230	-74.102981	77.107429
16952		8.986816	0.908012	-2.664142	0.692274	-0.191706	0.554484	172.788217	-74.042752	75.896928
16953		9.159177	1.163818	-2.598497	0.557186	-0.203753	0.539646	174.225908	-73.965775	74.731051
16954		9.352270	1.090868	-2.610732	0.413874	-0.141904	0.513034	175.512036	-73.915337	73.637670
16955		9.405984	1.104424	-2.428031	0.275004	-0.096738	0.488947	176.652320	-73.883194	72.612446
16956		9.522503	0.840578	-2.536164	0.059641	-0.061721	0.448881	177.587910	-73.864967	71.672279
16957		9.416910	0.151150	-2.704737	-0.015021	-0.044453	0.396693	178.368993	-73.851507	70.847793
16958		9.475100	-0.355042	-2.574149	0.051988	-0.038133	0.331297	179.062618	-73.838024	70.154813
16959		9.411596	-0.702386	-2.408710	0.107370	0.001571	0.280642	179.681115	-73.844634	69.572538
16960		9.158278	-1.045462	-2.466916	0.238288	0.019529	0.245286	-179.689432	-73.859907	69.057534
16961		8.988117	-0.955987	-2.723676	0.435832	-0.016482	0.231452	-178.979594	-73.852842	68.576133
16962		8.944080	-0.662726	-2.747029	0.619372	-0.051838	0.234583	-178.155424	-73.823804	68.085730
16963		8.934239	-0.324735	-2.863588	0.713069	-0.068236	0.246214	-177.264196	-73.782978	67.580723
16964		8.963159	-0.104118	-2.953790	0.735812	-0.080553	0.233436	-176.384285	-73.733404	67.101571
16965		9.169290	0.105912	-2.907068	0.718862	-0.088259	0.209002	-175.572753	-73.678393	66.682802
16966		9.333758	0.289452	-2.956836	0.586850	-0.091499	0.178835	-174.894436	-73.621457	66.324523
16967		9.623297	0.268119	-3.125224	0.490703	-0.101838	0.161549	-174.315615	-73.558455	66.011822
16968		9.694488	0.438942	-3.070395	0.437716	-0.078764	0.166997	-173.749945	-73.507371	65.681669
16969		9.603337	0.416211	-2.863548	0.351686	-0.049492	0.183549	-173.203209	-73.471009	65.319194
16970		9.690343	0.400116	-3.120693	0.288039	-0.019174	0.200162	-172.650807	-73.449675	64.913264
16971		9.515582	0.154239	-3.422994	0.287373	0.016966	0.145743	-172.199445	-73.452030	64.611771
16972		9.422347	0.003905	-2.800799	0.068301	0.078188	0.111510	-171.917646	-73.491183	64.356777
16973		9.075647	0.264714	-2.146212	0.124774	0.133285	0.129119	-171.557474	-73.559829	64.053344
16974		9.179036	0.401817	-2.443389	0.128975	0.134627	0.148092	-171.150705	-73.626941	63.704442
16975		9.207093	0.038676	-2.589747	0.048559	0.053399	0.160025	-170.793911	-73.646449	63.359193
16976		9.371302	-0.367749	-2.802670	-0.034068	0.020851	0.149393	-170.510460	-73.647930	63.041515
16977		9.421562	-0.569011	-2.926986	-0.001593	0.013400	0.148476	-170.216813	-73.644917	62.732145
16978		9.531741	-0.697743	-2.766488	0.059881	0.042266	0.140879	-169.888599	-73.658376	62.423921
16979		9.407887	-0.713255	-2.642837	0.168670	0.082980	0.114153	-169.538697	-73.697112	62.157633
16980		9.396188	-0.556328	-2.831348	0.271907	0.088634	0.089503	-169.169363	-73.741061	61.933239
16981		9.462484	-0.524302	-3.161694	0.334079	0.083114	0.081168	-168.785247	-73.782521	61.730139
16982		9.580446	-0.535050	-3.247454	0.392815	0.092585	0.075402	-168.369153	-73.829409	61.529286
16983		9.519077	-0.414021	-3.009413	0.415328	0.119595	0.078919	-167.924697	-73.890763	61.311935
16984		9.277184	-0.387937	-2.604713	0.364934	0.131634	0.073717	-167.507495	-73.958840	61.093418
16985		9.047467	-0.401274	-2.144995	0.298019	0.114709	0.062983	-167.158650	-74.018600	60.905752
16986		9.061720	-0.394020	-2.051192	0.220772	0.051646	0.052097	-166.897940	-74.044097	60.764196
16987		9.332680	-0.554287	-2.377811	0.180518	0.000477	0.043411	-166.704285	-74.042213	60.667969
16988		9.456146	-0.549275	-2.531206	0.236329	-0.003685	0.036898	-166.489273	-74.038638	60.583209
16989		9.420431	-0.491225	-2.638141	0.252446	-0.015016	0.023766	-166.300045	-74.030587	60.534448
16990		9.355056	-0.511570	-2.780275	0.248482	-0.020849	0.000557	-166.157121	-74.022280	60.531899
16991		9.343513	-0.521848	-2.813128	0.278316	-0.018297	-0.035026	-166.069029	-74.020422	60.603753
16992		9.352064	-0.410013	-2.777691	0.368506	-0.017319	-0.060070	-165.973547	-74.022457	60.722079
16993		9.426105	-0.210650	-2.813826	0.447260	0.009014	-0.062270	-165.828309	-74.039652	60.835173
16994		9.506636	-0.094795	-2.745246	0.426232	0.057525	-0.044819	-165.633518	-74.081257	60.884577
16995		9.420729	-0.104663	-2.689052	0.340523	0.087186	-0.024745	-165.437184	-74.136649	60.880914
16996		9.343171	-0.338137	-2.543841	0.206246	0.071625	0.000746	-165.271815	-74.179570	60.829831
16997		9.355907	-0.775580	-2.490331	0.169394	0.038423	0.015713	-165.118415	-74.202020	60.768887
16998		9.487216	-0.838472	-2.485368	0.241052	0.002397	0.027275	-164.916476	-74.202624	60.700528
16999		9.433694	-0.651690	-2.460539	0.215360	0.006238	0.045274	-164.695465	-74.202726	60.596693
17000		9.432354	-0.470252	-2.379248	0.152469	0.015992	0.071869	-164.449872	-74.203911	60.430217
17001		9.390312	-0.280040	-2.322853	0.143551	0.017777	0.092949	-164.170723	-74.202747	60.223205
17002		9.358271	-0.133420	-2.299714	0.147518	0.023295	0.103408	-163.862595	-74.202572	59.988773
17003		9.323437	0.013027	-2.367953	0.146856	0.025796	0.096719	-163.569721	-74.204628	59.769465
17004		9.478284	-0.007696	-2.527179	0.124461	0.033696	0.100903	-163.273855	-74.209953	59.534022
17005		9.567940	-0.146502	-2.622800	0.073039	0.069508	0.101294	-162.988349	-74.234606	59.278441
17006		9.474373	-0.356030	-2.584062	0.042888	0.110632	0.097735	-162.698572	-74.281962	59.000792
17007		9.371432	-0.457292	-2.484413	0.023700	0.119757	0.084890	-162.440275	-74.336217	58.744220
17008		9.376632	-0.624681	-2.447744	-0.002815	0.092263	0.073577	-162.232096	-74.377087	58.524231
17009		9.438059	-0.694628	-2.467410	-0.004834	0.078493	0.070502	-162.041331	-74.410842	58.320907
17010		9.380903	-0.653512	-2.393916	0.006476	0.063287	0.064426	-161.862289	-74.437162	58.136755
17011		9.402035	-0.601375	-2.350808	0.018014	0.036827	0.075312	-161.674446	-74.447028	57.950101
17012		9.489253	-0.593499	-2.435425	0.035085	0.019319	0.095436	-161.446265	-74.443508	57.731965
