// General information: 
//  MT Manager version: 2022.2.0 
//  XDA version: 2022.2.0 build 7381 rev 124627 built on 2023-07-19
// Device information: 
//  DeviceId: 00B4BAF3
//  ProductCode: MTW2-3A7G6
//  Firmware Version: 4.6.0
//  Hardware Version: 2.0.0
// Device settings: 
//  Filter Profile: human(46.1)
//  Option Flags: Orientation Smoother Disabled, Position/Velocity Smoother Disabled, Continuous Zero Rotation Update Disabled, AHS Disabled, ICC Disabled
// Coordinate system: ENU
PacketCounter	SampleTimeFine	Acc_X	Acc_Y	Acc_Z	Gyr_X	Gyr_Y	Gyr_Z	Roll	Pitch	Yaw
02305		9.616229	-0.813704	0.268691	-0.098118	0.067501	0.089292	-92.537235	-81.263122	40.009745
02306		9.623775	-1.084437	0.299397	-0.217069	0.072535	0.068170	-92.398620	-81.225537	39.743597
02307		9.700091	-1.386059	0.291982	-0.321359	0.078461	0.036026	-92.331461	-81.211772	39.488988
02308		9.708686	-1.647728	0.217410	-0.395709	0.072693	0.011845	-92.304763	-81.206331	39.232491
02309		9.662800	-1.962429	0.118367	-0.448169	0.073085	-0.008150	-92.336241	-81.217734	39.004178
02310		9.679763	-2.179433	0.081381	-0.446041	0.075143	-0.014679	-92.332899	-81.227545	38.742144
02311		9.611040	-2.380806	0.031014	-0.403338	0.074321	-0.023981	-92.335229	-81.247935	38.510347
02312		9.597416	-2.399939	-0.043717	-0.332706	0.066336	-0.030086	-92.300999	-81.266351	38.282786
02313		9.642891	-2.250805	-0.087856	-0.251563	0.062154	-0.042779	-92.262896	-81.296980	38.098088
02314		9.674009	-2.013920	-0.070548	-0.182238	0.062914	-0.035138	-92.154444	-81.318147	37.882687
02315		9.650723	-1.775072	-0.058007	-0.131910	0.055563	-0.036639	-92.069891	-81.344876	37.720374
02316		9.617681	-1.514687	-0.048523	-0.102373	0.065960	-0.026487	-91.901405	-81.361023	37.490559
02317		9.548716	-1.354534	-0.051888	-0.106101	0.055876	-0.019111	-91.797141	-81.377569	37.323285
02318		9.604070	-1.240295	-0.009318	-0.108399	0.054147	-0.008251	-91.673457	-81.382916	37.135309
02319		9.661055	-1.245919	-0.022522	-0.109792	0.059069	0.000621	-91.556254	-81.388155	36.952819
02320		9.593581	-1.333522	-0.037865	-0.093700	0.054386	0.009898	-91.421195	-81.382989	36.761859
02321		9.526933	-1.307038	-0.020966	-0.059568	0.052670	0.022819	-91.297293	-81.375355	36.601699
02322		9.438261	-1.360470	0.054695	-0.028026	0.041712	0.037620	-91.170774	-81.354025	36.457426
02323		9.450492	-1.332662	0.054919	0.003692	0.035985	0.048583	-91.072265	-81.331372	36.359599
02324		9.487215	-1.357455	0.015543	0.007551	0.024851	0.064077	-90.988157	-81.294636	36.278830
02325		9.668321	-1.231873	0.019374	0.015299	0.016607	0.078062	-90.954485	-81.254891	36.253306
02326		9.685133	-1.108066	0.102922	0.030918	0.017947	0.094400	-90.882066	-81.200696	36.197893
02327		9.672223	-0.966206	0.079995	0.056106	0.004015	0.116022	-90.869895	-81.139168	36.217777
02328		9.671484	-0.715585	-0.084180	0.093114	-0.011610	0.153724	-90.867750	-81.050722	36.269546
02329		9.611342	-0.528181	-0.149762	0.126377	-0.049904	0.206660	-91.004074	-80.936934	36.480542
02330		9.650590	-0.221473	-0.077525	0.147146	-0.081687	0.261842	-91.209466	-80.785744	36.773906
02331		9.799248	0.193986	0.061488	0.170309	-0.082754	0.296038	-91.417474	-80.620422	37.083193
02332		9.795364	0.516612	0.345643	0.165753	-0.055216	0.353784	-91.497201	-80.416674	37.260248
02333		9.741867	0.646171	0.605584	0.122689	-0.040331	0.417197	-91.562696	-80.182958	37.397626
02334		9.880350	0.736753	0.469780	0.023514	-0.046064	0.495849	-91.669242	-79.897914	37.519419
02335		10.073513	0.684559	0.362391	-0.039725	-0.035424	0.565181	-91.785333	-79.580127	37.613878
02336		10.270303	0.486754	0.228290	-0.085524	-0.046682	0.609993	-91.931116	-79.229619	37.712276
02337		10.478050	0.102432	0.224743	-0.099130	-0.029155	0.623913	-92.042775	-78.878951	37.767746
02338		10.305152	-0.562483	0.476066	-0.074805	-0.003690	0.647309	-92.043591	-78.507898	37.724808
02339		9.668358	-1.539601	0.680192	-0.026944	-0.011546	0.706638	-92.051050	-78.110725	37.716233
02340		9.143228	-2.374723	0.423798	-0.049406	-0.066471	0.751480	-92.195045	-77.678707	37.834488
02341		9.055769	-2.938830	0.165299	-0.030933	-0.117243	0.737146	-92.464754	-77.261618	38.092163
02342		9.088863	-3.046622	-0.158062	-0.114302	-0.114382	0.694249	-92.748234	-76.860914	38.315767
02343		8.879723	-3.830517	-0.197000	-0.201116	-0.088608	0.640340	-93.025230	-76.499240	38.481482
02344		8.867624	-4.404537	0.045860	-0.223905	-0.091059	0.554635	-93.306744	-76.178676	38.639105
02345		8.861397	-4.792696	-0.712704	-0.409138	-0.044566	0.460805	-93.604104	-75.920261	38.703382
02346		8.525313	-5.528931	-1.179340	-0.484039	-0.026677	0.359023	-93.899196	-75.713584	38.721636
02347		8.041809	-6.376816	-0.803905	-0.426767	-0.035042	0.201349	-94.214589	-75.602821	38.794121
02348		7.535848	-7.062597	-0.855468	-0.442425	-0.030282	0.031598	-94.540520	-75.583003	38.868851
02349		7.189522	-7.668687	-1.254978	-0.404828	-0.058290	-0.135546	-94.952195	-75.661911	39.053656
02350		7.805739	-7.761944	-1.235353	-0.153007	-0.068007	-0.305743	-95.264621	-75.832448	39.285492
02351		9.034870	-7.891660	-0.456941	0.320459	-0.010038	-0.441993	-95.222632	-76.086588	39.430680
02352		9.842801	-6.925175	0.166909	0.641093	0.085571	-0.481102	-94.764908	-76.364989	39.337537
02353		9.835132	-5.479826	-0.942164	0.427307	0.052247	-0.449918	-94.509122	-76.625354	39.325510
02354		10.146601	-4.038559	-0.807676	0.384771	-0.049939	-0.473134	-94.511917	-76.892902	39.554799
02355		10.381995	-2.197812	1.357573	0.723158	-0.021089	-0.545193	-94.282386	-77.203691	39.743664
02356		10.017101	-0.934824	2.087400	0.629828	0.062061	-0.632816	-93.890514	-77.567451	39.711830
02357		9.657044	-1.040756	1.072714	0.363096	0.057907	-0.652910	-93.670803	-77.943464	39.699276
02358		9.717516	-1.513251	0.055477	0.273457	-0.005329	-0.594113	-93.644562	-78.282569	39.832511
02359		9.765329	-1.591789	-0.386817	0.365719	-0.012589	-0.509528	-93.587891	-78.574268	39.988021
02360		9.483894	-1.283113	-0.256838	0.444580	0.016395	-0.450719	-93.378253	-78.832204	40.033939
02361		9.254010	-0.922783	-0.081140	0.471055	0.041140	-0.417971	-93.086428	-79.073586	40.011083
02362		9.190891	-0.711736	-0.138129	0.426103	0.024941	-0.396731	-92.843250	-79.300954	40.012000
02363		9.306776	-0.605875	-0.486207	0.339888	-0.013166	-0.371854	-92.775425	-79.514646	40.140633
02364		9.489701	-0.488473	-0.658082	0.257611	-0.014944	-0.343447	-92.740856	-79.710420	40.255486
02365		9.632197	-0.486997	-0.562859	0.224586	-0.013423	-0.320890	-92.736654	-79.895304	40.381479
02366		9.870320	-0.469366	-0.334286	0.230067	0.013337	-0.308428	-92.623680	-80.071822	40.400554
02367		9.972829	-0.584022	0.134155	0.216181	0.042166	-0.292899	-92.438266	-80.242534	40.337611
02368		9.955558	-0.654876	0.432169	0.144222	0.036955	-0.260129	-92.283449	-80.391975	40.264323
02369		9.938669	-0.586879	0.424731	0.055762	0.017649	-0.213903	-92.255516	-80.517181	40.267962
02370		9.928303	-0.342593	0.255014	0.030295	0.012559	-0.183307	-92.235904	-80.622067	40.265615
02371		9.844430	-0.120990	0.130956	0.008345	0.016498	-0.147401	-92.228912	-80.709541	40.262975
02372		9.760098	-0.100901	0.196804	-0.035819	0.014940	-0.110186	-92.228590	-80.772616	40.241794
02373		9.760409	-0.278031	0.211714	-0.082191	0.039077	-0.096956	-92.186038	-80.832169	40.150607
02374		9.627652	-0.445577	0.060190	-0.114170	0.040985	-0.080599	-92.133261	-80.878862	40.030833
02375		9.710428	-0.617261	-0.143140	-0.097595	0.021953	-0.062674	-92.154325	-80.918777	39.995179
02376		9.875337	-0.870514	-0.147285	-0.055203	0.025503	-0.028365	-92.115218	-80.935225	39.923485
02377		9.796884	-1.059261	-0.116060	-0.000442	0.037823	0.012385	-92.013591	-80.932727	39.819962
02378		9.605842	-1.233571	-0.150405	0.032203	0.030753	0.038794	-91.897090	-80.910785	39.720607
02379		9.539576	-1.330318	-0.186441	0.079106	0.025076	0.061336	-91.790422	-80.880061	39.658126
02380		9.560355	-1.506414	-0.247042	0.109370	0.022116	0.068880	-91.658447	-80.840677	39.587863
02381		9.617545	-1.715823	-0.171285	0.127366	0.019809	0.074940	-91.543078	-80.802043	39.544554
02382		9.670627	-1.847107	-0.211013	0.137730	0.023856	0.072342	-91.390100	-80.760651	39.469459
02383		9.598951	-1.888093	-0.006808	0.151041	0.020019	0.063239	-91.263135	-80.728585	39.428126
02384		9.600049	-1.908510	0.151793	0.143843	0.024269	0.054806	-91.108278	-80.697185	39.354661
02385		9.566849	-1.910521	0.327877	0.109781	0.024240	0.046996	-90.992203	-80.674300	39.300402
02386		9.513251	-1.853084	0.338087	0.058890	0.020379	0.035461	-90.901871	-80.653897	39.242990
02387		9.486681	-1.788166	0.222840	0.016886	0.009357	0.032825	-90.891341	-80.638845	39.241761
02388		9.584062	-1.767776	0.154828	-0.006067	0.007934	0.031919	-90.881964	-80.620351	39.228673
02389		9.624681	-1.739577	0.103887	-0.016632	0.016669	0.030049	-90.864950	-80.606865	39.201416
02390		9.616669	-1.718335	-0.001375	-0.023092	0.009990	0.031528	-90.858327	-80.588612	39.181231
02391		9.603296	-1.687054	-0.059502	-0.007877	0.006922	0.026240	-90.869999	-80.577156	39.188134
02392		9.654205	-1.687725	-0.028180	0.019627	0.007313	0.029629	-90.848299	-80.559968	39.177476
02393		9.658704	-1.765631	-0.010717	0.045108	0.008431	0.023503	-90.824516	-80.550040	39.179211
02394		9.698831	-1.745948	0.116990	0.071768	0.014407	0.019066	-90.749197	-80.538956	39.144479
02395		9.659277	-1.654827	0.120766	0.081800	0.009331	0.015133	-90.701548	-80.533756	39.143335
02396		9.558984	-1.487744	0.201535	0.043425	0.011387	0.023134	-90.652862	-80.520310	39.119140
02397		9.517666	-1.399093	0.304826	-0.014743	0.014763	0.019329	-90.641331	-80.512728	39.098539
02398		9.530809	-1.368988	0.300684	-0.060872	0.015062	0.006162	-90.640549	-80.509027	39.062325
02399		9.508517	-1.435192	0.186396	-0.125713	0.013519	0.000032	-90.696857	-80.512542	39.046058
02400		9.525526	-1.593422	0.069566	-0.163792	0.010898	-0.004476	-90.769743	-80.514915	39.024746
02401		9.559615	-1.731909	-0.000216	-0.173203	0.008012	-0.003521	-90.871902	-80.520436	39.027387
02402		9.581638	-1.787353	0.061667	-0.164957	0.007455	-0.013441	-90.957783	-80.527925	39.018574
02403		9.586764	-1.861520	0.075290	-0.146977	0.006493	-0.014775	-91.050635	-80.539805	39.027016
02404		9.602531	-1.899455	0.107947	-0.111667	0.001518	-0.013771	-91.126542	-80.547422	39.039045
02405		9.543655	-1.940583	0.032533	-0.098881	-0.000059	-0.021296	-91.214679	-80.562845	39.070648
02406		9.554562	-2.023036	-0.000932	-0.065147	0.004629	-0.030347	-91.254589	-80.579991	39.073205
02407		9.525800	-2.078278	0.031116	-0.038530	-0.005902	-0.033841	-91.329399	-80.602359	39.126348
02408		9.551753	-2.070070	0.006931	-0.005971	-0.007459	-0.037158	-91.378068	-80.623241	39.172149
02409		9.568635	-2.039421	-0.022118	0.022041	-0.007978	-0.042934	-91.426441	-80.650582	39.233667
02410		9.618081	-2.028941	0.031824	0.053852	-0.017888	-0.040308	-91.477897	-80.673104	39.317022
02411		9.622536	-1.916681	0.135971	0.078717	-0.010164	-0.035881	-91.501167	-80.696178	39.386001
02412		9.619919	-1.713225	0.071273	0.078182	-0.011977	-0.041340	-91.518638	-80.719367	39.449034
02413		9.611700	-1.500074	0.053667	0.070570	-0.012505	-0.042212	-91.555472	-80.745919	39.527024
02414		9.589737	-1.384426	0.103594	0.055136	-0.013212	-0.040351	-91.590895	-80.768511	39.594858
02415		9.632710	-1.290878	0.064689	0.025111	-0.013354	-0.036636	-91.656536	-80.791854	39.675643
02416		9.622713	-1.323621	0.044622	-0.008513	-0.011381	-0.037181	-91.722238	-80.812639	39.737198
02417		9.607705	-1.402458	-0.042120	-0.022462	-0.009174	-0.031650	-91.800204	-80.833235	39.802852
02418		9.619911	-1.492084	0.001597	-0.021296	-0.009820	-0.029621	-91.867416	-80.849695	39.858511
02419		9.628321	-1.569815	-0.007512	-0.009018	-0.006365	-0.020965	-91.926819	-80.864214	39.913161
02420		9.590365	-1.603863	0.019793	0.006727	-0.006176	-0.028260	-91.965211	-80.879947	39.955888
02421		9.639416	-1.594560	0.073624	0.019213	-0.008581	-0.022906	-92.016698	-80.895482	40.018902
02422		9.642514	-1.597132	0.049431	0.025558	-0.007209	-0.022212	-92.047513	-80.907721	40.064879
02423		9.642832	-1.595227	0.048922	0.020598	-0.010978	-0.017060	-92.106011	-80.919803	40.135798
02424		9.691764	-1.586622	0.102622	0.030431	-0.010153	-0.017748	-92.144234	-80.929412	40.192101
02425		9.642877	-1.536546	0.161729	0.031075	-0.014012	-0.013746	-92.207078	-80.939473	40.273502
02426		9.636524	-1.518281	0.131440	0.023577	-0.016128	-0.009005	-92.269684	-80.943925	40.350516
02427		9.573231	-1.493236	0.117962	0.009950	-0.015864	-0.001481	-92.349216	-80.946874	40.436566
02428		9.560203	-1.458482	0.058113	-0.007092	-0.012458	-0.009293	-92.416383	-80.951548	40.500404
02429		9.593630	-1.532889	0.025458	-0.024539	-0.013834	-0.009493	-92.509336	-80.959091	40.580038
02430		9.615088	-1.580440	0.010688	-0.035011	-0.016305	-0.012452	-92.607031	-80.965444	40.658588
02431		9.602185	-1.610679	0.013337	-0.028880	-0.018682	-0.015234	-92.720909	-80.976069	40.756891
02432		9.613349	-1.693942	-0.021084	-0.020527	-0.026284	-0.019265	-92.847801	-80.985995	40.873401
02433		9.638866	-1.753098	0.016516	-0.009534	-0.020596	-0.018280	-92.958309	-80.998176	40.979512
02434		9.604750	-1.734502	0.032005	0.015014	-0.027382	-0.014885	-93.068492	-81.005490	41.099717
02435		9.594111	-1.648175	0.061447	0.017556	-0.029032	-0.014471	-93.193411	-81.015064	41.236130
02436		9.592548	-1.518254	0.032993	0.015881	-0.027488	-0.007408	-93.302331	-81.018020	41.355553
02437		9.592179	-1.396287	0.081331	0.003509	-0.026669	-0.007111	-93.425198	-81.023334	41.481742
02438		9.570978	-1.347109	0.091531	-0.016152	-0.028333	-0.005698	-93.555336	-81.025203	41.604064
02439		9.599072	-1.412166	0.104578	-0.039841	-0.031275	-0.008363	-93.719805	-81.031001	41.747230
02440		9.535143	-1.566372	0.024236	-0.067859	-0.034954	-0.009648	-93.904695	-81.034769	41.894984
02441		9.562173	-1.689601	0.021909	-0.071422	-0.045233	-0.005738	-94.137082	-81.038344	42.088592
02442		9.601848	-1.660060	0.065366	-0.059704	-0.042183	-0.010024	-94.343891	-81.041849	42.263265
02443		9.606116	-1.671702	0.113408	-0.048702	-0.041994	-0.008711	-94.552227	-81.046967	42.445703
02444		9.573055	-1.595720	0.140058	-0.048174	-0.044278	-0.010333	-94.760440	-81.050352	42.628481
02445		9.600501	-1.473290	0.138994	-0.068903	-0.045471	-0.012690	-94.993945	-81.057301	42.824686
02446		9.642508	-1.381853	0.095292	-0.128343	-0.041454	-0.016213	-95.240172	-81.063958	42.999440
02447		9.652618	-1.332668	-0.068874	-0.185858	-0.036620	-0.015796	-95.509663	-81.072906	43.164243
02448		9.607866	-1.404983	-0.190569	-0.211110	-0.032683	-0.013319	-95.771098	-81.078158	43.306382
02449		9.511936	-1.545889	-0.279994	-0.191171	-0.034181	-0.003442	-96.030720	-81.080003	43.458107
02450		9.504283	-1.722900	-0.103447	-0.122553	-0.038983	-0.004400	-96.261154	-81.079593	43.620224
02451		9.523972	-1.778750	0.078293	-0.060506	-0.048899	-0.009582	-96.501879	-81.083726	43.828598
02452		9.605507	-1.658880	0.084010	-0.077337	-0.047219	-0.013402	-96.740161	-81.087687	44.024880
02453		9.689573	-1.543346	0.065396	-0.145079	-0.046613	-0.011855	-97.021740	-81.092901	44.225565
02454		9.742203	-1.535632	-0.011738	-0.179596	-0.039016	-0.019740	-97.292206	-81.100766	44.395113
02455		9.692631	-1.718055	-0.139805	-0.189743	-0.037887	-0.020816	-97.572004	-81.111400	44.568093
02456		9.708111	-1.986548	-0.296157	-0.172840	-0.043759	-0.025852	-97.859702	-81.122114	44.758991
02457		9.719897	-2.062936	-0.437423	-0.127491	-0.038537	-0.022905	-98.108151	-81.133485	44.936331
02458		9.727256	-1.953107	-0.461241	-0.065220	-0.035172	-0.018078	-98.299899	-81.140241	45.092515
02459		9.697756	-1.823017	-0.441139	-0.005627	-0.034027	-0.018983	-98.461144	-81.149370	45.252249
02460		9.703071	-1.657017	-0.322679	0.054939	-0.027724	-0.014565	-98.555516	-81.154639	45.379553
02461		9.703908	-1.602424	-0.208523	0.071955	-0.017405	-0.024267	-98.615385	-81.167983	45.481665
02462		9.681521	-1.489470	-0.156306	0.075714	-0.018409	-0.031123	-98.673473	-81.183386	45.584289
02463		9.696898	-1.339002	-0.131690	0.061964	-0.011111	-0.029331	-98.719237	-81.200077	45.666328
02464		9.621681	-1.285644	-0.124333	0.027438	-0.015851	-0.027324	-98.794038	-81.213522	45.757865
02465		9.667677	-1.206015	-0.109935	0.000564	-0.016009	-0.017402	-98.886420	-81.223040	45.851479
02466		9.589957	-1.274411	-0.031877	-0.006232	-0.009774	-0.018486	-98.953597	-81.231983	45.915777
02467		9.553941	-1.372196	-0.044147	-0.025005	-0.015693	-0.016534	-99.058984	-81.241067	46.007725
02468		9.572432	-1.467957	-0.151709	-0.044487	-0.019021	-0.009293	-99.176932	-81.243934	46.101214
02469		9.636488	-1.486852	-0.243635	-0.049199	-0.013634	-0.000921	-99.279244	-81.244326	46.176029
02470		9.645947	-1.508656	-0.240466	-0.026700	-0.010027	-0.000509	-99.348773	-81.243012	46.230838
02471		9.562248	-1.628232	-0.129150	-0.006222	-0.007040	-0.002123	-99.402914	-81.244640	46.281829
02472		9.517819	-1.772374	-0.084012	0.010762	-0.013061	-0.009126	-99.467370	-81.247894	46.353223
02473		9.534416	-1.811603	-0.051557	0.034219	-0.020646	-0.000668	-99.546968	-81.247297	46.453423
02474		9.632156	-1.727221	-0.107773	0.039811	-0.020712	-0.001888	-99.618424	-81.245705	46.548738
02475		9.689519	-1.550706	-0.159599	0.025740	-0.016979	-0.001778	-99.689538	-81.245931	46.635448
02476		9.679797	-1.403337	-0.212860	-0.003494	-0.009012	-0.005380	-99.745064	-81.247409	46.689542
02477		9.677655	-1.393561	-0.290381	-0.029839	-0.004644	-0.006636	-99.805677	-81.251535	46.733409
02478		9.585194	-1.610726	-0.236706	-0.019181	-0.002506	-0.007434	-99.847684	-81.254792	46.764731
02479		9.568087	-1.753473	-0.237968	0.012205	0.000833	-0.006064	-99.863765	-81.259093	46.787915
02480		9.543745	-1.883418	-0.166735	0.050230	-0.000430	-0.009220	-99.859560	-81.263559	46.812717
02481		9.656630	-1.775973	-0.148393	0.076802	-0.001077	-0.004463	-99.844337	-81.266627	46.841681
02482		9.716372	-1.603772	-0.221882	0.084760	-0.002465	-0.001667	-99.823017	-81.266632	46.869184
02483		9.744218	-1.419706	-0.301133	0.075783	-0.002032	-0.000812	-99.809276	-81.267460	46.899062
02484		9.741499	-1.290353	-0.324037	0.045300	0.001245	-0.004304	-99.798608	-81.269318	46.914467
02485		9.750518	-1.191636	-0.265511	0.018021	0.004480	-0.003791	-99.796057	-81.272488	46.922180
02486		9.703421	-1.206696	-0.241493	0.004578	0.015319	-0.000373	-99.754463	-81.273497	46.882691
02487		9.648632	-1.387299	-0.212442	-0.012568	0.022965	0.000988	-99.698440	-81.275837	46.818573
02488		9.606686	-1.536253	-0.187829	-0.023227	0.020825	0.001781	-99.651131	-81.276149	46.757186
02489		9.654545	-1.640797	-0.262256	-0.010100	0.013227	-0.012857	-99.637989	-81.285347	46.737884
02490		9.662823	-1.598786	-0.217600	-0.007213	0.016430	-0.020057	-99.611260	-81.297566	46.706601
02491		9.715522	-1.541591	-0.071033	-0.012492	0.020052	-0.017168	-99.576734	-81.309779	46.664285
02492		9.625065	-1.512663	-0.133392	-0.015592	0.022676	-0.006650	-99.523191	-81.315010	46.601023
02493		9.644508	-1.551367	-0.222825	-0.014758	0.007616	-0.003878	-99.527158	-81.318497	46.596341
02494		9.582087	-1.593807	-0.170662	-0.002200	0.016047	-0.001140	-99.486986	-81.319980	46.554367
02495		9.635923	-1.600987	-0.062617	0.003457	0.014523	0.005067	-99.449201	-81.319008	46.518012
02496		9.615661	-1.490530	-0.133586	-0.001488	0.006651	0.003132	-99.440762	-81.317186	46.508551
02497		9.676545	-1.385854	-0.145359	-0.006270	0.013503	0.004058	-99.412552	-81.316646	46.476252
02498		9.663355	-1.293028	-0.186900	-0.025125	0.024079	0.005068	-99.351985	-81.315356	46.400358
02499		9.628135	-1.334876	-0.181093	-0.045445	0.026260	0.002722	-99.299650	-81.316779	46.320951
02500		9.636689	-1.415420	-0.188958	-0.061229	0.026116	0.012012	-99.248065	-81.311728	46.233217
02501		9.600435	-1.516108	-0.198025	-0.052869	0.028121	0.014667	-99.185835	-81.306559	46.139497
02502		9.579008	-1.594265	-0.134640	-0.031523	0.026900	0.013416	-99.113673	-81.300757	46.048163
02503		9.590807	-1.621757	-0.151686	-0.014904	0.021523	0.013703	-99.054616	-81.295457	45.979660
02504		9.661983	-1.482252	-0.142487	-0.022392	0.024843	0.018207	-98.982229	-81.286728	45.893388
02505		9.706382	-1.339259	-0.186248	-0.043668	0.031416	0.017357	-98.900944	-81.280173	45.785728
02506		9.690752	-1.368621	-0.155304	-0.069139	0.041108	0.023227	-98.792788	-81.269996	45.636167
02507		9.722096	-1.435628	-0.262198	-0.088924	0.041043	0.019250	-98.701093	-81.263182	45.491738
02508		9.688192	-1.541321	-0.294529	-0.091102	0.044776	0.028023	-98.589871	-81.250525	45.326336
02509		9.642192	-1.621368	-0.307506	-0.064040	0.047342	0.030887	-98.454952	-81.237546	45.152588
02510		9.566057	-1.698980	-0.248767	-0.019118	0.049182	0.033903	-98.284029	-81.221801	44.968499
02511		9.597471	-1.661993	-0.123072	0.009214	0.050907	0.036941	-98.091997	-81.205443	44.779417
02512		9.624493	-1.611709	-0.049644	0.021385	0.050414	0.040157	-97.891527	-81.186063	44.588894
02513		9.646208	-1.606121	-0.043908	0.018570	0.047037	0.045543	-97.705175	-81.164262	44.410972
02514		9.626191	-1.499006	-0.110505	0.019608	0.048008	0.041950	-97.515365	-81.143488	44.230187
02515		9.622433	-1.378999	-0.027868	0.002807	0.053738	0.045314	-97.315222	-81.122101	44.029153
02516		9.606741	-1.285868	-0.041711	-0.032781	0.053581	0.050561	-97.133022	-81.096647	43.825665
02517		9.634463	-1.164288	-0.131048	-0.068271	0.053276	0.053993	-96.973046	-81.070145	43.624046
02518		9.639945	-1.052745	-0.221647	-0.091584	0.046963	0.060937	-96.846057	-81.038161	43.442312
02519		9.664029	-0.933410	-0.187630	-0.102636	0.039982	0.069293	-96.749300	-81.002035	43.284726
02520		9.708081	-0.853729	-0.244453	-0.102488	0.042364	0.082121	-96.638397	-80.957582	43.112917
02521		9.703256	-0.796728	-0.178126	-0.091624	0.043855	0.109071	-96.507876	-80.899172	42.927484
02522		9.728749	-0.745055	-0.182364	-0.080664	0.045177	0.134222	-96.357202	-80.825114	42.728001
02523		9.685518	-0.663016	-0.149947	-0.072647	0.043259	0.166593	-96.200706	-80.734002	42.527187
02524		9.613076	-0.642801	-0.086384	-0.079038	0.032085	0.190480	-96.079750	-80.626932	42.358660
02525		9.690404	-0.530639	-0.122044	-0.094267	0.036275	0.220085	-95.947430	-80.505064	42.169670
02526		9.706989	-0.468183	-0.131375	-0.119103	0.037895	0.254362	-95.814777	-80.361804	41.965882
02527		9.796742	-0.389191	-0.185497	-0.137278	0.038897	0.291367	-95.683442	-80.199661	41.752725
02528		9.816285	-0.389515	-0.334091	-0.160703	0.043588	0.331458	-95.541869	-80.012602	41.515488
02529		9.887666	-0.342800	-0.335641	-0.157598	0.045773	0.384010	-95.384630	-79.798223	41.263940
02530		9.868628	-0.276759	-0.300735	-0.138353	0.055597	0.438204	-95.177664	-79.550662	40.972930
02531		9.830221	-0.167399	-0.249743	-0.124981	0.067500	0.491895	-94.926713	-79.275948	40.644649
02532		9.794648	-0.117957	-0.339705	-0.127743	0.034955	0.551570	-94.771077	-78.962280	40.411571
02533		9.978730	-0.108074	-0.351830	-0.113517	0.031256	0.602881	-94.619100	-78.622648	40.190183
02534		10.205408	0.052794	-0.308495	-0.073271	0.065585	0.657620	-94.347183	-78.249501	39.869721
02535		10.381588	0.314725	-0.011033	-0.021447	0.101539	0.721448	-93.959024	-77.845252	39.460230
02536		10.401149	0.497286	0.358522	-0.054665	0.128826	0.806826	-93.529640	-77.388364	38.988493
02537		10.364009	0.232239	0.347133	-0.154671	0.136099	0.892071	-93.160134	-76.887349	38.518423
02538		10.450869	-0.215902	0.028732	-0.162671	0.121063	0.970488	-92.851170	-76.335320	38.104961
02539		10.543354	-0.649402	-0.194949	-0.090199	0.106076	1.039723	-92.557248	-75.748594	37.748713
02540		10.801577	-0.871857	-0.637129	-0.036733	0.069610	1.089380	-92.332816	-75.126341	37.495027
02541		11.439876	-0.890871	-0.427837	0.119818	0.060309	1.113806	-92.057951	-74.496018	37.281194
02542		12.322913	-0.986764	0.716032	0.225733	0.092702	1.156237	-91.674913	-73.835298	37.017428
02543		12.780372	-1.725537	0.732637	0.315773	0.114917	1.225190	-91.221762	-73.141977	36.733364
02544		12.592584	-2.357444	0.523175	0.412161	0.149393	1.291822	-90.678765	-72.403054	36.412052
02545		11.857733	-2.327557	0.946225	0.511407	0.175255	1.349041	-90.068661	-71.638100	36.078643
02546		11.192490	-2.198337	0.706427	0.493035	0.097042	1.382676	-89.636466	-70.845515	35.920484
02547		11.315460	-2.123861	0.199524	0.478504	0.083906	1.372446	-89.254534	-70.066496	35.806189
02548		11.702817	-2.162509	0.367826	0.554811	0.154700	1.353235	-88.741323	-69.289528	35.597842
02549		11.637620	-2.101597	0.703583	0.535192	0.203646	1.314583	-88.189807	-68.541813	35.335526
02550		11.035434	-2.304382	0.921834	0.476605	0.236039	1.286902	-87.652908	-67.799912	35.051268
02551		9.954878	-2.674754	1.309045	0.392642	0.228918	1.273614	-87.195622	-67.073993	34.799958
02552		8.674445	-3.600744	1.473540	0.232781	0.161472	1.256958	-86.939535	-66.349920	34.666300
02553		7.782413	-4.454327	1.350961	0.086381	-0.005057	1.176989	-86.979702	-65.685749	34.764891
02554		7.660057	-5.116080	0.568062	-0.083722	-0.068383	1.054112	-87.186143	-65.084464	34.939134
02555		7.849207	-5.577244	0.218442	-0.052545	-0.011804	0.960424	-87.289164	-64.543706	35.020280
02556		8.002587	-5.451838	0.112575	-0.013307	-0.012680	0.885432	-87.366671	-64.037170	35.097773
02557		8.008512	-5.824334	0.187474	0.037229	-0.001473	0.808186	-87.392297	-63.582556	35.150675
02558		7.568724	-5.741413	0.405789	0.181894	0.038264	0.706223	-87.287320	-63.177227	35.149758
02559		6.738800	-5.664994	0.352893	0.288794	0.029671	0.564130	-87.121597	-62.860813	35.150065
02560		5.985988	-5.504234	0.750009	0.467496	0.026081	0.352140	-86.850685	-62.658450	35.146560
02561		5.342299	-5.715061	1.360890	0.624952	0.055908	0.088131	-86.438469	-62.612656	35.086238
02562		5.146103	-5.299814	1.257104	0.653020	0.067516	-0.187395	-85.981218	-62.717175	34.992627
02563		5.768647	-4.621017	0.438451	0.538233	0.020786	-0.450437	-85.614068	-62.979289	34.927376
02564		7.025053	-3.867126	0.507981	0.621069	0.016812	-0.676362	-85.183187	-63.364773	34.843225
02565		7.761461	-3.200664	1.220111	0.718686	0.047071	-0.860795	-84.630256	-63.858894	34.686439
02566		7.771372	-2.777367	1.734612	0.645478	0.070926	-1.012419	-84.064723	-64.432174	34.468909
02567		7.433385	-2.766273	1.870530	0.436850	0.065791	-1.148049	-83.585231	-65.087522	34.216442
02568		7.167674	-3.042429	1.526801	0.237570	0.042416	-1.267454	-83.219623	-65.806194	33.964078
02569		7.188579	-3.333145	1.184818	0.169302	0.006205	-1.406916	-82.892896	-66.611426	33.714059
02570		7.348213	-3.371693	0.988614	0.139728	-0.007095	-1.555872	-82.562272	-67.496327	33.441907
02571		7.469453	-3.196789	0.959228	0.129503	-0.013714	-1.721471	-82.182220	-68.480282	33.113040
02572		7.614555	-2.658656	1.035980	0.076672	-0.019503	-1.877108	-81.783196	-69.546979	32.732670
02573		7.908020	-2.108802	1.333967	-0.058746	-0.025349	-1.988167	-81.393954	-70.681206	32.283939
02574		8.108151	-2.054788	1.634927	-0.223610	-0.005214	-2.086391	-80.999159	-71.863186	31.731753
02575		8.292806	-2.203782	1.506270	-0.360622	0.034193	-2.171279	-80.507833	-73.093222	31.000822
02576		8.416329	-2.531182	0.983713	-0.434909	0.058567	-2.242202	-79.904598	-74.353740	30.112793
02577		8.610155	-2.836113	0.438511	-0.408588	0.072261	-2.292146	-79.087886	-75.642685	29.025818
02578		8.869557	-3.038712	0.311835	-0.273594	0.084393	-2.327275	-77.974493	-76.940264	27.718443
02579		9.144247	-3.033401	0.294174	-0.144677	0.088993	-2.366263	-76.460039	-78.256051	26.083730
02580		9.446448	-2.817387	0.364125	-0.075230	0.096100	-2.393866	-74.489056	-79.570640	24.031420
02581		9.786560	-2.444745	0.487780	-0.036497	0.110687	-2.411666	-71.823655	-80.879416	21.306245
02582		10.049963	-2.070026	0.478863	-0.027571	0.125807	-2.417616	-68.228869	-82.158009	17.655932
02583		10.298178	-1.774793	0.365113	-0.018220	0.141842	-2.401858	-63.173255	-83.383802	12.549996
02584		10.452065	-1.488309	0.063365	-0.021669	0.168480	-2.369444	-55.932036	-84.508692	5.256082
02585		10.514268	-1.203094	-0.198831	-0.007206	0.222252	-2.325598	-45.113020	-85.463533	-5.607790
02586		10.392020	-0.959819	-0.101885	0.029324	0.269685	-2.280681	-29.645749	-86.142237	-21.099094
02587		10.224875	-0.597367	0.192646	0.032668	0.300465	-2.239614	-10.003184	-86.420994	-40.763368
02588		10.102124	-0.267282	0.327402	0.015261	0.330282	-2.197536	9.725402	-86.234751	-60.523016
02589		10.057961	0.139702	0.466651	-0.051827	0.341149	-2.155133	25.583471	-85.667737	-76.449810
02590		10.193614	0.320985	0.490712	-0.124414	0.347577	-2.093628	36.711294	-84.875474	-87.686713
02591		10.361324	0.619381	0.784827	-0.182405	0.361453	-2.012124	44.243488	-83.965529	-95.359475
02592		10.581173	0.747471	0.846696	-0.269628	0.372318	-1.910946	49.318185	-83.022590	-100.622391
02593		10.598081	0.953372	0.767647	-0.397081	0.366312	-1.774722	52.756841	-82.097048	-104.319666
02594		10.499938	1.147085	0.581372	-0.505055	0.336941	-1.626387	55.158321	-81.231521	-107.039231
02595		10.207749	1.250986	0.607071	-0.541360	0.305449	-1.490047	56.916784	-80.423010	-109.134773
02596		9.980891	1.283072	0.705555	-0.543068	0.293862	-1.380325	58.224546	-79.666757	-110.778465
02597		9.728115	1.237593	0.699275	-0.533421	0.289840	-1.286874	59.206268	-78.947881	-112.088728
02598		9.655411	1.291637	0.419389	-0.529533	0.291280	-1.185129	59.907744	-78.279455	-113.113825
02599		9.500624	1.230427	0.228206	-0.493102	0.279101	-1.082257	60.431286	-77.659652	-113.938188
02600		9.393487	1.186505	0.374450	-0.411214	0.244462	-0.967854	60.874436	-77.109153	-114.633795
02601		9.299346	1.054472	0.653149	-0.325600	0.191249	-0.864180	61.311459	-76.620700	-115.274311
02602		9.229556	0.950826	0.798494	-0.271716	0.128298	-0.766842	61.763976	-76.200894	-115.900086
02603		9.145606	0.741638	0.812503	-0.226253	0.072608	-0.689970	62.240044	-75.830585	-116.524500
02604		8.955008	0.680220	0.772420	-0.165501	0.020463	-0.614350	62.749875	-75.514414	-117.148626
02605		8.860899	0.603148	0.653636	-0.118165	-0.038999	-0.556618	63.319796	-75.238975	-117.807853
02606		8.857795	0.618568	0.471778	-0.039065	-0.088199	-0.502070	63.957306	-75.005072	-118.490696
02607		8.975372	0.625065	0.245403	0.071164	-0.131755	-0.449180	64.670327	-74.804999	-119.187250
02608		9.083951	0.674761	0.161687	0.221216	-0.161131	-0.409607	65.474081	-74.632437	-119.889132
02609		9.198698	1.005643	0.155114	0.351214	-0.176686	-0.376372	66.334819	-74.476559	-120.573625
02610		9.297726	1.510400	0.175475	0.447338	-0.188053	-0.340184	67.229864	-74.341190	-121.236826
02611		9.251669	1.999317	0.428530	0.505189	-0.208641	-0.296996	68.148711	-74.229154	-121.890901
02612		9.175650	2.267055	0.737637	0.500984	-0.233879	-0.252316	69.070989	-74.144624	-122.551183
02613		9.011571	2.364718	0.753474	0.403585	-0.241427	-0.214397	69.915594	-74.078106	-123.189135
02614		8.832511	2.129799	0.620252	0.300281	-0.261648	-0.181019	70.712542	-74.032084	-123.839100
02615		8.808744	2.027624	0.621258	0.243544	-0.295544	-0.150181	71.515935	-74.005573	-124.529852
02616		8.871337	2.020447	0.559198	0.195559	-0.311396	-0.107833	72.295180	-74.003322	-125.223985
02617		8.917547	2.073584	0.612541	0.173782	-0.312766	-0.057918	73.033681	-74.025216	-125.888822
02618		8.828606	2.175373	0.697811	0.132023	-0.329414	0.007048	73.747079	-74.084038	-126.552159
02619		8.726441	2.102085	0.669901	0.090300	-0.342673	0.070427	74.431469	-74.176894	-127.210085
02620		8.711755	1.955146	0.800019	0.105180	-0.355062	0.146002	75.118581	-74.311975	-127.861466
02621		8.821504	1.849552	0.728952	0.083645	-0.347881	0.229266	75.746518	-74.489527	-128.463878
02622		9.055958	2.379000	0.489755	0.063360	-0.380895	0.298036	76.411924	-74.708661	-129.116474
02623		10.063042	4.103142	-0.856029	-0.072201	-0.404462	0.298188	77.064949	-74.928440	-129.836199
02624		10.773517	4.956854	1.861308	0.165132	-0.481665	0.234704	78.068444	-75.119999	-130.777095
02625		11.112509	5.757497	2.562029	-0.130231	-0.341906	0.096428	78.684710	-75.213349	-131.491982
02626		10.770502	4.737643	3.974499	0.153772	-0.264592	-0.010724	79.351357	-75.236945	-132.090370
02627		10.446998	4.539718	4.853532	-0.167733	-0.158799	0.110199	79.557466	-75.314570	-132.403250
02628		9.836620	3.978136	3.681098	-0.843950	-0.117809	0.313613	79.211598	-75.504346	-132.545581
02629		9.602037	4.170103	2.735506	-1.133250	-0.158281	0.460114	78.714668	-75.778742	-132.703581
02630		9.663752	4.502272	1.758607	-1.329079	-0.196550	0.513461	78.168566	-76.090304	-132.925707
02631		9.999957	4.233785	1.087506	-1.419797	-0.129167	0.491357	77.407450	-76.378845	-132.980437
02632		9.855219	3.235472	1.083787	-1.387050	-0.046146	0.466332	76.479135	-76.645939	-132.843118
02633		9.591147	1.945716	0.218444	-1.364949	-0.047032	0.445200	75.546025	-76.897386	-132.688755
02634		9.558892	1.098053	-1.018914	-1.258882	-0.074302	0.450017	74.727252	-77.158441	-132.588778
02635		9.680073	1.044554	-0.989823	-1.003515	-0.148874	0.490115	74.184163	-77.449620	-132.622165
02636		9.930752	1.307922	-0.800368	-0.735855	-0.251016	0.553817	74.008086	-77.795167	-132.873607
02637		10.210950	1.224267	-1.185482	-0.460908	-0.345285	0.600369	74.198294	-78.178416	-133.338645
02638		10.106469	0.739798	-1.063580	-0.072761	-0.426612	0.602085	74.866984	-78.577036	-134.063952
02639		9.961672	0.258602	-0.458736	0.332424	-0.468779	0.577929	75.951674	-78.963834	-134.976080
02640		10.090606	-0.080079	-0.022761	0.532973	-0.457345	0.586896	77.193546	-79.352628	-135.929654
02641		10.341253	-0.506614	0.743752	0.742998	-0.441765	0.636031	78.552544	-79.761302	-136.879070
02642		10.797969	0.036965	0.821403	0.446972	-0.401429	0.753870	79.640499	-80.229702	-137.723825
02643		11.497480	0.177303	1.528651	0.199241	-0.381910	0.881556	80.528028	-80.764687	-138.508378
02644		11.352468	0.322803	2.363593	0.173374	-0.396256	0.950104	81.529138	-81.338476	-139.421312
02645		10.539458	-0.406803	1.445071	-0.004731	-0.462944	0.946145	82.812225	-81.911798	-140.721444
02646		9.786259	-0.911746	0.781200	-0.032037	-0.494157	0.885939	84.452152	-82.448267	-142.395333
02647		9.369564	-0.637572	0.692303	-0.117933	-0.456811	0.836056	86.113529	-82.947925	-144.138895
02648		9.479026	-0.397187	0.727479	-0.316623	-0.410944	0.814318	87.712324	-83.426939	-145.931804
02649		9.661442	-0.087781	0.528616	-0.561095	-0.335274	0.814982	88.999142	-83.900417	-147.550449
02650		9.514947	0.096547	0.534972	-0.671244	-0.319286	0.797560	90.396580	-84.358651	-149.341923
02651		9.404895	0.336998	-0.467252	-0.684576	-0.367330	0.734987	92.321341	-84.776223	-151.669791
02652		9.258444	0.270632	-1.684633	-0.643645	-0.375346	0.650175	94.672767	-85.135108	-154.400620
02653		9.157610	-0.546115	-2.007937	-0.467582	-0.378863	0.514029	97.394239	-85.406885	-157.400541
02654		9.069464	-1.322458	-1.989857	-0.155631	-0.421049	0.427680	100.867375	-85.610444	-160.973868
02655		9.435964	-1.860270	-1.221560	-0.048793	-0.396364	0.411770	104.494227	-85.792735	-164.639206
02656		9.463209	-2.011421	-0.681309	0.073129	-0.354660	0.428079	108.241295	-85.970362	-168.354017
02657		9.702577	-1.430637	-0.450090	0.301514	-0.399215	0.429633	112.792898	-86.123122	-172.743448
02658		10.008645	-0.492692	-0.053600	0.487810	-0.375681	0.433078	117.622009	-86.255122	-177.303192
02659		10.066346	0.301179	0.355092	0.491302	-0.380900	0.441666	122.845527	-86.366211	177.744436
02660		10.091111	0.730428	0.422234	0.351389	-0.363944	0.443436	128.140845	-86.450709	172.640380
02661		9.965814	0.762481	0.267461	0.150352	-0.341940	0.440605	133.370426	-86.515933	167.487169
02662		9.894688	0.648469	-0.411296	0.014436	-0.321297	0.435451	138.490429	-86.555460	162.366032
02663		9.734573	0.469028	-0.944335	-0.073289	-0.277500	0.413063	143.234270	-86.582842	157.571554
02664		9.529849	0.098621	-1.173034	-0.104693	-0.246406	0.380515	147.555837	-86.588370	153.182157
02665		9.320514	-0.207549	-1.132546	-0.091763	-0.251432	0.354095	151.702211	-86.567298	148.975692
02666		9.559072	-0.447568	-1.023915	-0.030771	-0.268776	0.341084	155.734967	-86.513399	144.917856
02667		9.827200	-0.489438	-1.119680	0.074086	-0.266781	0.351774	159.807794	-86.448189	140.879896
02668		9.841971	-0.362451	-0.832013	0.173148	-0.270443	0.351566	163.741178	-86.361470	137.038104
02669		9.874099	0.151697	-0.537901	0.213514	-0.264647	0.342493	167.453344	-86.262889	133.440900
02670		9.786210	0.603407	-0.375962	0.170387	-0.247754	0.343969	170.887550	-86.157841	130.096952
02671		9.645526	0.566105	-0.413441	0.100414	-0.243842	0.352532	174.199505	-86.044597	126.835073
02672		9.541090	0.237457	-0.430967	0.060958	-0.255053	0.352504	177.260104	-85.911184	123.801874
02673		9.603365	-0.158337	-0.700801	0.061721	-0.274637	0.361934	-179.767858	-85.757163	120.857525
02674		9.533133	-0.330886	-0.554155	0.162422	-0.301286	0.361458	-177.004689	-85.576019	118.179707
02675		9.495843	-0.227246	-0.423431	0.191512	-0.342079	0.371136	-174.366889	-85.363052	115.643846
02676		9.912756	-0.225657	-0.842337	0.207119	-0.317468	0.372594	-171.954756	-85.154276	113.342454
02677		10.090250	-0.288379	-0.756703	0.269990	-0.237077	0.379435	-169.532968	-84.983512	111.067097
02678		9.923313	-0.465768	-1.148630	0.311868	-0.215012	0.391005	-167.178117	-84.814913	108.882225
02679		9.834107	-0.354549	-1.380101	0.373206	-0.193668	0.394867	-164.844316	-84.650566	106.753452
02680		9.725390	-0.084092	-1.085574	0.384972	-0.212585	0.400346	-162.674882	-84.466787	104.795713
02681		9.716649	-0.074422	-0.865528	0.320762	-0.223044	0.399834	-160.667813	-84.271180	102.963794
02682		9.817885	-0.349995	-0.738802	0.252553	-0.222345	0.395242	-158.880050	-84.070712	101.312136
02683		9.924564	-0.931362	-0.854311	0.210981	-0.208611	0.396977	-157.163869	-83.872401	99.708190
02684		9.888083	-1.317346	-0.795192	0.210592	-0.201650	0.381534	-155.638796	-83.676428	98.295388
02685		9.789728	-1.591672	-1.188568	0.188862	-0.194454	0.370205	-154.222173	-83.483141	96.978979
02686		9.683990	-1.806223	-1.536261	0.229176	-0.188918	0.340810	-153.005026	-83.296860	95.885815
02687		9.698145	-1.784231	-1.873334	0.241984	-0.181118	0.320501	-151.882499	-83.117098	94.895293
02688		9.946489	-1.675119	-1.616504	0.306741	-0.149385	0.293137	-150.844430	-82.958995	94.026508
02689		9.985938	-1.323453	-1.194777	0.338246	-0.127721	0.278590	-149.810084	-82.813206	93.179802
02690		9.987433	-1.109658	-1.276919	0.307840	-0.116993	0.268277	-148.872928	-82.674715	92.412823
02691		9.838170	-0.862742	-1.123417	0.342561	-0.104052	0.264800	-147.903079	-82.541069	91.633151
02692		9.608930	-0.782687	-1.298941	0.290421	-0.095046	0.240783	-147.086554	-82.418600	90.977324
02693		9.570230	-0.853133	-1.498360	0.288322	-0.085838	0.217496	-146.328940	-82.305655	90.380000
02694		9.692325	-0.899728	-1.323963	0.351553	-0.075726	0.219120	-145.551448	-82.197025	89.798564
02695		9.772615	-0.938369	-1.519902	0.384674	-0.065773	0.247854	-144.628397	-82.081299	89.089653
02696		9.558554	-0.600590	-1.280131	0.434600	-0.055914	0.263364	-143.650591	-81.964608	88.353673
02697		9.337019	-0.525544	-1.304292	0.376987	-0.056583	0.262675	-142.710674	-81.844822	87.622870
02698		9.262620	-0.582150	-1.430154	0.322741	-0.066592	0.258929	-141.884678	-81.721622	86.975082
02699		9.400723	-0.880726	-1.318911	0.310833	-0.063056	0.254977	-141.069042	-81.598693	86.331120
02700		9.514247	-1.182957	-1.156634	0.343324	-0.063816	0.244882	-140.308606	-81.479273	85.761130
02701		9.455393	-1.314157	-1.119823	0.341287	-0.045666	0.226235	-139.556631	-81.372080	85.198808
02702		9.465964	-1.320341	-1.220446	0.350837	-0.043586	0.209215	-138.878226	-81.272670	84.715830
02703		9.470559	-1.106851	-1.477066	0.335641	-0.030725	0.206167	-138.178453	-81.177443	84.202766
02704		9.503757	-1.102611	-1.578105	0.310440	-0.022593	0.200929	-137.519725	-81.088425	83.716028
02705		9.530343	-1.287816	-1.476292	0.301427	-0.017105	0.198608	-136.851308	-80.999995	83.214606
02706		9.641014	-1.583895	-1.303204	0.340135	-0.016113	0.196018	-136.194924	-80.913895	82.747236
02707		9.541808	-1.371535	-0.944005	0.405892	-0.011808	0.198685	-135.476047	-80.825716	82.255090
02708		9.416943	-0.888049	-0.706580	0.391913	-0.023223	0.193814	-134.834971	-80.735890	81.833053
02709		9.469177	-0.535466	-0.917260	0.265586	-0.029336	0.188160	-134.287377	-80.643330	81.432768
02710		9.639152	-0.727938	-1.255481	0.192579	-0.015864	0.189736	-133.770904	-80.556803	81.021045
02711		9.871844	-1.250789	-1.309241	0.181114	0.000571	0.191514	-133.207930	-80.473578	80.555876
02712		9.811671	-1.879638	-1.174467	0.228060	0.013913	0.184840	-132.625426	-80.399433	80.097612
02713		9.699095	-2.023554	-1.247940	0.305913	0.013538	0.183322	-131.994772	-80.323071	79.636116
02714		9.673455	-1.801423	-1.062398	0.362717	0.003278	0.186791	-131.374049	-80.242418	79.217143
02715		9.550959	-1.606917	-0.925080	0.407934	0.000086	0.187227	-130.727050	-80.157531	78.798175
02716		9.562214	-1.417584	-0.859215	0.434003	-0.001810	0.188137	-130.092886	-80.072849	78.406807
02717		9.563378	-0.926460	-0.904521	0.401217	0.001613	0.195181	-129.447134	-79.983478	77.984987
02718		9.602583	-0.551766	-0.805012	0.316529	0.008378	0.194216	-128.859736	-79.898328	77.572547
02719		9.678649	-0.636796	-0.887695	0.209950	0.003302	0.188760	-128.350076	-79.811161	77.177409
02720		9.690402	-0.991910	-0.941697	0.162819	0.000638	0.187448	-127.898877	-79.725043	76.813653
02721		9.679040	-1.288865	-0.932771	0.126995	0.002581	0.195629	-127.440417	-79.633555	76.422010
02722		9.505610	-1.532130	-0.963192	0.133400	-0.000902	0.202115	-126.996079	-79.539201	76.047882
02723		9.458722	-1.655767	-1.090750	0.145146	-0.014238	0.199030	-126.577310	-79.439357	75.706946
02724		9.516732	-1.748651	-1.048031	0.162191	-0.015760	0.202547	-126.166756	-79.338766	75.383733
02725		9.561656	-1.712554	-1.132151	0.201652	-0.007788	0.208769	-125.696812	-79.235628	75.023446
02726		9.601953	-1.465046	-1.111399	0.205394	0.001128	0.212117	-125.218158	-79.135248	74.655886
02727		9.526459	-1.293456	-0.951901	0.199837	0.006725	0.213222	-124.722218	-79.033680	74.267820
02728		9.453570	-1.142033	-0.888675	0.155156	0.003558	0.219371	-124.269907	-78.929520	73.897520
02729		9.482088	-1.336495	-0.747859	0.081920	0.009234	0.218569	-123.842526	-78.825171	73.510189
02730		9.556396	-1.623110	-0.860997	0.068748	0.003746	0.223754	-123.447070	-78.717939	73.147113
02731		9.708783	-1.659043	-0.978223	0.064368	0.015004	0.233438	-123.007574	-78.607283	72.736883
02732		9.605410	-1.505929	-0.965871	0.070271	0.034895	0.232041	-122.539400	-78.504657	72.300230
02733		9.459609	-1.391800	-1.045699	0.017611	0.021208	0.225661	-122.139744	-78.398479	71.903011
02734		9.395504	-1.623145	-0.897767	-0.034335	0.021002	0.228959	-121.783820	-78.291920	71.519446
02735		9.455883	-1.878483	-0.968459	-0.008402	0.008637	0.239941	-121.422132	-78.174044	71.145468
02736		9.581201	-1.878353	-0.870340	0.025609	0.011051	0.250056	-121.039265	-78.053213	70.769145
02737		9.599135	-1.893518	-0.870317	0.030738	0.013426	0.252287	-120.641927	-77.929668	70.381322
02738		9.623001	-1.882836	-1.001219	0.030294	0.010690	0.258304	-120.261458	-77.803616	70.009851
02739		9.660761	-2.087971	-1.033670	0.076659	0.000666	0.265271	-119.865603	-77.668901	69.650105
02740		9.686227	-1.994861	-1.032862	0.146887	0.004777	0.278324	-119.422102	-77.530115	69.282120
02741		9.738073	-1.691912	-0.978723	0.181785	0.008691	0.292282	-118.931543	-77.382951	68.886678
02742		9.632373	-1.174417	-0.876443	0.202664	0.016754	0.308423	-118.411673	-77.231006	68.472751
02743		9.571958	-0.575724	-0.843330	0.174311	0.039294	0.320737	-117.845386	-77.076328	67.994764
02744		9.358700	-0.081572	-0.988774	-0.030847	0.055528	0.327967	-117.373694	-76.923096	67.492464
02745		9.263882	-0.888127	-0.930471	-0.259189	0.047765	0.324796	-117.055512	-76.767264	67.013557
02746		9.297074	-1.915188	-0.899513	-0.237491	0.045423	0.336793	-116.734414	-76.605506	66.543698
02747		9.631040	-2.326888	-1.034352	-0.208158	0.043816	0.353065	-116.384694	-76.433072	66.061768
02748		9.597826	-2.319505	-0.817794	-0.183941	0.063655	0.362868	-115.987241	-76.261190	65.544241
02749		9.487824	-2.013824	-1.268519	-0.133565	0.041157	0.356888	-115.617889	-76.084622	65.085410
02750		9.565171	-2.000348	-1.326694	-0.207760	0.048864	0.346772	-115.302397	-75.915890	64.637517
02751		9.684642	-2.476134	-1.027212	-0.172093	0.040874	0.347333	-114.984645	-75.742968	64.208436
02752		9.959991	-2.745054	-1.122956	-0.093776	0.022634	0.357976	-114.664963	-75.560909	63.822939
02753		9.955375	-2.691723	-0.965625	0.015522	0.035457	0.373484	-114.245548	-75.371753	63.399196
02754		9.798907	-2.228738	-0.972301	0.089991	0.020129	0.389171	-113.817559	-75.171480	63.009917
02755		9.615422	-1.767509	-1.054025	0.112839	0.029963	0.403781	-113.349410	-74.963565	62.592675
02756		9.470029	-1.734246	-1.217475	0.044400	0.018963	0.407508	-112.956703	-74.751876	62.212135
02757		9.594360	-1.931936	-1.179774	0.042625	0.004720	0.420835	-112.586475	-74.527989	61.853856
02758		9.638898	-2.352507	-1.068913	0.034872	0.013392	0.431286	-112.212164	-74.301199	61.485937
02759		9.564790	-2.746062	-1.012847	0.114097	0.019612	0.422651	-111.792906	-74.078368	61.118463
02760		9.918022	-2.546738	-0.933846	0.171526	0.026102	0.429327	-111.340100	-73.853885	60.749521
02761		9.969920	-2.423862	-0.737762	0.198074	0.048455	0.445135	-110.826602	-73.623413	60.333173
02762		9.873455	-2.284375	-1.172506	0.187356	0.027676	0.460756	-110.363909	-73.380696	59.962507
02763		9.822744	-2.297959	-0.847058	0.185220	0.043242	0.465486	-109.878888	-73.136431	59.567166
02764		9.800944	-2.500324	-0.928512	0.163282	0.036861	0.467164	-109.433609	-72.890333	59.199334
02765		9.696009	-2.625400	-1.127906	0.196887	0.042345	0.481897	-108.957877	-72.635325	58.819670
02766		9.555414	-2.515121	-0.829521	0.217617	0.054278	0.502595	-108.454708	-72.371452	58.422763
02767		9.411982	-2.569978	-0.893293	0.235601	0.047607	0.527310	-107.948018	-72.090832	58.032765
02768		9.311976	-2.504096	-0.936107	0.237963	0.050767	0.551594	-107.439752	-71.797534	57.641516
02769		9.354110	-2.367149	-0.846058	0.215196	0.060470	0.567164	-106.930995	-71.495303	57.235716
02770		9.124305	-2.517096	-0.661221	0.170540	0.060836	0.574134	-106.462029	-71.189226	56.843807
02771		9.198435	-2.697770	-0.947140	0.177516	0.060244	0.580143	-105.997297	-70.877864	56.460262
02772		9.488105	-2.322589	-1.196224	0.100802	0.075137	0.611563	-105.556175	-70.551405	56.054042
02773		9.753765	-2.341119	-0.996988	-0.000026	0.096838	0.622432	-105.145067	-70.220482	55.617891
02774		9.910548	-2.501762	-1.039241	0.009644	0.092012	0.627462	-104.750759	-69.885808	55.204234
02775		9.899266	-2.741084	-0.809663	-0.034358	0.105633	0.629104	-104.370839	-69.550680	54.778485
02776		9.788336	-2.783408	-0.628459	-0.040793	0.108575	0.641575	-104.001376	-69.208645	54.358696
02777		9.759973	-2.604775	-0.779209	-0.066433	0.116305	0.647794	-103.643182	-68.862887	53.934619
02778		9.842926	-2.538892	-0.751727	-0.089856	0.125092	0.660114	-103.296848	-68.510906	53.507534
02779		10.020523	-2.375511	-0.924730	-0.147787	0.139266	0.664675	-102.972145	-68.157163	53.067294
02780		10.043168	-2.534827	-1.017492	-0.207588	0.151519	0.671452	-102.677103	-67.800483	52.620670
02781		10.068335	-2.925945	-0.902509	-0.158188	0.175983	0.681232	-102.327652	-67.440559	52.144967
02782		9.283498	-2.768850	-0.510187	-0.011022	0.146916	0.688815	-101.945960	-67.071614	51.724182
02783		10.314323	-3.936505	-2.199265	-0.277940	0.220963	0.696775	-101.627849	-66.706228	51.205396
02784		9.181856	-3.452967	-0.104729	-0.086464	0.089982	0.694849	-101.384378	-66.325621	50.885858
02785		9.889624	-4.100783	-1.267539	-0.071657	0.178484	0.695863	-101.027684	-65.954038	50.451136
02786		9.502453	-4.703041	-0.569648	0.178067	0.126550	0.707956	-100.604261	-65.568480	50.098601
02787		9.516454	-4.477469	-0.189251	0.323627	0.138996	0.721057	-100.090204	-65.176000	49.737288
02788		9.175374	-4.074910	-0.120377	0.428866	0.136008	0.724602	-99.534077	-64.779491	49.394669
02789		8.871827	-3.561904	-0.154423	0.525683	0.130631	0.734379	-98.939071	-64.375880	49.069628
02790		8.899763	-3.085276	-0.212069	0.486809	0.136998	0.753648	-98.371126	-63.960159	48.748454
02791		8.844852	-2.895489	-0.250818	0.439343	0.158755	0.767867	-97.814639	-63.537309	48.408958
02792		8.643125	-2.741559	-0.458660	0.367454	0.150907	0.781075	-97.321560	-63.104479	48.092685
02793		8.545799	-3.062734	-0.495582	0.262528	0.147598	0.789718	-96.901163	-62.666206	47.789694
02794		8.413550	-3.290243	-0.456777	0.242541	0.148614	0.813489	-96.501096	-62.212679	47.495107
02795		8.331619	-3.596838	-0.447705	0.214715	0.154661	0.835871	-96.116893	-61.746900	47.199572
02796		8.265367	-3.848734	-0.428141	0.215691	0.148228	0.853069	-95.749557	-61.269008	46.922161
02797		8.351917	-3.846920	-0.353834	0.221112	0.140202	0.873365	-95.393870	-60.779425	46.660734
02798		8.469751	-3.964378	-0.248123	0.202158	0.144188	0.891398	-95.054945	-60.277852	46.404412
02799		8.631867	-3.986339	-0.069054	0.199744	0.140665	0.906348	-94.727480	-59.768132	46.158856
02800		8.741083	-3.986896	0.027999	0.190653	0.146350	0.925764	-94.409162	-59.245619	45.916148
02801		8.848570	-3.840009	0.210263	0.183459	0.163550	0.933231	-94.085459	-58.720355	45.661507
02802		8.835781	-3.674871	0.388861	0.141787	0.174205	0.959014	-93.785052	-58.178603	45.404254
02803		8.822736	-3.634986	0.398420	0.077038	0.189646	0.964029	-93.514268	-57.635630	45.137237
02804		8.759790	-3.505555	0.280173	0.015752	0.196827	0.977729	-93.281897	-57.082704	44.871934
02805		8.851318	-3.127737	0.238067	-0.034454	0.201719	1.004234	-93.078503	-56.516321	44.605878
02806		8.877838	-2.746536	0.221377	-0.065827	0.226424	1.039250	-92.880330	-55.928044	44.322016
02807		8.710630	-2.546636	0.183458	-0.180316	0.222600	1.063760	-92.755317	-55.327779	44.046080
02808		8.561779	-3.198873	0.354456	-0.368239	0.207210	1.061226	-92.758866	-54.725788	43.792857
02809		8.315453	-4.401621	0.058553	-0.541347	0.174646	1.055686	-92.889073	-54.129321	43.572391
02810		8.086843	-5.728016	-0.173063	-0.609738	0.147692	1.059350	-93.083331	-53.527213	43.380186
02811		7.709087	-7.076218	0.019122	-0.493833	0.121498	1.107140	-93.227884	-52.900483	43.208247
02812		7.151953	-8.130715	0.012188	-0.250290	0.084692	1.135466	-93.263409	-52.253309	43.072330
02813		6.883090	-8.725936	-0.282576	0.051353	0.043001	1.140588	-93.156885	-51.604634	42.975380
02814		6.736280	-8.792708	-0.338293	0.361125	0.042125	1.106797	-92.881636	-50.972258	42.887727
02815		6.495141	-8.462499	0.011030	0.610204	0.046884	1.052753	-92.465825	-50.372828	42.803231
02816		6.418863	-7.896795	0.332207	0.777025	0.040483	0.993573	-91.969848	-49.804536	42.736963
02817		6.413874	-7.626199	0.328957	0.828868	0.027685	0.925932	-91.458436	-49.276116	42.690191
02818		6.472191	-7.495743	0.386224	0.807237	0.042297	0.855728	-90.959270	-48.786148	42.641572
02819		6.425198	-7.292825	0.525622	0.743805	0.065867	0.803643	-90.484285	-48.327289	42.577792
02820		6.399185	-7.003850	0.428686	0.673997	0.090237	0.767589	-90.041295	-47.887486	42.501387
02821		6.481837	-6.837026	0.408479	0.631244	0.107144	0.761443	-89.613972	-47.451902	42.414062
02822		6.549056	-6.638090	0.476348	0.565166	0.122747	0.739341	-89.221742	-47.027389	42.320802
02823		6.773360	-6.287890	0.609158	0.473070	0.118935	0.716490	-88.885478	-46.616571	42.232955
02824		7.178606	-5.816344	0.657639	0.360422	0.119369	0.699014	-88.619195	-46.214492	42.150349
02825		7.380609	-5.298684	0.485603	0.242981	0.116886	0.685321	-88.421122	-45.821092	42.070266
02826		7.493525	-4.890385	0.319639	0.156912	0.099568	0.679159	-88.287184	-45.430325	42.008577
02827		7.683850	-4.706138	0.472481	0.032546	0.082890	0.696950	-88.232831	-45.030919	41.960073
02828		7.757264	-4.714016	0.685009	-0.168658	0.067679	0.722448	-88.306119	-44.615849	41.926867
02829		7.685692	-4.915299	0.853768	-0.363393	0.042173	0.745796	-88.502123	-44.189625	41.911328
02830		7.512608	-5.016051	0.854041	-0.484592	-0.031927	0.777221	-88.810160	-43.744688	41.955007
02831		7.767060	-5.338310	0.350989	-0.427056	-0.072859	0.799966	-89.101994	-43.289140	42.025565
02832		8.082806	-5.604947	-0.327647	-0.269078	-0.100202	0.809830	-89.318369	-42.825777	42.116586
02833		8.361434	-5.516562	-0.823657	-0.066787	-0.063345	0.799504	-89.394355	-42.370474	42.174417
02834		8.303989	-5.442921	-0.667376	-0.075865	-0.021350	0.742942	-89.455274	-41.944734	42.200329
02835		8.193652	-5.919171	-0.232268	-0.217714	0.080416	0.618354	-89.541485	-41.592871	42.144441
02836		7.911446	-6.187076	0.408597	-0.310135	0.109682	0.493874	-89.667849	-41.309257	42.066809
02837		8.049820	-6.263999	0.346704	-0.319425	0.137141	0.411794	-89.782920	-41.076121	41.965625
02838		8.422653	-6.616658	-0.465717	-0.439113	0.236455	0.347139	-89.919697	-40.876644	41.790441
02839		8.265011	-6.782046	-1.060405	-0.518443	0.319747	0.316602	-90.058547	-40.698729	41.550267
02840		7.483498	-6.954061	-0.946889	-0.479381	0.269567	0.315228	-90.202815	-40.518226	41.349837
02841		7.443624	-7.079600	-0.081242	-0.186872	0.265139	0.301771	-90.180039	-40.349589	41.151426
02842		7.114576	-6.764870	0.112655	-0.125092	0.369393	0.334662	-90.074501	-40.158068	40.877088
02843		6.862936	-6.283890	-0.942079	-0.388090	0.316092	0.402458	-90.144326	-39.931737	40.641850
02844		6.776786	-5.681094	-1.803168	-0.514440	0.123813	0.462849	-90.381274	-39.666622	40.551448
02845		6.877500	-6.283975	-2.137109	-0.379217	-0.067260	0.375556	-90.629208	-39.455235	40.601131
02846		6.959848	-6.865757	-1.210816	-0.162823	-0.096020	0.223757	-90.768662	-39.326100	40.673780
02847		6.923301	-8.037525	-1.227635	-0.233191	0.059830	0.056893	-90.874653	-39.298285	40.631335
02848		6.497673	-8.863911	-1.303652	-0.295512	0.183516	-0.111420	-90.960932	-39.363519	40.500224
02849		5.869667	-8.389503	-3.655139	-0.237305	0.311872	-0.323686	-90.953510	-39.556120	40.275490
02850		5.925889	-8.670090	-1.725874	0.148394	0.221917	-0.532285	-90.769009	-39.862696	40.119694
02851		5.820093	-7.857027	0.399211	0.623771	0.158223	-0.732556	-90.340596	-40.287234	40.009676
02852		5.582268	-7.432256	0.785989	0.796845	0.150098	-0.966777	-89.813426	-40.841029	39.901006
02853		5.304341	-6.859411	0.760952	0.977644	0.032391	-1.179858	-89.233854	-41.520688	39.871947
02854		5.158302	-6.781720	-0.373228	1.096224	0.129005	-1.451580	-88.527256	-42.350592	39.754400
02855		4.495373	-6.165841	-0.197130	0.958571	0.149863	-1.785493	-87.870358	-43.374114	39.596564
02856		4.346809	-6.120658	0.012255	1.038682	-0.202890	-2.118104	-87.341055	-44.591365	39.691282
02857		5.071883	-6.371115	-0.190766	1.244410	-0.285862	-2.511281	-86.720176	-46.040290	39.821200
02858		6.240780	-6.187571	1.694349	1.283241	-0.196124	-2.822638	-85.997910	-47.661337	39.838969
02859		7.736380	-5.519069	2.763892	1.083598	-0.166699	-2.900443	-85.345207	-49.329045	39.796837
02860		8.743013	-4.710103	2.519220	0.739628	-0.090133	-2.820014	-84.820469	-50.943266	39.665273
02861		8.415389	-4.131745	2.477898	0.441608	0.058228	-2.782246	-84.336228	-52.530782	39.371458
02862		7.533710	-3.279974	2.125234	0.250938	0.050458	-2.860925	-83.932370	-54.158480	39.047235
02863		7.231287	-2.345194	1.801230	0.067144	-0.086844	-2.966756	-83.704555	-55.857796	38.816936
02864		7.810498	-2.105834	2.454051	-0.058313	-0.175819	-3.009333	-83.604348	-57.582651	38.657048
02865		8.757239	-2.815306	3.343765	-0.405430	-0.159626	-3.003473	-83.675302	-59.307451	38.468604
02866		9.093240	-5.541595	3.615357	-0.774651	-0.201912	-3.049839	-83.997279	-61.057250	38.328052
02867		10.362135	-5.028741	0.625967	-1.234207	-0.128110	-3.140722	-84.503197	-62.859470	38.101054
02868		10.872764	-6.441902	-0.617857	-1.167816	-0.008102	-3.169860	-84.845227	-64.668269	37.736325
02869		10.712308	-5.811110	0.544342	-0.675117	0.046068	-3.166070	-84.814731	-66.476813	37.278832
02870		10.023372	-6.137503	0.255664	-0.540760	0.103542	-3.139354	-84.591077	-68.262405	36.700820
02871		9.668131	-6.224723	0.280372	-0.272179	0.103492	-3.137533	-84.128624	-70.049504	36.039851
02872		9.808507	-5.167956	0.203260	-0.118770	0.078589	-3.124435	-83.517560	-71.824524	35.321350
02873		9.850593	-4.463101	0.305791	-0.107193	0.082371	-3.055917	-82.758143	-73.560784	34.462200
02874		10.095863	-3.854399	0.750327	-0.056762	0.091983	-2.999785	-81.784857	-75.257031	33.418020
02875		10.374632	-3.200529	0.683871	-0.100333	0.119645	-2.961538	-80.515454	-76.926449	32.051592
02876		10.518757	-3.234162	0.514550	-0.128549	0.152970	-2.891033	-78.839649	-78.540819	30.261379
02877		10.393309	-3.461610	0.583163	-0.114019	0.150383	-2.813138	-76.643918	-80.100917	27.960974
02878		10.284358	-3.619601	0.498206	-0.085392	0.119223	-2.737207	-73.816351	-81.600926	25.047615
02879		10.193870	-3.569244	0.405499	-0.042148	0.105694	-2.670011	-69.877594	-83.039240	21.049354
02880		10.025642	-3.283042	0.493083	0.029496	0.137638	-2.614146	-63.883879	-84.388474	15.036808
02881		9.763306	-2.814758	0.698388	0.063399	0.167978	-2.584067	-54.175894	-85.614994	5.329022
02882		9.601153	-2.150270	0.672063	0.022751	0.195591	-2.563780	-37.960619	-86.606753	-10.909577
02883		9.411791	-1.688057	0.613623	-0.096182	0.214148	-2.514498	-13.063701	-87.130316	-35.897542
02884		9.436746	-1.287774	0.538475	-0.190989	0.211698	-2.435051	14.242596	-86.993474	-63.348037
02885		9.882825	-0.928911	0.443090	-0.292545	0.236766	-2.339092	34.149922	-86.310062	-83.456406
02886		10.189563	-0.785835	0.551937	-0.376151	0.280186	-2.239381	46.034880	-85.357822	-95.588357
02887		10.221107	-0.626946	0.545899	-0.483528	0.323422	-2.145337	53.034200	-84.299902	-102.894306
02888		9.986145	-0.507183	0.636965	-0.573813	0.354002	-2.057887	57.356481	-83.216822	-107.572926
02889		9.768676	-0.391979	0.730936	-0.646940	0.379414	-1.975394	60.118828	-82.135831	-110.731887
02890		9.606147	-0.138602	0.864678	-0.702083	0.399838	-1.892465	61.933457	-81.077582	-112.972753
02891		9.467175	-0.092109	0.781942	-0.799411	0.383005	-1.786289	63.150255	-80.068022	-114.670855
02892		9.485262	-0.232174	0.687516	-0.840622	0.365923	-1.668609	63.976655	-79.119967	-116.000795
02893		9.483967	-0.279630	0.387636	-0.894946	0.356888	-1.551200	64.477644	-78.230865	-117.035142
02894		9.456525	-0.376866	0.311347	-0.885150	0.353427	-1.437789	64.769035	-77.401129	-117.852138
02895		9.409679	-0.311113	0.385212	-0.819093	0.351522	-1.344835	64.931646	-76.618666	-118.501186
02896		9.357453	-0.184992	0.476548	-0.768658	0.359301	-1.255434	64.982862	-75.881188	-119.007375
02897		9.163744	-0.297714	0.493482	-0.692577	0.335484	-1.159927	65.002058	-75.198722	-119.437597
02898		8.977242	-0.398442	0.374958	-0.596922	0.291170	-1.052758	65.051768	-74.582849	-119.843405
02899		8.763305	-0.696940	0.303552	-0.453963	0.235784	-0.955955	65.177386	-74.030696	-120.244715
02900		8.589387	-0.847145	0.275722	-0.299793	0.162920	-0.868909	65.437203	-73.540715	-120.694239
02901		8.392554	-0.886216	0.252164	-0.151067	0.095644	-0.775131	65.797395	-73.115705	-121.161293
02902		8.200899	-0.908885	0.376472	0.006993	-0.001345	-0.688159	66.332509	-72.756946	-121.716917
02903		8.316974	-0.674583	0.168142	0.162106	-0.096733	-0.598729	67.022550	-72.466549	-122.343420
02904		8.405315	-0.429089	-0.029858	0.324911	-0.166156	-0.513929	67.847609	-72.232414	-123.013943
02905		8.469888	-0.261282	0.019448	0.487944	-0.224820	-0.435317	68.785782	-72.051432	-123.706634
02906		8.546660	-0.123083	-0.033902	0.639380	-0.271881	-0.349757	69.825462	-71.920188	-124.414746
02907		8.557711	-0.034833	0.069695	0.795839	-0.302106	-0.255958	70.931631	-71.843828	-125.099580
02908		8.600115	0.276448	0.188059	0.900959	-0.331651	-0.170158	72.098581	-71.812693	-125.784540
02909		8.704110	0.826434	0.451226	0.944375	-0.342332	-0.077284	73.251833	-71.832865	-126.429556
02910		8.712549	1.387467	0.723898	0.889356	-0.342075	0.027670	74.330274	-71.903781	-127.028221
02911		8.790847	1.719062	0.825641	0.773422	-0.330277	0.148859	75.267795	-72.039935	-127.548805
02912		8.847461	1.827742	0.761800	0.635248	-0.306421	0.272714	76.047349	-72.235709	-127.985498
02913		8.813574	1.988529	0.563819	0.495800	-0.291458	0.404375	76.672345	-72.504559	-128.343881
02914		9.310165	4.223450	-0.524044	0.248482	-0.403670	0.467858	77.351816	-72.818587	-128.906610
02915		10.720913	5.813903	-1.758543	-0.062647	-0.624573	0.289696	78.345171	-73.060400	-129.983796
02916		12.745244	7.615803	1.487366	0.431916	-0.482505	-0.137712	79.540942	-73.036731	-130.975232
02917		12.452597	8.720884	2.721136	0.222811	-0.069753	-0.319114	79.907706	-72.867557	-131.225768
02918		11.576398	7.367421	2.309768	0.065790	-0.068885	-0.102716	80.112788	-72.817146	-131.401013
02919		10.998002	5.045068	1.750394	0.205219	-0.332915	0.278280	80.760076	-73.008800	-131.955694
02920		10.623033	4.259162	1.263708	-0.111276	-0.410273	0.547722	81.311412	-73.356077	-132.598329
02921		9.758802	4.538165	2.713901	-0.384115	-0.307884	0.624640	81.504821	-73.738735	-133.030005
02922		9.150435	4.659586	3.818944	-0.723557	-0.221638	0.577402	81.363881	-74.085423	-133.314849
02923		9.128769	3.414377	2.872474	-1.011260	-0.172609	0.483696	80.982450	-74.376488	-133.521237
02924		9.458943	2.200146	1.776840	-0.999701	-0.125303	0.429620	80.532064	-74.631645	-133.648318
02925		9.491063	1.240211	0.617252	-0.985959	-0.101680	0.468676	80.012802	-74.908135	-133.696383
02926		9.470180	0.281714	-0.167206	-0.920854	-0.150238	0.539661	79.607517	-75.228399	-133.823047
02927		9.383930	-0.246020	-0.064220	-0.693908	-0.228083	0.590642	79.469048	-75.587231	-134.091512
02928		9.163825	-0.254447	-0.146682	-0.476910	-0.299458	0.612593	79.620402	-75.964255	-134.529606
02929		9.147315	0.120784	-0.213470	-0.210136	-0.350324	0.598861	80.057857	-76.340188	-135.104824
02930		9.592081	0.979885	-0.966379	-0.055958	-0.373496	0.554899	80.694879	-76.690114	-135.792934
02931		10.038620	1.733386	-1.012855	0.137816	-0.350556	0.521052	81.427808	-77.019307	-136.465079
02932		10.466346	2.354118	-1.184244	0.091849	-0.337525	0.506123	82.150935	-77.334565	-137.152790
02933		10.563220	2.052210	-0.355393	0.141660	-0.348307	0.498140	82.962131	-77.646529	-137.901043
02934		10.571037	1.211484	-0.278538	0.016088	-0.361339	0.496569	83.782869	-77.953590	-138.731373
02935		10.444710	0.338518	0.224340	0.064804	-0.387061	0.513360	84.734500	-78.271602	-139.666324
02936		10.505218	-0.279655	0.768490	0.171124	-0.419398	0.555652	85.889256	-78.609014	-140.744966
02937		10.482841	-0.465354	1.081329	0.291624	-0.429604	0.616568	87.195766	-78.979941	-141.906914
02938		10.486390	-0.258147	1.163051	0.310806	-0.417392	0.655480	88.564754	-79.364450	-143.119463
02939		10.404759	0.397518	0.986652	0.220960	-0.336978	0.666064	89.714903	-79.752697	-144.160633
02940		10.061599	1.021783	0.468762	0.088552	-0.272735	0.649726	90.668549	-80.124677	-145.077701
02941		9.698822	1.282421	-0.108907	-0.014415	-0.245014	0.615117	91.528763	-80.478229	-145.959144
02942		9.502264	1.480910	-0.743929	-0.121684	-0.238671	0.576827	92.372932	-80.804035	-146.885419
02943		9.727117	1.228260	-1.252213	-0.242449	-0.227351	0.557301	93.158482	-81.120517	-147.821831
02944		9.812306	0.786265	-1.290697	-0.270454	-0.199155	0.546422	93.888450	-81.426070	-148.717180
02945		9.535317	-0.060861	-1.378021	-0.202037	-0.224075	0.526325	94.803843	-81.720860	-149.759836
02946		9.283415	-0.680198	-1.462422	0.034164	-0.290540	0.480512	96.183400	-81.978967	-151.133752
02947		9.256777	-0.869119	-1.354408	0.330457	-0.338343	0.445766	98.002402	-82.212451	-152.779214
02948		9.502367	-0.197195	-0.845496	0.570665	-0.339769	0.428388	100.060500	-82.424131	-154.526076
02949		9.534894	0.576218	-0.118752	0.655706	-0.345731	0.432299	102.305661	-82.632728	-156.411649
02950		9.532869	1.257268	0.079281	0.563108	-0.363929	0.439844	104.700173	-82.828719	-158.500365
02951		9.475473	1.674452	0.169099	0.520497	-0.363507	0.443642	107.199104	-83.019695	-160.718025
02952		9.410450	1.758623	0.224307	0.448421	-0.352606	0.435429	109.716113	-83.191785	-162.994622
02953		9.634391	1.718802	0.265604	0.431711	-0.319059	0.425281	112.177185	-83.357409	-165.223729
02954		10.179629	1.545603	0.297942	0.327803	-0.296512	0.448878	114.632080	-83.525131	-167.505796
02955		10.737813	1.270436	0.176560	0.207963	-0.209596	0.517769	116.906138	-83.743146	-169.674110
02956		10.242052	0.923967	-0.590912	0.019093	-0.161060	0.560582	119.100604	-83.982389	-171.870277
02957		9.705870	0.577606	-1.011871	0.007116	-0.232314	0.551173	121.790888	-84.189974	-174.570878
02958		9.484501	0.700110	-1.164834	0.044893	-0.260339	0.531330	124.750906	-84.361447	-177.519931
02959		9.630546	0.739399	-1.134630	0.034923	-0.239857	0.528610	127.791280	-84.526669	179.445471
02960		9.685726	0.529904	-0.952066	-0.015208	-0.212476	0.533630	130.855749	-84.684572	176.358567
02961		9.658144	0.225110	-0.788824	-0.024551	-0.221465	0.530530	134.142440	-84.824798	173.043989
02962		9.665259	0.080346	-0.845197	0.014675	-0.231651	0.516652	137.576344	-84.933980	169.604716
02963		9.663503	-0.011238	-0.786577	0.058389	-0.230741	0.497426	141.099533	-85.020712	166.101623
02964		9.696996	-0.024652	-0.637245	0.057765	-0.248280	0.481731	144.683900	-85.071804	162.536986
02965		9.750207	-0.022291	-0.612975	0.044386	-0.237784	0.480741	148.312308	-85.110990	158.920873
02966		9.808011	0.059204	-0.648956	-0.002501	-0.214761	0.482960	151.861628	-85.140118	155.357178
02967		9.686843	0.144750	-0.652497	-0.048412	-0.208267	0.474010	155.378581	-85.154085	151.799885
02968		9.674685	0.073600	-0.620187	-0.080852	-0.212254	0.465102	158.797611	-85.143413	148.322018
02969		9.698241	-0.009016	-0.755895	-0.122693	-0.200581	0.459795	162.148561	-85.122789	144.888561
02970		9.648445	-0.156846	-0.837487	-0.153733	-0.189946	0.443358	165.275771	-85.087030	141.661443
02971		9.526875	-0.372245	-0.889529	-0.157581	-0.190490	0.424600	168.267878	-85.035559	138.567756
02972		9.601430	-0.575917	-0.951182	-0.133091	-0.195575	0.411880	171.083483	-84.964974	135.664795
02973		9.699940	-0.771782	-0.913509	-0.069460	-0.195768	0.400289	173.819861	-84.882537	132.877910
02974		9.683734	-0.884488	-0.972255	0.029725	-0.202647	0.400533	176.479560	-84.783551	130.224403
02975		9.740481	-0.799522	-1.154368	0.104619	-0.211861	0.405866	179.155645	-84.669301	127.597394
02976		9.851152	-0.383507	-1.160565	0.168578	-0.202973	0.411089	-178.259210	-84.548435	125.097726
02977		9.838726	0.009240	-1.024465	0.146564	-0.188875	0.412701	-175.742236	-84.425753	122.653704
02978		9.713817	0.076327	-0.994000	0.094642	-0.183563	0.398415	-173.486238	-84.296882	120.441170
02979		9.661594	-0.211017	-1.074849	0.053847	-0.174534	0.402283	-171.284867	-84.164643	118.259900
02980		9.649061	-0.613178	-1.133673	0.067141	-0.173357	0.398512	-169.235162	-84.025396	116.237878
02981		9.711140	-1.047834	-1.157179	0.123965	-0.182941	0.389919	-167.265204	-83.874395	114.328629
02982		9.842106	-0.987269	-1.230200	0.187023	-0.170939	0.391002	-165.371635	-83.723546	112.531646
02983		9.802980	-0.963485	-1.108740	0.224814	-0.169196	0.394370	-163.488325	-83.566333	110.766644
02984		9.852275	-0.855326	-1.118503	0.225786	-0.139179	0.375468	-161.772223	-83.423340	109.169567
02985		9.693700	-0.768690	-1.059419	0.153967	-0.113753	0.351258	-160.201306	-83.292749	107.677216
02986		9.539084	-0.536952	-1.022956	0.131460	-0.108613	0.314302	-158.893779	-83.168894	106.436300
02987		9.588815	-0.406974	-0.959480	0.052374	-0.131177	0.299733	-157.745891	-83.032050	105.310646
02988		9.678636	-0.390986	-0.874626	0.011342	-0.107323	0.275828	-156.756822	-82.911644	104.320577
02989		9.665977	-0.511936	-1.043261	-0.010911	-0.116189	0.267996	-155.829720	-82.785320	103.380292
02990		9.774920	-0.721780	-1.438638	0.002990	-0.100815	0.273466	-154.908059	-82.664953	102.452818
02991		9.617882	-0.769642	-1.401193	0.052162	-0.087493	0.265647	-153.962536	-82.550302	101.529904
02992		9.605187	-0.873723	-1.347734	0.022575	-0.111236	0.261945	-153.153390	-82.423878	100.726738
02993		9.598227	-1.283452	-1.713124	0.068627	-0.111737	0.260178	-152.322578	-82.294807	99.928563
02994		9.767468	-1.532271	-1.750630	0.222960	-0.106773	0.281743	-151.371305	-82.162205	99.097342
02995		9.797184	-1.688233	-1.335345	0.331471	-0.084647	0.291823	-150.279006	-82.034262	98.186737
02996		9.810041	-1.481175	-1.181926	0.376331	-0.084837	0.286779	-149.238869	-81.907059	97.353999
02997		9.676127	-1.051780	-1.074884	0.450512	-0.068933	0.255941	-148.228804	-81.792962	96.594834
02998		9.606330	-0.835973	-0.952413	0.461517	-0.085843	0.237555	-147.360597	-81.676391	95.984659
02999		9.599993	-0.888413	-1.200848	0.378841	-0.081180	0.235333	-146.530234	-81.559608	95.365190
03000		9.692779	-0.975472	-1.464805	0.326733	-0.091685	0.227563	-145.822696	-81.441014	94.839016
03001		9.863335	-1.057502	-1.378499	0.349905	-0.081662	0.214602	-145.111605	-81.328461	94.323040
03002		9.792938	-1.344444	-1.505047	0.346569	-0.072316	0.215800	-144.419692	-81.220941	93.823859
03003		9.741744	-1.892159	-1.323771	0.452854	-0.076543	0.223178	-143.644230	-81.105964	93.302134
03004		9.662872	-1.979104	-0.909574	0.654557	-0.059371	0.232858	-142.729450	-80.996480	92.755676
03005		9.663996	-1.346913	-0.749829	0.683430	-0.070970	0.236048	-141.807768	-80.877084	92.219361
03006		9.697086	-0.671125	-0.959147	0.605972	-0.074188	0.217201	-141.031914	-80.763988	91.785081
03007		9.677276	-0.603895	-1.236031	0.500040	-0.080739	0.190513	-140.393435	-80.654642	91.428924
03008		9.805051	-1.189062	-1.377501	0.496939	-0.052996	0.195264	-139.717537	-80.557308	91.032372
03009		9.745703	-1.795356	-1.535266	0.554436	-0.035348	0.199082	-138.947841	-80.463201	90.574569
03010		9.523094	-1.971952	-1.443880	0.605276	-0.018508	0.191813	-138.164035	-80.380328	90.131322
03011		9.337454	-1.754816	-1.753652	0.630264	-0.038743	0.179663	-137.429926	-80.290213	89.753466
03012		9.422558	-1.501816	-1.920235	0.668550	-0.038468	0.180839	-136.702672	-80.201361	89.404153
03013		9.427895	-1.520893	-1.789193	0.716794	-0.028060	0.181882	-135.909923	-80.113113	89.016900
03014		9.323962	-1.479924	-1.650213	0.753122	-0.028771	0.179893	-135.134199	-80.027042	88.667387
03015		9.370795	-1.315412	-1.366177	0.762402	-0.024286	0.172987	-134.347566	-79.942139	88.312675
03016		9.311542	-1.128870	-1.219125	0.727682	-0.022429	0.172970	-133.606238	-79.859851	87.983112
03017		9.374944	-1.240308	-1.237167	0.666080	-0.036928	0.157791	-132.955465	-79.774836	87.710175
03018		9.589819	-1.485737	-1.210056	0.608808	-0.028221	0.133854	-132.395257	-79.705485	87.495291
03019		9.827741	-1.622686	-1.239493	0.598675	-0.022902	0.125921	-131.831010	-79.638491	87.270922
03020		9.816831	-1.800356	-1.436862	0.560050	-0.011388	0.113907	-131.310764	-79.583365	87.068177
03021		9.640357	-1.796653	-1.437504	0.524992	-0.005900	0.101151	-130.808561	-79.532750	86.863887
03022		9.561781	-1.815367	-1.402455	0.549409	0.004332	0.088510	-130.315736	-79.493901	86.682764
03023		9.538163	-1.766442	-1.336701	0.581649	0.011951	0.090026	-129.767459	-79.454080	86.464574
03024		9.592446	-1.445235	-1.184069	0.611466	0.016019	0.093836	-129.206249	-79.416522	86.250010
03025		9.594962	-1.035848	-1.118877	0.589935	0.013747	0.096581	-128.642138	-79.373685	86.020479
03026		9.553598	-0.705835	-1.055883	0.566708	0.024947	0.107684	-128.064707	-79.332308	85.763260
03027		9.456338	-0.391878	-0.886204	0.512447	0.037842	0.110981	-127.467125	-79.290694	85.454407
03028		9.299491	-0.037306	-0.995133	0.352102	0.040361	0.102990	-126.990381	-79.255876	85.174450
03029		9.278598	-0.085058	-1.056546	0.156522	0.034598	0.098969	-126.632696	-79.217923	84.902106
03030		9.361991	-0.594346	-1.254730	0.026236	0.030032	0.106035	-126.366469	-79.177523	84.646317
03031		9.577506	-1.293892	-1.143603	0.015177	0.041877	0.122789	-126.035119	-79.130637	84.318226
03032		9.691603	-1.987590	-0.957306	0.055899	0.031398	0.126030	-125.718185	-79.080894	84.028030
03033		9.802189	-2.287898	-0.867870	0.145933	0.028565	0.141320	-125.318206	-79.020219	83.706227
03034		9.757533	-2.118333	-0.775740	0.257200	0.021401	0.156494	-124.865157	-78.952154	83.394745
03035		9.685816	-1.700048	-0.675552	0.305128	0.019461	0.161272	-124.371196	-78.878136	83.069982
03036		9.593218	-1.404670	-0.713176	0.306011	0.023158	0.173973	-123.867496	-78.801345	82.735222
03037		9.520868	-1.106674	-0.622434	0.271526	0.028958	0.185509	-123.342308	-78.717758	82.358820
03038		9.554710	-0.797602	-0.852174	0.165530	0.032321	0.195699	-122.874900	-78.632276	81.978794
03039		9.567169	-0.859877	-1.040825	0.089087	0.043861	0.202432	-122.405608	-78.544050	81.552542
03040		9.617479	-1.037953	-1.130511	0.060706	0.042164	0.214066	-121.959991	-78.451470	81.133226
03041		9.556946	-1.168324	-1.109418	0.032310	0.041188	0.229269	-121.504463	-78.348151	80.687515
03042		9.510201	-1.218663	-1.121373	0.004943	0.029351	0.239290	-121.099129	-78.238134	80.276401
03043		9.540521	-1.503963	-1.092220	0.016162	0.031867	0.251555	-120.659608	-78.119873	79.837222
03044		9.638259	-1.926871	-0.981532	0.078407	0.021932	0.265370	-120.209838	-77.993569	79.423356
03045		9.803451	-2.005497	-0.877345	0.150169	0.009771	0.280920	-119.723871	-77.853022	79.014781
03046		9.843107	-1.702469	-0.743895	0.186928	0.008363	0.291862	-119.227923	-77.708263	78.616860
03047		9.698549	-1.410583	-0.633967	0.186577	0.012948	0.304344	-118.705076	-77.555431	78.191439
03048		9.479035	-1.180008	-0.658376	0.132327	0.018058	0.319029	-118.206431	-77.398157	77.758246
03049		9.398913	-1.109414	-0.881955	0.019000	0.019505	0.324833	-117.762789	-77.235314	77.315075
03050		9.414370	-1.237320	-0.998750	-0.056377	0.023022	0.335198	-117.364227	-77.069699	76.873086
03051		9.538015	-1.390170	-1.158629	-0.108885	0.027414	0.331633	-116.990332	-76.904224	76.425704
03052		9.619440	-1.748749	-1.077209	-0.156620	0.032186	0.336154	-116.648550	-76.739227	75.982452
03053		9.632744	-2.044549	-1.259301	-0.128445	0.034311	0.347322	-116.274443	-76.566284	75.522715
03054		9.645684	-2.195590	-1.077993	-0.048501	0.046362	0.357579	-115.838446	-76.392496	75.045647
03055		9.543409	-2.147029	-0.975665	0.004227	0.043505	0.370998	-115.367595	-76.208027	74.563890
03056		9.544812	-1.969316	-1.084561	0.007304	0.030514	0.381934	-114.932798	-76.016007	74.120248
03057		9.505439	-2.011718	-1.131681	0.013496	0.030031	0.390855	-114.490525	-75.816251	73.672628
03058		9.470925	-1.995013	-1.176895	0.016576	0.021386	0.395366	-114.080597	-75.613480	73.259360
03059		9.522924	-1.978535	-1.170757	-0.001715	0.026657	0.405723	-113.664851	-75.403615	72.829319
03060		9.480562	-1.923975	-1.178582	0.022385	0.039072	0.418276	-113.219540	-75.191352	72.382132
03061		9.414474	-1.760519	-1.097519	-0.010836	0.051862	0.423436	-112.769000	-74.976215	71.909828
03062		9.345780	-1.920951	-0.911562	-0.063898	0.062966	0.426421	-112.344718	-74.763166	71.432323
03063		9.326145	-2.030169	-1.142045	-0.083532	0.062787	0.432199	-111.933168	-74.544029	70.956292
03064		9.458763	-2.441898	-1.018242	-0.109511	0.048889	0.441842	-111.574534	-74.318059	70.518801
03065		9.571527	-2.804154	-0.888983	-0.026896	0.050738	0.447046	-111.166677	-74.086851	70.079278
03066		9.790657	-2.845180	-0.890612	0.039774	0.022210	0.454335	-110.786791	-73.847153	69.707667
03067		9.832843	-2.793369	-0.479059	0.127489	0.020346	0.460955	-110.360832	-73.600717	69.340389
03068		9.877313	-2.699004	-0.663705	0.167860	-0.005390	0.466403	-109.972249	-73.347650	69.035320
03069		9.805367	-2.519593	-0.590825	0.163396	0.018911	0.475215	-109.541828	-73.091848	68.683930
03070		9.734553	-2.206375	-0.599806	0.190275	-0.019733	0.483657	-109.176038	-72.825533	68.415304
03071		10.004029	-1.876840	-1.075380	0.151735	0.011441	0.498249	-108.773591	-72.554603	68.085231
03072		9.766500	-2.002469	-0.847923	0.105103	0.053084	0.515418	-108.333711	-72.283229	67.686907
03073		9.566689	-2.382803	-1.016067	0.127403	0.059934	0.533398	-107.867167	-72.000483	67.273833
03074		9.530163	-2.452061	-1.025558	0.145772	0.072884	0.557474	-107.374872	-71.707655	66.843603
03075		9.500129	-2.588842	-0.927334	0.197949	0.077195	0.586067	-106.841276	-71.396917	66.401052
03076		9.594448	-2.604179	-0.962004	0.238131	0.091495	0.601510	-106.275226	-71.080509	65.947273
03077		9.661067	-2.578560	-0.932640	0.258105	0.098900	0.613974	-105.692663	-70.755224	65.487707
03078		9.686044	-2.771201	-0.862326	0.280292	0.106254	0.624941	-105.102927	-70.425227	65.032646
03079		9.703039	-2.901391	-0.896280	0.294584	0.117050	0.642086	-104.494655	-70.084092	64.566089
03080		9.713020	-2.947458	-1.177367	0.300336	0.134754	0.660652	-103.871401	-69.735126	64.085622
03081		9.932636	-2.683557	-1.442142	0.213195	0.155729	0.671631	-103.277356	-69.379528	63.582389
03082		10.118544	-2.709421	-0.996279	0.166465	0.167630	0.666420	-102.716303	-69.028236	63.084199
03083		10.130287	-2.746261	-0.724284	0.127440	0.161554	0.660258	-102.202001	-68.676509	62.611402
03084		9.828671	-2.639205	-0.499239	0.087966	0.192313	0.665529	-101.684219	-68.325449	62.109008
03085		9.491280	-2.594026	-0.083940	0.043643	0.214688	0.686039	-101.167862	-67.962426	61.579958
03086		9.308309	-2.524747	-0.353614	0.015710	0.210300	0.707153	-100.687782	-67.586697	61.071009
03087		9.439992	-2.305361	-0.706576	-0.071581	0.207895	0.719421	-100.270693	-67.201136	60.575155
03088		9.691356	-2.355675	-0.923906	-0.151747	0.207927	0.722248	-99.916527	-66.813891	60.095913
03089		9.853103	-2.799687	-0.995311	-0.214270	0.210424	0.727226	-99.604458	-66.422031	59.622532
03090		9.777729	-3.459414	-1.203908	-0.182641	0.199194	0.728773	-99.303872	-66.028211	59.179658
03091		9.677186	-3.894251	-1.055958	-0.054860	0.196831	0.748207	-98.939351	-65.621319	58.745974
03092		9.462385	-4.208713	-0.816443	0.137775	0.183230	0.763397	-98.494565	-65.204240	58.343585
03093		9.227745	-4.037058	-0.750375	0.323408	0.179054	0.788205	-97.956688	-64.770518	57.954843
03094		9.035741	-3.609377	-0.473665	0.423037	0.185370	0.809031	-97.368898	-64.324680	57.572245
03095		8.934439	-3.221532	-0.585638	0.445593	0.183717	0.820740	-96.782678	-63.869647	57.204702
03096		8.985220	-3.072684	-0.311225	0.381030	0.206639	0.825896	-96.224220	-63.412354	56.825027
03097		8.903903	-3.224667	-0.189656	0.338242	0.222351	0.835937	-95.684914	-62.948073	56.438207
03098		8.735617	-3.504458	-0.272904	0.271628	0.236116	0.853072	-95.183727	-62.473812	56.049314
03099		8.527081	-3.780969	-0.462437	0.214898	0.248712	0.865759	-94.712964	-61.990973	55.656790
03100		8.585910	-3.887960	-0.533304	0.139160	0.251348	0.860918	-94.298943	-61.510090	55.277239
03101		8.817534	-3.922208	-0.785612	0.073296	0.264549	0.865507	-93.919572	-61.025512	54.892843
03102		8.983892	-3.850490	-0.651586	0.063851	0.296390	0.862041	-93.527461	-60.543254	54.485432
03103		8.969464	-4.031464	-0.496010	0.037442	0.320010	0.864266	-93.137868	-60.058903	54.061949
03104		8.956101	-3.999029	-0.462351	0.055567	0.333553	0.863657	-92.738942	-59.574131	53.637219
03105		8.947494	-3.784903	-0.322480	0.031913	0.333554	0.857265	-92.365022	-59.091462	53.224082
03106		9.001240	-3.410304	-0.314516	-0.014822	0.324992	0.848977	-92.039231	-58.612203	52.833421
03107		8.944536	-3.072825	-0.255884	-0.102507	0.338803	0.849750	-91.759893	-58.131786	52.436699
03108		8.932604	-2.677201	-0.012885	-0.184361	0.338789	0.850750	-91.538316	-57.649812	52.050334
03109		8.884466	-2.544936	0.000145	-0.389814	0.353751	0.853409	-91.427995	-57.166343	51.654637
03110		8.805613	-2.676904	0.261996	-0.557093	0.364989	0.864659	-91.411582	-56.675956	51.254046
03111		8.587507	-2.887028	0.347214	-0.758805	0.370660	0.888384	-91.509829	-56.172979	50.850519
03112		8.237472	-3.556440	0.145070	-0.965715	0.338459	0.911460	-91.758713	-55.656178	50.482865
03113		8.025095	-4.489629	0.097140	-1.091143	0.283999	0.932681	-92.124636	-55.128313	50.168307
03114		8.034545	-5.351799	-0.124275	-1.034958	0.281540	0.942922	-92.461782	-54.594600	49.855376
03115		8.074152	-5.853148	0.106021	-0.900702	0.292338	0.956989	-92.712779	-54.055137	49.529548
03116		8.059683	-6.295085	0.368116	-0.824398	0.341951	0.957581	-92.885031	-53.516334	49.157525
03117		7.566513	-6.701255	0.026171	-0.826962	0.362214	0.949284	-93.045844	-52.984566	48.767443
03118		7.176837	-7.083493	-0.648129	-0.797243	0.296233	0.942522	-93.244675	-52.454280	48.443169
03119		7.313140	-6.431006	-0.368850	-0.708670	0.308042	0.916922	-93.386523	-51.940487	48.109391
03120		7.044991	-5.883849	-0.402126	-0.904088	0.332213	0.894687	-93.627809	-51.440069	47.756657
03121		6.672131	-6.098610	-0.699003	-1.092064	0.284174	0.855016	-94.012874	-50.962493	47.448489
03122		6.647765	-5.968083	-1.240461	-1.110774	0.231842	0.816039	-94.448397	-50.505575	47.188916
03123		6.864229	-5.471346	-1.292077	-1.203918	0.224429	0.806710	-94.940457	-50.055683	46.932405
03124		7.158694	-5.483418	-1.024071	-1.333763	0.208245	0.825128	-95.516116	-49.595277	46.685581
03125		7.496124	-6.200338	-1.592582	-1.276039	0.176150	0.835469	-96.076028	-49.129443	46.460470
03126		7.628806	-7.034164	-1.671296	-1.161310	0.233485	0.809807	-96.533644	-48.682423	46.184700
03127		7.192280	-7.743682	-1.365563	-0.997055	0.271741	0.775386	-96.873978	-48.259508	45.876627
03128		6.616760	-8.038166	-0.994916	-0.797463	0.256088	0.753723	-97.113343	-47.848170	45.584053
03129		6.293879	-7.959186	-0.693153	-0.590717	0.178783	0.746572	-97.283742	-47.436533	45.357019
03130		6.289091	-7.881265	-0.476511	-0.336615	0.089520	0.772237	-97.363603	-47.003641	45.202971
03131		6.410372	-7.652144	-0.236783	-0.018999	-0.061521	0.821397	-97.349609	-46.532049	45.169275
03132		6.808010	-7.423094	0.048932	0.368490	-0.169576	0.865900	-97.176504	-46.027044	45.221805
03133		7.215021	-7.194239	0.503296	0.765655	-0.220075	0.902264	-96.803530	-45.498148	45.314104
03134		7.477922	-6.786465	0.643653	0.995807	-0.212725	0.912579	-96.297644	-44.964245	45.405113
03135		7.707158	-6.116670	0.779919	1.106046	-0.159254	0.901319	-95.701767	-44.440767	45.459699
03136		7.962284	-5.521529	1.026806	1.124954	-0.098828	0.869672	-95.069204	-43.938878	45.476816
03137		8.203607	-5.307165	0.986639	1.177293	-0.063859	0.833134	-94.393009	-43.460066	45.475446
03138		8.446334	-5.201278	0.846310	1.213430	-0.064448	0.790092	-93.704916	-43.005474	45.485804
03139		8.513979	-5.202535	0.648610	1.176797	-0.053668	0.728203	-93.037207	-42.587493	45.496692
03140		8.434811	-5.120184	0.590477	1.088494	-0.083559	0.660450	-92.443202	-42.206861	45.540587
03141		8.413045	-5.199526	0.385483	0.970446	-0.156048	0.605939	-91.956356	-41.857275	45.645325
03142		8.773413	-5.145230	-0.300719	0.843578	-0.193053	0.558853	-91.565202	-41.533508	45.783818
03143		9.001973	-4.385555	-1.265715	0.640274	-0.163642	0.542793	-91.274743	-41.221490	45.900856
03144		8.836996	-4.359248	-1.654991	0.445821	-0.166495	0.569306	-91.098904	-40.893102	46.021952
03145		8.935472	-5.464369	-0.432108	0.629444	-0.143272	0.587329	-90.804958	-40.557015	46.125468
03146		8.980200	-6.900843	0.161849	0.648297	0.064052	0.593426	-90.401603	-40.217145	46.076131
03147		9.195733	-7.898041	-1.552145	0.355070	0.253833	0.631949	-90.075531	-39.857814	45.886812
03148		8.862201	-8.304538	-2.680756	0.268533	0.198702	0.754302	-89.829943	-39.425301	45.742938
03149		8.170396	-8.360118	-2.174292	0.625946	-0.056294	0.858312	-89.501089	-38.936101	45.791096
03150		7.030678	-7.644660	-1.693729	0.876562	-0.300179	0.882701	-89.143569	-38.432215	46.022535
03151		5.751814	-6.699190	-2.409301	0.783149	-0.547375	0.722184	-88.948796	-38.026221	46.433566
03152		5.564447	-6.283502	-3.226984	0.879947	-0.637073	0.402648	-88.734669	-37.802762	46.905482
03153		6.306673	-5.820629	-0.867149	1.200348	-0.534957	0.025019	-88.286918	-37.798977	47.297156
03154		6.177895	-4.907437	0.830596	1.270819	-0.235040	-0.303367	-87.660903	-37.977302	47.463329
03155		5.480882	-5.184812	1.419160	0.941059	-0.063269	-0.657093	-87.138871	-38.357874	47.491150
03156		5.002257	-4.986066	1.208783	0.445627	0.000034	-1.048654	-86.860599	-38.957787	47.454322
03157		5.025406	-5.119449	1.311345	-0.100283	0.125558	-1.437252	-86.823920	-39.779011	47.306154
03158		4.747428	-5.943015	1.121888	-0.608291	0.186324	-1.764088	-87.038607	-40.782501	47.099045
03159		5.244123	-7.322285	-0.884914	-0.660590	-0.029398	-1.987700	-87.385144	-41.923766	47.051048
03160		6.799336	-7.321611	-1.030735	-0.203387	-0.175426	-2.063426	-87.548381	-43.109190	47.120059
03161		7.353636	-7.076851	0.350511	-0.165664	-0.058388	-2.168576	-87.627679	-44.354827	47.097627
03162		7.308563	-7.440853	1.069069	-0.182993	0.183534	-2.371028	-87.573176	-45.707609	46.872317
03163		7.001724	-7.339723	1.246841	0.031687	0.400436	-2.584219	-87.246139	-47.179211	46.446361
03164		6.690815	-6.417385	1.173695	0.200152	0.447280	-2.725430	-86.760222	-48.725149	45.946411
03165		6.890381	-5.487248	1.504903	0.173060	0.387882	-2.767359	-86.291268	-50.297135	45.460577
03166		7.068663	-5.696866	3.064062	-0.009794	0.283107	-2.775491	-85.966839	-51.872750	45.036365
03167		7.684751	-5.196638	3.000582	-0.444283	0.224978	-2.866373	-85.902359	-53.504572	44.635799
03168		8.133066	-5.223820	0.977975	-1.127414	0.326716	-2.948543	-86.128289	-55.176827	44.118759
03169		8.328308	-5.067406	1.084876	-1.087745	0.321462	-2.997867	-86.313093	-56.881385	43.590758
03170		8.818064	-4.742326	0.602564	-1.189998	0.267986	-3.004526	-86.587709	-58.589975	43.109121
03171		9.254463	-5.353176	0.731891	-1.224620	0.346362	-3.019735	-86.786867	-60.308586	42.526273
03172		9.236849	-6.129528	0.642407	-1.193539	0.432967	-3.051731	-86.849277	-62.040566	41.816896
03173		9.067525	-6.465646	0.294560	-1.148149	0.486431	-3.087226	-86.773257	-63.793867	40.993312
03174		9.044665	-6.543150	-0.011631	-1.012405	0.464369	-3.099774	-86.580335	-65.551454	40.138107
03175		9.341834	-6.268638	-0.019710	-0.849570	0.425066	-3.062729	-86.262429	-67.290059	39.260728
03176		9.495220	-5.690220	0.005327	-0.722914	0.423852	-2.996059	-85.782836	-68.985698	38.297685
03177		9.367928	-5.200104	-0.060532	-0.617084	0.428524	-2.966964	-85.106705	-70.662949	37.201222
03178		9.237133	-4.833989	0.095439	-0.496767	0.408228	-2.964262	-84.231969	-72.332375	35.978715
03179		9.053128	-4.692436	0.207941	-0.417232	0.394809	-2.974198	-83.111608	-74.003168	34.558958
03180		8.967078	-4.585501	0.082913	-0.422605	0.373744	-3.000415	-81.743947	-75.679362	32.891235
03181		9.014362	-4.524467	-0.218798	-0.465798	0.369541	-3.022991	-79.998217	-77.357821	30.822100
03182		9.163194	-4.385204	-0.396452	-0.431724	0.377764	-3.057563	-77.614738	-79.035077	28.134656
03183		9.147868	-4.138299	-0.318645	-0.359444	0.389675	-3.107708	-74.187269	-80.709978	24.444347
03184		9.081556	-3.795563	-0.217535	-0.271896	0.404236	-3.156401	-69.051328	-82.355569	19.094867
03185		9.060005	-3.516284	-0.112546	-0.174353	0.405731	-3.191031	-60.988089	-83.920142	10.873899
03186		9.162309	-3.262526	-0.099746	-0.109000	0.384863	-3.199285	-47.848084	-85.293163	-2.385869
03187		9.410330	-2.947171	-0.243154	-0.070469	0.365696	-3.195027	-26.312903	-86.248468	-24.018189
03188		9.562571	-2.618269	-0.150646	-0.000950	0.333947	-3.166520	2.399573	-86.445925	-52.787258
03189		9.863803	-2.059945	0.038572	0.075816	0.292848	-3.120505	27.529722	-85.808859	-77.929224
03190		9.842462	-1.492740	0.175646	0.076245	0.266811	-3.034578	43.555192	-84.664939	-93.964943
03191		9.881882	-0.991001	0.417941	0.089002	0.204996	-2.925959	53.367789	-83.328917	-103.779549
03192		10.101452	-0.661517	0.585713	0.096632	0.168293	-2.803169	59.672992	-81.935701	-110.080905
03193		10.273586	-0.374606	0.311000	0.045512	0.154605	-2.653460	63.873392	-80.554778	-114.304249
03194		10.146938	-0.272665	-0.045532	0.034965	0.127403	-2.498008	66.879210	-79.224143	-117.336965
03195		10.183565	0.185969	-0.006600	0.093680	0.101584	-2.375591	69.195418	-77.941277	-119.645218
03196		10.301785	0.859941	-0.051778	0.088514	0.127673	-2.213721	70.877984	-76.725166	-121.317736
03197		10.219189	1.367925	0.026802	0.082936	0.117930	-2.023906	72.165514	-75.605450	-122.594952
03198		10.039997	1.704567	0.279715	0.111141	0.106786	-1.830695	73.192477	-74.586883	-123.591789
03199		9.790489	1.910336	0.525544	0.048257	0.087967	-1.649166	73.995763	-73.667851	-124.398373
03200		9.635038	1.872039	0.570832	-0.036774	0.055009	-1.456841	74.632590	-72.856652	-125.085422
03201		9.431596	1.674642	0.537796	-0.131159	0.034252	-1.258090	75.100936	-72.157401	-125.655501
03202		9.203426	1.567196	0.581616	-0.225790	0.017226	-1.057548	75.420800	-71.569811	-126.128276
03203		8.951321	1.474820	0.532814	-0.337487	-0.006311	-0.884147	75.618665	-71.082073	-126.541502
03204		8.648622	1.119778	0.517611	-0.409635	-0.033728	-0.735772	75.746027	-70.679276	-126.924769
03205		8.498994	0.736390	0.442769	-0.435841	-0.053588	-0.635719	75.838749	-70.335746	-127.288302
03206		8.416227	0.438655	0.244894	-0.436065	-0.056790	-0.546199	75.895647	-70.041104	-127.614408
03207		8.447204	0.200327	0.071685	-0.356573	-0.086798	-0.459921	76.003933	-69.799860	-127.947517
03208		8.486381	0.167754	-0.096647	-0.285980	-0.098980	-0.380347	76.137589	-69.602878	-128.264791
03209		8.474310	0.237451	0.093735	-0.174588	-0.103941	-0.323569	76.316193	-69.439652	-128.562522
03210		8.332571	0.459305	0.100723	-0.134543	-0.120099	-0.264473	76.518131	-69.309384	-128.860722
03211		8.222600	0.660372	0.246262	-0.074981	-0.151057	-0.215519	76.778450	-69.212192	-129.185321
03212		8.218266	0.731593	0.278295	-0.030067	-0.187242	-0.128357	77.086638	-69.165651	-129.533513
03213		8.225453	0.646828	0.219331	0.026540	-0.232439	-0.031307	77.459361	-69.180711	-129.916333
03214		8.195798	0.335273	-0.042842	0.124925	-0.283757	0.067605	77.934498	-69.254008	-130.348044
03215		8.278605	0.251215	-0.190814	0.276388	-0.328432	0.145916	78.541506	-69.377695	-130.827908
03216		8.371534	0.453777	-0.083374	0.429448	-0.361982	0.218202	79.273438	-69.541037	-131.346836
03217		8.500977	0.834486	0.063208	0.533418	-0.380037	0.294335	80.081265	-69.749706	-131.882768
03218		8.649499	1.162486	0.237187	0.561792	-0.397839	0.384718	80.924594	-70.005405	-132.438174
03219		8.826217	1.179281	0.469744	0.552238	-0.395551	0.480722	81.753692	-70.315731	-132.983479
03220		8.906071	1.281484	0.560330	0.476778	-0.392586	0.592620	82.532418	-70.683447	-133.519855
03221		8.924898	1.323822	0.715388	0.391001	-0.375410	0.719414	83.232476	-71.123157	-134.023872
03222		8.783643	1.465925	0.762889	0.287235	-0.362363	0.858570	83.852973	-71.635855	-134.505037
03223		8.732066	3.765381	-0.440815	0.100093	-0.492595	0.959613	84.608945	-72.215409	-135.240186
03224		10.696875	9.101839	-4.179809	-0.621951	-0.740148	0.719641	85.483526	-72.663310	-136.531339
03225		13.880794	11.140297	2.014962	0.356723	-0.878489	-0.168086	87.323174	-72.602381	-138.244788
03226		16.199036	14.615936	6.207902	0.232075	0.038404	-1.046241	87.480771	-72.002909	-138.270702
03227		13.383195	12.684846	8.168586	-0.165741	0.459873	-0.714992	86.657327	-71.582834	-137.504012
03228		9.241003	7.647487	2.283775	-1.541003	0.018551	0.085752	85.740702	-71.631570	-137.468567
03229		9.180122	3.920140	1.455729	-1.414345	-0.632351	0.659432	85.954186	-72.036404	-138.546454
03230		9.847109	3.011619	3.204377	-1.569771	-0.415544	0.864067	85.693879	-72.547939	-139.217409
03231		9.658199	3.005802	4.431847	-1.910113	0.000727	0.699103	84.493274	-72.948708	-139.106616
03232		9.765408	2.378581	3.266552	-2.182466	0.175708	0.518521	82.814333	-73.233382	-138.658843
03233		9.624408	1.072324	0.599707	-2.083877	0.169563	0.431492	81.187589	-73.466511	-138.207658
03234		9.311807	-0.556274	-1.478422	-1.767585	0.096710	0.424732	79.862236	-73.698101	-137.881834
03235		8.909683	-2.624566	-2.329958	-1.130091	-0.070088	0.461620	79.189299	-73.967727	-137.855850
03236		8.772066	-4.250134	-3.102951	-0.301716	-0.322055	0.546659	79.459553	-74.310438	-138.316575
03237		9.045937	-4.817136	-2.877628	0.829165	-0.493356	0.636004	80.718979	-74.721082	-139.130896
03238		9.519789	-2.354420	-2.430621	1.843695	-0.574728	0.670013	82.791311	-75.148861	-140.183075
03239		10.314713	0.519349	-1.563919	2.318413	-0.594716	0.665945	85.272601	-75.567444	-141.375052
03240		11.046599	3.576326	-0.745289	2.275827	-0.565531	0.658725	87.771799	-75.964242	-142.608199
03241		11.521302	4.939871	0.070894	1.954944	-0.500116	0.639113	90.035148	-76.339374	-143.785939
03242		11.324457	5.504544	0.900749	1.362002	-0.425452	0.624456	91.868026	-76.693270	-144.868332
03243		10.661053	4.864769	1.177910	0.631678	-0.342222	0.617986	93.146302	-77.041471	-145.809536
03244		10.106445	3.939009	1.565886	-0.011815	-0.286477	0.632304	93.972635	-77.392945	-146.663868
03245		10.171961	2.888808	1.648106	-0.564588	-0.222976	0.661709	94.363148	-77.764489	-147.395236
03246		10.268754	1.816561	1.326348	-0.958625	-0.117654	0.678514	94.278866	-78.147102	-147.870732
03247		9.911958	0.837081	0.358105	-1.141582	-0.037282	0.667811	93.870018	-78.529926	-148.121416
03248		9.593255	0.066376	-0.507688	-1.055092	-0.045363	0.641206	93.527702	-78.894931	-148.388858
03249		9.398127	-0.353808	-1.118769	-0.826211	-0.099093	0.599538	93.467332	-79.237225	-148.809784
03250		9.248141	-0.546326	-1.597997	-0.531511	-0.164269	0.568388	93.789062	-79.556350	-149.446987
03251		9.204646	-0.378851	-1.841244	-0.225558	-0.254031	0.550347	94.599735	-79.863304	-150.402495
03252		9.410993	0.227636	-1.703424	0.061871	-0.301400	0.553154	95.790183	-80.163309	-151.575320
03253		9.578097	1.049271	-1.148336	0.265124	-0.310096	0.548608	97.200621	-80.458716	-152.852247
03254		9.520284	1.768310	-0.581218	0.282780	-0.279152	0.529607	98.587409	-80.737198	-154.093747
03255		9.425379	2.095108	-0.286894	0.177832	-0.249730	0.517880	99.883615	-81.010150	-155.303525
03256		9.525598	2.152182	-0.182660	0.064851	-0.246691	0.515454	101.176089	-81.274437	-156.574050
03257		9.882267	2.298597	-0.191020	-0.057084	-0.239113	0.537512	102.469862	-81.550604	-157.915698
03258		9.850433	2.361009	-0.104155	-0.220845	-0.232060	0.552257	103.739348	-81.828278	-159.326591
03259		9.615990	1.832472	-0.044938	-0.362788	-0.233132	0.545990	105.021044	-82.100661	-160.831032
03260		9.538653	1.147054	-0.319195	-0.453986	-0.225550	0.528126	106.290578	-82.356680	-162.374917
03261		9.605042	0.171501	-0.304718	-0.419788	-0.236458	0.524175	107.722351	-82.606586	-164.061812
03262		9.661328	-0.505758	-0.542972	-0.343600	-0.214943	0.527274	109.211962	-82.853523	-165.762014
03263		9.602501	-0.627341	-0.717941	-0.163163	-0.247219	0.539663	111.090657	-83.097292	-167.749192
03264		9.684525	-0.214197	-0.962411	-0.015227	-0.272803	0.553885	113.328054	-83.331264	-170.011211
03265		9.629122	0.507987	-0.954719	0.103442	-0.282873	0.543195	115.827912	-83.549035	-172.467941
03266		9.512760	1.155436	-0.904409	0.123030	-0.309384	0.540842	118.609492	-83.742555	-175.195838
03267		9.543106	1.441650	-1.056040	0.119593	-0.297316	0.531220	121.490462	-83.922460	-178.024691
03268		9.584182	1.569471	-0.921330	0.090754	-0.274310	0.522705	124.371913	-84.087169	179.130245
03269		9.638941	1.473329	-0.715493	-0.006880	-0.261220	0.520399	127.304407	-84.242472	176.178504
03270		9.637331	1.124774	-0.493872	-0.058989	-0.240016	0.513311	130.219548	-84.384246	173.214929
03271		9.824053	0.480241	-0.322224	-0.147540	-0.232749	0.508572	133.197755	-84.513761	170.137758
03272		9.867604	0.075787	-0.286507	-0.131292	-0.228740	0.524445	136.352088	-84.633077	166.893610
03273		9.638215	-0.569814	-0.930766	-0.105332	-0.247005	0.534438	139.801854	-84.732649	163.368340
03274		9.574990	-0.749936	-0.950771	0.017108	-0.239788	0.513716	143.283645	-84.806189	159.881783
03275		9.578524	-0.450626	-0.703747	0.122990	-0.227698	0.496624	146.809336	-84.862072	156.412503
03276		9.638951	-0.247478	-0.738729	0.087915	-0.230043	0.487901	150.305799	-84.893279	152.952542
03277		9.769728	0.069218	-0.727463	0.081034	-0.228173	0.477765	153.797292	-84.905370	149.493832
03278		9.802979	0.199988	-0.907557	-0.020186	-0.202377	0.463732	157.053215	-84.908064	146.213337
03279		9.677309	0.046538	-1.102289	-0.108376	-0.188553	0.443922	160.136704	-84.899085	143.055330
03280		9.674398	-0.209111	-1.177015	-0.138815	-0.196819	0.419965	163.016523	-84.865643	140.084076
03281		9.757116	-0.422869	-1.172874	-0.163412	-0.176797	0.404662	165.747937	-84.828805	137.247644
03282		9.731940	-0.698872	-1.124021	-0.122750	-0.171131	0.388828	168.316716	-84.780657	134.597591
03283		9.711365	-0.614221	-1.251163	-0.112237	-0.175145	0.381424	170.833645	-84.719399	132.005567
03284		9.665324	-0.278590	-1.130669	-0.056857	-0.194823	0.382439	173.302796	-84.636418	129.492951
03285		9.667433	0.088382	-1.205348	-0.016594	-0.189049	0.375030	175.703687	-84.546691	127.071872
03286		9.667674	0.600306	-1.264625	-0.036566	-0.145162	0.356045	177.854453	-84.472417	124.890089
03287		9.603716	0.983149	-1.118244	-0.213589	-0.126145	0.339657	179.782750	-84.401353	122.829812
03288		9.681814	0.549577	-1.042092	-0.363912	-0.135254	0.343244	-178.441480	-84.318847	120.835825
03289		9.928477	-0.541749	-0.834722	-0.276398	-0.152203	0.360007	-176.550845	-84.219632	118.776637
03290		9.992177	-1.240235	-0.969467	-0.078255	-0.136605	0.384390	-174.504468	-84.121700	116.674496
03291		9.834625	-1.272489	-0.871646	0.138119	-0.126352	0.409718	-172.229708	-84.019358	114.467179
03292		9.513533	-0.498565	-1.089148	0.259854	-0.142129	0.426496	-169.920802	-83.898274	112.295039
03293		9.576054	0.172185	-1.421084	0.272088	-0.133215	0.424317	-167.666353	-83.772597	110.184407
03294		9.665293	0.550479	-1.437057	0.283019	-0.132272	0.427485	-165.507009	-83.639358	108.175053
03295		9.815528	0.626405	-1.179880	0.205772	-0.119659	0.426956	-163.436664	-83.504034	106.210379
03296		9.826038	0.263411	-0.844705	0.096455	-0.102850	0.411965	-161.583028	-83.374227	104.400095
03297		9.751689	-0.186666	-0.847876	0.017461	-0.069750	0.400034	-159.820558	-83.256880	102.635757
03298		9.550250	-0.604732	-1.179799	-0.020822	-0.081076	0.398549	-158.192109	-83.129080	100.983674
03299		9.736402	-1.134374	-1.010892	0.060588	-0.101902	0.402477	-156.577388	-82.982521	99.392115
03300		9.895311	-1.374989	-0.867855	0.170430	-0.084079	0.430196	-154.840313	-82.834640	97.739994
03301		9.905229	-1.598420	-1.028169	0.205715	-0.079444	0.450541	-153.040879	-82.676240	96.045029
03302		9.731423	-1.437966	-1.330960	0.282232	-0.064298	0.450024	-151.264702	-82.520708	94.416936
03303		9.544823	-1.355156	-1.528309	0.323179	-0.069737	0.424975	-149.619193	-82.361593	92.943937
03304		9.605526	-1.216604	-1.471776	0.353233	-0.090008	0.405101	-148.156562	-82.195062	91.672102
03305		9.768375	-1.320198	-1.139637	0.379515	-0.077753	0.387548	-146.749936	-82.033680	90.471714
03306		9.797407	-1.585674	-1.288113	0.389713	-0.077186	0.372979	-145.455525	-81.875408	89.389886
03307		9.915762	-1.709458	-1.149550	0.434674	-0.070022	0.381784	-144.118225	-81.712043	88.290529
03308		9.843591	-1.624924	-0.994236	0.489805	-0.062531	0.375273	-142.817644	-81.552943	87.259552
03309		9.534160	-1.665013	-1.057974	0.492371	-0.062744	0.362276	-141.580337	-81.392797	86.293836
03310		9.372288	-1.510208	-1.261308	0.506127	-0.072089	0.339637	-140.479956	-81.236046	85.473983
03311		9.391954	-1.167776	-1.383546	0.479645	-0.072139	0.333625	-139.428268	-81.076842	84.687932
03312		9.459258	-0.637694	-1.335772	0.486357	-0.072118	0.342351	-138.398100	-80.914590	83.926989
03313		9.604753	-0.211296	-1.472424	0.423306	-0.068451	0.351500	-137.387043	-80.745869	83.148685
03314		9.628457	-0.250366	-1.550282	0.379011	-0.054008	0.341307	-136.439743	-80.587547	82.408686
03315		9.658565	-0.454758	-1.330095	0.384923	-0.050328	0.342330	-135.491738	-80.425945	81.671278
03316		9.716729	-0.600373	-1.016251	0.339635	-0.031931	0.355053	-134.537565	-80.267112	80.900731
03317		9.606114	-0.814394	-1.093374	0.279772	-0.027440	0.372907	-133.581198	-80.098171	80.092978
03318		9.447387	-1.099866	-1.135134	0.270219	-0.024258	0.383565	-132.641460	-79.926213	79.295926
03319		9.415035	-1.307482	-1.083080	0.242693	-0.015078	0.394323	-131.690378	-79.748528	78.471097
03320		9.375887	-1.269371	-1.022181	0.222021	-0.031365	0.387311	-130.845405	-79.567913	77.741421
03321		9.494349	-1.017457	-1.388621	0.207253	-0.044103	0.354979	-130.118171	-79.392412	77.122677
03322		9.700315	-0.984951	-1.392996	0.145704	-0.020817	0.356527	-129.401455	-79.225838	76.478196
03323		9.709354	-1.458968	-1.292004	0.128178	-0.000922	0.348776	-128.673726	-79.065932	75.812126
03324		9.678198	-1.487828	-1.192126	0.138112	0.020177	0.350262	-127.918920	-78.913731	75.123721
03325		9.475486	-1.670380	-1.071466	0.058214	0.021208	0.353703	-127.211417	-78.756165	74.436699
03326		9.344800	-2.071499	-0.860522	0.078297	0.005080	0.336719	-126.586467	-78.601815	73.845038
03327		9.475805	-2.174583	-0.840927	0.096491	-0.007530	0.326622	-126.003637	-78.444097	73.306866
03328		9.600991	-2.023331	-0.892044	0.100941	-0.012710	0.320399	-125.463787	-78.289056	72.814680
03329		9.570635	-1.756801	-0.970677	0.091084	-0.018312	0.329622	-124.932309	-78.124343	72.325200
03330		9.465624	-1.571956	-1.164181	0.013373	-0.043614	0.335160	-124.515196	-77.950540	71.906599
03331		9.434307	-1.695208	-1.451001	-0.070024	-0.046409	0.320159	-124.177413	-77.779777	71.520206
03332		9.469279	-1.923978	-1.195799	-0.109309	-0.037769	0.283707	-123.914442	-77.631261	71.186901
03333		9.464589	-2.324064	-1.060420	-0.140418	-0.031192	0.266421	-123.678902	-77.490157	70.863456
03334		9.451287	-2.714034	-1.002013	-0.133996	-0.024377	0.266683	-123.438834	-77.353414	70.538761
03335		9.311448	-2.684183	-1.144796	-0.103290	-0.017554	0.263193	-123.169818	-77.217500	70.202469
03336		9.199868	-2.464817	-1.342351	-0.107678	0.005047	0.254027	-122.882364	-77.095373	69.844298
03337		9.084405	-2.394869	-1.190876	-0.099873	-0.012383	0.239528	-122.644509	-76.971702	69.541657
03338		9.227209	-2.455470	-1.158309	-0.047081	-0.028752	0.226325	-122.440476	-76.851871	69.304426
03339		9.447637	-2.249427	-1.144628	0.000354	-0.034425	0.234090	-122.207384	-76.723516	69.065366
03340		9.510317	-1.891409	-0.962962	0.050429	-0.030874	0.241356	-121.941208	-76.595306	68.821442
03341		9.560774	-1.459572	-1.067013	0.046071	-0.030888	0.250529	-121.663506	-76.459537	68.563192
03342		9.444992	-1.260417	-1.061320	0.007894	-0.020997	0.256510	-121.392896	-76.326355	68.289358
03343		9.398425	-1.515427	-1.075150	-0.079762	-0.035247	0.255218	-121.200518	-76.186559	68.044429
03344		9.429028	-1.976027	-1.077993	-0.090422	-0.036927	0.258555	-121.024820	-76.047194	67.810014
03345		9.637518	-2.241727	-1.259460	-0.044776	-0.045305	0.268295	-120.825496	-75.897685	67.578289
03346		9.723992	-2.301324	-1.205979	-0.000364	-0.028988	0.274179	-120.573477	-75.752543	67.318078
03347		9.567041	-2.268879	-1.147867	0.064754	-0.035568	0.290759	-120.277045	-75.594280	67.050594
03348		9.485219	-2.103512	-1.234309	0.104959	-0.038406	0.301621	-119.963559	-75.432192	66.788864
03349		9.524571	-1.839799	-1.311027	0.100914	-0.046112	0.309779	-119.658272	-75.260790	66.533250
03350		9.575388	-1.734997	-1.262191	0.100265	-0.054443	0.316390	-119.374466	-75.086132	66.299034
03351		9.600805	-1.785338	-1.286498	0.074042	-0.048641	0.321946	-119.089236	-74.907357	66.047827
03352		9.566056	-2.081895	-1.094580	0.092303	-0.045451	0.334640	-118.786815	-74.725444	65.789204
03353		9.567670	-2.151168	-1.164815	0.105775	-0.046234	0.349249	-118.464783	-74.532982	65.518249
03354		9.518366	-2.059902	-1.116095	0.119513	-0.055286	0.357107	-118.156255	-74.336332	65.268996
03355		9.456267	-2.021355	-1.182435	0.132333	-0.052351	0.365830	-117.828614	-74.133108	65.007508
03356		9.374464	-2.106656	-1.449781	0.120905	-0.048543	0.380326	-117.499921	-73.925728	64.737611
03357		9.403822	-2.025917	-1.448313	0.103466	-0.048414	0.389085	-117.175772	-73.710957	64.461989
03358		9.494954	-2.128324	-1.413064	0.095838	-0.047865	0.396649	-116.860908	-73.494597	64.190951
03359		9.577769	-2.294092	-1.415401	0.092574	-0.033339	0.405220	-116.518839	-73.274645	63.889491
03360		9.597520	-2.327648	-1.292904	0.089127	-0.024450	0.412404	-116.170423	-73.055265	63.578765
03361		9.592930	-2.346428	-1.048951	0.074777	-0.023100	0.415701	-115.829452	-72.831511	63.267078
03362		9.640954	-2.570520	-1.014798	0.108714	-0.036303	0.418102	-115.501476	-72.605195	62.988767
03363		9.717531	-2.485510	-1.038899	0.138253	-0.041763	0.429062	-115.160890	-72.368954	62.714856
03364		9.714769	-2.240891	-1.168716	0.187043	-0.042495	0.460182	-114.782431	-72.118300	62.429931
03365		9.554263	-2.137758	-1.222442	0.234928	-0.037095	0.488992	-114.352552	-71.850943	62.119606
03366		9.480363	-1.845123	-1.487173	0.256511	-0.038608	0.520603	-113.904971	-71.568353	61.802938
03367		9.406215	-1.937499	-1.453169	0.251154	-0.028208	0.545438	-113.435531	-71.272061	61.459661
03368		9.262659	-2.337977	-1.431003	0.252891	-0.021249	0.569355	-112.954712	-70.966132	61.104573
03369		9.296329	-2.664727	-1.422062	0.267165	-0.026997	0.580227	-112.477688	-70.650037	60.761708
03370		9.418491	-3.102765	-1.189935	0.280220	-0.032043	0.589126	-112.011313	-70.329418	60.437195
03371		9.589412	-3.217264	-1.198752	0.303946	-0.043219	0.599617	-111.551444	-69.997798	60.133598
03372		9.718592	-3.230607	-1.028869	0.304697	-0.029795	0.601942	-111.085438	-69.669097	59.823075
03373		9.604973	-3.289536	-0.896311	0.308447	-0.022670	0.603243	-110.615952	-69.338131	59.510685
03374		9.524927	-3.330883	-0.966943	0.316905	-0.026834	0.606196	-110.160682	-69.006042	59.217789
03375		9.400361	-3.242854	-0.865448	0.318870	-0.021065	0.617350	-109.699615	-68.666120	58.919462
03376		9.226259	-3.218170	-0.999170	0.325425	-0.017087	0.627213	-109.238915	-68.322911	58.624632
03377		9.130179	-3.189866	-1.084214	0.313259	-0.002626	0.632391	-108.772389	-67.976641	58.315562
03378		9.038097	-3.212044	-1.282791	0.303479	-0.000361	0.633292	-108.322253	-67.631483	58.017134
03379		9.111256	-3.557552	-1.484260	0.305131	-0.013370	0.633066	-107.897045	-67.281228	57.746225
03380		9.303634	-3.790102	-1.738353	0.336003	-0.002459	0.634432	-107.452326	-66.933406	57.472395
03381		9.707886	-3.842494	-1.611880	0.300618	0.017886	0.642787	-107.007077	-66.581588	57.175440
03382		10.040905	-4.165149	-1.039645	0.327368	0.037618	0.640732	-106.535510	-66.235300	56.865476
03383		10.029663	-4.111244	-0.850091	0.354722	0.049929	0.631755	-106.045461	-65.892854	56.551842
03384		9.911142	-3.737285	-0.736346	0.364116	0.070157	0.630135	-105.538889	-65.555413	56.224928
03385		9.804431	-3.204847	-0.512479	0.352676	0.095433	0.639980	-105.014505	-65.213164	55.870575
03386		9.716313	-2.932235	-0.729725	0.266533	0.097774	0.637719	-104.550616	-64.873242	55.527285
03387		9.910867	-2.808882	-0.817806	0.205061	0.105802	0.636756	-104.121335	-64.532046	55.182628
03388		10.033877	-3.021459	-0.867847	0.152505	0.113152	0.640662	-103.724220	-64.190473	54.839000
03389		9.947350	-3.223845	-1.041165	0.146200	0.119159	0.657436	-103.327129	-63.837699	54.490646
03390		9.606857	-3.549049	-1.148450	0.169202	0.128661	0.676802	-102.912694	-63.475926	54.136300
03391		9.279817	-3.822711	-1.267896	0.214992	0.124386	0.696602	-102.480658	-63.099896	53.790747
03392		9.001954	-4.100293	-1.333829	0.306871	0.132286	0.713572	-101.995737	-62.715598	53.443489
03393		8.826189	-4.204819	-1.369527	0.385133	0.134427	0.736708	-101.468814	-62.315745	53.098447
03394		8.722983	-4.409517	-1.147731	0.433556	0.155698	0.737834	-100.904967	-61.917576	52.741513
03395		8.548346	-4.671493	-0.927767	0.463819	0.169748	0.734176	-100.321274	-61.519873	52.380625
03396		8.386060	-4.734525	-1.014904	0.438905	0.192255	0.716829	-99.745455	-61.133923	52.010881
03397		8.254199	-4.788927	-1.002494	0.391763	0.227443	0.702984	-99.174170	-60.755913	51.614269
03398		8.196894	-4.702554	-0.803844	0.320491	0.265366	0.683345	-98.621599	-60.391957	51.190613
03399		8.194109	-4.482794	-0.877596	0.201756	0.282103	0.648132	-98.135714	-60.046026	50.764102
03400		8.413692	-4.111597	-0.855535	0.021133	0.286458	0.606567	-97.765097	-59.723917	50.349583
03401		8.648002	-3.960411	-0.900772	-0.140660	0.287757	0.573614	-97.496902	-59.418053	49.945175
03402		8.901599	-4.051266	-0.827653	-0.274977	0.285107	0.542440	-97.319001	-59.130325	49.554875
03403		9.108514	-4.228461	-0.781511	-0.311979	0.286650	0.529121	-97.166881	-58.848411	49.168900
03404		9.045652	-4.275102	-0.589444	-0.328215	0.293191	0.524054	-97.024054	-58.570627	48.781630
03405		8.951300	-4.292645	-0.557044	-0.268915	0.285496	0.524020	-96.858570	-58.290619	48.406624
03406		8.809092	-4.261405	-0.434208	-0.203052	0.281422	0.534814	-96.663451	-58.004749	48.039877
03407		8.739111	-4.356966	-0.401884	-0.117458	0.282181	0.564551	-96.420218	-57.700217	47.673182
03408		8.738684	-4.203504	-0.284317	0.018219	0.295544	0.605421	-96.090012	-57.373316	47.294123
03409		8.737624	-3.977186	-0.156363	0.127808	0.315537	0.651302	-95.682008	-57.019219	46.895917
03410		8.790905	-3.722532	0.271743	0.198243	0.357126	0.699095	-95.202809	-56.639381	46.459057
03411		8.597102	-3.451538	0.499339	0.196818	0.398265	0.728826	-94.696476	-56.241832	45.986901
03412		8.276287	-3.219313	0.049997	0.077683	0.369701	0.785235	-94.290305	-55.809449	45.550721
03413		8.376822	-3.097310	0.125121	-0.100651	0.334275	0.816088	-94.022956	-55.356037	45.156930
03414		8.397205	-3.235832	0.268396	-0.184109	0.316642	0.845602	-93.825129	-54.884666	44.787123
03415		8.307448	-3.604321	0.219263	-0.251053	0.312569	0.870429	-93.674222	-54.398059	44.425967
03416		8.059598	-4.064305	0.269046	-0.250534	0.304262	0.905284	-93.535663	-53.890945	44.077831
03417		7.856749	-4.432200	0.289895	-0.191543	0.284529	0.948326	-93.382844	-53.357959	43.752048
03418		7.680164	-4.666617	0.247268	-0.148865	0.268909	0.980028	-93.223969	-52.805858	43.446571
03419		7.480753	-5.108516	0.361033	-0.134107	0.237014	0.989981	-93.085850	-52.246640	43.176117
03420		7.479823	-5.691542	0.482164	-0.111665	0.185078	1.016111	-92.978624	-51.670491	42.958657
03421		7.530054	-6.451011	0.168168	-0.033915	0.155438	1.017763	-92.851983	-51.092351	42.772185
03422		7.337477	-7.717737	0.045759	-0.029221	0.168420	0.977798	-92.720431	-50.537094	42.580787
03423		7.026637	-9.133278	0.245729	0.008641	0.169924	0.923424	-92.571266	-50.012691	42.393824
03424		6.533617	-10.323626	0.041262	0.099050	0.175293	0.875061	-92.373599	-49.515760	42.209156
03425		5.995848	-10.919310	-0.734213	0.309856	0.185941	0.832021	-92.053038	-49.042794	42.021036
03426		5.775307	-10.589233	-1.028619	0.626749	0.196042	0.791685	-91.552437	-48.592625	41.832950
03427		5.684406	-9.577256	-0.905997	0.940756	0.232349	0.736106	-90.855702	-48.172583	41.622492
03428		5.702030	-7.919091	-0.307568	1.128919	0.200512	0.640650	-90.081060	-47.806207	41.450389
03429		5.983047	-6.307807	0.274139	1.071439	0.160456	0.552149	-89.370106	-47.487992	41.319485
03430		6.368949	-5.061728	0.824004	0.767890	0.071706	0.538965	-88.893636	-47.178402	41.269764
03431		6.776898	-4.483920	1.289831	0.318425	-0.041308	0.577439	-88.745885	-46.846738	41.317691
03432		7.192907	-4.533636	1.361503	-0.088914	-0.116673	0.634311	-88.878578	-46.484584	41.430000
03433		7.462050	-4.400204	0.968200	-0.316963	-0.162178	0.695194	-89.166197	-46.086711	41.577343
03434		7.716749	-4.119961	0.387315	-0.420477	-0.202966	0.754829	-89.534888	-45.655362	41.755272
03435		8.311523	-4.190650	-0.557337	-0.414777	-0.173915	0.818225	-89.877658	-45.186106	41.903642
03436		8.612651	-4.721666	-0.907214	-0.370195	0.034312	0.789728	-90.073084	-44.733378	41.879950
03437		8.074454	-5.070904	-0.453106	-0.358210	0.149451	0.696400	-90.194786	-44.333918	41.761574
03438		8.109920	-5.226075	-0.224790	-0.278112	0.155084	0.662727	-90.269081	-43.954314	41.639368
03439		8.396200	-5.508185	-0.193033	-0.158664	0.158704	0.707055	-90.272733	-43.549229	41.513919
03440		8.651825	-5.942285	-0.469633	-0.040885	0.120446	0.774597	-90.231828	-43.105473	41.420077
03441		8.830041	-6.231200	-0.554826	0.124315	0.075293	0.809010	-90.120846	-42.641935	41.362371
03442		8.836710	-5.370658	-0.972253	0.236544	0.046267	0.807023	-89.963317	-42.179321	41.329664
03443		8.814313	-3.926477	-1.412325	0.270257	0.063762	0.836266	-89.778296	-41.700260	41.285173
03444		8.240562	-4.204773	-0.670348	0.378348	0.076071	0.884757	-89.528184	-41.192853	41.234723
03445		8.094870	-4.914807	0.010893	0.315440	0.062803	0.883860	-89.322419	-40.686708	41.197079
03446		8.291999	-5.320330	-0.191014	0.072962	0.044272	0.919873	-89.266900	-40.159180	41.175834
03447		8.451706	-5.884773	-0.816699	-0.005945	-0.037146	0.951628	-89.295535	-39.615184	41.215745
03448		8.055361	-6.900706	-1.641633	0.046374	-0.166348	0.933392	-89.354546	-39.081341	41.350627
03449		7.568128	-7.573250	-1.768110	0.328324	-0.291673	0.823949	-89.307311	-38.612428	41.575624
03450		7.181079	-7.397625	-1.297699	0.696562	-0.427314	0.678038	-89.108843	-38.227158	41.898390
03451		7.105350	-7.287744	-0.434380	1.159400	-0.399863	0.478847	-88.630424	-37.958703	42.199799
03452		6.699285	-7.037014	0.555231	1.506464	-0.280615	0.239741	-87.897759	-37.826117	42.412141
03453		6.286688	-6.893975	0.993427	1.588968	-0.221021	0.021629	-87.088068	-37.820778	42.576493
03454		6.254093	-6.941744	0.882568	1.560021	-0.197640	-0.179767	-86.279703	-37.930070	42.715595
03455		6.420076	-7.164681	1.497281	1.772025	-0.137907	-0.351936	-85.316519	-38.138608	42.800366
03456		6.357646	-6.985208	1.754282	1.688748	-0.114912	-0.495300	-84.382783	-38.427158	42.854902
03457		6.272031	-6.825360	1.046758	1.359152	-0.152446	-0.653430	-83.644168	-38.810399	42.919539
03458		6.126789	-6.473734	0.818095	1.150830	-0.197675	-0.807075	-83.034789	-39.282906	42.998816
03459		6.101544	-6.089832	1.352247	0.989973	-0.247555	-0.954552	-82.529028	-39.845213	43.095668
03460		6.199671	-5.394364	1.793479	0.667755	-0.284834	-1.119808	-82.213430	-40.502921	43.199433
03461		6.526406	-4.395954	2.699384	0.240494	-0.254145	-1.333286	-82.112310	-41.281587	43.255925
03462		6.738576	-3.540875	3.721296	-0.342921	-0.082318	-1.578671	-82.243138	-42.184230	43.157205
03463		6.666066	-3.797165	4.060558	-1.056109	0.128814	-1.844721	-82.654222	-43.224549	42.871942
03464		6.759685	-5.362260	2.555781	-1.263278	0.260904	-2.084122	-83.096352	-44.390996	42.464936
03465		6.928456	-6.719610	0.818698	-1.060367	0.358712	-2.263377	-83.347853	-45.656843	41.962771
03466		7.137065	-7.834209	0.032620	-0.740982	0.362700	-2.367774	-83.395178	-46.980502	41.441083
03467		7.737429	-8.478528	-0.013278	-0.448225	0.320815	-2.389407	-83.279020	-48.321236	40.937489
03468		8.413994	-8.269222	0.718990	-0.238649	0.339489	-2.375713	-83.010058	-49.649565	40.399763
03469		8.735790	-7.712901	1.617931	-0.190971	0.388495	-2.365765	-82.651403	-50.968846	39.792444
03470		8.706213	-6.932331	2.505349	-0.193989	0.438995	-2.425566	-82.219797	-52.313526	39.100246
03471		8.490041	-6.070097	2.158128	-0.387473	0.499881	-2.548299	-81.797443	-53.721743	38.294649
03472		8.466859	-5.342744	1.077708	-0.614692	0.536054	-2.619763	-81.421989	-55.162068	37.400190
03473		8.646377	-5.167847	0.792115	-0.665798	0.499103	-2.607210	-81.052300	-56.597059	36.493905
03474		8.908112	-5.177042	0.691680	-0.702963	0.482647	-2.553154	-80.672246	-57.997657	35.563597
03475		8.846836	-5.376826	0.760402	-0.707909	0.464788	-2.492698	-80.259453	-59.364240	34.606624
03476		8.801373	-5.619154	0.808806	-0.624243	0.418965	-2.447924	-79.790389	-60.704285	33.652309
03477		8.606894	-5.485872	0.928400	-0.528416	0.386814	-2.413352	-79.235298	-62.025762	32.675870
03478		8.525753	-5.227427	1.197306	-0.455734	0.334116	-2.383919	-78.630494	-63.329823	31.701203
03479		8.611135	-5.283981	1.806103	-0.396975	0.270486	-2.348126	-77.991338	-64.617972	30.737705
03480		8.545430	-5.261518	1.674469	-0.541079	0.232917	-2.320358	-77.409923	-65.888879	29.756119
03481		8.489077	-5.336908	1.197577	-0.644971	0.196253	-2.315158	-76.849239	-67.158912	28.742822
03482		8.599388	-5.300500	0.888890	-0.600885	0.155631	-2.310373	-76.233000	-68.425993	27.705327
03483		8.653687	-5.301065	0.945260	-0.526529	0.134939	-2.333480	-75.487747	-69.705319	26.585209
03484		8.468005	-5.034602	0.615826	-0.522052	0.147377	-2.363669	-74.586679	-70.992420	25.310810
03485		8.350205	-4.683052	0.511193	-0.504904	0.152264	-2.390216	-73.491896	-72.286700	23.853230
03486		8.409971	-4.231922	0.499929	-0.461789	0.150755	-2.426248	-72.158669	-73.590045	22.181902
03487		8.473318	-3.779754	0.550691	-0.444885	0.171116	-2.473919	-70.478893	-74.902927	20.172390
03488		8.565553	-3.537646	0.644852	-0.461622	0.185524	-2.530851	-68.387946	-76.224248	17.740263
03489		8.715159	-3.442801	0.534597	-0.507401	0.196535	-2.578925	-65.768322	-77.543006	14.752617
03490		8.765685	-3.422804	0.443705	-0.542713	0.196847	-2.612321	-62.480546	-78.842096	11.076306
03491		8.911981	-3.504683	0.423777	-0.527665	0.206068	-2.643032	-58.203621	-80.101866	6.419337
03492		9.035980	-3.520628	0.280595	-0.478537	0.215418	-2.679722	-52.541307	-81.298097	0.404164
03493		9.048543	-3.408531	0.160458	-0.459768	0.236102	-2.696491	-44.998716	-82.374657	-7.480950
03494		8.990049	-3.356805	0.316888	-0.371161	0.239193	-2.710808	-35.066458	-83.274235	-17.705288
03495		9.267334	-3.068468	0.245027	-0.318309	0.225340	-2.728505	-22.465525	-83.918912	-30.567868
03496		9.476655	-2.747327	-0.023849	-0.319061	0.250841	-2.731445	-7.743066	-84.192833	-45.552826
03497		9.328353	-2.476896	0.156799	-0.234082	0.252012	-2.680222	7.094721	-84.057827	-60.602861
03498		9.479878	-1.980012	0.218301	-0.173991	0.216153	-2.618173	20.221333	-83.582764	-73.905729
03499		9.824176	-1.517930	0.119702	-0.165373	0.209849	-2.553145	30.802281	-82.843019	-84.656198
03500		9.964449	-1.141843	0.208645	-0.135522	0.222129	-2.504627	38.995813	-81.917514	-93.000600
03501		9.895387	-0.862902	0.247543	-0.115629	0.227110	-2.452459	45.250670	-80.879044	-99.393375
03502		9.851533	-0.711553	0.154112	-0.141589	0.217202	-2.369257	50.014086	-79.793230	-104.307410
03503		9.974891	-0.592599	-0.012375	-0.132829	0.192414	-2.251318	53.685366	-78.712365	-108.121718
03504		10.009995	-0.269905	0.056389	-0.094376	0.172860	-2.104638	56.551187	-77.667901	-111.104670
03505		9.847461	-0.321406	0.319233	-0.030195	0.135565	-1.937723	58.857424	-76.690059	-113.487805
03506		9.656050	-0.458490	0.674288	0.100486	0.094014	-1.756290	60.799520	-75.794471	-115.427982
03507		9.260462	-0.414757	0.629298	0.155339	0.057664	-1.562014	62.415177	-74.993892	-117.005920
03508		8.905515	-0.290680	0.405815	0.224150	0.005762	-1.377805	63.840374	-74.289608	-118.350744
03509		8.899271	0.115036	0.615145	0.354620	-0.074738	-1.181778	65.198617	-73.699460	-119.552761
03510		9.067058	0.825049	0.884695	0.439319	-0.129757	-0.979284	66.460214	-73.219309	-120.606291
03511		9.211420	1.329930	0.893811	0.431800	-0.143508	-0.764722	67.521796	-72.850979	-121.457935
03512		9.007919	1.608495	0.820345	0.393361	-0.128158	-0.564041	68.363601	-72.580269	-122.103575
03513		8.942087	1.629793	0.550612	0.327875	-0.144230	-0.353436	69.033721	-72.424513	-122.609676
03514		8.902878	1.357238	0.540021	0.288710	-0.162478	-0.127094	69.562604	-72.390484	-122.991036
03515		8.931243	1.146291	0.649422	0.260298	-0.173283	0.111120	69.941298	-72.487559	-123.232259
03516		8.854802	0.944757	0.747591	0.218292	-0.164421	0.319379	70.157422	-72.692860	-123.327746
03517		8.558866	0.796747	0.949048	0.162967	-0.164192	0.500486	70.227668	-72.997653	-123.304004
03518		8.369523	0.540497	1.014507	0.105615	-0.170830	0.678238	70.165230	-73.397575	-123.175632
03519		8.340363	0.465772	0.883876	0.050006	-0.222194	0.851040	70.041180	-73.902690	-123.016980
03520		9.313058	2.642460	-1.056676	-0.254753	-0.391346	0.881920	70.038854	-74.455330	-123.166334
03521		10.776174	3.276801	-1.186475	-0.081062	-0.639775	0.567626	70.861283	-74.887865	-124.067706
03522		12.846947	4.403825	2.950438	0.779705	-0.582887	-0.076663	72.545198	-74.952087	-125.349064
03523		13.137846	5.092281	3.957870	0.764614	-0.033619	-0.427495	73.322931	-74.726797	-125.701366
03524		11.163880	6.308499	3.301374	0.201957	0.304772	-0.239723	72.984345	-74.545745	-125.230293
03525		8.679236	4.324782	0.279497	-0.197176	0.057309	0.079631	72.714483	-74.582502	-125.067954
03526		8.318676	3.391623	0.369016	0.260555	-0.425015	0.374659	73.497517	-74.859687	-125.724982
03527		9.105839	3.100182	0.018746	0.107363	-0.573316	0.584353	74.401885	-75.274917	-126.597655
03528		9.931331	2.984751	1.450224	0.058660	-0.410226	0.600112	74.969617	-75.669574	-127.149478
03529		10.344245	3.073932	2.773210	-0.178904	-0.250037	0.535595	75.108533	-76.005557	-127.398803
03530		10.239058	2.445768	2.809031	-0.444269	-0.197832	0.484521	75.018300	-76.303932	-127.568097
03531		9.766998	2.047272	2.335296	-0.582546	-0.225444	0.454472	74.928331	-76.591348	-127.819231
03532		9.709660	1.826313	1.324254	-0.685230	-0.272440	0.442213	74.906101	-76.877544	-128.199824
03533		10.292397	1.386495	0.184894	-0.719155	-0.241098	0.453805	74.783763	-77.167068	-128.497472
03534		10.699106	1.509361	0.088363	-0.524345	-0.214681	0.519497	74.673629	-77.487548	-128.692578
03535		10.945205	1.866224	-0.255657	-0.473753	-0.270748	0.623197	74.661597	-77.875477	-128.958436
03536		11.054616	1.891574	-0.564576	-0.516062	-0.317302	0.714855	74.696328	-78.319486	-129.296170
03537		10.757516	1.758724	-0.316185	-0.416611	-0.343493	0.747908	74.847455	-78.787277	-129.694218
03538		10.125326	1.059087	-0.292242	-0.440532	-0.360491	0.722382	75.082589	-79.241519	-130.190918
03539		9.681258	0.151931	-0.581633	-0.414460	-0.351914	0.672552	75.373894	-79.668232	-130.729064
03540		9.492766	-0.574211	-0.640654	-0.284653	-0.349498	0.631925	75.806196	-80.069651	-131.333949
03541		9.420160	-0.850822	-0.323047	-0.082753	-0.355043	0.605684	76.435335	-80.458242	-132.020675
03542		9.494383	-0.605777	-0.108096	0.050110	-0.389625	0.605958	77.321646	-80.847903	-132.889870
03543		10.039390	-0.044443	-0.034833	0.102127	-0.433837	0.633816	78.452239	-81.258222	-133.975438
