// General information: 
//  MT Manager version: 2022.2.0 
//  XDA version: 2022.2.0 build 7381 rev 124627 built on 2023-07-19
// Device information: 
//  DeviceId: 00B4BB4D
//  ProductCode: MTW2-3A7G6
//  Firmware Version: 4.6.0
//  Hardware Version: 2.0.0
// Device settings: 
//  Filter Profile: human(46.1)
//  Option Flags: Orientation Smoother Disabled, Position/Velocity Smoother Disabled, Continuous Zero Rotation Update Disabled, AHS Disabled, ICC Disabled
// Coordinate system: ENU
PacketCounter	SampleTimeFine	Acc_X	Acc_Y	Acc_Z	Gyr_X	Gyr_Y	Gyr_Z	Roll	Pitch	Yaw
25273		9.586459	-0.722629	-2.194682	-0.099170	0.017243	-0.024315	-157.732103	-77.982159	82.279504
25274		9.491811	-0.793306	-2.177058	-0.084280	0.008311	-0.016348	-157.801885	-77.993257	82.299141
25275		9.482602	-0.839945	-2.063685	-0.069653	-0.001119	-0.017891	-157.884129	-77.997604	82.339684
25276		9.560380	-0.798592	-2.020007	-0.042725	-0.006882	-0.010252	-157.930424	-77.999312	82.359650
25277		9.626376	-0.832408	-2.051637	-0.027361	-0.000082	-0.003235	-157.950836	-78.001024	82.361753
25278		9.684820	-0.819387	-2.056363	-0.011988	0.018201	-0.000579	-157.929950	-78.013968	82.331041
25279		9.638658	-0.791224	-2.050793	-0.014658	0.030954	0.006488	-157.887238	-78.030045	82.276056
25280		9.551766	-0.723274	-2.061699	-0.016941	0.033922	0.007874	-157.831814	-78.049498	82.207143
25281		9.492036	-0.676627	-2.048644	-0.041221	0.023899	0.014643	-157.790851	-78.060032	82.138394
25282		9.486490	-0.689289	-2.026786	-0.055556	0.012234	0.020716	-157.747297	-78.065176	82.059007
25283		9.490223	-0.669054	-2.158280	-0.068313	0.005457	0.035242	-157.689106	-78.061421	81.956780
25284		9.567684	-0.682648	-2.230192	-0.086949	0.005942	0.051407	-157.593093	-78.056505	81.805386
25285		9.722695	-0.725083	-2.412745	-0.108945	0.012815	0.069523	-157.465070	-78.049042	81.607975
25286		9.695681	-0.691293	-2.396430	-0.138124	0.041375	0.075992	-157.300204	-78.057308	81.356230
25287		9.562489	-0.722354	-2.242338	-0.206117	0.076391	0.074811	-157.147981	-78.081999	81.077181
25288		9.470160	-0.759614	-1.992443	-0.282131	0.076653	0.068477	-157.046015	-78.110301	80.805437
25289		9.558278	-0.796178	-1.896255	-0.344029	0.073211	0.066413	-156.995726	-78.134972	80.549853
25290		9.656446	-0.764198	-1.873977	-0.404865	0.083555	0.063027	-156.968863	-78.168022	80.283049
25291		9.671152	-0.764730	-1.836998	-0.465357	0.095623	0.055326	-156.990633	-78.206971	80.030122
25292		9.561744	-0.740779	-1.763126	-0.535136	0.107167	0.041898	-157.064853	-78.257245	79.790408
25293		9.479757	-0.799485	-1.822878	-0.568384	0.099330	0.030172	-157.204298	-78.303916	79.597459
25294		9.428727	-0.775645	-1.794840	-0.560804	0.081833	0.015302	-157.387583	-78.346909	79.454176
25295		9.488693	-0.784801	-1.875524	-0.521416	0.064773	0.005010	-157.601735	-78.381071	79.365038
25296		9.692725	-0.836094	-2.061226	-0.431121	0.044973	-0.003128	-157.797928	-78.408735	79.310822
25297		9.753469	-0.888965	-2.261205	-0.341317	0.071785	-0.007630	-157.934931	-78.449460	79.248286
25298		9.696903	-0.878374	-2.211668	-0.276528	0.101395	-0.019029	-158.024779	-78.510562	79.175953
25299		9.692681	-0.854874	-2.104603	-0.245986	0.108678	-0.017649	-158.094596	-78.573044	79.100624
25300		9.677210	-0.902111	-2.076310	-0.245377	0.120407	-0.008701	-158.119046	-78.642080	78.979818
25301		9.537171	-0.929004	-2.011380	-0.257257	0.128603	0.002473	-158.120106	-78.710850	78.827823
25302		9.513191	-0.918138	-1.914843	-0.268602	0.117702	0.013494	-158.100049	-78.773707	78.648125
25303		9.547518	-0.910236	-1.863337	-0.279777	0.099119	0.022518	-158.090202	-78.822487	78.471928
25304		9.521424	-0.856308	-1.799821	-0.285009	0.102343	0.025610	-158.061631	-78.874568	78.274036
25305		9.489054	-0.816342	-1.716174	-0.272740	0.107467	0.027242	-158.023953	-78.926735	78.073654
25306		9.534261	-0.738227	-1.734295	-0.244179	0.092807	0.022605	-157.988478	-78.974348	77.892634
25307		9.559511	-0.655218	-1.724851	-0.209439	0.088663	0.019847	-157.953432	-79.018076	77.731951
25308		9.676080	-0.569458	-1.714506	-0.185562	0.085523	0.006658	-157.934421	-79.065213	77.601964
25309		9.743270	-0.586391	-1.699505	-0.196257	0.086430	0.005581	-157.932190	-79.110820	77.482441
25310		9.876123	-0.622537	-1.677215	-0.199023	0.075432	-0.000449	-157.950756	-79.154128	77.382904
25311		9.883800	-0.604928	-1.690094	-0.191911	0.078415	-0.014620	-158.010465	-79.199856	77.329012
25312		9.721284	-0.582110	-1.631763	-0.205652	0.102904	-0.040766	-158.114128	-79.266434	77.312264
25313		9.506941	-0.555761	-1.588810	-0.213758	0.104883	-0.064665	-158.297890	-79.336950	77.371905
25314		9.390118	-0.511454	-1.565208	-0.210371	0.081228	-0.082286	-158.548460	-79.400746	77.501886
25315		9.481918	-0.452093	-1.588336	-0.198639	0.053626	-0.080118	-158.828872	-79.447048	77.668639
25316		9.599807	-0.416809	-1.590094	-0.212393	0.039619	-0.065940	-159.084025	-79.485005	77.802063
25317		9.764101	-0.377297	-1.666985	-0.235156	0.036908	-0.051941	-159.325900	-79.516368	77.908300
25318		9.761758	-0.453643	-1.695404	-0.287563	0.061172	-0.044518	-159.541027	-79.561371	77.957193
25319		9.700471	-0.528882	-1.679535	-0.350009	0.082725	-0.052132	-159.802124	-79.617253	78.016034
25320		9.652238	-0.608215	-1.631602	-0.411548	0.091015	-0.058611	-160.100475	-79.681004	78.077297
25321		9.681824	-0.787496	-1.728715	-0.447066	0.083964	-0.062191	-160.449794	-79.739404	78.169265
25322		9.745938	-0.987385	-1.863936	-0.451888	0.096439	-0.057676	-160.767530	-79.805778	78.226716
25323		9.709323	-1.168223	-1.861232	-0.437292	0.106221	-0.051634	-161.060825	-79.874055	78.267433
25324		9.623285	-1.333872	-1.704482	-0.414338	0.102601	-0.045043	-161.316700	-79.941330	78.283879
25325		9.600297	-1.463329	-1.529547	-0.388011	0.088996	-0.030978	-161.539752	-79.996388	78.281947
25326		9.559467	-1.473140	-1.361985	-0.350268	0.084473	-0.010205	-161.672865	-80.047486	78.211013
25327		9.518490	-1.451014	-1.262307	-0.316903	0.093317	0.013555	-161.713165	-80.096878	78.064945
25328		9.533082	-1.361119	-1.149805	-0.285350	0.097482	0.040331	-161.637420	-80.145963	77.819786
25329		9.608574	-1.284203	-1.118268	-0.240789	0.113409	0.069145	-161.435796	-80.196141	77.472524
25330		9.754031	-1.157024	-1.080784	-0.210285	0.140276	0.089499	-161.111762	-80.259108	77.019142
25331		9.769042	-1.040019	-1.027240	-0.180621	0.176461	0.102959	-160.691106	-80.336464	76.484798
25332		9.732619	-0.922265	-0.986809	-0.153100	0.208022	0.106160	-160.191752	-80.431687	75.887039
25333		9.775581	-0.795364	-0.972076	-0.128040	0.223129	0.108577	-159.649579	-80.531555	75.260336
25334		9.813893	-0.704817	-1.150852	-0.094353	0.223187	0.107446	-159.070587	-80.632749	74.616318
25335		9.746691	-0.635253	-1.254149	-0.075334	0.249131	0.098529	-158.471640	-80.746545	73.963066
25336		9.544072	-0.634328	-1.168697	-0.087583	0.268430	0.083180	-157.880108	-80.874772	73.310696
25337		9.444202	-0.589162	-1.075817	-0.109530	0.246888	0.074440	-157.351866	-80.990515	72.709654
25338		9.460276	-0.565224	-1.090282	-0.135747	0.226979	0.075849	-156.838877	-81.096513	72.109282
25339		9.506744	-0.492107	-1.219321	-0.138809	0.212062	0.075196	-156.348080	-81.192105	71.529512
25340		9.446248	-0.438692	-1.407659	-0.136957	0.216585	0.072168	-155.838363	-81.291862	70.932073
25341		9.306607	-0.441297	-1.543293	-0.143580	0.196377	0.067745	-155.376720	-81.379502	70.379322
25342		9.227552	-0.442295	-1.590976	-0.151584	0.164329	0.058119	-154.984394	-81.454000	69.892405
25343		9.238560	-0.441842	-1.505636	-0.164868	0.126146	0.047590	-154.701932	-81.508989	69.508708
25344		9.401549	-0.482358	-1.563895	-0.189147	0.090473	0.039663	-154.505638	-81.549059	69.198370
25345		9.546142	-0.574728	-1.743179	-0.198019	0.080780	0.033023	-154.362330	-81.583779	68.936225
25346		9.450169	-0.587952	-1.855299	-0.195604	0.087922	0.016579	-154.250543	-81.628029	68.707629
25347		9.284617	-0.619336	-1.778706	-0.173653	0.070032	-0.002350	-154.232749	-81.665831	68.586506
25348		9.160396	-0.609632	-1.654235	-0.156255	0.019929	-0.025317	-154.359739	-81.685384	68.622057
25349		9.231142	-0.660946	-1.506521	-0.144460	-0.027310	-0.039311	-154.621066	-81.681995	68.799936
25350		9.406584	-0.727821	-1.366766	-0.134763	-0.064493	-0.042337	-154.937918	-81.661900	69.039818
25351		9.633740	-0.842665	-1.317026	-0.109691	-0.085339	-0.038501	-155.270668	-81.627859	69.310042
25352		9.804942	-0.887860	-1.230557	-0.062990	-0.081070	-0.032959	-155.536860	-81.596514	69.540321
25353		9.894140	-0.933485	-1.075647	-0.019413	-0.066259	-0.044219	-155.803167	-81.573394	69.795718
25354		9.893483	-0.884675	-0.975910	0.053722	-0.055016	-0.049834	-156.017789	-81.559327	70.041493
25355		9.919163	-0.765528	-0.905335	0.165303	-0.071602	-0.053908	-156.217987	-81.535386	70.337092
25356		9.957273	-0.510737	-0.881557	0.272161	-0.071700	-0.052973	-156.342465	-81.513059	70.618292
25357		9.957840	-0.271812	-0.885851	0.370242	-0.060984	-0.048756	-156.388285	-81.493372	70.876563
25358		9.876710	-0.031085	-0.953910	0.445779	-0.041754	-0.050503	-156.357281	-81.486130	71.101159
25359		9.760020	0.181674	-0.959707	0.473100	-0.035306	-0.057168	-156.333768	-81.481934	71.348920
25360		9.671112	0.359000	-0.985919	0.434189	-0.046278	-0.054309	-156.329390	-81.473217	71.593731
25361		9.825191	0.448184	-1.123626	0.335658	-0.071417	-0.037742	-156.371737	-81.445681	71.828455
25362		9.903994	0.410476	-1.262968	0.200067	-0.065701	-0.021353	-156.414877	-81.419167	71.985694
25363		9.811879	0.218483	-1.296169	0.056933	-0.038425	-0.007477	-156.460766	-81.402045	72.062491
25364		9.668447	-0.017604	-1.318582	-0.056984	-0.041103	-0.009318	-156.571207	-81.385659	72.138856
25365		9.618542	-0.212968	-1.405291	-0.122936	-0.055972	-0.016680	-156.778049	-81.361392	72.274199
25366		9.587220	-0.398939	-1.479736	-0.162238	-0.058685	-0.024211	-157.025259	-81.339011	72.427916
25367		9.516317	-0.541386	-1.436559	-0.177759	-0.052330	-0.035982	-157.323241	-81.320793	72.623686
25368		9.433963	-0.628246	-1.451803	-0.191096	-0.045087	-0.043314	-157.631533	-81.309571	72.822481
25369		9.328386	-0.653932	-1.425723	-0.183600	-0.047485	-0.042142	-157.945471	-81.294937	73.031023
25370		9.344359	-0.677426	-1.351047	-0.168102	-0.069224	-0.032805	-158.236244	-81.268316	73.225442
25371		9.390217	-0.652651	-1.390593	-0.151530	-0.077122	-0.023744	-158.506523	-81.233687	73.408436
25372		9.496581	-0.675034	-1.445204	-0.115866	-0.086098	0.000780	-158.671266	-81.190786	73.505648
25373		9.541865	-0.654157	-1.485902	-0.079068	-0.090343	0.011445	-158.793547	-81.141604	73.580929
25374		9.586815	-0.587071	-1.553006	-0.037735	-0.088642	0.021526	-158.843833	-81.092989	73.607628
25375		9.569012	-0.513062	-1.537921	-0.013566	-0.092678	0.020544	-158.899069	-81.040639	73.653052
25376		9.595703	-0.408837	-1.513900	-0.014432	-0.096877	0.019002	-158.954378	-80.988134	73.698362
25377		9.718726	-0.324206	-1.437275	-0.041687	-0.105702	0.017582	-159.051265	-80.929403	73.769656
25378		9.876685	-0.259283	-1.397866	-0.092042	-0.096673	0.016941	-159.156103	-80.877407	73.820106
25379		9.927043	-0.261452	-1.389298	-0.153072	-0.079126	0.011402	-159.301779	-80.834153	73.876186
25380		9.878994	-0.421009	-1.417739	-0.189394	-0.067270	0.004474	-159.465012	-80.800401	73.929298
25381		9.832575	-0.541057	-1.513579	-0.200016	-0.069881	-0.012359	-159.702901	-80.766840	74.051553
25382		9.758644	-0.671812	-1.564499	-0.179501	-0.069312	-0.032167	-159.981958	-80.739157	74.227767
25383		9.695209	-0.798858	-1.542809	-0.147495	-0.063354	-0.050906	-160.306431	-80.716427	74.468265
25384		9.610527	-0.827170	-1.545430	-0.101725	-0.068598	-0.055210	-160.613361	-80.693242	74.717902
25385		9.575753	-0.848893	-1.489711	-0.053189	-0.074555	-0.055427	-160.908593	-80.664879	74.983570
25386		9.574951	-0.843424	-1.497945	-0.001533	-0.092597	-0.050285	-161.166036	-80.627368	75.241275
25387		9.652411	-0.780620	-1.560966	0.036293	-0.096130	-0.044112	-161.392932	-80.584818	75.489712
25388		9.645651	-0.753994	-1.619149	0.064119	-0.098286	-0.047302	-161.605152	-80.543338	75.739767
25389		9.641451	-0.644497	-1.639238	0.075439	-0.104317	-0.052360	-161.840833	-80.497486	76.019923
25390		9.640909	-0.602214	-1.716321	0.080878	-0.113045	-0.059784	-162.095155	-80.449844	76.322471
25391		9.610741	-0.514782	-1.733127	0.070376	-0.110408	-0.059241	-162.357019	-80.401449	76.626321
25392		9.633123	-0.477180	-1.706955	0.036398	-0.111034	-0.062064	-162.636507	-80.354839	76.928631
25393		9.662086	-0.423594	-1.698801	0.000308	-0.107019	-0.061517	-162.936688	-80.308174	77.230711
25394		9.685549	-0.432800	-1.646264	-0.049529	-0.098215	-0.054479	-163.223008	-80.266814	77.490085
25395		9.645848	-0.479853	-1.615113	-0.096469	-0.087938	-0.051023	-163.521563	-80.228386	77.734329
25396		9.663717	-0.465413	-1.610495	-0.141850	-0.080701	-0.050530	-163.827328	-80.195568	77.959815
25397		9.729660	-0.525742	-1.585716	-0.179473	-0.067970	-0.048732	-164.143872	-80.167343	78.174102
25398		9.779394	-0.650990	-1.588511	-0.206447	-0.048225	-0.049218	-164.450166	-80.151820	78.362598
25399		9.757334	-0.771647	-1.578742	-0.215163	-0.025615	-0.048996	-164.748330	-80.146653	78.537503
25400		9.728050	-0.898284	-1.508371	-0.201001	-0.005458	-0.051014	-165.019323	-80.154725	78.693342
25401		9.694106	-1.050771	-1.459859	-0.169800	0.012826	-0.042107	-165.236526	-80.169567	78.812468
25402		9.740518	-1.163672	-1.546935	-0.105055	0.020596	-0.040176	-165.396798	-80.190304	78.911715
25403		9.671996	-1.313876	-1.670735	-0.023534	0.047678	-0.030097	-165.462919	-80.222638	78.962582
25404		9.545197	-1.378264	-1.669370	0.061762	0.049970	-0.027130	-165.461906	-80.257746	78.995141
25405		9.476706	-1.392649	-1.735179	0.139259	0.036553	-0.014397	-165.392867	-80.281612	79.003538
25406		9.516921	-1.350489	-1.810744	0.193616	0.032957	0.002905	-165.233089	-80.302943	78.951664
25407		9.501388	-1.343680	-1.967463	0.232139	0.029194	0.025762	-164.985392	-80.316770	78.832839
25408		9.457564	-1.267712	-2.172176	0.306828	-0.001617	0.048940	-164.640803	-80.311996	78.659290
25409		9.461931	-1.037300	-2.226976	0.366961	-0.034727	0.046038	-164.306252	-80.287103	78.530745
25410		9.479992	-0.825095	-2.294999	0.386606	-0.046668	0.037336	-163.995464	-80.258977	78.437844
25411		9.553736	-0.615782	-2.216265	0.358371	-0.028614	0.004604	-163.794685	-80.243704	78.440035
25412		9.513916	-0.344524	-2.097984	0.291267	-0.020976	-0.033822	-163.743612	-80.241003	78.555226
25413		9.572020	-0.189819	-2.048268	0.184076	-0.008984	-0.074723	-163.878498	-80.249127	78.796679
25414		9.549323	-0.085784	-2.073750	0.063030	0.004054	-0.109044	-164.176752	-80.271985	79.133616
25415		9.529790	-0.138258	-2.232051	-0.069124	0.009754	-0.138774	-164.648195	-80.299835	79.569300
25416		9.473012	-0.380067	-2.401579	-0.189530	-0.004560	-0.155095	-165.251820	-80.323858	80.069175
25417		9.512187	-0.719625	-2.559770	-0.272333	-0.020827	-0.161602	-165.945240	-80.336376	80.611869
25418		9.571064	-1.048161	-2.708282	-0.297793	-0.032982	-0.171900	-166.693216	-80.344837	81.195206
25419		9.520235	-1.360328	-2.619410	-0.261118	-0.019648	-0.170743	-167.412048	-80.356719	81.770187
25420		9.488613	-1.563945	-2.396420	-0.166937	-0.007194	-0.177193	-168.086725	-80.377817	82.355178
25421		9.451902	-1.600582	-1.995077	-0.038025	-0.005005	-0.175871	-168.687639	-80.396109	82.940194
25422		9.492845	-1.459520	-1.676017	0.089325	-0.011328	-0.168061	-169.192520	-80.411840	83.501827
25423		9.489609	-1.192798	-1.460705	0.176455	-0.010161	-0.157033	-169.613567	-80.423451	84.029062
25424		9.400762	-0.851260	-1.441410	0.223949	-0.016587	-0.147464	-169.978356	-80.432726	84.526808
25425		9.368839	-0.495960	-1.425475	0.215583	-0.026402	-0.156370	-170.385189	-80.433920	85.062378
25426		9.326552	-0.245944	-1.604034	0.178746	-0.038331	-0.169304	-170.862164	-80.431745	85.647620
25427		9.368148	-0.003329	-1.765341	0.126503	-0.066773	-0.208057	-171.513735	-80.413069	86.379659
25428		9.436532	0.209111	-1.950491	0.071632	-0.117965	-0.243812	-172.336627	-80.369507	87.253566
25429		9.607840	0.471279	-2.003896	-0.022583	-0.190596	-0.275464	-173.339776	-80.281729	88.255812
25430		9.819619	0.633873	-1.874794	-0.169071	-0.227270	-0.303464	-174.512388	-80.174436	89.345070
25431		10.017896	0.700023	-1.706008	-0.330630	-0.201619	-0.350018	-175.898286	-80.077032	90.557259
25432		10.032656	0.799407	-1.602339	-0.484253	-0.148764	-0.424436	-177.579547	-80.009647	91.980205
25433		9.882583	0.912367	-1.439919	-0.689762	-0.109023	-0.510867	-179.634203	-79.955389	93.663071
25434		9.726615	0.808490	-1.437278	-0.903678	-0.089022	-0.597850	177.928883	-79.903274	95.609917
25435		9.776202	0.711474	-1.543870	-1.053587	-0.111104	-0.672297	175.200530	-79.817876	97.766031
25436		9.971099	0.487965	-1.635348	-1.142070	-0.111925	-0.714576	172.333275	-79.713752	100.012369
25437		10.191929	0.419491	-1.585590	-1.179726	-0.064405	-0.728011	169.433842	-79.612583	102.270281
25438		10.325419	0.401737	-1.617861	-1.164097	-0.030518	-0.723502	166.585712	-79.513515	104.485790
25439		10.353692	0.456795	-1.678400	-1.133075	-0.001584	-0.720438	163.793926	-79.408597	106.662898
25440		10.330277	0.512098	-1.750823	-1.089989	0.047137	-0.731276	160.998329	-79.311810	108.869618
25441		10.097298	0.603968	-1.730889	-0.977841	0.112056	-0.746862	158.203833	-79.224390	111.141427
25442		9.761757	0.654643	-1.591571	-0.785882	0.150771	-0.763369	155.467807	-79.135939	113.466205
25443		9.473461	0.861315	-1.444914	-0.544962	0.121629	-0.764110	152.955753	-79.009828	115.704482
25444		9.510473	1.114866	-1.340131	-0.337021	0.027587	-0.731494	150.831112	-78.830449	117.670372
25445		9.704151	1.156391	-1.282195	-0.268226	-0.044376	-0.680893	149.046291	-78.614670	119.331497
25446		10.025350	0.853814	-1.353983	-0.272325	-0.065841	-0.619044	147.497272	-78.400149	120.750647
25447		10.058813	0.252413	-1.421101	-0.226803	-0.037490	-0.551874	146.143161	-78.210844	121.998654
25448		9.778035	-0.354089	-1.375893	-0.128946	-0.019466	-0.478309	145.016114	-78.050787	123.072491
25449		9.411080	-0.929662	-1.156006	-0.055422	-0.030452	-0.391189	144.171703	-77.908585	123.901326
25450		9.124973	-1.577979	-0.913766	-0.012855	-0.063038	-0.284088	143.644381	-77.787539	124.430861
25451		8.933294	-2.040247	-0.576119	0.091733	-0.068249	-0.160429	143.462274	-77.703649	124.669059
25452		8.836755	-2.243827	-0.317158	0.246643	-0.050894	-0.027783	143.616354	-77.674755	124.653654
25453		8.735050	-2.210903	-0.294164	0.399919	-0.036731	0.105333	144.125889	-77.695950	124.364821
25454		8.921117	-2.058377	-0.427787	0.515667	-0.049581	0.229059	144.980768	-77.752960	123.789968
25455		9.280929	-1.961144	-0.676992	0.586359	-0.046925	0.370319	146.198980	-77.853727	122.885610
25456		9.663823	-1.839493	-0.944289	0.622954	-0.018004	0.530914	147.768550	-78.014919	121.643239
25457		9.799383	-1.595343	-1.112571	0.554463	0.020008	0.689290	149.667499	-78.233171	120.025752
25458		9.799860	-1.490135	-1.369139	0.409426	0.065217	0.840250	151.848565	-78.505135	118.036146
25459		9.757041	-1.451114	-1.618658	0.241896	0.112549	0.968456	154.316796	-78.817412	115.658584
25460		9.724632	-1.501297	-1.696846	0.067853	0.167354	1.072278	157.025975	-79.162172	112.935911
25461		9.721496	-1.642032	-1.672854	-0.067207	0.217323	1.159181	160.042171	-79.524687	109.826121
25462		9.819709	-1.786241	-1.615376	-0.188911	0.235263	1.237361	163.405062	-79.879384	106.295889
25463		9.838988	-2.031367	-1.533089	-0.253482	0.245923	1.301513	167.182567	-80.208391	102.311761
25464		9.782430	-2.327384	-1.376864	-0.292610	0.251494	1.347460	171.321675	-80.498303	97.940980
25465		9.847708	-2.682879	-1.238316	-0.294214	0.231099	1.376912	175.827968	-80.721119	93.201269
25466		9.986158	-2.967006	-1.208853	-0.214964	0.218000	1.411800	-179.320649	-80.874775	88.159636
25467		9.959570	-3.325551	-1.231267	-0.088214	0.225752	1.437997	-174.149293	-80.959140	82.870146
25468		9.724011	-3.796388	-1.185455	0.090049	0.213876	1.446672	-168.819125	-80.961311	77.522966
25469		9.461864	-4.187264	-1.316413	0.399232	0.153614	1.424776	-163.471238	-80.852244	72.337462
25470		9.210491	-4.368106	-1.511808	0.770369	0.055079	1.391009	-158.332990	-80.624407	67.576334
25471		9.023472	-4.527200	-1.759103	1.101815	-0.082015	1.356455	-153.562717	-80.264372	63.377998
25472		9.110613	-4.435860	-1.849868	1.389090	-0.195901	1.331868	-149.243532	-79.803169	59.798477
25473		9.421069	-4.151676	-1.557728	1.526378	-0.232360	1.296719	-145.335490	-79.288134	56.712764
25474		9.644668	-3.878484	-1.258695	1.554501	-0.166492	1.261205	-141.722006	-78.784112	53.937051
25475		9.652533	-3.625378	-1.022008	1.533514	-0.106866	1.193503	-138.417453	-78.295785	51.460848
25476		9.484924	-3.330628	-1.020488	1.447375	-0.073043	1.110119	-135.508501	-77.832989	49.332926
25477		9.188300	-3.041462	-1.172090	1.354539	-0.035723	1.013551	-132.923849	-77.399324	47.480391
25478		8.806707	-2.792497	-1.350469	1.224617	-0.015682	0.924025	-130.683510	-77.000259	45.900168
25479		8.443645	-2.643604	-1.550995	1.103776	-0.002312	0.854546	-128.692547	-76.618869	44.503936
25480		7.925031	-2.360074	-1.710201	0.960398	-0.037367	0.796955	-127.036648	-76.246565	43.364226
25481		7.620626	-1.914999	-1.812771	0.726957	-0.191582	0.737345	-125.937849	-75.837419	42.660315
25482		7.906328	-1.887638	-1.774382	0.503303	-0.308382	0.684483	-125.305128	-75.416895	42.302482
25483		8.215917	-2.128026	-1.569659	0.551756	-0.267514	0.615664	-124.673627	-75.035588	41.975463
25484		8.376113	-2.078283	-1.107870	0.631249	-0.182400	0.551002	-123.960028	-74.717013	41.608552
25485		8.519698	-2.104514	-1.178191	0.540289	-0.143788	0.495824	-123.305641	-74.430288	41.249982
25486		9.001409	-2.057285	-2.141018	0.588633	-0.208396	0.457861	-122.803248	-74.146287	41.076067
25487		9.760915	-1.448367	-2.580214	0.780693	-0.230039	0.438122	-122.250776	-73.859109	40.965802
25488		9.590914	-0.855502	-2.095679	0.802833	-0.151114	0.443283	-121.570843	-73.598664	40.734301
25489		8.893879	-0.992734	-1.673982	0.659806	-0.285483	0.403862	-121.236550	-73.311300	40.779002
25490		9.837595	-0.887659	-2.135464	0.865341	-0.607065	0.261995	-121.452765	-73.003039	41.520542
25491		11.902880	0.429905	-1.693709	1.063908	-0.626116	0.120476	-121.698662	-72.751992	42.414719
25492		12.899152	1.119062	-1.817243	0.742923	-0.339104	-0.001823	-121.794388	-72.651559	42.958413
25493		12.683032	1.476209	-2.529200	0.537267	-0.309446	-0.130237	-122.075653	-72.617351	43.574547
25494		12.704421	2.213611	-2.490643	0.409926	-0.365740	-0.254540	-122.645072	-72.629334	44.414901
25495		12.701988	2.808868	-2.347750	0.200712	-0.389754	-0.354955	-123.467409	-72.675015	45.395596
25496		13.186849	2.943389	-2.270774	0.109726	-0.448722	-0.441816	-124.533191	-72.742183	46.575272
25497		13.720163	2.447688	-2.557705	0.078972	-0.344578	-0.516594	-125.543954	-72.869201	47.679125
25498		13.437363	2.103847	-3.257717	0.277526	-0.271029	-0.605733	-126.449847	-73.059940	48.790502
25499		12.583368	2.514824	-3.818620	0.284512	-0.290010	-0.684634	-127.491188	-73.272277	50.046959
25500		11.289131	2.756276	-3.541057	-0.097649	-0.249572	-0.710702	-128.755863	-73.505710	51.305932
25501		10.069418	2.614526	-3.367829	-0.416523	-0.257124	-0.720985	-130.262977	-73.730286	52.625968
25502		9.635768	2.666763	-3.787563	-0.607228	-0.345097	-0.739027	-132.073937	-73.920462	54.146919
25503		9.630090	2.507685	-3.850214	-0.936704	-0.346877	-0.728030	-134.101091	-74.089550	55.695038
25504		9.738144	1.772318	-3.533904	-1.251113	-0.294160	-0.711771	-136.246490	-74.259356	57.177495
25505		10.163877	0.926556	-3.550703	-1.437736	-0.256805	-0.716675	-138.496259	-74.429916	58.655844
25506		10.457442	0.107531	-3.746474	-1.517275	-0.118455	-0.716622	-140.643825	-74.646667	59.979690
25507		10.224621	-0.656988	-3.684605	-1.513899	0.058736	-0.701693	-142.587191	-74.923705	61.092012
25508		9.697373	-1.344162	-3.496526	-1.414180	0.165878	-0.684992	-144.358000	-75.236053	62.083695
25509		9.253906	-2.086333	-3.476881	-1.156493	0.190369	-0.673333	-145.991594	-75.546981	63.084348
25510		8.746195	-2.837193	-3.146584	-0.803441	0.158950	-0.668977	-147.502068	-75.835888	64.165737
25511		8.348375	-3.484234	-2.823703	-0.469109	0.065426	-0.651615	-148.955048	-76.065276	65.383767
25512		8.348202	-3.825505	-2.760550	-0.075211	-0.075780	-0.619310	-150.317058	-76.209916	66.739892
25513		8.559120	-3.919656	-2.804730	0.333787	-0.143062	-0.554548	-151.416765	-76.293711	68.066389
25514		8.609275	-3.842538	-2.782487	0.696624	-0.137820	-0.481127	-152.159036	-76.357290	69.238739
25515		8.585414	-3.386614	-2.674016	1.002018	-0.138465	-0.420840	-152.610239	-76.399200	70.291363
25516		8.740821	-2.682187	-2.388353	1.196391	-0.137949	-0.367788	-152.839299	-76.428412	71.229879
25517		8.809014	-1.878306	-2.041006	1.287845	-0.124350	-0.328020	-152.920145	-76.450908	72.069835
25518		8.853814	-1.063603	-1.683766	1.304114	-0.117776	-0.307535	-152.941792	-76.473909	72.858305
25519		8.946811	-0.273432	-1.682736	1.263473	-0.115806	-0.288349	-152.945283	-76.490190	73.604234
25520		9.075355	0.533284	-1.678950	1.166773	-0.103758	-0.262501	-152.936890	-76.508572	74.280761
25521		9.214087	1.277757	-1.668998	0.989143	-0.110759	-0.241937	-152.995356	-76.515399	74.921452
25522		9.424298	1.809869	-1.633306	0.707224	-0.093340	-0.210616	-153.129645	-76.525302	75.473882
25523		9.651811	2.050242	-1.828691	0.398573	-0.058133	-0.193278	-153.368367	-76.546000	75.951807
25524		9.796171	2.143980	-2.009924	0.026447	0.019557	-0.185681	-153.721031	-76.606365	76.327605
25525		9.597280	1.904912	-1.917862	-0.402134	0.096601	-0.181035	-154.235213	-76.702482	76.616739
25526		9.469313	1.463413	-2.102088	-0.674409	0.083666	-0.191359	-154.944549	-76.795820	76.946151
25527		9.505990	1.012885	-2.138373	-0.811264	0.068062	-0.207810	-155.797666	-76.882013	77.342275
25528		9.504311	0.462445	-2.081304	-0.878241	0.052320	-0.213212	-156.720205	-76.961713	77.770437
25529		9.413275	-0.176744	-1.909813	-0.920915	0.027100	-0.211778	-157.702272	-77.024327	78.234103
25530		9.303770	-0.871515	-2.153164	-0.921267	-0.001333	-0.201698	-158.688118	-77.069716	78.701714
25531		9.338266	-1.517665	-2.431769	-0.850413	-0.023512	-0.191985	-159.641174	-77.097645	79.176884
25532		9.327810	-2.020955	-2.483966	-0.697881	-0.006532	-0.177141	-160.454313	-77.132021	79.598497
25533		9.233241	-2.446427	-2.503910	-0.460142	0.005135	-0.166969	-161.105965	-77.167637	79.993807
25534		9.294754	-2.568310	-2.659224	-0.213127	-0.014872	-0.152653	-161.595125	-77.190852	80.367894
25535		9.433644	-2.623191	-2.585571	-0.021146	-0.037694	-0.129092	-161.941231	-77.194695	80.707839
25536		9.641019	-2.559913	-2.462756	0.187367	-0.050934	-0.100699	-162.105964	-77.188093	80.984524
25537		9.718682	-2.288120	-2.433563	0.376638	-0.041884	-0.065540	-162.073672	-77.177888	81.170257
25538		9.568913	-1.869978	-2.386501	0.511989	-0.006820	-0.038018	-161.867750	-77.184261	81.257572
25539		9.368518	-1.365812	-2.534619	0.587696	-0.024566	-0.018550	-161.587749	-77.175194	81.313358
25540		9.438977	-0.693587	-2.772209	0.568520	-0.032357	-0.008517	-161.299181	-77.162496	81.349135
25541		9.302986	-0.097326	-2.699028	0.457064	0.018616	0.014154	-160.981203	-77.170817	81.289222
25542		9.123744	0.264096	-2.466900	0.364928	0.029805	0.030186	-160.666488	-77.184561	81.178549
25543		8.991382	0.629501	-2.373802	0.269290	0.022111	0.031258	-160.412614	-77.191332	81.073998
25544		8.858410	0.808521	-2.288167	0.103050	0.000872	0.017202	-160.302664	-77.191764	81.019447
25545		8.873741	0.745030	-2.268467	-0.104589	-0.069969	-0.009751	-160.439080	-77.156694	81.095388
25546		9.202269	0.522575	-2.517192	-0.323539	-0.126348	-0.011788	-160.748343	-77.093944	81.220127
25547		9.575739	0.336502	-3.037641	-0.451838	-0.140985	-0.008493	-161.137359	-77.020036	81.351068
25548		9.792901	0.391352	-3.202438	-0.543289	-0.082818	0.010783	-161.480230	-76.976425	81.381141
25549		9.555892	0.297729	-2.858433	-0.734323	0.010218	0.039534	-161.796529	-76.975656	81.271291
25550		9.274361	-0.000607	-2.690635	-0.990250	0.076176	0.073458	-162.123416	-77.007469	81.022125
25551		8.995902	-0.501035	-2.635497	-1.187190	0.133306	0.096150	-162.472144	-77.064285	80.679263
25552		8.733005	-0.958019	-2.648694	-1.228198	0.133135	0.096326	-162.838027	-77.124021	80.330340
25553		8.618614	-1.362816	-2.812613	-1.151961	0.102705	0.104950	-163.168393	-77.163482	79.989491
25554		8.397201	-1.694246	-2.960255	-1.046026	0.109839	0.134808	-163.354306	-77.204907	79.563170
25555		8.181444	-2.029292	-2.923590	-0.974649	0.101431	0.169759	-163.426058	-77.233420	79.061449
25556		8.482936	-2.251254	-2.839800	-0.844772	0.016070	0.242706	-163.302472	-77.205840	78.436065
25557		9.498695	-2.389139	-2.825178	-0.688760	-0.089494	0.356793	-162.901615	-77.097789	77.617538
25558		11.040131	-2.350581	-3.174415	-0.589560	-0.120833	0.479476	-162.183481	-76.952697	76.531602
25559		12.289396	-2.179235	-3.184219	-0.533662	0.023919	0.599833	-161.064540	-76.857600	75.066303
25560		12.527052	-2.028086	-3.124154	-0.571952	0.221263	0.678415	-159.633289	-76.849546	73.257667
25561		11.929392	-1.781496	-2.997358	-0.589615	0.330740	0.709705	-158.048392	-76.879588	71.280751
25562		10.689963	-1.577826	-2.658411	-0.682610	0.390237	0.723161	-156.415291	-76.928537	69.200154
25563		9.491887	-1.675955	-2.416761	-0.759404	0.337978	0.720304	-154.881889	-76.934733	67.176756
25564		8.959425	-1.713604	-2.045536	-0.794071	0.246425	0.728309	-153.446551	-76.882922	65.233670
25565		8.895941	-1.740197	-1.871722	-0.842879	0.174720	0.768901	-152.055488	-76.770012	63.306460
25566		8.896953	-1.812958	-1.884596	-0.823832	0.119425	0.816707	-150.642147	-76.608492	61.366710
25567		8.888904	-1.830090	-2.055031	-0.731283	0.093330	0.843456	-149.201269	-76.412252	59.451491
25568		8.857732	-1.740874	-1.998361	-0.606739	0.113313	0.821375	-147.750371	-76.224167	57.598089
25569		8.918043	-1.608924	-1.859772	-0.421155	0.131569	0.769250	-146.322461	-76.047175	55.876177
25570		9.146611	-1.068149	-1.617293	-0.234107	0.129233	0.688475	-144.975044	-75.888204	54.346705
25571		9.332520	-0.057358	-1.274021	-0.247697	0.141495	0.578833	-143.857850	-75.760701	53.045392
25572		9.502245	0.798015	-1.054016	-0.296478	0.141638	0.413089	-143.079042	-75.687384	52.064127
25573		9.836836	1.696906	-0.768610	-0.131600	0.103952	0.201265	-142.649850	-75.665043	51.540581
25574		10.183928	2.714143	-0.631682	0.020635	0.062739	0.010289	-142.522646	-75.692324	51.419139
25575		10.320147	3.695475	-1.022990	-0.198651	0.066027	-0.150864	-142.814135	-75.775140	51.599531
25576		10.425096	3.505440	-1.824886	-0.631123	0.080520	-0.298355	-143.597432	-75.916820	52.032065
25577		10.487045	2.393304	-2.374487	-0.918368	0.092865	-0.441823	-144.823069	-76.108962	52.749721
25578		10.311921	0.676891	-2.947487	-0.958429	0.093960	-0.498700	-146.196208	-76.317629	53.595808
25579		9.963194	-0.976647	-3.331065	-0.773562	0.058281	-0.439770	-147.437599	-76.484694	54.413708
25580		9.586150	-2.070515	-3.286827	-0.400572	-0.019376	-0.307394	-148.302917	-76.571589	55.065153
25581		9.560397	-2.233124	-2.519357	-0.073899	-0.061763	-0.169153	-148.771582	-76.593045	55.500167
25582		9.676175	-1.704502	-1.250693	-0.009029	0.032634	-0.078384	-148.886211	-76.634969	55.610329
25583		9.531552	-0.868457	-0.131125	-0.139129	0.181901	-0.056205	-148.856527	-76.741851	55.494693
25584		9.198744	-0.082379	0.355567	-0.407971	0.272067	-0.089380	-148.921964	-76.904458	55.319481
25585		9.093118	0.327403	0.012381	-0.752165	0.306545	-0.148473	-149.279844	-77.100225	55.241281
25586		8.862088	0.462857	-0.537204	-0.968745	0.237633	-0.204887	-149.965671	-77.279775	55.373050
25587		8.698658	0.373810	-1.511147	-1.138398	0.096500	-0.211919	-150.968654	-77.389486	55.729299
25588		8.745178	-0.105264	-2.551085	-1.217795	-0.008144	-0.158074	-152.021069	-77.431437	56.090364
25589		8.669489	-0.663105	-3.236125	-1.123268	-0.089060	-0.081473	-152.958776	-77.409612	56.388448
25590		8.497669	-1.142955	-3.309584	-0.906504	-0.208759	-0.012285	-153.734261	-77.308798	56.648563
25591		8.466621	-1.494715	-3.124779	-0.704492	-0.319207	0.044229	-154.393760	-77.134961	56.907622
25592		8.415319	-1.855319	-2.794426	-0.557406	-0.379341	0.090151	-154.903918	-76.919424	57.101059
25593		8.479352	-2.032163	-2.378663	-0.488923	-0.371071	0.130491	-155.280291	-76.696642	57.196628
25594		8.666566	-2.148291	-1.981254	-0.519555	-0.322156	0.166806	-155.525764	-76.492063	57.140606
25595		8.835218	-2.137458	-1.669176	-0.556357	-0.241635	0.202713	-155.646693	-76.319447	56.933828
25596		8.977762	-1.877483	-1.455360	-0.603110	-0.168779	0.231621	-155.651538	-76.179674	56.580709
25597		9.067538	-1.613769	-1.372883	-0.654820	-0.095283	0.242402	-155.607795	-76.074128	56.146007
25598		9.117937	-1.444603	-1.421157	-0.676721	-0.043868	0.232304	-155.540532	-75.999246	55.674801
25599		9.286128	-1.223270	-1.383209	-0.683525	-0.033982	0.205889	-155.536390	-75.934271	55.263695
25600		9.513301	-1.218584	-1.386460	-0.728365	-0.016589	0.173399	-155.599671	-75.887567	54.896317
25601		9.662076	-1.447908	-1.360167	-0.758964	0.022141	0.137019	-155.730686	-75.868511	54.579867
25602		9.713562	-1.828978	-1.208245	-0.781323	0.046063	0.098804	-155.921040	-75.872462	54.312170
25603		9.544410	-2.489911	-1.300694	-0.750674	0.090547	0.052698	-156.158228	-75.909486	54.110160
25604		9.694778	-3.051558	-1.445829	-0.537247	0.069594	-0.005818	-156.405062	-75.950411	54.044930
25605		10.324150	-3.442760	-1.708729	-0.101524	0.011684	-0.022429	-156.499063	-75.963602	54.078888
25606		11.033289	-3.521099	-1.907201	0.526497	-0.038151	-0.002614	-156.228750	-75.947260	54.108845
25607		11.490067	-3.114966	-1.884741	1.122073	-0.078575	0.038692	-155.576124	-75.898957	54.095984
25608		11.414746	-2.358488	-1.570837	1.494623	-0.072745	0.053478	-154.669615	-75.851275	54.041910
25609		10.855583	-1.500623	-1.312755	1.614693	-0.017155	0.018110	-153.720561	-75.839706	54.014520
25610		10.369972	-0.761825	-1.246153	1.642539	-0.000027	-0.070175	-152.912264	-75.860673	54.149126
25611		10.050063	-0.013837	-1.362490	1.578582	0.006200	-0.156340	-152.313054	-75.906903	54.461158
25612		9.746599	0.561047	-1.621056	1.428616	0.006169	-0.220270	-151.923291	-75.971908	54.900817
25613		9.492733	0.765511	-2.057171	1.207675	0.008560	-0.239290	-151.702755	-76.043001	55.383858
25614		9.100644	0.721981	-2.446736	0.945520	0.008610	-0.232856	-151.615027	-76.113516	55.849257
25615		8.857280	0.492760	-2.739060	0.658548	-0.015130	-0.209990	-151.680178	-76.165105	56.302118
25616		8.739666	0.252967	-2.946658	0.406820	-0.040906	-0.181486	-151.854271	-76.196489	56.719085
25617		8.758515	0.032682	-2.959800	0.217037	-0.040063	-0.143994	-152.068173	-76.217063	57.064422
25618		8.941522	-0.146364	-2.780938	0.067043	-0.022495	-0.103878	-152.258722	-76.236322	57.297808
25619		9.171679	-0.303437	-2.631526	-0.099783	0.007717	-0.046213	-152.401797	-76.254538	57.383227
25620		9.299143	-0.536384	-2.568114	-0.268024	0.073542	0.011599	-152.441100	-76.291688	57.263250
25621		9.245453	-0.760711	-2.496710	-0.406806	0.134912	0.047437	-152.427192	-76.349622	57.005992
25622		9.191806	-1.030214	-2.322271	-0.475201	0.140780	0.070274	-152.387657	-76.405337	56.682808
25623		9.223162	-1.273179	-2.156491	-0.454085	0.101354	0.088020	-152.350464	-76.435366	56.373829
25624		9.310366	-1.423187	-1.976793	-0.375412	0.040656	0.098118	-152.303930	-76.432760	56.102340
25625		9.406989	-1.459815	-1.895305	-0.277045	-0.012881	0.111535	-152.241667	-76.398454	55.871938
25626		9.513297	-1.428318	-1.807265	-0.180107	-0.039968	0.124255	-152.118781	-76.347841	55.636957
25627		9.558173	-1.413619	-1.801186	-0.113603	-0.028147	0.139580	-151.923288	-76.298048	55.365747
25628		9.544008	-1.409229	-1.790524	-0.071440	-0.000619	0.152260	-151.639657	-76.259329	55.029296
25629		9.568240	-1.405016	-1.834897	-0.027560	0.010981	0.161448	-151.309444	-76.222664	54.670066
25630		9.626166	-1.366741	-1.937844	0.033442	0.004605	0.165609	-150.936275	-76.181957	54.303184
25631		9.766852	-1.356359	-2.069202	0.121553	-0.005841	0.166963	-150.532414	-76.134251	53.955983
25632		9.960042	-1.266695	-2.122346	0.210016	-0.017877	0.154385	-150.111275	-76.084318	53.643757
25633		10.013994	-1.287865	-2.249453	0.298753	-0.019729	0.137426	-149.686091	-76.037003	53.379054
25634		9.887077	-1.294168	-2.329157	0.385066	-0.009291	0.106423	-149.254716	-76.004159	53.159516
25635		9.736570	-1.221587	-2.255903	0.453420	0.014564	0.068524	-148.840130	-75.993028	52.996996
25636		9.493657	-1.139583	-1.952974	0.477122	0.026551	0.033282	-148.458967	-75.998768	52.883545
25637		9.465139	-0.949159	-1.778108	0.479610	0.014082	0.017953	-148.129362	-76.002102	52.824073
25638		9.454675	-0.760024	-1.676747	0.459649	0.012289	0.015319	-147.810270	-76.006046	52.764279
25639		9.457027	-0.543356	-1.693931	0.434522	0.002759	0.010784	-147.534205	-76.005992	52.733348
25640		9.469872	-0.347483	-1.769121	0.389510	-0.010800	0.011557	-147.291023	-75.999811	52.710371
25641		9.518400	-0.198336	-1.843793	0.308969	-0.033333	0.003171	-147.146770	-75.984763	52.741111
25642		9.563465	-0.097894	-1.901124	0.200439	-0.033835	-0.006616	-147.075800	-75.973124	52.783974
25643		9.584085	-0.091012	-1.848634	0.064149	-0.027696	-0.016348	-147.102937	-75.966985	52.846736
25644		9.582544	-0.093573	-1.893198	-0.070098	-0.024962	-0.021943	-147.205382	-75.964372	52.908577
25645		9.585216	-0.216688	-1.953164	-0.182893	-0.022214	-0.026678	-147.387601	-75.964139	52.985234
25646		9.598493	-0.448536	-2.087535	-0.258668	-0.020909	-0.024589	-147.598142	-75.964211	53.047130
25647		9.613030	-0.673892	-2.180966	-0.313661	-0.014638	-0.032054	-147.856875	-75.969242	53.125376
25648		9.568771	-0.943314	-2.127472	-0.360810	0.001535	-0.031276	-148.111701	-75.982120	53.172595
25649		9.541971	-1.259939	-2.042702	-0.391028	0.013465	-0.027629	-148.372684	-75.999376	53.207443
25650		9.459123	-1.533822	-1.976610	-0.392763	0.013951	-0.013529	-148.596666	-76.012903	53.204001
25651		9.395109	-1.720565	-1.920680	-0.370709	0.010832	-0.004138	-148.803428	-76.021820	53.194982
25652		9.375059	-1.806569	-1.960830	-0.317367	-0.006818	0.008008	-148.966853	-76.018787	53.173651
25653		9.422403	-1.866441	-1.977323	-0.265689	-0.012615	0.013461	-149.106295	-76.010992	53.157303
25654		9.465316	-1.893423	-1.996068	-0.221458	-0.013723	0.016362	-149.206380	-76.002133	53.127327
25655		9.516628	-1.900735	-1.988037	-0.187716	-0.020574	0.012983	-149.310891	-75.990540	53.121063
25656		9.589117	-1.902231	-1.924341	-0.154999	-0.022919	0.014764	-149.386745	-75.977640	53.105355
25657		9.500536	-1.842660	-1.945022	-0.124057	-0.021964	0.002806	-149.475900	-75.968302	53.120904
25658		9.492595	-1.858220	-1.933869	-0.072827	-0.032158	0.000401	-149.543657	-75.955026	53.145378
25659		9.478005	-1.757528	-1.987102	-0.013652	-0.042028	-0.004597	-149.606847	-75.937886	53.199414
25660		9.490845	-1.725562	-2.064076	0.037344	-0.041112	-0.005088	-149.632500	-75.921764	53.245561
25661		9.480374	-1.660945	-2.113645	0.091284	-0.042638	-0.005774	-149.638023	-75.904615	53.302172
25662		9.520648	-1.610366	-2.191280	0.129797	-0.039904	-0.006506	-149.611987	-75.889499	53.349649
25663		9.459380	-1.623133	-2.232605	0.155045	-0.037631	-0.007357	-149.577965	-75.875249	53.403188
25664		9.428090	-1.609298	-2.191587	0.171344	-0.040936	-0.011613	-149.539306	-75.861119	53.462201
25665		9.423026	-1.577878	-2.195413	0.189340	-0.049542	-0.013875	-149.511843	-75.842845	53.542800
25666		9.425274	-1.529397	-2.214961	0.195416	-0.042896	-0.014530	-149.467285	-75.828614	53.609963
25667		9.450434	-1.470772	-2.136378	0.198543	-0.033821	-0.015026	-149.418402	-75.818413	53.673940
25668		9.475807	-1.411502	-2.057492	0.182769	-0.029197	-0.018655	-149.373324	-75.812168	53.733098
25669		9.474137	-1.328007	-2.079081	0.165313	-0.030068	-0.016385	-149.341611	-75.804215	53.795167
25670		9.490940	-1.288365	-2.027320	0.153748	-0.031485	-0.017602	-149.313720	-75.796552	53.854906
25671		9.470238	-1.204423	-2.021226	0.143440	-0.036529	-0.016256	-149.301587	-75.785387	53.924260
25672		9.456730	-1.103139	-2.031675	0.125657	-0.036960	-0.017503	-149.295848	-75.775005	53.990252
25673		9.447397	-1.124845	-2.060643	0.108809	-0.049243	-0.013401	-149.312512	-75.756753	54.068851
25674		9.456786	-1.146509	-2.119062	0.101775	-0.046311	-0.016551	-149.329210	-75.741478	54.143885
25675		9.464901	-1.171773	-2.218967	0.092469	-0.035224	-0.017144	-149.346166	-75.731223	54.213134
25676		9.462932	-1.219689	-2.159657	0.092563	-0.024512	-0.011789	-149.333747	-75.725295	54.252683
25677		9.414923	-1.245041	-2.170763	0.080328	-0.015262	-0.009022	-149.318936	-75.722496	54.281980
25678		9.440762	-1.272463	-2.112707	0.070592	-0.008970	-0.004320	-149.286780	-75.722047	54.288175
25679		9.410158	-1.256556	-2.070875	0.068798	-0.011056	0.004074	-149.248346	-75.717483	54.286283
25680		9.434345	-1.246034	-2.158459	0.080019	-0.020129	0.009561	-149.196802	-75.707473	54.278045
25681		9.467064	-1.215319	-2.220166	0.098558	-0.017516	0.010564	-149.136206	-75.697820	54.270884
25682		9.485374	-1.218542	-2.249584	0.097409	-0.017327	0.005494	-149.079397	-75.690380	54.267494
25683		9.518285	-1.230346	-2.207488	0.099870	-0.011736	0.001017	-149.029846	-75.686360	54.272506
25684		9.512352	-1.245013	-2.149002	0.090344	-0.005819	-0.004045	-148.982194	-75.687386	54.274389
25685		9.502245	-1.224751	-2.093417	0.092124	-0.003796	-0.012478	-148.953859	-75.691244	54.296718
25686		9.434293	-1.164312	-2.096706	0.096521	-0.010312	-0.019859	-148.938307	-75.694738	54.335381
25687		9.416803	-1.117020	-2.129728	0.097762	-0.023874	-0.028323	-148.960484	-75.693429	54.413174
25688		9.483030	-1.092054	-2.150278	0.102165	-0.032550	-0.034106	-148.994877	-75.690206	54.506718
25689		9.489885	-1.074007	-2.168546	0.097291	-0.034365	-0.037276	-149.046686	-75.686363	54.614810
25690		9.532976	-1.103060	-2.183288	0.090269	-0.033566	-0.038803	-149.098049	-75.683985	54.718837
25691		9.512768	-1.146983	-2.094663	0.075325	-0.028656	-0.040818	-149.162679	-75.683943	54.827167
25692		9.499866	-1.173742	-2.022033	0.066168	-0.027371	-0.039086	-149.221246	-75.684643	54.924378
25693		9.459273	-1.179253	-2.049761	0.051578	-0.022797	-0.037509	-149.286357	-75.686472	55.019162
25694		9.446165	-1.163894	-2.080375	0.048618	-0.018210	-0.038956	-149.344267	-75.691597	55.105316
25695		9.434962	-1.233435	-2.087267	0.060128	-0.014783	-0.039528	-149.399254	-75.697927	55.194705
25696		9.433562	-1.235580	-2.130014	0.066798	-0.017425	-0.040020	-149.448020	-75.703708	55.282167
25697		9.465514	-1.246746	-2.130626	0.072127	-0.019430	-0.035798	-149.494269	-75.706618	55.369635
25698		9.524799	-1.237651	-2.134407	0.077327	-0.015861	-0.030717	-149.517266	-75.710437	55.436727
25699		9.540589	-1.198501	-2.125444	0.080492	-0.013107	-0.026468	-149.533418	-75.713734	55.498084
25700		9.497066	-1.167331	-2.113470	0.073403	-0.015267	-0.020668	-149.538531	-75.714917	55.544400
25701		9.447333	-1.106884	-2.147506	0.056914	-0.017073	-0.020752	-149.561617	-75.714592	55.598974
25702		9.439673	-1.033321	-2.113918	0.032415	-0.015592	-0.015623	-149.580800	-75.714145	55.635575
25703		9.472966	-1.040759	-2.073022	0.003512	-0.017541	-0.014105	-149.622144	-75.711658	55.677410
25704		9.482332	-0.972141	-2.110901	-0.023590	-0.011787	-0.006829	-149.652008	-75.710533	55.691920
25705		9.493738	-0.988251	-2.125095	-0.045936	-0.012929	-0.003330	-149.695558	-75.707218	55.706789
25706		9.506738	-0.999548	-2.097418	-0.069654	-0.009160	0.001659	-149.732342	-75.704935	55.701204
25707		9.487841	-0.997530	-2.070093	-0.078690	-0.011306	0.000949	-149.784553	-75.701204	55.705635
25708		9.500799	-1.008334	-2.042971	-0.093830	-0.015914	-0.002250	-149.850401	-75.696705	55.715749
25709		9.513681	-1.018888	-2.016419	-0.105783	-0.019892	0.000418	-149.928856	-75.688895	55.731235
25710		9.577091	-1.043067	-2.018988	-0.121959	-0.017808	0.000672	-150.007213	-75.682613	55.737628
25711		9.608669	-1.053767	-2.021628	-0.139051	-0.012463	0.001920	-150.093400	-75.678084	55.741416
25712		9.560848	-1.075854	-2.033689	-0.148707	-0.005312	0.000931	-150.172539	-75.677932	55.732798
25713		9.541569	-1.119813	-2.130021	-0.142677	-0.018004	0.001256	-150.268217	-75.670866	55.744235
25714		9.493180	-1.189073	-2.265491	-0.106765	-0.014684	-0.000364	-150.336264	-75.666423	55.748972
25715		9.482639	-1.211997	-2.335480	-0.087852	-0.005108	-0.006359	-150.400996	-75.667931	55.760890
25716		9.409404	-1.250597	-2.301251	-0.080451	0.001001	-0.011793	-150.458865	-75.674533	55.770682
25717		9.358258	-1.280749	-2.211757	-0.091208	0.001940	-0.012994	-150.530698	-75.681398	55.787948
25718		9.353032	-1.290392	-2.154763	-0.100333	-0.001111	-0.008060	-150.595058	-75.685890	55.792682
25719		9.418085	-1.220557	-2.094513	-0.102816	-0.002474	-0.006815	-150.666306	-75.688792	55.802489
25720		9.447838	-1.146055	-2.118434	-0.104939	-0.004198	-0.001994	-150.724859	-75.690038	55.798507
25721		9.515704	-1.114772	-2.097151	-0.115702	-0.003285	-0.003213	-150.797295	-75.691528	55.801925
25722		9.504079	-1.094801	-2.085748	-0.122737	-0.002525	-0.004743	-150.869618	-75.694380	55.801629
25723		9.508687	-1.125677	-2.084320	-0.126841	-0.002066	-0.008054	-150.956609	-75.697844	55.813482
25724		9.461101	-1.146795	-2.096147	-0.125842	-0.006648	-0.013209	-151.051881	-75.700982	55.835034
25725		9.457045	-1.197866	-2.121279	-0.128806	-0.004254	-0.013062	-151.152245	-75.704740	55.859527
25726		9.461684	-1.227990	-2.120458	-0.129599	-0.006609	-0.012987	-151.249242	-75.707818	55.880636
25727		9.489530	-1.292483	-2.145876	-0.118166	-0.004015	-0.007837	-151.332930	-75.710242	55.894219
25728		9.513452	-1.276137	-2.234827	-0.089622	-0.006684	-0.003944	-151.389289	-75.710784	55.897029
25729		9.528622	-1.281219	-2.349700	-0.064386	-0.006519	-0.003425	-151.436068	-75.710723	55.904333
25730		9.521591	-1.296318	-2.334997	-0.045662	-0.004126	-0.012186	-151.480785	-75.714808	55.921119
25731		9.454199	-1.277644	-2.235509	-0.043187	-0.002781	-0.013445	-151.531165	-75.719336	55.944682
25732		9.490258	-1.233627	-2.213183	-0.049741	-0.005790	-0.013895	-151.583424	-75.723042	55.966839
25733		9.489047	-1.189995	-2.132815	-0.051440	-0.004844	-0.012755	-151.639342	-75.726319	55.991245
25734		9.500201	-1.115626	-2.126002	-0.056113	0.000692	-0.013008	-151.686601	-75.733042	56.004476
25735		9.456880	-1.083000	-2.112944	-0.057852	0.005951	-0.015033	-151.739176	-75.742380	56.021644
25736		9.379325	-1.088284	-2.081060	-0.060235	0.003335	-0.017890	-151.795743	-75.751755	56.042040
25737		9.422966	-1.115107	-2.095786	-0.067180	-0.016535	-0.022644	-151.892815	-75.751792	56.099605
25738		9.491967	-1.124053	-2.156717	-0.079148	-0.020650	-0.020091	-151.990171	-75.749618	56.150905
25739		9.516767	-1.150708	-2.143739	-0.087564	-0.015010	-0.020054	-152.092099	-75.749690	56.201434
25740		9.455288	-1.206251	-2.124219	-0.082874	-0.003342	-0.019099	-152.171335	-75.755975	56.231835
25741		9.387531	-1.231213	-2.149035	-0.076965	-0.008219	-0.019503	-152.258899	-75.759308	56.273815
25742		9.407770	-1.224025	-2.138250	-0.073392	-0.020020	-0.019610	-152.351308	-75.757245	56.323412
25743		9.465020	-1.216053	-2.186336	-0.069178	-0.023945	-0.018867	-152.449514	-75.752388	56.380986
25744		9.437493	-1.233886	-2.186565	-0.063866	-0.021618	-0.017791	-152.534437	-75.748991	56.428491
25745		9.430825	-1.200015	-2.233813	-0.053119	-0.020347	-0.018153	-152.618092	-75.745724	56.480559
25746		9.428361	-1.248601	-2.218198	-0.040214	-0.021640	-0.020186	-152.694225	-75.742913	56.532978
25747		9.455468	-1.224708	-2.223075	-0.033710	-0.014289	-0.022868	-152.769818	-75.743921	56.588211
25748		9.445560	-1.202153	-2.169067	-0.028947	-0.009083	-0.017146	-152.820425	-75.746681	56.620955
25749		9.474601	-1.175692	-2.130629	-0.027392	-0.004462	-0.017336	-152.871117	-75.751217	56.654240
25750		9.463016	-1.156742	-2.118175	-0.026908	-0.008258	-0.016295	-152.918035	-75.754162	56.684381
25751		9.481564	-1.154088	-2.148457	-0.029384	-0.009631	-0.015055	-152.970546	-75.755455	56.718373
25752		9.492352	-1.080188	-2.141316	-0.030280	-0.008546	-0.012429	-153.011944	-75.757235	56.740826
25753		9.503914	-1.094902	-2.156129	-0.040915	-0.013252	-0.014622	-153.073851	-75.756557	56.777700
25754		9.512464	-1.072415	-2.131245	-0.043166	-0.009457	-0.008838	-153.116348	-75.756930	56.793669
25755		9.478225	-1.108852	-2.114474	-0.056303	-0.013376	-0.011366	-153.180591	-75.755339	56.823861
25756		9.523821	-1.085063	-2.148030	-0.056858	-0.010527	-0.006734	-153.227784	-75.754613	56.836582
25757		9.503387	-1.086768	-2.162561	-0.053952	-0.008621	-0.010082	-153.283195	-75.755119	56.859055
25758		9.467478	-1.126227	-2.187551	-0.046162	-0.004899	-0.010228	-153.325595	-75.758168	56.873153
25759		9.474382	-1.106763	-2.204180	-0.036556	-0.005508	-0.014065	-153.375885	-75.761285	56.900631
25760		9.486045	-1.121354	-2.218662	-0.033595	-0.007929	-0.014272	-153.422340	-75.763814	56.926340
25761		9.485799	-1.167776	-2.159515	-0.027872	-0.002864	-0.016839	-153.470576	-75.768982	56.956836
25762		9.465632	-1.169222	-2.173070	-0.019962	-0.002527	-0.019522	-153.514421	-75.775613	56.987911
25763		9.487841	-1.160306	-2.118720	-0.013116	-0.010612	-0.020997	-153.570386	-75.777853	57.035110
25764		9.467504	-1.161818	-2.133000	-0.003913	-0.013920	-0.021165	-153.619877	-75.779042	57.081495
25765		9.514928	-1.134976	-2.124053	0.006526	-0.016538	-0.021953	-153.672398	-75.778465	57.136759
25766		9.473192	-1.051936	-2.129410	0.014806	-0.016595	-0.021057	-153.713633	-75.778234	57.185690
25767		9.491583	-1.049455	-2.159926	0.028150	-0.017291	-0.025187	-153.761001	-75.778076	57.248428
25768		9.491396	-1.047854	-2.161523	0.036145	-0.023459	-0.023176	-153.801153	-75.774834	57.308855
25769		9.535052	-1.027087	-2.237104	0.032405	-0.018093	-0.031704	-153.860052	-75.775891	57.386006
25770		9.531865	-1.036371	-2.138316	0.025151	-0.012725	-0.026563	-153.902677	-75.778999	57.442486
25771		9.509717	-1.089304	-2.133959	0.017551	-0.003860	-0.032250	-153.957077	-75.787491	57.506215
25772		9.481699	-1.019186	-2.109626	0.018043	-0.007658	-0.031218	-154.008286	-75.794354	57.567345
25773		9.491663	-1.036270	-2.165934	0.024403	-0.011951	-0.033735	-154.069873	-75.799029	57.642539
25774		9.407312	-1.011827	-2.179035	0.038180	-0.017376	-0.031162	-154.119137	-75.800840	57.713561
25775		9.415208	-1.032425	-2.278129	0.048706	-0.021234	-0.036083	-154.180780	-75.801283	57.803176
25776		9.420075	-1.064273	-2.277107	0.053984	-0.016713	-0.036569	-154.231391	-75.804751	57.884928
25777		9.474305	-1.067843	-2.223623	0.051599	-0.019344	-0.039450	-154.296404	-75.806951	57.979729
25778		9.499591	-1.095763	-2.209468	0.049347	-0.015549	-0.033658	-154.342644	-75.810257	58.054230
25779		9.543448	-1.123255	-2.223919	0.049958	-0.007670	-0.032787	-154.383548	-75.816791	58.123198
25780		9.587939	-1.059104	-2.174158	0.057806	-0.008262	-0.029812	-154.410015	-75.822885	58.182299
25781		9.528928	-1.066019	-2.171141	0.061574	-0.010538	-0.028551	-154.438425	-75.826871	58.245246
25782		9.512256	-1.013882	-2.160620	0.063304	-0.013656	-0.028144	-154.463663	-75.829750	58.306326
25783		9.477082	-0.962398	-2.121129	0.059564	-0.013571	-0.027854	-154.494758	-75.831985	58.370858
25784		9.465285	-0.944639	-2.108547	0.055348	-0.014928	-0.019766	-154.508659	-75.832128	58.415543
25785		9.450222	-0.889773	-2.056872	0.044800	-0.024005	-0.018781	-154.539797	-75.826731	58.471393
25786		9.465166	-0.851040	-2.048433	0.036937	-0.026506	-0.014497	-154.564712	-75.819577	58.516561
25787		9.501585	-0.849173	-2.109001	0.034432	-0.025725	-0.014824	-154.595299	-75.812330	58.565714
25788		9.517716	-0.851031	-2.182197	0.033084	-0.019935	-0.018931	-154.625048	-75.809655	58.613592
25789		9.500244	-0.891226	-2.236155	0.035508	-0.016406	-0.021769	-154.660183	-75.808942	58.668066
25790		9.520485	-0.885473	-2.224429	0.028933	-0.014249	-0.031065	-154.711641	-75.812169	58.735884
25791		9.491880	-0.955741	-2.204019	0.015526	-0.009217	-0.030037	-154.768277	-75.817186	58.800720
25792		9.483699	-1.021920	-2.170618	0.005592	-0.010393	-0.028166	-154.823505	-75.821672	58.858629
25793		9.520429	-1.018231	-2.230419	-0.005835	-0.018366	-0.024517	-154.889914	-75.820572	58.920921
25794		9.532112	-1.032921	-2.244933	-0.003402	-0.004943	-0.016155	-154.920429	-75.824941	58.948025
25795		9.507122	-1.049270	-2.200435	-0.005865	-0.006318	-0.014898	-154.955497	-75.827736	58.977975
25796		9.480089	-1.069139	-2.198339	0.002576	-0.011938	-0.014998	-154.986952	-75.828185	59.009582
25797		9.450972	-1.092709	-2.238681	0.015094	-0.015867	-0.013399	-155.016040	-75.825649	59.045756
25798		9.503273	-1.100659	-2.227279	0.024436	-0.009639	-0.012210	-155.027031	-75.826610	59.069174
25799		9.462492	-1.108208	-2.253571	0.037678	-0.009092	-0.012293	-155.034341	-75.827314	59.096240
25800		9.464413	-1.104783	-2.211752	0.041670	-0.006142	-0.006483	-155.020331	-75.828706	59.104057
25801		9.411947	-1.096259	-2.224118	0.045785	-0.003560	-0.010486	-155.013908	-75.831839	59.121758
25802		9.433727	-1.041349	-2.229780	0.049562	-0.008878	-0.001948	-154.988673	-75.830713	59.122660
25803		9.449222	-1.052022	-2.159521	0.043066	-0.014108	-0.000807	-154.973960	-75.826019	59.130211
25804		9.477367	-0.980289	-2.182022	0.048071	-0.015687	-0.000175	-154.952475	-75.820929	59.134100
25805		9.495392	-0.980819	-2.212204	0.047603	-0.014062	0.000347	-154.932715	-75.815984	59.139129
25806		9.489962	-0.947642	-2.215743	0.054342	-0.015704	-0.005880	-154.919376	-75.812270	59.155127
25807		9.469411	-0.952138	-2.229200	0.059175	-0.008660	-0.011581	-154.912281	-75.813029	59.180059
25808		9.442441	-0.973564	-2.226057	0.058621	-0.002724	-0.014228	-154.901156	-75.818080	59.200869
25809		9.439940	-0.983613	-2.125692	0.053233	-0.003837	-0.011177	-154.892006	-75.821244	59.220167
25810		9.446561	-0.966385	-2.141556	0.051193	-0.004692	-0.012027	-154.882516	-75.824741	59.238273
25811		9.495913	-0.937458	-2.089712	0.044453	-0.003052	-0.005808	-154.866589	-75.827018	59.245394
25812		9.518722	-0.924231	-2.177115	0.032838	-0.006296	0.004535	-154.835145	-75.825653	59.230010
25813		9.506219	-0.860933	-2.225001	0.021639	-0.005983	0.005486	-154.811919	-75.823674	59.216118
25814		9.506044	-0.861945	-2.225356	0.016211	-0.004927	0.006963	-154.783704	-75.822423	59.194239
25815		9.491809	-0.942298	-2.316884	0.001958	0.002124	0.004955	-154.765066	-75.824780	59.173441
25816		9.465491	-1.011483	-2.252480	-0.005594	0.006646	0.002420	-154.747466	-75.830632	59.149625
25817		9.491708	-1.088859	-2.175554	-0.020103	0.007589	0.001581	-154.743094	-75.836637	59.130505
25818		9.491791	-1.088799	-2.175218	-0.033798	0.005661	0.009499	-154.728045	-75.840246	59.092654
25819		9.470015	-1.144441	-2.168946	-0.038121	0.010828	0.012867	-154.707582	-75.845166	59.046300
25820		9.451732	-1.145898	-2.138897	-0.030897	0.014440	0.024570	-154.651348	-75.849620	58.967691
25821		9.460391	-1.126776	-2.111715	-0.015966	0.014014	0.023302	-154.593500	-75.853607	58.895885
25822		9.450178	-1.060725	-2.116005	-0.010154	0.012595	0.025411	-154.525374	-75.856859	58.817271
25823		9.453654	-1.008222	-2.091638	-0.013463	0.010181	0.030895	-154.454119	-75.856956	58.733127
25824		9.466769	-0.976270	-2.123047	-0.024499	0.004911	0.030892	-154.390482	-75.854835	58.650666
25825		9.503246	-0.977988	-2.181403	-0.030312	0.003283	0.036054	-154.325093	-75.850056	58.562616
25826		9.516212	-0.945808	-2.213695	-0.033723	-0.004743	0.027192	-154.283896	-75.843829	58.497844
25827		9.493508	-0.955242	-2.269272	-0.026297	-0.002804	0.024977	-154.244983	-75.838634	58.439464
25828		9.518145	-0.939121	-2.315349	-0.018126	-0.011508	0.018759	-154.218853	-75.830996	58.399444
25829		9.489153	-1.012722	-2.294729	-0.013161	-0.007885	0.010536	-154.207045	-75.826762	58.376776
25830		9.502179	-0.978752	-2.327543	-0.009347	-0.009261	0.006109	-154.199547	-75.823432	58.361160
25831		9.517694	-0.988711	-2.257477	-0.013584	-0.005363	0.005369	-154.196079	-75.821777	58.346841
25832		9.512971	-1.002316	-2.199890	-0.020707	-0.000309	0.000726	-154.197247	-75.824408	58.333450
25833		9.489951	-1.016015	-2.113036	-0.027247	-0.003364	0.000298	-154.209992	-75.825049	58.327778
25834		9.474125	-1.005675	-2.184547	-0.029287	-0.004209	-0.000550	-154.222531	-75.825987	58.321045
25835		9.481129	-1.035488	-2.140468	-0.026825	-0.002843	-0.001814	-154.238812	-75.827432	58.319271
25836		9.481145	-1.034504	-2.140876	-0.032677	0.000736	-0.005508	-154.258554	-75.832157	58.317964
25837		9.488266	-1.063996	-2.096498	-0.036028	0.000469	-0.001613	-154.276400	-75.835269	58.312367
25838		9.491307	-1.100765	-2.136297	-0.033183	0.001467	0.000707	-154.283006	-75.838826	58.297214
25839		9.482722	-1.121184	-2.162250	-0.016023	0.009265	0.003264	-154.270673	-75.845273	58.272321
25840		9.480916	-1.124835	-2.203307	-0.000438	0.014589	0.004447	-154.237888	-75.854670	58.235893
25841		9.454120	-1.146519	-2.199057	0.002991	0.010534	0.003707	-154.212376	-75.861653	58.208653
25842		9.462986	-1.126078	-2.171860	-0.001550	0.010480	0.002542	-154.188125	-75.869397	58.180371
25843		9.501781	-1.122039	-2.187702	-0.008862	0.002048	0.009480	-154.165871	-75.870553	58.149498
25844		9.517130	-1.084348	-2.177154	-0.018023	0.006261	0.003990	-154.152238	-75.875754	58.122434
25845		9.520859	-1.029621	-2.153066	-0.022646	0.007468	0.006937	-154.137636	-75.880334	58.091314
25846		9.454821	-1.007465	-2.193804	-0.029227	0.006570	0.004921	-154.128181	-75.885459	58.061939
25847		9.470223	-0.969081	-2.183352	-0.031147	0.002303	0.001535	-154.134621	-75.888729	58.047496
25848		9.449805	-0.972509	-2.196684	-0.034685	-0.005339	0.002462	-154.145166	-75.888329	58.035519
25849		9.502134	-0.980763	-2.184995	-0.029758	-0.002598	-0.000057	-154.158958	-75.889474	58.029477
25850		9.481746	-0.984106	-2.198231	-0.036116	0.001710	0.002468	-154.163303	-75.892709	58.010263
25851		9.463355	-0.983958	-2.169442	-0.039269	-0.003243	-0.000294	-154.183675	-75.893584	58.005385
25852		9.488345	-0.964738	-2.215290	-0.047042	-0.003929	-0.007379	-154.220094	-75.896369	58.012787
25853		9.491748	-1.048325	-2.195334	-0.043691	-0.003661	-0.011277	-154.265986	-75.899768	58.031608
25854		9.523831	-1.059032	-2.196773	-0.041533	-0.006241	-0.012972	-154.313054	-75.902746	58.053245
25855		9.525811	-1.053741	-2.155755	-0.030289	-0.008707	-0.012326	-154.358409	-75.903792	58.079432
25856		9.530820	-1.085976	-2.154393	-0.024090	-0.007433	-0.013892	-154.398576	-75.906374	58.104257
25857		9.517535	-1.119088	-2.123470	-0.014700	-0.003370	-0.011117	-154.427214	-75.909874	58.122422
25858		9.515492	-1.121339	-2.166234	-0.000103	-0.008621	-0.007096	-154.440832	-75.910156	58.134044
25859		9.478781	-1.121964	-2.108157	0.013831	-0.001424	-0.010414	-154.449696	-75.914486	58.148683
25860		9.485462	-1.104092	-2.124097	0.022613	-0.005259	-0.008511	-154.449909	-75.916855	58.159903
25861		9.537491	-1.064692	-2.172080	0.027803	0.000534	-0.004897	-154.437393	-75.920837	58.160762
25862		9.498918	-1.069486	-2.154966	0.032144	0.008334	-0.004338	-154.410135	-75.929200	58.149289
25863		9.491070	-0.998452	-2.116379	0.031558	0.013380	-0.001268	-154.375226	-75.938922	58.129286
25864		9.438859	-0.990109	-2.127475	0.023017	0.007306	-0.000988	-154.347255	-75.945921	58.111688
25865		9.460958	-0.935099	-2.132089	0.019746	0.005773	-0.001211	-154.326459	-75.951703	58.099258
25866		9.465709	-0.921160	-2.189538	0.017020	0.001351	-0.006080	-154.318309	-75.956887	58.098552
25867		9.449014	-0.869999	-2.178422	0.010438	0.000448	-0.008099	-154.322358	-75.961635	58.106232
25868		9.460838	-0.885947	-2.191637	0.003816	0.001706	-0.011695	-154.333020	-75.968397	58.117119
25869		9.520083	-0.876149	-2.194942	-0.004037	0.002277	-0.014662	-154.357176	-75.975723	58.136968
25870		9.545774	-0.904507	-2.179206	-0.014092	0.007582	-0.017516	-154.384344	-75.986961	58.154291
25871		9.564518	-0.902067	-2.207526	-0.015145	0.014263	-0.013917	-154.401520	-76.000299	58.160380
25872		9.551756	-0.935076	-2.174274	-0.016581	0.021315	-0.013903	-154.409041	-76.017737	58.155983
25873		9.499872	-0.924354	-2.185054	-0.024271	0.016299	-0.017839	-154.437639	-76.033103	58.168449
25874		9.485126	-0.960374	-2.194144	-0.025586	0.016866	-0.013097	-154.453105	-76.048041	58.166923
25875		9.467094	-0.959331	-2.164153	-0.026105	0.004642	-0.010814	-154.479808	-76.055645	58.176351
25876		9.460621	-0.974993	-2.148360	-0.021780	-0.000505	-0.014195	-154.512695	-76.061873	58.195022
25877		9.533029	-0.930196	-2.183832	-0.018045	-0.003668	-0.007233	-154.535605	-76.064297	58.205298
25878		9.566658	-0.890519	-2.202935	-0.018171	-0.000251	-0.004692	-154.546387	-76.068311	58.203324
25879		9.527945	-0.894451	-2.186836	-0.025260	-0.000437	-0.000493	-154.556204	-76.070751	58.195848
25880		9.541703	-0.907142	-2.158230	-0.042408	0.004669	0.000845	-154.564442	-76.075949	58.176945
25881		9.509642	-0.893391	-2.157992	-0.064660	-0.000356	0.001704	-154.592196	-76.077897	58.164688
25882		9.508088	-0.943970	-2.140335	-0.077736	0.003354	0.012005	-154.598683	-76.079674	58.123127
25883		9.494686	-0.978566	-2.109435	-0.081012	-0.001277	0.019027	-154.600569	-76.076898	58.074563
25884		9.511240	-1.029498	-2.121772	-0.089641	-0.006136	0.023386	-154.599541	-76.070966	58.018231
25885		9.540938	-1.045858	-2.166083	-0.086295	-0.008953	0.026739	-154.595980	-76.062329	57.960936
25886		9.499766	-1.054363	-2.193598	-0.068422	-0.009579	0.023729	-154.585557	-76.054529	57.907448
25887		9.487621	-1.038637	-2.181488	-0.044003	-0.007117	0.021193	-154.567540	-76.048199	57.860222
25888		9.495897	-1.019003	-2.156232	-0.033518	-0.008788	0.014681	-154.555239	-76.043029	57.825403
25889		9.499194	-0.965335	-2.132830	-0.032531	-0.001281	0.019159	-154.529117	-76.040212	57.776604
25890		9.514270	-0.928505	-2.122622	-0.032067	-0.002913	0.018619	-154.502002	-76.037103	57.727375
25891		9.487093	-0.951123	-2.119957	-0.024876	0.005889	0.021552	-154.459426	-76.037399	57.666132
25892		9.520746	-0.913940	-2.137898	-0.017098	0.009655	0.021398	-154.405475	-76.040081	57.598087
25893		9.476900	-0.886351	-2.123326	-0.017789	0.002995	0.024615	-154.355351	-76.038106	57.533257
25894		9.488386	-0.904881	-2.137017	-0.028036	-0.002163	0.026008	-154.309882	-76.033512	57.467495
25895		9.467731	-0.910667	-2.150399	-0.033898	-0.001685	0.029566	-154.263473	-76.027876	57.396966
25896		9.450086	-0.953578	-2.203764	-0.039335	-0.000668	0.031019	-154.212672	-76.022780	57.319035
25897		9.402380	-0.980653	-2.214291	-0.046043	0.001824	0.031527	-154.165751	-76.018438	57.240805
25898		9.445802	-1.011883	-2.228982	-0.054637	-0.002104	0.030183	-154.126977	-76.012780	57.166230
25899		9.432050	-1.048811	-2.198267	-0.059813	0.001914	0.037768	-154.075036	-76.006888	57.074698
25900		9.455114	-1.084303	-2.225505	-0.053765	0.008772	0.037211	-154.010383	-76.005037	56.973964
25901		9.450078	-1.101614	-2.167741	-0.042444	0.001974	0.040996	-153.941842	-75.998310	56.875562
25902		9.488410	-1.100175	-2.184229	-0.029615	0.001991	0.043059	-153.858241	-75.991435	56.769555
25903		9.487999	-1.103750	-2.184209	-0.020559	0.004270	0.043859	-153.769055	-75.985092	56.662822
25904		9.496355	-1.087272	-2.157359	-0.015241	0.006639	0.044957	-153.668770	-75.980043	56.548101
25905		9.550320	-1.048698	-2.162024	-0.011572	0.010889	0.041535	-153.572584	-75.977600	56.439460
25906		9.493032	-1.057517	-2.115503	-0.015297	0.014100	0.034587	-153.486103	-75.978935	56.338933
25907		9.513308	-1.057025	-2.101397	-0.027026	0.015045	0.041685	-153.394201	-75.978506	56.225622
25908		9.518037	-1.094303	-2.098339	-0.034425	0.014001	0.038151	-153.311455	-75.978799	56.117648
25909		9.524733	-1.079953	-2.112696	-0.035891	0.020088	0.043877	-153.214912	-75.980306	55.994170
25910		9.488708	-1.124917	-2.135263	-0.030856	0.016328	0.046075	-153.111471	-75.979652	55.866974
25911		9.474928	-1.114945	-2.162705	-0.023779	0.013404	0.049138	-153.004097	-75.976274	55.739776
25912		9.517297	-1.109246	-2.093847	-0.019093	0.007875	0.049318	-152.896180	-75.970348	55.614909
25913		9.514975	-1.116728	-2.135171	-0.003525	0.012236	0.056297	-152.763930	-75.964372	55.473886
25914		9.530241	-1.084121	-2.123077	0.000295	0.010916	0.051882	-152.636696	-75.959188	55.340552
25915		9.468130	-1.011279	-2.138297	0.000293	0.010908	0.051875	-152.512855	-75.953555	55.210346
25916		9.476668	-0.995810	-2.110620	0.001153	0.012004	0.047677	-152.392702	-75.949898	55.084812
25917		9.480497	-0.945685	-2.085260	-0.014826	0.004919	0.044339	-152.299359	-75.943124	54.977234
25918		9.523194	-0.890679	-2.076263	-0.033230	0.011527	0.044691	-152.205604	-75.939916	54.858599
25919		9.484215	-0.898336	-2.059405	-0.058523	0.011141	0.044079	-152.131382	-75.936294	54.744814
25920		9.488234	-0.846833	-2.034192	-0.088907	0.013541	0.046916	-152.062968	-75.933430	54.619413
25921		9.522209	-0.810840	-2.052208	-0.122860	0.006096	0.052125	-152.014956	-75.925037	54.494387
25922		9.549160	-0.791906	-2.055483	-0.150544	0.000887	0.050119	-151.989119	-75.914860	54.376465
25923		9.574163	-0.774790	-2.101338	-0.172126	0.000327	0.049134	-151.981846	-75.904366	54.264352
25924		9.649196	-0.818632	-2.117430	-0.186837	0.008918	0.047564	-151.973515	-75.898926	54.143030
25925		9.631102	-0.770342	-2.147896	-0.189351	0.014962	0.038391	-151.982276	-75.898729	54.037122
25926		9.608474	-0.824663	-2.143594	-0.191078	0.023332	0.029158	-151.997994	-75.905540	53.938091
25927		9.515819	-0.819547	-2.181078	-0.189389	0.027682	0.019170	-152.031890	-75.917021	53.858609
25928		9.516477	-0.905000	-2.204149	-0.185051	0.023512	0.010026	-152.082465	-75.929087	53.799083
25929		9.505630	-0.972978	-2.213996	-0.177334	0.019717	-0.002957	-152.162688	-75.942478	53.774505
25930		9.508834	-1.005078	-2.254319	-0.153768	0.025378	-0.004220	-152.222192	-75.959332	53.742667
25931		9.498028	-0.984337	-2.239303	-0.136185	0.028438	-0.017872	-152.299974	-75.981160	53.739636
25932		9.416586	-0.954409	-2.207103	-0.101063	0.026035	-0.029176	-152.379425	-76.005005	53.759486
25933		9.314871	-0.927255	-2.187741	-0.071766	0.027306	-0.044137	-152.475351	-76.033209	53.813245
25934		9.349823	-0.794170	-2.178576	-0.043489	0.021185	-0.063662	-152.597956	-76.063684	53.911545
25935		9.304599	-0.721062	-2.121077	-0.014007	0.020170	-0.086851	-152.756931	-76.099440	54.064325
25936		9.305231	-0.623711	-2.094486	0.020530	0.020817	-0.116573	-152.953634	-76.143426	54.276704
25937		9.279108	-0.494534	-2.123993	0.076042	0.024991	-0.163750	-153.217747	-76.201343	54.590762
25938		9.231012	-0.378123	-2.024431	0.126102	0.027878	-0.208052	-153.541290	-76.271964	54.995901
25939		9.315713	-0.244047	-2.045143	0.178097	0.003606	-0.258324	-153.974745	-76.341988	55.544300
25940		9.590420	-0.044805	-2.107448	0.204282	-0.019789	-0.308935	-154.525864	-76.411649	56.229453
25941		9.772694	0.164337	-2.167371	0.222348	-0.004992	-0.358062	-155.169222	-76.499057	57.019403
25942		9.830693	0.305119	-2.288254	0.223950	0.014693	-0.404618	-155.898932	-76.605774	57.899261
25943		9.675641	0.422595	-2.298372	0.192065	0.038615	-0.448364	-156.739766	-76.732104	58.873571
25944		9.483527	0.490793	-2.189712	0.145045	0.049880	-0.485385	-157.692995	-76.869279	59.935675
25945		9.235841	0.414690	-2.042024	0.083534	0.045620	-0.520328	-158.793275	-77.007042	61.111344
25946		9.003451	0.286045	-1.991267	0.038212	0.033062	-0.564328	-160.051901	-77.141659	62.422804
25947		8.950300	0.201094	-2.092052	-0.002572	0.020310	-0.607287	-161.480614	-77.270345	63.883366
25948		8.943024	0.196816	-2.241743	-0.070936	0.021309	-0.655273	-163.087284	-77.399595	65.486097
25949		9.146066	0.274481	-2.374692	-0.135686	0.031289	-0.702319	-164.880932	-77.530993	67.240853
25950		9.537134	0.370276	-2.345067	-0.165335	0.023820	-0.738059	-166.815923	-77.651142	69.122782
25951		10.051482	0.573500	-2.269595	-0.177035	0.003807	-0.761158	-168.870370	-77.748297	71.118602
25952		10.506869	0.842291	-2.266553	-0.211619	-0.009842	-0.777566	-171.015595	-77.824224	73.187101
25953		10.773085	1.112528	-2.339473	-0.276148	0.011326	-0.806362	-173.298971	-77.896930	75.357737
25954		10.706447	1.319186	-2.377325	-0.411430	0.056510	-0.858517	-175.806113	-77.979698	77.678070
25955		10.362478	1.374943	-2.065371	-0.592172	0.121537	-0.940665	-178.672242	-78.078484	80.257887
25956		10.126714	1.304571	-1.630792	-0.827075	0.180730	-1.040435	178.018717	-78.182646	83.152624
25957		10.165157	1.002480	-1.317423	-1.082241	0.263244	-1.143123	174.204977	-78.292017	86.411521
25958		10.357718	0.816829	-1.301728	-1.241863	0.360991	-1.222201	169.993053	-78.404805	89.983163
25959		10.737902	0.824239	-1.565490	-1.363264	0.461299	-1.282361	165.411657	-78.509847	93.858607
25960		11.124773	0.948741	-1.981641	-1.451012	0.600264	-1.308603	160.535160	-78.623431	97.983212
25961		11.003802	1.140056	-1.904656	-1.455514	0.739084	-1.327273	155.373658	-78.733622	102.393335
25962		10.671337	1.309421	-1.280487	-1.353561	0.796897	-1.344710	150.092088	-78.790709	106.985015
25963		10.494820	1.600526	-0.933696	-1.217123	0.758409	-1.370073	144.870589	-78.737799	111.594267
25964		10.299128	1.832032	-0.763914	-1.131717	0.701203	-1.369517	139.890385	-78.580929	116.009871
25965		10.149435	1.843226	-0.458832	-1.102076	0.665971	-1.371376	135.141451	-78.333801	120.209067
25966		10.184416	1.562284	-0.352769	-1.058896	0.608093	-1.388286	130.720160	-77.992246	124.104106
25967		10.339120	1.198940	-0.276355	-0.963203	0.616673	-1.396789	126.563948	-77.589504	127.788564
25968		10.267800	0.589505	-0.253970	-0.812529	0.652761	-1.376899	122.709367	-77.156196	131.259173
25969		9.794736	0.132380	-0.098286	-0.545673	0.651274	-1.324148	119.316746	-76.699664	134.417845
25970		9.310893	-0.134226	-0.248805	-0.322378	0.538102	-1.280525	116.561240	-76.198903	137.059848
25971		9.168517	-0.211232	-0.491321	-0.168786	0.406754	-1.231901	114.395266	-75.663366	139.189961
25972		9.262147	-0.372532	-0.587245	0.042604	0.314769	-1.161335	112.749798	-75.128422	140.913203
25973		9.492065	-0.099973	-0.725964	0.312443	0.287352	-1.074560	111.489825	-74.621536	142.400794
25974		9.632807	0.445003	-0.976746	0.431133	0.330645	-0.975108	110.374762	-74.170080	143.812613
25975		9.588678	0.901517	-1.188078	0.489353	0.387470	-0.886292	109.312405	-73.769358	145.206729
25976		9.535241	1.336958	-1.318159	0.667980	0.393088	-0.823287	108.440261	-73.398463	146.512534
25977		9.450051	2.025176	-1.190387	0.836869	0.367629	-0.771952	107.784577	-73.045175	147.695321
25978		9.222752	2.701778	-0.904380	0.889419	0.306813	-0.716385	107.334959	-72.709393	148.696629
25979		9.093109	3.122313	-0.723347	0.823100	0.218242	-0.665342	107.053703	-72.383768	149.482982
25980		9.137043	3.287580	-0.631369	0.702282	0.177411	-0.614861	106.819515	-72.078854	150.149031
25981		9.101094	3.298134	-0.371151	0.600059	0.188643	-0.568753	106.544818	-71.799243	150.796726
25982		8.985029	3.342019	-0.193747	0.465945	0.207232	-0.519734	106.201783	-71.549456	151.436906
25983		8.928153	3.358311	-0.091704	0.264276	0.234051	-0.457767	105.740152	-71.335641	152.080670
25984		8.905434	3.311295	-0.165432	0.037622	0.266413	-0.386673	105.142005	-71.165128	152.732684
25985		8.871167	3.290054	-0.269882	-0.203620	0.303883	-0.311052	104.386723	-71.038509	153.404731
25986		8.858208	3.212998	-0.350790	-0.444405	0.351967	-0.237877	103.455967	-70.957041	154.117409
25987		8.743946	3.044462	-0.379933	-0.606810	0.402062	-0.170342	102.381096	-70.914622	154.883822
25988		8.614567	2.900105	-0.403995	-0.694718	0.431870	-0.105300	101.234764	-70.908376	155.673226
25989		8.533909	2.758019	-0.364750	-0.760013	0.465115	-0.051539	100.011821	-70.929540	156.503516
25990		8.419557	2.567542	-0.304531	-0.770256	0.477449	0.009788	98.778312	-70.981752	157.339147
25991		8.362769	2.326174	-0.276404	-0.728226	0.461124	0.074028	97.603406	-71.062299	158.137397
25992		8.379469	2.064383	-0.277712	-0.664121	0.438956	0.143223	96.509226	-71.176505	158.889227
25993		8.299370	1.821028	-0.351291	-0.549940	0.409624	0.200247	95.527036	-71.316056	159.590799
25994		8.291384	1.611604	-0.306254	-0.395688	0.374205	0.263867	94.692035	-71.487477	160.230189
25995		8.216289	1.438871	-0.300111	-0.214037	0.331380	0.304656	94.025366	-71.676796	160.800724
25996		8.165230	1.362263	-0.372178	-0.013569	0.282352	0.348394	93.553157	-71.888318	161.287257
25997		8.020766	1.358641	-0.268432	0.183856	0.211816	0.366701	93.308788	-72.106215	161.652166
25998		8.012441	1.340551	-0.287584	0.337511	0.115841	0.392971	93.321729	-72.336452	161.839252
25999		7.886838	1.245349	-0.208892	0.475130	0.078183	0.421744	93.481957	-72.581357	161.953972
26000		7.625154	1.170725	-0.165563	0.651331	-0.000747	0.442787	93.894204	-72.836146	161.910666
26001		7.559728	1.236765	-0.306020	0.871500	-0.113906	0.465893	94.654729	-73.098696	161.634803
26002		7.477014	1.388587	-0.451587	1.043035	-0.192287	0.477741	95.683320	-73.363127	161.182300
26003		7.295838	1.579207	-0.647131	1.239370	-0.291620	0.495566	97.043731	-73.628266	160.501415
26004		7.472201	1.927929	-0.776799	1.491484	-0.429435	0.498255	98.854890	-73.878909	159.502650
26005		8.016349	2.457604	-0.768497	1.733764	-0.557812	0.502489	101.103252	-74.108838	158.194456
26006		8.821745	3.084600	-0.739156	1.939332	-0.630963	0.517414	103.673631	-74.323059	156.675695
26007		9.480927	3.664264	-0.614134	2.062006	-0.644977	0.549064	106.412817	-74.533009	155.056010
26008		10.195641	4.396977	-0.598826	2.159894	-0.701338	0.595991	109.409569	-74.736921	153.229227
26009		10.836886	5.233547	-0.612572	2.110648	-0.691302	0.622325	112.437980	-74.930816	151.341846
26010		11.028104	5.865350	-0.814903	1.982606	-0.583271	0.582934	115.206638	-75.104270	149.649329
26011		11.021333	6.729524	-0.999261	1.815103	-0.427403	0.487308	117.528545	-75.248024	148.320476
26012		10.817211	7.719483	-0.993998	1.468466	-0.273340	0.397654	119.295957	-75.377018	147.360790
26013		10.319698	8.281746	-0.955003	0.953762	-0.110480	0.316399	120.384845	-75.504913	146.797356
26014		9.821186	8.358039	-0.694069	0.340907	0.009125	0.265295	120.850794	-75.641608	146.515560
26015		9.508888	7.912442	-0.657236	-0.233098	0.063597	0.267800	120.885752	-75.793711	146.338371
26016		9.399115	7.240919	-1.111431	-0.617023	0.052920	0.318028	120.787045	-75.968941	146.073254
26017		9.495134	6.175083	-1.795883	-0.899115	-0.009372	0.409448	120.754659	-76.169027	145.572303
26018		9.886559	4.970230	-2.199185	-1.134859	-0.074748	0.539416	120.891110	-76.415727	144.760209
26019		10.403028	3.603633	-2.216219	-1.375993	-0.064569	0.673533	121.046321	-76.728579	143.786416
26020		10.532192	2.591814	-1.982626	-1.522217	0.018589	0.760552	121.088897	-77.110583	142.844961
26021		10.216440	1.762729	-1.796106	-1.474982	0.059087	0.821432	121.174300	-77.531903	141.887525
26022		10.068386	1.221602	-1.578317	-1.193258	0.011372	0.857186	121.628535	-77.957773	140.720733
26023		10.310135	1.208434	-1.071982	-0.792894	-0.014525	0.838859	122.399822	-78.362000	139.464897
26024		10.645071	1.640276	-0.180688	-0.514027	-0.039571	0.781968	123.385081	-78.729247	138.156788
26025		11.312294	2.383780	0.595464	-0.472134	-0.126972	0.719473	124.568829	-79.031797	136.671115
26026		11.913060	3.044349	0.833239	-0.521224	-0.110062	0.643168	125.631972	-79.300471	135.282296
26027		11.955019	3.701074	0.636739	-0.572570	-0.059547	0.522985	126.366887	-79.524429	134.197247
26028		11.325070	3.723217	0.305327	-0.792984	-0.009565	0.399779	126.665242	-79.708743	133.429690
26029		10.472532	2.744182	-0.248666	-0.998493	-0.053729	0.322261	126.812871	-79.839936	132.694572
26030		9.938096	1.508575	-0.836329	-1.072924	-0.162214	0.302027	127.182372	-79.925717	131.692461
26031		10.039443	0.169639	-1.139813	-1.017330	-0.273268	0.359296	127.979283	-79.995138	130.287395
26032		10.671684	-0.851723	-1.552058	-0.690617	-0.403520	0.477658	129.569361	-80.067296	128.268865
26033		11.093549	-1.311533	-1.424866	-0.310732	-0.435480	0.589451	131.711033	-80.163279	125.910483
26034		10.713700	-1.577748	-1.072813	-0.064170	-0.334724	0.621279	133.882594	-80.297923	123.667349
26035		9.756646	-1.926373	-0.652239	0.073278	-0.262788	0.561043	135.860458	-80.422286	121.700151
26036		8.949072	-2.210872	-0.691780	0.212494	-0.272495	0.470829	137.775979	-80.496901	119.878909
26037		8.469242	-2.267141	-0.973265	0.395099	-0.362125	0.399498	139.822078	-80.494859	118.030404
26038		8.271351	-2.126287	-1.324333	0.543628	-0.486228	0.383791	142.182481	-80.420677	115.950418
26039		8.305068	-2.071490	-1.859791	0.701524	-0.602295	0.444924	144.976653	-80.298078	113.520614
26040		8.365232	-1.840257	-2.284266	0.842646	-0.670156	0.548468	148.201727	-80.154638	110.735654
26041		8.408585	-1.486990	-2.431425	0.949176	-0.665867	0.659778	151.694363	-80.017815	107.739004
26042		8.556871	-0.986422	-2.456032	1.016909	-0.635947	0.765419	155.404845	-79.891056	104.560178
26043		11.747514	10.726296	-0.043464	-0.490930	-0.257801	2.071174	161.714328	-80.192272	97.865779
26044		6.362964	-7.018013	-3.635432	-3.819798	0.138403	1.176876	163.158513	-80.475689	94.178395
26045		10.408256	0.217163	-3.852918	1.503975	-0.775949	0.930515	167.696160	-80.183973	90.446444
26046		9.731670	3.917644	-1.884391	-0.275370	0.198106	0.922038	170.446204	-80.399813	87.494080
26047		8.586792	1.106437	-2.418332	-1.285151	-0.221508	0.795491	172.471195	-80.346516	84.690177
26048		9.719404	0.216762	-3.285441	-0.486578	-0.359672	0.551076	174.163179	-80.182665	82.688294
26049		9.669919	0.819762	-2.605156	-0.394655	-0.159426	0.422408	175.367443	-80.118234	81.233363
26050		9.184836	0.452590	-2.024713	-0.761713	-0.181396	0.344444	176.103993	-80.033324	80.040244
26051		9.038788	-0.077791	-1.702801	-0.948008	-0.260115	0.310911	176.613964	-79.900319	78.967584
26052		9.088772	-0.538770	-1.476535	-1.017237	-0.288182	0.323147	177.115750	-79.749611	77.863310
26053		9.159603	-0.969543	-1.430079	-1.004217	-0.329530	0.351589	177.686193	-79.574588	76.695441
26054		9.393280	-1.327895	-1.433471	-0.816065	-0.374137	0.373011	178.411829	-79.371630	75.479484
26055		9.570141	-1.458743	-1.420602	-0.539203	-0.382411	0.387383	179.293838	-79.161521	74.264236
26056		9.691483	-1.535495	-1.428183	-0.265371	-0.387389	0.399022	-179.667623	-78.944275	73.049257
26057		9.748967	-1.427632	-1.682875	-0.040123	-0.400619	0.400343	-178.548369	-78.715746	71.881938
26058		9.566618	-1.393174	-1.919053	0.048381	-0.336635	0.394175	-177.427822	-78.518970	70.764855
26059		9.376006	-1.319636	-2.186527	0.078722	-0.291434	0.374753	-176.378937	-78.345179	69.737307
26060		9.233119	-1.376135	-2.450850	0.116297	-0.291146	0.360931	-175.372038	-78.167778	68.774605
26061		9.132789	-1.403167	-2.741338	0.203854	-0.308863	0.350446	-174.381595	-77.978055	67.878797
26062		9.077159	-1.461518	-3.007602	0.350286	-0.331414	0.340965	-173.364953	-77.772198	67.041899
26063		8.846724	-1.481420	-3.332262	0.472525	-0.339759	0.328059	-172.349173	-77.559985	66.276440
26064		8.779084	-1.619770	-3.615411	0.638917	-0.367644	0.314516	-171.310140	-77.329599	65.584652
26065		9.146843	-1.537093	-3.757511	0.822971	-0.367497	0.294177	-170.250387	-77.098845	64.978735
26066		9.288932	-1.278439	-3.633803	0.902817	-0.301815	0.284245	-169.166093	-76.903261	64.394459
26067		9.491142	-0.705724	-2.800565	0.823450	-0.223671	0.277965	-168.130405	-76.750117	63.812665
26068		9.354030	-0.513570	-2.486722	0.605561	-0.248804	0.249027	-167.316059	-76.584068	63.329983
26069		9.517130	-0.324577	-2.548621	0.536064	-0.245051	0.225947	-166.610563	-76.421827	62.917654
26070		9.416726	-0.299671	-2.617777	0.357416	-0.225582	0.199701	-166.066581	-76.272741	62.566240
26071		9.272439	-0.630443	-2.954704	0.318024	-0.275653	0.148115	-165.701427	-76.102555	62.375178
26072		9.218263	-0.823359	-3.196856	0.315708	-0.344558	0.092374	-165.504723	-75.901679	62.356519
26073		8.997986	-1.395402	-3.697239	0.353870	-0.364174	-0.000530	-165.504828	-75.703319	62.563101
26074		9.408570	-1.131232	-3.636659	0.535005	-0.416412	-0.051605	-165.535152	-75.483202	62.908534
26075		9.897745	-0.852538	-3.610072	0.371717	-0.252139	0.003651	-165.448789	-75.346246	63.036738
26076		9.941131	-0.477593	-3.035669	0.089798	0.002764	0.134792	-165.103580	-75.331637	62.730727
26077		9.425135	-0.773867	-2.446646	-0.372205	0.079126	0.221405	-164.798881	-75.345815	62.192714
26078		9.454769	-1.393147	-2.450888	-0.396460	0.005390	0.225487	-164.540048	-75.318098	61.687990
26079		9.514685	-1.364630	-2.333797	-0.343167	-0.033743	0.204283	-164.321846	-75.271364	61.256521
26080		9.324460	-1.474570	-2.346244	-0.350021	-0.066365	0.180946	-164.175939	-75.210069	60.895880
26081		9.266834	-1.474073	-2.368858	-0.259427	-0.117243	0.168517	-164.038132	-75.122303	60.597001
26082		9.290497	-1.441927	-2.441783	-0.165824	-0.153157	0.167596	-163.871187	-75.014860	60.323524
26083		9.240052	-1.466963	-2.667305	-0.097844	-0.156716	0.165566	-163.676116	-74.905387	60.060970
26084		9.231320	-1.486873	-2.864791	-0.013136	-0.114553	0.132294	-163.476649	-74.824417	59.844169
26085		9.341321	-1.425583	-2.938115	0.041161	-0.107762	0.123046	-163.263879	-74.748261	59.645641
26086		9.269621	-1.507550	-3.156634	0.114122	-0.108227	0.118744	-163.019303	-74.672584	59.457505
26087		9.259079	-1.575453	-3.196087	0.225824	-0.151060	0.118972	-162.739707	-74.572888	59.299291
26088		9.433089	-1.602457	-3.225335	0.254816	-0.206925	0.141938	-162.434987	-74.438799	59.132211
26089		9.637894	-1.504790	-2.900675	0.207150	-0.175780	0.155727	-162.115822	-74.318675	58.921662
26090		9.605452	-1.234156	-2.486900	0.142428	-0.076133	0.144157	-161.796311	-74.254961	58.672145
26091		9.312555	-0.994562	-2.484282	0.146583	-0.054309	0.100971	-161.546104	-74.210155	58.497070
26092		9.207450	-0.911984	-2.576489	0.166772	-0.100506	0.062249	-161.388983	-74.147543	58.430701
26093		9.320276	-1.043544	-2.614180	0.184263	-0.126374	0.049587	-161.263877	-74.072756	58.408046
26094		9.303089	-1.102756	-2.737343	0.179192	-0.122967	0.057270	-161.125228	-73.998796	58.368243
26095		9.259893	-1.130472	-2.870671	0.142522	-0.112403	0.058085	-161.000320	-73.929955	58.320906
26096		9.248023	-1.137245	-2.962914	0.134560	-0.096606	0.048610	-160.887866	-73.871844	58.281725
26097		9.183970	-1.174015	-2.907698	0.191985	-0.090977	0.030632	-160.773257	-73.819671	58.274604
26098		9.222855	-1.185341	-2.691642	0.275409	-0.108261	0.023160	-160.636140	-73.760031	58.293759
26099		9.308825	-1.253226	-2.695004	0.308369	-0.127444	0.032094	-160.476797	-73.687838	58.309515
26100		9.439922	-1.278574	-2.788021	0.305053	-0.129555	0.041292	-160.304243	-73.613249	58.309453
26101		9.416590	-1.308558	-2.907941	0.295069	-0.128194	0.055374	-160.111678	-73.536142	58.282662
26102		9.419250	-1.217408	-2.901296	0.313663	-0.122942	0.054712	-159.907100	-73.462486	58.254346
26103		9.302460	-1.059931	-2.696431	0.316982	-0.101895	0.055044	-159.687102	-73.399502	58.212030
26104		9.218783	-0.947978	-2.536541	0.296504	-0.079207	0.056584	-159.461793	-73.348896	58.151800
26105		9.185919	-0.964216	-2.636972	0.297942	-0.078924	0.075300	-159.202923	-73.294035	58.057495
26106		9.313949	-0.943183	-2.784361	0.309738	-0.103173	0.094104	-158.921524	-73.222769	57.946574
26107		9.500277	-0.916577	-2.939575	0.299653	-0.098207	0.101161	-158.631741	-73.151981	57.820930
26108		9.507757	-0.881208	-2.875319	0.239108	-0.060635	0.107126	-158.341709	-73.100336	57.658620
26109		9.403436	-0.859237	-2.752465	0.178003	-0.012179	0.107968	-158.052694	-73.073490	57.460849
26110		9.245162	-0.911991	-2.663559	0.132189	-0.014109	0.112272	-157.784391	-73.044974	57.257159
26111		9.270588	-0.904372	-2.668632	0.090387	-0.046494	0.111559	-157.565443	-72.998639	57.080080
26112		9.348836	-0.958704	-2.809519	0.074398	-0.070815	0.114289	-157.369248	-72.939205	56.917076
26113		9.421616	-0.926933	-2.810318	0.066835	-0.068509	0.113515	-157.178575	-72.880443	56.755343
26114		9.381735	-0.962130	-2.896647	0.081544	-0.067212	0.122333	-156.964399	-72.820785	56.577704
26115		9.376026	-1.011467	-2.787627	0.091603	-0.063718	0.128585	-156.733038	-72.760796	56.388116
26116		9.312447	-1.033178	-2.628038	0.092112	-0.033153	0.124875	-156.486287	-72.718051	56.182598
26117		9.223372	-1.057682	-2.520262	0.105768	-0.026329	0.123669	-156.230237	-72.678343	55.975548
26118		9.201889	-1.022188	-2.549411	0.115880	-0.045470	0.125028	-155.981008	-72.628575	55.781606
26119		9.347131	-0.967587	-2.685402	0.116434	-0.067581	0.127765	-155.745189	-72.565823	55.602039
26120		9.352455	-0.912631	-2.720939	0.118558	-0.060082	0.133870	-155.493419	-72.505849	55.406917
26121		9.231072	-0.820612	-2.684112	0.125180	-0.034459	0.139060	-155.211938	-72.457184	55.184590
26122		9.161472	-0.739007	-2.481877	0.108298	-0.037329	0.150884	-154.923790	-72.404361	54.945030
26123		9.264229	-0.656634	-2.443193	0.076092	-0.054010	0.165402	-154.645533	-72.338495	54.696413
26124		9.487691	-0.650635	-2.560751	0.060719	-0.062956	0.190728	-154.343359	-72.261870	54.413341
26125		9.658137	-0.635989	-2.687018	0.029117	-0.056383	0.217685	-154.014229	-72.180984	54.082790
26126		9.543631	-0.671015	-2.791253	-0.018865	-0.034222	0.236563	-153.667202	-72.106581	53.704441
26127		9.396438	-0.793830	-2.660649	-0.062769	-0.014917	0.250301	-153.312266	-72.037440	53.291112
26128		9.230474	-0.866171	-2.556575	-0.099706	-0.011162	0.260234	-152.961802	-71.967276	52.860146
26129		9.159455	-0.945066	-2.422057	-0.143517	-0.022897	0.263177	-152.645460	-71.889211	52.438378
26130		9.177601	-0.964001	-2.414428	-0.165453	-0.031041	0.278748	-152.326256	-71.802536	52.000281
26131		9.216351	-0.999817	-2.495186	-0.172852	-0.038076	0.293313	-151.999547	-71.707302	51.549456
26132		9.269212	-1.052907	-2.550560	-0.158342	-0.060125	0.306591	-151.665297	-71.596854	51.099311
26133		9.417081	-1.030163	-2.591912	-0.136696	-0.075193	0.320880	-151.315613	-71.473778	50.645506
26134		9.434765	-1.038107	-2.645639	-0.133608	-0.066935	0.332299	-150.944402	-71.351073	50.170688
26135		9.409109	-1.050242	-2.565180	-0.147759	-0.054216	0.331887	-150.578224	-71.233623	49.692099
26136		9.387954	-1.078975	-2.541426	-0.145030	-0.054837	0.329747	-150.217981	-71.115743	49.221288
26137		9.374945	-1.072318	-2.590504	-0.136132	-0.067945	0.334618	-149.863235	-70.988819	48.761114
26138		9.396647	-1.097506	-2.701318	-0.135914	-0.070004	0.333694	-149.515346	-70.860426	48.308195
26139		9.354347	-1.179255	-2.789726	-0.130861	-0.065478	0.339160	-149.159943	-70.731607	47.849781
26140		9.377572	-1.240656	-2.744147	-0.103149	-0.065589	0.333501	-148.800533	-70.603616	47.403838
26141		9.376574	-1.217073	-2.765959	-0.079806	-0.061238	0.333579	-148.430889	-70.476675	46.960597
26142		9.463619	-1.171354	-2.798823	-0.068882	-0.067741	0.330894	-148.067803	-70.346550	46.530888
26143		9.543856	-1.194601	-2.916671	-0.070748	-0.068189	0.327759	-147.717300	-70.216188	46.112748
26144		9.556023	-1.256899	-2.954224	-0.077521	-0.051615	0.325913	-147.362263	-70.093616	45.685643
26145		9.428143	-1.378027	-2.930169	-0.071706	-0.043116	0.316364	-147.015808	-69.977172	45.270540
26146		9.366012	-1.530194	-2.872088	-0.050780	-0.048566	0.311728	-146.670696	-69.858754	44.869675
26147		9.324562	-1.681348	-2.803017	-0.018022	-0.058862	0.300620	-146.336323	-69.738099	44.499568
26148		9.321485	-1.864902	-2.753259	0.023539	-0.054599	0.285799	-145.995738	-69.623463	44.148325
26149		9.260639	-2.032000	-2.751140	0.075505	-0.047317	0.261503	-145.655644	-69.519380	43.828748
26150		9.233306	-2.178489	-2.865881	0.139357	-0.059594	0.242619	-145.314851	-69.414964	43.547655
26151		9.281206	-2.270342	-3.075215	0.216733	-0.078219	0.225528	-144.972197	-69.306807	43.311379
26152		9.244702	-2.263557	-3.285423	0.301207	-0.069743	0.220454	-144.581280	-69.203754	43.075459
26153		9.180407	-2.072288	-3.289585	0.404482	-0.059424	0.215817	-144.132728	-69.106420	42.840667
26154		9.374787	-1.636246	-3.273864	0.493011	-0.104677	0.227623	-143.660628	-68.983503	42.635161
26155		9.651268	-1.201142	-3.261081	0.492638	-0.105614	0.226970	-143.196037	-68.859745	42.436927
26156		9.628630	-0.978509	-3.135221	0.428251	-0.042084	0.232845	-142.706719	-68.762454	42.172838
26157		9.341908	-0.859844	-2.911718	0.377168	-0.004552	0.226304	-142.225978	-68.683707	41.885938
26158		9.205503	-0.820615	-2.708095	0.313701	-0.029624	0.225999	-141.805246	-68.592910	41.624709
26159		9.254878	-0.934220	-2.700967	0.228980	-0.055392	0.225186	-141.462356	-68.490291	41.394262
26160		9.376078	-1.168855	-2.830879	0.142746	-0.055668	0.229571	-141.164455	-68.385408	41.159427
26161		9.360216	-1.406242	-3.069679	0.071759	-0.043964	0.235242	-140.895198	-68.283445	40.910883
26162		9.223010	-1.624225	-3.233872	0.025895	-0.020655	0.236010	-140.630059	-68.190941	40.638909
26163		9.059062	-1.769557	-3.295688	0.010830	-0.021924	0.239043	-140.376244	-68.096524	40.369010
26164		9.024192	-1.843554	-3.292916	0.001726	-0.037720	0.248436	-140.131383	-67.991058	40.103600
26165		9.128677	-1.814962	-3.299277	-0.007253	-0.045212	0.263576	-139.887314	-67.876518	39.832604
26166		9.386717	-1.771510	-3.286226	-0.010057	-0.056668	0.289366	-139.627608	-67.746760	39.543435
26167		9.573821	-1.698022	-3.349633	-0.020042	-0.045646	0.305676	-139.352427	-67.615453	39.230356
26168		9.577393	-1.694401	-3.426760	-0.032288	-0.024029	0.322078	-139.048055	-67.486548	38.878536
26169		9.563423	-1.707143	-3.414292	-0.038670	-0.015729	0.339339	-138.728728	-67.354257	38.505445
26170		9.604050	-1.876177	-3.349462	-0.038382	-0.018098	0.347966	-138.403561	-67.216605	38.126618
26171		9.578718	-2.132693	-3.372870	-0.031026	-0.004195	0.340903	-138.076080	-67.087060	37.748643
26172		9.507555	-2.469854	-3.201170	0.025447	0.011857	0.317972	-137.725409	-66.971975	37.381123
26173		9.362363	-2.734459	-2.988468	0.116175	0.023667	0.288603	-137.347879	-66.872650	37.039757
26174		9.330904	-2.933513	-2.832809	0.235848	0.009831	0.252595	-136.949523	-66.780317	36.750942
26175		9.364413	-3.014153	-2.742176	0.331728	0.020174	0.212052	-136.531885	-66.707734	36.499904
26176		9.255768	-3.073389	-2.740983	0.391994	0.045585	0.169935	-136.095657	-66.661281	36.266963
26177		9.040158	-3.074730	-2.735916	0.445191	0.069466	0.137392	-135.642115	-66.637240	36.047473
26178		8.888791	-2.918774	-2.686035	0.449905	0.078338	0.113316	-135.197945	-66.625491	35.841931
26179		8.863856	-2.700670	-2.770789	0.403777	0.102777	0.087521	-134.784636	-66.633800	35.640413
26180		8.862562	-2.534802	-2.900006	0.326594	0.136371	0.078956	-134.388564	-66.658229	35.410328
26181		8.868959	-2.420037	-3.041922	0.257159	0.171362	0.077493	-134.002545	-66.696932	35.147120
26182		8.779920	-2.325701	-2.998158	0.218031	0.193222	0.083194	-133.608640	-66.740911	34.851804
26183		8.729790	-2.280213	-2.872169	0.208554	0.193928	0.096509	-133.209085	-66.779145	34.543702
26184		8.677535	-2.324518	-2.799957	0.201968	0.172748	0.110607	-132.817069	-66.802018	34.240587
26185		8.583500	-2.435046	-2.706935	0.198208	0.146466	0.110458	-132.455757	-66.814316	33.967731
26186		8.541021	-2.640021	-2.716844	0.212174	0.129295	0.107511	-132.102675	-66.820221	33.713391
26187		8.465873	-2.885741	-2.563577	0.268043	0.111808	0.098406	-131.746177	-66.823046	33.489319
26188		8.384332	-3.077485	-2.397265	0.314112	0.097635	0.075066	-131.394954	-66.829582	33.300551
26189		8.440646	-3.207686	-2.279561	0.344972	0.085760	0.049970	-131.063102	-66.842343	33.151275
26190		8.537241	-3.359454	-2.235791	0.352309	0.076325	0.009201	-130.768994	-66.868551	33.048462
26191		8.665717	-3.492006	-2.195208	0.359567	0.092182	-0.035346	-130.496030	-66.920157	32.972407
26192		8.752889	-3.564395	-2.120570	0.369471	0.141591	-0.074158	-130.196679	-67.006573	32.874665
26193		8.747742	-3.501514	-1.967717	0.376825	0.195682	-0.104908	-129.865069	-67.126483	32.745819
26194		8.752510	-3.319539	-1.879327	0.345568	0.227948	-0.134460	-129.538017	-67.270652	32.603340
26195		8.901663	-3.027988	-1.903922	0.262411	0.225997	-0.170585	-129.292143	-67.430096	32.496681
26196		9.076245	-2.901038	-2.078017	0.150432	0.208396	-0.217307	-129.165457	-67.603490	32.450379
26197		9.233246	-2.933505	-2.166820	0.104064	0.214517	-0.247147	-129.086477	-67.792614	32.426335
26198		9.299158	-2.961538	-2.087439	0.139384	0.227976	-0.261756	-128.981896	-67.992794	32.397184
26199		9.391762	-2.859011	-1.906151	0.192108	0.236723	-0.268833	-128.845002	-68.199551	32.365176
26200		9.445793	-2.744246	-1.804519	0.218205	0.260996	-0.289093	-128.679862	-68.423735	32.319539
26201		9.415113	-2.628936	-1.747186	0.236715	0.307289	-0.321311	-128.480845	-68.679167	32.248361
26202		9.320485	-2.574133	-1.815595	0.263865	0.346844	-0.362013	-128.251806	-68.966517	32.162413
26203		9.164278	-2.491085	-1.820865	0.288149	0.371992	-0.422792	-128.033846	-69.290405	32.102786
26204		9.163509	-2.352165	-1.801378	0.325307	0.395319	-0.501047	-127.833313	-69.657416	32.085238
26205		9.134729	-2.154914	-1.782781	0.360159	0.423644	-0.573513	-127.645962	-70.067580	32.102448
26206		9.105791	-1.986453	-1.758065	0.415127	0.457520	-0.649534	-127.452222	-70.523712	32.146873
26207		9.065511	-1.730941	-1.626454	0.477644	0.475001	-0.716354	-127.265935	-71.016853	32.236397
26208		8.905709	-1.464467	-1.446188	0.523381	0.464169	-0.778547	-127.127142	-71.534254	32.404066
26209		8.824055	-1.152118	-1.225802	0.567591	0.413806	-0.846494	-127.110157	-72.065874	32.725493
26210		8.770018	-0.769791	-0.938230	0.536819	0.375082	-0.923305	-127.258835	-72.618519	33.201900
26211		8.744339	-0.459611	-0.748658	0.438622	0.340753	-1.007106	-127.636971	-73.197274	33.857384
26212		8.901626	-0.343460	-0.687736	0.349644	0.299385	-1.076648	-128.248983	-73.790589	34.702246
26213		9.162735	-0.165510	-0.669199	0.256139	0.306920	-1.140406	-129.044669	-74.412887	35.679080
26214		9.329778	-0.050053	-0.760690	0.146064	0.354219	-1.208303	-129.990025	-75.077578	36.743317
26215		9.416788	-0.088833	-0.861283	0.003370	0.404818	-1.283943	-131.142522	-75.789689	37.932939
26216		9.561467	-0.214681	-1.057808	-0.136573	0.439239	-1.371843	-132.576260	-76.544702	39.326520
26217		9.950203	-0.311561	-1.304938	-0.199732	0.386301	-1.438764	-134.433371	-77.297753	41.112402
26218		10.620835	-0.471857	-1.361197	-0.323852	0.351965	-1.447678	-136.665366	-78.024555	43.204834
26219		11.063049	-0.712400	-1.298175	-0.550615	0.387460	-1.414027	-139.172286	-78.735385	45.438895
26220		11.365246	-1.047207	-1.331851	-0.754436	0.417209	-1.376301	-141.958020	-79.423235	47.833382
26221		11.643460	-1.485292	-1.495276	-0.879105	0.447174	-1.341465	-145.027769	-80.089853	50.437774
26222		11.708521	-1.937760	-1.675295	-0.898953	0.493353	-1.312253	-148.326681	-80.741839	53.258640
26223		11.471169	-2.236163	-1.427380	-0.894955	0.535378	-1.297315	-151.958548	-81.381639	56.412895
26224		11.149478	-2.434155	-1.143085	-0.928625	0.547437	-1.316323	-156.177344	-81.996814	60.136352
26225		10.838906	-2.507849	-1.134493	-0.854427	0.533100	-1.374899	-161.259671	-82.571510	64.767968
26226		10.461603	-2.368483	-1.491469	-0.570294	0.489097	-1.454652	-167.340319	-83.070902	70.564879
26227		10.036537	-1.976943	-1.846687	-0.190949	0.373290	-1.544491	-174.547564	-83.425990	77.709216
26228		9.848399	-1.521085	-2.064686	0.150963	0.199618	-1.618721	177.434245	-83.567980	85.863903
26229		9.932284	-1.035253	-2.143816	0.351991	0.053768	-1.655211	169.286442	-83.492636	94.263893
26230		10.051715	-0.721040	-2.304939	0.418219	-0.065868	-1.659416	161.698304	-83.221477	102.142075
26231		10.304003	-0.438894	-2.355121	0.355300	-0.157336	-1.651331	154.989658	-82.791430	109.103185
26232		10.698241	-0.094439	-2.382600	0.193080	-0.178960	-1.658073	149.062307	-82.258665	115.190447
26233		10.917598	0.676904	-2.173909	0.099114	-0.142762	-1.685985	143.728689	-81.658582	120.631532
26234		10.809693	1.387868	-1.787640	0.103673	-0.108154	-1.722741	138.974674	-80.997108	125.498154
26235		10.564249	1.894135	-1.176527	0.301578	-0.102326	-1.773062	134.876750	-80.262962	129.823799
26236		10.352885	2.459482	-0.374778	0.489709	-0.086189	-1.820635	131.355764	-79.471030	133.683149
26237		10.107906	3.048086	0.180321	0.423268	-0.054143	-1.848721	128.200911	-78.639436	137.140604
26238		9.966106	3.351720	0.024728	0.053382	-0.031750	-1.865626	125.226625	-77.774859	140.207813
26239		9.992467	3.424504	-0.466583	-0.392672	-0.024985	-1.902389	122.344864	-76.863087	142.928061
26240		10.331969	3.483216	-1.007051	-0.793595	-0.005914	-1.964936	119.500603	-75.898562	145.384282
26241		10.876602	3.588658	-1.492890	-1.105573	0.039928	-2.034053	116.669528	-74.882922	147.652283
26242		11.319180	3.480082	-1.823802	-1.274097	0.123077	-2.078266	113.882336	-73.839056	149.786049
26243		11.478764	3.120632	-1.894670	-1.358310	0.201408	-2.076854	111.212288	-72.785757	151.757930
26244		11.485642	2.512521	-1.871499	-1.322086	0.269756	-2.040935	108.738982	-71.742086	153.556839
26245		11.353497	2.265775	-1.825205	-1.196289	0.346817	-2.014006	106.457249	-70.703446	155.239847
26246		11.022981	2.064954	-1.953832	-1.084757	0.442078	-1.986727	104.307566	-69.675400	156.861606
26247		10.583098	2.112817	-1.841062	-0.978374	0.504224	-1.971198	102.313519	-68.643925	158.392494
26248		10.246486	2.257965	-1.610183	-0.890342	0.492882	-1.951872	100.550504	-67.605830	159.740043
26249		9.977572	2.420150	-1.253570	-0.762734	0.431168	-1.934354	99.080061	-66.556902	160.859219
26250		9.684915	2.441497	-0.916012	-0.602256	0.315957	-1.922498	97.954790	-65.496289	161.710527
26251		9.672332	2.622596	-0.677249	-0.437042	0.189332	-1.927112	97.153601	-64.417048	162.315729
26252		9.798080	2.912754	-0.658434	-0.371774	0.120954	-1.926858	96.522281	-63.330989	162.779064
26253		9.765555	3.255512	-0.811521	-0.368589	0.089335	-1.923937	95.969690	-62.241907	163.160278
26254		9.756353	3.630878	-0.832044	-0.384669	0.080866	-1.899694	95.453070	-61.165251	163.494078
26255		9.462938	4.013981	-0.632658	-0.423312	0.111194	-1.856365	94.918268	-60.112946	163.826765
26256		9.013813	4.191192	-0.454632	-0.443533	0.127380	-1.800524	94.388617	-59.092348	164.143527
26257		8.680162	4.459386	-0.455170	-0.458058	0.121854	-1.742783	93.885983	-58.102673	164.422289
26258		8.524562	4.604747	-0.361380	-0.472821	0.097736	-1.692206	93.421098	-57.140288	164.649252
26259		8.433557	4.785307	-0.315134	-0.498943	0.076405	-1.655163	92.980552	-56.197102	164.831722
26260		8.421355	4.895028	-0.310301	-0.515128	0.043867	-1.616870	92.574636	-55.274591	164.962972
26261		8.470719	4.942112	-0.191284	-0.557443	0.049097	-1.579935	92.155020	-54.372518	165.082913
26262		8.304763	4.783764	-0.253281	-0.613716	0.059248	-1.528972	91.708567	-53.499648	165.197370
26263		8.121198	4.694697	-0.323399	-0.661168	0.056663	-1.484869	91.250277	-52.651257	165.294084
26264		7.979863	4.531740	-0.327135	-0.702964	0.065420	-1.434659	90.772992	-51.831509	165.385431
26265		7.684857	4.403475	-0.227716	-0.698729	0.064436	-1.367747	90.310272	-51.049526	165.462514
26266		7.435571	4.226711	-0.161748	-0.685531	0.066854	-1.303919	89.862219	-50.303891	165.530997
26267		7.185256	4.112457	-0.120074	-0.598076	0.058417	-1.222673	89.477988	-49.604524	165.582605
26268		7.049239	4.136424	-0.096245	-0.479845	0.052006	-1.149951	89.170550	-48.946689	165.622474
26269		6.874958	4.328316	0.045944	-0.346563	0.037490	-1.069698	88.952657	-48.334963	165.645555
26270		6.849944	4.670650	0.106193	-0.230826	0.018720	-0.997653	88.814129	-47.764562	165.650913
26271		6.936570	5.026034	0.118878	-0.190084	0.026262	-0.936569	88.695354	-47.229262	165.661618
26272		6.862797	5.229279	0.237449	-0.164364	0.037176	-0.872158	88.584493	-46.730483	165.681311
26273		6.806998	5.360365	0.329589	-0.128987	-0.005247	-0.814111	88.520125	-46.265833	165.665469
26274		6.902223	5.496362	0.432523	-0.132518	-0.017103	-0.761365	88.459839	-45.831297	165.640564
26275		6.750903	5.436745	0.384043	-0.169653	-0.001890	-0.703451	88.369177	-45.430067	165.628677
26276		6.609286	5.352123	0.248233	-0.184545	0.001915	-0.645554	88.266950	-45.061592	165.620510
26277		6.547913	5.153006	0.127856	-0.188295	0.015374	-0.580086	88.154739	-44.730801	165.623878
26278		6.542987	5.129639	0.071747	-0.146750	0.032133	-0.500313	88.055616	-44.444949	165.642043
26279		6.495993	5.217787	0.147152	-0.086367	0.060630	-0.417844	87.974502	-44.206240	165.684552
26280		6.495194	5.517150	0.091681	-0.031813	0.081662	-0.342580	87.911596	-44.009650	165.745457
26281		6.412964	5.904922	0.103460	0.012144	0.102249	-0.276067	87.862009	-43.851246	165.824215
26282		6.400568	6.344951	-0.000555	0.026772	0.083066	-0.234487	87.830464	-43.716440	165.888666
26283		6.463376	6.667237	-0.052733	0.045438	0.006170	-0.203127	87.851595	-43.601855	165.893034
26284		6.604849	6.914122	-0.089551	0.052747	-0.055775	-0.171602	87.909526	-43.506026	165.849498
26285		6.621310	6.933034	-0.047644	-0.008066	-0.043172	-0.123062	87.925115	-43.438317	165.817413
26286		6.459952	6.484077	0.134137	-0.122956	0.013355	-0.060071	87.842540	-43.404882	165.831725
26287		6.285785	5.967761	0.280219	-0.134228	0.040567	0.002060	87.737994	-43.407019	165.869255
26288		6.282808	5.823081	0.205057	-0.092939	0.036174	0.059846	87.657743	-43.441677	165.905205
26289		6.322523	5.908946	0.289427	-0.067233	0.045817	0.105752	87.586327	-43.503009	165.950337
26290		6.262762	6.166340	0.282449	-0.036724	0.039448	0.143411	87.534384	-43.585361	165.991870
26291		6.228657	6.457696	0.365220	0.056694	0.011007	0.153861	87.551583	-43.675071	166.011353
26292		6.261880	6.764006	0.359583	0.166064	-0.054085	0.156596	87.666622	-43.767231	165.979261
26293		6.344289	6.903063	0.488010	0.227385	-0.130524	0.167055	87.859319	-43.867706	165.886441
26294		6.467153	6.869027	0.595104	0.235713	-0.178997	0.177744	88.083448	-43.974361	165.754729
26295		6.576026	6.745043	0.611619	0.212755	-0.192456	0.190121	88.302821	-44.088638	165.611793
26296		6.661664	6.617457	0.543678	0.131699	-0.178110	0.214713	88.467768	-44.215764	165.480037
26297		6.768886	6.455021	0.465413	0.020931	-0.136950	0.247122	88.546853	-44.361299	165.381232
26298		6.888289	6.288031	0.697277	-0.064377	-0.113052	0.295855	88.563075	-44.533681	165.302124
26299		6.944987	6.103256	1.012867	-0.105812	-0.113411	0.342531	88.555793	-44.733490	165.223461
26300		6.981107	6.004679	0.924122	-0.035027	-0.152707	0.372357	88.611196	-44.950225	165.113188
26301		7.003990	6.273872	0.429573	0.115814	-0.231937	0.392552	88.799550	-45.180129	164.938077
26302		7.244612	6.803603	-0.205898	0.248980	-0.275985	0.398290	89.091381	-45.412521	164.724974
26303		7.408462	7.275458	-0.941335	0.372052	-0.286071	0.386263	89.462525	-45.637995	164.500849
26304		7.529580	7.575471	-1.217840	0.469307	-0.268153	0.373498	89.881482	-45.854237	164.288144
26305		7.185263	7.635625	-0.792379	0.477686	-0.235411	0.360267	90.288961	-46.062608	164.099426
26306		6.921508	7.292143	-0.550803	0.408105	-0.233806	0.366945	90.657717	-46.273162	163.909210
26307		6.692600	6.790799	-0.392654	0.309797	-0.214608	0.375662	90.961474	-46.488799	163.732273
26308		6.586823	6.359365	-0.247322	0.162153	-0.200596	0.395915	91.173918	-46.714924	163.564609
26309		6.551007	6.101334	-0.104509	0.027733	-0.209471	0.416402	91.317285	-46.953004	163.387329
26310		6.715911	6.139246	-0.258692	-0.043241	-0.224536	0.417002	91.430415	-47.190261	163.195862
26311		6.976071	6.467451	-0.291262	-0.083785	-0.218181	0.396258	91.518151	-47.416187	163.008688
26312		7.077140	6.831393	-0.251573	-0.103550	-0.181115	0.357029	91.571538	-47.619375	162.852747
26313		7.028580	7.118848	-0.086596	-0.076549	-0.191322	0.327631	91.647884	-47.806110	162.687800
26314		7.020332	7.280727	0.088798	-0.086242	-0.201598	0.310185	91.725377	-47.981863	162.513663
26315		6.944192	7.196475	0.198987	-0.156078	-0.180283	0.304151	91.750638	-48.155036	162.357017
26316		6.959478	6.883799	0.269812	-0.223224	-0.163237	0.313579	91.726880	-48.333293	162.214350
26317		6.924001	6.488000	0.443453	-0.246287	-0.136691	0.331482	91.674135	-48.522873	162.093703
26318		6.920321	6.205839	0.536836	-0.242920	-0.127743	0.348801	91.617770	-48.722041	161.980283
26319		6.883250	5.934660	0.356738	-0.198329	-0.139213	0.367017	91.595646	-48.932045	161.856130
26320		6.865595	5.758641	0.116864	-0.147800	-0.151398	0.381256	91.611081	-49.149477	161.720524
26321		6.801424	5.541296	-0.063530	-0.111507	-0.160064	0.404159	91.654791	-49.380381	161.575924
26322		6.760159	5.357407	-0.255000	-0.071364	-0.177246	0.425320	91.734312	-49.622469	161.414570
26323		6.741334	5.219888	-0.328392	0.007775	-0.207330	0.442827	91.881889	-49.874393	161.224473
26324		6.791676	5.168931	-0.348815	0.125023	-0.222988	0.454344	92.109553	-50.131634	161.017811
26325		6.905754	5.142651	-0.371294	0.265452	-0.252876	0.471600	92.442099	-50.398011	160.780629
26326		6.915811	5.177203	-0.169152	0.446352	-0.281854	0.481976	92.902371	-50.667908	160.512727
26327		6.926424	5.273166	-0.026509	0.603032	-0.322748	0.493495	93.486971	-50.942145	160.201739
26328		6.897326	5.349539	0.043248	0.711396	-0.385975	0.517076	94.185338	-51.224602	159.825095
26329		6.861143	5.423760	0.002982	0.750612	-0.467101	0.548464	94.973915	-51.518815	159.363697
26330		6.946253	5.411528	-0.208512	0.750739	-0.499671	0.605618	95.798783	-51.839160	158.857662
26331		6.948217	5.553681	-0.345383	0.709193	-0.506689	0.681924	96.622098	-52.198621	158.326163
26332		7.129853	6.159018	-0.845176	0.824512	-0.564457	0.770768	97.574915	-52.598762	157.716923
26333		7.473462	7.211757	-1.178598	0.994555	-0.602471	0.824527	98.676261	-53.020185	157.047266
26334		8.135914	8.885053	-1.562618	1.103209	-0.659215	0.755301	99.892830	-53.388351	156.314536
26335		9.393037	10.933848	-1.363888	1.063586	-0.708245	0.599295	101.119702	-53.654498	155.544128
26336		11.158651	12.229966	-1.314191	0.940970	-0.753371	0.403674	102.291510	-53.795571	154.756528
26337		13.664044	12.672380	-1.055413	0.510780	-0.675794	0.190409	103.126300	-53.819188	154.082139
26338		14.126474	10.365244	-0.591615	-0.481115	-0.034142	0.039787	102.876575	-53.839247	154.047179
26339		11.372316	7.960960	-0.285442	-1.201412	0.544471	-0.029057	101.758746	-53.891798	154.576133
26340		8.083092	6.093023	0.341954	-2.016716	0.753912	0.036601	100.018772	-53.996105	155.296265
26341		5.564692	3.794171	0.270946	-2.278967	0.674817	0.170664	98.199872	-54.155939	155.927014
26342		4.218352	2.609996	0.238567	-1.469411	0.379254	0.347642	97.087908	-54.384162	156.256862
26343		4.025761	2.586327	-0.044007	-0.287941	-0.017958	0.535517	96.982132	-54.689384	156.181225
26344		4.570498	3.142532	-0.706099	0.680234	-0.472933	0.712170	97.820964	-55.061013	155.629363
26345		6.012359	4.029818	-1.771868	1.333643	-0.910247	0.894837	99.432128	-55.491783	154.595899
26346		7.690871	5.431606	-1.766414	1.663094	-1.050012	1.043995	101.404612	-55.973400	153.359418
26347		9.124203	6.761293	-1.166767	1.516661	-1.096748	1.116147	103.388537	-56.465427	152.015255
26348		10.982465	7.694131	-0.591492	0.833799	-0.918568	1.138759	104.878901	-56.971964	150.801253
26349		12.190525	7.612807	-0.879710	0.183712	-0.713332	1.093114	105.845933	-57.470088	149.773441
26350		12.783432	7.173434	-1.128997	-0.261265	-0.480754	0.943142	106.343969	-57.915369	149.004372
26351		12.187462	6.412395	-1.617462	-0.636749	-0.196214	0.742820	106.336666	-58.294714	148.580385
26352		10.605480	5.142887	-1.979417	-0.732365	0.063917	0.604079	106.008972	-58.639770	148.469855
26353		8.612945	4.099384	-2.133032	-0.494558	0.160192	0.582772	105.722150	-58.988648	148.471071
26354		7.017495	3.561169	-2.082620	-0.222917	0.031652	0.657699	105.728261	-59.358708	148.312557
26355		6.567914	3.486760	-2.136880	0.007520	-0.250636	0.806370	106.175246	-59.766112	147.796403
26356		6.913640	3.683204	-1.940508	0.138224	-0.493202	0.962429	106.987667	-60.216445	146.947043
26357		7.563163	3.680346	-1.898940	0.205343	-0.607913	1.088328	108.014188	-60.709150	145.899807
26358		8.164641	3.890394	-2.043685	0.266020	-0.627592	1.148229	109.150030	-61.220760	144.772430
26359		8.792378	4.015324	-2.377328	0.271108	-0.617547	1.153817	110.320538	-61.726434	143.614467
26360		9.442934	4.033892	-2.584930	0.238140	-0.568193	1.122074	111.450519	-62.213770	142.486334
26361		9.972476	3.809332	-2.765694	0.214913	-0.520839	1.053683	112.528867	-62.664859	141.406428
26362		10.333143	3.658061	-2.855425	0.260926	-0.480360	1.003228	113.604034	-63.088729	140.363830
26363		10.295194	3.776122	-2.842625	0.239088	-0.437561	0.973533	114.641098	-63.498544	139.353959
26364		9.901104	3.788893	-2.461917	0.164237	-0.393060	0.970629	115.617394	-63.909359	138.367395
26365		9.416648	3.840016	-2.145425	0.058108	-0.368318	0.990036	116.547740	-64.329379	137.368118
26366		8.969088	3.900746	-2.078491	-0.019884	-0.346451	1.015060	117.454225	-64.760508	136.349034
26367		8.780617	3.750399	-1.906379	-0.121291	-0.336492	1.040760	118.339971	-65.200721	135.292677
26368		8.642368	3.224799	-1.911195	-0.188047	-0.270657	1.057519	119.158628	-65.660504	134.271545
26369		8.438496	2.852518	-2.033737	-0.171419	-0.250521	1.055254	119.998567	-66.118951	133.241543
26370		8.414599	2.516675	-1.987033	-0.116542	-0.258550	1.035842	120.901226	-66.558740	132.180649
26371		8.474332	2.200851	-2.078819	-0.047971	-0.276146	1.007895	121.881476	-66.972863	131.081839
26372		8.598945	2.057806	-2.077034	0.005189	-0.284556	0.969599	122.909783	-67.357912	129.966844
26373		8.838571	1.882644	-1.952292	0.084642	-0.316980	0.936595	124.033063	-67.709096	128.801717
26374		9.170153	1.899754	-2.047974	0.122561	-0.304806	0.915349	125.181216	-68.044987	127.635661
26375		9.265629	1.687507	-2.113756	0.156010	-0.265308	0.897942	126.324273	-68.377566	126.498912
26376		9.230087	1.430957	-2.238800	0.244081	-0.233366	0.884797	127.502504	-68.706101	125.380745
26377		9.177584	1.522547	-2.337858	0.382048	-0.205056	0.854691	128.735979	-69.022867	124.291057
26378		9.046555	1.560341	-2.376261	0.413027	-0.189849	0.843787	129.991961	-69.331258	123.198052
26379		8.996190	1.470085	-2.452726	0.509994	-0.225079	0.833804	131.371104	-69.613647	122.035550
26380		9.224140	1.566856	-2.419692	0.596519	-0.260003	0.832688	132.871578	-69.871315	120.798033
26381		9.362714	1.779357	-2.470630	0.641054	-0.265136	0.847751	134.456723	-70.122092	119.500197
26382		9.471876	1.967289	-2.510168	0.654347	-0.276918	0.871523	136.123177	-70.364451	118.125459
26383		9.611774	2.009718	-2.552764	0.620893	-0.260301	0.881925	137.803654	-70.604674	116.718221
26384		9.627211	2.010929	-2.608826	0.538271	-0.217998	0.887466	139.432600	-70.851015	115.316876
26385		9.523850	1.933126	-2.464388	0.471098	-0.156847	0.871246	140.978058	-71.105900	113.965920
26386		9.304734	1.664743	-2.538085	0.410485	-0.093073	0.847317	142.425833	-71.368919	112.682876
26387		9.080925	1.553065	-2.594915	0.425708	-0.056552	0.814466	143.840308	-71.627441	111.446779
26388		8.959685	1.439969	-2.520624	0.424171	-0.059690	0.787898	145.252624	-71.865487	110.213139
26389		8.868162	1.282057	-2.566273	0.438758	-0.060240	0.774874	146.691807	-72.089815	108.962343
26390		8.861543	1.196401	-2.946948	0.496638	-0.087192	0.765974	148.206194	-72.287947	107.668201
26391		8.864017	1.156745	-3.029921	0.490341	-0.107409	0.765536	149.768697	-72.465674	106.321847
26392		8.794142	0.872268	-3.001403	0.492277	-0.105988	0.761566	151.349858	-72.631416	104.957669
26393		8.737688	0.790495	-3.064548	0.548096	-0.110986	0.738771	152.960574	-72.777339	103.597930
26394		8.653931	0.785671	-3.279665	0.603708	-0.144157	0.725486	154.628006	-72.890977	102.212397
26395		8.797353	0.689143	-3.132675	0.604796	-0.184523	0.701000	156.307630	-72.965935	100.816241
26396		8.994280	0.564516	-3.067301	0.603130	-0.205495	0.688704	157.988221	-73.014883	99.417762
26397		9.241705	0.511081	-2.979018	0.607975	-0.189824	0.674885	159.648759	-73.057485	98.044303
26398		9.355064	0.449972	-2.957706	0.621182	-0.183321	0.670601	161.307719	-73.091092	96.679870
26399		9.551040	0.563872	-2.973994	0.672504	-0.167416	0.656648	162.971274	-73.119413	95.342431
26400		9.648814	0.800306	-2.876634	0.679002	-0.130040	0.643751	164.595878	-73.155079	94.048969
26401		9.527724	0.868035	-2.590566	0.622100	-0.084987	0.612974	166.120119	-73.200900	92.827421
26402		9.307877	0.742317	-2.583408	0.568847	-0.031194	0.573444	167.520490	-73.262597	91.702875
26403		9.047338	0.581517	-2.794156	0.611367	-0.034017	0.526831	168.871837	-73.309363	90.656100
26404		8.869210	0.592408	-2.933993	0.638972	-0.050590	0.492190	170.181057	-73.336281	89.669186
26405		8.824688	0.465680	-3.032250	0.571005	-0.024815	0.468819	171.407009	-73.369225	88.729511
26406		8.798842	0.291292	-3.029267	0.533409	-0.018069	0.469373	172.610431	-73.400487	87.790206
26407		8.854454	0.159663	-3.153490	0.595706	-0.057281	0.478039	173.882224	-73.404000	86.817710
26408		9.058766	0.228716	-3.080128	0.602205	-0.058648	0.484032	175.165309	-73.401103	85.836496
26409		9.024219	0.283984	-3.028461	0.548686	-0.028960	0.468616	176.387861	-73.408102	84.887287
26410		9.045697	0.287999	-2.994211	0.433719	-0.000601	0.437788	177.479191	-73.425217	84.005496
26411		9.031629	0.178835	-2.990837	0.479936	-0.013842	0.398236	178.527401	-73.428906	83.197188
26412		9.143349	0.445787	-2.943592	0.575451	-0.051062	0.359580	179.552712	-73.407098	82.469017
26413		9.266228	0.755908	-2.776500	0.520668	-0.042330	0.335864	-179.497251	-73.386320	81.787360
26414		9.386501	0.834713	-2.693888	0.432965	-0.010575	0.324824	-178.623354	-73.381157	81.131874
26415		9.390630	0.903042	-2.647770	0.347099	0.011798	0.317389	-177.808234	-73.385758	80.487132
26416		9.425100	0.748167	-2.700909	0.194394	0.038341	0.299635	-177.115497	-73.404007	79.878089
26417		9.416586	0.553952	-2.697418	0.073600	0.067133	0.278897	-176.523780	-73.437010	79.303002
26418		9.283312	0.315435	-2.697652	-0.017760	0.084607	0.264698	-176.010524	-73.479381	78.754586
26419		9.263225	0.086977	-2.814779	-0.113741	0.071245	0.260689	-175.556287	-73.512536	78.211118
26420		9.283272	-0.037953	-2.847777	-0.131118	0.038467	0.274957	-175.091125	-73.525504	77.645297
26421		9.375788	-0.125700	-2.823366	-0.129964	0.060546	0.267499	-174.631856	-73.549707	77.086988
26422		9.422866	-0.332637	-2.867363	-0.176714	0.096224	0.266614	-174.195562	-73.593524	76.524179
26423		9.366535	-0.761023	-3.036050	-0.224349	0.139312	0.255316	-173.793681	-73.660933	75.969569
26424		9.280642	-0.977689	-3.084655	-0.141050	0.145790	0.230041	-173.390837	-73.733024	75.463264
26425		9.388074	-1.063083	-3.083958	0.016412	0.118034	0.256621	-172.845280	-73.785804	74.903087
26426		9.305026	-1.168743	-3.256458	0.149523	0.090041	0.289525	-172.166004	-73.819073	74.282562
26427		9.104338	-1.205831	-3.075601	0.189739	0.084862	0.311930	-171.415488	-73.844826	73.612631
26428		8.976237	-1.185732	-2.739230	0.162639	0.056496	0.318724	-170.677439	-73.852086	72.938886
26429		9.010125	-1.168578	-2.558789	0.140704	-0.019647	0.313550	-169.984238	-73.813857	72.299420
26430		9.297569	-1.107369	-2.678270	0.166124	-0.047707	0.305292	-169.309318	-73.759187	71.693289
26431		9.514269	-0.844626	-2.587860	0.284160	-0.025943	0.302190	-168.565207	-73.714339	71.086127
26432		9.623000	-0.520795	-2.528188	0.340878	-0.005196	0.303599	-167.784712	-73.679379	70.474042
26433		9.747121	-0.308854	-2.661011	0.256569	0.035761	0.300441	-167.040124	-73.664762	69.849709
26434		9.680620	-0.411095	-2.710612	0.073606	0.099743	0.291151	-166.393348	-73.685598	69.217323
26435		9.478955	-0.691033	-2.736519	-0.089436	0.157761	0.261371	-165.863811	-73.740295	68.610602
26436		9.215828	-1.128188	-2.625195	-0.156322	0.192437	0.233441	-165.408252	-73.817428	68.040494
26437		9.174014	-1.419067	-2.626558	-0.086397	0.182267	0.218907	-164.937343	-73.889068	67.497057
26438		9.184473	-1.583024	-2.729722	0.025560	0.178109	0.223874	-164.393814	-73.957024	66.944266
26439		9.165393	-1.625102	-2.664972	0.125446	0.185703	0.228999	-163.770631	-74.026055	66.369098
26440		9.086604	-1.621091	-2.452224	0.238441	0.168527	0.229062	-163.090991	-74.084587	65.801969
26441		9.012956	-1.443120	-2.267770	0.390564	0.146633	0.218377	-162.349559	-74.130239	65.262159
26442		9.092521	-1.216678	-2.024713	0.554678	0.082442	0.194147	-161.601365	-74.144082	64.812356
26443		9.343692	-0.853181	-2.065278	0.731326	-0.003087	0.173574	-160.842345	-74.112919	64.457318
26444		9.590118	-0.260393	-2.307708	0.840483	-0.031727	0.142887	-160.104400	-74.071700	64.188346
26445		9.610927	0.244822	-2.465041	0.818153	-0.009004	0.105859	-159.431659	-74.048375	63.974627
26446		9.536317	0.504232	-2.659819	0.695463	0.016248	0.072392	-158.878793	-74.045531	63.811669
26447		9.520652	0.452633	-2.941964	0.519099	0.014811	0.061069	-158.445849	-74.043179	63.669050
26448		9.630026	0.221363	-3.331986	0.339345	0.008798	0.061899	-158.122314	-74.037914	63.532390
26449		9.652226	-0.180319	-3.529227	0.159751	0.034830	0.091854	-157.823681	-74.039112	63.315243
26450		9.643944	-0.599071	-3.330112	0.034334	0.059596	0.133367	-157.503961	-74.044800	63.000789
26451		9.623285	-0.881049	-2.785551	-0.034339	0.102476	0.195474	-157.072627	-74.058071	62.529947
26452		9.737220	-0.991002	-2.092766	0.021924	0.093281	0.273681	-156.474329	-74.048445	61.918389
26453		9.852107	-0.884279	-1.771645	0.114549	0.086337	0.357730	-155.673624	-74.012830	61.152016
26454		9.775407	-0.833022	-1.762456	0.190867	0.115047	0.439993	-154.662415	-73.969799	60.211404
26455		9.480827	-0.732888	-1.730030	0.226403	0.143393	0.499379	-153.503166	-73.920881	59.138271
26456		9.325188	-0.676514	-1.623744	0.196980	0.140622	0.549108	-152.285510	-73.852150	57.985920
26457		9.352802	-0.520569	-1.640887	0.139983	0.125836	0.581404	-151.067129	-73.759733	56.798860
26458		9.304827	-0.209863	-1.569123	0.058189	0.140962	0.614740	-149.840424	-73.659069	55.553200
26459		9.366972	0.052953	-1.575651	-0.035797	0.146848	0.634766	-148.641927	-73.547473	54.280598
26460		9.515815	0.358829	-1.754684	-0.092229	0.145508	0.634964	-147.495674	-73.428436	53.027542
26461		9.646010	0.583601	-2.018938	-0.122371	0.160839	0.593399	-146.432517	-73.322421	51.842822
26462		9.612438	0.520413	-2.237750	-0.168046	0.193593	0.512122	-145.503198	-73.252635	50.769601
26463		9.440385	0.273145	-2.343501	-0.201988	0.196857	0.407083	-144.759745	-73.213920	49.870136
26464		9.290336	-0.144083	-2.548850	-0.195439	0.144387	0.302301	-144.236517	-73.183107	49.204217
26465		9.266533	-0.519913	-2.752177	-0.187559	0.072222	0.228586	-143.903714	-73.141856	48.742006
26466		9.222850	-0.803013	-2.957585	-0.220483	-0.007738	0.189216	-143.741331	-73.076666	48.437889
26467		9.199203	-1.069779	-2.903347	-0.305307	-0.056812	0.178120	-143.700522	-72.992120	48.210056
26468		9.242466	-1.378741	-2.658837	-0.400056	-0.085223	0.190193	-143.728621	-72.890646	47.997291
26469		9.496054	-1.639344	-2.464447	-0.442087	-0.101289	0.217403	-143.759046	-72.772257	47.761717
26470		9.681372	-1.786977	-2.645689	-0.433851	-0.053952	0.251170	-143.684647	-72.664561	47.421074
26471		9.732033	-2.030741	-2.752855	-0.416282	0.054540	0.280544	-143.441719	-72.596289	46.914316
26472		9.577652	-2.345729	-2.607589	-0.357990	0.134347	0.308456	-143.040079	-72.554540	46.275984
26473		9.467758	-2.537021	-2.417994	-0.233274	0.137966	0.327416	-142.538373	-72.506023	45.607598
26474		9.640633	-2.648605	-2.312294	-0.088594	0.075830	0.360603	-141.979135	-72.416201	44.965462
26475		9.948825	-2.614806	-2.393933	0.094931	0.006961	0.374116	-141.379441	-72.288290	44.390962
26476		10.025847	-2.417868	-2.548154	0.276369	-0.024279	0.345635	-140.759040	-72.155241	43.903335
26477		9.795810	-2.148757	-2.401685	0.370907	-0.045281	0.278382	-140.207786	-72.035509	43.545109
26478		9.508647	-1.875405	-2.252875	0.378751	-0.113577	0.213790	-139.822052	-71.909083	43.365267
26479		9.261048	-1.520765	-2.095747	0.326676	-0.187895	0.170193	-139.611396	-71.765640	43.338299
26480		9.114204	-1.237076	-1.907329	0.183604	-0.194319	0.159775	-139.505206	-71.623642	43.334844
26481		9.104304	-0.992112	-1.703941	-0.022457	-0.146191	0.183891	-139.432475	-71.493278	43.242328
26482		9.308519	-0.996198	-2.116710	-0.228871	-0.134529	0.216989	-139.423234	-71.355977	43.091825
26483		9.644800	-1.332578	-3.085216	-0.409426	-0.063035	0.245030	-139.403899	-71.239061	42.821413
26484		9.876340	-2.226185	-4.114758	-0.482385	0.059668	0.238499	-139.301708	-71.178092	42.419105
26485		9.860124	-3.104447	-4.198600	-0.408648	0.133145	0.223561	-139.097380	-71.153933	41.953467
26486		9.714063	-3.571685	-3.743923	-0.262268	0.108328	0.215820	-138.846926	-71.121666	41.527587
26487		9.734133	-3.656133	-3.255020	-0.025185	0.047062	0.223875	-138.520133	-71.058839	41.164576
26488		9.835397	-3.201255	-2.899250	0.240394	0.026020	0.224298	-138.066141	-70.986504	40.827723
26489		9.965996	-2.568903	-2.671006	0.440844	0.028797	0.198359	-137.529400	-70.923834	40.524845
26490		9.972730	-1.932985	-2.572534	0.528661	-0.002027	0.142968	-137.046552	-70.869390	40.331989
26491		10.007657	-1.473501	-2.399195	0.519315	-0.047156	0.073932	-136.705019	-70.822109	40.283145
26492		10.102753	-1.353000	-2.083091	0.428287	-0.114316	0.017106	-136.559851	-70.769695	40.386852
26493		10.389351	-1.293263	-1.864607	0.342594	-0.166606	-0.024423	-136.572488	-70.711450	40.605839
26494		10.808790	-1.157568	-1.701784	0.209740	-0.118262	-0.036280	-136.619958	-70.678432	40.781045
26495		11.024723	-1.043756	-1.719654	0.017026	-0.028456	-0.037211	-136.678487	-70.682803	40.851016
26496		11.187550	-0.953607	-1.993386	-0.220616	0.029214	-0.035251	-136.805763	-70.710771	40.849517
26497		11.357951	-1.058589	-2.559377	-0.388298	0.051595	-0.045536	-137.017255	-70.751947	40.835415
26498		11.389352	-1.220758	-3.213419	-0.364365	0.082023	-0.085806	-137.229253	-70.821801	40.836415
26499		11.242005	-1.391583	-3.567650	-0.233364	0.120986	-0.152674	-137.405425	-70.933944	40.878819
26500		11.075750	-1.648870	-3.336690	-0.105149	0.134754	-0.212837	-137.566740	-71.075249	40.983290
