// General information: 
//  MT Manager version: 2022.2.0 
//  XDA version: 2022.2.0 build 7381 rev 124627 built on 2023-07-19
// Device information: 
//  DeviceId: 00B4BB52
//  ProductCode: MTW2-3A7G6
//  Firmware Version: 4.6.0
//  Hardware Version: 2.0.0
// Device settings: 
//  Filter Profile: human(46.1)
//  Option Flags: Orientation Smoother Disabled, Position/Velocity Smoother Disabled, Continuous Zero Rotation Update Disabled, AHS Disabled, ICC Disabled
// Coordinate system: ENU
PacketCounter	SampleTimeFine	Acc_X	Acc_Y	Acc_Z	Gyr_X	Gyr_Y	Gyr_Z	Roll	Pitch	Yaw
41280		-0.676635	-9.767408	0.814287	-0.010123	-0.004968	0.001777	-85.427776	3.932457	60.958703
41281		-0.670737	-9.748007	0.762725	-0.009081	-0.004017	-0.000586	-85.428655	3.930953	60.959529
41282		-0.669027	-9.768980	0.789257	-0.009809	0.002215	-0.002872	-85.430428	3.928354	60.955479
41283		-0.668990	-9.769049	0.788430	-0.007286	-0.004489	0.002312	-85.430251	3.928483	60.956708
41284		-0.676587	-9.767695	0.810879	-0.008580	-0.000833	0.001045	-85.430987	3.928002	60.955918
41285		-0.661784	-9.770557	0.763728	-0.006719	-0.001913	0.001293	-85.430589	3.927667	60.955625
41286		-0.685738	-9.745492	0.805334	-0.005267	-0.001977	0.000236	-85.429285	3.926689	60.956008
41287		-0.676800	-9.767844	0.808902	-0.008581	-0.000834	0.001046	-85.429997	3.926262	60.955086
41288		-0.685990	-9.745590	0.803938	-0.006877	-0.005507	0.003618	-85.429463	3.927015	60.958109
41289		-0.669598	-9.769329	0.784441	-0.004225	-0.001025	-0.002126	-85.427681	3.924767	60.957151
41290		-0.669478	-9.769389	0.783798	-0.008991	0.000182	-0.000259	-85.428681	3.923555	60.956055
41291		-0.678574	-9.747150	0.778688	-0.009057	0.000790	0.002391	-85.429725	3.923970	60.954265
41292		-0.683773	-9.780730	0.752584	-0.008265	-0.006052	0.002026	-85.430197	3.923900	60.954711
41293		-0.669876	-9.769574	0.781148	-0.011421	-0.001316	0.000513	-85.432519	3.923146	60.954040
41294		-0.669932	-9.769643	0.780230	-0.007698	-0.003476	0.001008	-85.432558	3.922640	60.954303
41295		-0.670011	-9.769688	0.779596	-0.005836	-0.004556	0.001255	-85.431551	3.922162	60.955521
41296		-0.670019	-9.769728	0.779094	-0.004701	0.000599	-0.000781	-85.429944	3.920752	60.954740
41297		-0.679086	-9.747460	0.774350	-0.006311	-0.002932	0.002600	-85.429268	3.921116	60.955091
41298		-0.677664	-9.768417	0.801224	-0.005269	-0.001979	0.000237	-85.427998	3.920056	60.956096
41299		-0.691510	-9.779690	0.771087	-0.008043	-0.003067	-0.002946	-85.428326	3.917246	60.956270
41300		-0.648443	-9.760106	0.782905	-0.008109	-0.002461	-0.000296	-85.428725	3.915969	60.955946
41301		-0.655963	-9.758794	0.805241	-0.010036	-0.000774	0.002107	-85.430270	3.916151	60.955038
41302		-0.656098	-9.758855	0.804389	-0.007699	-0.003478	0.001009	-85.430442	3.915688	60.953815
41303		-0.677633	-9.768732	0.797408	-0.006722	-0.001917	0.001296	-85.430046	3.915354	60.953524
41304		-0.670333	-9.770156	0.773439	-0.009152	-0.003416	0.002067	-85.430771	3.915458	60.954877
41305		-0.656430	-9.759000	0.802355	-0.003408	-0.003060	0.000484	-85.428434	3.914609	60.955204
41306		-0.677903	-9.768860	0.795600	-0.006154	0.000661	0.000279	-85.427577	3.913695	60.956190
41307		-0.669027	-9.791214	0.799152	-0.007291	-0.004496	0.002314	-85.427402	3.913824	60.957423
41308		-0.696159	-9.724326	0.785947	-0.005745	-0.000357	0.001584	-85.426419	3.913736	60.956538
41309		-0.656871	-9.759161	0.800031	-0.006723	-0.001918	0.001297	-85.426023	3.913402	60.956248
41310		-0.662002	-9.792702	0.774069	-0.006723	-0.001918	0.001297	-85.425693	3.913074	60.955090
41311		-0.678540	-9.769072	0.792447	-0.006723	-0.001918	0.001297	-85.425297	3.912741	60.954801
41312		-0.671132	-9.770489	0.768524	-0.008111	-0.002462	-0.000294	-85.425779	3.911470	60.953727
41313		-0.692687	-9.780340	0.761730	-0.002589	-0.005095	0.003093	-85.422884	3.912017	60.955339
41314		-0.671256	-9.770551	0.767620	-0.006091	0.000054	-0.002370	-85.422087	3.909644	60.954957
41315		-0.657477	-9.759407	0.796534	-0.006537	-0.005927	0.007573	-85.421408	3.912711	60.957250
41316		-0.686651	-9.767895	0.812878	-0.005681	-0.000963	-0.001065	-85.420467	3.910901	60.957905
41317		-0.671839	-9.770648	0.765876	-0.006314	-0.002937	0.002602	-85.419793	3.911266	60.958259
41318		-0.679454	-9.769323	0.788565	-0.004862	-0.002999	0.001543	-85.418348	3.911014	60.958083
41319		-0.688637	-9.747035	0.783904	-0.005336	-0.001376	0.002889	-85.417174	3.911615	60.957557
41320		-0.672451	-9.770732	0.764269	-0.007293	-0.004499	0.002315	-85.416915	3.911800	60.958802
41321		-0.659989	-9.738632	0.766036	-0.000504	-0.003184	-0.001633	-85.412915	3.909735	60.959102
41322		-0.666017	-9.758269	0.816230	-0.008242	-0.001253	0.005008	-85.413445	3.911203	60.961284
41323		-0.680319	-9.769457	0.786154	-0.003315	0.001141	0.000814	-85.411217	3.910734	60.959221
41324		-0.673099	-9.770833	0.762402	-0.007768	-0.002877	0.003662	-85.411350	3.911769	60.958971
41325		-0.659251	-9.759713	0.791295	-0.005272	-0.001982	0.000240	-85.410123	3.910828	60.958670
41326		-0.673339	-9.770902	0.761303	-0.004863	-0.003000	0.001544	-85.408561	3.910730	60.958064
41327		-0.689891	-9.747272	0.779847	-0.005747	-0.000359	0.001586	-85.407666	3.910633	60.956896
41328		-0.650517	-9.782134	0.793964	-0.004704	0.000597	-0.000777	-85.406051	3.909117	60.957604
41329		-0.681042	-9.769667	0.782919	-0.007200	-0.000298	0.002646	-85.405987	3.909628	60.956450
41330		-0.667153	-9.758558	0.811834	-0.005273	-0.001982	0.000240	-85.404888	3.908894	60.953159
41331		-0.690323	-9.747406	0.777786	-0.002496	-0.000896	0.003422	-85.402104	3.909821	60.952382
41332		-0.652760	-9.761265	0.764654	-0.005338	-0.001378	0.002891	-85.400990	3.910612	60.949599
41333		-0.658890	-9.780936	0.814694	-0.006317	-0.002940	0.002603	-85.400317	3.910978	60.949955
41334		-0.660684	-9.759990	0.786669	-0.007201	-0.000299	0.002647	-85.400013	3.911516	60.950260
41335		-0.682425	-9.769839	0.779554	-0.009633	-0.001800	0.003419	-85.401282	3.912400	60.950001
41336		-0.659749	-9.781069	0.812392	-0.007770	-0.002880	0.003663	-85.401411	3.913291	60.951166
41337		-0.676317	-9.757466	0.830743	-0.007137	-0.000903	-0.000003	-85.401295	3.912261	60.950236
41338		-0.690329	-9.768663	0.800438	-0.009000	0.000176	-0.000247	-85.402129	3.911448	60.947237
41339		-0.652699	-9.782565	0.786830	-0.008245	-0.001259	0.005011	-85.402618	3.913266	60.946741
41340		-0.662051	-9.760271	0.782028	-0.005339	-0.001380	0.002892	-85.401414	3.913724	60.947677
41341		-0.646716	-9.770183	0.838265	-0.008181	-0.001862	0.002360	-85.401852	3.914000	60.947404
41342		-0.674931	-9.792480	0.778408	-0.008591	-0.000844	0.001057	-85.402544	3.913649	60.945801
41343		-0.670112	-9.759082	0.803046	-0.006793	-0.001320	0.003952	-85.402203	3.914859	60.945291
41344		-0.670329	-9.759124	0.802364	-0.007042	0.003298	0.000330	-85.402175	3.914227	60.941929
41345		-0.670577	-9.759172	0.801569	-0.009226	-0.002822	0.004724	-85.403166	3.915809	60.942315
41346		-0.684936	-9.770326	0.771208	-0.008182	-0.001863	0.002361	-85.403641	3.916095	60.941510
41347		-0.649531	-9.749485	0.806261	-0.008118	-0.002466	-0.000290	-85.404028	3.914831	60.941461
41348		-0.671144	-9.759332	0.799145	-0.008657	-0.000243	0.003709	-85.404674	3.915871	60.941790
41349		-0.656480	-9.761997	0.752030	-0.005276	-0.001984	0.000241	-85.403449	3.914932	60.941489
41350		-0.671388	-9.759417	0.797900	-0.006730	-0.001924	0.001301	-85.403047	3.914730	60.939957
41351		-0.662448	-9.781801	0.801315	-0.008119	-0.002467	-0.000289	-85.403434	3.913466	60.939909
41352		-0.671476	-9.759544	0.796272	-0.011026	-0.002348	0.001831	-85.405793	3.913325	60.938162
41353		-0.671684	-9.759601	0.795391	-0.007204	-0.000304	0.002650	-85.405731	3.913839	60.937011
41354		-0.671801	-9.759658	0.794600	-0.009003	0.000173	-0.000243	-85.406547	3.912771	60.936093
41355		-0.672032	-9.759690	0.794003	-0.003638	-0.006063	0.005453	-85.404208	3.914621	60.938368
41356		-0.684912	-9.791815	0.791345	-0.006224	0.001257	0.002939	-85.403578	3.915442	60.935977
41357		-0.672758	-9.759730	0.792903	-0.006795	-0.001324	0.003954	-85.403238	3.916653	60.935470
41358		-0.650097	-9.771024	0.825758	-0.009639	-0.001807	0.003424	-85.404426	3.917618	60.934886
41359		-0.673314	-9.759827	0.791231	-0.008595	-0.000847	0.001060	-85.405145	3.917199	60.933973
41360		-0.673459	-9.759870	0.790577	-0.004771	0.001197	0.001879	-85.403943	3.917429	60.929457
41361		-0.644894	-9.751418	0.772989	-0.009230	-0.002828	0.004727	-85.404937	3.919013	60.929846
41362		-0.666551	-9.761247	0.765847	-0.008122	-0.002468	-0.000288	-85.405692	3.917699	60.927442
41363		-0.688905	-9.757440	0.834685	-0.009069	0.000773	0.002410	-85.406742	3.918125	60.925663
41364		-0.674348	-9.760071	0.787328	-0.009640	-0.001809	0.003425	-85.407894	3.918696	60.929525
41365		-0.658233	-9.783742	0.767346	-0.008187	-0.001868	0.002364	-85.408335	3.918974	60.929256
41366		-0.683717	-9.737845	0.781521	-0.009577	-0.002410	0.000773	-85.409986	3.918699	60.922136
41367		-0.665944	-9.782572	0.788903	-0.007207	-0.000307	0.002653	-85.409926	3.919214	60.920986
41368		-0.682679	-9.759007	0.807095	-0.011979	0.000888	0.004534	-85.412583	3.920759	60.920718
41369		-0.659075	-9.783974	0.763665	-0.009987	-0.001390	-0.000528	-85.414084	3.919408	60.920042
41370		-0.691912	-9.736811	0.801061	-0.008188	-0.001870	0.002365	-85.414693	3.919777	60.917502
41371		-0.682992	-9.759218	0.804283	-0.010085	-0.005593	-0.000864	-85.416087	3.918042	60.919216
41372		-0.652437	-9.771867	0.813843	-0.007553	0.000113	-0.001300	-85.416115	3.916125	60.920177
41373		-0.682791	-9.759368	0.802632	-0.009008	0.000170	-0.000239	-85.417114	3.915010	60.918620
41374		-0.689398	-9.771730	0.749126	-0.006261	-0.003549	-0.000046	-85.416298	3.913732	60.920773
41375		-0.653764	-9.750998	0.784244	-0.009515	-0.003012	-0.001877	-85.417470	3.911536	60.920963
41376		-0.667493	-9.762098	0.754088	-0.003191	-0.000061	-0.004483	-85.414830	3.908027	60.920838
41377		-0.653443	-9.751117	0.783038	-0.009234	-0.002836	0.004729	-85.415826	3.909612	60.921231
41378		-0.682413	-9.759671	0.799258	-0.005217	-0.002586	-0.002409	-85.414784	3.907085	60.919714
41379		-0.675044	-9.760997	0.775164	-0.013060	-0.004882	0.003912	-85.417896	3.908110	60.921241
41380		-0.644723	-9.773645	0.784563	-0.007555	0.000111	-0.001298	-85.417846	3.906639	60.918299
41381		-0.661085	-9.750114	0.802938	-0.008600	-0.000853	0.001065	-85.418568	3.906222	60.917388
41382		-0.660309	-9.763691	0.726240	-0.005691	-0.000967	-0.001058	-85.417402	3.904760	60.915844
41383		-0.644703	-9.773813	0.782486	-0.006736	-0.001931	0.001305	-85.417012	3.904431	60.915562
41384		-0.682701	-9.760038	0.794518	-0.010055	-0.000796	0.002128	-85.418780	3.904464	60.914494
41385		-0.659778	-9.771434	0.827297	-0.007146	-0.000911	0.000004	-85.418670	3.903438	60.913568
41386		-0.673700	-9.782519	0.796909	-0.009830	0.002210	-0.002838	-85.420026	3.900983	60.911233
41387		-0.668588	-9.749246	0.821526	-0.008191	-0.001876	0.002368	-85.420470	3.901263	60.910968
41388		-0.666353	-9.783891	0.772014	-0.008128	-0.002473	-0.000285	-85.420807	3.900133	60.909822
41389		-0.653897	-9.751845	0.773525	-0.007620	0.000707	0.001356	-85.421026	3.899953	60.908032
41390		-0.666584	-9.783989	0.770575	-0.006327	-0.002955	0.002607	-85.420630	3.900019	60.909607
41391		-0.666781	-9.784041	0.769743	-0.011038	-0.002361	0.001840	-85.422688	3.899976	60.909595
41392		-0.683422	-9.760510	0.788067	-0.006801	-0.001337	0.003959	-85.422133	3.900978	60.912498
41393		-0.654746	-9.752014	0.770681	-0.003418	-0.003068	0.000483	-85.419800	3.900128	60.912829
41394		-0.654747	-9.752061	0.770084	-0.009012	0.000166	-0.000233	-85.420752	3.898980	60.911779
41395		-0.683851	-9.760635	0.786148	-0.008257	-0.001281	0.005022	-85.421248	3.900803	60.911295
41396		-0.655304	-9.752155	0.768412	-0.009175	-0.003440	0.002080	-85.422166	3.900805	60.912319
41397		-0.675519	-9.783085	0.788377	-0.011104	-0.001766	0.004494	-85.424276	3.902304	60.912089
41398		-0.654364	-9.773397	0.793681	-0.010059	-0.000801	0.002131	-85.425866	3.902240	60.913118
41399		-0.677728	-9.762066	0.759199	-0.008258	-0.001283	0.005023	-85.426363	3.904063	60.912635
41400		-0.662439	-9.772272	0.815188	-0.009176	-0.003442	0.002080	-85.427297	3.904028	60.914044
41401		-0.671613	-9.749971	0.810373	-0.007213	-0.000317	0.002660	-85.427240	3.904546	60.912900
41402		-0.648056	-9.774815	0.767052	-0.011042	-0.002364	0.001843	-85.429308	3.904568	60.911963
41403		-0.663122	-9.772423	0.812814	-0.003384	0.001729	0.003478	-85.427134	3.905646	60.909685
41404		-0.687890	-9.739922	0.751392	-0.008704	-0.005060	0.000729	-85.427671	3.904872	60.911380
41405		-0.664859	-9.751384	0.784184	-0.008132	-0.002476	-0.000282	-85.428065	3.903612	60.911337
41406		-0.648525	-9.775010	0.764164	-0.008605	-0.000858	0.001071	-85.428602	3.903462	60.909288
41407		-0.672371	-9.750296	0.805831	-0.007723	-0.003499	0.001019	-85.428718	3.902897	60.909890
41408		-0.656112	-9.773899	0.786019	-0.004875	-0.003015	0.001546	-85.427083	3.902730	60.910420
41409		-0.686720	-9.761314	0.775145	-0.006331	-0.002959	0.002609	-85.426418	3.903099	60.910786
41410		-0.656622	-9.773955	0.784895	-0.006494	-0.006568	0.004921	-85.425532	3.904686	60.913791
41411		-0.658517	-9.752820	0.757151	-0.004466	-0.004038	0.002847	-85.423755	3.905141	60.914786
41412		-0.695254	-9.760177	0.796543	-0.011171	-0.001178	0.007152	-85.425715	3.908341	60.914498
41413		-0.679365	-9.783771	0.776472	-0.006332	-0.002960	0.002610	-85.425049	3.908710	60.914865
41414		-0.679577	-9.783807	0.775830	-0.007315	-0.004523	0.002320	-85.424666	3.908963	60.916666
41415		-0.645736	-9.742019	0.783925	-0.004877	-0.003016	0.001547	-85.423167	3.908723	60.917016
41416		-0.665755	-9.772954	0.804235	-0.007725	-0.003500	0.001020	-85.423171	3.908270	60.917337
41417		-0.667292	-9.751852	0.776254	-0.008235	-0.006681	-0.000622	-85.423461	3.906623	60.919686
41418		-0.658420	-9.774257	0.779614	-0.005350	-0.001399	0.002901	-85.422579	3.907329	60.915830
41419		-0.696368	-9.760462	0.792069	-0.004405	-0.004633	0.000194	-85.420752	3.906242	60.917043
41420		-0.653373	-9.741062	0.804052	-0.010001	-0.001400	-0.000516	-85.422055	3.904953	60.917104
41421		-0.672582	-9.785330	0.748009	-0.008709	-0.005064	0.000731	-85.422676	3.904153	60.918589
41422		-0.653377	-9.741190	0.802503	-0.005287	-0.001993	0.000248	-85.421692	3.902961	60.918774
41423		-0.666028	-9.773336	0.799355	-0.011621	-0.004956	0.002859	-85.423979	3.903381	60.920295
41424		-0.696512	-9.760800	0.787771	-0.014716	-0.000808	-0.001276	-85.428128	3.901769	60.918369
41425		-0.658677	-9.774716	0.773608	-0.011150	-0.006575	0.001506	-85.430086	3.901343	60.920755
41426		-0.658674	-9.774800	0.772557	-0.010986	-0.002965	-0.000803	-85.432009	3.899701	60.921974
41427		-0.653549	-9.741618	0.797151	-0.010167	-0.005013	0.001797	-85.433463	3.899512	60.923479
41428		-0.680270	-9.784668	0.764274	-0.009594	-0.002427	0.000787	-85.434722	3.898982	60.921963
41429		-0.666273	-9.773816	0.793255	-0.003013	-0.004096	0.001784	-85.432113	3.898827	60.922943
41430		-0.675304	-9.751498	0.788651	-0.010578	-0.003990	0.000498	-85.433810	3.898097	60.922399
41431		-0.667960	-9.752739	0.764446	-0.009595	-0.002427	0.000788	-85.435041	3.897450	60.922377
41432		-0.680428	-9.784912	0.761003	-0.012956	-0.006093	-0.001381	-85.438187	3.895509	60.922227
41433		-0.682578	-9.750589	0.808852	-0.008038	0.001722	0.000069	-85.438689	3.894641	60.919797
41434		-0.687674	-9.783909	0.782359	-0.010107	-0.005608	-0.000856	-85.439922	3.892929	60.922276
41435		-0.666091	-9.774282	0.787640	-0.011872	-0.000327	-0.000745	-85.442544	3.891502	60.920982
41436		-0.667695	-9.753152	0.759385	-0.010170	-0.005017	0.001798	-85.443831	3.891427	60.922303
41437		-0.667654	-9.753235	0.758357	-0.011401	-0.001944	-0.002099	-85.446124	3.889154	60.921873
41438		-0.651845	-9.763691	0.813940	-0.013431	-0.004480	-0.000025	-85.449642	3.887932	60.921964
41439		-0.665866	-9.774671	0.782999	-0.014724	-0.000816	-0.001267	-85.453881	3.886185	60.920926
41440		-0.674801	-9.752422	0.777578	-0.015771	-0.001789	0.001097	-85.458679	3.885682	60.920926
41441		-0.672933	-9.773798	0.803197	-0.016468	-0.000922	-0.006808	-85.463930	3.880765	60.919697
41442		-0.641648	-9.799725	0.735638	-0.019670	-0.003251	0.002938	-85.471025	3.881153	60.920842
41443		-0.681497	-9.751738	0.795808	-0.015486	0.000640	-0.006516	-85.475772	3.876473	60.918734
41444		-0.678647	-9.786250	0.745233	-0.018237	0.004356	-0.006691	-85.482171	3.871974	60.913597
41445		-0.656699	-9.776686	0.750046	-0.012698	0.001716	-0.003337	-85.485352	3.869158	60.911017
41446		-0.620861	-9.756254	0.784761	-0.012289	0.000690	-0.002038	-85.488101	3.866898	60.911468
41447		-0.649722	-9.764938	0.800567	-0.010073	-0.000822	0.002148	-85.489664	3.867100	60.910589
41448		-0.651566	-9.743740	0.772452	-0.009663	-0.001847	0.003446	-85.490923	3.867825	60.912000
41449		-0.659044	-9.742729	0.794373	-0.017481	0.002892	-0.001437	-85.496884	3.866147	60.908833
41450		-0.669334	-9.809230	0.741455	-0.013911	-0.002875	0.001334	-85.500579	3.865911	60.907723
41451		-0.671724	-9.775030	0.789090	-0.012825	0.002892	0.001976	-85.503862	3.866182	60.904710
41452		-0.671885	-9.775144	0.787541	-0.018530	0.001915	0.000929	-85.510678	3.865880	60.899252
41453		-0.673459	-9.754007	0.758621	-0.017485	0.002889	-0.001433	-85.516641	3.864203	60.896088
41454		-0.664429	-9.776535	0.760622	-0.020811	0.004014	-0.000599	-85.524383	3.863299	60.890659
41455		-0.680606	-9.753235	0.778030	-0.018207	0.009141	-0.003675	-85.531007	3.860620	60.883815
41456		-0.666269	-9.742657	0.805285	-0.029372	0.002544	-0.002168	-85.543829	3.858317	60.882410
41457		-0.669372	-9.797401	0.803567	-0.033196	0.012948	-0.008529	-85.559202	3.853031	60.873171
41458		-0.679243	-9.754057	0.768865	-0.040839	0.013626	-0.007148	-85.579025	3.848352	60.865052
41459		-0.643063	-9.733998	0.800429	-0.048321	0.017916	-0.008066	-85.603251	3.843543	60.852994
41460		-0.626351	-9.757884	0.775653	-0.059936	0.017702	-0.002187	-85.634150	3.842119	60.840299
41461		-0.616948	-9.793491	0.697401	-0.059564	0.022034	0.004787	-85.664938	3.844820	60.826447
41462		-0.634915	-9.757740	0.786936	-0.060689	0.021623	0.009814	-85.696400	3.850288	60.813232
41463		-0.614901	-9.748461	0.787172	-0.063176	0.025457	0.016269	-85.729360	3.859680	60.797910
41464		-0.596097	-9.840256	0.663684	-0.052783	0.031207	0.023755	-85.756304	3.873625	60.780693
41465		-0.651578	-9.824729	0.718508	-0.037694	0.031594	0.028974	-85.774873	3.890523	60.762385
41466		-0.626689	-9.816027	0.698368	-0.027038	0.025009	0.048585	-85.786988	3.918178	60.750299
41467		-0.641995	-9.793301	0.693264	0.001751	-0.002595	0.080017	-85.781481	3.962795	60.753722
41468		-0.177064	-10.670533	0.039469	0.040841	-0.047396	0.207526	-85.751472	4.078650	60.784904
41469		-0.647681	-10.216981	0.302596	0.216943	-0.074042	0.332599	-85.618878	4.264490	60.840251
41470		-0.156364	-10.101914	0.699192	0.314259	-0.151035	0.484268	-85.426397	4.533346	60.946800
41471		0.879016	-10.638720	0.689302	0.175340	-0.081119	0.769977	-85.314976	4.968336	61.027563
41472		-0.756220	-9.814630	1.054059	0.373984	0.041780	0.892646	-85.095000	5.478667	61.046424
41473		-0.589964	-11.031334	0.604769	0.232649	-0.033805	1.072199	-84.950226	6.088019	61.117932
41474		0.225249	-13.905659	0.414227	0.258251	-0.052168	1.273996	-84.787656	6.811409	61.210362
41475		0.059207	-13.257390	0.252776	0.612934	0.065328	1.534171	-84.426612	7.689084	61.254606
41476		-1.195440	-11.713049	1.120801	0.449276	-0.038753	1.846192	-84.145754	8.738568	61.384191
41477		-1.286964	-11.110817	1.099750	0.282810	-0.178062	2.136989	-83.942089	9.944827	61.614294
41478		-0.217433	-12.247420	0.019609	0.292439	-0.240385	2.274400	-83.716681	11.225242	61.897740
41479		-0.695845	-12.372146	0.147115	0.364690	-0.220319	2.384228	-83.445157	12.567690	62.180499
41480		-2.394413	-9.865424	1.076849	0.403919	-0.256097	2.495268	-83.132279	13.969846	62.506826
41481		-3.028660	-12.598081	0.670709	-0.330416	-0.502370	2.377081	-83.200822	15.286968	62.968132
41482		-0.772887	-16.440470	0.462872	-0.279485	-0.549469	1.734223	-83.235003	16.235286	63.414893
41483		0.935675	-18.323180	-0.072927	-0.059598	-0.503754	0.940419	-83.161620	16.735204	63.778782
41484		0.828942	-15.130389	0.511831	0.389443	-0.383134	0.412128	-82.860155	16.941647	64.034841
41485		0.069760	-10.706739	0.624481	0.656047	-0.319766	0.283355	-82.418505	17.078273	64.245049
41486		-0.377421	-7.924616	0.549871	0.545953	-0.343543	0.412342	-82.031873	17.284416	64.480980
41487		-0.153941	-7.724343	0.615938	0.244432	-0.401646	0.569563	-81.802091	17.574256	64.766304
41488		0.594050	-9.221982	0.615970	0.092522	-0.422105	0.578156	-81.653775	17.865921	65.065904
41489		1.264153	-10.253418	0.638954	0.120227	-0.399560	0.449717	-81.495382	18.086379	65.342094
41490		1.813129	-10.061774	0.605628	0.258295	-0.328580	0.251592	-81.275759	18.199262	65.558972
41491		1.936444	-8.795943	0.465120	0.310540	-0.247018	0.085416	-81.045574	18.224996	65.712521
41492		1.972049	-7.924355	0.414471	0.215705	-0.162922	-0.027129	-80.888930	18.193434	65.805244
41493		2.207323	-8.110103	0.461059	0.124006	-0.071875	-0.132245	-80.804731	18.111209	65.833749
41494		2.114134	-7.769693	0.460948	0.106776	0.048161	-0.257549	-80.756612	17.968303	65.778454
41495		1.914121	-7.410386	0.375909	-0.029638	0.117005	-0.362415	-80.801878	17.773213	65.672371
41496		1.986022	-7.920448	0.399267	-0.106380	0.180774	-0.479824	-80.905750	17.516471	65.517405
41497		2.114353	-7.908965	0.339772	-0.096894	0.260525	-0.581355	-81.019925	17.210088	65.306543
41498		2.214968	-7.701102	0.267166	-0.079479	0.343524	-0.666085	-81.139667	16.861680	65.039471
41499		2.217036	-7.335522	0.170967	-0.094715	0.421202	-0.753123	-81.281260	16.471237	64.720109
41500		2.126642	-7.300784	0.131251	-0.159839	0.464102	-0.842027	-81.467050	16.032102	64.369077
41501		2.039548	-7.471491	0.195423	-0.235477	0.490585	-0.953277	-81.699312	15.532050	63.995484
41502		1.988760	-7.843291	0.240020	-0.299575	0.502972	-1.087889	-81.969270	14.953838	63.606248
41503		1.855675	-8.007614	0.270158	-0.328143	0.506923	-1.222518	-82.253578	14.298973	63.208015
41504		1.644912	-7.935637	0.311485	-0.353918	0.495606	-1.339976	-82.547817	13.573249	62.811600
41505		1.429478	-7.902138	0.324178	-0.378186	0.476251	-1.432312	-82.848417	12.793010	62.424963
41506		1.208645	-8.008140	0.320600	-0.401385	0.440861	-1.500522	-83.152798	11.968088	62.059235
41507		1.002331	-8.265305	0.356215	-0.422180	0.398368	-1.565093	-83.458333	11.103141	61.719673
41508		0.851333	-8.587259	0.301109	-0.451506	0.346233	-1.650116	-83.770158	10.183160	61.410316
41509		0.795336	-8.859368	0.281177	-0.502833	0.300155	-1.751283	-84.101567	9.202580	61.127802
41510		0.706800	-9.113739	0.311876	-0.550711	0.255857	-1.847371	-84.451764	8.161469	60.871726
41511		0.562125	-9.341409	0.360102	-0.582383	0.220589	-1.928912	-84.812037	7.071985	60.638991
41512		0.477469	-9.595473	0.366186	-0.603046	0.194325	-1.983901	-85.177741	5.946733	60.425826
41513		0.355637	-9.873577	0.376513	-0.620383	0.176784	-2.001195	-85.547309	4.811088	60.229860
41514		0.182229	-10.329640	0.469928	-0.633798	0.170402	-2.004962	-85.920158	3.670114	60.044848
41515		-0.045170	-11.165233	0.617924	-0.659425	0.156599	-2.027170	-86.302898	2.516383	59.874889
41516		-0.302299	-12.341947	0.758595	-0.681157	0.139423	-2.116005	-86.694398	1.308445	59.719365
41517		-0.484800	-13.307570	0.935359	-0.671719	0.123379	-2.304741	-87.076645	-0.007309	59.575609
41518		-0.716494	-13.691684	1.096157	-0.617792	0.112782	-2.515530	-87.424936	-1.446554	59.440289
41519		-0.978775	-13.171251	1.209034	-0.552296	0.111869	-2.658843	-87.732126	-2.966935	59.310389
41520		-1.272618	-12.542269	1.154369	-0.497184	0.112874	-2.703106	-88.004919	-4.514915	59.186290
41521		-1.548468	-12.182473	0.986401	-0.450400	0.105457	-2.653315	-88.248435	-6.033423	59.074337
41522		-1.831522	-11.982238	0.772967	-0.402097	0.105638	-2.534790	-88.462526	-7.486052	58.969853
41523		-1.878416	-11.973408	0.613217	-0.383165	0.095925	-2.385244	-88.664801	-8.851958	58.878339
41524		-1.875847	-12.028256	0.549729	-0.384699	0.112614	-2.224934	-88.865578	-10.127617	58.783515
41525		-1.930811	-11.952209	0.561570	-0.412987	0.152809	-2.065669	-89.077088	-11.310475	58.671395
41526		-2.122376	-11.937534	0.554107	-0.389151	0.207083	-1.886438	-89.267546	-12.391950	58.532674
41527		-2.306959	-11.522030	0.610398	-0.342723	0.273632	-1.668576	-89.421017	-13.347206	58.359237
41528		-2.626055	-11.107822	0.794757	-0.323854	0.338997	-1.458149	-89.552752	-14.183223	58.150038
41529		-2.872593	-11.034599	0.939810	-0.363329	0.378191	-1.318798	-89.698738	-14.938504	57.919655
41530		-2.807834	-11.199988	0.920473	-0.382228	0.417773	-1.306135	-89.846910	-15.688102	57.666887
41531		-2.678197	-11.067601	0.787857	-0.307225	0.443270	-1.326223	-89.944726	-16.448613	57.399734
41532		-2.924723	-10.601845	0.697491	-0.171364	0.443843	-1.294085	-89.961305	-17.191903	57.131923
41533		-3.194133	-9.680993	0.594640	-0.023985	0.396276	-1.173986	-89.898376	-17.865374	56.891528
41534		-3.446994	-8.471128	0.547273	0.068785	0.287789	-0.989585	-89.799818	-18.433805	56.714932
41535		-3.692319	-7.546600	0.548964	0.029806	0.131770	-0.756856	-89.751957	-18.868254	56.632019
41536		-3.435074	-7.264840	0.543151	-0.092242	-0.045219	-0.503103	-89.808711	-19.158321	56.656763
41537		-2.907500	-7.553005	0.505032	-0.179977	-0.195393	-0.274508	-89.946038	-19.316945	56.773537
41538		-2.108065	-8.051137	0.575186	-0.202411	-0.298658	-0.084647	-90.117424	-19.366919	56.953449
41539		-1.238356	-8.545572	0.564456	-0.158067	-0.359039	0.040016	-90.275482	-19.344397	57.169965
41540		-0.539674	-9.035143	0.497103	-0.071963	-0.367766	0.089163	-90.385806	-19.293552	57.391483
41541		0.038197	-9.195224	0.428873	0.038570	-0.335203	0.070612	-90.426021	-19.252851	57.593202
41542		0.423403	-8.968534	0.322394	0.151802	-0.256680	0.039201	-90.385639	-19.230719	57.747355
41543		0.389311	-8.443402	0.138700	0.246385	-0.141094	0.051350	-90.267850	-19.201951	57.831353
41544		0.114949	-7.867173	0.020055	0.282859	-0.008739	0.119184	-90.102757	-19.134943	57.834979
41545		-0.274912	-7.347869	0.008748	0.257278	0.148444	0.224483	-89.921196	-19.007448	57.743521
41546		-0.546877	-7.144526	0.027976	0.185038	0.308737	0.361152	-89.750114	-18.801233	57.555737
41547		1.042376	-8.045867	0.875660	0.081447	0.444284	0.530654	-89.613380	-18.496879	57.287420
41548		7.070114	-16.648463	-5.637219	0.497515	0.364100	1.911933	-89.259554	-17.400570	57.078043
41549		7.519195	-5.563219	-0.913833	0.621978	0.385073	1.891784	-88.837100	-16.314226	56.864912
41550		3.653287	-4.762658	0.325969	2.135869	0.596324	2.254028	-87.524487	-15.013805	56.551432
41551		3.112165	-6.791182	0.418262	0.856944	0.621965	2.553139	-86.956190	-13.536544	56.255372
41552		1.590115	-8.267700	1.361283	0.380761	0.820858	2.573225	-86.645634	-12.039473	55.856795
41553		-0.100570	-11.709258	1.483397	0.459015	0.777866	2.528759	-86.306951	-10.566965	55.492523
41554		-0.090011	-11.053572	2.380226	0.823575	0.587358	2.403627	-85.788735	-9.171047	55.246662
41555		-0.018154	-9.775946	2.897022	0.657490	0.461882	2.307333	-85.383286	-7.833596	55.081298
41556		-0.025901	-11.654225	3.410518	0.453123	0.346745	2.317173	-85.108190	-6.495165	54.991199
41557		-0.478204	-14.044859	0.455463	0.668990	0.188478	2.371064	-84.721761	-5.133405	55.002650
41558		0.145279	-11.497656	0.689877	0.407961	0.253611	2.168282	-84.481452	-3.883956	54.973312
41559		-0.983989	-12.122972	1.552140	0.299633	0.446428	1.900777	-84.296801	-2.776068	54.823521
41560		-1.304891	-12.405646	1.900932	0.360949	0.395658	1.786494	-84.080878	-1.735791	54.700070
41561		-1.676448	-11.367093	2.818133	0.256422	0.309536	1.583612	-83.927838	-0.815845	54.616976
41562		-1.979502	-11.555233	2.647847	0.004464	0.215737	1.358368	-83.920689	-0.029787	54.574966
41563		-1.315457	-12.228154	2.199957	-0.106794	0.082088	1.164594	-83.977494	0.637760	54.597064
41564		-1.582746	-13.253255	0.267548	0.105912	-0.044699	0.810873	-83.911393	1.096166	54.670080
41565		-1.303171	-11.256411	0.789810	0.145596	-0.016122	0.492020	-83.822889	1.374517	54.707920
41566		-0.690276	-9.856777	1.388175	0.149678	0.022844	0.379381	-83.732605	1.591168	54.717008
41567		-1.037760	-10.124702	1.727674	-0.026339	-0.039713	0.328396	-83.742204	1.774768	54.758697
41568		-0.721100	-9.241298	1.819395	-0.074998	-0.092315	0.230258	-83.778772	1.899326	54.824185
41569		-0.034643	-10.748705	-0.007947	-0.191033	-0.049339	0.206048	-83.882616	2.012707	54.863529
41570		-0.773405	-9.403670	1.614698	-0.002661	-0.013954	0.163620	-83.879249	2.104226	54.880022
41571		-0.786027	-10.161224	1.068352	-0.117264	-0.050828	0.105394	-83.940907	2.160226	54.913940
41572		-0.522600	-10.036795	0.873383	-0.124262	-0.050899	0.060823	-84.006612	2.190987	54.945164
41573		-0.464092	-9.733104	1.114399	-0.041247	-0.025373	0.036434	-84.025394	2.209274	54.960342
41574		-0.421131	-9.815355	1.025901	-0.097343	-0.034130	0.034730	-84.076085	2.226207	54.980413
41575		-0.392111	-9.752344	1.000365	-0.089150	-0.028840	0.030616	-84.122242	2.240996	54.997199
41576		-0.457560	-9.839403	0.969236	-0.093509	-0.022093	0.022539	-84.171025	2.251718	55.009663
41577		-0.389041	-9.605802	1.137108	-0.093131	-0.030902	0.019125	-84.219437	2.259866	55.026934
41578		-0.351433	-9.619601	1.117714	-0.125701	-0.035026	0.024550	-84.286363	2.271016	55.046873
41579		-0.400944	-9.776978	0.986306	-0.149230	-0.035490	0.035019	-84.366772	2.288005	55.067645
41580		-0.335868	-9.794351	0.896393	-0.132144	-0.041241	0.035653	-84.437210	2.305190	55.091722
41581		-0.347624	-9.760559	0.931975	-0.123966	-0.046409	0.048733	-84.502849	2.329450	55.119441
41582		-0.449980	-9.936683	0.808618	-0.094285	-0.046046	0.051443	-84.551431	2.355429	55.147088
41583		-0.355994	-9.740978	0.887005	-0.052942	-0.049164	0.044546	-84.576299	2.377196	55.176115
41584		-0.316113	-9.653154	0.950141	-0.044633	-0.050851	0.055362	-84.596289	2.405179	55.206692
41585		-0.499436	-9.675993	1.055782	-0.069717	-0.051791	0.053717	-84.630658	2.432062	55.237694
41586		-0.482071	-9.835009	0.905783	-0.087882	-0.048177	0.039707	-84.675501	2.451292	55.265875
41587		-0.459368	-9.724574	0.983351	-0.074171	-0.037973	0.030749	-84.712793	2.465847	55.287731
41588		-0.392920	-9.728715	0.950958	-0.111537	-0.041658	0.035329	-84.771344	2.482967	55.311931
41589		-0.382360	-9.832057	0.818684	-0.098291	-0.041268	0.035678	-84.822351	2.500202	55.335901
41590		-0.376129	-9.833586	0.788447	-0.062830	-0.036380	0.037387	-84.853109	2.518808	55.357164
41591		-0.384368	-9.753626	0.910248	-0.050794	-0.036057	0.049206	-84.876987	2.544059	55.378831
41592		-0.460399	-9.783875	0.903254	-0.050964	-0.035246	0.058438	-84.900911	2.574753	55.400507
41593		-0.655867	-9.998285	0.774614	-0.045404	-0.046566	0.041416	-84.921428	2.595042	55.427762
41594		-0.496628	-9.751320	0.855403	-0.019014	-0.027405	0.012554	-84.927342	2.599964	55.442612
41595		-0.476881	-9.762199	0.889925	-0.004072	-0.027844	0.002640	-84.924746	2.599078	55.457199
41596		-0.469858	-9.838882	0.895739	-0.007354	-0.015736	-0.000675	-84.924311	2.597042	55.464711
41597		-0.426018	-9.742641	0.883224	0.002640	-0.018324	-0.000114	-84.918123	2.595066	55.473720
41598		-0.400368	-9.821171	0.845292	0.011681	-0.018138	0.007087	-84.906701	2.597336	55.482999
41599		-0.459323	-9.785129	0.873568	0.009439	-0.023263	0.020448	-84.896440	2.606840	55.495877
41600		-0.480107	-9.782973	0.919442	0.006869	-0.016588	0.021931	-84.887780	2.617657	55.505029
41601		-0.479710	-9.749554	0.944639	-0.021238	-0.002494	0.012183	-84.895653	2.623501	55.505621
41602		-0.443805	-9.796016	0.906002	-0.046134	-0.003776	0.014554	-84.917710	2.630763	55.507076
41603		-0.488274	-9.829176	0.831796	-0.049313	-0.003099	0.019189	-84.941637	2.640576	55.508365
41604		-0.413777	-9.867328	0.754781	-0.048697	-0.004464	0.024419	-84.965121	2.653434	55.510704
41605		-0.446253	-9.876823	0.765228	-0.029780	-0.003017	0.026021	-84.977843	2.667152	55.512283
41606		-0.437683	-9.865680	0.793437	-0.020776	-0.003060	0.026641	-84.985363	2.681349	55.513926
41607		-0.451462	-9.855711	0.733839	-0.013068	-0.011014	0.033976	-84.988276	2.699207	55.520469
41608		-0.483104	-9.852699	0.801021	0.005428	-0.016162	0.036072	-84.980409	2.718130	55.530072
41609		-0.514417	-9.828408	0.841901	0.006008	-0.017741	0.034719	-84.972203	2.736074	55.540499
41610		-0.485258	-9.785602	0.854030	0.002651	-0.020977	0.028412	-84.965809	2.750381	55.552473
41611		-0.417851	-9.902157	0.678300	0.027705	-0.023377	0.038762	-84.945000	2.770344	55.566332
41612		-0.462184	-9.775477	0.845953	0.065003	-0.030609	0.044668	-84.902568	2.793431	55.584647
41613		-0.464618	-9.741263	0.878957	0.077704	-0.036012	0.054694	-84.852705	2.821821	55.606569
41614		-0.502013	-9.782924	0.874770	0.068378	-0.038879	0.058971	-84.808050	2.852611	55.630386
41615		-0.484984	-9.759464	0.943410	0.078260	-0.037444	0.059966	-84.757788	2.883899	55.653450
41616		-0.534144	-9.656447	1.006884	0.063948	-0.035310	0.059777	-84.715742	2.915298	55.675322
41617		-0.484216	-9.725414	0.958561	0.030340	-0.033568	0.056704	-84.693032	2.944897	55.696042
41618		-0.482609	-9.780447	0.940871	0.033244	-0.029594	0.055142	-84.668733	2.973935	55.714434
41619		-0.529040	-9.779188	0.900251	0.023293	-0.026757	0.061188	-84.650228	3.006440	55.731527
41620		-0.516677	-9.823010	0.912259	0.021504	-0.022252	0.058671	-84.632844	3.037870	55.745934
41621		-0.593243	-9.830762	0.885676	0.026306	-0.019309	0.057401	-84.612830	3.068603	55.758591
41622		-0.575815	-9.807641	0.949329	0.021778	-0.019386	0.053811	-84.595376	3.097407	55.771121
41623		-0.560186	-9.797096	0.958578	0.000398	-0.018131	0.053298	-84.590241	3.125857	55.782900
41624		-0.531315	-9.877008	0.896956	-0.013208	-0.021387	0.057921	-84.592744	3.156895	55.796802
41625		-0.582909	-9.942896	0.800986	-0.009088	-0.008688	0.058830	-84.593313	3.189011	55.803486
41626		-0.556652	-9.849443	0.678265	0.033372	-0.022762	0.050736	-84.569094	3.215874	55.817791
41627		-0.542075	-9.808666	0.954195	0.077024	-0.012165	0.050729	-84.520229	3.243174	55.826047
41628		-0.543690	-9.732255	0.931793	0.058368	-0.017979	0.052706	-84.481825	3.271403	55.837768
41629		-0.596738	-9.716889	0.969388	0.051456	-0.007849	0.048344	-84.447748	3.297570	55.843465
41630		-0.462219	-9.826910	0.827228	0.064098	-0.013337	0.058401	-84.406181	3.329290	55.852888
41631		-0.396621	-9.890383	0.659606	0.155521	-0.011140	0.061307	-84.312319	3.362653	55.861245
41632		-0.457976	-9.630606	1.088515	0.179505	-0.026404	0.092635	-84.204060	3.413108	55.880191
41633		-0.573778	-9.712024	1.041339	0.193704	-0.016709	0.104714	-84.087955	3.470854	55.894393
41634		-0.632657	-9.715366	1.118045	0.154296	-0.026611	0.111081	-83.994014	3.531734	55.914750
41635		-0.639105	-9.637826	1.102713	0.140481	-0.022135	0.103368	-83.908176	3.588337	55.932167
41636		-0.680275	-9.999082	0.757739	0.152915	-0.032767	0.086739	-83.814845	3.634910	55.954736
41637		-0.424657	-9.319511	1.627311	0.108789	-0.012101	0.127847	-83.747388	3.706027	55.968119
41638		-0.596106	-10.035128	0.779710	0.186164	-0.005977	0.123140	-83.635791	3.774947	55.977834
41639		-0.739845	-9.755693	1.169068	0.084452	-0.022886	0.128266	-83.581821	3.845574	55.997615
41640		-0.661123	-9.707920	1.108637	0.147440	-0.013913	0.125955	-83.492059	3.915559	56.012230
41641		-0.612940	-9.895712	0.897910	0.147071	-0.028954	0.136450	-83.401872	3.990392	56.036213
41642		-0.704687	-9.678574	1.156704	0.186202	-0.027386	0.142766	-83.289231	4.068999	56.059870
41643		-0.715154	-9.641418	1.199805	0.184001	-0.029984	0.144860	-83.177717	4.148458	56.085293
41644		-0.699343	-9.650564	1.230099	0.168606	-0.032703	0.146643	-83.074827	4.228816	56.112555
41645		-0.717286	-9.701854	1.249108	0.157681	-0.031293	0.152413	-82.978205	4.312387	56.139544
41646		-0.809646	-9.690425	1.310860	0.145826	-0.027528	0.151572	-82.888464	4.395819	56.164480
41647		-0.665518	-10.080165	1.002213	0.140703	-0.028642	0.188768	-82.801381	4.500162	56.192833
41648		-0.811932	-9.745871	1.254831	0.199324	-0.024717	0.203803	-82.680705	4.613399	56.220246
41649		-0.830520	-9.721600	1.246129	0.193140	-0.028956	0.200997	-82.563346	4.724556	56.250097
41650		-0.842327	-9.649127	1.313684	0.181058	-0.024850	0.196220	-82.453032	4.833364	56.277488
41651		-0.941868	-9.494044	1.520777	0.170499	-0.021063	0.183786	-82.348991	4.935229	56.301970
41652		-0.815584	-9.541938	1.437511	0.086915	-0.008678	0.168625	-82.293468	5.029519	56.318386
41653		-0.812444	-9.634898	1.357482	0.084785	-0.007341	0.164395	-82.239259	5.121375	56.333793
41654		-0.916739	-9.705347	1.310688	0.075427	-0.005840	0.169120	-82.190388	5.216134	56.348810
41655		-0.967039	-9.653353	1.352256	0.085527	-0.006321	0.158246	-82.135786	5.304553	56.363324
41656		-0.950309	-9.714725	1.273856	0.075286	-0.006816	0.149336	-82.087027	5.387981	56.377511
41657		-0.971472	-9.624245	1.427517	0.076571	-0.002806	0.138094	-82.037840	5.465216	56.388580
41658		-0.932246	-9.676532	1.355594	0.062473	-0.000181	0.137797	-81.996821	5.542603	56.398204
41659		-0.853516	-9.658715	1.396492	0.044425	0.001696	0.152463	-81.966149	5.628335	56.407972
41660		-0.974201	-9.613134	1.405789	0.039043	0.008653	0.155833	-81.938871	5.716649	56.414104
41661		-0.956997	-9.609461	1.474732	0.028813	0.008484	0.153546	-81.917485	5.803532	56.420172
41662		-1.030136	-9.581865	1.449597	0.001614	0.011306	0.152882	-81.911803	5.890382	56.424612
41663		-0.960391	-9.705140	1.365755	-0.000729	0.009478	0.157605	-81.907347	5.979646	56.430474
41664		-0.971989	-9.669220	1.389756	-0.001886	0.016965	0.167318	-81.903870	6.075140	56.432872
41665		-1.098414	-9.657421	1.370416	-0.000232	0.024583	0.171046	-81.899911	6.173246	56.431221
41666		-1.102245	-9.715002	1.329216	0.001612	0.022904	0.158112	-81.894868	6.263997	56.429497
41667		-1.084613	-9.620714	1.437657	0.001334	0.023439	0.160844	-81.890035	6.356225	56.427685
41668		-1.126022	-9.733948	1.334114	-0.011460	0.022342	0.155203	-81.892477	6.445281	56.426055
41669		-1.148962	-9.709771	1.327875	0.006983	0.023180	0.152970	-81.884468	6.533021	56.423756
41670		-1.159363	-9.673573	1.352746	0.010761	0.020261	0.151039	-81.874085	6.619548	56.422993
41671		-1.123650	-9.604557	1.445412	0.011300	0.022676	0.150091	-81.863599	6.705615	56.420777
41672		-1.204915	-9.573349	1.441204	-0.007962	0.019413	0.142740	-81.863966	6.787367	56.419844
41673		-1.218766	-9.643080	1.369652	0.001317	0.017407	0.131447	-81.859029	6.862432	56.419125
41674		-1.200903	-9.635238	1.354365	-0.003786	0.019503	0.125113	-81.857183	6.934195	56.416707
41675		-1.117431	-9.677085	1.371381	-0.001888	0.013631	0.122489	-81.853910	7.003873	56.417421
41676		-1.119515	-9.683656	1.429425	0.000411	0.019457	0.135587	-81.849557	7.081572	56.415895
41677		-1.134861	-9.753360	1.357986	-0.002978	0.033544	0.157381	-81.847963	7.172658	56.408092
41678		-1.143824	-9.702678	1.434008	-0.004224	0.040974	0.184583	-81.847312	7.279891	56.398281
41679		-1.159438	-9.737642	1.385663	-0.018505	0.043981	0.208428	-81.854873	7.400776	56.388682
41680		-1.173311	-9.686638	1.459791	-0.024665	0.057186	0.233676	-81.866662	7.537164	56.373583
41681		-1.270336	-9.682679	1.346341	-0.044492	0.063732	0.245829	-81.890258	7.680858	56.355672
41682		-1.343991	-9.603571	1.391761	-0.034799	0.064013	0.251079	-81.908277	7.827655	56.337980
41683		-1.300884	-9.688406	1.372882	-0.044178	0.065399	0.249195	-81.931893	7.973380	56.319270
41684		-1.349865	-9.765358	1.289292	-0.035605	0.073095	0.264217	-81.951061	8.128346	56.297319
41685		-1.334069	-9.744971	1.300903	-0.020989	0.071045	0.275930	-81.961659	8.289680	56.277430
41686		-1.342819	-9.809332	1.315992	-0.003637	0.077314	0.306564	-81.962502	8.468999	56.256415
41687		-1.373447	-9.733922	1.385278	-0.012839	0.084939	0.339155	-81.968984	8.667311	56.233630
41688		-1.433937	-9.700494	1.421810	-0.014403	0.091233	0.364116	-81.976657	8.880389	56.209227
41689		-1.373351	-9.841531	1.450314	-0.059185	0.101346	0.393952	-82.010662	9.111090	56.181321
41690		-1.449363	-9.963961	1.287000	-0.055282	0.124573	0.435415	-82.044144	9.367245	56.143255
41691		-1.633239	-9.977587	1.147753	-0.023858	0.128496	0.474142	-82.059717	9.645573	56.105891
41692		-1.793899	-9.688350	1.246892	0.024580	0.112973	0.474775	-82.046161	9.923124	56.077492
41693		-1.800348	-9.626612	1.310686	0.042940	0.111555	0.467757	-82.022197	10.196495	56.049401
41694		-1.879158	-9.460293	1.250505	0.055020	0.098882	0.452808	-81.990298	10.460485	56.027533
41695		-1.698745	-9.487560	1.804115	0.040597	0.094677	0.426342	-81.966718	10.709036	56.006038
41696		-1.724412	-9.879331	1.232332	0.026542	0.132801	0.469122	-81.954728	10.985017	55.966084
41697		-1.789035	-9.553745	1.576950	-0.008261	0.128775	0.485741	-81.962200	11.270007	55.929776
41698		-1.851907	-9.851701	1.295231	0.002624	0.137650	0.512237	-81.964181	11.570830	55.890447
41699		-1.850652	-9.628635	1.469068	-0.015639	0.141130	0.550449	-81.976665	11.893513	55.852131
41700		-1.925822	-9.705272	1.443678	-0.023251	0.147428	0.582134	-81.993940	12.234754	55.812628
41701		-1.930465	-9.763574	1.417789	-0.062433	0.141050	0.628579	-82.032378	12.601734	55.780383
41702		-1.930410	-9.964705	1.630038	-0.086975	0.138536	0.666894	-82.084109	12.990313	55.752377
41703		-1.640573	-10.462166	1.637960	-0.119769	0.170491	0.742459	-82.157838	13.424178	55.711346
41704		-2.098800	-10.588424	1.062972	-0.065871	0.208345	0.851781	-82.204249	13.923067	55.656430
41705		-2.284822	-10.514787	1.034060	-0.024570	0.179627	0.943861	-82.221698	14.471907	55.625284
41706		-2.211726	-10.320357	1.078099	0.077814	0.180177	1.025918	-82.179141	15.067424	55.600465
41707		-2.378281	-9.774360	1.368242	0.087893	0.183706	1.081703	-82.130337	15.694852	55.578507
41708		-2.370420	-9.948262	1.406607	0.100904	0.190920	1.132231	-82.074176	16.351577	55.556963
41709		-2.370578	-10.113737	1.580095	0.115237	0.209258	1.174710	-82.011998	17.033847	55.528701
41710		-2.483703	-10.394845	1.251695	0.169168	0.242683	1.228707	-81.923556	17.749478	55.485935
41711		-2.932728	-10.482769	0.836071	0.270584	0.240806	1.281607	-81.775372	18.495027	55.450187
41712		-3.202637	-10.129494	0.553223	0.410149	0.213263	1.339287	-81.539872	19.271090	55.438488
41713		-3.565560	-9.954773	0.766678	0.478774	0.155769	1.402460	-81.250386	20.078060	55.470849
41714		-3.572743	-10.021061	0.790345	0.533924	0.095748	1.463314	-80.912446	20.913955	55.550135
41715		-3.626865	-9.859412	1.101663	0.557675	0.044325	1.534911	-80.543651	21.785124	55.673726
41716		-3.894598	-9.485236	1.191482	0.577364	0.018137	1.614712	-80.149977	22.698052	55.828606
41717		-3.867653	-9.279128	1.337299	0.522504	-0.038562	1.698664	-79.765017	23.651700	56.035216
41718		-3.767722	-9.380663	1.380265	0.514024	-0.054779	1.775567	-79.370534	24.645668	56.269221
41719		-3.927391	-9.213614	1.732782	0.471807	-0.067353	1.843674	-78.985688	25.675155	56.528516
41720		-3.911346	-9.586637	1.803394	0.453201	-0.075955	1.906007	-78.597069	26.737078	56.810946
41721		-3.999678	-9.580167	2.105336	0.489071	-0.057497	1.948692	-78.180845	27.823311	57.098340
41722		-3.959905	-9.569910	2.188624	0.545598	-0.027400	1.989275	-77.728069	28.933856	57.384336
41723		-4.111001	-8.694509	2.202084	0.581854	0.031492	2.047410	-77.257484	30.082221	57.654199
41724		-4.387935	-8.565482	2.229217	0.538218	0.053892	2.086556	-76.804550	31.253302	57.929280
41725		-4.366971	-8.555241	2.216248	0.534015	0.092132	2.124889	-76.351609	32.449017	58.199664
41726		-5.445421	-8.257777	2.574232	0.426762	0.151429	2.127818	-75.968947	33.652662	58.445155
41727		-4.752208	-8.263831	2.265435	0.325222	0.159576	2.149106	-75.634061	34.868084	58.701416
41728		-4.829586	-8.398959	2.312169	0.338086	0.199848	2.168972	-75.293906	36.098911	58.946350
41729		-5.325950	-8.042000	2.371747	0.348797	0.238279	2.199325	-74.948006	37.351119	59.183432
41730		-5.584969	-7.808692	2.478766	0.302618	0.268336	2.206569	-74.628452	38.610559	59.413995
41731		-5.580277	-7.697434	2.414835	0.281092	0.296339	2.206564	-74.321655	39.873446	59.637611
41732		-5.879340	-7.694035	2.410063	0.256929	0.330997	2.228707	-74.029931	41.152841	59.853465
41733		-6.290451	-7.634101	2.287332	0.202098	0.356026	2.248144	-73.767126	42.446294	60.067603
41734		-6.503898	-7.182990	2.175585	0.127784	0.379259	2.276619	-73.542762	43.758246	60.282521
41735		-6.797448	-7.310317	2.171298	-0.010863	0.379026	2.319884	-73.379478	45.093599	60.518567
41736		-6.833640	-7.614408	2.244158	-0.116047	0.385584	2.367012	-73.260874	46.455250	60.770866
41737		-6.862182	-7.391559	2.248919	-0.206147	0.402017	2.444813	-73.178177	47.862215	61.038901
41738		-6.984040	-7.340436	2.279006	-0.342075	0.407827	2.540609	-73.147249	49.322237	61.335726
41739		-6.859808	-7.601188	2.556244	-0.477347	0.426073	2.642369	-73.173481	50.841344	61.652552
41740		-6.696412	-8.206860	2.647724	-0.507308	0.464959	2.743466	-73.209928	52.422146	61.971304
41741		-7.243810	-8.233968	2.824136	-0.527560	0.526445	2.805974	-73.276283	54.047883	62.260462
41742		-7.757790	-8.002100	2.485750	-0.574981	0.559095	2.814569	-73.382466	55.683564	62.528176
41743		-7.952455	-7.037873	2.122903	-0.748114	0.572185	2.869331	-73.577731	57.352255	62.802869
41744		-7.949440	-6.502954	1.594567	-1.049479	0.546112	2.982620	-73.889683	59.079258	63.138191
41745		-7.769487	-6.313882	1.267939	-1.410938	0.492302	3.146693	-74.311273	60.889787	63.580012
41746		-8.106545	-5.966078	0.970812	-1.767778	0.422103	3.335685	-74.807868	62.795175	64.160696
41747		-8.113782	-4.787576	0.214519	-2.036584	0.285532	3.425917	-75.266114	64.733057	64.945967
41748		-7.541726	-4.368295	-0.060373	-2.313474	0.126223	3.555726	-75.610476	66.721832	66.017526
41749		-7.581709	-5.232545	-0.300259	-2.480360	-0.046146	3.781122	-75.653375	68.813313	67.501774
41750		-8.318117	-6.456904	-0.101635	-2.424186	-0.250433	3.999131	-75.081285	70.993053	69.585186
41751		-11.933636	-8.941055	1.326357	-2.215826	-0.701083	3.956314	-73.252927	73.064334	72.837093
41752		-10.488610	-12.594263	0.991241	-1.969116	-1.004943	3.383832	-70.392987	74.726460	76.983240
41753		-8.659728	-13.004523	1.126522	-1.742115	-1.162680	2.560834	-66.997629	75.851717	81.520943
41754		-7.215888	-12.548669	1.064320	-1.280318	-1.215123	1.479558	-63.752966	76.331145	85.614807
41755		-6.342277	-12.716192	0.972424	-0.676919	-1.161598	0.290002	-61.415926	76.171796	88.415645
41756		-6.101263	-12.157102	1.232967	0.016469	-1.043384	-0.760350	-60.186745	75.498280	89.669204
41757		-6.376660	-11.021224	1.149392	0.590239	-0.912350	-1.569869	-59.838804	74.457672	89.674879
41758		-6.637032	-9.592455	0.868396	1.057364	-0.781950	-2.139403	-60.018529	73.170523	88.852501
41759		-6.918760	-8.075120	0.676816	1.412632	-0.665207	-2.454564	-60.375900	71.760384	87.624473
41760		-6.989888	-6.658571	0.514322	1.641332	-0.565213	-2.540947	-60.703375	70.331326	86.279494
41761		-6.859428	-5.413764	0.190410	1.754321	-0.475855	-2.464074	-60.913313	68.965478	84.978994
41762		-6.640331	-4.478777	0.020646	1.776311	-0.402326	-2.300650	-61.001934	67.698830	83.784044
41763		-6.234700	-3.556751	-0.096737	1.680349	-0.347875	-2.115465	-61.017891	66.541682	82.717125
41764		-6.096781	-2.928935	-0.157117	1.461323	-0.306571	-2.000424	-61.083518	65.451343	81.724256
41765		-5.814890	-2.651819	0.023639	1.107027	-0.292672	-2.017448	-61.323772	64.357251	80.753873
41766		-5.499414	-3.024161	0.406171	0.701579	-0.304266	-2.174965	-61.816237	63.175947	79.752225
41767		-4.986145	-4.042844	0.525860	0.383283	-0.335557	-2.427113	-62.517015	61.856036	78.710004
41768		-4.518519	-5.057931	0.665565	0.205350	-0.364147	-2.699071	-63.339480	60.381501	77.631824
41769		-4.301210	-5.709972	0.778508	0.148254	-0.380294	-2.952956	-64.193873	58.767072	76.537629
41770		-3.629102	-5.810331	0.939118	0.195270	-0.354992	-3.142429	-65.020611	57.050563	75.425139
41771		-3.993834	-5.421514	1.086114	0.225221	-0.322682	-3.263649	-65.799800	55.272765	74.326680
41772		-4.357559	-4.977403	1.114527	0.188162	-0.340112	-3.316855	-66.514738	53.452827	73.309605
41773		-4.475509	-4.516467	1.206042	0.097222	-0.375570	-3.294243	-67.167674	51.632297	72.411629
41774		-4.409797	-4.515157	1.256204	-0.032392	-0.433722	-3.239274	-67.774451	49.819722	71.646816
41775		-4.107316	-4.920653	1.358127	-0.125811	-0.477511	-3.181148	-68.334582	48.026333	70.993822
41776		-3.662576	-5.888391	1.405555	-0.160764	-0.475993	-3.150970	-68.861804	46.242817	70.394958
41777		-3.180012	-6.725009	1.343474	-0.091457	-0.427619	-3.193025	-69.340507	44.445734	69.789749
41778		-2.936241	-7.014931	1.302493	-0.009272	-0.363827	-3.304435	-69.786671	42.595547	69.144041
41779		-2.766427	-7.096983	1.212170	-0.004657	-0.307378	-3.471845	-70.243740	40.665311	68.453713
41780		-2.592760	-7.111604	1.005434	-0.087143	-0.219441	-3.663631	-70.774217	38.641111	67.694822
41781		-2.413552	-6.992345	0.868446	-0.172201	-0.093629	-3.793745	-71.373885	36.566913	66.866944
41782		-2.314232	-6.537798	0.734037	-0.289243	0.056887	-3.805596	-72.048420	34.503225	65.985177
41783		-2.217884	-6.466487	0.640182	-0.403377	0.216639	-3.691841	-72.778037	32.523631	65.074782
41784		-2.399350	-6.823054	0.712224	-0.496051	0.365416	-3.522148	-73.542678	30.649019	64.150568
41785		-2.870896	-7.651931	0.958723	-0.591778	0.482861	-3.377303	-74.336529	28.865294	63.225854
41786		-3.387333	-8.399807	1.301360	-0.674125	0.570624	-3.312748	-75.153368	27.116244	62.300569
41787		-4.068798	-9.114900	1.693824	-0.722690	0.592217	-3.282029	-75.957355	25.379089	61.409463
41788		-4.687644	-9.751835	2.004935	-0.730629	0.596967	-3.200547	-76.722501	23.673967	60.565774
41789		-5.025329	-10.316850	2.243730	-0.708114	0.551632	-3.085222	-77.421100	22.020982	59.800657
41790		-5.071242	-11.105025	2.276042	-0.677166	0.461018	-3.034675	-78.049479	20.374002	59.125437
41791		-4.874212	-11.987107	2.130736	-0.652286	0.338308	-3.067453	-78.612989	18.691178	58.545215
41792		-4.476169	-12.437135	1.908335	-0.598555	0.206806	-3.176854	-79.103117	16.924120	58.051571
41793		-4.163734	-12.378163	1.616325	-0.571193	0.090108	-3.295018	-79.541459	15.077619	57.633308
41794		-3.835399	-12.076935	1.339090	-0.609429	-0.002030	-3.387243	-79.973872	13.163510	57.276644
41795		-3.444024	-12.110002	1.073989	-0.701252	-0.060720	-3.447560	-80.436938	11.210208	56.966388
41796		-3.156948	-12.295495	0.969924	-0.791470	-0.083043	-3.465617	-80.936514	9.238939	56.685652
41797		-2.972170	-12.772026	0.956016	-0.873837	-0.072122	-3.457816	-81.471228	7.273846	56.419266
41798		-2.863415	-13.236406	1.122135	-0.910407	-0.040838	-3.422570	-82.017890	5.325724	56.157445
41799		-2.959691	-13.499828	1.399737	-0.972034	-0.021901	-3.391439	-82.589627	3.397476	55.907443
41800		-3.031224	-13.861938	1.805267	-1.049940	-0.043163	-3.387897	-83.196759	1.464135	55.689877
41801		-3.120814	-14.146899	2.151799	-1.064624	-0.096454	-3.388876	-83.803976	-0.472272	55.523519
41802		-3.249721	-14.232347	2.525144	-1.011472	-0.181510	-3.341326	-84.377443	-2.391250	55.428139
41803		-3.405507	-14.220109	2.772200	-0.920423	-0.282397	-3.243775	-84.899772	-4.257763	55.414094
41804		-3.561386	-14.178279	2.839420	-0.798409	-0.402288	-3.098921	-85.360464	-6.050356	55.491691
41805		-3.770050	-13.959295	2.826141	-0.667596	-0.526421	-2.921862	-85.759255	-7.743794	55.662586
41806		-3.965386	-13.482406	2.696034	-0.559201	-0.655215	-2.709805	-86.115305	-9.322796	55.928390
41807		-4.079113	-12.966384	2.337325	-0.475232	-0.783097	-2.472089	-86.446125	-10.766352	56.288325
41808		-3.967834	-12.618946	2.118109	-0.412137	-0.903232	-2.244544	-86.767140	-12.084229	56.736122
41809		-3.696247	-12.224892	2.140853	-0.437486	-1.004779	-2.103622	-87.128341	-13.319513	57.258171
41810		-3.328155	-12.102383	1.966766	-0.492435	-1.065143	-2.062330	-87.543806	-14.531450	57.828110
41811		-3.035812	-11.691579	1.827119	-0.506760	-1.087185	-2.003744	-87.985588	-15.704009	58.425014
41812		-2.877833	-10.962685	1.748588	-0.508175	-1.069617	-1.898758	-88.441213	-16.813477	59.026221
41813		-2.709558	-10.542767	1.673593	-0.499056	-1.020958	-1.737860	-88.897614	-17.823609	59.613122
41814		-2.703144	-10.768948	1.646536	-0.464545	-0.943071	-1.585736	-89.333284	-18.743152	60.165854
41815		-2.488914	-10.899546	1.493292	-0.351351	-0.840405	-1.503802	-89.694774	-19.609934	60.666450
41816		-2.307012	-10.562233	1.319822	-0.158275	-0.712748	-1.423634	-89.928826	-20.429456	61.096757
41817		-2.289637	-9.607225	0.926911	0.028189	-0.575985	-1.275842	-90.033134	-21.161691	61.448054
41818		-2.308934	-8.316785	0.554525	0.132384	-0.448210	-1.063687	-90.053928	-21.773200	61.723037
41819		-2.220659	-7.495853	0.237636	0.100453	-0.348450	-0.838142	-90.072491	-22.254322	61.937490
41820		-1.914173	-7.218379	0.051174	-0.021870	-0.255176	-0.647753	-90.141129	-22.627217	62.094980
41821		-1.359940	-7.395214	0.009355	-0.143081	-0.165167	-0.511943	-90.258434	-22.921333	62.197253
41822		-0.689339	-7.784145	0.072790	-0.208890	-0.069077	-0.396866	-90.390922	-23.150338	62.240246
41823		-0.165106	-7.956127	0.163178	-0.201589	0.038722	-0.295714	-90.492614	-23.321066	62.216054
41824		0.142029	-8.032778	0.224217	-0.174826	0.153245	-0.203862	-90.550693	-23.440359	62.120163
41825		0.209844	-8.149011	0.303684	-0.157223	0.251827	-0.133348	-90.573576	-23.519308	61.962206
41826		0.050636	-8.225129	0.340275	-0.159567	0.339039	-0.102967	-90.575982	-23.581807	61.749570
41827		-0.158393	-8.278402	0.420337	-0.147387	0.387954	-0.085754	-90.558642	-23.634274	61.506058
41828		-0.507499	-8.143034	0.656857	-0.128188	0.421657	-0.053623	-90.521771	-23.668678	61.241258
41829		-0.908926	-8.031844	0.800201	-0.094489	0.429357	-0.005168	-90.463224	-23.674887	60.971218
41830		-1.218734	-7.698113	0.934051	-0.055753	0.435337	0.085498	-90.381087	-23.628960	60.697142
41831		-1.503258	-7.620145	1.052404	-0.016118	0.440409	0.213574	-90.275081	-23.509167	60.419604
41832		-1.835282	-7.663496	1.060803	0.032590	0.454656	0.353382	-90.138585	-23.308648	60.133554
41833		3.971099	-10.858739	4.298427	-0.224942	0.368658	0.668645	-90.172006	-22.927241	59.901283
41834		5.440491	-17.694933	-8.203345	1.167506	0.486153	2.058498	-89.385623	-21.747621	59.603617
41835		7.976104	-6.502018	-0.522472	0.781646	0.270730	1.757828	-88.878595	-20.739328	59.452103
41836		4.659672	-3.346264	0.797649	2.468124	0.598566	2.072418	-87.348467	-19.542218	59.127304
41837		4.172292	-7.063966	-0.202874	1.003699	0.666765	2.342778	-86.662226	-18.182830	58.796765
41838		2.709688	-8.121019	1.263175	0.728256	0.926647	2.289336	-86.099366	-16.841228	58.326589
41839		1.794074	-9.817102	1.344418	0.682363	0.931666	2.254077	-85.576429	-15.515415	57.868352
41840		1.620524	-8.441062	2.099874	0.568226	0.883923	2.301170	-85.140894	-14.161230	57.455115
41841		1.565811	-8.180404	2.305291	0.358981	0.866714	2.393402	-84.840862	-12.752783	57.068089
41842		0.603496	-9.334842	2.474884	0.125505	0.855943	2.420685	-84.687296	-11.327771	56.696714
41843		-0.434340	-11.118543	2.712954	0.165519	0.719858	2.342004	-84.534442	-9.954081	56.405660
41844		-0.459188	-10.671220	3.387433	0.234146	0.499119	2.274621	-84.369834	-8.630081	56.243458
41845		-0.094913	-12.195923	3.559077	0.018821	0.309083	2.319870	-84.348206	-7.290905	56.195957
41846		-0.093313	-12.714773	1.067537	0.309165	0.163942	2.289822	-84.170914	-5.976815	56.232498
41847		0.405050	-11.546232	-0.068413	-0.019292	0.257596	2.119453	-84.175354	-4.754726	56.207378
41848		-0.247577	-12.131889	0.708676	-0.037797	0.452455	1.952612	-84.182003	-3.616074	56.061113
41849		-1.114122	-12.800685	1.253155	0.129499	0.455034	1.759349	-84.094982	-2.587662	55.903009
41850		-1.609262	-12.162556	2.197413	0.131549	0.325852	1.558641	-84.011768	-1.680645	55.808332
41851		-1.526715	-11.492417	2.258453	0.263708	0.132489	1.425247	-83.856614	-0.861561	55.817670
41852		-0.947859	-10.621333	1.889381	0.083724	0.054376	1.293403	-83.804683	-0.121888	55.864896
41853		-1.606567	-13.959363	0.844501	-0.011052	-0.001621	1.051194	-83.806551	0.475818	55.929336
41854		-1.198109	-11.832632	0.819291	0.440892	-0.022743	0.660524	-83.548955	0.850158	55.982531
41855		-0.657135	-10.437464	1.098624	0.362004	-0.008874	0.459488	-83.336700	1.110164	56.016173
41856		-0.684681	-10.181646	1.362882	0.281774	-0.006490	0.376678	-83.170316	1.323732	56.043791
41857		-0.594179	-9.865519	1.555975	0.275497	-0.029359	0.317990	-83.007286	1.501630	56.080941
41858		-1.182544	-10.039409	1.861052	0.080464	-0.063103	0.227938	-82.955440	1.626541	56.131363
41859		-0.242418	-9.220237	1.722133	-0.047667	-0.106299	0.187079	-82.976378	1.724519	56.203480
41860		-0.252111	-10.000869	0.899379	-0.025243	-0.060789	0.180464	-82.985023	1.822621	56.249265
41861		-0.547329	-9.719362	1.348485	-0.037184	-0.047372	0.159809	-83.000869	1.909243	56.285908
41862		-0.520693	-9.773581	1.387606	-0.090910	-0.058109	0.128257	-83.047183	1.977883	56.326465
41863		-0.365783	-9.792176	1.104407	-0.078302	-0.045381	0.119089	-83.086639	2.041530	56.359048
41864		-0.290839	-9.737688	1.180295	-0.069254	-0.046147	0.117041	-83.120727	2.104676	56.391933
41865		-0.512128	-9.733408	1.352272	-0.095715	-0.056124	0.106830	-83.169897	2.160660	56.429708
41866		-0.431668	-9.788584	1.170907	-0.101555	-0.054258	0.090225	-83.222319	2.208057	56.465291
41867		-0.439872	-9.768506	1.134398	-0.085984	-0.049220	0.080897	-83.266074	2.249815	56.497291
41868		-0.394337	-9.695107	1.117062	-0.072136	-0.058739	0.078972	-83.301517	2.290569	56.534602
41869		-0.423953	-9.760475	1.104636	-0.077273	-0.058151	0.067584	-83.340071	2.324199	56.570746
41870		-0.346412	-9.698865	1.100746	-0.057163	-0.045607	0.053303	-83.367269	2.351264	56.598827
41871		-0.525363	-9.720050	1.212833	-0.048009	-0.035433	0.040469	-83.389631	2.371000	56.620205
41872		-0.400784	-9.523357	1.376030	-0.089355	-0.033253	0.032313	-83.435601	2.386962	56.639841
41873		-0.415508	-9.740042	1.136655	-0.131479	-0.039792	0.038893	-83.505675	2.405551	56.663569
41874		-0.469005	-9.760697	1.131878	-0.129296	-0.034479	0.032063	-83.574481	2.421338	56.683852
41875		-0.522121	-9.658676	1.199516	-0.126857	-0.026248	0.020332	-83.642274	2.430279	56.698632
41876		-0.380707	-9.884582	0.860790	-0.115375	-0.023033	-0.000523	-83.703459	2.428287	56.710297
41877		-0.500641	-9.672052	1.213850	-0.071505	0.002254	-0.014096	-83.740317	2.419436	56.706653
41878		-0.354029	-9.479416	1.329345	-0.131814	-0.007745	-0.006185	-83.811307	2.415192	56.709256
41879		-0.422548	-9.882395	0.940584	-0.169213	-0.014730	0.007958	-83.903681	2.417854	56.716670
41880		-0.497815	-9.824537	0.972287	-0.147374	-0.013480	0.007281	-83.983407	2.420945	56.723371
41881		-0.447566	-9.928561	0.877999	-0.128413	-0.020359	0.007814	-84.052269	2.423210	56.733980
41882		-0.388605	-9.831431	0.964910	-0.082962	-0.017528	0.011905	-84.094987	2.428716	56.743260
41883		-0.458541	-9.929187	0.881871	-0.090095	-0.021867	0.020545	-84.141823	2.438168	56.755472
41884		-0.474975	-9.894656	0.946337	-0.054534	-0.024623	0.023384	-84.168053	2.449818	56.769464
41885		-0.474381	-9.962341	0.867139	-0.037947	-0.028816	0.024935	-84.184826	2.461380	56.785888
41886		-0.494205	-9.939329	0.883528	-0.005237	-0.024604	0.018726	-84.182824	2.470389	56.799594
41887		-0.414450	-9.852745	1.015270	-0.006609	-0.021035	0.017510	-84.181846	2.478172	56.811146
41888		-0.440979	-9.874780	0.953697	-0.012516	-0.024219	0.030416	-84.183993	2.493869	56.825313
41889		-0.461598	-9.851632	0.971316	-0.005816	-0.018122	0.029733	-84.182597	2.508789	56.835913
41890		-0.464497	-9.729812	1.043368	-0.027916	-0.018896	0.033168	-84.193686	2.526368	56.847201
41891		-0.384880	-9.768709	0.943468	-0.018346	-0.020541	0.032272	-84.199396	2.542598	56.859326
41892		-0.340858	-9.660799	0.982217	-0.008481	-0.025942	0.044135	-84.199135	2.566024	56.875268
41893		-0.374962	-9.669845	0.997170	0.000525	-0.021106	0.054242	-84.193951	2.594744	56.888989
41894		-0.494822	-9.572654	1.184529	-0.013236	-0.019759	0.062160	-84.196511	2.628799	56.902451
41895		-0.382629	-9.657856	1.047326	-0.039529	-0.021586	0.063389	-84.214224	2.662708	56.916972
41896		-0.454938	-9.721186	0.995792	-0.021878	-0.024095	0.071846	-84.221568	2.702040	56.933454
41897		-0.540612	-9.649006	1.116992	-0.036466	-0.021524	0.067963	-84.237496	2.738566	56.948190
41898		-0.553353	-9.694125	1.033391	-0.056968	-0.027803	0.058113	-84.264856	2.769870	56.965977
41899		-0.570499	-9.848326	0.951068	-0.052154	-0.018073	0.039094	-84.289935	2.790148	56.977063
41900		-0.552049	-9.695646	1.000550	-0.049883	-0.013376	0.022994	-84.313722	2.802273	56.984589
41901		-0.464794	-9.690146	0.976957	-0.051648	-0.012931	0.020086	-84.338703	2.812013	56.991644
41902		-0.484023	-9.688832	1.017634	-0.052330	-0.014904	0.023695	-84.363843	2.824461	57.000072
41903		-0.489852	-9.700877	0.959651	-0.048017	-0.018577	0.022862	-84.386574	2.835474	57.010499
41904		-0.523224	-9.643311	1.045992	-0.037237	-0.011597	0.017808	-84.403171	2.844759	57.016700
41905		-0.483485	-9.745255	0.982828	-0.046833	-0.006565	0.009912	-84.425597	2.849064	57.019538
41906		-0.514221	-9.754741	0.993755	-0.043325	-0.011621	0.015327	-84.445683	2.856940	57.025608
41907		-0.499764	-9.878071	0.869742	-0.039949	-0.020227	0.022976	-84.463739	2.867941	57.036968
41908		-0.553360	-9.875717	0.847639	-0.019023	-0.023259	0.033273	-84.469516	2.885414	57.050673
41909		-0.605110	-9.794754	0.956139	0.002847	-0.022080	0.025827	-84.462984	2.897941	57.063247
41910		-0.500536	-9.811998	0.918218	-0.014306	-0.028660	0.024471	-84.465923	2.910101	57.079551
41911		-0.476621	-9.835889	0.875910	-0.004857	-0.025610	0.026610	-84.463695	2.922879	57.094184
41912		-0.496314	-9.834112	0.921827	0.006887	-0.028734	0.029873	-84.454469	2.938115	57.110830
41913		-0.508135	-9.811565	0.918664	0.011071	-0.023567	0.032521	-84.443150	2.954373	57.124629
41914		-0.497293	-9.845977	0.847946	0.010253	-0.025694	0.029531	-84.432078	2.969576	57.139527
41915		-0.522369	-9.810220	0.943847	0.011065	-0.019448	0.032947	-84.420876	2.986301	57.151004
41916		-0.528940	-9.843017	0.918234	-0.001361	-0.018296	0.033298	-84.416662	3.004062	57.161893
41917		-0.599695	-9.860146	0.970865	-0.018917	-0.015594	0.031507	-84.422751	3.020179	57.171092
41918		-0.486543	-9.923837	0.807351	0.002818	-0.017270	0.035525	-84.416161	3.039270	57.181520
41919		-0.478237	-9.891335	0.812483	0.031427	-0.025102	0.044183	-84.393073	3.062082	57.196861
41920		-0.478516	-9.903050	0.742131	0.081215	-0.033061	0.058233	-84.341012	3.093222	57.217603
41921		-0.493968	-9.855502	0.877895	0.132191	-0.032424	0.068170	-84.259870	3.129265	57.238535
41922		-0.523346	-9.562387	1.209404	0.122938	-0.035233	0.079303	-84.183748	3.172235	57.261813
41923		-0.530884	-9.539354	1.192226	0.080931	-0.035289	0.079116	-84.131814	3.214299	57.285112
41924		-0.548896	-9.637519	1.120597	0.050706	-0.030931	0.073736	-84.097182	3.254306	57.305686
41925		-0.568154	-9.647460	1.094294	0.028450	-0.027619	0.071092	-84.075559	3.292220	57.324185
41926		-0.585817	-9.746163	1.019076	0.026281	-0.026160	0.066896	-84.055064	3.328596	57.341665
41927		-0.607213	-9.877996	0.918395	0.038280	-0.022260	0.065675	-84.027981	3.363727	57.356814
41928		-0.623178	-9.787482	0.993643	0.053859	-0.028167	0.066830	-83.991597	3.399931	57.375472
41929		-0.616343	-9.775723	1.029633	0.060053	-0.025405	0.057811	-83.951939	3.430374	57.391986
41930		-0.570921	-9.777626	1.054524	0.056959	-0.020619	0.062951	-83.914029	3.464802	57.406149
41931		-0.564437	-9.744601	1.062975	0.051272	-0.021609	0.061778	-83.879498	3.497715	57.420780
41932		-0.595587	-9.807863	1.061893	0.048314	-0.016666	0.073528	-83.846617	3.538392	57.433378
41933		-0.586420	-9.812846	0.865572	0.066031	-0.019973	0.079317	-83.803598	3.581378	57.448200
41934		-0.644853	-9.804689	1.011570	0.109040	-0.023296	0.083471	-83.735629	3.627286	57.465269
41935		-0.627782	-9.760033	1.056035	0.119171	-0.026556	0.087840	-83.661860	3.674679	57.484481
41936		-0.662238	-9.644433	1.156470	0.121927	-0.026159	0.088490	-83.586348	3.723220	57.503620
41937		-0.678533	-9.641351	1.190012	0.095666	-0.024316	0.080961	-83.526119	3.766793	57.521231
41938		-0.694271	-9.638533	1.221139	0.072128	-0.021381	0.076669	-83.479328	3.808877	57.536979
41939		-0.705113	-9.670614	1.201525	0.050746	-0.020654	0.067312	-83.445006	3.844891	57.551682
41940		-0.669027	-9.697249	1.118995	0.040374	-0.021009	0.065270	-83.416441	3.880495	57.566522
41941		-0.662232	-9.753449	1.078914	0.039008	-0.021555	0.063656	-83.388804	3.914354	57.581536
41942		-0.697737	-9.781946	1.125688	0.035120	-0.018850	0.065790	-83.363313	3.950383	57.595214
41943		-0.729531	-9.803000	1.069226	0.039201	-0.013901	0.061785	-83.335856	3.983671	57.605770
41944		-0.713422	-9.745498	1.181736	0.036859	-0.007854	0.053977	-83.309844	4.013700	57.612420
41945		-0.760811	-9.742905	1.143171	0.028435	-0.005852	0.043287	-83.288952	4.036990	57.617174
41946		-0.718290	-9.757854	1.112095	0.032344	-0.004453	0.041553	-83.265715	4.060177	57.621073
41947		-0.734314	-9.742080	1.213585	0.023089	-0.003816	0.037160	-83.247992	4.080114	57.624270
41948		-0.738069	-9.720628	1.187573	0.005151	0.000762	0.036675	-83.240567	4.100877	57.624877
41949		-0.771280	-9.775705	1.102016	-0.000818	0.004252	0.025264	-83.236927	4.114589	57.622675
41950		-0.765163	-9.734814	1.025613	0.027159	-0.004500	0.014184	-83.216785	4.122203	57.624766
41951		-0.676601	-9.704556	1.139591	0.071287	-0.007757	0.013375	-83.171397	4.128338	57.628615
41952		-0.681510	-9.600513	1.268695	0.066450	-0.006568	0.015179	-83.128657	4.136375	57.631964
41953		-0.696046	-9.631723	1.270893	0.033292	-0.004450	0.023329	-83.105125	4.148395	57.634620
41954		-0.646925	-9.655530	1.319511	0.013449	-0.002911	0.022184	-83.092858	4.160664	57.636372
41955		-0.764240	-9.638801	1.224337	-0.011076	-0.000743	0.020164	-83.094915	4.171137	57.636701
41956		-0.673175	-9.801675	1.163003	-0.022389	0.006306	0.021183	-83.103562	4.183472	57.633127
41957		-0.748158	-9.807831	1.135692	-0.002053	0.003903	0.030271	-83.100591	4.200014	57.631502
41958		-0.692257	-9.812318	1.132380	0.016283	0.003159	0.041750	-83.086850	4.223830	57.631145
41959		-0.722873	-9.833725	1.074504	0.029732	-0.000526	0.054652	-83.065356	4.253935	57.633741
41960		-0.622454	-9.827135	1.169351	0.053228	-0.002779	0.074961	-83.030028	4.296226	57.639099
41961		-0.718673	-9.739727	1.240560	0.051069	-0.000556	0.080034	-82.996168	4.340760	57.643520
41962		-0.799196	-9.702719	1.164247	0.045061	-0.004452	0.083816	-82.965386	4.387958	57.650502
41963		-0.781482	-9.726940	1.129005	0.075993	-0.009340	0.071088	-82.916898	4.426782	57.659358
41964		-0.666078	-9.791484	1.108955	0.100662	-0.020184	0.083038	-82.853555	4.472412	57.675335
41965		-0.729003	-9.750847	1.150650	0.148015	-0.028865	0.087853	-82.762813	4.519344	57.696622
41966		-0.642452	-9.589276	1.500820	0.132949	-0.008399	0.126311	-82.681220	4.590373	57.709162
41967		-0.663012	-9.764209	1.185511	0.136465	-0.018060	0.142192	-82.597210	4.668913	57.728433
41968		-0.734403	-10.089190	1.123572	0.093380	-0.013689	0.200163	-82.537527	4.781465	57.749674
41969		-0.698291	-9.876462	1.274349	0.213203	0.000600	0.250843	-82.409662	4.923066	57.766725
41970		-0.673445	-9.855384	1.284124	0.162702	-0.001689	0.283183	-82.310173	5.083590	57.787888
41971		-0.846348	-9.792293	1.322508	0.188166	0.010639	0.316249	-82.196566	5.263033	57.804844
41972		-0.834702	-9.748093	1.326977	0.185922	0.016182	0.325983	-82.084223	5.449157	57.819814
41973		-0.916763	-9.563623	1.519350	0.188444	0.029130	0.330647	-81.971186	5.638171	57.828098
41974		-0.986071	-9.396145	1.609653	0.127842	0.059658	0.319604	-81.894475	5.824114	57.818450
41975		-0.803433	-9.805620	1.316541	0.025254	0.055698	0.351702	-81.876222	6.027198	57.813772
41976		-1.076730	-9.562738	1.577359	0.092063	0.087313	0.365798	-81.821325	6.241593	57.792390
41977		-0.882876	-9.908350	1.309861	0.023926	0.089683	0.405651	-81.805498	6.478052	57.773001
41978		-0.947127	-9.721676	1.572796	0.031396	0.105789	0.435805	-81.786063	6.733671	57.747012
41979		-1.037579	-10.002502	1.298328	-0.014416	0.128775	0.487529	-81.794235	7.019767	57.712118
41980		-1.270439	-9.889320	1.220360	0.045860	0.146740	0.502616	-81.768995	7.316619	57.668273
41981		-1.376881	-9.727244	1.292088	0.071885	0.134354	0.502863	-81.728302	7.611894	57.631624
41982		-1.324618	-9.568975	1.475901	0.076978	0.137613	0.495751	-81.685021	7.904160	57.592762
41983		-1.430456	-9.645113	1.416636	0.059485	0.138862	0.493003	-81.652229	8.194271	57.553072
41984		-1.430985	-9.663850	1.468184	0.066891	0.139466	0.491567	-81.615275	8.484369	57.513116
41985		-1.470658	-9.864174	1.343259	0.058653	0.138722	0.501502	-81.583196	8.779333	57.474521
41986		-1.461642	-9.985058	1.387309	0.096237	0.148469	0.522449	-81.530184	9.087742	57.432363
41987		-1.620326	-9.897799	1.294705	0.111704	0.148942	0.551576	-81.468298	9.412013	57.392653
41988		-1.715910	-9.646447	1.496254	0.147796	0.134995	0.544950	-81.384504	9.732108	57.360819
41989		-1.468082	-9.957443	1.662909	0.114922	0.147507	0.561488	-81.320794	10.061969	57.323568
41990		-1.711699	-10.143429	1.367121	0.135828	0.170262	0.608995	-81.246689	10.421466	57.277833
41991		-1.697774	-10.134344	1.384416	0.166485	0.162398	0.663850	-81.153646	10.810687	57.241941
41992		-1.701915	-10.104620	1.500880	0.158795	0.170598	0.722384	-81.064901	11.234522	57.207237
41993		-1.707606	-10.060557	1.667792	0.125200	0.176370	0.788916	-80.995158	11.695876	57.175752
41994		-1.677326	-9.822550	1.846326	0.122873	0.190886	0.855753	-80.927226	12.197065	57.142589
41995		-1.669552	-9.640660	2.127586	0.047882	0.203045	0.916686	-80.902922	12.733181	57.108318
41996		-1.634730	-9.832742	1.995565	-0.051171	0.233144	0.977734	-80.938213	13.307193	57.062165
41997		-1.934684	-9.938249	1.640196	-0.043654	0.268625	1.059066	-80.973040	13.929756	57.002357
41998		-2.222728	-9.982876	1.492476	-0.078169	0.258275	1.123683	-81.025301	14.588506	56.953977
41999		-2.291002	-10.193665	1.198305	-0.007809	0.255329	1.214677	-81.035521	15.297873	56.915150
42000		-2.422706	-9.932936	1.417647	0.023266	0.231345	1.292863	-81.022504	16.049909	56.897621
42001		-2.462477	-9.956138	1.331608	0.077348	0.228599	1.371215	-80.976273	16.845486	56.889309
42002		-2.587565	-9.830062	1.380124	0.132949	0.209929	1.459120	-80.892119	17.689650	56.901344
42003		-2.771677	-9.643724	1.480913	0.173165	0.212680	1.531731	-80.782763	18.574589	56.920207
42004		-2.903568	-9.447861	1.575294	0.153985	0.207765	1.595319	-80.680386	19.495492	56.950110
42005		-2.978979	-9.353536	1.631657	0.144906	0.211026	1.641450	-80.581360	20.442232	56.984460
42006		-3.175103	-9.233482	1.715524	0.131881	0.224981	1.682301	-80.489969	21.413780	57.016454
42007		-3.290913	-9.014607	1.752920	0.110821	0.238947	1.714398	-80.411579	22.404285	57.044930
42008		-3.439858	-9.030906	1.748969	0.089630	0.253391	1.742783	-80.346391	23.412604	57.069128
42009		-3.608856	-8.933366	1.683032	0.086786	0.282702	1.765994	-80.288412	24.436403	57.078957
42010		-3.818881	-8.685756	1.696966	0.082641	0.291190	1.783758	-80.233379	25.471444	57.086678
42011		-3.998671	-8.945362	1.877259	0.059074	0.309934	1.796831	-80.196021	26.515288	57.084949
42012		-3.960380	-9.016184	1.826947	0.107252	0.346046	1.819330	-80.139723	27.575739	57.063844
42013		-4.408185	-8.575696	1.697986	0.127441	0.372922	1.833564	-80.079303	28.646517	57.028047
42014		-4.565185	-8.831313	1.548656	0.134402	0.369556	1.837848	-80.013461	29.719749	56.996008
42015		-4.680796	-8.730633	1.615726	0.198161	0.384879	1.840988	-79.915997	30.795986	56.955635
42016		-4.818040	-8.704341	1.673700	0.240273	0.400360	1.834273	-79.799545	31.870364	56.906267
42017		-4.987178	-8.633313	1.682708	0.293343	0.423737	1.836910	-79.660714	32.948404	56.843738
42018		-5.378958	-8.609822	1.653059	0.325040	0.453746	1.819721	-79.515457	34.020257	56.761375
42019		-5.910837	-8.085302	1.538177	0.309057	0.483699	1.778635	-79.394349	35.072001	56.655147
42020		-5.153979	-8.138934	1.408710	0.243472	0.466719	1.801348	-79.302988	36.135155	56.564800
42021		-5.494196	-8.467774	1.490090	0.346164	0.497941	1.818944	-79.165274	37.211441	56.456147
42022		-5.825430	-7.996031	1.624944	0.361645	0.501808	1.838476	-79.018991	38.299554	56.349377
42023		-5.769863	-8.565348	1.714191	0.368338	0.519521	1.870244	-78.874768	39.407481	56.236057
42024		-5.974034	-8.882653	1.820516	0.448526	0.541393	1.908394	-78.691286	40.539686	56.114711
42025		-6.031239	-8.620454	1.791546	0.523264	0.579652	1.938429	-78.480871	41.693260	55.972273
42026		-6.251958	-8.575988	1.736944	0.546357	0.612280	1.981679	-78.269093	42.875313	55.815147
42027		-6.412176	-8.443411	1.755187	0.568743	0.627143	2.041448	-78.046317	44.093009	55.659132
42028		-6.618351	-8.260321	1.595419	0.597626	0.655816	2.090735	-77.816707	45.342146	55.492482
42029		-6.723887	-7.746675	1.627905	0.542173	0.660999	2.150685	-77.615061	46.625961	55.334977
42030		-6.684182	-7.418071	1.675469	0.479464	0.680128	2.211679	-77.453320	47.946471	55.175178
42031		-6.894657	-7.514761	1.690750	0.430622	0.697307	2.256233	-77.326312	49.294447	55.009934
42032		-7.481378	-7.005712	1.836940	0.360745	0.717252	2.265584	-77.254151	50.650125	54.828453
42033		-7.427699	-6.784422	1.688173	0.290806	0.736784	2.273888	-77.240354	52.013229	54.627260
42034		-7.600587	-6.680853	1.511121	0.233427	0.750280	2.271588	-77.277596	53.376441	54.406718
42035		-7.899839	-6.214875	1.287317	0.160420	0.755807	2.261884	-77.374125	54.735053	54.168694
42036		-7.783832	-6.045730	0.981355	0.023720	0.738949	2.272143	-77.547648	56.096634	53.936047
42037		-7.749131	-5.572996	0.697338	-0.148817	0.713152	2.319516	-77.807589	57.481407	53.722190
42038		-7.932546	-5.356505	0.533589	-0.391814	0.676512	2.405878	-78.178938	58.909165	53.544227
42039		-8.377542	-5.786595	0.624507	-0.663069	0.620541	2.509725	-78.659100	60.388412	53.423142
42040		-8.562333	-6.448024	0.616091	-0.814738	0.568336	2.601508	-79.184355	61.912500	53.351457
42041		-8.424009	-6.460946	0.570821	-0.951064	0.508964	2.708793	-79.733384	63.490828	53.342070
42042		-8.415541	-6.286790	0.378815	-1.118248	0.443592	2.860275	-80.302617	65.147460	53.416597
42043		-8.344107	-5.801165	0.149549	-1.279164	0.359293	3.026495	-80.853094	66.890934	53.611629
42044		-8.554349	-5.648378	-0.076012	-1.473446	0.260785	3.175381	-81.369601	68.709912	53.960950
42045		-8.270153	-5.631493	-0.175838	-1.630901	0.141790	3.320501	-81.768296	70.602868	54.527796
42046		-7.903639	-5.897168	-0.194181	-1.784004	0.029769	3.525771	-81.983366	72.603345	55.373819
42047		-7.722289	-5.914780	-0.304125	-1.794557	-0.086116	3.751641	-81.812174	74.723648	56.619139
42048		-7.395716	-5.801154	-0.445092	-1.734816	-0.212123	3.959092	-80.988468	76.946578	58.489196
42049		-7.260268	-5.814429	-0.631368	-1.621910	-0.335621	4.167678	-79.056811	79.264904	61.408065
42050		-5.881089	-5.759356	-0.888425	-1.403556	-0.524544	4.199143	-74.932707	81.541405	66.401047
42051		-7.345775	-11.561887	-0.939599	-1.577195	-0.786479	3.262586	-68.251642	83.175756	74.048541
42052		-7.117200	-14.835779	-0.352581	-1.515808	-0.928794	1.619810	-61.467523	83.788988	81.746472
42053		-2.764281	-14.857380	-0.703844	-1.558047	-0.836006	-0.238114	-59.255511	83.433108	84.866269
42054		-0.179985	-13.828040	-0.437196	-1.335857	-0.598682	-2.167515	-62.464046	82.178116	82.399757
42055		-1.974830	-15.420260	-0.316277	-0.762829	-0.369179	-3.902065	-67.709089	80.059005	77.530075
42056		-4.183605	-15.808927	0.157173	-0.013324	-0.289856	-5.314217	-72.141761	77.135304	73.013380
42057		-5.498431	-14.750315	0.452670	0.676304	-0.315320	-6.330473	-75.020935	73.602867	69.634357
42058		-6.523913	-12.011790	0.531200	1.187305	-0.413062	-6.939732	-76.594321	69.683104	67.256880
42059		-6.793539	-8.460253	0.385312	1.514220	-0.655264	-7.066208	-77.080938	65.654283	65.788793
42060		-6.275063	-4.743914	0.117454	1.585548	-0.994159	-6.708607	-76.809582	61.774320	65.074070
42061		-6.190243	-1.355606	0.019386	1.261041	-1.363190	-6.130184	-76.189981	58.175951	64.950054
42062		-6.271706	-0.290744	0.383919	0.487716	-1.731732	-5.645422	-75.646817	54.790326	65.261918
42063		-5.269153	-2.457756	0.543741	-0.367747	-2.018111	-5.388493	-75.391575	51.511115	65.838694
42064		-4.144333	-5.254899	0.711826	-0.938448	-2.171028	-5.425219	-75.430903	48.182976	66.486373
42065		-2.627242	-7.657617	0.851470	-1.140802	-2.187163	-5.617211	-75.650611	44.752828	67.079015
42066		-2.317402	-8.788333	1.131515	-0.962263	-2.080394	-5.624669	-75.863538	41.329134	67.570536
42067		-2.809837	-9.195141	1.161045	-0.501676	-1.921981	-5.318299	-75.878818	38.104575	67.989728
42068		-3.325502	-8.125427	1.331814	0.024359	-1.749858	-4.822006	-75.647078	35.172946	68.350114
42069		-3.916724	-6.690083	1.451508	0.230479	-1.550051	-4.338280	-75.352463	32.543353	68.634116
42070		-3.945999	-6.263696	1.247612	0.002425	-1.294974	-3.972371	-75.264915	30.146407	68.795054
42071		-3.212782	-7.446980	0.810803	-0.391988	-0.999607	-3.735686	-75.478594	27.930018	68.808802
42072		-2.594653	-9.278390	0.617256	-0.620291	-0.661941	-3.605494	-75.905752	25.827346	68.645214
42073		-2.366602	-10.836369	0.509191	-0.707506	-0.284515	-3.517730	-76.457141	23.830468	68.287472
42074		-2.828374	-11.073243	0.639165	-0.781313	0.155760	-3.484676	-77.132915	21.899587	67.695219
42075		-4.079845	-10.485427	1.196110	-0.877962	0.569508	-3.385828	-77.915345	20.075123	66.903478
42076		-5.268672	-10.725504	1.552087	-1.050516	0.899027	-3.191638	-78.820726	18.380175	65.975961
42077		-5.883518	-11.364565	2.038483	-1.141269	1.122279	-2.966263	-79.771570	16.828752	64.980331
42078		-5.709212	-12.333149	2.459975	-1.150115	1.256895	-2.764358	-80.711530	15.382206	63.959759
42079		-3.896972	-16.880181	3.586294	-0.724116	1.609545	-2.602914	-81.422715	14.051189	62.776873
42080		-6.972447	-9.289850	2.350604	-0.111266	1.840663	-2.610877	-81.784755	12.717546	61.477696
42081		-6.815325	-10.159838	2.821332	-1.322381	1.507482	-2.458584	-82.762196	11.436835	60.407265
42082		-5.635707	-17.569938	3.472851	-0.753253	1.576051	-2.534323	-83.395127	10.096746	59.314668
42083		-7.131044	-11.382900	3.373771	-0.401153	1.444213	-2.636177	-83.784882	8.687152	58.308807
42084		-6.816418	-12.411402	3.143281	-0.626941	1.086522	-2.669724	-84.250031	7.223575	57.520844
42085		-6.015621	-13.612501	3.193742	-0.452587	0.800062	-2.720714	-84.574214	5.715766	56.907481
42086		-5.612579	-13.118572	3.050388	-0.204329	0.555645	-2.756349	-84.728150	4.166296	56.439831
42087		-5.327347	-12.141495	2.638790	-0.097703	0.318913	-2.745697	-84.799243	2.615370	56.112278
42088		-4.952120	-11.554088	2.230999	-0.109814	0.098666	-2.690585	-84.864886	1.078789	55.915349
42089		-4.409991	-11.478946	1.861300	-0.133417	-0.084698	-2.619426	-84.937564	-0.421404	55.828850
42090		-3.944673	-11.446437	1.603340	-0.127789	-0.222758	-2.546614	-85.007012	-1.892023	55.826492
42091		-3.517431	-11.111487	1.450840	-0.107014	-0.323191	-2.463874	-85.066834	-3.315449	55.887451
42092		-3.286165	-10.791945	1.314785	-0.130498	-0.395281	-2.366357	-85.145435	-4.691222	55.996118
42093		-3.072954	-10.792785	1.222515	-0.144629	-0.464735	-2.246553	-85.238634	-5.997198	56.152796
42094		-2.869560	-10.796443	1.212500	-0.110278	-0.516768	-2.094192	-85.320630	-7.222577	56.348893
42095		-2.734085	-10.842595	1.265411	-0.052126	-0.563034	-1.922939	-85.377782	-8.347882	56.581789
42096		-2.486725	-10.908389	1.369829	0.023970	-0.599467	-1.754447	-85.400843	-9.382278	56.844976
42097		-2.254085	-10.731783	1.444644	0.085517	-0.617279	-1.615674	-85.395686	-10.334396	57.125941
42098		-2.018058	-10.687108	1.494022	0.105986	-0.640413	-1.495350	-85.387419	-11.222308	57.426671
42099		-1.859080	-10.602923	1.472424	0.096466	-0.654326	-1.401624	-85.391256	-12.053931	57.740815
42100		-1.698519	-10.437079	1.505119	-0.004525	-0.669846	-1.387153	-85.460293	-12.880838	58.066218
42101		-1.288178	-10.189946	1.377650	-0.162244	-0.671692	-1.430370	-85.624320	-13.728830	58.393547
42102		-0.812252	-9.897140	1.308129	-0.292174	-0.639519	-1.439794	-85.864251	-14.582387	58.705785
42103		-0.424789	-9.681554	1.271438	-0.352669	-0.567113	-1.370780	-86.133770	-15.389572	58.983120
42104		-0.219922	-9.593266	1.270526	-0.337093	-0.457843	-1.253290	-86.383289	-16.126657	59.204955
42105		-0.211207	-9.747222	1.345790	-0.303021	-0.326042	-1.135926	-86.595532	-16.788752	59.356336
42106		-0.097386	-10.173866	1.346777	-0.251147	-0.200035	-1.064763	-86.759393	-17.407580	59.437589
42107		0.316752	-10.173008	1.258153	-0.134622	-0.053003	-1.048906	-86.830761	-18.010365	59.432657
42108		0.667336	-9.849180	1.180377	-0.004392	0.085525	-1.004372	-86.802072	-18.585085	59.345987
42109		0.781872	-9.532019	1.078296	0.093410	0.231449	-0.946042	-86.688086	-19.119771	59.172064
42110		0.633965	-9.320555	0.976680	0.120668	0.352263	-0.910131	-86.532691	-19.631024	58.924305
42111		0.467952	-9.171883	0.786117	0.092291	0.437275	-0.906877	-86.372966	-20.135171	58.622691
42112		0.304168	-8.747495	0.577009	0.025287	0.501219	-0.902068	-86.234967	-20.634807	58.279901
42113		0.302709	-8.096002	0.514593	-0.095052	0.549994	-0.887429	-86.151807	-21.122259	57.905718
42114		0.254285	-7.742587	0.570265	-0.244828	0.576033	-0.828602	-86.146227	-21.575889	57.516402
42115		0.373508	-7.722718	0.699297	-0.340206	0.589753	-0.713827	-86.190762	-21.962422	57.122395
42116		0.606389	-8.127281	0.926257	-0.376331	0.584550	-0.588000	-86.256797	-22.278400	56.736169
42117		0.601141	-9.042008	1.309750	-0.355350	0.563081	-0.513039	-86.314895	-22.551870	56.365769
42118		0.596625	-9.579201	1.597684	-0.266944	0.509318	-0.516618	-86.333332	-22.830157	56.028002
42119		0.375571	-9.505844	1.768781	-0.147027	0.421666	-0.527099	-86.302271	-23.117061	55.743516
42120		0.230997	-8.836732	1.736495	-0.066634	0.304666	-0.484804	-86.252916	-23.384195	55.532701
42121		0.169760	-8.303364	1.611112	-0.051158	0.168943	-0.388133	-86.229021	-23.600789	55.409926
42122		0.244494	-8.251639	1.396836	-0.073302	0.037786	-0.283056	-86.251804	-23.762158	55.373075
42123		0.491251	-8.316937	1.269237	-0.091626	-0.090602	-0.217060	-86.318723	-23.890662	55.419332
42124		0.913570	-8.301816	1.080302	-0.111902	-0.202236	-0.168836	-86.426299	-23.995198	55.537483
42125		1.190906	-8.315758	0.992637	-0.132993	-0.280979	-0.138157	-86.567118	-24.085087	55.706575
42126		1.335128	-8.255186	0.899316	-0.151751	-0.326714	-0.112904	-86.730821	-24.161036	55.905489
42127		1.232047	-8.134876	0.817092	-0.154428	-0.352149	-0.061773	-86.903990	-24.208625	56.122618
42128		0.989778	-8.123725	0.777944	-0.163599	-0.363947	-0.001271	-87.086076	-24.220505	56.349199
42129		0.696261	-8.277251	0.746194	-0.188888	-0.379228	0.037094	-87.287474	-24.211000	56.586751
42130		0.564567	-8.349369	0.752902	-0.201321	-0.387189	0.058218	-87.497772	-24.187743	56.829669
42131		0.372293	-8.411671	0.770990	-0.188769	-0.384558	0.099991	-87.700881	-24.140800	57.072043
42132		0.128640	-8.391766	0.691922	-0.134910	-0.365479	0.183566	-87.868189	-24.043481	57.303999
42133		-0.042749	-8.204898	0.622539	-0.075289	-0.318420	0.290374	-87.990150	-23.884886	57.508568
42134		-0.253753	-8.009219	0.602140	-0.047915	-0.252932	0.394101	-88.079403	-23.663540	57.673583
42135		9.791984	-17.245489	-0.726366	-1.099743	-0.302541	1.381369	-88.788482	-22.878198	57.884237
42136		12.770414	-1.765438	-0.627700	2.081778	0.049514	1.439718	-87.589413	-22.052128	57.880106
42137		6.046292	-13.383265	-5.975486	0.356090	-0.091409	1.672138	-87.417755	-21.098319	57.979732
42138		2.847178	-4.041059	1.405121	0.885841	0.148557	1.794919	-86.892548	-20.066836	57.941948
42139		4.478418	-6.552797	-0.669651	0.408022	0.381191	2.077805	-86.600796	-18.866912	57.780827
42140		3.679472	-8.968100	-0.859556	0.134567	0.582427	2.193379	-86.434298	-17.592281	57.509018
42141		2.094914	-9.384540	0.122749	0.335016	0.642632	2.182171	-86.150253	-16.321829	57.207927
42142		2.556097	-8.180748	0.394293	0.238085	0.700283	2.215395	-85.921486	-15.027819	56.881901
42143		1.647234	-9.566893	0.707953	-0.022594	0.781632	2.141485	-85.837739	-13.772852	56.510273
42144		0.813600	-10.877882	1.017367	-0.066805	0.785801	1.982673	-85.785661	-12.607002	56.132878
42145		0.644469	-10.901354	1.461112	0.150569	0.675774	1.968383	-85.630516	-11.454405	55.822934
42146		1.004700	-9.094506	2.221768	0.301030	0.569670	2.030108	-85.408495	-10.269105	55.582707
42147		0.654017	-9.761967	2.167042	0.138093	0.472447	2.092031	-85.295463	-9.053477	55.406089
42148		-0.107791	-11.374611	1.792709	0.189996	0.336568	2.035259	-85.167810	-7.875076	55.308361
42149		-0.521345	-14.471925	1.173950	0.170925	0.180971	1.957241	-85.064417	-6.749909	55.298996
42150		0.494802	-10.902851	1.517375	0.547783	0.111944	1.800482	-84.748979	-5.716176	55.325418
42151		0.832223	-10.286080	0.478461	0.209211	0.249276	1.762552	-84.620273	-4.698414	55.275095
42152		0.014721	-11.718773	0.661617	0.229160	0.321164	1.685169	-84.477692	-3.719205	55.181955
42153		-0.616774	-11.769377	1.329145	0.245858	0.334278	1.577432	-84.326638	-2.802018	55.077873
42154		-0.610605	-10.905526	1.808482	0.266204	0.256523	1.474750	-84.167080	-1.945889	55.014861
42155		-0.784605	-11.099302	1.649677	0.326190	0.168393	1.400456	-83.975526	-1.138792	55.000303
42156		-1.074088	-10.961665	1.936952	0.216961	0.128356	1.242630	-83.846746	-0.422229	55.001268
42157		-1.955093	-13.203793	1.812496	0.121600	0.041704	1.025716	-83.772895	0.163641	55.039410
42158		-1.131617	-12.149580	0.833461	0.393644	-0.031747	0.642771	-83.542461	0.528637	55.096746
42159		-0.678038	-10.507478	1.098853	0.351862	-0.011994	0.426481	-83.336217	0.769645	55.130015
42160		-0.463612	-10.255926	1.121769	0.278834	0.013624	0.339959	-83.171736	0.965068	55.143720
42161		-0.686390	-9.663781	1.763838	0.268509	0.001965	0.277353	-83.013326	1.122009	55.160232
42162		-0.812231	-9.683390	2.002933	0.059482	-0.034046	0.220726	-82.974015	1.246272	55.193598
42163		-0.716584	-9.582747	1.729950	-0.036904	-0.070767	0.145198	-82.989797	1.322937	55.242531
42164		-0.176836	-10.246436	0.782965	-0.143560	-0.069307	0.117138	-83.066344	1.385910	55.288676
42165		-0.366335	-9.671168	1.312030	-0.044879	-0.032140	0.087814	-83.087230	1.432685	55.311544
42166		-0.426433	-9.724991	1.287397	-0.073497	-0.028904	0.078455	-83.124222	1.476497	55.331959
42167		-0.397686	-9.917554	1.063220	-0.097194	-0.043633	0.052576	-83.174945	1.502469	55.358899
42168		-0.383215	-9.785922	1.137245	-0.053863	-0.029847	0.023738	-83.200754	1.515130	55.376073
42169		-0.281864	-9.600764	1.297687	-0.064088	-0.031039	0.018949	-83.232745	1.522854	55.393538
42170		-0.213265	-9.550105	1.263401	-0.105739	-0.042863	0.032775	-83.288049	1.539808	55.418715
42171		-0.225644	-9.684237	1.148349	-0.119965	-0.043947	0.048100	-83.351794	1.563293	55.445459
42172		-0.264492	-9.628098	1.226161	-0.128830	-0.043610	0.060766	-83.420235	1.596173	55.472876
42173		-0.272263	-9.817380	1.086430	-0.148646	-0.050721	0.065242	-83.500247	1.629039	55.504540
42174		-0.203482	-9.700754	1.100040	-0.113300	-0.047788	0.080536	-83.559647	1.672970	55.535537
42175		-0.386768	-9.880876	1.103023	-0.125875	-0.062095	0.084390	-83.626341	1.716085	55.574829
42176		-0.373602	-9.828656	1.044910	-0.121688	-0.055003	0.066487	-83.690407	1.751623	55.608954
42177		-0.356548	-9.940494	0.967465	-0.097858	-0.051219	0.057319	-83.741245	1.780087	55.640259
42178		-0.477543	-9.903417	0.991216	-0.067094	-0.034975	0.033864	-83.774427	1.798354	55.660882
42179		-0.416937	-9.894972	1.035468	-0.064079	-0.036559	0.013405	-83.806242	1.802754	55.681074
42180		-0.273772	-9.759354	1.004745	-0.041554	-0.032509	0.011769	-83.824879	1.808618	55.698912
42181		-0.294117	-9.659269	1.147970	-0.045912	-0.032274	0.021399	-83.846343	1.817852	55.717150
42182		-0.304087	-9.736917	1.036721	-0.060949	-0.032205	0.025000	-83.876062	1.831278	55.735623
42183		-0.299355	-9.814138	1.036102	-0.048331	-0.025437	0.029540	-83.899013	1.845583	55.750452
42184		-0.404485	-9.711549	1.093895	-0.045263	-0.021963	0.025308	-83.919926	1.859817	55.763096
42185		-0.367153	-9.823735	0.975965	-0.060551	-0.024857	0.033773	-83.949872	1.876582	55.777840
42186		-0.351104	-9.868565	0.979083	-0.045556	-0.021569	0.021396	-83.970962	1.888624	55.790012
42187		-0.400462	-9.855779	1.008727	-0.033725	-0.013536	0.014144	-83.985785	1.894896	55.797109
42188		-0.380736	-9.824187	0.987209	-0.019187	-0.016884	0.002233	-83.991896	1.896306	55.805455
42189		-0.327500	-9.771745	1.005569	-0.005542	-0.013397	-0.002564	-83.990607	1.893067	55.811469
42190		-0.327816	-9.672838	1.107196	-0.009167	-0.016049	-0.006176	-83.991014	1.889735	55.818834
42191		-0.327212	-9.694740	1.132479	-0.024180	-0.019367	0.006221	-84.000275	1.891144	55.828779
42192		-0.351743	-9.716279	1.068188	-0.040298	-0.020276	0.012141	-84.018391	1.897994	55.839651
42193		-0.328305	-9.794413	1.022900	-0.046373	-0.023738	0.018428	-84.040258	1.906105	55.852814
42194		-0.394902	-9.857887	0.968550	-0.040602	-0.019146	0.017452	-84.058554	1.916052	55.863354
42195		-0.367190	-9.826710	0.924162	-0.015657	-0.021188	0.016835	-84.062870	1.923414	55.874965
42196		-0.404379	-9.803111	0.987476	-0.004635	-0.026303	0.017097	-84.060428	1.932737	55.889563
42197		-0.546820	-9.884436	1.012661	0.002665	-0.023160	-0.003365	-84.054247	1.928470	55.901100
42198		-0.423137	-9.834977	1.006916	0.005707	-0.013586	-0.034394	-84.046228	1.909212	55.905389
42199		-0.339693	-9.805656	0.985972	0.014222	-0.012000	-0.032567	-84.033700	1.888964	55.908823
42200		-0.347293	-9.859670	1.010799	0.022047	-0.008992	-0.035945	-84.016416	1.869095	55.910390
42201		-0.302585	-9.817519	1.002584	0.036854	-0.000256	-0.036029	-83.991148	1.847575	55.906909
42202		-0.312119	-9.728896	1.078331	0.044147	0.000928	-0.029252	-83.961375	1.832109	55.903204
42203		-0.282544	-9.751731	1.040692	0.034366	0.003041	-0.025677	-83.937571	1.816689	55.898448
42204		-0.278372	-9.718622	1.070183	0.026612	-0.006743	-0.004737	-83.917656	1.814721	55.900586
42205		-0.319832	-9.738629	1.057093	0.025672	-0.007563	0.004138	-83.898584	1.815646	55.903677
42206		-0.308936	-9.705938	1.063826	0.035433	-0.008957	0.009797	-83.873545	1.821813	55.907962
42207		-0.495723	-9.561702	0.235566	0.097321	-0.025584	-0.000924	-83.813104	1.818745	55.921013
42208		-0.614009	-9.769311	2.425815	0.009062	0.053437	0.023270	-83.804326	1.836441	55.890579
42209		0.344203	-9.394833	0.822388	-0.082565	-0.027588	0.071115	-83.846763	1.874281	55.909214
42210		-0.303417	-10.023766	0.900676	0.034532	-0.030262	0.064806	-83.821700	1.910446	55.929030
42211		-0.203166	-9.643929	1.117362	-0.016877	-0.021285	0.076750	-83.826586	1.951884	55.944422
42212		-0.439778	-9.677399	1.159975	0.003201	-0.013923	0.085390	-83.819728	2.000762	55.956203
42213		-0.408399	-9.689839	1.148476	-0.017159	-0.009122	0.071527	-83.825007	2.039975	55.964342
42214		-0.391149	-9.746161	1.076845	-0.060145	-0.019413	0.069943	-83.854337	2.079723	55.978289
42215		-0.418229	-9.778245	1.090394	-0.053972	-0.015848	0.070247	-83.880560	2.117801	55.990153
42216		-0.384154	-9.736762	1.073885	-0.056081	-0.029466	0.082773	-83.907296	2.164257	56.010579
42217		-0.521891	-9.884313	0.995975	-0.045302	-0.023139	0.068563	-83.928382	2.200944	56.026465
42218		-0.432949	-9.790465	1.000245	-0.035972	-0.020891	0.054920	-83.943827	2.232067	56.040283
42219		-0.413653	-9.769640	1.057818	-0.039599	-0.027659	0.050875	-83.961569	2.258412	56.057656
42220		-0.457200	-9.735219	1.038419	-0.035959	-0.025739	0.045253	-83.976909	2.283741	56.073640
42221		-0.425599	-9.660537	1.072580	-0.049364	-0.030361	0.044800	-84.000184	2.306474	56.092174
42222		-0.346075	-9.642997	1.125460	-0.058480	-0.029681	0.053623	-84.028299	2.336348	56.110888
42223		-0.316672	-9.667283	1.054909	-0.071242	-0.038505	0.076436	-84.063822	2.376643	56.135927
42224		-0.345063	-9.677667	1.040244	-0.073220	-0.032722	0.085913	-84.100195	2.424746	56.158253
42225		-0.316938	-9.504864	1.174930	-0.062436	-0.032575	0.098526	-84.130723	2.478011	56.181160
42226		-0.366095	-9.612878	1.101138	-0.123032	-0.035244	0.118199	-84.195436	2.544384	56.206744
42227		-0.410057	-9.677644	1.104287	-0.125573	-0.044454	0.127291	-84.261713	2.613407	56.237986
42228		-0.586271	-10.007804	0.799822	-0.142247	-0.040988	0.123311	-84.337202	2.682416	56.266989
42229		-0.545119	-9.890902	0.886016	-0.058894	-0.030865	0.099632	-84.365650	2.736501	56.288767
42230		-0.568183	-9.857530	0.953295	-0.049267	-0.029012	0.089884	-84.388249	2.787165	56.308968
42231		-0.544734	-9.913582	0.857686	-0.037180	-0.029742	0.078983	-84.404308	2.829556	56.328908
42232		-0.590658	-9.878137	0.841015	0.007530	-0.028518	0.069196	-84.394415	2.868460	56.347652
42233		-0.509646	-9.784492	0.874288	0.026396	-0.038955	0.065038	-84.373795	2.902378	56.372080
42234		-0.445401	-9.755815	1.035363	0.056508	-0.033848	0.076586	-84.335649	2.945179	56.394314
42235		-0.521932	-9.684885	0.987107	0.047977	-0.051188	0.088858	-84.302196	2.991957	56.427118
42236		-0.480889	-9.807244	0.933935	0.031401	-0.043453	0.085305	-84.278077	3.039146	56.455382
42237		-0.478940	-9.686703	0.993464	0.084288	-0.038516	0.101159	-84.224108	3.093624	56.481718
42238		-0.587849	-9.831963	0.837274	0.082783	-0.054975	0.107024	-84.170066	3.152467	56.517896
42239		-0.617803	-9.654194	1.148818	0.122111	-0.051881	0.097778	-84.093957	3.204182	56.551779
42240		-0.538336	-9.877109	0.886956	0.122073	-0.064272	0.103103	-84.017040	3.260148	56.593175
42241		-0.605112	-9.772662	1.008120	0.170760	-0.061147	0.114119	-83.912621	3.320516	56.633487
42242		-0.544042	-9.742329	1.024785	0.162410	-0.067288	0.122568	-83.812331	3.387239	56.677986
42243		-0.580854	-9.803908	1.033816	0.164340	-0.072459	0.135725	-83.711020	3.459066	56.726320
42244		-0.653197	-9.730823	1.130345	0.174726	-0.060485	0.129898	-83.603760	3.530224	56.767642
42245		-0.647853	-9.751531	1.126859	0.133202	-0.058530	0.126265	-83.520686	3.597392	56.807678
42246		-0.684340	-9.791578	1.105866	0.123358	-0.048855	0.114933	-83.443223	3.660658	56.841610
42247		-0.664922	-9.780941	1.102430	0.114280	-0.045323	0.105732	-83.371463	3.716899	56.872948
42248		-0.674445	-9.778978	1.113997	0.115965	-0.046567	0.099421	-83.298312	3.771399	56.904704
42249		-0.717673	-9.730085	1.163038	0.112516	-0.045546	0.100264	-83.227510	3.824435	56.935946
42250		-0.739329	-9.738533	1.143684	0.106316	-0.041507	0.091628	-83.160050	3.874764	56.964420
42251		-0.733801	-9.659316	1.259919	0.108240	-0.039824	0.073749	-83.091981	3.913035	56.990707
42252		-0.643210	-9.743528	1.178765	0.077567	-0.037647	0.076019	-83.041165	3.954690	57.016010
42253		-0.667678	-9.806802	1.158824	0.109258	-0.034185	0.081207	-82.972656	3.997542	57.039686
42254		-0.708991	-9.757717	1.207128	0.108613	-0.036804	0.082218	-82.904013	4.042713	57.065038
42255		-0.754781	-9.741520	1.229253	0.107707	-0.030131	0.082745	-82.836505	4.086670	57.086618
42256		-0.714853	-9.666500	1.253306	0.104844	-0.031320	0.072889	-82.770247	4.126868	57.108278
42257		-0.759532	-9.671676	1.301493	0.091065	-0.030536	0.071663	-82.712278	4.164449	57.129387
42258		-0.714644	-9.673904	1.328620	0.075397	-0.024627	0.063924	-82.663178	4.199992	57.146657
42259		-0.751193	-9.726804	1.249383	0.065551	-0.030555	0.066780	-82.619822	4.234760	57.167485
42260		-0.744396	-9.714836	1.286386	0.070948	-0.020389	0.067480	-82.573400	4.272602	57.182659
42261		-0.763334	-9.724096	1.263024	0.065456	-0.026591	0.060582	-82.530272	4.304111	57.200823
42262		-0.775981	-9.653905	1.366682	0.058039	-0.027001	0.056480	-82.491003	4.335180	57.218995
42263		-0.819893	-9.705858	1.308978	0.051434	-0.021280	0.049118	-82.456181	4.360552	57.233316
42264		-0.777648	-9.720838	1.279266	0.037913	-0.025682	0.042126	-82.428557	4.383544	57.249688
42265		-0.771710	-9.653663	1.334673	0.037661	-0.025241	0.038160	-82.401505	4.402378	57.265461
42266		-0.815386	-9.773724	1.201522	0.048278	-0.026142	0.034873	-82.367950	4.421194	57.281565
42267		-0.719921	-9.724972	1.265963	0.060177	-0.034712	0.039094	-82.327562	4.439817	57.302826
42268		-0.778122	-9.685239	1.302311	0.067238	-0.042082	0.045136	-82.282374	4.463207	57.328822
42269		-0.755596	-9.662524	1.369962	0.080744	-0.038432	0.042836	-82.229996	4.483633	57.352522
42270		-0.775777	-9.658409	1.422371	0.049492	-0.033872	0.042445	-82.195334	4.506082	57.373670
42271		-0.802236	-9.713592	1.318527	0.045982	-0.028140	0.039630	-82.163334	4.525460	57.391288
42272		-0.795822	-9.667250	1.401368	0.036597	-0.026852	0.037920	-82.136383	4.545859	57.408108
42273		-0.782265	-9.690559	1.386159	0.027888	-0.014841	0.029326	-82.115403	4.560416	57.417362
42274		-0.832449	-9.720753	1.321383	0.019442	-0.020872	0.024506	-82.098619	4.573653	57.429732
42275		-0.808220	-9.677669	1.356735	0.031949	-0.014034	0.024904	-82.075373	4.585758	57.438187
42276		-0.737874	-9.671939	1.385105	0.019613	-0.012592	0.025267	-82.058859	4.600068	57.445912
42277		-0.814812	-9.744722	1.287326	0.020969	-0.016115	0.033179	-82.041751	4.616698	57.456218
42278		-0.741891	-9.623748	1.491023	0.026111	-0.013658	0.035729	-82.021397	4.636844	57.465391
42279		-0.768459	-9.658626	1.356285	-0.002766	-0.006971	0.037275	-82.018275	4.656520	57.470828
42280		-0.812950	-9.629699	1.443373	-0.002034	-0.004998	0.033618	-82.014448	4.676141	57.474908
42281		-0.826411	-9.675112	1.363996	-0.015887	0.001244	0.038068	-82.019217	4.696921	57.475733
42282		-0.789106	-9.745809	1.329611	-0.022659	-0.000581	0.039242	-82.027369	4.720079	57.477745
42283		-0.833822	-9.695921	1.388482	0.001248	-0.001465	0.035903	-82.022207	4.739414	57.479936
42284		-0.796712	-9.745384	1.328185	-0.009968	-0.007107	0.046481	-82.022733	4.766151	57.486242
42285		-0.814749	-9.755764	1.297686	-0.000884	-0.007304	0.053555	-82.018395	4.795038	57.493169
42286		-0.782556	-9.791217	1.314256	0.011061	-0.015825	0.064457	-82.006337	4.831268	57.505879
42287		-0.816758	-9.729957	1.405762	0.018752	-0.011824	0.072955	-81.990390	4.870800	57.516944
42288		-0.750589	-9.848356	1.337522	0.005630	-0.007631	0.080047	-81.981718	4.916510	57.526256
42289		-0.692438	-9.854842	1.312647	0.042724	0.007059	0.111166	-81.952678	4.979226	57.529662
42290		-0.853529	-9.703801	1.408890	0.040456	0.010590	0.134970	-81.924558	5.057524	57.533066
42291		-0.802208	-9.777756	1.312836	0.068028	0.008138	0.148233	-81.880793	5.141349	57.538932
42292		-0.783624	-9.652795	1.477944	0.049186	0.016937	0.173262	-81.847701	5.241861	57.541940
42293		-0.713467	-9.794569	1.396135	0.074433	0.026691	0.207127	-81.800766	5.360591	57.542176
42294		-0.714395	-9.658937	1.503143	0.034951	0.044789	0.247571	-81.776725	5.505489	57.535559
42295		-0.846911	-9.777857	1.477140	0.032336	0.053465	0.283981	-81.754765	5.669996	57.526998
42296		-0.824321	-9.613925	1.536616	-0.003540	0.068609	0.315729	-81.753598	5.855473	57.512520
42297		-1.080501	-9.676295	1.458979	-0.023605	0.088397	0.324414	-81.765461	6.045777	57.487395
42298		-1.065964	-9.649042	1.365702	-0.044885	0.084322	0.322864	-81.788974	6.236568	57.464460
42299		-1.108414	-9.609236	1.432637	-0.026229	0.088608	0.311317	-81.802652	6.419446	57.437999
42300		-1.193905	-9.668829	1.334934	-0.054328	0.087532	0.307249	-81.832095	6.601620	57.411802
42301		-1.189230	-9.646851	1.367555	-0.020444	0.085904	0.299597	-81.842575	6.777612	57.385772
42302		-1.131125	-9.666011	1.371343	-0.042700	0.085185	0.300720	-81.865445	6.955874	57.360249
42303		-1.168096	-9.696106	1.341188	-0.032074	0.082765	0.312456	-81.882417	7.138890	57.336929
42304		-1.205412	-9.643799	1.461277	-0.034622	0.084638	0.324593	-81.900562	7.330619	57.313529
42305		-1.267700	-9.569732	1.465576	-0.046136	0.091610	0.325926	-81.926275	7.521972	57.286098
42306		-1.291792	-9.624217	1.414885	-0.070380	0.087448	0.337188	-81.965160	7.721039	57.261909
42307		-1.344914	-9.586714	1.345073	-0.066533	0.091927	0.346942	-82.002578	7.924307	57.235729
42308		-1.276780	-9.515438	1.525504	-0.077148	0.091070	0.349208	-82.045708	8.130440	57.210136
42309		-1.329095	-9.624663	1.362213	-0.110472	0.106010	0.365772	-82.109482	8.345464	57.177019
42310		-1.438874	-9.621338	1.323955	-0.099373	0.105172	0.380814	-82.166414	8.570571	57.145403
42311		-1.415826	-9.636198	1.388838	-0.118000	0.109763	0.401057	-82.234742	8.805846	57.112401
42312		-1.408647	-9.661158	1.421285	-0.142693	0.119305	0.421946	-82.317606	9.055305	57.075286
42313		-1.472266	-9.643392	1.370238	-0.157517	0.134205	0.446903	-82.410655	9.318381	57.031034
42314		-1.419369	-9.711522	1.368575	-0.193439	0.154421	0.480377	-82.525667	9.603520	56.977252
42315		-1.520088	-9.912935	1.137127	-0.208425	0.165296	0.536892	-82.650407	9.919850	56.920708
42316		-1.497491	-9.851772	1.297403	-0.189611	0.183429	0.601686	-82.765419	10.275782	56.857836
42317		-1.603798	-9.903130	1.290463	-0.212810	0.202034	0.671821	-82.895710	10.671205	56.788379
42318		-1.642754	-9.934147	1.283199	-0.193408	0.213786	0.737260	-83.015566	11.106051	56.715913
42319		-1.861169	-9.848190	1.435582	-0.215459	0.217673	0.812985	-83.148630	11.582542	56.645346
42320		-1.730354	-9.984226	1.296400	-0.227925	0.232152	0.881501	-83.290045	12.100331	56.569901
42321		-1.890598	-10.023364	1.195944	-0.233318	0.241695	0.937890	-83.436338	12.649153	56.491146
42322		-1.964937	-9.979641	1.150647	-0.203560	0.244479	1.013300	-83.565514	13.242350	56.414355
42323		-2.050037	-10.067623	1.065062	-0.210734	0.245477	1.084062	-83.699442	13.874279	56.339911
42324		-2.217555	-9.976014	1.065446	-0.177739	0.248289	1.145205	-83.814717	14.542449	56.266227
42325		-2.320684	-10.227326	1.023720	-0.184688	0.237392	1.208114	-83.932983	15.244243	56.201203
42326		-2.400171	-10.213747	1.022343	-0.140218	0.210289	1.254845	-84.021466	15.972269	56.153709
42327		-2.543735	-9.611648	1.147575	-0.146612	0.206100	1.318947	-84.113179	16.735157	56.111175
42328		-2.648703	-9.676210	0.964287	-0.158896	0.202169	1.371234	-84.210889	17.528844	56.072806
42329		-2.800308	-9.454373	1.179528	-0.166452	0.208413	1.415089	-84.314693	18.346531	56.031575
42330		-2.922804	-9.567488	0.971169	-0.157385	0.217367	1.453867	-84.415003	19.188010	55.985658
42331		-3.023654	-9.413418	1.005329	-0.155961	0.222234	1.497116	-84.516307	20.053095	55.937384
42332		-3.132208	-9.440146	0.981525	-0.142270	0.239397	1.541290	-84.613456	20.945428	55.879500
42333		-3.320458	-9.036467	1.030545	-0.116367	0.257055	1.574624	-84.700983	21.856430	55.810661
42334		-3.393474	-9.275311	1.025944	-0.161236	0.267230	1.611283	-84.817235	22.789922	55.735593
42335		-3.624617	-9.198037	0.994849	-0.136063	0.291565	1.650229	-84.926761	23.745589	55.644888
42336		-3.793184	-9.123251	1.068258	-0.174888	0.303746	1.673739	-85.063262	24.716209	55.545114
42337		-3.909713	-9.366912	0.971444	-0.166161	0.321127	1.698770	-85.202310	25.700637	55.432164
42338		-4.087319	-9.083438	0.904004	-0.117983	0.344076	1.713955	-85.322620	26.695638	55.302200
42339		-4.256196	-9.224742	0.777443	-0.105053	0.349000	1.724306	-85.440829	27.695482	55.165925
42340		-4.442210	-8.984911	0.689826	-0.047814	0.363247	1.735816	-85.533513	28.703315	55.017895
42341		-4.597922	-8.923263	0.727106	-0.036079	0.359734	1.742511	-85.622580	29.713611	54.869000
42342		-4.704025	-8.853498	0.838227	-0.003694	0.373330	1.741342	-85.701032	30.724587	54.708095
42343		-4.884935	-8.504562	0.919318	0.015797	0.398222	1.733054	-85.781834	31.730743	54.526556
42344		-4.861857	-8.719238	1.058313	-0.005806	0.418992	1.743501	-85.886489	32.744386	54.327869
42345		-5.098142	-8.988294	1.081392	0.086617	0.479045	1.749219	-85.966374	33.762565	54.083904
42346		-5.211839	-8.929683	1.065689	0.124960	0.524449	1.776126	-86.046901	34.798473	53.805498
42347		-5.294937	-9.376617	0.884154	0.182675	0.572646	1.807764	-86.120841	35.853216	53.489242
42348		-5.327847	-9.460894	1.031763	0.272320	0.618560	1.859545	-86.168796	36.939763	53.137542
42349		-5.362162	-9.699606	1.342273	0.415492	0.665394	1.912457	-86.163218	38.057540	52.748633
42350		-5.282904	-9.491923	1.445306	0.608970	0.749798	1.965470	-86.092212	39.209617	52.295913
42351		-5.550099	-9.093913	1.494351	0.724507	0.854385	2.037005	-86.014081	40.406648	51.762899
42352		-6.329948	-9.729302	1.597836	0.784251	0.973005	2.095523	-85.971664	41.642624	51.135636
42353		-6.600154	-10.790809	1.158323	1.156708	1.044095	2.088475	-85.769826	42.878197	50.443928
42354		-5.544799	-9.166395	1.430909	1.269158	1.134831	2.124962	-85.566865	44.140422	49.675478
42355		-5.902110	-8.122345	0.910269	1.368511	1.226237	2.170434	-85.377689	45.434584	48.824938
42356		-6.570537	-7.488351	0.118302	1.242939	1.231199	2.209036	-85.285004	46.752361	47.958387
42357		-6.971516	-6.675333	-0.070687	1.029029	1.200985	2.231757	-85.325093	48.082120	47.097421
42358		-7.215611	-6.373129	-0.527099	0.773791	1.136189	2.269673	-85.499445	49.429287	46.269562
42359		-7.560618	-5.963081	-0.813896	0.463220	1.045408	2.321391	-85.825831	50.799851	45.492806
42360		-7.929607	-5.838212	-1.051874	0.148982	0.936482	2.387638	-86.291810	52.200369	44.782398
42361		-7.821652	-5.543575	-1.086872	-0.174948	0.818896	2.471276	-86.898170	53.640658	44.142711
42362		-8.106878	-5.129881	-0.902243	-0.524459	0.706333	2.558000	-87.662873	55.122715	43.566161
42363		-8.277083	-5.142270	-0.685327	-0.923254	0.603387	2.629821	-88.627716	56.638828	43.034614
42364		-8.340662	-5.520742	-0.290804	-1.203605	0.517813	2.685089	-89.744580	58.180223	42.522343
42365		-8.601878	-6.058780	0.088764	-1.454701	0.458099	2.746287	-91.030021	59.750795	41.990015
42366		-8.522085	-7.109053	-0.125811	-1.538778	0.400669	2.793593	-92.400454	61.342596	41.423736
42367		-8.511432	-7.094509	-0.059820	-1.548628	0.348688	2.861683	-93.832429	62.967750	40.803043
42368		-8.393442	-7.234485	-0.332276	-1.528473	0.291275	2.941703	-95.317178	64.633003	40.119529
42369		-8.432170	-7.058467	-0.669247	-1.496190	0.220885	3.028177	-96.852313	66.343595	39.369970
42370		-8.287842	-6.869327	-0.896033	-1.488523	0.125424	3.134897	-98.442044	68.112281	38.566187
42371		-7.948141	-6.706550	-1.054668	-1.481580	0.049180	3.292127	-100.158211	69.967903	37.633087
42372		-7.818686	-6.127777	-1.306252	-1.411123	-0.058060	3.443608	-101.965832	71.908297	36.571589
42373		-7.827942	-5.629075	-1.549008	-1.364737	-0.174503	3.559947	-103.916207	73.917284	35.345007
42374		-7.735312	-5.293125	-1.497632	-1.266571	-0.285172	3.662426	-106.072293	75.983779	33.859591
42375		-8.201757	-5.385553	-1.926448	-1.204915	-0.410352	3.755429	-108.572270	78.106687	31.998750
42376		-7.856655	-4.222166	-1.516554	-1.219393	-0.635839	3.747042	-111.307350	80.246067	29.921444
42377		-9.886110	-8.198179	-0.737727	-1.715888	-1.250300	2.849510	-111.872651	82.026218	30.340034
42378		-10.246867	-12.131321	-0.195351	-2.124329	-1.627685	1.067029	-108.032122	82.916002	35.437122
42379		-6.098326	-13.427631	-1.239173	-2.255700	-1.887630	-0.892417	-100.033767	82.680002	44.797181
42380		-4.286720	-12.326711	-0.937173	-2.034991	-1.858068	-2.709360	-92.502247	81.243767	53.575712
42381		-6.274403	-12.437918	-0.432928	-1.422483	-1.817982	-4.062177	-87.377002	78.910926	59.600581
42382		-7.553753	-11.238103	0.702595	-0.656274	-1.852158	-4.730424	-83.909948	76.119926	63.531401
42383		-7.931556	-10.359414	0.981389	0.119964	-1.867961	-4.603984	-81.203892	73.363926	66.259820
42384		-7.929605	-7.767767	0.987048	0.953694	-1.879579	-3.908646	-78.589265	70.962802	68.427875
42385		-7.534287	-4.653125	0.619733	1.581983	-1.854404	-3.037474	-75.891882	69.029748	70.328899
42386		-6.476688	-3.207586	0.186290	1.793201	-1.765139	-2.278172	-73.294447	67.495381	72.015072
42387		-5.594741	-3.260434	-0.145360	1.674349	-1.600012	-1.845083	-71.050298	66.207602	73.407598
42388		-4.848697	-3.835677	-0.204993	1.322821	-1.426207	-1.848687	-69.394441	64.927375	74.390193
42389		-4.046701	-4.890854	0.049668	0.894393	-1.268999	-2.211364	-68.420954	63.483026	74.897441
42390		-3.437858	-6.327872	0.376850	0.627938	-1.137980	-2.702238	-68.007019	61.796319	74.955032
42391		-3.255837	-7.296100	0.807558	0.592287	-0.999237	-3.149229	-67.928488	59.908413	74.651509
42392		-3.344587	-6.826025	1.233018	0.696790	-0.855607	-3.459903	-68.013010	57.879317	74.083382
42393		-3.469769	-6.554710	1.409544	0.799438	-0.700432	-3.572364	-68.153093	55.830077	73.363978
42394		-3.917266	-5.985326	1.608999	0.905156	-0.534993	-3.574947	-68.311687	53.806029	72.532350
42395		-4.293986	-5.186009	1.657668	0.893056	-0.404725	-3.552547	-68.501221	51.827497	71.646919
42396		-4.515736	-4.418344	1.611679	0.763140	-0.302098	-3.506140	-68.767533	49.885134	70.736620
42397		-4.276970	-4.572745	1.562245	0.500746	-0.232501	-3.439803	-69.147963	47.997263	69.846032
42398		-4.199346	-5.464423	1.554965	0.217541	-0.159748	-3.464099	-69.682369	46.098354	68.942274
42399		-4.042532	-6.757802	1.694620	0.007566	-0.071646	-3.615151	-70.347615	44.137083	67.991409
42400		-3.831909	-7.563497	1.782208	-0.048640	0.065045	-3.781237	-71.079164	42.095507	66.958324
42401		-3.691750	-7.684842	1.945436	-0.050233	0.234354	-3.918360	-71.837817	40.008974	65.840693
42402		-3.805793	-7.363112	2.035748	-0.040331	0.395587	-3.965988	-72.596547	37.905016	64.666760
42403		-3.967960	-7.073236	1.986627	-0.038362	0.519610	-3.884032	-73.318593	35.863849	63.493485
42404		-4.332104	-7.049003	2.212815	-0.058515	0.592717	-3.709672	-73.995590	33.910134	62.363769
42405		-4.805088	-7.552821	2.357972	-0.153389	0.570111	-3.570590	-74.642972	32.027991	61.327969
42406		-5.439101	-8.521502	2.626365	-0.270395	0.462183	-3.518729	-75.266100	30.140008	60.415427
42407		-5.959823	-9.320924	2.882487	-0.342666	0.282805	-3.517433	-75.827688	28.228114	59.657771
42408		-6.117924	-10.032733	2.958794	-0.376561	0.080637	-3.493819	-76.312787	26.286581	59.062750
42409		-5.920930	-10.744729	2.955224	-0.361790	-0.116716	-3.459512	-76.704575	24.342740	58.621399
42410		-5.557745	-11.224938	2.677172	-0.284864	-0.266962	-3.468571	-76.996236	22.363091	58.288950
42411		-5.100040	-11.268876	2.273345	-0.235326	-0.380454	-3.512184	-77.219917	20.352056	58.033345
42412		-4.681760	-10.936772	1.802011	-0.253559	-0.442535	-3.548511	-77.432199	18.303296	57.820698
42413		-4.289294	-10.720082	1.306981	-0.316800	-0.435109	-3.504514	-77.668944	16.288024	57.620664
42414		-3.850653	-10.687706	0.953275	-0.390156	-0.340552	-3.387127	-77.949692	14.340512	57.391548
42415		-3.540690	-10.855600	0.694298	-0.478216	-0.198135	-3.266426	-78.285229	12.484896	57.107997
42416		-3.334517	-11.137460	0.508279	-0.601157	-0.043666	-3.167341	-78.696083	10.692383	56.761525
42417		-3.210537	-11.679025	0.677030	-0.734007	0.095902	-3.094254	-79.180940	8.962141	56.360025
42418		-3.148780	-12.366426	0.988580	-0.872910	0.193307	-3.072046	-79.739602	7.242830	55.923059
42419		-3.175179	-13.056462	1.379968	-0.964830	0.255352	-3.083910	-80.338687	5.526949	55.468989
42420		-3.320742	-13.534448	1.747400	-0.952704	0.281404	-3.101470	-80.918183	3.790985	55.017397
42421		-3.628422	-13.525972	2.105313	-0.899167	0.261279	-3.090992	-81.450662	2.062938	54.596001
42422		-3.929272	-13.274754	2.359058	-0.836924	0.194520	-3.043556	-81.934693	0.344914	54.232120
42423		-4.231451	-13.124384	2.507368	-0.785206	0.086745	-2.947888	-82.377949	-1.322442	53.950883
42424		-4.474734	-13.130138	2.653061	-0.715995	-0.052099	-2.827306	-82.778148	-2.940723	53.769607
42425		-4.677463	-12.781907	2.712714	-0.629322	-0.219308	-2.695120	-83.130179	-4.489610	53.703273
42426		-4.797576	-12.197842	2.719419	-0.573892	-0.404755	-2.554431	-83.460851	-5.977632	53.761514
42427		-4.753293	-11.512066	2.519019	-0.609396	-0.589985	-2.409338	-83.827046	-7.387983	53.944410
42428		-4.892597	-11.349333	2.323423	-0.744625	-0.748202	-2.269877	-84.291218	-8.732492	54.237664
42429		-5.117103	-11.869367	2.232719	-0.926181	-0.897630	-2.169042	-84.882584	-10.019228	54.636293
42430		-5.038804	-12.668817	2.233424	-1.060203	-1.014831	-2.175244	-85.575735	-11.315293	55.119033
42431		-4.699313	-13.122088	2.286490	-0.981992	-1.100075	-2.271616	-86.247624	-12.659486	55.665397
42432		-4.305181	-12.424154	2.429479	-0.746200	-1.128283	-2.296237	-86.805177	-14.016635	56.245242
42433		-4.010621	-10.917090	2.287370	-0.501739	-1.095330	-2.158515	-87.235075	-15.285387	56.825106
42434		-3.905345	-9.684637	1.976531	-0.328737	-1.033463	-1.882584	-87.573070	-16.393591	57.387788
42435		-4.057621	-9.049950	1.615704	-0.193120	-0.948559	-1.594058	-87.832531	-17.329044	57.915505
42436		-4.051171	-8.773231	1.320987	-0.089290	-0.866734	-1.355661	-88.028844	-18.126203	58.405643
42437		-3.893052	-8.413861	1.093114	-0.053185	-0.769915	-1.188133	-88.194392	-18.822202	58.845362
42438		-3.582293	-8.147477	0.839729	-0.060712	-0.667609	-1.056725	-88.350809	-19.441064	59.229273
42439		-3.289529	-7.760213	0.648868	-0.099236	-0.546202	-0.907816	-88.509848	-19.970669	59.544955
42440		-2.774657	-7.326596	0.464970	-0.132781	-0.418112	-0.710212	-88.665486	-20.384748	59.787940
42441		-2.181579	-7.286235	0.402283	-0.150152	-0.258317	-0.471394	-88.799885	-20.659138	59.938079
42442		-1.415983	-7.489667	0.407253	-0.170470	-0.087653	-0.253314	-88.910650	-20.805993	59.987184
42443		-0.765034	-7.889339	0.447460	-0.166155	0.099723	-0.109028	-88.978877	-20.868497	59.923352
42444		-0.323701	-8.317381	0.433598	-0.137637	0.280377	-0.023711	-88.991538	-20.879490	59.749703
42445		-0.230595	-8.528574	0.533258	-0.107770	0.423724	0.013261	-88.955979	-20.868644	59.488585
42446		-0.234933	-8.415781	0.674443	-0.061869	0.527945	0.045284	-88.871520	-20.836796	59.163978
42447		-0.409224	-8.306640	0.623306	-0.009396	0.584686	0.102187	-88.745316	-20.772388	58.805512
42448		-0.701526	-8.025949	0.678566	0.010550	0.592333	0.176645	-88.606893	-20.662758	58.443747
42449		-1.147525	-7.825407	0.675358	-0.010291	0.563159	0.257533	-88.488256	-20.508160	58.101697
42450		-1.602202	-7.629677	0.611259	-0.057213	0.509792	0.343025	-88.409425	-20.302698	57.794314
42451		-2.041951	-7.405443	0.601313	-0.124312	0.428745	0.441306	-88.388251	-20.044168	57.538755
42452		-2.411136	-7.399917	0.667645	-0.185363	0.356396	0.581775	-88.419041	-19.703625	57.330053
42453		4.653816	-23.218886	-3.255057	-0.937854	0.526501	1.936362	-88.856115	-18.588405	57.037280
42454		13.493171	1.513879	3.934272	1.584937	0.405915	1.719721	-87.876544	-17.594690	56.820856
42455		11.836330	-12.144108	-5.787998	0.759885	0.492921	1.909469	-87.363872	-16.490928	56.571766
42456		1.743107	-7.671500	0.758876	0.930907	0.663601	1.807301	-86.732671	-15.436431	56.230909
42457		1.244312	-6.267540	1.867172	0.382137	0.797733	2.056250	-86.406890	-14.234086	55.830384
42458		2.241146	-7.935537	1.500237	0.210296	0.827803	2.244611	-86.187655	-12.919218	55.427504
42459		0.778094	-11.304762	1.513214	0.110105	0.768381	2.167521	-86.042657	-11.651370	55.062625
42460		0.111817	-10.798538	2.178052	0.316638	0.626351	1.979629	-85.802440	-10.493539	54.778617
42461		0.714623	-9.155934	2.263029	0.239847	0.533002	1.955897	-85.621872	-9.354213	54.553061
42462		0.626143	-9.129585	2.063901	0.129963	0.473738	2.013269	-85.514767	-8.182038	54.367963
42463		0.300935	-10.244930	1.796811	-0.023533	0.401851	2.081077	-85.505669	-6.976317	54.229112
42464		-0.371298	-13.309439	1.450129	0.161285	0.266625	2.154126	-85.402461	-5.732620	54.172838
42465		-0.331889	-13.024059	1.335478	0.299472	0.129185	2.061395	-85.228515	-4.550437	54.194165
42466		-0.010702	-11.632880	0.357506	0.213812	0.195807	1.825925	-85.099636	-3.497057	54.169046
42467		-0.162203	-11.326516	0.552602	0.276460	0.276147	1.684083	-84.933009	-2.523053	54.093693
42468		-0.492294	-11.107750	1.120934	0.374535	0.275126	1.714856	-84.711411	-1.528726	54.023878
42469		-0.781133	-10.629943	1.926072	0.417036	0.206553	1.672792	-84.467667	-0.564389	53.994966
42470		0.061622	-9.741978	1.812106	0.282292	0.159727	1.599212	-84.301321	0.358143	53.992097
42471		-2.352551	-13.777191	2.316296	-0.074515	0.085522	1.551556	-84.339221	1.246622	54.029856
42472		-2.150568	-14.322033	-0.687175	0.601224	-0.060690	0.983779	-83.987614	1.805652	54.120354
42473		-1.443760	-10.969370	2.024113	0.564677	-0.005947	0.573443	-83.658530	2.130967	54.157644
42474		-2.407303	-9.339270	2.850954	0.133799	-0.138209	0.366378	-83.573315	2.332794	54.258309
42475		-0.713993	-9.559679	1.470574	-0.303445	-0.193823	0.332306	-83.737417	2.508787	54.388363
42476		-0.529889	-11.059417	0.039931	0.074689	-0.039096	0.201170	-83.688334	2.623055	54.421842
42477		-0.685916	-9.235008	1.779315	0.050474	-0.036426	0.173051	-83.653740	2.718335	54.452074
42478		-0.873196	-9.398760	1.681286	-0.151612	-0.071044	0.159959	-83.733475	2.807114	54.501215
42479		-0.684168	-10.073101	0.863426	-0.167518	-0.058906	0.108299	-83.823268	2.864173	54.540067
42480		-0.577147	-9.776814	1.076251	-0.119918	-0.037493	0.086241	-83.885912	2.913175	54.565310
42481		-0.554911	-9.573964	1.256589	-0.154117	-0.051788	0.077766	-83.968270	2.953370	54.598102
42482		-0.495354	-9.664767	1.031546	-0.188238	-0.046117	0.082362	-84.069764	2.999710	54.627905
42483		-0.581082	-9.781061	0.983962	-0.173588	-0.045325	0.077578	-84.163430	3.040286	54.656867
42484		-0.650699	-9.832898	0.969112	-0.163527	-0.044536	0.062613	-84.250841	3.075544	54.684485
42485		-0.610553	-9.857270	0.868153	-0.127782	-0.039204	0.046621	-84.318518	3.098905	54.708066
42486		-0.614950	-9.880321	0.883688	-0.095538	-0.036330	0.040148	-84.367286	3.121878	54.729652
42487		-0.599338	-9.784792	0.934677	-0.079834	-0.037980	0.028514	-84.407570	3.135025	54.751476
42488		-0.647144	-9.858555	0.909487	-0.076258	-0.039559	0.025077	-84.445235	3.149248	54.774038
42489		-0.591027	-9.753892	0.926187	-0.047214	-0.032020	0.017169	-84.467043	3.156281	54.791814
42490		-0.530170	-9.748609	0.972749	-0.053445	-0.043762	0.022421	-84.491510	3.168771	54.816620
42491		-0.504266	-9.653206	1.004519	-0.057634	-0.040698	0.027300	-84.518976	3.181122	54.839904
42492		-0.567371	-9.768180	0.922968	-0.054792	-0.040214	0.027930	-84.544294	3.196949	54.862977
42493		-0.617283	-9.755138	0.950948	-0.062835	-0.039187	0.025201	-84.574783	3.208206	54.885272
42494		-0.574426	-9.727501	1.015234	-0.065553	-0.032040	0.022957	-84.606533	3.221650	54.903393
42495		-0.558956	-9.824065	0.858721	-0.060279	-0.030022	0.016313	-84.635872	3.228354	54.919963
42496		-0.581440	-9.833701	0.845494	-0.043109	-0.031108	0.019494	-84.654797	3.239874	54.937356
42497		-0.635783	-9.765983	0.900051	-0.022941	-0.024002	0.015024	-84.662936	3.246174	54.950413
42498		-0.573665	-9.738163	0.924030	-0.000286	-0.031727	0.007816	-84.657344	3.250992	54.967534
42499		-0.542998	-9.633214	1.013923	-0.024509	-0.032180	0.008406	-84.666134	3.253082	54.984910
42500		-0.603647	-9.652056	1.038801	-0.059981	-0.026986	0.011536	-84.694878	3.260263	54.999519
42501		-0.560255	-9.697912	0.971522	-0.068594	-0.024420	0.010231	-84.729171	3.263819	55.012555
42502		-0.461496	-9.597878	1.029517	-0.093193	-0.019799	0.016728	-84.777146	3.274344	55.023325
42503		-0.647297	-9.759133	0.946410	-0.119947	-0.017744	0.018547	-84.841052	3.283013	55.032972
42504		-0.645935	-9.801082	0.830817	-0.117786	-0.015709	0.007362	-84.903266	3.288407	55.040908
42505		-0.565827	-9.796788	0.826148	-0.093960	-0.014238	0.005494	-84.952434	3.289825	55.047870
42506		-0.588090	-9.829400	0.834791	-0.092769	-0.021484	0.015398	-85.000109	3.299518	55.059506
42507		-0.618966	-9.816602	0.815027	-0.075222	-0.019469	0.013708	-85.038344	3.305374	55.069867
42508		-0.598794	-9.807929	0.816409	-0.068982	-0.019966	0.006899	-85.072468	3.310294	55.080205
42509		-0.569769	-9.821835	0.821833	-0.059422	-0.021020	0.008577	-85.101613	3.313158	55.091193
42510		-0.594724	-9.840334	0.754146	-0.056737	-0.024124	0.011337	-85.128576	3.320403	55.104124
42511		-0.617067	-9.872523	0.767852	-0.025175	-0.018507	0.011386	-85.138172	3.325001	55.113810
42512		-0.563363	-9.822482	0.787709	-0.016211	-0.017975	0.007845	-85.142139	3.330544	55.123052
42513		-0.601155	-9.895066	0.746146	0.008305	-0.018003	0.011114	-85.132568	3.335012	55.132436
42514		-0.617822	-9.754806	0.847816	0.028423	-0.018549	0.014815	-85.110934	3.344485	55.142348
42515		-0.572121	-9.790461	0.842187	0.016579	-0.019593	0.017758	-85.096548	3.352663	55.152969
42516		-0.570350	-9.758519	0.872098	0.024069	-0.019118	0.021875	-85.077365	3.366118	55.163557
42517		-0.569061	-9.726530	0.902071	0.018375	-0.016086	0.027826	-85.062034	3.380210	55.172674
42518		-0.533006	-9.716807	0.866622	0.014586	-0.018175	0.033469	-85.048271	3.400305	55.183303
42519		-0.623171	-9.735329	0.965409	0.019430	-0.014657	0.041460	-85.032338	3.422245	55.192288
42520		-0.572439	-9.662197	0.961619	-0.010745	-0.019803	0.049712	-85.032968	3.451509	55.204662
42521		-0.549724	-9.770463	0.865382	-0.025627	-0.016756	0.055278	-85.042727	3.481232	55.215535
42522		-0.655748	-9.870194	0.797382	-0.016221	-0.013237	0.060157	-85.046672	3.516763	55.224668
42523		-0.661382	-9.869854	0.796934	0.005353	-0.013777	0.056189	-85.038771	3.547155	55.233880
42524		-0.632814	-9.828539	0.811913	0.025558	-0.018912	0.050042	-85.018607	3.576618	55.245765
42525		-0.659691	-9.751060	0.859286	0.039704	-0.015881	0.049120	-84.990961	3.602864	55.255848
42526		-0.631034	-9.732364	0.901984	0.028020	-0.017398	0.049399	-84.969435	3.632012	55.266859
42527		-0.656975	-9.740861	0.896470	0.026315	-0.016922	0.053130	-84.949398	3.660486	55.277761
42528		-0.628915	-9.722210	0.938231	0.022507	-0.019017	0.058789	-84.930924	3.694889	55.290192
42529		-0.658910	-9.739662	0.878304	0.017710	-0.018492	0.057971	-84.915730	3.726041	55.302257
42530		-0.642730	-9.816083	0.836605	0.025904	-0.028331	0.063568	-84.894926	3.762673	55.320279
42531		-0.728594	-9.797124	0.808829	0.040939	-0.027847	0.055857	-84.866061	3.792130	55.337610
42532		-0.716774	-9.732966	0.846236	0.051775	-0.024257	0.046427	-84.830635	3.819161	55.352454
42533		-0.678840	-9.736847	0.894197	0.057018	-0.030395	0.038689	-84.792502	3.838669	55.370387
