// General information: 
//  MT Manager version: 2022.2.0 
//  XDA version: 2022.2.0 build 7381 rev 124627 built on 2023-07-19
// Device information: 
//  DeviceId: 00B4BA83
//  ProductCode: MTW2-3A7G6
//  Firmware Version: 4.6.0
//  Hardware Version: 2.0.0
// Device settings: 
//  Filter Profile: human(46.1)
//  Option Flags: Orientation Smoother Disabled, Position/Velocity Smoother Disabled, Continuous Zero Rotation Update Disabled, AHS Disabled, ICC Disabled
// Coordinate system: ENU
PacketCounter	SampleTimeFine	Acc_X	Acc_Y	Acc_Z	Gyr_X	Gyr_Y	Gyr_Z	Roll	Pitch	Yaw
41280		9.434386	1.056342	-2.254021	-0.001127	-0.000285	0.008313	154.890873	-75.208697	-80.958803
41281		9.444830	1.064081	-2.233389	0.004321	0.004598	0.006147	154.911955	-75.212020	-80.976247
41282		9.472013	1.042469	-2.237877	0.001140	0.006020	0.006689	154.931456	-75.216284	-80.991596
41283		9.472121	1.041736	-2.237763	0.002236	-0.003253	0.007988	154.962200	-75.215975	-81.020267
41284		9.429287	1.076128	-2.260043	0.005545	0.000514	0.009733	154.994919	-75.218070	-81.048171
41285		9.434175	1.067346	-2.201106	0.002574	-0.002977	0.009456	155.028493	-75.218251	-81.079570
41286		9.460411	1.099587	-2.198955	0.002026	0.001660	0.008806	155.055795	-75.220784	-81.106972
41287		9.424053	1.057088	-2.221566	-0.000790	-0.000008	0.009781	155.085372	-75.222578	-81.136229
41288		9.455888	1.066416	-2.212744	-0.004767	-0.001461	0.012602	155.118868	-75.224510	-81.175767
41289		9.445641	1.056937	-2.233352	-0.007921	-0.003405	0.012109	155.152064	-75.225091	-81.212992
41290		9.461630	1.041541	-2.206369	-0.006448	0.000023	0.012764	155.183410	-75.227722	-81.251594
41291		9.478348	1.011011	-2.232007	-0.005719	-0.006160	0.013630	155.223387	-75.227224	-81.294528
41292		9.478323	1.048779	-2.277771	-0.006542	-0.005668	0.016944	155.268762	-75.227675	-81.343422
41293		9.457045	1.006247	-2.221284	-0.009046	-0.003692	0.020421	155.317999	-75.230070	-81.397902
41294		9.451608	1.027266	-2.228218	-0.008526	-0.004963	0.022105	155.371062	-75.232048	-81.459626
41295		9.435891	1.039651	-2.255482	-0.009711	-0.001381	0.024986	155.426886	-75.236711	-81.521311
41296		9.451992	1.023173	-2.228472	-0.008550	-0.001597	0.023139	155.479084	-75.240803	-81.581800
41297		9.446610	1.044158	-2.235263	-0.001549	-0.003393	0.018525	155.528673	-75.242853	-81.632200
41298		9.441148	1.065334	-2.242339	-0.000026	-0.006701	0.017110	155.579017	-75.243041	-81.683882
41299		9.441207	1.063569	-2.242928	-0.005345	-0.006390	0.021562	155.635161	-75.244222	-81.743309
41300		9.451615	1.070132	-2.223124	-0.002504	-0.008093	0.019551	155.689679	-75.244148	-81.803140
41301		9.451638	1.068408	-2.223852	-0.008839	-0.008608	0.019601	155.741926	-75.243680	-81.860608
41302		9.441350	1.058133	-2.244895	-0.012499	-0.006416	0.024925	155.799715	-75.245317	-81.929916
41303		9.452509	1.010439	-2.232088	-0.020513	-0.005443	0.025138	155.853451	-75.247774	-81.995840
41304		9.457479	1.039669	-2.218665	-0.022810	-0.008381	0.027795	155.912234	-75.249266	-82.075748
41305		9.463769	0.999829	-2.265015	-0.017513	-0.005328	0.024378	155.966112	-75.251573	-82.140040
41306		9.457717	1.035720	-2.219501	-0.017332	-0.006875	0.024593	156.020699	-75.253277	-82.209938
41307		9.458447	1.018892	-2.272553	-0.018990	-0.008756	0.023720	156.075480	-75.253605	-82.276038
41308		9.415725	1.052881	-2.295088	-0.014371	-0.006250	0.017369	156.116622	-75.253743	-82.333172
41309		9.421238	1.028784	-2.288967	-0.014711	-0.006524	0.015901	156.156326	-75.253402	-82.381147
41310		9.399805	1.026114	-2.277871	-0.016069	-0.007619	0.010031	156.183065	-75.251195	-82.423627
41311		9.415585	1.011014	-2.251483	-0.015889	-0.009166	0.010245	156.213137	-75.248149	-82.462342
41312		9.442334	0.989399	-2.257330	-0.013052	-0.010868	0.008233	156.241572	-75.243829	-82.501041
41313		9.436757	1.011837	-2.264490	-0.012270	-0.004623	0.006996	156.263240	-75.242406	-82.528921
41314		9.479425	0.975817	-2.243070	-0.014729	-0.009381	0.008398	156.289540	-75.238801	-82.565696
41315		9.457918	1.012821	-2.277462	-0.010394	-0.011025	0.006005	156.315886	-75.233785	-82.597304
41316		9.441826	0.987669	-2.260214	-0.011212	-0.010538	0.009320	156.348138	-75.230013	-82.630509
41317		9.457596	0.972455	-2.233950	-0.009732	-0.007114	0.009979	156.379332	-75.227954	-82.666739
41318		9.425692	0.961490	-2.243579	-0.007356	-0.011423	0.011708	156.419111	-75.223878	-82.709500
41319		9.457371	0.970688	-2.235674	-0.009033	-0.009935	0.011875	156.456902	-75.220760	-82.752139
41320		9.441419	0.984098	-2.263469	-0.011008	-0.009236	0.017037	156.502193	-75.219223	-82.807422
41321		9.457331	1.007353	-2.282320	-0.004852	-0.007183	0.016770	156.549721	-75.218652	-82.857655
41322		9.435930	1.004075	-2.271381	-0.010666	-0.008964	0.018504	156.598600	-75.217884	-82.913295
41323		9.483655	1.037259	-2.281524	-0.005652	-0.010065	0.019044	156.652673	-75.216292	-82.970773
41324		9.467679	1.011227	-2.264139	-0.014863	-0.008351	0.014649	156.690508	-75.214498	-83.021064
41325		9.414428	0.998306	-2.261967	-0.016361	-0.008409	0.015029	156.728997	-75.212845	-83.068771
41326		9.462619	0.977928	-2.279334	-0.019357	-0.008527	0.015790	156.766733	-75.211096	-83.120147
41327		9.430321	1.020891	-2.281255	-0.022531	-0.007097	0.016337	156.803155	-75.210414	-83.169373
41328		9.436265	0.982155	-2.327812	-0.020854	-0.008587	0.016169	156.841186	-75.209175	-83.217514
41329		9.435762	0.995945	-2.275655	-0.019889	-0.003888	0.015151	156.874010	-75.209901	-83.261452
41330		9.451671	1.019642	-2.294404	-0.020661	-0.013502	0.015338	156.914274	-75.205464	-83.316300
41331		9.441563	0.956363	-2.323084	-0.030359	-0.007662	0.016772	156.947533	-75.204550	-83.366895
41332		9.451954	0.963819	-2.303192	-0.014045	-0.008842	0.011329	156.979815	-75.201680	-83.407575
41333		9.462278	0.971465	-2.283512	-0.020542	-0.011163	0.010129	157.008383	-75.197418	-83.447500
41334		9.451304	1.016591	-2.297265	-0.001720	-0.008109	0.009750	157.043699	-75.194788	-83.485533
41335		9.456677	0.992980	-2.291312	-0.011922	-0.004355	0.008465	157.068098	-75.193736	-83.516040
41336		9.435295	0.990691	-2.279881	-0.013597	-0.002865	0.008634	157.090321	-75.193485	-83.546852
41337		9.414353	0.973494	-2.321201	-0.015199	-0.008632	0.013177	157.125849	-75.191218	-83.590813
41338		9.430136	0.958243	-2.294914	-0.016745	-0.008164	0.007095	157.147489	-75.187649	-83.621358
41339		9.435473	0.934752	-2.289022	-0.015376	-0.007086	0.012965	157.181169	-75.186140	-83.663512
41340		9.435024	0.987999	-2.282170	-0.009373	-0.010220	0.010396	157.215697	-75.182531	-83.702685
41341		9.456310	0.989023	-2.294537	-0.012722	-0.007241	0.010736	157.246552	-75.180433	-83.740346
41342		9.456194	0.949105	-2.249872	-0.018430	-0.003309	0.008311	157.265547	-75.179860	-83.771498
41343		9.456657	0.933905	-2.302550	-0.023735	-0.003004	0.012770	157.290602	-75.180444	-83.809686
41344		9.440669	0.908437	-2.284827	-0.015197	-0.008638	0.013174	157.326220	-75.178123	-83.850799
41345		9.445936	0.884654	-2.279300	-0.016506	-0.013609	0.012719	157.364149	-75.173076	-83.898021
41346		9.465947	0.968956	-2.179428	-0.004350	-0.014695	0.009879	157.404383	-75.166694	-83.938697
41347		9.455355	0.999159	-2.246161	-0.015643	-0.014621	0.015865	157.449866	-75.161786	-83.993225
41348		9.470964	0.983442	-2.220896	-0.018783	-0.023283	0.013275	157.494989	-75.151786	-84.051924
41349		9.449288	0.926939	-2.219711	-0.025700	-0.041676	0.011622	157.548468	-75.131603	-84.120691
41350		9.469711	0.928165	-2.235622	-0.024806	-0.052786	0.011621	157.611126	-75.105506	-84.199101
41351		9.484515	0.912919	-2.213697	-0.024794	-0.056155	0.010571	157.674489	-75.077384	-84.277576
41352		9.472876	0.904238	-2.239084	-0.026296	-0.052853	0.012001	157.737062	-75.051262	-84.355576
41353		9.461502	0.881266	-2.316813	-0.025032	-0.050713	0.004946	157.784212	-75.024764	-84.417429
41354		9.455463	0.874827	-2.432968	-0.009834	-0.048861	0.008831	157.845228	-75.000099	-84.487885
41355		9.459755	0.850739	-2.431317	0.009578	-0.051006	0.015505	157.932913	-74.975687	-84.571189
41356		9.415728	0.860119	-2.360454	0.021914	-0.057013	0.011798	158.024748	-74.947085	-84.651415
41357		9.440895	0.905894	-2.310972	0.027895	-0.053422	0.011308	158.115970	-74.920423	-84.727535
41358		9.418607	0.887709	-2.356933	0.029734	-0.049736	0.013438	158.208552	-74.896139	-84.808159
41359		9.422814	0.916581	-2.347763	0.039927	-0.046779	0.016782	158.311659	-74.874109	-84.889467
41360		9.437881	0.899143	-2.325872	0.040979	-0.049347	0.020132	158.423788	-74.851330	-84.978770
41361		9.447557	0.889650	-2.363230	0.046521	-0.051747	0.022323	158.544859	-74.827733	-85.074793
41362		9.403752	0.907520	-2.442677	0.044760	-0.055979	0.026655	158.676522	-74.802630	-85.181323
41363		9.397188	0.926825	-2.454924	0.051103	-0.058863	0.025524	158.811226	-74.775785	-85.288775
41364		9.385220	0.929831	-2.429268	0.049801	-0.070582	0.022981	158.948245	-74.742456	-85.403376
41365		9.373047	0.987326	-2.396557	0.052892	-0.068134	0.016996	159.073325	-74.708770	-85.499823
41366		9.435109	1.029145	-2.484139	0.065752	-0.065844	0.005358	159.181028	-74.673509	-85.568554
41367		9.406759	1.102894	-2.478060	0.073243	-0.062712	-0.008260	159.263548	-74.637500	-85.608808
41368		9.421073	1.142028	-2.450665	0.056274	-0.065916	-0.019406	159.315860	-74.597665	-85.633772
41369		9.451548	1.114001	-2.403654	0.036918	-0.061425	-0.031215	159.331581	-74.557684	-85.626337
41370		9.423243	1.029736	-2.418905	0.018616	-0.059495	-0.039664	159.318516	-74.516997	-85.602707
41371		9.400935	1.007291	-2.314802	0.020194	-0.053734	-0.044226	159.293979	-74.478503	-85.563435
41372		9.366927	0.986146	-2.380878	0.013863	-0.054232	-0.044127	159.266069	-74.440093	-85.526352
41373		9.397075	0.930481	-2.437521	0.030761	-0.050505	-0.039475	159.254672	-74.404286	-85.494422
41374		9.400977	0.910245	-2.436109	0.035348	-0.050861	-0.034192	159.255723	-74.369532	-85.477191
41375		9.441810	0.915643	-2.465367	0.035811	-0.054483	-0.027306	159.273515	-74.334062	-85.472557
41376		9.419046	0.915343	-2.458860	0.035916	-0.055002	-0.020846	159.303247	-74.299811	-85.484263
41377		9.407495	0.937960	-2.379966	0.028206	-0.062819	-0.015956	159.344182	-74.262169	-85.508197
41378		9.416189	0.931790	-2.418573	0.030172	-0.066382	-0.009464	159.401338	-74.224042	-85.546013
41379		9.444919	0.950356	-2.566854	0.040304	-0.058993	0.001094	159.478441	-74.191871	-85.600339
41380		9.433019	0.955776	-2.540895	0.038581	-0.066590	0.004413	159.564778	-74.156433	-85.670011
41381		9.426749	0.938058	-2.508277	0.011841	-0.059007	0.014857	159.651039	-74.126959	-85.750829
41382		9.410023	0.857653	-2.502310	-0.006098	-0.056292	0.020646	159.734368	-74.100178	-85.845987
41383		9.382955	0.837810	-2.456619	-0.012496	-0.055747	0.027017	159.826761	-74.074799	-85.947704
41384		9.392202	0.828428	-2.493581	-0.012391	-0.046128	0.036587	159.930983	-74.056639	-86.057386
41385		9.370402	0.823611	-2.485028	-0.005831	-0.031347	0.035606	160.026087	-74.045984	-86.157968
41386		9.364363	0.843349	-2.494557	-0.010308	-0.034890	0.035761	160.120205	-74.033550	-86.265789
41387		9.389614	0.858162	-2.548596	-0.009351	-0.033562	0.033687	160.210906	-74.021237	-86.363902
41388		9.351355	0.922451	-2.559202	0.003382	-0.037006	0.026141	160.296372	-74.005616	-86.452214
41389		9.377275	0.898910	-2.568212	-0.008513	-0.035101	0.024115	160.370271	-73.990549	-86.532362
41390		9.397798	0.898555	-2.583209	-0.009413	-0.027342	0.023051	160.436959	-73.979780	-86.602393
41391		9.419260	0.859353	-2.552461	-0.010491	-0.024787	0.019700	160.494306	-73.969386	-86.666508
41392		9.392128	0.825037	-2.556458	-0.016645	-0.030205	0.019008	160.549963	-73.956414	-86.734687
41393		9.419857	0.832632	-2.459701	-0.020892	-0.026202	0.016244	160.595631	-73.944563	-86.792858
41394		9.370800	0.836422	-2.496493	-0.039714	-0.025835	0.017898	160.632937	-73.933279	-86.856082
41395		9.401551	0.830466	-2.542994	-0.034329	-0.023309	0.020874	160.677549	-73.923848	-86.921174
41396		9.379288	0.866644	-2.577620	-0.023149	-0.015639	0.023080	160.727403	-73.919124	-86.986611
41397		9.401928	0.788358	-2.500503	-0.023146	-0.012263	0.024120	160.777176	-73.916251	-87.050409
41398		9.406400	0.802815	-2.540384	-0.019439	-0.014992	0.025204	160.833316	-73.912536	-87.116235
41399		9.410618	0.763245	-2.588129	-0.015146	-0.023415	0.020671	160.888404	-73.902946	-87.180797
41400		9.367919	0.758274	-2.566152	0.010186	-0.028240	0.018037	160.956172	-73.890632	-87.241782
41401		9.361874	0.779394	-2.575248	0.010777	-0.027179	0.014501	161.016809	-73.877812	-87.296668
41402		9.344837	0.792346	-2.604309	0.021233	-0.023435	0.012738	161.076964	-73.866605	-87.349376
41403		9.366432	0.807093	-2.566328	0.031869	-0.021246	0.011184	161.139495	-73.856353	-87.393659
41404		9.360581	0.828492	-2.574687	0.029526	-0.014569	0.004280	161.182976	-73.848477	-87.422378
41405		9.403253	0.791530	-2.555532	0.031788	-0.015010	0.000553	161.221476	-73.839624	-87.441695
41406		9.376114	0.757908	-2.558967	0.036621	-0.021342	-0.001267	161.262251	-73.826786	-87.467443
41407		9.413272	0.798481	-2.539641	0.027527	-0.021139	-0.005320	161.291141	-73.813521	-87.479298
41408		9.390561	0.781655	-2.582130	0.015762	-0.023107	-0.001896	161.320129	-73.799883	-87.503217
41409		9.411025	0.782924	-2.596650	0.016126	-0.022835	-0.000435	161.352612	-73.786589	-87.525617
41410		9.379480	0.787636	-2.553952	0.021929	-0.014317	-0.000180	161.382901	-73.778144	-87.546745
41411		9.358058	0.785295	-2.543264	0.024692	-0.015001	0.004015	161.423596	-73.769910	-87.572589
41412		9.395366	0.825814	-2.523581	0.016898	-0.019953	-0.002721	161.449631	-73.757909	-87.589340
41413		9.393725	0.810462	-2.578127	0.024907	-0.020978	-0.003059	161.480931	-73.745132	-87.605274
41414		9.388789	0.848184	-2.534355	0.029023	-0.021099	-0.005728	161.508784	-73.731824	-87.620432
41415		9.387107	0.833033	-2.588888	0.023458	-0.018695	-0.007869	161.528813	-73.719410	-87.625491
41416		9.370934	0.808925	-2.572185	0.021053	-0.021123	-0.011638	161.541681	-73.704946	-87.627362
41417		9.370284	0.809153	-2.574483	0.042280	-0.022471	-0.010606	161.569712	-73.689982	-87.629524
41418		9.364120	0.832012	-2.583473	0.052368	-0.022392	-0.014891	161.595969	-73.673943	-87.624079
41419		9.384396	0.833721	-2.598476	0.057975	-0.025850	-0.019000	161.619455	-73.655623	-87.612133
41420		9.368184	0.863669	-2.575409	0.059475	-0.022423	-0.018373	161.641434	-73.639560	-87.606808
41421		9.379590	0.833750	-2.512554	0.039738	-0.024416	-0.020832	161.650181	-73.621692	-87.590390
41422		9.401013	0.851763	-2.475036	0.035479	-0.023796	-0.024622	161.649649	-73.603787	-87.564241
41423		9.377966	0.836413	-2.517726	0.029325	-0.025832	-0.024251	161.647017	-73.584534	-87.542177
41424		9.349327	0.844005	-2.567122	0.035115	-0.027462	-0.027115	161.643155	-73.563764	-87.520500
41425		9.384867	0.871487	-2.601357	0.046297	-0.029940	-0.028058	161.645806	-73.541588	-87.493801
41426		9.373923	0.880044	-2.572243	0.040725	-0.030930	-0.031226	161.639824	-73.518525	-87.464924
41427		9.356040	0.842153	-2.609332	0.042766	-0.038929	-0.032012	161.638756	-73.490747	-87.436449
41428		9.388177	0.869408	-2.553231	0.042953	-0.037103	-0.030770	161.638830	-73.464059	-87.410828
41429		9.360486	0.838064	-2.557874	0.045365	-0.031282	-0.025988	161.645718	-73.441528	-87.389092
41430		9.386047	0.871917	-2.560198	0.051495	-0.031570	-0.021151	161.664341	-73.419665	-87.382819
41431		9.387625	0.849423	-2.465829	0.042541	-0.035267	-0.019739	161.683445	-73.396095	-87.375513
41432		9.392077	0.827635	-2.463175	0.023897	-0.043216	-0.019827	161.695882	-73.368144	-87.378877
41433		9.358671	0.818712	-2.475190	0.011382	-0.048057	-0.014051	161.715156	-73.338640	-87.390380
41434		9.382524	0.782922	-2.538106	0.014922	-0.052620	-0.014214	161.737478	-73.306912	-87.414240
41435		9.368475	0.813757	-2.608788	0.026661	-0.052978	-0.012475	161.771175	-73.275011	-87.431668
41436		9.355680	0.859811	-2.627528	0.031880	-0.059045	-0.012830	161.809510	-73.239686	-87.463049
41437		9.321896	0.850010	-2.640740	0.030575	-0.057267	-0.011182	161.850114	-73.205674	-87.485355
41438		9.337193	0.835643	-2.619636	0.029252	-0.054413	-0.003288	161.902334	-73.174709	-87.528112
41439		9.386314	0.792378	-2.545219	0.005745	-0.054949	0.004724	161.955695	-73.144776	-87.578618
41440		9.365555	0.697335	-2.499210	-0.003587	-0.061243	0.009926	162.016392	-73.112508	-87.644346
41441		9.383433	0.736248	-2.563150	0.004605	-0.062745	0.016012	162.093466	-73.080286	-87.720335
41442		9.344066	0.693033	-2.590043	0.013181	-0.068434	0.016286	162.178825	-73.045266	-87.803428
41443		9.353599	0.753870	-2.570322	0.025863	-0.074255	0.013863	162.270201	-73.006323	-87.881665
41444		9.329348	0.788962	-2.610167	0.032585	-0.064403	0.011949	162.355453	-72.972407	-87.956455
41445		9.386440	0.830340	-2.608558	0.036883	-0.067176	0.003225	162.429485	-72.935419	-88.009976
41446		9.375252	0.890618	-2.575806	0.021417	-0.060705	0.001475	162.487287	-72.901862	-88.064020
41447		9.343253	0.841767	-2.543075	0.000728	-0.058338	-0.002965	162.524220	-72.868607	-88.100418
41448		9.368221	0.820937	-2.554566	-0.007659	-0.060995	-0.005050	162.553822	-72.833744	-88.138575
41449		9.343824	0.804697	-2.600150	-0.013065	-0.066947	-0.008984	162.576728	-72.794739	-88.168577
41450		9.374272	0.816159	-2.598847	-0.026297	-0.063252	-0.009235	162.589285	-72.757833	-88.197251
41451		9.345974	0.784862	-2.605242	-0.027972	-0.065147	-0.010061	162.600564	-72.719622	-88.224033
41452		9.306327	0.853270	-2.618330	-0.025540	-0.066095	-0.007347	162.618315	-72.681335	-88.260698
41453		9.279953	0.837221	-2.572618	-0.027954	-0.067476	-0.004842	162.639828	-72.642739	-88.298203
41454		9.336891	0.881121	-2.571237	-0.031846	-0.074620	0.002279	162.674796	-72.601481	-88.356735
41455		9.291350	0.917163	-2.598278	-0.045990	-0.077969	0.008340	162.714338	-72.559379	-88.423983
41456		9.342438	0.874750	-2.617294	-0.059374	-0.077364	0.018343	162.763198	-72.519487	-88.509781
41457		9.319889	0.873333	-2.610812	-0.089926	-0.069854	0.020625	162.794023	-72.483880	-88.594313
41458		9.288285	0.933318	-2.564382	-0.107974	-0.068934	0.025431	162.822279	-72.449771	-88.685358
41459		9.347844	0.938339	-2.515929	-0.142809	-0.057431	0.025018	162.823351	-72.421689	-88.770494
41460		9.397590	0.936231	-2.577269	-0.172408	-0.045226	0.026275	162.802961	-72.400641	-88.851548
41461		9.340097	0.911011	-2.535012	-0.191777	-0.041287	0.021290	162.760763	-72.380780	-88.920743
41462		9.292015	0.934178	-2.517822	-0.226781	-0.041837	0.016552	162.690544	-72.359998	-88.982601
41463		9.360482	0.922680	-2.641804	-0.272397	-0.022977	0.008294	162.569987	-72.347982	-89.018055
41464		9.325560	0.905117	-2.700014	-0.312197	-0.004726	0.003372	162.408309	-72.345269	-89.034447
41465		9.304607	0.858741	-2.691848	-0.358716	0.004911	-0.011133	162.189913	-72.345154	-89.019130
41466		9.389694	0.838253	-2.694471	-0.384759	0.002527	-0.030946	161.924010	-72.340370	-88.969755
41467		9.524333	0.814768	-2.663399	-0.428174	0.014211	-0.033777	161.621881	-72.341215	-88.908329
41468		9.398306	0.699781	-2.743669	-0.452980	-0.005732	-0.043166	161.300911	-72.329503	-88.842032
41469		9.231633	0.585745	-2.892203	-0.456905	-0.016089	-0.043781	160.982954	-72.311861	-88.781263
41470		9.102753	0.458435	-3.029828	-0.414670	-0.026320	-0.028213	160.721986	-72.291666	-88.755051
41471		9.121424	0.411052	-3.196142	-0.354473	-0.023741	-0.013096	160.519822	-72.275555	-88.754216
41472		9.196803	0.444613	-3.397126	-0.262794	-0.015998	-0.004150	160.380972	-72.265504	-88.764528
41473		9.293985	0.486514	-3.467088	-0.197719	-0.028793	0.000725	160.295221	-72.249331	-88.791621
41474		9.273049	0.495412	-3.548188	-0.128321	-0.044098	-0.014470	160.233070	-72.222085	-88.801722
41475		9.232197	0.670660	-3.445876	-0.057840	-0.059531	-0.031559	160.191843	-72.183096	-88.791413
41476		9.307571	0.709809	-3.271688	0.020056	-0.050982	-0.042978	160.171225	-72.146607	-88.755934
41477		9.338890	0.832768	-3.013848	0.089974	-0.021248	-0.047299	160.165411	-72.125189	-88.693847
41478		9.304973	0.819911	-2.931698	0.091050	0.001237	-0.047688	160.146308	-72.115910	-88.617103
41479		9.341774	0.804393	-2.828007	0.069275	0.006159	-0.055262	160.098938	-72.107694	-88.523802
41480		9.420071	0.848726	-2.739631	0.074528	0.018450	-0.072965	160.017918	-72.102710	-88.391953
41481		9.461275	0.912449	-2.754545	0.129674	0.028697	-0.102492	159.912877	-72.097277	-88.201675
41482		9.506894	1.003531	-2.663953	0.168615	0.023119	-0.120405	159.804116	-72.085306	-87.984004
41483		9.471849	1.101104	-2.797574	0.125657	0.003597	-0.149028	159.635267	-72.056890	-87.729049
41484		9.399508	1.057655	-3.064068	0.089411	-0.018540	-0.177486	159.413308	-72.010731	-87.440015
41485		9.310141	1.094870	-3.203653	0.063705	-0.017180	-0.194731	159.148496	-71.961317	-87.121354
41486		9.193023	1.150700	-3.243810	0.013263	-0.005891	-0.205088	158.832560	-71.915417	-86.779201
41487		9.120736	1.119129	-3.273195	-0.080304	-0.007885	-0.201586	158.471483	-71.868455	-86.445899
41488		9.193699	0.936854	-3.235912	-0.186356	-0.019368	-0.188413	158.080557	-71.817587	-86.145009
41489		9.188686	0.709866	-3.195292	-0.271082	-0.015779	-0.162537	157.682120	-71.773470	-85.887260
41490		9.243285	0.409654	-3.308697	-0.311326	-0.014639	-0.127638	157.317666	-71.737158	-85.689472
41491		9.039438	0.188602	-3.219816	-0.293855	-0.027010	-0.092098	157.029101	-71.701775	-85.561065
41492		9.248285	0.130210	-3.224482	-0.202213	-0.035600	-0.059775	156.851396	-71.669036	-85.494034
41493		9.415670	0.302067	-3.060902	-0.141475	-0.060418	-0.040681	156.755696	-71.627403	-85.476787
41494		9.663970	0.414804	-3.012741	-0.064463	-0.070766	-0.032997	156.723961	-71.582142	-85.480364
41495		9.724810	0.672794	-3.002751	-0.001441	-0.050292	-0.035619	156.709874	-71.546976	-85.464563
41496		9.516558	0.828132	-2.888378	0.028633	-0.040612	-0.045293	156.691782	-71.514803	-85.426275
41497		9.301013	0.940335	-2.841041	0.049550	-0.027459	-0.057783	156.656710	-71.486619	-85.357532
41498		9.176183	1.048429	-2.694162	0.062788	-0.010749	-0.073508	156.593913	-71.463726	-85.251441
41499		9.099522	1.145104	-2.657944	0.058248	-0.005213	-0.076288	156.520067	-71.442973	-85.136524
41500		9.163801	1.238801	-2.580999	0.037387	0.008474	-0.088630	156.406398	-71.426627	-84.992099
41501		9.127971	1.282901	-2.721620	-0.006723	0.024272	-0.102927	156.234018	-71.415065	-84.812480
41502		9.083440	1.339588	-2.919541	-0.013150	0.023284	-0.126723	156.022362	-71.397381	-84.595198
41503		9.173328	1.479281	-2.928624	-0.024852	0.028238	-0.149952	155.764409	-71.376462	-84.336209
41504		9.169609	1.482397	-2.978467	-0.071832	0.025980	-0.164052	155.460454	-71.350725	-84.056950
41505		9.296735	1.423155	-3.018151	-0.107495	0.016591	-0.168973	155.135492	-71.318332	-83.777132
41506		9.319766	1.279218	-2.966086	-0.153346	0.008291	-0.169677	154.790719	-71.281032	-83.503983
41507		9.244718	1.085312	-2.898566	-0.193127	0.007358	-0.157083	154.443761	-71.245718	-83.252630
41508		9.171402	1.028353	-2.796656	-0.184118	0.006350	-0.148187	154.117807	-71.211719	-83.017862
41509		9.112838	0.935928	-2.867172	-0.197381	0.007182	-0.131869	153.808770	-71.181736	-82.809042
41510		9.198185	0.924099	-2.872884	-0.166997	0.003887	-0.122042	153.535708	-71.152319	-82.619701
41511		9.208383	0.947270	-2.851152	-0.138264	-0.002195	-0.119384	153.287840	-71.120087	-82.439652
41512		9.249771	0.908628	-2.795165	-0.117683	-0.010191	-0.123861	153.052417	-71.082470	-82.260148
41513		9.218411	0.924119	-2.749697	-0.099168	-0.016066	-0.123261	152.833213	-71.041675	-82.086642
41514		9.202829	0.977610	-2.668612	-0.101003	-0.008818	-0.127021	152.603282	-71.003477	-81.902747
41515		9.157866	0.966678	-2.604606	-0.128063	-0.000095	-0.122522	152.358000	-70.970539	-81.719092
41516		9.149998	1.004403	-2.607570	-0.139672	0.012697	-0.124410	152.094737	-70.943443	-81.523296
41517		9.129185	1.023605	-2.682603	-0.169850	0.026080	-0.129365	151.796529	-70.921340	-81.308914
41518		9.058674	0.976428	-2.762392	-0.198585	0.025831	-0.140831	151.466618	-70.895741	-81.078249
41519		8.985684	0.912563	-2.804797	-0.219369	0.018773	-0.161545	151.100572	-70.860299	-80.822026
41520		9.102132	0.841492	-2.919583	-0.216858	0.015104	-0.177814	150.717339	-70.818083	-80.545890
41521		9.254761	0.813650	-3.011207	-0.199389	0.021372	-0.181842	150.334028	-70.777108	-80.259138
41522		9.340230	0.802070	-2.924751	-0.207263	0.025395	-0.191552	149.931268	-70.734865	-79.956343
41523		9.439536	0.670077	-2.946897	-0.211678	0.031706	-0.199301	149.510640	-70.692640	-79.637368
41524		9.395343	0.592673	-2.998474	-0.190268	0.023556	-0.207216	149.100392	-70.643482	-79.316141
41525		9.420017	0.579529	-2.966497	-0.146121	0.010928	-0.222233	148.706255	-70.582777	-78.985235
41526		9.387819	0.677065	-2.945054	-0.089219	0.010334	-0.243889	148.318419	-70.514728	-78.626121
41527		9.299678	0.896179	-2.879884	-0.020715	0.011594	-0.275315	147.927467	-70.436794	-78.222077
41528		9.229274	1.109391	-2.880422	0.032253	0.028195	-0.309461	147.510294	-70.355693	-77.757586
41529		9.281194	1.342618	-2.720052	0.038565	0.044273	-0.326242	147.062963	-70.275781	-77.257188
41530		9.270926	1.226232	-2.919310	0.021276	0.066698	-0.344024	146.567207	-70.199864	-76.715413
41531		9.180182	1.179117	-2.894621	0.019227	0.078013	-0.340290	146.068220	-70.128736	-76.171405
41532		9.189229	1.122963	-2.947983	-0.010619	0.079874	-0.331075	145.567178	-70.060061	-75.642944
41533		9.151745	0.899237	-3.233075	-0.002121	0.089914	-0.312301	145.088762	-70.000486	-75.133376
41534		9.117465	0.986969	-3.259611	0.038995	0.074899	-0.298693	144.668872	-69.937222	-74.660596
41535		9.110854	1.054178	-3.295618	0.056835	0.066390	-0.284616	144.286635	-69.873317	-74.217067
41536		9.133698	1.226592	-3.243939	0.089258	0.055832	-0.277298	143.945541	-69.806239	-73.797136
41537		9.167911	1.425610	-3.210319	0.082809	0.052109	-0.273528	143.610352	-69.737632	-73.387508
41538		9.181577	1.631212	-3.110824	0.081552	0.059739	-0.274338	143.270001	-69.671660	-72.972695
41539		9.173775	1.833074	-2.998234	0.077550	0.071355	-0.289478	142.899279	-69.604671	-72.528025
41540		9.090279	1.984324	-2.883813	0.034516	0.074691	-0.310902	142.478533	-69.530932	-72.055803
41541		9.009996	2.062969	-2.886495	-0.015031	0.078575	-0.332347	142.002040	-69.449900	-71.554411
41542		8.863061	2.071275	-2.737312	-0.107135	0.089138	-0.340468	141.458144	-69.369416	-71.036843
41543		8.872652	2.019294	-2.785914	-0.200285	0.101408	-0.345437	140.846414	-69.290548	-70.503829
41544		8.811277	1.804569	-2.730539	-0.306251	0.109725	-0.340189	140.177584	-69.215415	-69.974124
41545		8.865905	1.655527	-2.699595	-0.375749	0.108943	-0.323903	139.491633	-69.143498	-69.468730
41546		8.943768	1.532120	-2.718346	-0.405815	0.113323	-0.313775	138.800800	-69.075376	-68.976021
41547		8.965977	1.453304	-2.812582	-0.381655	0.117724	-0.330450	138.103582	-69.000424	-68.461708
41548		8.805429	1.499510	-2.864442	-0.330861	0.116767	-0.359567	137.409911	-68.911891	-67.919428
41549		8.669548	1.439240	-2.974580	-0.284712	0.126485	-0.400166	136.693074	-68.808921	-67.323915
41550		8.957579	1.461774	-3.121471	-0.179132	0.133855	-0.448983	135.984942	-68.687316	-66.672060
41551		9.418626	1.359288	-3.188345	-0.121210	0.135848	-0.480134	135.282096	-68.550859	-65.989993
41552		9.415951	1.359024	-3.298942	-0.038426	0.128896	-0.514647	134.608592	-68.394916	-65.287448
41553		9.253414	1.550779	-3.037424	0.039547	0.112248	-0.556231	133.964065	-68.211997	-64.567532
41554		9.178311	1.666135	-2.963111	0.065758	0.101390	-0.595355	133.320252	-68.005904	-63.830849
41555		9.199813	1.814888	-2.805892	0.057835	0.085432	-0.626932	132.669933	-67.776926	-63.091288
41556		9.338941	1.803728	-2.784090	0.025452	0.083382	-0.630274	132.015577	-67.542934	-62.365806
41557		9.571008	1.901072	-2.844712	-0.012943	0.104474	-0.620934	131.338956	-67.317437	-61.639227
41558		9.519639	1.886562	-2.697649	-0.079469	0.132513	-0.615394	130.615436	-67.101855	-60.901538
41559		9.720933	1.774687	-3.080010	-0.047504	0.148651	-0.598485	129.920364	-66.895744	-60.174126
41560		9.822575	1.916143	-3.034028	0.027694	0.133770	-0.587607	129.306518	-66.686169	-59.486650
41561		9.867366	1.903068	-3.076078	0.116138	0.114255	-0.572710	128.785705	-66.473099	-58.844676
41562		10.022856	1.879206	-3.139616	0.242713	0.096263	-0.546162	128.388686	-66.263890	-58.257176
41563		10.084256	2.003815	-3.171150	0.351097	0.088098	-0.506869	128.100281	-66.067623	-57.720073
41564		10.058391	2.243903	-3.074766	0.381762	0.102678	-0.448930	127.868088	-65.902148	-57.224029
41565		10.044012	2.528605	-2.776647	0.318969	0.099339	-0.404495	127.641429	-65.754353	-56.773373
41566		10.058550	2.807630	-2.832713	0.231360	0.097294	-0.360684	127.405854	-65.625507	-56.367012
41567		10.046604	3.089120	-2.675278	0.124289	0.143330	-0.314861	127.099547	-65.532237	-55.950498
41568		9.949981	3.417931	-2.724939	-0.008520	0.170677	-0.250271	126.742338	-65.477488	-55.560905
41569		9.834698	3.644598	-2.917088	-0.176281	0.165338	-0.170658	126.353923	-65.455992	-55.243069
41570		9.644580	3.586485	-3.064780	-0.333901	0.129887	-0.088908	125.973478	-65.459962	-55.032731
41571		9.777020	3.325757	-2.947920	-0.446812	0.093420	0.009670	125.636301	-65.496445	-54.941611
41572		9.772054	2.891809	-2.619174	-0.493245	0.092876	0.093249	125.334927	-65.572045	-54.918569
41573		9.689441	2.604246	-2.015348	-0.444171	0.099810	0.156484	125.098336	-65.678972	-54.936321
41574		9.272773	2.343818	-1.347607	-0.406297	0.140372	0.223788	124.890896	-65.831381	-54.961701
41575		9.245355	1.977093	-1.312506	-0.324695	0.132676	0.296250	124.789207	-66.014837	-55.052191
41576		8.996079	1.896214	-1.052267	-0.238972	0.187194	0.381297	124.743188	-66.256756	-55.149181
41577		8.883394	1.973374	-1.278888	-0.155921	0.184908	0.459075	124.805089	-66.533954	-55.312339
41578		8.799451	2.120304	-1.463279	-0.105063	0.177680	0.540038	124.970475	-66.847316	-55.555578
41579		8.747588	2.254830	-1.602384	-0.046466	0.178420	0.634087	125.246709	-67.204021	-55.882646
41580		8.723046	2.579961	-1.463640	0.038557	0.210972	0.759292	125.647574	-67.629855	-56.290498
41581		8.629740	2.536605	-1.855310	0.067111	0.257717	0.909482	126.151105	-68.139227	-56.790638
41582		8.525083	2.502109	-1.405883	0.061943	0.287851	1.037117	126.753381	-68.716471	-57.397757
41583		8.765905	2.535470	-1.179334	0.016150	0.335966	1.190214	127.443807	-69.377134	-58.125297
41584		8.916417	2.496519	-0.887242	-0.039755	0.369458	1.334263	128.248987	-70.111928	-59.005504
41585		9.057374	2.100438	-1.354355	0.011424	0.405790	1.471188	129.242481	-70.915454	-60.050554
41586		9.256195	2.277707	-0.828336	-0.054487	0.415723	1.598836	130.418127	-71.772691	-61.322041
41587		9.402025	2.056964	-1.057189	-0.117281	0.435977	1.717558	131.791293	-72.678969	-62.832734
41588		9.473980	2.105190	-1.180556	-0.104103	0.467468	1.825789	133.431703	-73.631306	-64.606712
41589		9.547220	2.091878	-1.281740	-0.141336	0.473257	1.917827	135.382955	-74.606515	-66.717698
41590		9.647154	1.956647	-1.328503	-0.124793	0.452595	1.985584	137.758852	-75.577958	-69.248046
41591		9.916143	1.915107	-1.616640	-0.061978	0.436389	2.036535	140.634198	-76.530150	-72.245386
41592		10.328608	1.839969	-1.380301	-0.023991	0.438241	2.070124	144.036690	-77.454575	-75.749278
41593		10.371077	1.723540	-1.363380	-0.057909	0.416351	2.058788	147.950978	-78.312404	-79.784733
41594		10.479174	1.666789	-1.363547	-0.066016	0.429260	2.080698	152.506092	-79.118560	-84.465886
41595		10.338938	1.513550	-1.345131	-0.163355	0.344604	2.091533	157.828687	-79.801237	-89.973036
41596		10.432106	1.250194	-1.487064	-0.208633	0.265902	2.101840	163.946950	-80.339772	-96.303353
41597		10.460005	0.864899	-1.420101	-0.191059	0.194920	2.118689	170.809885	-80.713659	-103.370127
41598		10.531329	0.531791	-1.778083	-0.110468	0.138316	2.128865	178.230453	-80.908205	-110.948922
41599		10.648025	0.430372	-1.701916	-0.058385	0.100084	2.121207	-174.175584	-80.920966	-118.671204
41600		10.662079	0.030323	-1.983422	-0.058222	0.066051	2.092711	-166.814542	-80.758006	-126.158791
41601		10.529065	0.023772	-1.989471	0.124541	0.057355	2.042767	-159.894501	-80.451669	-133.098586
41602		10.367317	0.219629	-1.480115	0.168853	0.007696	1.975566	-153.729806	-80.006938	-139.253566
41603		10.319865	0.041701	-1.600399	0.158610	-0.034484	1.934844	-148.330744	-79.449848	-144.646257
41604		10.092864	-0.032327	-1.473534	0.159222	-0.080160	1.889147	-143.690824	-78.803392	-149.275885
41605		9.881884	-0.167575	-1.482332	0.088265	-0.155072	1.859792	-139.813430	-78.071152	-153.180070
41606		9.714596	-0.483649	-1.703055	0.085298	-0.197165	1.867981	-136.456256	-77.269511	-156.564295
41607		9.556377	-0.545205	-1.783925	0.146229	-0.219213	1.871732	-133.505853	-76.419454	-159.506280
41608		9.514656	-0.820488	-2.433146	0.189675	-0.252325	1.870867	-130.937952	-75.525322	-162.038931
41609		9.468149	-1.134992	-2.753921	0.284179	-0.284243	1.874449	-128.665420	-74.593357	-164.220572
41610		9.463545	-1.599013	-2.531506	0.344259	-0.292906	1.836470	-126.671243	-73.654798	-166.086609
41611		9.344089	-2.000663	-1.963638	0.389063	-0.322519	1.802091	-124.944162	-72.706792	-167.656116
41612		9.440379	-2.329158	-1.899004	0.458233	-0.367317	1.750842	-123.462773	-71.755772	-168.933866
41613		9.663907	-2.660657	-2.312785	0.603621	-0.347608	1.742803	-122.016488	-70.805657	-170.093882
41614		9.669735	-2.683118	-2.236212	0.795285	-0.258349	1.720987	-120.481208	-69.882827	-171.238131
41615		9.675012	-2.858537	-1.825884	0.926585	-0.263320	1.681856	-119.024436	-68.968903	-172.225191
41616		9.854349	-2.876006	-1.686561	1.006372	-0.226806	1.655786	-117.593905	-68.069032	-173.140676
41617		9.793540	-2.665705	-1.280907	0.990615	-0.224467	1.654049	-116.262018	-67.163420	-173.965347
41618		9.876788	-2.693096	-1.479868	0.912070	-0.260649	1.647391	-115.100887	-66.245091	-174.658390
41619		10.027491	-2.722997	-1.610232	0.832933	-0.283435	1.638153	-114.083040	-65.321662	-175.249236
41620		9.933340	-2.756644	-1.892170	0.732248	-0.286429	1.653097	-113.174122	-64.385228	-175.787646
41621		9.772649	-2.796854	-1.828836	0.685435	-0.274683	1.616566	-112.345269	-63.467871	-176.271233
41622		9.662373	-3.021391	-2.080246	0.567557	-0.296073	1.604424	-111.651993	-62.549137	-176.682113
41623		9.569299	-3.444454	-2.262205	0.548098	-0.263355	1.577979	-110.982286	-61.649677	-177.082585
41624		9.318102	-3.774917	-2.167885	0.538985	-0.282321	1.538482	-110.381616	-60.765062	-177.413393
41625		9.296166	-3.905833	-1.579106	0.460075	-0.300640	1.498789	-109.882658	-59.897169	-177.682251
41626		9.078948	-4.224064	-1.393970	0.401414	-0.286620	1.448535	-109.440611	-59.057585	-177.926179
41627		8.983780	-4.315563	-1.390535	0.447758	-0.316332	1.423116	-109.023708	-58.225686	-178.111928
41628		8.923261	-4.119251	-1.177971	0.547964	-0.308325	1.388948	-108.567323	-57.412663	-178.277936
41629		8.759609	-4.100437	-1.133181	0.540376	-0.243287	1.368196	-108.081378	-56.622366	-178.486073
41630		8.738373	-4.172287	-1.245234	0.549858	-0.223768	1.343246	-107.595503	-55.847781	-178.689264
41631		8.327053	-3.993714	-0.537110	0.502116	-0.175418	1.308683	-107.121596	-55.099833	-178.913179
41632		7.858635	-4.189430	-0.762586	0.262311	-0.210435	1.261747	-106.835082	-54.370570	-179.077688
41633		7.650738	-4.152803	-0.624161	0.344826	-0.181046	1.210039	-106.499977	-53.674365	-179.245497
41634		7.876727	-4.277172	-1.348649	0.212800	-0.271851	1.175249	-106.322410	-52.981828	-179.312506
41635		8.126939	-4.884739	-1.910936	0.243958	-0.197665	1.128227	-106.088195	-52.327206	-179.429114
41636		8.024980	-4.823932	-1.608301	0.275058	-0.189699	1.067487	-105.848119	-51.706717	-179.531366
41637		8.008808	-5.120666	-1.906294	0.261948	-0.139276	0.998586	-105.599394	-51.132089	-179.655330
41638		7.812374	-4.969864	-1.763321	0.411016	-0.074217	0.915323	-105.242052	-50.612690	-179.809984
41639		7.564594	-4.640445	-1.181463	0.377864	-0.042807	0.825448	-104.905014	-50.147383	-179.964216
41640		7.273436	-4.762750	-1.033571	0.236844	-0.069303	0.739410	-104.685514	-49.725147	179.928728
41641		7.108154	-4.808328	-1.326066	0.133050	-0.128967	0.653352	-104.581642	-49.342032	179.894673
41642		7.140021	-4.800757	-1.667038	0.081312	-0.177699	0.574348	-104.552483	-48.995463	179.920163
41643		7.109685	-4.992641	-1.870322	0.059697	-0.169669	0.517993	-104.540035	-48.681527	179.951361
41644		7.098038	-5.006021	-2.007447	0.072475	-0.167506	0.465797	-104.527032	-48.396661	179.991886
41645		7.020288	-4.854453	-1.962853	0.044517	-0.169294	0.405525	-104.540792	-48.145160	-179.953180
41646		6.925795	-4.789703	-1.812972	0.020011	-0.165417	0.345105	-104.575253	-47.927537	-179.888952
41647		6.909447	-4.969654	-1.757889	0.016626	-0.157115	0.282927	-104.616163	-47.745732	-179.818572
41648		6.832128	-5.101985	-1.631895	0.065208	-0.154622	0.209551	-104.638823	-47.604791	-179.734928
41649		6.792845	-5.233061	-1.202766	0.058888	-0.106940	0.143048	-104.646585	-47.507756	-179.676342
41650		6.502032	-5.434151	-0.951162	0.008054	-0.100751	0.066118	-104.691595	-47.454112	-179.606552
41651		6.370091	-5.376388	-1.138820	0.024755	-0.131130	-0.007509	-104.757078	-47.436928	-179.496053
41652		6.370912	-5.373829	-1.146283	0.026231	-0.146227	-0.081965	-104.842514	-47.458560	-179.357206
41653		6.286553	-5.443928	-1.238796	0.017175	-0.167146	-0.150841	-104.957186	-47.515204	-179.185940
41654		6.461199	-5.680626	-1.726815	0.093645	-0.124285	-0.227898	-105.014860	-47.620558	-179.032638
41655		6.419861	-5.506379	-1.345778	0.165639	-0.128663	-0.316057	-105.049125	-47.774075	-178.855650
41656		6.647899	-5.643785	-1.716580	0.124672	-0.171303	-0.399283	-105.147493	-47.967018	-178.624244
41657		6.806822	-5.584215	-1.665614	0.157095	-0.117364	-0.466296	-105.207029	-48.205006	-178.420957
41658		6.640195	-5.303664	-1.404064	0.111063	-0.106784	-0.526083	-105.298037	-48.477353	-178.211541
41659		6.758583	-5.287453	-1.585650	0.036829	-0.097607	-0.577211	-105.437017	-48.779166	-177.995917
41660		6.661820	-5.267116	-1.472182	0.028625	-0.080107	-0.625386	-105.580571	-49.109809	-177.781394
41661		6.696796	-5.348085	-1.349932	-0.015632	-0.077424	-0.670820	-105.759158	-49.465630	-177.555323
41662		6.612902	-5.547285	-1.313491	-0.056802	-0.081073	-0.716157	-105.975567	-49.845268	-177.311710
41663		6.573156	-5.634596	-1.256052	-0.059109	-0.087881	-0.740519	-106.206891	-50.236704	-177.051846
41664		6.738102	-5.300606	-1.230610	-0.024852	-0.186562	-0.797893	-106.500274	-50.642905	-176.687418
41665		7.095228	-5.168710	-1.355417	-0.174961	-0.204464	-0.823603	-106.904307	-51.058938	-176.293462
41666		7.080076	-5.821630	-1.299854	-0.300701	-0.189560	-0.819108	-107.377570	-51.473028	-175.905302
41667		7.051514	-6.552343	-1.820160	-0.312462	-0.140676	-0.797963	-107.828088	-51.882150	-175.557046
41668		7.190058	-6.854934	-2.072822	-0.140562	-0.072591	-0.784076	-108.136614	-52.294209	-175.265759
41669		7.182718	-6.661489	-1.783072	0.109197	0.001566	-0.759295	-108.249307	-52.705482	-175.042668
41670		7.254060	-6.382207	-1.520108	0.129202	-0.024108	-0.752345	-108.370833	-53.107942	-174.795204
41671		7.627064	-6.429771	-1.639349	0.084605	-0.058856	-0.730042	-108.542303	-53.491728	-174.518724
41672		7.488157	-6.336237	-1.428296	0.049568	-0.050347	-0.700301	-108.724539	-53.860256	-174.254987
41673		7.704018	-6.519799	-1.698397	-0.029631	-0.070094	-0.675156	-108.965487	-54.211072	-173.976132
41674		7.700244	-6.807079	-2.099145	0.102748	-0.068752	-0.662035	-109.130448	-54.554268	-173.698495
41675		7.756175	-6.812172	-2.060343	0.292646	-0.013777	-0.632260	-109.140567	-54.891606	-173.478590
41676		7.879011	-6.523631	-1.801935	0.425395	0.010374	-0.604294	-109.049941	-55.218197	-173.289510
41677		7.735659	-6.022347	-1.394000	0.486430	0.011351	-0.573361	-108.916511	-55.528642	-173.110861
41678		7.751828	-5.542386	-1.311424	0.411776	-0.002866	-0.573685	-108.837708	-55.836570	-172.918322
41679		7.723382	-5.181061	-1.041675	0.273669	-0.034834	-0.571247	-108.865073	-56.137552	-172.694056
41680		7.199680	-4.951831	-1.438814	0.121658	-0.043218	-0.586985	-108.993048	-56.445086	-172.454134
41681		6.750061	-5.122142	-1.103402	-0.078813	-0.130990	-0.655176	-109.332169	-56.772722	-172.099981
41682		6.574083	-5.522820	-2.006106	-0.295030	-0.286572	-0.732080	-109.954424	-57.109983	-171.556945
41683		7.521451	-6.375904	-2.335531	-0.172077	-0.246959	-0.771442	-110.497157	-57.473485	-171.027054
41684		7.955139	-6.048225	-2.261530	0.051833	-0.265283	-0.805638	-110.948912	-57.848794	-170.454939
41685		9.510478	-5.792363	-1.911219	0.327440	-0.162981	-0.789191	-111.160808	-58.234891	-169.982026
41686		8.914524	-5.380283	-1.257447	0.392456	0.000628	-0.796908	-111.202961	-58.658102	-169.666414
41687		7.866511	-4.450624	-0.625086	0.383655	-0.159824	-0.815110	-111.404583	-59.057600	-169.171991
41688		8.414917	-4.750166	-1.590627	0.168273	-0.129774	-0.851705	-111.725040	-59.481445	-168.684760
41689		8.120479	-4.508218	-1.008470	0.165713	-0.112047	-0.905894	-112.062841	-59.936761	-168.181589
41690		7.777815	-4.172376	-0.963711	0.114681	-0.091680	-0.930244	-112.432658	-60.407527	-167.677313
41691		8.028554	-4.440572	-1.364058	-0.137936	-0.115289	-0.971419	-113.001721	-60.893064	-167.113142
41692		8.075986	-4.633936	-1.826051	-0.112281	-0.104753	-0.984529	-113.569352	-61.384824	-166.536238
41693		7.857097	-4.584203	-1.891195	-0.086846	-0.074985	-0.983078	-114.112920	-61.880287	-165.973078
41694		8.205360	-4.490733	-1.693330	-0.183059	-0.117017	-0.978267	-114.770149	-62.360140	-165.345993
41695		8.445174	-4.436806	-1.598919	-0.245599	-0.135942	-0.934878	-115.484674	-62.809639	-164.697650
41696		8.507732	-4.366619	-1.450401	-0.211215	-0.106110	-0.882193	-116.144050	-63.235485	-164.091354
41697		8.415202	-4.146357	-0.997475	-0.308343	-0.099543	-0.856906	-116.860379	-63.647017	-163.486098
41698		8.381673	-4.136077	-1.198285	-0.402704	-0.096608	-0.854600	-117.646293	-64.054257	-162.865418
41699		8.233566	-3.897937	-1.145241	-0.408710	-0.083294	-0.887177	-118.462999	-64.477993	-162.216835
41700		8.308796	-3.932437	-1.771259	-0.504505	-0.084994	-0.940545	-119.391715	-64.923386	-161.507134
41701		8.379694	-4.071229	-2.479570	-0.454772	-0.053405	-0.999978	-120.324930	-65.402628	-160.764030
41702		8.926970	-3.761691	-1.848479	-0.478713	-0.100331	-1.063465	-121.396623	-65.893469	-159.886576
41703		10.777249	-3.486296	-2.328909	-0.754445	-0.118371	-1.092380	-122.708668	-66.385532	-158.922701
41704		10.761932	-3.662031	-2.877629	-0.665340	-0.175001	-1.115733	-124.095228	-66.861310	-157.825308
41705		12.246369	-3.297741	-2.959977	-0.664497	-0.215829	-1.057455	-125.532428	-67.285715	-156.676360
41706		11.001912	-3.998221	-2.617348	-1.020368	-0.283256	-0.839860	-127.114644	-67.574591	-155.593907
41707		11.326246	-5.883372	-3.186741	-1.697664	-0.502994	-0.491118	-129.056837	-67.615851	-154.543381
41708		11.117365	-7.362459	-2.551454	-1.737312	-0.357737	-0.142829	-130.557622	-67.544777	-153.994523
41709		10.178096	-7.305485	-0.581612	-1.514693	-0.344807	0.007725	-131.775037	-67.408955	-153.614226
41710		10.468143	-7.064332	-1.288852	-0.891922	-0.348890	-0.022076	-132.657329	-67.281232	-153.209692
41711		10.264604	-5.989683	-1.977743	0.126376	-0.254043	-0.123283	-132.951949	-67.231708	-152.809841
41712		9.603069	-4.661644	-2.630486	0.768208	-0.179921	-0.246839	-132.917284	-67.262222	-152.367836
41713		9.219962	-3.395404	-2.727909	0.838742	-0.164487	-0.388766	-132.962442	-67.358645	-151.796138
41714		9.210222	-2.316432	-2.994156	0.429751	-0.205557	-0.541868	-133.429768	-67.501547	-151.021082
41715		9.619259	-1.668873	-2.809754	-0.063883	-0.163806	-0.660264	-134.264250	-67.706927	-150.156243
41716		9.572667	-1.551549	-2.496395	-0.347839	-0.096036	-0.750362	-135.298489	-67.970560	-149.252409
41717		9.341537	-1.686193	-2.162215	-0.432350	-0.071670	-0.806476	-136.440511	-68.260410	-148.286796
41718		9.229150	-2.226676	-2.368810	-0.377623	-0.055875	-0.819724	-137.575272	-68.554564	-147.296825
41719		9.086024	-2.630758	-2.708634	-0.207418	-0.038192	-0.818713	-138.624385	-68.849147	-146.296510
41720		9.008481	-2.585706	-2.911951	-0.084228	-0.021346	-0.823163	-139.617232	-69.145922	-145.282455
41721		9.133321	-2.209399	-2.922528	-0.017577	-0.021248	-0.823011	-140.601939	-69.436611	-144.238654
41722		9.146137	-1.928004	-2.922955	0.022340	-0.022253	-0.803614	-141.567217	-69.713311	-143.192720
41723		8.949010	-1.775340	-3.020625	0.036198	-0.044597	-0.779755	-142.545572	-69.965503	-142.126577
41724		8.833092	-1.525243	-2.874315	0.080867	-0.054335	-0.724956	-143.460430	-70.188025	-141.101970
41725		8.883545	-1.372366	-2.602168	-0.002730	-0.070210	-0.672281	-144.393257	-70.379965	-140.110878
41726		8.908125	-1.336599	-2.521768	-0.043151	-0.064901	-0.630706	-145.305171	-70.555089	-139.167303
41727		8.857247	-1.054216	-2.319492	-0.095473	-0.052342	-0.598159	-146.210266	-70.720814	-138.264098
41728		8.991778	-0.962457	-2.363635	-0.141698	-0.062418	-0.573414	-147.129604	-70.868994	-137.374358
41729		9.568163	-0.847642	-2.255239	-0.207007	-0.071543	-0.548153	-148.074965	-71.000353	-136.497792
41730		10.030757	-0.794037	-2.507641	-0.361411	-0.073022	-0.520925	-149.081231	-71.117868	-135.650674
41731		9.953487	-0.750008	-2.886000	-0.462866	-0.090120	-0.492009	-150.131531	-71.213675	-134.819335
41732		9.942230	-0.580799	-3.047686	-0.540472	-0.109891	-0.480826	-151.232987	-71.291365	-133.981032
41733		10.005446	-0.530320	-3.190764	-0.563109	-0.118685	-0.476016	-152.357164	-71.358099	-133.133119
41734		9.771687	-0.443096	-3.452111	-0.524218	-0.109939	-0.488516	-153.475923	-71.427215	-132.267447
41735		9.616753	-0.297696	-3.357707	-0.443872	-0.085977	-0.520154	-154.589018	-71.511221	-131.359889
41736		9.537022	-0.111222	-3.383270	-0.388577	-0.071772	-0.570344	-155.745764	-71.608972	-130.373120
41737		9.392103	0.198014	-3.161254	-0.332431	-0.060067	-0.617173	-156.949961	-71.717157	-129.303342
41738		9.830594	0.243407	-3.143297	-0.372815	-0.039026	-0.659926	-158.243987	-71.838503	-128.163807
41739		9.684156	0.246767	-2.846212	-0.310489	-0.000117	-0.698068	-159.558686	-71.980320	-126.966071
41740		9.461624	0.451583	-2.712397	-0.284932	0.014965	-0.739692	-160.937100	-72.129634	-125.686735
41741		9.257944	0.613682	-2.817395	-0.218800	0.032372	-0.774061	-162.349966	-72.284879	-124.332743
41742		9.094837	0.870539	-2.678423	-0.190711	0.047340	-0.795517	-163.798202	-72.441656	-122.925735
41743		9.001136	0.989406	-2.869332	-0.274374	0.050055	-0.804048	-165.334625	-72.589942	-121.477904
41744		8.859678	0.741852	-3.088517	-0.317584	0.047103	-0.794516	-166.902998	-72.723599	-120.023498
41745		8.727156	0.446635	-3.297750	-0.326115	0.026214	-0.787460	-168.494924	-72.832520	-118.550665
41746		8.636450	0.365709	-3.188072	-0.288792	-0.002373	-0.749061	-170.021179	-72.909515	-117.124779
41747		8.671086	0.099054	-3.427475	-0.265368	-0.023438	-0.714237	-171.488916	-72.960208	-115.746686
41748		8.551287	0.300030	-3.161879	-0.237683	-0.030702	-0.663409	-172.854388	-72.992970	-114.459143
41749		8.806302	0.195183	-3.058760	-0.287212	-0.058538	-0.643877	-174.222576	-72.999442	-113.198687
41750		8.862868	0.207679	-3.292138	-0.237085	-0.064976	-0.615503	-175.509287	-72.992416	-111.993289
41751		8.936308	0.285525	-3.171095	-0.230287	-0.057075	-0.580193	-176.724699	-72.980664	-110.858428
41752		9.073163	0.222106	-3.130032	-0.209878	-0.040912	-0.557898	-177.882617	-72.970854	-109.771298
41753		8.978403	0.350441	-3.191089	-0.141321	-0.033314	-0.530286	-178.948651	-72.958612	-108.739223
41754		8.954166	0.429685	-3.368940	-0.080601	-0.023209	-0.507216	-179.934117	-72.946782	-107.754867
41755		8.692143	0.399272	-3.514974	-0.070442	-0.034270	-0.473304	179.150601	-72.923796	-106.837843
41756		8.382323	0.192527	-3.603099	-0.111528	-0.048389	-0.434176	178.288887	-72.889198	-106.001255
41757		8.054120	-0.276435	-3.591867	-0.162650	-0.089553	-0.401151	177.465341	-72.827971	-105.235140
41758		8.355601	-0.484869	-3.253200	-0.124247	-0.131364	-0.369121	176.733768	-72.740801	-104.541865
41759		9.078924	-0.708900	-3.166658	-0.069461	-0.116148	-0.337076	176.096665	-72.660921	-103.914448
41760		9.596675	-0.703966	-3.033537	0.052003	-0.077750	-0.325526	175.551244	-72.601645	-103.309814
41761		9.754267	-0.386007	-2.908359	0.234792	-0.034750	-0.339971	175.080360	-72.564547	-102.673498
41762		9.652124	0.085387	-2.680152	0.400678	-0.006246	-0.349238	174.686049	-72.541916	-102.017578
41763		9.643349	0.363752	-2.680745	0.366584	-0.013959	-0.353001	174.267270	-72.513172	-101.356531
41764		9.625863	0.531849	-2.607674	0.308875	-0.006793	-0.323457	173.870133	-72.488978	-100.752614
41765		9.888394	0.287755	-2.848084	0.218873	-0.002365	-0.289207	173.482687	-72.468093	-100.212995
41766		9.992709	0.055875	-3.204684	0.257084	0.017303	-0.269336	173.150606	-72.458854	-99.708305
41767		9.754164	0.280895	-3.019260	0.272118	0.012417	-0.274454	172.818588	-72.445447	-99.194744
41768		9.691634	0.550033	-3.382104	0.317909	-0.006289	-0.287641	172.495251	-72.419713	-98.662581
41769		9.569863	0.894278	-3.231685	0.287764	-0.009359	-0.293187	172.145826	-72.390713	-98.121222
41770		9.365385	0.976736	-3.138211	0.145595	-0.014687	-0.297382	171.711321	-72.357381	-97.575839
41771		9.029671	0.933967	-3.125540	0.089060	-0.029974	-0.307960	171.230850	-72.313022	-97.016221
41772		8.896111	0.977371	-3.058707	0.060468	-0.041627	-0.326988	170.707217	-72.259012	-96.428219
41773		8.826859	0.894770	-3.129941	0.028296	-0.051880	-0.335588	170.155775	-72.196571	-95.830298
41774		8.817053	0.853832	-3.102817	-0.018753	-0.058908	-0.327664	169.598343	-72.129333	-95.254074
41775		9.011258	0.809519	-3.164804	-0.033586	-0.039610	-0.329953	169.025451	-72.070845	-94.670444
41776		9.073387	0.671809	-2.986033	-0.050775	-0.034492	-0.309915	168.480076	-72.015849	-94.125796
41777		9.275412	0.764721	-2.746243	-0.041310	-0.050280	-0.292279	167.978886	-71.952401	-93.621835
41778		9.307684	0.818433	-2.782486	-0.102300	-0.049639	-0.268824	167.486905	-71.890948	-93.164036
41779		9.142117	0.796799	-2.820095	-0.125109	-0.047872	-0.246635	167.021468	-71.831972	-92.747869
41780		9.109032	0.880994	-2.680089	-0.165921	-0.068149	-0.231815	166.569454	-71.762725	-92.370193
41781		9.231969	0.878023	-2.808228	-0.204774	-0.062063	-0.213877	166.125345	-71.698236	-92.024240
41782		9.193241	0.930589	-2.772303	-0.206952	-0.054721	-0.196801	165.708814	-71.639538	-91.708438
41783		9.316344	0.873066	-2.907082	-0.235813	-0.058821	-0.186431	165.296527	-71.579192	-91.414518
41784		9.224952	0.806188	-2.971001	-0.224313	-0.051742	-0.177983	164.904532	-71.523509	-91.134856
41785		9.295019	0.732755	-2.918427	-0.237481	-0.077506	-0.170130	164.531070	-71.454033	-90.882681
41786		9.192026	0.656410	-3.004209	-0.227549	-0.064708	-0.165372	164.168049	-71.391993	-90.635332
41787		9.257175	0.555773	-3.148752	-0.214855	-0.056981	-0.163785	163.812664	-71.333812	-90.388366
41788		9.187646	0.485573	-3.135116	-0.184856	-0.038336	-0.154316	163.483311	-71.287093	-90.150566
41789		9.275602	0.268761	-3.033941	-0.172450	-0.032204	-0.142713	163.177610	-71.245070	-89.930267
41790		9.572192	0.136604	-2.911869	-0.159069	-0.047252	-0.123195	162.920238	-71.197871	-89.752752
41791		9.553298	0.109156	-2.859464	-0.140019	-0.060279	-0.094331	162.726936	-71.148042	-89.631453
41792		9.345916	0.389156	-2.822908	-0.110289	-0.071264	-0.089734	162.565056	-71.093046	-89.525199
41793		9.212967	0.760221	-3.017235	-0.054568	-0.052629	-0.097116	162.413954	-71.046690	-89.396678
41794		9.121255	1.128224	-3.053276	0.023860	-0.031718	-0.114490	162.271048	-71.008809	-89.229145
41795		9.273109	1.500572	-3.023706	0.026084	-0.018866	-0.136464	162.087939	-70.973746	-89.017836
41796		9.326446	1.538547	-2.886759	-0.042775	-0.001000	-0.174582	161.797565	-70.941542	-88.734624
41797		9.657988	1.748769	-3.010650	-0.121472	-0.005928	-0.187037	161.445414	-70.903708	-88.433819
41798		9.254488	1.215003	-3.239902	-0.087893	-0.047342	-0.225486	161.076525	-70.835892	-88.094730
41799		9.330513	1.791901	-2.461612	-0.167150	-0.000401	-0.244325	160.609380	-70.788946	-87.699677
41800		9.220905	1.377695	-2.664642	-0.386555	-0.006851	-0.254007	160.008024	-70.735630	-87.295405
41801		9.157949	1.179058	-2.801095	-0.384367	-0.009335	-0.259183	159.403621	-70.678362	-86.886534
41802		9.199803	0.982496	-2.730275	-0.411560	-0.000916	-0.267436	158.769688	-70.622654	-86.462651
41803		9.150948	0.870252	-2.969138	-0.349717	0.006913	-0.268389	158.167494	-70.569207	-86.034796
41804		9.006547	0.916837	-3.185979	-0.276325	0.017263	-0.272895	157.597530	-70.519041	-85.596299
41805		8.912199	0.886917	-3.342189	-0.239911	0.016623	-0.281460	157.038124	-70.464995	-85.146817
41806		8.919076	0.914519	-3.371915	-0.188359	0.014049	-0.282675	156.511430	-70.408104	-84.700451
41807		9.138111	0.867053	-3.316414	-0.166455	0.012834	-0.274183	156.012761	-70.350993	-84.270456
41808		9.223121	0.863385	-3.231753	-0.171840	0.005802	-0.262050	155.536653	-70.292034	-83.867429
41809		9.269206	0.805590	-3.223168	-0.180878	-0.002947	-0.269581	155.052357	-70.225381	-83.461159
41810		9.344534	0.753529	-3.351876	-0.149287	0.009956	-0.272259	154.577163	-70.163822	-83.045036
41811		9.292698	0.847280	-3.226941	-0.110650	0.022292	-0.296113	154.083641	-70.101318	-82.585848
41812		9.196027	0.994924	-3.156286	-0.100310	0.023568	-0.328211	153.553533	-70.030174	-82.081106
41813		9.153201	1.112069	-3.192084	-0.065351	0.040432	-0.351694	153.001449	-69.959776	-81.531576
41814		9.143695	1.254054	-3.166607	-0.062564	0.044481	-0.369242	152.428346	-69.885204	-80.957560
41815		9.014248	1.326677	-3.164727	-0.085468	0.045227	-0.364732	151.851253	-69.810025	-80.393152
41816		8.926328	1.224931	-3.057720	-0.127813	0.045792	-0.354854	151.268026	-69.736079	-79.847630
41817		8.914840	1.179541	-3.044429	-0.127723	0.057825	-0.337398	150.702582	-69.670906	-79.320933
41818		9.049235	1.159136	-2.885678	-0.139790	0.050521	-0.308945	150.178233	-69.608627	-78.845053
41819		9.175263	1.174214	-2.914202	-0.149782	0.045408	-0.289433	149.680213	-69.547711	-78.403359
41820		9.104665	1.254944	-3.185759	-0.116350	0.042170	-0.286891	149.210878	-69.484882	-77.971479
41821		9.089339	1.367442	-3.266027	-0.067866	0.033692	-0.290893	148.772632	-69.415269	-77.543128
41822		8.986137	1.488911	-3.156289	-0.069307	0.025501	-0.300655	148.331320	-69.337826	-77.111982
41823		8.958545	1.674687	-2.995816	-0.088306	0.027700	-0.310381	147.867225	-69.257064	-76.668088
41824		8.885845	1.829414	-2.915542	-0.129034	0.026947	-0.318631	147.374439	-69.172346	-76.218021
41825		8.899995	1.847889	-2.884695	-0.193453	0.040110	-0.317675	146.838087	-69.092578	-75.760786
41826		8.818782	1.791522	-2.798317	-0.248814	0.067140	-0.329286	146.237921	-69.020700	-75.268754
41827		8.794985	1.645824	-3.263730	-0.268780	0.038116	-0.318242	145.667062	-68.936540	-74.820318
41828		8.943867	1.681988	-3.011674	-0.319853	0.083646	-0.327270	145.022394	-68.869448	-74.323700
41829		8.647043	0.960085	-3.624328	0.723585	0.384135	-0.250511	144.812239	-68.966938	-73.652290
41830		9.002103	2.433246	-1.946560	-0.381153	0.022666	-0.370811	144.135055	-68.854204	-73.158472
41831		9.299902	1.076073	-3.671341	-0.360115	-0.007863	-0.401227	143.465738	-68.714721	-72.659968
41832		8.467155	1.926630	-2.150278	-0.218617	0.147207	-0.383882	142.768980	-68.650403	-72.044405
41833		8.860894	1.664313	-2.714263	-0.431420	0.084499	-0.434951	141.950981	-68.536534	-71.429436
41834		8.983822	1.890004	-2.891403	-0.445646	0.078396	-0.469355	141.100099	-68.404703	-70.787129
41835		8.846561	1.757089	-3.460045	-0.390491	0.104228	-0.495835	140.235722	-68.270890	-70.095943
41836		8.978454	1.754016	-3.345643	-0.304769	0.108702	-0.517546	139.403140	-68.127546	-69.385190
41837		9.364798	1.626873	-3.310767	-0.276548	0.111943	-0.525643	138.584032	-67.978465	-68.671047
41838		9.283931	1.496275	-3.271865	-0.260802	0.115987	-0.512848	137.794825	-67.832579	-67.978425
41839		9.236979	1.458561	-3.230328	-0.252567	0.088831	-0.506714	137.050990	-67.673825	-67.329246
41840		9.180369	1.420559	-3.157522	-0.223687	0.093079	-0.498865	136.338431	-67.517154	-66.694964
41841		9.527138	1.519471	-3.420598	-0.088527	0.115337	-0.478639	135.709653	-67.374545	-66.067161
41842		9.537093	1.863329	-3.127779	0.049169	0.145205	-0.468004	135.150156	-67.246284	-65.427986
41843		9.643757	2.157185	-2.891554	0.052044	0.168343	-0.465686	134.577520	-67.125513	-64.772521
41844		9.619111	2.296314	-2.903691	0.018923	0.176396	-0.476424	133.975856	-67.001360	-64.105199
41845		9.603088	2.474806	-2.877085	0.009141	0.183597	-0.478444	133.365189	-66.876070	-63.433919
41846		9.457133	2.504236	-2.902813	-0.020335	0.172803	-0.489187	132.746801	-66.739674	-62.771595
41847		9.408794	2.518036	-2.825690	-0.090281	0.138573	-0.505969	132.113318	-66.579675	-62.136104
41848		9.467478	2.309708	-3.050559	-0.147596	0.157471	-0.494698	131.448212	-66.429314	-61.500821
41849		9.429210	2.053301	-3.122881	-0.108957	0.185769	-0.472967	130.802597	-66.295653	-60.862333
41850		9.398716	1.910584	-3.015915	-0.074362	0.187732	-0.449679	130.202874	-66.170575	-60.251301
41851		9.570338	1.610608	-3.221394	-0.005399	0.210760	-0.419921	129.649042	-66.064083	-59.647097
41852		9.678522	1.631123	-3.132237	0.157284	0.169123	-0.392302	129.258737	-65.953166	-59.118916
41853		9.848732	1.868493	-3.048233	0.223479	0.214481	-0.340686	128.905133	-65.879667	-58.589446
41854		9.725361	1.997755	-3.020535	0.284642	0.233571	-0.285644	128.615465	-65.836977	-58.090927
41855		9.683887	2.378404	-2.738590	0.276692	0.210459	-0.231977	128.386535	-65.808602	-57.664310
41856		9.667367	2.414958	-2.839290	0.169997	0.215113	-0.166835	128.145467	-65.811093	-57.290865
41857		9.796077	2.649079	-2.713373	0.089751	0.215673	-0.102572	127.906412	-65.841517	-56.970567
41858		9.541149	2.924940	-2.498811	0.017941	0.218715	-0.034275	127.677522	-65.904057	-56.706095
41859		9.323774	2.982007	-2.464876	-0.040611	0.215317	0.036643	127.470901	-65.996540	-56.503416
41860		9.215239	3.111281	-2.451693	-0.065321	0.202709	0.105778	127.317413	-66.116526	-56.374022
41861		8.869594	3.201486	-2.154039	-0.096837	0.225243	0.171089	127.170643	-66.273295	-56.272354
41862		8.899016	3.241567	-1.905254	-0.190429	0.225593	0.241157	127.025325	-66.462788	-56.230437
41863		8.613025	3.096461	-1.757761	-0.249158	0.286423	0.321295	126.842295	-66.709188	-56.184662
41864		8.613591	3.059949	-1.601408	-0.281927	0.295304	0.396587	126.690887	-66.993832	-56.193310
41865		8.365122	2.793294	-1.674628	-0.240240	0.321467	0.474765	126.595165	-67.322673	-56.236922
41866		8.363689	2.840515	-1.301277	-0.217063	0.343706	0.531891	126.536469	-67.686122	-56.305670
41867		8.653116	2.667468	-1.714067	-0.277726	0.371837	0.614925	126.479349	-68.096720	-56.413900
41868		8.054764	2.455553	-1.586762	-0.236515	0.419763	0.696311	126.463378	-68.561884	-56.540233
41869		8.515629	2.464619	-1.663421	-0.229740	0.374110	0.779126	126.580480	-69.048854	-56.805151
41870		8.638082	2.506325	-1.424939	-0.303334	0.382695	0.879686	126.747844	-69.585466	-57.167539
41871		8.903360	1.936589	-1.962777	-0.468859	0.361916	0.973291	126.947078	-70.156723	-57.663996
41872		8.999252	1.737492	-1.688772	-0.304908	0.374000	1.080679	127.355468	-70.781026	-58.280426
41873		9.246750	1.478681	-1.134472	-0.357378	0.298300	1.194511	127.986103	-71.427834	-59.161562
41874		9.448372	0.964653	-1.203489	-0.345972	0.312673	1.344803	128.827182	-72.144290	-60.253435
41875		9.243786	0.795916	-1.070272	-0.196525	0.358208	1.509461	129.965181	-72.943481	-61.562557
41876		8.878062	0.741241	-0.971129	-0.086989	0.309704	1.633369	131.521339	-73.769700	-63.236511
41877		9.525491	1.742699	-1.937655	0.467333	0.272901	1.696377	133.716184	-74.591335	-65.237579
41878		9.455763	3.258189	-0.853553	-0.196179	0.344923	1.892665	135.956079	-75.500949	-67.670035
41879		9.377731	2.157758	-2.423209	-0.320426	0.294158	1.937647	138.583925	-76.378546	-70.566400
41880		11.057439	2.729958	-4.780097	0.440372	0.560711	2.208869	142.162948	-77.434345	-73.979545
41881		9.252746	3.021313	1.222560	-0.092850	0.215571	1.867854	145.790694	-78.163945	-77.743646
41882		11.380670	1.991151	-0.967504	-0.378729	0.162220	1.950667	150.003994	-78.837415	-82.262416
41883		11.779797	1.409304	-0.836298	-0.968199	0.041873	1.987353	154.650374	-79.387626	-87.556927
41884		11.932075	0.128702	-1.896819	-1.296339	-0.016082	2.043805	159.839068	-79.832411	-93.584964
41885		11.620730	-0.892619	-2.349208	-0.585287	0.060972	2.109315	166.033915	-80.220202	-100.213351
41886		11.119505	0.049661	-0.986018	-0.394771	-0.025034	2.110972	172.821454	-80.427415	-107.325933
41887		10.914988	-0.469829	-3.026019	0.090950	0.019215	2.100573	-179.956841	-80.512080	-114.593837
41888		10.471329	0.603553	-1.225752	0.248167	-0.094471	2.090700	-172.709135	-80.379454	-121.796930
41889		10.556873	0.199801	-1.865559	0.133936	-0.239061	2.078412	-165.987805	-80.022280	-128.537878
41890		10.415805	0.049765	-1.845581	0.183756	-0.295235	2.109580	-159.745138	-79.501448	-134.772196
41891		10.304593	-0.327179	-2.404408	0.106192	-0.381282	2.116850	-154.287041	-78.823826	-140.265446
41892		10.112737	-1.332134	-3.570078	0.055269	-0.347254	2.111225	-149.481320	-78.074872	-145.135853
41893		10.137698	-0.613741	-2.245316	0.593932	-0.270514	2.126960	-144.832052	-77.280826	-149.544437
41894		10.225474	-0.876821	-2.026114	0.316034	-0.446697	2.109124	-141.180533	-76.345775	-153.106564
41895		10.546092	-1.321838	-2.417488	0.493882	-0.340603	2.072087	-137.807746	-75.423510	-156.290624
41896		10.424945	-1.046340	-1.677738	0.663447	-0.330189	2.034337	-134.774307	-74.477909	-159.035899
41897		10.665097	-1.804522	-2.095445	0.544706	-0.299231	1.959732	-132.196933	-73.542612	-161.390429
41898		10.427211	-1.911395	-2.163639	0.863551	-0.227986	1.866873	-129.715649	-72.645835	-163.464428
41899		10.292872	-0.751004	-1.604533	0.980502	-0.173879	1.815236	-127.375297	-71.767749	-165.330436
41900		9.968895	-0.881851	-1.246127	0.719000	-0.150337	1.794009	-125.361935	-70.885704	-167.018614
41901		9.692341	-1.670571	-1.573088	0.604694	-0.168701	1.732485	-123.654864	-70.010448	-168.460575
41902		9.400930	-1.831200	-1.255953	0.626442	-0.232009	1.713968	-122.161382	-69.110581	-169.669172
41903		9.414851	-1.965023	-1.187939	0.560302	-0.282009	1.694755	-120.892510	-68.195922	-170.684926
41904		9.665075	-2.511010	-2.032969	0.499238	-0.247048	1.667166	-119.725005	-67.296722	-171.635133
41905		9.649905	-2.857795	-2.425120	0.637473	-0.170187	1.624348	-118.498493	-66.433716	-172.569793
41906		9.513652	-3.081430	-2.090371	0.684775	-0.145198	1.595333	-117.308521	-65.583924	-173.440642
41907		9.407962	-3.392987	-1.897365	0.698425	-0.132902	1.566095	-116.182027	-64.745918	-174.239039
41908		9.274626	-3.539142	-1.817035	0.743251	-0.146931	1.550808	-115.112617	-63.905445	-174.950882
41909		9.506705	-3.516686	-2.371746	0.838733	-0.120285	1.504844	-114.037991	-63.090272	-175.612740
41910		9.439934	-3.127446	-2.288503	1.054879	-0.074713	1.444726	-112.870167	-62.310871	-176.244553
41911		9.310687	-3.150913	-1.726468	1.004250	-0.081286	1.401502	-111.802784	-61.548048	-176.800143
41912		9.200160	-3.022537	-1.331274	0.969237	-0.083534	1.347339	-110.817669	-60.808560	-177.288469
41913		9.135780	-2.951862	-1.210394	0.825623	-0.102407	1.299277	-109.983486	-60.088022	-177.701601
41914		8.964980	-2.916760	-1.027167	0.709202	-0.084505	1.259454	-109.239331	-59.389211	-178.090476
41915		8.754191	-2.865812	-0.881441	0.608903	-0.120889	1.248991	-108.612375	-58.687488	-178.412730
41916		8.636521	-3.286090	-0.739642	0.454702	-0.143063	1.232664	-108.116352	-57.988670	-178.687163
41917		8.659062	-3.850492	-0.924533	0.330582	-0.164718	1.202092	-107.733663	-57.301997	-178.913905
41918		8.655284	-3.829933	-0.994573	0.322894	-0.194124	1.145829	-107.406074	-56.639925	-179.081699
41919		8.355410	-3.901361	-0.853080	0.270855	-0.184502	1.089691	-107.123847	-56.010035	-179.232266
41920		8.218089	-4.193922	-1.210334	0.207507	-0.189131	1.036332	-106.901262	-55.408005	-179.355468
41921		8.115222	-4.158472	-1.418154	0.312167	-0.142816	0.980465	-106.602043	-54.844202	-179.500059
41922		8.078133	-4.036414	-1.550019	0.364175	-0.099070	0.925322	-106.258194	-54.317151	-179.663622
41923		7.999158	-4.124229	-1.544396	0.387831	-0.065523	0.872058	-105.894352	-53.824360	-179.836386
41924		7.940683	-4.137134	-1.410614	0.386810	-0.046870	0.815365	-105.535337	-53.364973	179.995248
41925		7.813754	-4.140428	-1.291498	0.337963	-0.047779	0.742148	-105.225930	-52.945451	179.852754
41926		7.791040	-3.989605	-1.190579	0.305453	-0.039577	0.671466	-104.947172	-52.565753	179.724778
41927		7.588047	-3.975195	-1.109465	0.230474	-0.014253	0.596489	-104.711309	-52.231021	179.595938
41928		7.442977	-3.929521	-0.836188	0.169474	-0.017723	0.519438	-104.529548	-51.938222	179.490982
41929		7.455464	-4.090402	-1.157856	0.028167	-0.043481	0.439863	-104.463376	-51.685730	179.429532
41930		7.278071	-4.128645	-1.320782	0.006549	-0.059055	0.369982	-104.433409	-51.469822	179.398435
41931		7.385876	-4.263183	-1.562558	-0.003083	-0.066672	0.299109	-104.427514	-51.292077	179.390848
41932		7.421878	-4.365847	-1.419922	-0.056305	-0.075777	0.228424	-104.470634	-51.152377	179.407130
41933		7.422620	-4.371988	-1.606522	-0.066786	-0.058288	0.169464	-104.518328	-51.047757	179.421473
41934		6.990506	-4.562405	-1.624739	-0.049371	-0.025733	0.086161	-104.548137	-50.994195	179.425766
41935		7.035801	-4.687015	-1.364184	-0.051288	-0.095236	-0.025978	-104.646812	-50.992588	179.517164
41936		6.957077	-4.832190	-1.486226	-0.131265	-0.088927	-0.107948	-104.801538	-51.037411	179.621780
41937		6.858251	-5.001816	-1.362581	-0.113536	-0.085616	-0.199370	-104.961106	-51.132950	179.745482
41938		6.905272	-5.129836	-1.527990	-0.123232	-0.049119	-0.264082	-105.113557	-51.269744	179.852802
41939		6.824973	-5.154223	-1.272820	-0.072840	-0.017866	-0.302976	-105.223898	-51.432343	179.942868
41940		6.953135	-5.257979	-1.081968	-0.170760	-0.050933	-0.340139	-105.421151	-51.610561	-179.927850
41941		6.989730	-5.423654	-1.036952	-0.234011	-0.098525	-0.368297	-105.695221	-51.796434	-179.747266
41942		6.987332	-5.491746	-1.327678	-0.325164	-0.163450	-0.401539	-106.075832	-51.990047	-179.498038
41943		7.042771	-5.753199	-1.673196	-0.298491	-0.205485	-0.434809	-106.481091	-52.193901	-179.198963
41944		7.288680	-5.885809	-1.973286	-0.222110	-0.226117	-0.472694	-106.868649	-52.414114	-178.867718
41945		7.336752	-5.967274	-1.974244	-0.105854	-0.178119	-0.491756	-107.163617	-52.651374	-178.570311
41946		7.378562	-5.973031	-2.083311	-0.029094	-0.170738	-0.533210	-107.421961	-52.911903	-178.264567
41947		7.470334	-5.905234	-2.019069	0.065856	-0.129510	-0.567209	-107.607774	-53.197188	-177.982689
41948		7.392937	-5.906822	-1.690227	0.118809	-0.122260	-0.598712	-107.768634	-53.500601	-177.695099
41949		7.401657	-5.889717	-1.644856	0.140234	-0.137767	-0.631854	-107.940709	-53.818681	-177.379577
41950		7.347323	-6.081076	-1.624677	0.179499	-0.173157	-0.652524	-108.125941	-54.141317	-177.021172
41951		7.406155	-6.244816	-1.617644	0.254994	-0.218791	-0.663651	-108.310417	-54.460997	-176.611972
41952		7.491066	-6.255555	-1.696170	0.340695	-0.196977	-0.667971	-108.435070	-54.786434	-176.217454
41953		7.517882	-5.972720	-1.532853	0.459021	-0.169853	-0.642518	-108.469133	-55.102524	-175.852444
41954		7.590254	-5.689904	-1.512563	0.488191	-0.110931	-0.618161	-108.437116	-55.416131	-175.548780
41955		7.729573	-5.594415	-1.252576	0.420894	-0.162584	-0.588434	-108.479942	-55.704123	-175.202342
41956		8.019859	-5.779626	-1.437465	0.322053	-0.170005	-0.559518	-108.580727	-55.974861	-174.855308
41957		8.021008	-5.724542	-1.621817	0.289845	-0.139573	-0.526534	-108.670327	-56.232882	-174.545204
41958		8.042725	-5.505944	-1.729324	0.256966	-0.099039	-0.504858	-108.742329	-56.486376	-174.279630
41959		7.819890	-5.385265	-1.632591	0.263245	-0.035091	-0.481132	-108.754314	-56.738633	-174.082562
41960		7.742138	-5.338254	-1.234176	0.199400	-0.002309	-0.474738	-108.775074	-56.993446	-173.919104
41961		7.710717	-5.532769	-1.416322	0.052668	-0.041994	-0.484080	-108.918227	-57.245838	-173.710648
41962		7.702462	-5.726351	-1.327195	0.002067	-0.086683	-0.468083	-109.125840	-57.480861	-173.460460
41963		8.040716	-6.482940	-1.890517	-0.059374	-0.052376	-0.477583	-109.346094	-57.727004	-173.237845
41964		8.004300	-6.342063	-1.840581	0.193859	-0.102095	-0.450319	-109.458003	-57.948536	-172.972189
41965		8.088088	-6.404937	-1.671058	0.366523	-0.052028	-0.444229	-109.428523	-58.176291	-172.757423
41966		8.235159	-5.557945	-1.307845	0.299670	-0.119528	-0.428136	-109.492401	-58.382297	-172.478208
41967		7.449887	-5.599243	-1.380886	0.313178	-0.093189	-0.425853	-109.527486	-58.592120	-172.224542
41968		8.074580	-5.302086	-1.910759	0.280674	-0.155480	-0.439363	-109.642269	-58.796924	-171.899698
41969		8.187322	-5.183656	-2.069718	0.384017	-0.070318	-0.463057	-109.632611	-59.030932	-171.652031
41970		7.795587	-4.387835	-1.213806	0.408217	-0.051399	-0.529660	-109.614796	-59.304351	-171.398118
41971		7.736430	-4.559401	-1.604860	0.240789	-0.064910	-0.623995	-109.739860	-59.626140	-171.090731
41972		7.861345	-4.734236	-1.520604	0.232082	-0.093797	-0.694726	-109.924651	-59.979809	-170.720815
41973		8.146559	-4.715170	-1.466819	0.133421	-0.068030	-0.712899	-110.155676	-60.347844	-170.364367
41974		8.276016	-4.639847	-1.296489	0.125795	-0.074346	-0.707540	-110.401741	-60.710789	-169.996694
41975		8.582876	-4.474313	-1.235477	0.104743	-0.060711	-0.707015	-110.654969	-61.075613	-169.636195
41976		8.471243	-4.174648	-1.236759	0.138896	-0.069328	-0.702669	-110.902222	-61.435379	-169.261181
41977		8.388334	-4.067635	-1.087771	0.076484	-0.033374	-0.714764	-111.163106	-61.808411	-168.912888
41978		8.003489	-3.749875	-0.979704	0.086843	-0.019495	-0.730937	-111.417574	-62.192030	-168.566099
41979		7.961536	-3.419709	-1.043398	-0.106132	-0.039344	-0.756961	-111.823553	-62.584560	-168.174610
41980		8.277917	-3.700844	-1.500881	-0.313396	-0.044124	-0.799834	-112.382634	-62.997121	-167.745652
41981		8.393991	-4.191226	-2.397184	-0.415167	-0.070028	-0.879693	-113.079276	-63.444128	-167.229832
41982		8.131427	-4.471257	-2.002692	-0.344360	-0.057959	-0.968011	-113.782776	-63.937288	-166.662958
41983		7.986523	-4.549691	-1.765497	-0.307651	-0.080406	-1.039274	-114.549695	-64.459324	-166.004989
41984		8.013156	-4.357465	-1.504416	-0.247770	-0.088090	-1.088336	-115.344138	-65.000848	-165.281298
41985		8.053383	-4.096704	-1.390189	-0.251353	-0.088619	-1.112182	-116.188432	-65.550261	-164.508448
41986		7.990889	-3.676470	-1.081085	-0.199540	-0.072349	-1.101779	-117.013081	-66.093537	-163.727664
41987		8.126982	-3.975374	-1.450256	-0.278800	-0.022123	-1.123106	-117.875865	-66.656363	-162.958427
41988		9.253641	-3.753232	-1.193595	-0.237085	-0.034304	-1.146949	-118.782748	-67.222852	-162.118269
41989		10.523658	-3.085363	-1.843883	-0.307471	-0.011453	-1.136677	-119.740602	-67.785393	-161.270341
41990		10.894756	-2.673006	-1.740397	-0.274497	-0.065223	-1.123296	-120.780476	-68.319865	-160.316649
41991		12.390057	-2.169296	-2.422148	-0.459877	-0.093633	-1.045334	-121.953494	-68.800914	-159.337657
41992		11.717240	-2.525109	-2.516204	-0.778283	-0.018913	-0.871282	-123.120351	-69.213413	-158.563377
41993		9.902872	-3.785529	-2.110643	-1.340156	-0.235856	-0.644151	-124.730013	-69.441789	-157.661792
41994		10.144983	-5.434296	-2.725754	-1.690299	-0.319402	-0.324462	-126.381534	-69.484098	-156.930302
41995		9.969757	-6.328517	-1.729205	-1.648409	-0.252706	-0.070291	-127.697473	-69.426572	-156.531750
41996		10.097354	-6.532752	-1.191085	-1.305228	-0.257994	0.042199	-128.710628	-69.313518	-156.246110
41997		10.371994	-6.064005	-1.654160	-0.490647	-0.260875	0.031819	-129.266379	-69.202849	-155.950592
41998		10.317000	-5.039017	-1.979241	0.246697	-0.224841	-0.040729	-129.421680	-69.136493	-155.630959
41999		9.942744	-4.123367	-2.551082	0.591481	-0.212334	-0.129440	-129.450790	-69.114035	-155.235248
42000		9.553371	-2.989016	-2.793083	0.512047	-0.227691	-0.217958	-129.625234	-69.124515	-154.732258
42001		9.261297	-2.258192	-2.790774	0.108865	-0.208064	-0.311719	-130.101829	-69.182740	-154.153681
42002		9.137559	-2.134438	-2.668242	-0.189120	-0.198574	-0.409500	-130.835682	-69.284619	-153.482460
42003		9.094749	-2.160186	-2.315310	-0.278552	-0.182151	-0.492074	-131.694907	-69.425257	-152.732972
42004		8.879028	-2.374554	-1.974808	-0.305112	-0.162811	-0.556662	-132.623148	-69.596341	-151.926420
42005		8.796391	-2.685547	-2.189293	-0.228015	-0.167005	-0.597540	-133.572151	-69.778513	-151.051948
42006		8.801718	-2.899523	-2.243705	-0.043113	-0.146336	-0.615345	-134.424939	-69.971194	-150.167772
42007		8.976839	-2.965113	-2.114067	0.077491	-0.139009	-0.623362	-135.228129	-70.165926	-149.264338
42008		9.249552	-2.919243	-2.015128	0.150493	-0.144914	-0.619654	-136.005606	-70.352233	-148.344455
42009		9.545253	-2.652489	-2.025804	0.203840	-0.150704	-0.605820	-136.760971	-70.526742	-147.417045
42010		9.539986	-2.030977	-1.960027	0.204160	-0.150523	-0.570502	-137.485508	-70.683305	-146.522647
42011		9.493911	-1.851069	-2.126739	0.105430	-0.147707	-0.534327	-138.234962	-70.823541	-145.663007
42012		9.144590	-1.672966	-1.807247	0.067589	-0.128162	-0.496584	-138.946431	-70.954075	-144.866804
42013		8.990414	-1.653012	-1.530873	-0.063229	-0.104681	-0.453402	-139.665689	-71.075575	-144.142648
42014		8.729188	-1.699623	-1.524369	-0.141151	-0.079775	-0.428093	-140.376495	-71.195638	-143.474714
42015		8.642034	-1.601555	-1.674222	-0.184961	-0.089266	-0.422547	-141.126809	-71.306811	-142.792439
42016		8.589597	-1.598839	-1.877228	-0.260914	-0.110408	-0.420762	-141.946017	-71.404803	-142.083389
42017		8.592427	-1.528374	-2.109433	-0.332669	-0.118531	-0.394955	-142.790527	-71.486813	-141.391805
42018		8.562888	-1.511053	-2.277312	-0.460287	-0.134744	-0.366972	-143.689797	-71.548424	-140.719460
42019		8.578380	-1.722320	-2.284687	-0.580329	-0.141033	-0.331369	-144.622338	-71.591742	-140.085158
42020		9.062124	-1.907156	-2.032831	-0.645299	-0.162460	-0.279636	-145.540232	-71.604805	-139.505221
42021		10.451048	-2.228090	-2.105758	-0.727321	-0.184834	-0.226285	-146.453939	-71.587182	-138.979622
42022		11.644016	-2.454987	-2.810816	-0.681831	-0.211690	-0.151452	-147.254194	-71.530813	-138.545611
42023		11.510221	-2.420711	-3.277945	-0.616969	-0.257469	-0.090593	-147.970232	-71.431732	-138.161445
42024		10.817739	-2.181747	-4.172134	-0.433436	-0.324564	-0.077566	-148.613132	-71.294657	-137.742789
42025		9.969281	-1.480501	-4.325209	-0.082049	-0.342396	-0.123793	-149.132821	-71.161094	-137.241724
42026		9.285374	-0.254276	-3.414967	0.110258	-0.314693	-0.189883	-149.604428	-71.059123	-136.674248
42027		9.017534	0.446003	-2.666275	-0.052647	-0.236316	-0.266984	-150.212957	-71.016390	-136.060862
42028		9.271267	0.577487	-2.610234	-0.281594	-0.144901	-0.346249	-150.988510	-71.039261	-135.409159
42029		9.326400	0.629202	-1.704613	-0.552743	-0.126204	-0.401348	-151.990082	-71.083233	-134.683257
42030		9.753826	-0.759179	-2.739508	-0.839763	-0.097140	-0.469156	-153.236955	-71.155425	-133.871835
42031		9.276352	-0.469259	-1.884780	-0.547443	-0.117541	-0.527307	-154.429026	-71.226009	-132.942041
42032		9.168031	-0.730134	-2.719841	-0.408596	-0.086925	-0.566204	-155.585221	-71.316018	-131.966268
42033		8.886991	-0.342994	-2.788329	-0.076226	-0.051906	-0.582564	-156.564476	-71.422036	-130.977121
42034		8.636505	0.089814	-2.948439	-0.061169	-0.030903	-0.599228	-157.556637	-71.537715	-129.965630
42035		8.516716	0.164663	-3.149733	-0.154139	-0.039606	-0.622708	-158.659699	-71.647571	-128.894340
42036		8.524789	0.244099	-3.375694	-0.243109	-0.079484	-0.636778	-159.871488	-71.732392	-127.762590
42037		8.782912	0.181720	-3.543956	-0.324978	-0.126138	-0.626392	-161.151556	-71.781929	-126.609009
42038		8.937463	0.058752	-3.452709	-0.368737	-0.148641	-0.634906	-162.487307	-71.812818	-125.423281
42039		8.979072	-0.083046	-3.314469	-0.373856	-0.143366	-0.637337	-163.832577	-71.837984	-124.231004
42040		9.063764	-0.114741	-2.936361	-0.352224	-0.114418	-0.618525	-165.122309	-71.868025	-123.084156
42041		9.138015	-0.041850	-2.727863	-0.349532	-0.069399	-0.586773	-166.342432	-71.910408	-122.009319
42042		9.081925	0.103044	-2.782229	-0.295032	-0.034639	-0.552487	-167.463037	-71.961265	-121.006463
42043		9.210500	0.350754	-2.773800	-0.227423	-0.021591	-0.528728	-168.505815	-72.010354	-120.045133
42044		9.256821	0.516339	-2.749186	-0.208202	-0.018029	-0.512311	-169.512160	-72.054719	-119.110671
42045		9.235190	0.578646	-2.920300	-0.226598	-0.038972	-0.494829	-170.509931	-72.080086	-118.196593
42046		9.171921	0.549126	-2.922620	-0.309029	-0.077817	-0.468030	-171.519997	-72.076549	-117.319213
42047		9.124519	0.411278	-3.083894	-0.387196	-0.104041	-0.453671	-172.555643	-72.051757	-116.462024
42048		9.214663	0.248443	-3.443292	-0.381077	-0.100667	-0.449494	-173.576600	-72.024282	-115.616418
42049		9.315666	0.241487	-3.558187	-0.300428	-0.083805	-0.445871	-174.539456	-72.001269	-114.783241
42050		9.436404	0.221976	-3.502782	-0.228554	-0.069364	-0.461816	-175.484474	-71.983409	-113.925397
42051		9.409577	0.295968	-3.499028	-0.145338	-0.029115	-0.468163	-176.386709	-71.984141	-113.062389
42052		9.362660	0.426940	-3.201544	-0.109387	-0.024761	-0.493392	-177.312210	-71.984272	-112.153249
42053		9.340699	0.460346	-3.510607	-0.060760	0.009451	-0.514700	-178.245358	-71.999533	-111.206820
42054		9.262418	0.603872	-3.489316	-0.003053	0.034196	-0.539035	-179.189246	-72.024838	-110.214457
42055		9.224473	0.678057	-3.588217	-0.017010	0.058826	-0.550973	179.835302	-72.058806	-109.197474
42056		9.134938	0.496414	-3.782678	0.012798	0.066084	-0.552413	178.870365	-72.091926	-108.173822
42057		8.993866	0.557584	-3.724919	0.059187	0.061304	-0.542637	177.946647	-72.116952	-107.165684
42058		8.963863	0.613818	-3.766640	0.078101	0.026047	-0.522815	177.069398	-72.117679	-106.195114
42059		9.001646	0.687918	-3.651527	0.065192	0.016984	-0.497299	176.231626	-72.109356	-105.273724
42060		8.978684	0.734575	-3.728920	0.060336	0.012659	-0.476248	175.429382	-72.095595	-104.392602
42061		9.180713	0.837618	-3.253263	0.086447	-0.022330	-0.459933	174.678696	-72.058795	-103.549751
42062		9.402025	0.755395	-3.320722	-0.029418	-0.011876	-0.443173	173.891877	-72.025598	-102.738620
42063		9.266767	0.663791	-2.991204	-0.034612	-0.007918	-0.432691	173.123322	-71.991781	-101.949582
42064		9.212211	0.694967	-2.751473	-0.066531	-0.027117	-0.426067	172.354842	-71.944411	-101.179770
42065		9.124069	0.552020	-2.818525	-0.125971	-0.021291	-0.408609	171.585996	-71.898409	-100.445097
42066		9.115341	0.520058	-2.792025	-0.128130	-0.018922	-0.387561	170.854684	-71.852756	-99.751133
42067		9.178120	0.485815	-2.836498	-0.116476	-0.003330	-0.359307	170.178391	-71.815789	-99.107776
42068		9.308525	0.730953	-2.456069	-0.114921	-0.048743	-0.326591	169.575210	-71.754415	-98.540375
42069		9.197007	0.504881	-3.456163	-0.093567	0.047711	-0.274813	169.045301	-71.750951	-98.037031
42070		9.705023	0.915600	-2.764751	0.005725	-0.048524	-0.262746	168.625269	-71.693571	-97.589510
42071		9.283889	1.006640	-3.102429	-0.131292	0.014048	-0.224664	168.172635	-71.674485	-97.190133
42072		9.571307	0.982400	-2.783518	-0.125171	-0.019414	-0.189960	167.794319	-71.640025	-96.865416
42073		9.355698	0.777659	-3.024686	-0.155839	-0.020855	-0.168405	167.437468	-71.606606	-96.581649
42074		9.359426	0.780226	-3.112024	-0.096094	-0.021387	-0.149802	167.146414	-71.574881	-96.331224
42075		9.031203	0.975882	-2.864561	-0.131183	-0.038781	-0.148963	166.845345	-71.532995	-96.091254
42076		9.265515	0.925629	-3.101314	-0.147260	-0.044582	-0.145338	166.543636	-71.488100	-95.860394
42077		9.325256	1.160544	-3.241745	-0.142241	-0.014796	-0.140996	166.242205	-71.459849	-95.626612
42078		9.373290	1.171226	-3.208419	-0.211798	-0.004329	-0.122927	165.926286	-71.439638	-95.419694
42079		9.326110	1.058749	-3.165023	-0.238113	-0.000700	-0.112867	165.611996	-71.422369	-95.230236
42080		9.465120	1.004752	-3.044989	-0.218724	-0.010743	-0.104218	165.326736	-71.400572	-95.059814
42081		9.342792	0.962722	-2.924647	-0.193949	-0.009027	-0.095350	165.071125	-71.380656	-94.905526
42082		9.345229	1.049411	-2.949703	-0.155977	-0.007318	-0.096559	164.833806	-71.361406	-94.747721
42083		9.394254	1.126780	-3.087065	-0.141349	-0.008089	-0.113369	164.579259	-71.338863	-94.562713
42084		9.294425	1.024892	-3.314251	-0.135468	-0.017841	-0.118622	164.323297	-71.309974	-94.372789
42085		9.346520	1.213218	-3.284589	-0.141565	-0.017239	-0.134633	164.039409	-71.278524	-94.156873
42086		9.152815	1.115652	-3.105422	-0.278882	-0.027548	-0.136801	163.677869	-71.240750	-93.942164
42087		9.002642	0.884980	-3.025752	-0.348237	-0.039489	-0.125709	163.302645	-71.197697	-93.754753
42088		8.915504	0.865302	-2.846529	-0.387816	-0.040712	-0.101809	162.943775	-71.157637	-93.608705
42089		8.860455	0.543540	-2.824590	-0.441585	-0.028405	-0.072379	162.597376	-71.128947	-93.508186
42090		9.103465	0.450243	-2.785129	-0.423787	-0.017324	-0.045089	162.298564	-71.110920	-93.447338
42091		9.257702	0.365434	-3.164213	-0.360065	0.002723	-0.021939	162.064379	-71.107720	-93.416034
42092		9.472563	0.595274	-3.090620	-0.257014	0.005378	-0.018888	161.891660	-71.106561	-93.387443
42093		9.460030	0.421584	-3.433184	-0.232549	0.018079	-0.041513	161.691440	-71.108145	-93.314817
42094		9.243504	0.595505	-3.179228	-0.168495	0.018890	-0.064175	161.490494	-71.106074	-93.202769
42095		9.179025	0.536545	-3.205172	-0.177489	0.019835	-0.090601	161.243014	-71.099451	-93.046844
42096		9.132167	0.619954	-3.166604	-0.105125	0.030144	-0.108551	161.002240	-71.094956	-92.854299
42097		9.246888	0.698204	-3.102380	-0.116673	0.031101	-0.132669	160.717234	-71.086082	-92.621864
42098		9.158589	0.735972	-3.141589	-0.105072	0.033502	-0.136146	160.431495	-71.077545	-92.381725
42099		9.115196	0.619708	-3.103200	-0.166373	0.019786	-0.143385	160.108095	-71.059720	-92.138774
42100		9.022199	0.431214	-3.306047	-0.153086	0.017406	-0.148417	159.785610	-71.039254	-91.888811
42101		9.019802	0.387495	-3.371264	-0.119980	0.023177	-0.142168	159.489805	-71.022625	-91.646877
42102		9.011893	0.352995	-3.349013	-0.058535	0.031388	-0.142353	159.223964	-71.010036	-91.399455
42103		9.066714	0.506791	-3.359441	0.005582	0.040782	-0.149774	158.978616	-71.000541	-91.134761
42104		9.042548	0.612707	-3.369298	0.081778	0.043611	-0.156604	158.764479	-70.990848	-90.856942
42105		9.055108	0.784574	-3.159761	0.135790	0.043334	-0.169807	158.561682	-70.977879	-90.558313
42106		8.889793	1.010490	-3.127690	0.207053	0.050940	-0.186985	158.368581	-70.965051	-90.226764
42107		8.851485	1.126790	-2.874797	0.194031	0.042854	-0.232186	158.104128	-70.937850	-89.827546
42108		8.755270	1.462824	-3.120955	0.231442	0.046664	-0.263703	157.811102	-70.905289	-89.375377
42109		8.678268	1.711259	-2.656076	0.177043	0.047608	-0.298621	157.434639	-70.864722	-88.867752
42110		8.703646	1.644238	-2.962579	0.088625	0.028732	-0.331638	156.971265	-70.805645	-88.321645
42111		8.601219	1.694236	-2.971087	0.009437	0.030555	-0.345526	156.443964	-70.742827	-87.755637
42112		8.654427	1.568592	-2.922078	-0.055362	0.031080	-0.342404	155.887063	-70.679228	-87.197446
42113		8.876613	1.297000	-2.976118	-0.139093	0.040757	-0.322389	155.309390	-70.623613	-86.667820
42114		8.910114	1.024623	-3.009298	-0.181708	0.050721	-0.286391	154.756091	-70.580116	-86.189826
42115		8.977389	0.699788	-3.102993	-0.173887	0.032344	-0.272074	154.243859	-70.529208	-85.750427
42116		9.061423	0.545136	-3.117250	-0.091403	0.024844	-0.272804	153.785287	-70.472983	-85.317720
42117		9.531746	0.534239	-3.450443	0.047567	0.004219	-0.284094	153.407738	-70.402279	-84.886280
42118		9.464658	1.028778	-2.781118	0.143999	0.050028	-0.326680	152.993902	-70.342978	-84.357499
42119		10.282421	-0.032782	-5.456793	1.112922	0.061150	-0.378709	153.055276	-70.275315	-83.743583
42120		8.348523	3.148737	-0.608783	-0.028134	0.155839	-0.402713	152.362192	-70.248371	-83.022499
42121		9.523199	0.618293	-4.110934	-0.040619	0.125239	-0.440659	151.633811	-70.192769	-82.271342
42122		9.440304	1.983944	-2.249314	0.051833	0.034479	-0.494649	150.957797	-70.073552	-81.519125
42123		9.360661	1.476544	-2.942111	-0.183700	0.047939	-0.499082	150.139142	-69.956511	-80.758166
42124		9.511053	1.352262	-3.364498	-0.105522	0.045027	-0.490951	149.387599	-69.836808	-80.020402
42125		9.532336	1.074026	-3.489341	-0.030845	0.088205	-0.471453	148.678500	-69.740859	-79.281762
42126		9.285645	1.210053	-2.890584	0.017712	0.101482	-0.457299	148.011822	-69.652566	-78.558229
42127		9.270631	1.111252	-2.768429	-0.085209	0.066565	-0.459481	147.318394	-69.543745	-77.868631
42128		9.293012	1.119368	-2.877648	-0.098239	0.062997	-0.444499	146.647208	-69.435044	-77.210225
42129		9.292848	1.102140	-3.082487	-0.047594	0.059121	-0.431857	146.030932	-69.325912	-76.579052
42130		9.253810	1.415621	-2.779215	-0.036926	0.061911	-0.420704	145.439149	-69.219400	-75.967021
42131		9.228465	1.319490	-2.914166	-0.096582	0.074035	-0.414698	144.815914	-69.118224	-75.357551
42132		9.062721	1.460034	-2.886302	-0.041904	0.096143	-0.407884	144.219263	-69.027395	-74.742531
42133		9.066441	1.468764	-3.070898	-0.041084	0.108656	-0.409826	143.614481	-68.939338	-74.118009
42134		9.035497	1.685625	-2.879901	-0.041723	0.109671	-0.424412	142.996865	-68.844452	-73.479642
42135		9.044533	1.785219	-2.867873	-0.105651	0.107794	-0.443078	142.327695	-68.739564	-72.824932
42136		8.900399	1.854069	-3.024072	-0.189294	0.104515	-0.458147	141.603512	-68.625103	-72.162014
42137		8.864093	1.676169	-3.171810	-0.181895	0.123536	-0.467530	140.862272	-68.512599	-71.475814
42138		9.256371	1.430673	-3.477823	-0.154404	0.130931	-0.456464	140.150314	-68.404328	-70.803516
42139		9.181884	1.415694	-3.176101	-0.190887	0.124710	-0.452972	139.433374	-68.291454	-70.147958
42140		9.148474	1.140671	-3.431041	-0.174814	0.110598	-0.457121	138.742442	-68.168067	-69.509792
42141		9.164965	1.124174	-3.521228	-0.013079	0.094626	-0.465890	138.156389	-68.031748	-68.884367
42142		9.376072	1.315628	-3.470800	0.122260	0.105269	-0.471218	137.640530	-67.895817	-68.250208
42143		9.420562	1.791276	-3.046795	0.220854	0.127532	-0.473519	137.163288	-67.766175	-67.596356
42144		9.368284	2.057116	-2.843978	0.198352	0.126867	-0.480908	136.674194	-67.631469	-66.942774
42145		9.334718	2.294439	-2.868355	0.200959	0.153266	-0.477269	136.170448	-67.506829	-66.271354
42146		9.216167	2.908241	-2.224022	0.061103	0.151417	-0.471189	135.602338	-67.381673	-65.616150
42147		9.493851	2.322325	-3.132864	0.053870	0.144839	-0.447746	135.064545	-67.260644	-64.997960
42148		9.402848	2.720899	-2.705475	0.071173	0.167136	-0.413350	134.555180	-67.160658	-64.399099
42149		9.486329	2.714997	-2.714745	-0.115410	0.141251	-0.392721	133.987312	-67.056372	-63.852581
42150		9.381781	2.354467	-3.152380	-0.065844	0.169996	-0.359054	133.457127	-66.975626	-63.315518
42151		9.363957	2.405574	-2.849631	-0.083516	0.172479	-0.337445	132.936622	-66.902708	-62.799930
42152		9.468598	2.184945	-3.007269	-0.128577	0.181531	-0.310048	132.410725	-66.843275	-62.306027
42153		9.637111	1.955319	-3.217033	-0.087917	0.184771	-0.286633	131.927047	-66.793052	-61.832777
42154		9.635647	1.950600	-3.070592	-0.053693	0.185878	-0.258065	131.490620	-66.754284	-61.389150
42155		9.718999	1.770501	-3.347063	-0.076823	0.194354	-0.219851	131.065856	-66.733549	-60.972843
42156		9.788774	1.882727	-3.306434	-0.023913	0.203259	-0.187052	130.693282	-66.729575	-60.579968
42157		9.706492	1.989417	-3.170807	-0.026661	0.198944	-0.155200	130.349454	-66.736538	-60.220443
42158		9.608448	2.183328	-2.951724	-0.054257	0.183169	-0.122299	130.035791	-66.751657	-59.910611
42159		9.500096	2.344930	-2.717687	-0.103660	0.173789	-0.080308	129.737017	-66.780728	-59.648216
42160		9.590313	2.474837	-2.724046	-0.192978	0.185781	-0.044857	129.406065	-66.829710	-59.406165
42161		9.728857	2.592349	-2.911004	-0.213376	0.211984	0.001396	129.072122	-66.907711	-59.174085
42162		9.566958	2.818590	-2.560134	-0.243561	0.238634	0.054659	128.738048	-67.018992	-58.960405
42163		9.322536	2.914390	-2.546198	-0.302065	0.203377	0.076072	128.421256	-67.126311	-58.802472
42164		8.835288	2.759046	-2.508346	-0.315009	0.179232	0.109529	128.151121	-67.240277	-58.702916
42165		8.515776	2.483203	-2.361607	-0.335169	0.138487	0.138714	127.934216	-67.352369	-58.674081
42166		8.033699	2.122365	-2.570811	-0.242818	0.115102	0.183374	127.834714	-67.476892	-58.714696
42167		8.149166	2.070562	-2.281069	-0.102110	0.134398	0.232493	127.834275	-67.629942	-58.775645
42168		8.101961	1.824971	-1.829067	-0.039376	0.178021	0.272071	127.858450	-67.816733	-58.823842
42169		8.522617	1.857247	-1.502356	0.071771	0.185261	0.265276	127.930804	-68.002481	-58.855677
42170		8.728305	1.800841	-1.252243	0.408125	0.241913	0.240106	128.113879	-68.197396	-58.798657
42171		8.816128	2.693407	-1.330687	0.790237	0.270579	0.220990	128.465788	-68.393431	-58.688231
42172		8.776917	3.361900	-0.846360	0.800076	0.209288	0.150851	128.833814	-68.537026	-58.588774
42173		8.827348	3.980058	-1.756796	0.686729	0.163851	0.104769	129.145344	-68.643314	-58.498900
42174		8.439615	4.702245	-2.341529	0.496949	0.142633	0.083906	129.355808	-68.733412	-58.416941
42175		8.654447	4.904634	-2.681580	0.154019	0.126728	0.080618	129.382871	-68.815725	-58.349444
42176		8.730852	4.846382	-2.792687	-0.011508	0.166569	0.100385	129.289455	-68.921733	-58.254173
42177		8.709381	4.810853	-2.577702	-0.245453	0.218765	0.118906	129.015723	-69.054260	-58.109738
42178		8.826560	4.236468	-2.113592	-0.491343	0.198832	0.121210	128.625386	-69.180697	-57.991133
42179		8.957013	3.758297	-1.606767	-0.632780	0.194939	0.129906	128.161847	-69.308988	-57.881287
42180		9.076104	3.105693	-1.399198	-0.661361	0.151233	0.135311	127.737648	-69.424299	-57.830825
42181		9.079453	2.787841	-1.584723	-0.533910	0.150305	0.152390	127.399679	-69.546634	-57.794742
42182		8.934402	2.751705	-1.931325	-0.315588	0.160436	0.193612	127.212550	-69.691509	-57.785940
42183		8.946457	2.920706	-1.948380	-0.168292	0.158870	0.237435	127.150610	-69.855545	-57.820841
42184		8.863184	2.933463	-2.263390	-0.092604	0.161276	0.294473	127.184716	-70.046742	-57.911572
42185		8.962385	2.898725	-2.193885	-0.070790	0.178384	0.359420	127.272226	-70.273182	-58.045879
42186		8.948152	2.699109	-1.832283	-0.119890	0.179724	0.430101	127.403200	-70.532451	-58.255779
42187		8.910981	2.404302	-1.459045	-0.142402	0.183990	0.523399	127.612476	-70.835153	-58.562157
42188		8.758403	2.323846	-1.227507	-0.151700	0.170665	0.611204	127.934208	-71.172726	-58.992315
42189		9.061069	2.259076	-1.149699	-0.183150	0.199883	0.728377	128.335385	-71.572304	-59.524574
42190		8.940281	2.216988	-1.108856	-0.213671	0.213817	0.851765	128.858167	-72.031013	-60.201744
42191		9.140716	2.262690	-1.219604	-0.297997	0.207032	0.974142	129.512850	-72.539149	-61.066425
42192		9.171155	1.996347	-1.468443	-0.378520	0.181027	1.091243	130.347137	-73.086014	-62.164730
42193		8.422627	3.196723	0.467837	-0.865280	-0.111984	1.107656	131.407797	-73.524407	-63.787826
42194		10.241668	-0.222394	-3.696824	-0.661379	0.121566	1.322126	132.610036	-74.134688	-65.432165
42195		9.681650	0.954036	-2.547245	0.231532	0.312517	1.404401	134.278521	-74.842479	-67.024206
42196		9.853229	2.476387	-0.521600	-0.052132	0.227504	1.553138	136.308690	-75.561856	-69.152886
42197		9.860862	0.710988	-0.707835	-0.447937	0.153617	1.647091	138.597318	-76.265218	-71.775215
42198		10.632234	0.684158	-1.730835	-0.393939	0.055131	1.729161	141.487654	-76.926380	-74.976483
42199		10.194628	-0.239842	-2.201415	-0.175535	0.020452	1.793463	145.004564	-77.550927	-78.683692
42200		10.763256	1.516630	-1.053358	0.093021	0.051581	1.855394	149.145610	-78.154051	-82.862963
42201		10.316374	1.128624	-1.269909	-0.227841	0.057285	1.940247	153.724394	-78.714526	-87.667956
42202		10.394915	0.785789	-1.849971	-0.029096	0.007152	1.946502	158.944250	-79.166083	-93.001446
42203		10.600613	1.131851	-1.939502	0.012070	-0.060715	1.929930	164.595634	-79.478529	-98.743418
42204		10.508539	0.686647	-2.494755	-0.008253	-0.019344	1.905861	170.427602	-79.703214	-104.675655
42205		10.440778	0.882314	-1.143920	0.019954	-0.088456	1.909342	176.491517	-79.776300	-110.824545
42206		10.499201	0.351229	-1.462961	-0.039225	-0.131032	1.870899	-177.584723	-79.709876	-116.865243
42207		10.543290	0.241377	-1.617854	-0.097049	-0.143516	1.847229	-171.913774	-79.529227	-122.685150
42208		10.420689	0.020417	-1.794744	-0.231085	-0.236629	1.814550	-166.723738	-79.201014	-128.098526
42209		10.482788	-0.527829	-2.572233	-0.226792	-0.188162	1.797253	-161.888632	-78.816335	-133.154444
42210		10.104152	-1.012408	-2.140306	-0.222805	-0.141800	1.747623	-157.485723	-78.389921	-137.774089
42211		10.073172	-0.679330	-1.256269	-0.100817	-0.262920	1.754452	-153.487719	-77.833249	-141.916861
42212		10.137184	-0.902390	-1.693092	-0.146427	-0.266321	1.727038	-149.948907	-77.227224	-145.625044
42213		9.948568	-1.223503	-1.948655	-0.027323	-0.237908	1.679155	-146.742816	-76.603741	-148.930789
42214		9.868161	-1.442108	-2.022420	0.074892	-0.249561	1.621650	-143.896727	-75.954646	-151.814278
42215		9.932457	-1.522413	-2.148150	0.297361	-0.187050	1.589443	-141.154666	-75.312980	-154.467112
42216		9.931548	-1.435878	-1.927104	0.425806	-0.160704	1.553470	-138.588496	-74.666048	-156.869315
42217		9.743862	-1.919314	-2.423695	0.395753	-0.138510	1.474812	-136.327581	-74.033715	-158.979942
42218		9.627831	-1.481925	-1.572451	0.707936	-0.123971	1.488909	-134.019049	-73.379047	-160.960455
42219		9.439084	-1.798817	-1.807401	0.518762	-0.154352	1.441766	-132.081494	-72.712501	-162.673453
42220		9.480658	-2.192457	-2.259343	0.533588	-0.145347	1.418208	-130.285215	-72.043251	-164.235376
42221		9.810185	-1.975320	-2.800924	0.721959	-0.118765	1.438809	-128.447429	-71.360246	-165.733486
42222		9.843351	-2.106333	-2.555355	0.778246	-0.050046	1.428811	-126.614558	-70.690686	-167.198128
42223		9.769911	-2.359231	-1.826933	0.755504	-0.012338	1.393325	-124.888957	-70.036177	-168.568802
42224		9.640478	-2.669389	-1.689649	0.700461	0.026558	1.346196	-123.281693	-69.403048	-169.852420
42225		9.415208	-2.857284	-1.571864	0.661766	-0.031291	1.332076	-121.866174	-68.747752	-170.960061
42226		9.538907	-2.805329	-1.739257	0.635525	-0.050960	1.293431	-120.591971	-68.096106	-171.936698
42227		9.507402	-2.757654	-1.830200	0.601182	-0.062443	1.284546	-119.421906	-67.438418	-172.826725
42228		9.562234	-2.802506	-2.040736	0.562565	-0.080965	1.255061	-118.371311	-66.783680	-173.615208
42229		9.523621	-2.898875	-2.119040	0.524911	-0.102458	1.225585	-117.434585	-66.133203	-174.307010
42230		9.395740	-2.950436	-1.882801	0.469723	-0.117650	1.199720	-116.602834	-65.487515	-174.921761
42231		9.286854	-2.767953	-1.433141	0.407004	-0.163927	1.182911	-115.903254	-64.835706	-175.433761
42232		9.162191	-3.055547	-1.956560	0.321078	-0.182326	1.145500	-115.320682	-64.196093	-175.873300
42233		8.859573	-3.262454	-1.594772	0.409833	-0.208210	1.105334	-114.758951	-63.569413	-176.235449
42234		8.784021	-3.550051	-1.871490	0.359985	-0.245500	1.054539	-114.307772	-62.958789	-176.507654
42235		8.809130	-3.867707	-1.728021	0.384390	-0.201313	1.022086	-113.828616	-62.374659	-176.797153
42236		8.746976	-3.892877	-1.888850	0.461079	-0.149247	0.987344	-113.284660	-61.819394	-177.111683
42237		8.548474	-3.768266	-1.454643	0.478919	-0.140462	0.940080	-112.757570	-61.289811	-177.397089
42238		8.533800	-3.879086	-1.323010	0.359702	-0.175445	0.897987	-112.361790	-60.773621	-177.611831
42239		8.639535	-4.132283	-1.583330	0.349586	-0.193294	0.849982	-112.016933	-60.278489	-177.775884
42240		8.336960	-4.271209	-1.572006	0.407544	-0.168101	0.789218	-111.645932	-59.820471	-177.932473
42241		8.748802	-4.156284	-1.940337	0.550700	-0.191779	0.742178	-111.239202	-59.382138	-178.036198
42242		8.695865	-4.145704	-1.760359	0.550946	-0.144510	0.707999	-110.808372	-58.971378	-178.168189
42243		8.739947	-4.053488	-1.830251	0.642626	-0.104742	0.683792	-110.305392	-58.581119	-178.323771
42244		8.661357	-3.911778	-1.719087	0.623601	-0.073053	0.662179	-109.799860	-58.208022	-178.495705
42245		8.548285	-3.512972	-1.722289	0.649533	-0.063762	0.645970	-109.284027	-57.844672	-178.663031
42246		8.324174	-3.069818	-1.584964	0.631547	-0.092985	0.599366	-108.823964	-57.500431	-178.777150
42247		8.422365	-3.393608	-1.645130	0.483373	-0.106549	0.582139	-108.470421	-57.162556	-178.866071
42248		8.395972	-3.688579	-1.611612	0.479804	-0.115091	0.561914	-108.135682	-56.834051	-178.935322
42249		8.381475	-3.550767	-1.205547	0.372004	-0.111278	0.529234	-107.871740	-56.523648	-178.994038
42250		8.438416	-3.698139	-1.240110	0.169878	-0.137947	0.494423	-107.756719	-56.227742	-179.013191
42251		8.258704	-3.869892	-1.341136	0.055083	-0.151426	0.458726	-107.728452	-55.948662	-179.007133
42252		8.215045	-4.005708	-1.584600	-0.004160	-0.173190	0.426074	-107.759913	-55.683984	-178.969889
42253		8.140464	-4.046461	-1.454560	-0.076542	-0.176694	0.394778	-107.842981	-55.435361	-178.920239
42254		8.097640	-4.218429	-1.588368	-0.119046	-0.198199	0.370855	-107.972393	-55.196402	-178.843721
42255		8.003754	-4.419495	-1.719775	-0.119313	-0.186468	0.345381	-108.097977	-54.972844	-178.771822
42256		7.890066	-4.546261	-1.674947	-0.125640	-0.179616	0.320358	-108.227087	-54.764562	-178.699893
42257		7.763886	-4.756202	-1.727899	-0.108573	-0.165528	0.296554	-108.340555	-54.571155	-178.634934
42258		7.755542	-4.864131	-1.741337	-0.027291	-0.158344	0.256488	-108.411381	-54.401325	-178.565053
42259		7.831975	-4.865891	-1.665652	0.020354	-0.131731	0.224749	-108.442166	-54.252978	-178.510665
42260		7.702013	-4.819060	-1.495972	0.019971	-0.144649	0.180488	-108.493731	-54.126896	-178.430891
42261		7.832061	-4.871982	-1.673188	0.014314	-0.159977	0.131307	-108.571857	-54.024108	-178.322144
42262		7.831131	-4.968773	-1.681608	0.041461	-0.150469	0.088664	-108.637645	-53.946742	-178.209358
42263		7.770641	-4.932957	-1.488778	0.056882	-0.129655	0.046259	-108.689374	-53.895535	-178.102882
42264		7.649394	-4.906258	-1.569363	0.067169	-0.127859	-0.002574	-108.746050	-53.871733	-177.982992
42265		7.581447	-4.948922	-1.700745	0.121786	-0.094531	-0.045503	-108.757384	-53.876684	-177.880425
42266		7.318126	-4.757571	-1.299766	0.111044	-0.141955	-0.099662	-108.823945	-53.902873	-177.717192
42267		7.417103	-4.909905	-1.465601	0.040261	-0.123238	-0.143196	-108.928395	-53.955335	-177.557283
42268		7.299812	-4.983337	-1.474357	0.055369	-0.088608	-0.193724	-109.011797	-54.042144	-177.412878
42269		7.401752	-5.054722	-1.439263	0.078294	-0.050333	-0.236947	-109.065133	-54.158743	-177.289515
42270		7.268447	-4.932580	-1.185017	0.096529	-0.026050	-0.283874	-109.102589	-54.305921	-177.173083
42271		7.361106	-4.846565	-1.295779	0.046866	-0.060619	-0.325358	-109.206299	-54.468291	-177.010350
42272		7.449124	-5.010463	-1.641656	0.043289	-0.069723	-0.354323	-109.327901	-54.645108	-176.828521
42273		7.556012	-5.103717	-1.631600	0.057666	-0.095284	-0.386216	-109.471015	-54.833364	-176.610663
42274		7.675831	-5.143942	-1.778005	0.044147	-0.094485	-0.406988	-109.628867	-55.033345	-176.384783
42275		7.642531	-5.180827	-1.797661	0.099414	-0.048802	-0.427077	-109.727372	-55.251999	-176.193211
42276		7.586030	-5.137159	-1.778071	0.125205	-0.060578	-0.442242	-109.826344	-55.477037	-175.983627
42277		7.581279	-5.224962	-1.977035	0.109929	-0.045256	-0.452743	-109.927108	-55.709830	-175.783053
42278		7.533949	-5.360232	-2.201146	0.105685	-0.045186	-0.444801	-110.029962	-55.938817	-175.583448
42279		7.654676	-5.604714	-2.227672	0.073161	-0.029752	-0.434368	-110.138152	-56.164362	-175.400404
42280		7.676698	-5.774761	-1.940848	0.069319	-0.004273	-0.405193	-110.221202	-56.379688	-175.250723
42281		7.727227	-5.670296	-1.331364	0.061749	-0.038079	-0.361259	-110.324330	-56.563948	-175.082489
42282		8.231737	-5.988005	-1.504294	-0.026743	-0.058671	-0.326570	-110.485937	-56.725804	-174.905270
42283		8.063938	-5.866891	-1.376941	0.034297	-0.041040	-0.291243	-110.588767	-56.871471	-174.756821
42284		8.175449	-5.605182	-1.523644	0.091696	-0.019718	-0.260328	-110.632351	-57.005262	-174.640006
42285		7.951046	-5.506393	-1.408388	0.123952	0.047002	-0.252832	-110.600565	-57.147980	-174.591200
42286		7.669315	-5.467564	-1.506955	0.098413	0.051750	-0.261157	-110.581949	-57.296605	-174.544126
42287		7.651492	-5.751762	-2.043160	0.084255	0.025621	-0.273505	-110.597687	-57.446115	-174.466058
42288		7.748445	-5.984020	-2.249372	0.201371	0.014627	-0.301653	-110.564571	-57.608926	-174.366391
42289		7.793523	-5.493462	-2.060130	0.285207	-0.019924	-0.306343	-110.514847	-57.766936	-174.229821
42290		7.767078	-5.705000	-1.760781	0.126619	-0.086148	-0.338316	-110.623304	-57.929061	-174.013876
42291		8.077085	-5.444793	-2.579395	0.366726	-0.133172	-0.345326	-110.638515	-58.084997	-173.746146
42292		7.800782	-5.121567	-1.222831	0.236790	-0.098560	-0.398159	-110.716971	-58.276404	-173.492007
42293		8.135480	-4.786173	-2.189667	0.317024	-0.161684	-0.405732	-110.809172	-58.458583	-173.168344
42294		7.562109	-5.000713	-1.463402	0.070233	-0.111100	-0.488357	-111.028914	-58.695113	-172.861540
42295		7.546466	-4.882504	-1.923833	0.180745	-0.183296	-0.504136	-111.258685	-58.924279	-172.469859
42296		7.773920	-5.653993	-2.264654	-0.034343	-0.138908	-0.560094	-111.596610	-59.191780	-172.096670
42297		7.587322	-5.566162	-1.849151	0.335040	-0.125137	-0.583807	-111.724647	-59.473832	-171.722622
42298		8.009094	-5.389781	-1.585716	0.329031	-0.134593	-0.630731	-111.886409	-59.778464	-171.314481
42299		8.456951	-4.815862	-1.552979	0.616752	-0.034175	-0.643527	-111.800966	-60.111056	-171.002924
42300		7.750469	-4.191618	-0.372783	0.418390	-0.063331	-0.678352	-111.872580	-60.456056	-170.642308
42301		8.276381	-4.542645	-1.761764	0.236068	-0.135157	-0.712605	-112.136173	-60.803229	-170.182643
42302		8.118288	-4.172402	-1.796922	0.349610	-0.048224	-0.724804	-112.263872	-61.175010	-169.805417
42303		8.126315	-3.907661	-0.918521	0.089262	-0.092345	-0.763754	-112.607640	-61.556925	-169.353503
42304		8.212536	-4.169671	-1.793469	-0.048003	-0.079462	-0.790739	-113.039277	-61.954589	-168.892603
42305		7.934500	-3.949818	-1.382008	-0.055451	-0.092113	-0.812081	-113.510341	-62.358781	-168.393835
42306		8.095517	-4.196881	-1.545699	-0.228288	-0.106315	-0.857690	-114.129706	-62.781468	-167.841255
42307		8.040640	-4.551297	-1.871043	-0.209115	-0.107531	-0.897427	-114.776748	-63.221642	-167.247601
42308		8.051333	-4.589199	-1.723655	-0.158539	-0.110352	-0.933759	-115.435136	-63.676961	-166.611019
42309		8.135004	-4.800939	-1.632027	-0.137646	-0.109052	-0.956463	-116.114831	-64.140884	-165.940092
42310		8.105134	-4.605624	-1.599405	-0.029543	-0.089533	-0.959733	-116.736225	-64.608100	-165.267563
42311		7.969219	-4.279410	-1.357315	-0.015294	-0.077121	-0.971220	-117.366939	-65.081186	-164.578535
42312		8.307323	-4.170075	-1.204528	-0.076959	-0.101045	-0.998844	-118.100390	-65.558352	-163.817747
42313		9.922702	-3.879639	-1.538267	-0.238628	-0.128352	-1.025603	-119.004870	-66.036947	-162.974113
42314		10.439280	-3.675096	-2.288075	-0.152070	-0.046882	-1.025458	-119.799912	-66.533179	-162.198772
42315		10.527863	-3.008729	-1.405344	-0.159597	-0.108134	-0.994854	-120.683653	-66.991986	-161.334650
42316		11.079236	-3.290367	-1.992345	-0.604712	-0.157156	-0.865796	-121.822510	-67.366957	-160.472857
42317		10.416814	-4.436260	-2.470533	-0.992711	-0.175806	-0.658398	-123.083948	-67.628782	-159.721248
42318		10.047640	-5.370330	-2.405920	-1.349273	-0.226824	-0.448796	-124.466427	-67.767879	-159.060458
42319		9.713935	-6.133192	-2.041183	-1.408682	-0.214260	-0.270355	-125.736339	-67.821563	-158.558716
42320		9.643043	-6.042909	-1.664094	-1.138234	-0.223179	-0.175601	-126.784375	-67.824526	-158.129039
42321		9.382740	-5.560472	-1.430452	-0.833253	-0.226318	-0.144596	-127.636268	-67.809631	-157.722760
42322		9.362088	-5.363712	-2.008675	-0.453669	-0.226477	-0.169826	-128.289998	-67.803874	-157.295185
42323		9.351541	-4.893814	-2.429502	0.020589	-0.227387	-0.228873	-128.726580	-67.822913	-156.809080
42324		9.361096	-4.463541	-2.454622	0.271218	-0.206010	-0.300457	-129.058314	-67.880043	-156.280811
42325		9.264986	-4.102493	-2.417945	0.390254	-0.206216	-0.394734	-129.411335	-67.978034	-155.656723
42326		9.406872	-3.354040	-2.152346	0.467363	-0.185871	-0.474268	-129.772441	-68.116758	-154.976319
42327		9.537371	-2.789909	-2.013030	0.356386	-0.172198	-0.529463	-130.242820	-68.283237	-154.247923
42328		9.640989	-2.750162	-2.164900	0.219322	-0.160870	-0.561276	-130.816386	-68.465001	-153.493387
42329		9.418915	-2.754466	-2.102265	0.185786	-0.160289	-0.585786	-131.446180	-68.654939	-152.700550
42330		9.257988	-2.713227	-2.268091	0.188890	-0.176746	-0.593562	-132.109822	-68.838367	-151.869995
42331		9.117566	-2.530457	-2.310139	0.195533	-0.163296	-0.592429	-132.769334	-69.023286	-151.041318
42332		9.005705	-2.423520	-2.259398	0.163745	-0.148989	-0.597081	-133.446586	-69.212031	-150.213688
42333		9.024235	-2.154418	-2.308636	0.148075	-0.134459	-0.601358	-134.137883	-69.404993	-149.382184
42334		8.685933	-1.825633	-1.885773	0.108957	-0.116885	-0.598175	-134.840438	-69.599933	-148.563159
42335		8.701551	-1.758390	-1.993291	0.049398	-0.112314	-0.595410	-135.586475	-69.792153	-147.735670
42336		8.531238	-1.659080	-1.518660	-0.002871	-0.107315	-0.565834	-136.335530	-69.970772	-146.937371
42337		8.594306	-2.058564	-1.541114	-0.130962	-0.092477	-0.528488	-137.115364	-70.137338	-146.185755
42338		8.952532	-2.384465	-1.534128	-0.186886	-0.100912	-0.473319	-137.880727	-70.275476	-145.483811
42339		9.307407	-2.676687	-1.658297	-0.258257	-0.109080	-0.422023	-138.646923	-70.387390	-144.825439
42340		9.299776	-2.773390	-2.008586	-0.219502	-0.121975	-0.395147	-139.376301	-70.480743	-144.182487
42341		9.203553	-2.468212	-2.165073	-0.199705	-0.132559	-0.361908	-140.073527	-70.554440	-143.562449
42342		9.081835	-2.207618	-2.293195	-0.228486	-0.126654	-0.334102	-140.747704	-70.618151	-142.984069
42343		9.468188	-2.075165	-2.222943	-0.328094	-0.125506	-0.300583	-141.442378	-70.667960	-142.445182
42344		10.921080	-2.129406	-2.111083	-0.516283	-0.153967	-0.239660	-142.194693	-70.681185	-141.959045
42345		11.556785	-2.625234	-2.645473	-0.708023	-0.215326	-0.180538	-143.044482	-70.643574	-141.486532
42346		10.986693	-2.631471	-3.424019	-0.597379	-0.290548	-0.138542	-143.842334	-70.554899	-141.001138
42347		10.358459	-2.365094	-3.985271	-0.391968	-0.365912	-0.153617	-144.610795	-70.433895	-140.422304
42348		9.600361	-1.687186	-4.345636	-0.051823	-0.372049	-0.191441	-145.228799	-70.320242	-139.795336
42349		9.171608	-0.566752	-3.875076	0.169826	-0.306588	-0.240906	-145.722870	-70.251402	-139.165298
42350		9.063260	0.148930	-2.968531	0.089975	-0.221323	-0.293643	-146.250342	-70.238145	-138.547737
42351		9.252596	0.099514	-2.336744	-0.253321	-0.162811	-0.354385	-147.006873	-70.269605	-137.896310
42352		9.508330	-0.706460	-2.047445	-0.531662	-0.145205	-0.417513	-147.993138	-70.325840	-137.170011
42353		9.613120	-1.220244	-2.259806	-0.508997	-0.141606	-0.469286	-149.041877	-70.394771	-136.364300
42354		9.423011	-1.212860	-2.346584	-0.284623	-0.099136	-0.515217	-149.995508	-70.493568	-135.523100
42355		9.043007	-1.073790	-2.734002	0.003728	-0.063312	-0.554378	-150.822073	-70.616610	-134.642435
42356		8.729790	-0.647984	-2.980007	0.295051	-0.034791	-0.582102	-151.507279	-70.758098	-133.735008
42357		8.527428	0.051966	-3.148732	0.337475	-0.042888	-0.613740	-152.234606	-70.899976	-132.758430
42358		8.697228	0.202218	-3.418219	0.166545	-0.062274	-0.616704	-153.089630	-71.028708	-131.750827
42359		8.895246	0.079451	-3.526585	0.049341	-0.083328	-0.661939	-154.110159	-71.152372	-130.640367
42360		9.124621	0.100981	-3.279088	0.034480	-0.089623	-0.720856	-155.246099	-71.280823	-129.417561
42361		9.138385	0.231174	-3.079011	0.029932	-0.084512	-0.755605	-156.452690	-71.411606	-128.124147
42362		9.067675	0.440161	-3.032341	0.007531	-0.078406	-0.774235	-157.713581	-71.541272	-126.787779
42363		9.024739	0.594801	-2.924560	-0.080459	-0.082901	-0.780644	-159.056863	-71.659767	-125.418889
42364		8.837467	0.552389	-2.926877	-0.195601	-0.082468	-0.764126	-160.455009	-71.765336	-124.062438
42365		8.877287	0.366495	-2.959798	-0.277353	-0.074619	-0.748647	-161.885881	-71.861268	-122.721776
42366		8.921325	0.323476	-2.772828	-0.302022	-0.063938	-0.735357	-163.316692	-71.950797	-121.396666
42367		8.993225	0.337752	-2.833236	-0.344668	-0.051187	-0.717330	-164.748371	-72.033687	-120.097076
42368		9.033704	0.105886	-3.206227	-0.362780	-0.061503	-0.704230	-166.184154	-72.099428	-118.804580
42369		9.061912	0.047705	-3.243159	-0.351072	-0.066140	-0.698846	-167.614674	-72.151373	-117.511041
42370		9.093131	0.051566	-3.423794	-0.357958	-0.051298	-0.689660	-169.035544	-72.201201	-116.232141
42371		9.093204	-0.112535	-3.552715	-0.357875	-0.036838	-0.683980	-170.448353	-72.248397	-114.962016
42372		9.147595	-0.133411	-3.555635	-0.280069	-0.028519	-0.681546	-171.817109	-72.291128	-113.691677
42373		9.049963	-0.070218	-3.435873	-0.178566	-0.014990	-0.673698	-173.115692	-72.331477	-112.434224
42374		9.047315	0.069846	-3.253608	-0.084860	-0.014234	-0.666472	-174.353447	-72.363748	-111.184559
42375		9.017014	0.394850	-3.302963	-0.056563	0.010754	-0.643047	-175.532452	-72.400695	-109.979721
42376		8.951447	0.568889	-3.216488	-0.093686	0.009435	-0.616549	-176.690497	-72.428780	-108.819467
42377		9.116574	0.513419	-3.363348	-0.136393	0.013202	-0.586095	-177.819812	-72.450822	-107.715105
42378		8.985968	0.385029	-3.484346	-0.133939	0.017972	-0.542715	-178.872522	-72.468852	-106.689828
42379		9.088144	0.400070	-3.501311	-0.135555	-0.002651	-0.507088	-179.862096	-72.469017	-105.731686
42380		9.056296	0.325699	-3.556375	-0.119127	-0.005391	-0.466394	179.230449	-72.463220	-104.849900
42381		9.249304	0.367986	-3.612590	-0.084143	-0.028828	-0.432417	178.407976	-72.440136	-104.036028
42382		9.178587	0.377926	-3.682277	-0.051466	-0.029665	-0.407701	177.649725	-72.413869	-103.269912
42383		9.115539	0.558164	-3.585752	0.017261	-0.046079	-0.395317	176.958605	-72.375432	-102.532635
42384		9.214627	0.740036	-3.408637	0.029740	-0.042414	-0.396180	176.274270	-72.336509	-101.794976
42385		9.236569	0.714160	-3.374711	0.021755	-0.048257	-0.397925	175.587835	-72.291388	-101.059585
42386		9.307302	0.640964	-3.171839	0.023638	-0.054947	-0.399051	174.903545	-72.239793	-100.325293
42387		9.209818	0.492217	-3.019273	0.012976	-0.053322	-0.402842	174.212009	-72.186175	-99.589412
42388		9.019243	0.464738	-3.008446	0.026069	-0.041722	-0.405151	173.524148	-72.136364	-98.849488
42389		9.120620	0.613076	-2.969510	0.074186	-0.045014	-0.406737	172.867556	-72.081880	-98.113045
42390		9.295486	0.732276	-2.812307	0.077869	-0.026959	-0.394657	172.232372	-72.036024	-97.396874
42391		9.120512	0.564784	-2.932009	0.022846	-0.014936	-0.381470	171.590872	-71.995583	-96.706836
42392		9.694464	0.714624	-2.541958	0.024115	-0.096804	-0.360563	171.010213	-71.908325	-96.079977
42393		8.989203	0.058157	-3.593584	0.028515	0.009161	-0.313181	170.490585	-71.883491	-95.514270
42394		9.635320	0.740265	-3.013044	0.131382	-0.036448	-0.310043	170.048854	-71.831726	-94.968592
42395		9.140157	0.935859	-3.371588	0.023404	-0.010314	-0.279759	169.593561	-71.796446	-94.473419
42396		9.442159	1.099156	-2.856648	-0.008434	0.002084	-0.245711	169.174136	-71.770532	-94.035337
42397		9.434524	1.037557	-2.876778	-0.106590	0.007037	-0.221105	168.741833	-71.749122	-93.642639
42398		9.507098	0.967609	-2.908204	-0.129055	0.010939	-0.213982	168.306409	-71.729752	-93.260387
42399		9.433996	1.059154	-2.684027	-0.131940	-0.000483	-0.222594	167.861739	-71.702078	-92.869862
42400		9.577352	1.210824	-2.939362	-0.096398	-0.001803	-0.240220	167.407363	-71.670514	-92.447829
42401		9.482364	1.589572	-2.794019	-0.086565	0.006655	-0.242733	166.954670	-71.642340	-92.021327
42402		9.423957	1.767802	-2.853829	-0.178005	0.000864	-0.244074	166.448835	-71.609605	-91.594213
42403		9.232502	1.763442	-2.879659	-0.254230	-0.008576	-0.226511	165.936509	-71.572863	-91.205948
42404		9.171735	1.694355	-2.891958	-0.359096	-0.015210	-0.212874	165.388982	-71.533191	-90.844109
42405		9.193642	1.568594	-3.015407	-0.430750	-0.011469	-0.203629	164.818486	-71.495894	-90.500976
42406		9.201285	1.483676	-2.968087	-0.496210	-0.019135	-0.187875	164.239131	-71.455606	-90.188287
42407		9.058242	1.204734	-3.114505	-0.561063	-0.024930	-0.169439	163.660174	-71.414129	-89.914830
42408		8.992804	0.968519	-3.177691	-0.545487	-0.060055	-0.144332	163.147293	-71.356545	-89.701927
42409		9.126059	0.838603	-3.132741	-0.531998	-0.060067	-0.119252	162.687656	-71.302710	-89.536671
42410		9.302366	0.717122	-3.205439	-0.499184	-0.042646	-0.098808	162.269840	-71.261392	-89.396001
42411		9.322179	0.750326	-3.073986	-0.464918	-0.036083	-0.077106	161.906934	-71.227300	-89.292228
42412		9.372206	0.778182	-2.988101	-0.440137	-0.040709	-0.059207	161.587444	-71.193574	-89.219615
42413		9.281467	0.740808	-3.006196	-0.418372	-0.035415	-0.048321	161.298221	-71.164719	-89.165472
42414		9.228688	0.682601	-2.920924	-0.385106	-0.032857	-0.043358	161.032488	-71.137961	-89.116311
42415		9.199626	0.710070	-2.821945	-0.379426	-0.024347	-0.042950	160.768970	-71.115942	-89.065734
42416		9.348406	0.786159	-2.984964	-0.345293	-0.013492	-0.048946	160.507391	-71.098467	-88.996829
42417		9.373645	0.972546	-2.941948	-0.331247	-0.011361	-0.067535	160.226159	-71.078571	-88.898337
42418		9.227103	0.962621	-2.995491	-0.376018	-0.010974	-0.073181	159.908191	-71.057512	-88.788405
42419		9.077205	0.863138	-2.985431	-0.438713	-0.012153	-0.086632	159.536847	-71.033041	-88.659711
42420		9.015926	0.684125	-2.996474	-0.465162	-0.008506	-0.094507	159.134232	-71.008546	-88.514241
42421		9.115570	0.641640	-3.085206	-0.421019	-0.000278	-0.105974	158.737212	-70.985869	-88.347633
42422		9.193201	0.721803	-3.173773	-0.365841	0.010175	-0.111027	158.356059	-70.967236	-88.164616
42423		9.181786	0.674027	-3.256712	-0.335429	0.016507	-0.126474	157.967378	-70.948386	-87.954912
42424		9.174827	0.657122	-3.323837	-0.305915	0.005292	-0.141114	157.578754	-70.919836	-87.727600
42425		9.090664	0.530714	-3.458305	-0.290280	0.000495	-0.168815	157.162874	-70.882241	-87.461665
42426		9.293281	0.636609	-3.334876	-0.240394	-0.019259	-0.183090	156.766205	-70.830279	-87.185972
42427		9.333393	0.535080	-3.403173	-0.252436	-0.017802	-0.197710	156.343314	-70.775244	-86.889496
42428		9.068753	0.537711	-3.224263	-0.220421	-0.025388	-0.213454	155.920655	-70.711719	-86.573940
42429		8.768107	0.498911	-3.070817	-0.208280	-0.023799	-0.239363	155.469422	-70.642272	-86.220392
42430		8.753195	0.787547	-2.859275	-0.134873	0.000099	-0.265011	155.007455	-70.578025	-85.810919
42431		8.914119	1.056600	-2.790775	-0.149520	0.044312	-0.280673	154.487656	-70.531852	-85.348689
42432		9.013015	1.088226	-2.809481	-0.183087	0.072208	-0.291019	153.914839	-70.495880	-84.850679
42433		9.028562	0.954876	-3.073078	-0.205264	0.079409	-0.298843	153.316106	-70.460064	-84.338368
42434		9.102939	0.724858	-3.422915	-0.172605	0.072235	-0.300371	152.740043	-70.418292	-83.830295
42435		9.107610	0.551965	-3.582251	-0.120632	0.067734	-0.288068	152.218095	-70.376008	-83.347763
42436		9.324838	0.536243	-3.475847	-0.051281	0.052900	-0.275936	151.765491	-70.327949	-82.896666
42437		9.338643	0.507883	-3.518152	0.035419	0.048639	-0.277542	151.366633	-70.276341	-82.449620
42438		9.316112	0.943595	-3.147988	0.069778	0.027638	-0.292261	150.984795	-70.208939	-81.999672
42439		9.203118	1.325574	-2.945762	0.078051	0.025440	-0.292647	150.612293	-70.139492	-81.554320
42440		9.219233	1.619860	-2.754803	0.034145	0.037102	-0.288928	150.212984	-70.075737	-81.107106
42441		9.318846	1.771505	-2.673670	-0.039901	0.048595	-0.290117	149.763747	-70.016375	-80.651654
42442		9.190597	1.661952	-2.786295	-0.121261	0.054021	-0.291928	149.263348	-69.957735	-80.191275
42443		9.085288	1.580255	-2.947159	-0.185864	0.044935	-0.286873	148.743425	-69.894870	-79.749258
42444		9.006511	1.434531	-2.899158	-0.200583	0.059412	-0.279985	148.214858	-69.839610	-79.306929
42445		9.081277	1.324930	-2.970100	-0.231466	0.057442	-0.283032	147.669364	-69.781186	-78.865178
42446		9.047911	1.456478	-2.920925	-0.194936	0.063995	-0.286964	147.136610	-69.723143	-78.414596
42447		9.214004	1.461817	-2.789731	-0.205209	0.064458	-0.295676	146.589501	-69.661264	-77.954746
42448		9.293932	1.406535	-2.879020	-0.195104	0.075178	-0.312438	146.020297	-69.597493	-77.465017
42449		9.224457	1.477500	-2.817830	-0.202226	0.080709	-0.336998	145.414721	-69.526793	-76.940560
42450		9.190832	1.376283	-2.974501	-0.218877	0.078470	-0.359859	144.776743	-69.445461	-76.391472
42451		9.134194	1.354598	-2.888045	-0.244866	0.086745	-0.375123	144.102552	-69.360805	-75.819269
42452		8.925134	1.291995	-2.881249	-0.280311	0.097549	-0.381875	143.395189	-69.276349	-75.233016
42453		9.176251	1.245816	-3.081031	-0.292391	0.066724	-0.393238	142.700705	-69.171422	-74.667556
42454		8.878211	1.351365	-2.743952	-0.317472	0.111158	-0.399965	141.949397	-69.081707	-74.056288
42455		9.062076	1.138078	-3.048805	-0.341030	0.134771	-0.408039	141.158837	-68.996848	-73.417092
42456		9.411470	1.205615	-3.126267	-0.236255	0.121491	-0.428417	140.423506	-68.895648	-72.772316
42457		9.519457	1.247112	-3.078957	-0.144716	0.126629	-0.437691	139.731405	-68.790444	-72.117242
42458		9.392280	1.407541	-3.013765	-0.061397	0.121662	-0.454964	139.079757	-68.673887	-71.453787
42459		9.258928	1.418898	-3.042098	0.022772	0.124159	-0.450708	138.485031	-68.557388	-70.799217
42460		9.218787	1.568346	-2.880095	0.087493	0.121933	-0.444257	137.943899	-68.440092	-70.161766
42461		9.119309	1.762294	-2.790516	0.096406	0.134283	-0.431954	137.414473	-68.330543	-69.531017
42462		9.086503	1.836463	-2.807045	0.075282	0.126629	-0.419667	136.900063	-68.220543	-68.928853
42463		9.074315	1.909576	-2.888963	0.060359	0.142170	-0.397021	136.389915	-68.123844	-68.340183
42464		9.061407	2.030341	-2.788864	0.038293	0.147777	-0.365086	135.899977	-68.040350	-67.786410
42465		8.970343	2.086517	-2.912423	0.020268	0.143423	-0.357123	135.415050	-67.956386	-67.248998
42466		9.146779	1.676948	-3.733348	0.244059	0.198994	-0.318431	135.046140	-67.909277	-66.698005
42467		8.973444	2.947094	-1.902548	0.207624	0.187666	-0.339023	134.648295	-67.847703	-66.138261
42468		9.472937	1.913836	-3.381866	0.120332	0.206471	-0.346044	134.178510	-67.789349	-65.554432
42469		9.688131	2.197471	-3.186652	0.327965	0.220530	-0.354463	133.806812	-67.731353	-64.947974
42470		9.793928	2.311493	-3.083554	0.353308	0.215558	-0.381149	133.433025	-67.658999	-64.323085
42471		9.890228	2.436499	-3.093299	0.307578	0.191864	-0.404631	133.036918	-67.565780	-63.702219
42472		9.761484	2.614244	-2.996853	0.289704	0.171004	-0.423815	132.639582	-67.454933	-63.090436
42473		9.604265	2.913424	-2.764444	0.151728	0.166419	-0.426198	132.169396	-67.339340	-62.485085
42474		9.478055	2.920120	-2.771672	-0.033614	0.162144	-0.423953	131.606582	-67.221185	-61.893704
42475		9.546166	2.754307	-3.074349	-0.110244	0.168908	-0.408627	131.011193	-67.109669	-61.314341
42476		9.579711	2.768114	-3.004506	-0.180337	0.170246	-0.370039	130.415298	-67.013292	-60.777365
42477		9.651410	2.649071	-3.011896	-0.255953	0.166037	-0.339208	129.810315	-66.926466	-60.277454
42478		9.441468	2.517577	-2.897178	-0.222678	0.171196	-0.302645	129.255704	-66.855932	-59.811046
42479		9.377653	2.658809	-2.695235	-0.166971	0.167251	-0.274830	128.761877	-66.794453	-59.376052
42480		9.121343	2.697946	-2.323772	-0.133945	0.190587	-0.235543	128.299087	-66.757742	-58.953820
42481		9.246387	2.887960	-2.164393	-0.099819	0.206869	-0.190703	127.875130	-66.745459	-58.552754
42482		9.030346	2.902554	-1.996766	-0.127327	0.237812	-0.140173	127.445709	-66.766039	-58.162647
42483		9.017939	2.893231	-2.065923	-0.202187	0.274064	-0.079724	126.980980	-66.825267	-57.781168
42484		8.988723	2.798178	-2.067398	-0.233873	0.274335	-0.034163	126.533701	-66.904627	-57.438348
42485		9.078282	2.734749	-2.042189	-0.284842	0.309705	0.017591	126.055511	-67.018465	-57.094176
42486		9.052675	2.535621	-1.948801	-0.271595	0.351589	0.060746	125.570426	-67.165620	-56.734356
42487		9.028706	2.427587	-1.777103	-0.248633	0.381989	0.085541	125.077060	-67.332871	-56.351960
42488		8.920158	2.439439	-1.779279	-0.181761	0.414512	0.115143	124.603641	-67.523855	-55.949914
42489		8.647265	2.389381	-1.809924	-0.107417	0.416787	0.134147	124.176298	-67.722917	-55.552455
42490		8.591765	2.390835	-1.835673	-0.025699	0.379124	0.155025	123.850872	-67.919298	-55.214796
42491		8.433657	2.429870	-1.978876	0.056478	0.358450	0.196357	123.622349	-68.127700	-54.931602
42492		8.413932	2.475163	-1.961908	0.112277	0.338135	0.235200	123.478051	-68.348377	-54.704838
42493		8.416212	2.563901	-2.215925	0.155959	0.345436	0.298822	123.395481	-68.601103	-54.518156
42494		8.493703	2.734788	-2.604629	0.239213	0.451780	0.423707	123.329157	-68.947527	-54.297853
42495		8.450749	2.836987	-2.001746	0.160403	0.400178	0.517597	123.354000	-69.322095	-54.224229
