// General information: 
//  MT Manager version: 2022.2.0 
//  XDA version: 2022.2.0 build 7381 rev 124627 built on 2023-07-19
// Device information: 
//  DeviceId: 00B4BB52
//  ProductCode: MTW2-3A7G6
//  Firmware Version: 4.6.0
//  Hardware Version: 2.0.0
// Device settings: 
//  Filter Profile: human(46.1)
//  Option Flags: Orientation Smoother Disabled, Position/Velocity Smoother Disabled, Continuous Zero Rotation Update Disabled, AHS Disabled, ICC Disabled
// Coordinate system: ENU
PacketCounter	SampleTimeFine	Acc_X	Acc_Y	Acc_Z	Gyr_X	Gyr_Y	Gyr_Z	Roll	Pitch	Yaw
00532		-0.777881	-9.756889	0.768537	-0.000503	-0.003994	0.012993	-85.511785	4.389956	-33.581295
00533		-0.758499	-9.778265	0.751030	-0.000503	-0.003993	0.012993	-85.507889	4.396070	-33.579895
00534		-0.717513	-9.797505	0.722145	-0.000032	-0.002460	0.010313	-85.503611	4.400961	-33.579453
00535		-0.759613	-9.754489	0.757080	-0.001411	-0.004597	0.008037	-85.500226	4.404218	-33.577925
00536		-0.718451	-9.773739	0.728349	0.003829	-0.005530	0.011848	-85.493595	4.409849	-33.575655
00537		-0.773895	-9.772165	0.730722	0.001354	-0.004806	0.007610	-85.488618	4.412853	-33.574025
00538		-0.750617	-9.760000	0.778577	0.004668	-0.006445	0.008164	-85.481479	4.416337	-33.571396
00539		-0.763130	-9.754114	0.758379	0.005029	-0.004408	0.012135	-85.474398	4.421945	-33.569789
00540		-0.774572	-9.785577	0.784673	-0.000103	-0.003980	0.001674	-85.470123	4.421834	-33.568865
00541		-0.731963	-9.781262	0.762068	0.003572	-0.003584	0.006200	-85.463932	4.424091	-33.568001
00542		-0.765573	-9.777556	0.753081	0.002373	-0.004703	0.005911	-85.458193	4.426367	-33.566471
00543		-0.774092	-9.738166	0.797551	0.000445	-0.005410	0.002655	-85.453725	4.426517	-33.564718
00544		-0.753862	-9.759637	0.779989	-0.002789	-0.006732	0.005761	-85.450853	4.428614	-33.562032
00545		-0.743668	-9.789015	0.794408	-0.002138	-0.004182	0.005068	-85.447909	4.430200	-33.560875
00546		-0.755657	-9.722271	0.733020	0.000808	-0.003373	0.006626	-85.443122	4.432944	-33.560074
00547		-0.756488	-9.783134	0.773832	0.001905	-0.006234	0.008588	-85.437758	4.436447	-33.557577
00548		-0.777576	-9.761583	0.791490	0.000446	-0.005410	0.002654	-85.433103	4.436830	-33.555790
00549		-0.734182	-9.733660	0.774886	0.001357	-0.004803	0.007606	-85.428118	4.439839	-33.554163
00550		-0.735745	-9.757239	0.768742	-0.003155	-0.004281	0.006764	-85.425561	4.442620	-33.552834
00551		-0.757768	-9.759339	0.779928	-0.002137	-0.004180	0.005067	-85.422614	4.444208	-33.551663
00552		-0.770724	-9.777157	0.753009	-0.000938	-0.003061	0.005355	-85.418846	4.446240	-33.551097
00553		-0.747382	-9.765039	0.800488	-0.000311	-0.007452	0.009994	-85.414690	4.450492	-33.547850
00554		-0.725788	-9.739241	0.795093	-0.001955	-0.003161	0.007052	-85.411494	4.453489	-33.547148
00555		-0.781967	-9.761288	0.790800	-0.005085	-0.000501	0.008484	-85.410384	4.457197	-33.547935
00556		-0.739719	-9.757043	0.767416	-0.006467	-0.002638	0.006210	-85.409799	4.459737	-33.547572
00557		-0.771701	-9.767061	0.810394	-0.005267	-0.001519	0.006498	-85.408754	4.462266	-33.547876
00558		-0.739973	-9.733413	0.772479	-0.004901	-0.003968	0.005493	-85.407216	4.464335	-33.546784
00559		-0.752122	-9.788549	0.792196	0.000079	-0.002960	0.003657	-85.403055	4.465177	-33.546382
00560		-0.774817	-9.753307	0.756904	-0.000389	-0.004491	0.006334	-85.398904	4.467702	-33.544952
00561		-0.763657	-9.759067	0.777586	-0.000469	-0.001530	0.002677	-85.395121	4.468050	-33.545400
00562		-0.741533	-9.733301	0.772396	0.002844	-0.003172	0.003229	-85.389189	4.468863	-33.544868
00563		-0.765404	-9.782622	0.771528	-0.005084	-0.000500	0.008483	-85.388076	4.472575	-33.545683
00564		-0.743546	-9.756868	0.765941	-0.000469	-0.001530	0.002676	-85.384116	4.473147	-33.546117
00565		-0.754656	-9.727424	0.751239	-0.001954	-0.003160	0.007049	-85.381096	4.475919	-33.545457
00566		-0.755446	-9.788336	0.791663	-0.002502	-0.001729	0.006069	-85.378280	4.478420	-33.545619
00567		-0.745264	-9.756796	0.765193	-0.006830	-0.000187	0.007213	-85.378186	4.481423	-33.546640
00568		-0.779082	-9.753103	0.755148	-0.009046	-0.001404	0.008620	-85.379125	4.485396	-33.546870
00569		-0.746757	-9.756796	0.763737	-0.005265	-0.001517	0.006496	-85.378076	4.487929	-33.547165
00570		-0.766386	-9.748945	0.833915	0.001542	-0.003784	0.009584	-85.372839	4.492343	-33.545987
00571		-0.736868	-9.762499	0.784088	-0.005446	0.001951	0.009486	-85.372039	4.496745	-33.548130
00572		-0.782069	-9.790242	0.800534	-0.000776	-0.004493	0.017635	-85.368068	4.505723	-33.546172
00573		-0.740783	-9.785904	0.777860	0.003841	-0.001040	0.016805	-85.361785	4.514167	-33.546272
00574		-0.753215	-9.756305	0.763666	0.003921	-0.003998	0.020458	-85.355135	4.524780	-33.544465
00575		-0.764106	-9.740399	0.802322	0.004574	-0.001449	0.019765	-85.348403	4.534895	-33.544194
00576		-0.777573	-9.734413	0.781915	0.001263	0.000197	0.019212	-85.343468	4.544992	-33.544846
00577		-0.780471	-9.757867	0.775946	0.001159	-0.003780	0.020880	-85.338581	4.555637	-33.543158
00578		-0.780916	-9.734118	0.782252	0.002849	0.001315	0.008198	-85.332830	4.559496	-33.544963
00579		-0.794246	-9.751855	0.755480	-0.002316	-0.000705	0.008048	-85.330120	4.562958	-33.545633
00580		-0.771040	-9.739819	0.802734	-0.002784	-0.002233	0.010722	-85.327426	4.568092	-33.545288
00581		-0.794209	-9.765482	0.807675	-0.005448	-0.002528	0.004508	-85.326441	4.569450	-33.545060
00582		-0.793473	-9.741892	0.813196	-0.006728	-0.000687	0.000567	-85.326115	4.568857	-33.546075
00583		-0.783636	-9.734042	0.780481	-0.005527	0.000430	0.000855	-85.325322	4.568267	-33.547783
00584		-0.752828	-9.785050	0.777044	-0.004901	-0.003958	0.005486	-85.323782	4.570331	-33.546694
00585		-0.773587	-9.763515	0.794161	-0.003964	-0.000902	0.000139	-85.322036	4.569271	-33.547639
00586		-0.762207	-9.769353	0.814543	-0.002685	-0.002743	0.004080	-85.319286	4.570589	-33.547311
00587		-0.774239	-9.763503	0.793674	-0.001590	-0.005603	0.006037	-85.315942	4.572677	-33.545284
00588		-0.773987	-9.739825	0.799816	0.001544	-0.003780	0.009576	-85.310702	4.577085	-33.544104
00589		-0.776744	-9.786967	0.787966	0.005323	-0.003898	0.007453	-85.303467	4.580063	-33.542967
00590		-0.775584	-9.739638	0.800544	0.001544	-0.003779	0.009575	-85.298226	4.584470	-33.541787
00591		-0.777410	-9.763181	0.794532	-0.000203	-0.003466	0.008308	-85.294174	4.587956	-33.540874
00592		-0.810274	-9.735721	0.791441	0.000998	-0.002349	0.008596	-85.289316	4.591872	-33.540558
00593		-0.779033	-9.763037	0.794709	0.000998	-0.002349	0.008596	-85.284625	4.595577	-33.540268
00594		-0.789531	-9.770884	0.826769	-0.002684	-0.002741	0.004079	-85.281874	4.596894	-33.539941
00595		-0.790390	-9.733549	0.779813	-0.003056	-0.004779	0.000112	-85.279424	4.595641	-33.538663
00596		-0.779898	-9.763010	0.794194	-0.001669	-0.002644	0.002384	-85.276104	4.595995	-33.538472
00597		-0.777907	-9.715794	0.806202	-0.003242	-0.005799	-0.001872	-85.273723	4.593563	-33.536714
00598		-0.746629	-9.766851	0.802908	-0.004150	-0.001919	-0.001844	-85.271873	4.591536	-33.537138
00599		-0.778354	-9.739522	0.799262	-0.006738	-0.005171	-0.004405	-85.271534	4.587687	-33.535863
00600		-0.758475	-9.784781	0.774937	-0.007753	-0.005268	-0.002711	-85.271598	4.585007	-33.534410
00601		-0.788516	-9.771207	0.823915	-0.007099	-0.002721	-0.003400	-85.271573	4.581848	-33.534461
00602		-0.798590	-9.741867	0.808468	-0.011142	-0.000663	-0.006912	-85.273806	4.576987	-33.535845
00603		-0.753927	-9.714268	0.790656	-0.010781	-0.003112	-0.007919	-85.275886	4.571230	-33.535900
00604		-0.765072	-9.769551	0.809463	-0.011795	-0.003209	-0.006225	-85.278373	4.566642	-33.535792
00605		-0.743151	-9.767588	0.797156	-0.006550	-0.004151	-0.002425	-85.277961	4.563972	-33.535044
00606		-0.797442	-9.765959	0.798666	-0.008112	-0.002818	-0.001708	-85.278340	4.561981	-33.534946
00607		-0.773058	-9.754117	0.845462	-0.006550	-0.004150	-0.002425	-85.277930	4.559313	-33.534184
00608		-0.754067	-9.761954	0.774461	-0.006912	-0.001701	-0.001418	-85.277670	4.557540	-33.534712
00609		-0.763102	-9.746310	0.812046	-0.007298	-0.006189	0.004903	-85.277566	4.558962	-33.532346
00610		-0.774828	-9.740502	0.790707	-0.006912	-0.001701	-0.001419	-85.277307	4.557189	-33.532875
00611		-0.796353	-9.742638	0.801348	-0.010246	-0.006990	0.003345	-85.278861	4.557683	-33.530161
00612		-0.797504	-9.766307	0.794342	-0.008578	-0.004345	0.000963	-85.279427	4.557145	-33.529062
00613		-0.763462	-9.746541	0.808930	-0.008217	-0.006792	-0.000045	-85.279837	4.555713	-33.526713
00614		-0.797361	-9.766423	0.793057	-0.003239	-0.005795	-0.001878	-85.277289	4.553484	-33.524918
00615		-0.774662	-9.740781	0.787423	-0.004439	-0.006910	-0.002168	-85.275538	4.550838	-33.522499
00616		-0.774248	-9.740817	0.787386	0.002752	-0.004699	-0.005405	-85.269620	4.546646	-33.521500
00617		-0.794027	-9.719370	0.804675	-0.009870	-0.006983	-0.007954	-85.270999	4.540692	-33.519366
00618		-0.771213	-9.754841	0.838764	-0.014112	-0.008393	-0.003161	-85.274567	4.537608	-33.516144
00619		-0.772309	-9.741159	0.785062	-0.006197	-0.011076	-0.008416	-85.273659	4.531198	-33.511742
00620		-0.783987	-9.759049	0.757316	-0.014379	-0.006449	-0.008796	-85.277490	4.524989	-33.509900
00621		-0.750102	-9.762987	0.765234	-0.013282	-0.009309	-0.006844	-85.280713	4.519562	-33.506351
00622		-0.780457	-9.773196	0.807841	-0.007840	-0.006780	-0.011349	-85.280793	4.511880	-33.504439
00623		-0.745316	-9.753514	0.822380	-0.010053	-0.007994	-0.009945	-85.282241	4.504746	-33.501801
00624		-0.747190	-9.763430	0.762425	-0.012080	-0.008192	-0.006556	-85.284669	4.499733	-33.498854
00625		-0.767770	-9.765677	0.772944	-0.008202	-0.004331	-0.010342	-85.285218	4.492544	-33.498331
00626		-0.755583	-9.771641	0.792977	-0.005449	-0.007007	-0.000480	-85.283878	4.491057	-33.495776
00627		-0.732814	-9.746022	0.786850	-0.012441	-0.005744	-0.005548	-85.286780	4.486542	-33.494169
00628		-0.755965	-9.795432	0.785052	-0.007373	-0.003229	0.001249	-85.286706	4.486220	-33.493697
00629		-0.765693	-9.742398	0.776116	-0.005811	-0.004560	0.000530	-85.285838	4.485228	-33.492572
00630		-0.754046	-9.748306	0.796395	-0.002399	-0.002230	-0.000583	-85.282965	4.483908	-33.492758
00631		-0.754011	-9.748333	0.796097	-0.003961	-0.000899	0.000137	-85.281205	4.482865	-33.493758
00632		-0.786316	-9.782068	0.833090	-0.005262	-0.005991	0.001505	-85.279797	4.482559	-33.491691
00633		-0.742518	-9.754282	0.815765	-0.006722	-0.000682	0.000565	-85.279624	4.481774	-33.492708
00634		-0.775573	-9.750563	0.806035	-0.004510	0.000533	-0.000839	-85.278085	4.480437	-33.494489
00635		-0.754152	-9.748489	0.794052	-0.006173	-0.002113	0.001540	-85.277527	4.480142	-33.494635
00636		-0.764150	-9.756521	0.825579	-0.005886	0.002879	0.001867	-85.276872	4.480461	-33.497631
00637		-0.776040	-9.750665	0.804344	-0.005987	-0.001098	0.003526	-85.276248	4.481349	-33.498288
00638		-0.754844	-9.748574	0.792350	-0.004974	-0.000998	0.001831	-85.274897	4.481465	-33.499066
00639		-0.754019	-9.725006	0.797997	-0.006173	-0.002113	0.001539	-85.274342	4.481171	-33.499267
00640		-0.776452	-9.750776	0.802604	-0.007820	0.002181	-0.001387	-85.274776	4.479599	-33.502018
00641		-0.755013	-9.748739	0.790151	-0.012244	-0.000247	0.001418	-85.277776	4.479323	-33.503351
00642		-0.755147	-9.748801	0.789262	-0.006173	-0.002112	0.001538	-85.277063	4.479218	-33.503504
00643		-0.765047	-9.756872	0.820590	-0.010031	0.000968	0.000015	-85.278857	4.478203	-33.505410
00644		-0.755046	-9.748939	0.787648	-0.007094	-0.002709	-0.003412	-85.278663	4.475244	-33.505456
00645		-0.787762	-9.745245	0.777800	-0.007093	-0.002709	-0.003412	-85.278623	4.472098	-33.505521
00646		-0.775845	-9.751223	0.797747	-0.007456	-0.000263	-0.002400	-85.278742	4.469832	-33.506920
00647		-0.753280	-9.786698	0.832142	-0.007093	-0.002708	-0.003413	-85.278699	4.466686	-33.507024
00648		-0.743302	-9.778739	0.799368	-0.006721	-0.000680	0.000562	-85.278367	4.466091	-33.508043
00649		-0.754142	-9.749278	0.784308	-0.005986	-0.001098	0.003524	-85.277735	4.466984	-33.508667
00650		-0.764155	-9.757337	0.815882	-0.004871	0.002980	0.000172	-85.276509	4.466339	-33.511801
00651		-0.754823	-9.749292	0.783478	-0.001206	-0.003583	0.009995	-85.273004	4.470810	-33.510721
00652		-0.743920	-9.755158	0.803927	-0.003038	-0.000301	0.005083	-85.270563	4.472816	-33.511744
00653		-0.744458	-9.755154	0.803475	-0.006449	-0.002629	0.006192	-85.270115	4.475160	-33.511378
00654		-0.779152	-9.774963	0.787465	-0.006812	-0.000183	0.007204	-85.269833	4.478382	-33.512368
00655		-0.766347	-9.733696	0.819686	-0.009934	0.002480	0.008643	-85.271603	4.482370	-33.514748
00656		-0.735046	-9.761115	0.821525	-0.012881	0.001685	0.007082	-85.274883	4.485610	-33.516814
00657		-0.747596	-9.755233	0.799605	-0.013158	0.001168	0.011736	-85.278428	4.491299	-33.518439
00658		-0.748872	-9.755251	0.798182	-0.015730	0.002401	0.014148	-85.283347	4.498607	-33.520581
00659		-0.793271	-9.759474	0.819869	-0.009474	0.001546	0.016256	-85.284786	4.506896	-33.522184
00660		-0.773235	-9.757327	0.807398	-0.010757	0.003398	0.012319	-85.286908	4.513207	-33.524985
00661		-0.774730	-9.757305	0.806229	-0.012594	0.004213	0.017691	-85.290245	4.522443	-33.528027
00662		-0.756103	-9.778732	0.787366	-0.010845	0.003895	0.018957	-85.292416	4.532568	-33.530800
00663		-0.759318	-9.802228	0.780120	-0.009082	0.008050	0.025208	-85.293889	4.546277	-33.535654
00664		-0.750699	-9.808015	0.799897	-0.007527	0.004251	0.034765	-85.294118	4.565446	-33.537885
00665		-0.757442	-9.817319	0.740548	0.000682	0.008562	0.045108	-85.289949	4.590540	-33.542232
00666		-0.781706	-9.771805	0.765154	0.014479	0.004995	0.053251	-85.277534	4.620299	-33.544013
00667		-0.816116	-9.734215	0.822561	0.014844	0.002557	0.052226	-85.264948	4.649177	-33.544449
00668		-0.824474	-9.766900	0.758712	0.012811	0.000356	0.040345	-85.253324	4.671348	-33.544173
00669		-0.827123	-9.742879	0.766493	0.019156	-0.001004	0.035813	-85.238168	4.690689	-33.543343
00670		-0.859483	-9.705321	0.824528	0.022551	-0.003158	0.029723	-85.220838	4.706628	-33.541550
00671		-0.840599	-9.702886	0.815135	0.019224	-0.005977	0.024192	-85.205453	4.719100	-33.538342
00672		-0.829536	-9.684998	0.843464	0.010679	-0.000904	0.009577	-85.195110	4.723643	-33.538801
00673		-0.852817	-9.710513	0.849114	-0.003445	-0.009253	0.006397	-85.192626	4.725798	-33.534683
00674		-0.797271	-9.688862	0.852770	-0.003441	-0.006800	-0.003871	-85.190148	4.722380	-33.532411
00675		-0.829714	-9.685061	0.842565	-0.018713	-0.004844	-0.007657	-85.196670	4.716724	-33.531494
00676		-0.798671	-9.760004	0.831493	-0.015403	-0.004044	-0.017379	-85.201230	4.705726	-33.531450
00677		-0.798717	-9.746303	0.777122	-0.018816	-0.006361	-0.016276	-85.207773	4.695077	-33.530111
00678		-0.785567	-9.752540	0.796040	-0.017722	-0.009224	-0.014333	-85.213407	4.685571	-33.526952
00679		-0.795006	-9.784388	0.820400	-0.014961	-0.009446	-0.014761	-85.217593	4.675645	-33.523564
00680		-0.783918	-9.776547	0.787288	-0.007421	-0.012160	-0.008726	-85.217167	4.669200	-33.518453
00681		-0.813336	-9.763169	0.836385	-0.008789	-0.009809	-0.006024	-85.217768	4.664243	-33.514576
00682		-0.773551	-9.792334	0.747596	-0.006219	-0.011047	-0.008435	-85.216705	4.658018	-33.510089
00683		-0.791572	-9.784893	0.817697	-0.002342	-0.009659	-0.001934	-85.213601	4.655403	-33.506059
00684		-0.801785	-9.755381	0.803061	-0.004090	-0.009338	-0.003200	-85.211377	4.652248	-33.502300
00685		-0.780235	-9.753351	0.791331	-0.002615	-0.010174	0.002713	-85.208391	4.652263	-33.497830
00686		-0.770139	-9.782882	0.805646	-0.000485	-0.008466	0.007949	-85.204100	4.655515	-33.494036
00687		-0.780415	-9.729665	0.797621	0.001811	-0.010218	0.010185	-85.198536	4.659790	-33.489182
00688		-0.803950	-9.755196	0.803139	0.002002	-0.009203	0.012169	-85.192768	4.665415	-33.484762
00689		-0.803901	-9.731510	0.809611	0.001158	-0.012760	0.010861	-85.187456	4.669949	-33.478616
00690		-0.781470	-9.743420	0.850725	-0.005645	-0.010461	0.007786	-85.186027	4.673011	-33.473686
00691		-0.826590	-9.733514	0.820397	-0.008430	-0.014710	0.003228	-85.186158	4.673103	-33.466483
00692		-0.815114	-9.739560	0.840168	-0.011082	-0.010510	0.002005	-85.187865	4.672862	-33.461803
00693		-0.804058	-9.708057	0.813088	-0.015318	-0.009448	-0.003481	-85.192219	4.669375	-33.458263
00694		-0.815490	-9.763442	0.831080	-0.020016	-0.009914	-0.006306	-85.199106	4.664417	-33.454324
00695		-0.801971	-9.746105	0.855867	-0.024166	-0.011811	-0.008162	-85.208422	4.658148	-33.449420
00696		-0.750495	-9.781346	0.785996	-0.023406	-0.005291	-0.010487	-85.217483	4.651025	-33.448329
00697		-0.794568	-9.771614	0.754269	-0.019081	-0.009315	-0.001372	-85.223984	4.648756	-33.444526
00698		-0.749767	-9.781688	0.782427	-0.013729	-0.006307	0.000776	-85.227409	4.648016	-33.442312
00699		-0.782867	-9.777848	0.772038	-0.013729	-0.006306	0.000775	-85.230977	4.647115	-33.440165
00700		-0.771414	-9.783941	0.791436	-0.011788	-0.005616	0.004025	-85.233310	4.648264	-33.438193
00701		-0.792162	-9.762476	0.808381	-0.006081	-0.005054	0.005158	-85.232532	4.649921	-33.436637
00702		-0.805255	-9.780039	0.781031	-0.004419	-0.002414	0.002792	-85.230795	4.650518	-33.436557
00703		-0.783028	-9.754406	0.775411	-0.003871	-0.003847	0.003762	-85.228817	4.651443	-33.435509
00704		-0.793047	-9.762489	0.807355	-0.000104	-0.003975	0.001644	-85.224540	4.651311	-33.434591
00705		-0.801971	-9.746994	0.845685	-0.001766	-0.006614	0.004009	-85.221221	4.652242	-33.432018
00706		-0.813627	-9.740992	0.824864	-0.003794	-0.004340	-0.002872	-85.219059	4.649513	-33.431106
00707		-0.784476	-9.778027	0.768127	-0.008569	-0.004309	0.000937	-85.219751	4.648799	-33.430131
00708		-0.804845	-9.756588	0.785135	-0.007916	-0.001767	0.000262	-85.220059	4.647982	-33.430544
00709		-0.770664	-9.737015	0.799980	-0.003054	-0.004761	0.000083	-85.217579	4.646764	-33.429227
00710		-0.814583	-9.764760	0.816361	-0.005159	-0.001993	-0.000164	-85.216298	4.645693	-33.429530
00711		-0.801726	-9.747281	0.842602	-0.008108	-0.002778	-0.001725	-85.216818	4.643536	-33.429567
00712		-0.781326	-9.768857	0.823907	-0.010673	-0.001540	0.000688	-85.218714	4.642974	-33.430088
00713		-0.771338	-9.760856	0.790749	-0.010953	0.000412	-0.004928	-85.221022	4.639143	-33.432005
00714		-0.791318	-9.739475	0.807576	-0.009308	-0.003886	-0.002022	-85.222037	4.636921	-33.431312
00715		-0.793541	-9.786658	0.794335	-0.005070	-0.004956	0.003463	-85.220691	4.637625	-33.429760
00716		-0.805122	-9.780652	0.773455	-0.001585	-0.003131	-0.004270	-85.217325	4.634156	-33.429608
00717		-0.802696	-9.733543	0.786027	0.000905	-0.003877	-0.000049	-85.212617	4.632909	-33.428681
00718		-0.802541	-9.733550	0.786086	-0.000488	-0.005997	-0.002332	-85.208483	4.630409	-33.426795
00719		-0.770199	-9.761095	0.788912	0.000521	-0.005899	-0.004024	-85.203921	4.626797	-33.424978
00720		-0.791076	-9.763215	0.800487	0.000075	-0.000491	-0.006634	-85.199735	4.622104	-33.426453
00721		-0.779097	-9.769270	0.821115	0.000253	-0.006419	0.000623	-85.195279	4.621114	-33.424362
00722		-0.756286	-9.743660	0.815711	-0.004534	-0.003916	-0.005831	-85.193573	4.616716	-33.423838
00723		-0.778379	-9.769364	0.820681	-0.001392	-0.002120	-0.002283	-85.190271	4.614276	-33.424154
00724		-0.790128	-9.763349	0.799783	-0.005425	-0.002512	0.004482	-85.189100	4.615833	-33.423937
00725		-0.769126	-9.761264	0.787861	-0.003319	-0.005280	0.004727	-85.186736	4.617247	-33.422134
00726		-0.799671	-9.747906	0.837309	-0.006981	-0.001177	0.005204	-85.186515	4.619280	-33.422646
00727		-0.811685	-9.741883	0.816209	-0.003765	0.000128	0.002118	-85.184664	4.619463	-33.424085
00728		-0.811750	-9.741912	0.815803	-0.004506	0.000550	-0.000838	-85.183129	4.618131	-33.425878
00729		-0.791471	-9.763416	0.797636	-0.002860	-0.003748	0.002067	-85.180577	4.618099	-33.425112
00730		-0.779573	-9.769492	0.818020	-0.001777	-0.004140	-0.006258	-85.177283	4.613446	-33.424480
00731		-0.768180	-9.737882	0.791771	-0.007647	-0.001244	-0.004386	-85.177609	4.609850	-33.425442
00732		-0.790419	-9.763596	0.796471	-0.003601	-0.003326	-0.000889	-85.175376	4.608302	-33.425018
00733		-0.787279	-9.754243	0.855151	-0.002949	-0.000784	-0.001561	-85.173024	4.606342	-33.426134
00734		-0.778525	-9.769730	0.816170	-0.009114	-0.002873	-0.000036	-85.173968	4.605302	-33.425928
00735		-0.810608	-9.742283	0.812502	-0.009827	0.002014	0.002002	-85.175681	4.605516	-33.428431
00736		-0.790434	-9.763828	0.793609	-0.011575	0.002339	0.000737	-85.178272	4.605169	-33.431173
00737		-0.777848	-9.746402	0.819296	-0.012583	0.002241	0.002427	-85.181559	4.605637	-33.433675
00738		-0.778204	-9.746478	0.818058	-0.012390	0.003251	0.004414	-85.184645	4.607432	-33.436761
00739		-0.791375	-9.764028	0.790206	-0.006877	0.002798	0.003562	-85.184696	4.608573	-33.439816
00740		-0.801323	-9.772232	0.821467	-0.010018	0.001006	0.000012	-85.186336	4.607747	-33.441828
00741		-0.767376	-9.752690	0.836026	-0.006328	0.001365	0.004530	-85.186005	4.609376	-33.443834
00742		-0.778273	-9.723114	0.820970	-0.009825	0.002016	0.001999	-85.187573	4.609733	-33.446330
00743		-0.802020	-9.772404	0.818739	-0.012773	0.001234	0.000436	-85.190927	4.609012	-33.448529
00744		-0.767771	-9.752919	0.832986	-0.010209	-0.000002	-0.001978	-85.192638	4.607002	-33.450061
00745		-0.800578	-9.749061	0.822875	-0.011306	0.002866	-0.003914	-85.195249	4.603874	-33.453595
00746		-0.801520	-9.772727	0.815355	-0.012773	0.001235	0.000434	-85.198476	4.603300	-33.455719
00747		-0.778728	-9.747184	0.809103	-0.008742	0.001631	-0.006328	-85.199566	4.598744	-33.458293
00748		-0.804019	-9.782214	0.754621	-0.004963	-0.000980	0.001817	-85.198211	4.598853	-33.459082
00749		-0.787205	-9.731924	0.846346	-0.005704	-0.000554	-0.001139	-85.197438	4.597152	-33.460197
00750		-0.778504	-9.747350	0.807318	-0.006712	-0.000653	0.000551	-85.197105	4.596554	-33.461233
00751		-0.778613	-9.747387	0.806756	-0.004963	-0.000979	0.001817	-85.195892	4.596526	-33.462026
00752		-0.800061	-9.749533	0.817763	-0.005704	-0.000554	-0.001139	-85.194993	4.594968	-33.463201
00753		-0.778546	-9.747483	0.805668	-0.006355	-0.003096	-0.000470	-85.194481	4.593530	-33.462889
00754		-0.778456	-9.747553	0.804905	-0.009659	-0.001434	-0.001013	-85.195807	4.592002	-33.463554
00755		-0.800763	-9.773312	0.809071	-0.011702	-0.006091	-0.002632	-85.198218	4.589180	-33.461828
00756		-0.788789	-9.779507	0.828618	-0.009851	-0.002441	-0.003003	-85.199615	4.586467	-33.462011
00757		-0.777544	-9.747876	0.801871	-0.010948	0.000428	-0.004938	-85.201907	4.582648	-33.464003
00758		-0.776985	-9.747995	0.800962	-0.007836	-0.002242	-0.006384	-85.202172	4.578014	-33.464463
00759		-0.798832	-9.773763	0.805521	-0.005080	-0.002469	-0.006809	-85.200991	4.572987	-33.465109
00760		-0.762742	-9.730748	0.826756	-0.005821	-0.002042	-0.009765	-85.200123	4.566433	-33.465847
00761		-0.775675	-9.771873	0.792902	-0.006177	0.000401	-0.008744	-85.199695	4.560438	-33.468099
00762		-0.774970	-9.771981	0.792257	-0.007286	-0.003675	-0.005419	-85.199575	4.556287	-33.467692
00763		-0.763654	-9.740294	0.766064	-0.002489	0.000754	-0.004223	-85.197032	4.552891	-33.469889
00764		-0.762805	-9.778184	0.811919	-0.006620	-0.003622	0.004173	-85.196497	4.554219	-33.469051
00765		-0.783351	-9.756802	0.829170	-0.006710	-0.000653	0.000549	-85.196296	4.553482	-33.470230
00766		-0.786484	-9.766065	0.769652	-0.003763	0.000127	0.002114	-85.194302	4.553814	-33.471639
00767		-0.772713	-9.725112	0.802345	-0.008458	-0.000325	-0.000718	-85.195110	4.552371	-33.472871
00768		-0.816541	-9.752994	0.818154	-0.009657	-0.001432	-0.001017	-85.196435	4.550840	-33.473538
00769		-0.773592	-9.748814	0.794250	-0.007807	0.002218	-0.001386	-85.196994	4.549143	-33.476156
00770		-0.774420	-9.772450	0.786988	-0.010397	-0.001003	-0.003975	-85.198773	4.545944	-33.477210
00771		-0.761391	-9.755098	0.813083	-0.006901	-0.001659	-0.001442	-85.198642	4.544028	-33.477746
00772		-0.794039	-9.751227	0.803314	-0.008382	-0.000802	-0.007356	-85.199288	4.538908	-33.479077
00773		-0.760310	-9.755316	0.811487	-0.009389	-0.000902	-0.005666	-85.200618	4.534616	-33.480134
00774		-0.769558	-9.763684	0.842555	-0.011595	-0.002109	-0.004276	-85.203035	4.531191	-33.480569
00775		-0.770948	-9.749484	0.788573	-0.015996	0.002425	-0.006754	-85.208304	4.526433	-33.483800
00776		-0.768343	-9.764041	0.839518	-0.018393	0.000212	-0.007356	-85.214731	4.521362	-33.485711
00777		-0.778183	-9.734597	0.823639	-0.016836	-0.001121	-0.008081	-85.220336	4.515682	-33.486844
00778		-0.755990	-9.732648	0.810427	-0.017741	0.002757	-0.008025	-85.226507	4.510350	-33.490244
00779		-0.778894	-9.782080	0.807333	-0.019397	0.000114	-0.005671	-85.233636	4.506111	-33.491819
00780		-0.744200	-9.762701	0.820921	-0.018198	0.001222	-0.005371	-85.239989	4.502220	-33.494212
00781		-0.768243	-9.774159	0.771667	-0.017457	0.000792	-0.002415	-85.246006	4.499865	-33.496145
00782		-0.742468	-9.739500	0.823977	-0.015251	0.002002	-0.003805	-85.250699	4.496905	-33.498909
00783		-0.756023	-9.780569	0.789219	-0.012955	0.000236	-0.001572	-85.254123	4.495001	-33.500849
00784		-0.776322	-9.759304	0.806005	-0.010658	-0.001529	0.000662	-85.256010	4.494424	-33.501378
00785		-0.766589	-9.751094	0.772766	-0.013312	0.002678	-0.000548	-85.259737	4.493227	-33.504319
00786		-0.756114	-9.780839	0.785776	-0.009269	0.000582	0.002954	-85.260913	4.494058	-33.505948
00787		-0.743788	-9.763477	0.812008	-0.005775	-0.000078	0.005490	-85.260177	4.496173	-33.507240
00788		-0.766648	-9.789204	0.816444	-0.007713	-0.000752	0.002230	-85.260406	4.496528	-33.508140
00789		-0.755175	-9.733836	0.796802	-0.001274	-0.000637	0.006336	-85.257069	4.499116	-33.508406
00790		-0.779453	-9.783023	0.795275	-0.002930	-0.003281	0.008689	-85.254419	4.503038	-33.507550
00791		-0.799482	-9.738114	0.819190	-0.006781	-0.000179	0.007178	-85.254227	4.506120	-33.508117
00792		-0.768229	-9.765607	0.821212	-0.005034	-0.000510	0.008446	-85.252908	4.510036	-33.508859
00793		-0.746349	-9.739900	0.815702	-0.003569	0.001131	0.004102	-85.250976	4.511418	-33.511040
00794		-0.791517	-9.729786	0.785477	-0.009624	0.003026	0.003978	-85.252463	4.512950	-33.514020
00795		-0.748274	-9.763489	0.807740	-0.008170	-0.002288	0.004883	-85.253001	4.514610	-33.514479
00796		-0.755893	-9.724861	0.851478	-0.016446	0.000907	-0.004113	-85.258332	4.511422	-33.516630
00797		-0.781141	-9.759746	0.795945	-0.015705	0.000474	-0.001157	-85.263323	4.509771	-33.518438
00798		-0.781010	-9.759879	0.794430	-0.015055	0.003018	-0.001820	-85.267943	4.507991	-33.521689
00799		-0.780755	-9.760022	0.792932	-0.015246	0.002015	-0.003813	-85.272753	4.504899	-33.524445
00800		-0.747355	-9.764172	0.800295	-0.018648	-0.000297	-0.002732	-85.279286	4.502442	-33.525840
00801		-0.791923	-9.754160	0.769057	-0.015703	0.000477	-0.001161	-85.284271	4.500789	-33.527662
00802		-0.772304	-9.799168	0.743043	-0.016633	-0.000090	-0.006112	-85.289671	4.496411	-33.529335
00803		-0.779117	-9.760663	0.786625	-0.011867	-0.000113	-0.009909	-85.292467	4.489736	-33.531240
00804		-0.778577	-9.760790	0.785581	-0.009647	-0.001419	-0.001038	-85.293785	4.488192	-33.531912
00805		-0.735344	-9.756497	0.761849	-0.005073	-0.002445	-0.006827	-85.292581	4.483166	-33.532582
00806		-0.755974	-9.758796	0.772768	-0.007367	-0.000674	-0.009061	-85.292656	4.477076	-33.534059
00807		-0.776583	-9.761106	0.783633	-0.006270	-0.003549	-0.007132	-85.292083	4.471828	-33.533771
00808		-0.754728	-9.758993	0.771496	-0.006894	-0.001648	-0.001458	-85.291815	4.470034	-33.534332
00809		-0.763227	-9.743938	0.809189	-0.010195	0.000019	-0.002004	-85.293647	4.467882	-33.536116
00810		-0.732012	-9.795046	0.804360	-0.007991	0.001228	-0.003389	-85.294143	4.465121	-33.538415
00811		-0.755308	-9.782756	0.762339	-0.011659	-0.001625	0.002337	-85.296721	4.465375	-33.538754
00812		-0.764317	-9.767676	0.799986	-0.006320	0.001357	0.004519	-85.296237	4.467136	-33.540754
00813		-0.777491	-9.785020	0.772292	-0.007518	0.000253	0.004215	-85.296515	4.468547	-33.542178
00814		-0.775788	-9.738005	0.784691	-0.004216	-0.001415	0.004760	-85.294700	4.470315	-33.542578
00815		-0.764566	-9.744204	0.804707	-0.006320	0.001358	0.004519	-85.294339	4.471949	-33.544851
00816		-0.756161	-9.759356	0.765482	-0.007608	0.003233	0.000596	-85.294691	4.471558	-33.548110
00817		-0.766013	-9.767824	0.796544	-0.012206	-0.000184	0.001370	-85.297658	4.471334	-33.549167
00818		-0.767232	-9.791376	0.789409	-0.001006	-0.000104	0.001688	-85.294074	4.471410	-33.550464
00819		-0.765090	-9.744354	0.802391	0.001006	0.000104	-0.001688	-85.289492	4.469453	-33.551870
00820		-0.786407	-9.746581	0.813709	-0.005147	-0.001979	-0.000192	-85.288204	4.468367	-33.552181
00821		-0.773466	-9.729336	0.840151	-0.007084	-0.002646	-0.003454	-85.288133	4.465262	-33.552580
00822		-0.755885	-9.759612	0.762474	-0.005695	-0.000541	-0.001156	-85.287227	4.463692	-33.553760
00823		-0.765307	-9.768100	0.793837	-0.008181	0.000231	-0.005384	-85.287917	4.459627	-33.555618
00824		-0.763859	-9.744689	0.799496	-0.009287	-0.003854	-0.002073	-85.288925	4.457378	-33.554944
00825		-0.763520	-9.744775	0.798767	-0.005786	0.002441	-0.004773	-85.288337	4.453768	-33.557931
00826		-0.785459	-9.770618	0.802811	-0.013875	-0.000308	-0.006542	-85.292147	4.449134	-33.559499
00827		-0.761172	-9.721583	0.802650	-0.020118	0.000592	-0.008665	-85.299710	4.443211	-33.561943
00828		-0.784059	-9.771022	0.799249	-0.018829	-0.001284	-0.004744	-85.306308	4.439558	-33.562867
00829		-0.749249	-9.751717	0.812873	-0.020116	0.000595	-0.008668	-85.313848	4.433635	-33.564971
00830		-0.772783	-9.763023	0.763241	-0.022508	-0.001612	-0.009283	-85.322556	4.427374	-33.565918
00831		-0.738832	-9.767253	0.770035	-0.022865	0.000829	-0.008255	-85.331693	4.421700	-33.568208
00832		-0.759612	-9.769704	0.779435	-0.020669	-0.004927	-0.004402	-85.339184	4.418072	-33.567027
00833		-0.746199	-9.752609	0.804946	-0.011310	-0.001529	-0.008963	-85.341587	4.411886	-33.567745
00834		-0.759036	-9.793531	0.770370	-0.009107	-0.000319	-0.010344	-85.342677	4.405079	-33.569480
00835		-0.734469	-9.744448	0.770939	-0.011499	-0.002526	-0.010959	-85.345142	4.397707	-33.569609
00836		-0.755036	-9.746820	0.781694	-0.004518	-0.003869	-0.005876	-85.343431	4.393287	-33.569101
00837		-0.743717	-9.776647	0.795111	-0.007459	-0.004637	-0.007455	-85.343506	4.387815	-33.568407
00838		-0.720555	-9.751008	0.789421	-0.007818	-0.002198	-0.006424	-85.343760	4.383160	-33.568882
00839		-0.754196	-9.770636	0.772980	-0.011026	-0.003514	-0.003356	-85.345912	4.380089	-33.568219
00840		-0.744281	-9.762225	0.740113	-0.006986	-0.005625	0.000150	-85.345517	4.379028	-33.566424
00841		-0.740974	-9.753528	0.798607	-0.005426	0.000011	-0.005809	-85.344623	4.374714	-33.568225
00842		-0.774940	-9.773108	0.782463	-0.007442	-0.007171	0.002800	-85.344412	4.375094	-33.565422
00843		-0.742037	-9.777133	0.790689	-0.008899	-0.001853	0.001906	-85.345387	4.375103	-33.565487
00844		-0.741022	-9.753690	0.796576	-0.005431	-0.006958	-0.000576	-85.344045	4.373565	-33.562963
00845		-0.742118	-9.777221	0.789521	-0.005599	-0.003523	0.002452	-85.343039	4.373796	-33.562510
00846		-0.732634	-9.768737	0.757033	-0.004403	-0.002420	0.002760	-85.341294	4.374374	-33.562430
00847		-0.720167	-9.751511	0.783546	-0.007154	-0.002189	0.003176	-85.341253	4.375087	-33.562639
00848		-0.732173	-9.745297	0.762341	-0.007800	-0.004732	0.003831	-85.341349	4.376169	-33.561185
00849		-0.742061	-9.753868	0.793431	-0.011839	-0.002618	0.000325	-85.343989	4.375235	-33.561202
00850		-0.775172	-9.749995	0.783014	-0.017889	-0.000716	0.000195	-85.350054	4.374428	-33.562218
00851		-0.755899	-9.794809	0.757086	-0.008539	-0.004288	0.000870	-85.350725	4.373723	-33.561530
00852		-0.754613	-9.771400	0.762854	-0.008176	0.000246	-0.005394	-85.351288	4.369769	-33.563357
00853		-0.721131	-9.775470	0.771181	-0.005332	-0.002972	-0.002197	-85.350174	4.367385	-33.562833
00854		-0.732567	-9.769236	0.750623	0.003468	-0.005105	-0.002484	-85.343821	4.364844	-33.561460
00855		-0.719804	-9.751968	0.778165	0.005594	-0.003449	0.002780	-85.336441	4.365282	-33.560710
00856		-0.729675	-9.760445	0.810613	0.002653	-0.004214	0.001200	-85.330580	4.364886	-33.559675
00857		-0.730249	-9.760403	0.810611	-0.003378	-0.004853	0.011326	-85.328233	4.370131	-33.557843
00858		-0.742869	-9.754096	0.789861	-0.002275	-0.000763	0.008021	-85.325323	4.373792	-33.558466
00859		-0.722407	-9.751769	0.778248	-0.000078	-0.006523	0.011870	-85.321008	4.379278	-33.555277
00860		-0.744833	-9.753964	0.789637	-0.003279	-0.000868	0.009708	-85.318662	4.383896	-33.555760
00861		-0.745978	-9.753908	0.789259	-0.004739	-0.002520	0.014044	-85.317176	4.390806	-33.554874
00862		-0.768608	-9.756104	0.800359	-0.004283	-0.000973	0.011394	-85.315396	4.396383	-33.555217
00863		-0.737784	-9.783551	0.802267	-0.005935	-0.003621	0.013734	-85.314570	4.403063	-33.554103
00864		-0.749663	-9.753741	0.787825	-0.005577	-0.006058	0.012699	-85.313301	4.409147	-33.551473
00865		-0.750709	-9.753698	0.787365	-0.004474	-0.001968	0.009397	-85.311702	4.413426	-33.551335
00866		-0.751815	-9.753652	0.786879	-0.005933	-0.003619	0.013732	-85.310741	4.420213	-33.550052
00867		-0.731581	-9.751363	0.774760	-0.006674	-0.003175	0.010774	-85.310361	4.425224	-33.549274
00868		-0.734915	-9.798278	0.761196	-0.001986	-0.002749	0.013622	-85.307177	4.431990	-33.548495
00869		-0.775712	-9.732223	0.803856	-0.001629	-0.005185	0.012587	-85.303795	4.437945	-33.546063
00870		-0.744988	-9.759661	0.806116	-0.001436	-0.004188	0.014582	-85.300229	4.445191	-33.544413
00871		-0.735539	-9.727577	0.780349	-0.005931	-0.003615	0.013728	-85.299375	4.451871	-33.542859
00872		-0.747690	-9.759534	0.805153	-0.007483	-0.002279	0.014452	-85.299358	4.459132	-33.542308
00873		-0.749103	-9.759486	0.804418	-0.008131	-0.004820	0.015103	-85.299718	4.466547	-33.539850
00874		-0.783759	-9.755371	0.794582	-0.010686	-0.003587	0.017513	-85.301467	4.475495	-33.538406
00875		-0.765043	-9.776576	0.775512	-0.009033	-0.000940	0.015174	-85.302544	4.483127	-33.538835
00876		-0.786524	-9.755293	0.792802	-0.008416	-0.002828	0.009497	-85.303055	4.487533	-33.538203
00877		-0.754472	-9.759339	0.801176	-0.003727	-0.002406	0.012344	-85.301027	4.493486	-33.537557
00878		-0.801323	-9.772372	0.764880	-0.002562	-0.005735	0.007629	-85.298060	4.496689	-33.535348
00879		-0.790309	-9.778647	0.785101	-0.003759	-0.006836	0.007319	-85.295838	4.499558	-33.532384
00880		-0.767224	-9.729443	0.786511	-0.002107	-0.004190	0.004982	-85.292690	4.501322	-33.531184
00881		-0.778195	-9.761452	0.811819	-0.000843	-0.003538	-0.001344	-85.288997	4.499416	-33.529963
00882		-0.788858	-9.731685	0.797549	-0.007799	-0.004715	0.003820	-85.289090	4.500491	-33.528517
00883		-0.778432	-9.761506	0.810937	-0.003043	-0.004743	0.000032	-85.286594	4.499295	-33.527546
00884		-0.756959	-9.759323	0.799026	-0.005437	-0.006944	-0.000587	-85.285251	4.497749	-33.525032
00885		-0.756905	-9.759353	0.798711	-0.001846	-0.003642	0.000341	-85.282109	4.496791	-33.524094
00886		-0.778430	-9.761577	0.810086	-0.002300	-0.005186	0.002986	-85.279034	4.497368	-33.522418
00887		-0.766834	-9.767905	0.830338	-0.003043	-0.004742	0.000031	-85.276548	4.496181	-33.521097
00888		-0.779469	-9.723274	0.763666	-0.004046	-0.004846	0.001717	-85.274493	4.496049	-33.519676
00889		-0.770107	-9.776562	0.770657	-0.002494	-0.006182	0.000991	-85.271604	4.495334	-33.517694
00890		-0.757139	-9.759437	0.797465	-0.003786	-0.004297	-0.002924	-85.269442	4.492578	-33.516807
00891		-0.756902	-9.759477	0.797193	-0.002688	-0.007178	-0.001005	-85.266650	4.490686	-33.514193
00892		-0.742945	-9.718863	0.830643	-0.002848	-0.003745	0.002026	-85.263957	4.490782	-33.513387
00893		-0.766801	-9.768051	0.828654	-0.004400	-0.002409	0.002752	-85.262329	4.491249	-33.513673
00894		-0.744508	-9.742374	0.823243	-0.005597	-0.003509	0.002442	-85.261220	4.491594	-33.512983
00895		-0.756446	-9.736080	0.802198	-0.006500	0.000368	0.002519	-85.260900	4.492068	-33.514208
00896		-0.779180	-9.761839	0.806207	-0.012839	-0.002696	0.002006	-85.263979	4.492202	-33.514005
00897		-0.788088	-9.746989	0.843639	-0.011801	0.001838	0.005347	-85.266772	4.494358	-33.516330
00898		-0.757183	-9.736311	0.798690	-0.016230	0.001969	-0.002142	-85.272018	4.492344	-33.518996
00899		-0.769951	-9.753570	0.770183	-0.012738	0.001288	0.000395	-85.275337	4.491643	-33.521431
00900		-0.758373	-9.759992	0.789459	-0.011641	-0.001594	0.002312	-85.277778	4.492004	-33.521844
00901		-0.758565	-9.760057	0.788470	-0.008892	-0.001830	0.001896	-85.278745	4.492018	-33.522082
00902		-0.770401	-9.753760	0.767310	-0.005496	0.000474	0.000832	-85.277763	4.491632	-33.523750
00903		-0.758820	-9.760149	0.787076	-0.008892	-0.001830	0.001895	-85.278732	4.491648	-33.523952
00904		-0.779188	-9.738972	0.804392	-0.008792	0.002153	0.000288	-85.279716	4.491030	-33.526607
00905		-0.767365	-9.745416	0.823813	-0.012577	-0.002141	-0.002640	-85.282808	4.488445	-33.526806
00906		-0.787310	-9.724312	0.840757	-0.013126	-0.000699	-0.003599	-85.286161	4.485473	-33.528012
00907		-0.778324	-9.739371	0.800396	-0.022111	0.000461	-0.005309	-85.294847	4.481485	-33.529980
00908		-0.800210	-9.765294	0.803272	-0.019557	-0.000770	-0.007722	-85.301897	4.476156	-33.531338
00909		-0.798039	-9.742094	0.807754	-0.024986	-0.000735	-0.013530	-85.312193	4.467410	-33.533281
00910		-0.788077	-9.757253	0.766715	-0.023982	-0.000627	-0.015219	-85.321811	4.457805	-33.535071
00911		-0.763141	-9.770296	0.805231	-0.025177	-0.001723	-0.015534	-85.332180	4.447879	-33.536118
00912		-0.740219	-9.768343	0.791349	-0.023075	-0.004499	-0.015306	-85.341107	4.438044	-33.535691
00913		-0.770721	-9.741066	0.787009	-0.020682	-0.002299	-0.014684	-85.348870	4.428575	-33.536448
00914		-0.737355	-9.768881	0.787375	-0.017740	-0.001541	-0.013103	-85.354863	4.420135	-33.537610
00915		-0.739282	-9.777519	0.726731	-0.013894	-0.004662	-0.011602	-85.358612	4.412315	-33.536832
00916		-0.723496	-9.775617	0.805374	-0.005719	-0.004937	-0.006206	-85.357542	4.407656	-33.535727
00917		-0.733528	-9.745887	0.790876	-0.010017	-0.003364	-0.005066	-85.359104	4.403633	-33.535119
00918		-0.722512	-9.775831	0.803664	-0.010469	-0.004914	-0.002424	-85.360744	4.401136	-33.533851
00919		-0.731731	-9.722642	0.795636	-0.009823	-0.002372	-0.003068	-85.362245	4.398278	-33.534991
00920		-0.734846	-9.793103	0.774493	-0.012375	-0.001143	-0.000657	-85.365137	4.396964	-33.535802
00921		-0.745272	-9.763364	0.759674	-0.009822	-0.002371	-0.003069	-85.366618	4.394117	-33.536100
00922		-0.753694	-9.748671	0.797491	-0.008530	-0.004265	0.000844	-85.367164	4.393515	-33.535052
00923		-0.753540	-9.748768	0.796454	-0.013117	-0.000690	-0.003614	-85.370641	4.390436	-33.536700
00924		-0.765071	-9.742478	0.774949	-0.009079	-0.002821	-0.000115	-85.371568	4.389354	-33.536523
00925		-0.732845	-9.770115	0.776195	-0.010371	-0.000926	-0.004029	-85.373433	4.386032	-33.537516
00926		-0.754011	-9.772490	0.787001	-0.005137	-0.001960	-0.000215	-85.372139	4.384933	-33.537838
00927		-0.744135	-9.763847	0.754568	-0.004328	-0.002843	-0.003899	-85.370475	4.381594	-33.538039
00928		-0.740536	-9.755554	0.813319	-0.003683	-0.000301	-0.004542	-85.368437	4.378100	-33.539512
00929		-0.718668	-9.753317	0.801412	-0.003972	-0.005276	-0.004941	-85.366461	4.374055	-33.538275
00930		-0.743069	-9.764012	0.753478	-0.003748	0.000129	0.002098	-85.364455	4.374373	-33.539686
00931		-0.719632	-9.776846	0.793830	-0.006881	-0.001615	-0.001487	-85.364287	4.372483	-33.539603
00932		-0.751447	-9.749367	0.791085	-0.005330	-0.002950	-0.002215	-85.363068	4.370196	-33.539451
00933		-0.730966	-9.770570	0.772238	-0.006881	-0.001614	-0.001487	-85.362902	4.368299	-33.539774
00934		-0.721238	-9.761908	0.739732	-0.003941	-0.000861	0.000099	-85.360970	4.367430	-33.540710
00935		-0.738405	-9.732467	0.816655	-0.006137	-0.002067	0.001469	-85.360355	4.367196	-33.540878
00936		-0.741672	-9.740851	0.756795	-0.008787	0.002155	0.000283	-85.361331	4.366572	-33.543533
00937		-0.751470	-9.749619	0.787950	-0.008334	-0.003273	0.002838	-85.361859	4.367059	-33.542473
00938		-0.752698	-9.773125	0.780343	-0.009982	0.001058	-0.000033	-85.363473	4.366204	-33.544514
00939		-0.730242	-9.747458	0.774395	-0.012728	0.001295	0.000380	-85.366805	4.365513	-33.546522
00940		-0.751630	-9.749862	0.784780	-0.011176	-0.000040	-0.000349	-85.369056	4.364426	-33.547950
00941		-0.762368	-9.782133	0.808806	-0.013922	0.000199	0.000064	-85.373019	4.363489	-33.550032
00942		-0.720471	-9.739020	0.738792	-0.011369	-0.001028	-0.002349	-85.375344	4.361214	-33.550986
00943		-0.739574	-9.756599	0.801569	-0.012920	0.000308	-0.001622	-85.378722	4.359324	-33.552670
00944		-0.750967	-9.750303	0.779925	-0.012112	-0.000572	-0.005307	-85.381503	4.355381	-33.554021
00945		-0.738529	-9.756890	0.798989	-0.015503	0.004107	-0.009449	-85.386539	4.349186	-33.558611
00946		-0.718563	-9.739548	0.733675	-0.011822	0.004404	-0.004906	-85.389368	4.345701	-33.562793
00947		-0.717090	-9.778303	0.778031	-0.014210	0.002209	-0.005539	-85.393602	4.341660	-33.566113
00948		-0.748811	-9.750877	0.774796	-0.008429	-0.000275	-0.000765	-85.394269	4.340324	-33.567424
00949		-0.716693	-9.778490	0.776040	-0.009623	-0.001372	-0.001082	-85.395695	4.338678	-33.567677
00950		-0.770062	-9.753352	0.784685	-0.006685	-0.000622	0.000507	-85.395344	4.338052	-33.568731
00951		-0.728393	-9.772175	0.754148	-0.007234	0.000823	-0.000450	-85.395481	4.336856	-33.570690
00952		-0.748729	-9.751136	0.771620	-0.010074	-0.002925	0.001557	-85.396969	4.336724	-33.570377
00953		-0.735766	-9.734223	0.797894	-0.008526	0.002725	-0.004363	-85.397943	4.333387	-33.573290
00954		-0.735567	-9.734313	0.796979	-0.009978	0.001062	-0.000039	-85.399554	4.332527	-33.575334
00955		-0.736500	-9.757829	0.789331	-0.007976	0.001281	-0.003408	-85.400147	4.329656	-33.578101
00956		-0.748135	-9.751464	0.768039	-0.010074	-0.002925	0.001555	-85.401634	4.329523	-33.577787
00957		-0.758943	-9.783753	0.792263	-0.009978	0.001062	-0.000040	-85.403364	4.328567	-33.580299
00958		-0.736372	-9.758068	0.786498	-0.010171	0.000075	-0.002042	-85.405049	4.326518	-33.581869
00959		-0.757495	-9.760518	0.796966	-0.011914	0.000424	-0.003315	-85.407843	4.323666	-33.583615
00960		-0.714309	-9.755963	0.772587	-0.014206	0.002218	-0.005545	-85.411944	4.319714	-33.586574
00961		-0.735187	-9.758447	0.782899	-0.010912	0.000535	-0.005000	-85.414172	4.315897	-33.588878
00962		-0.745269	-9.728703	0.768060	-0.013849	-0.000213	-0.006592	-85.417967	4.311235	-33.590492
00963		-0.712617	-9.756397	0.768659	-0.016593	0.000026	-0.006183	-85.423457	4.306715	-33.593125
00964		-0.724952	-9.773497	0.740199	-0.009168	0.000188	-0.003729	-85.424577	4.303706	-33.594837
00965		-0.734318	-9.782386	0.771512	-0.004131	-0.001845	-0.001910	-85.422855	4.301562	-33.595485
00966		-0.711836	-9.756629	0.766438	-0.002839	-0.003750	0.002003	-85.420161	4.301648	-33.594679
00967		-0.724821	-9.773584	0.739174	0.001099	-0.002891	0.001911	-85.415372	4.301639	-33.594409
00968		-0.753965	-9.737883	0.796377	0.000647	-0.004447	0.004550	-85.410641	4.303147	-33.593086
00969		-0.700758	-9.763051	0.786756	-0.003938	-0.000858	0.000092	-85.408780	4.302169	-33.594346
00970		-0.755380	-9.761335	0.788936	-0.006489	0.000367	0.002504	-85.408352	4.302729	-33.595875
00971		-0.734186	-9.759011	0.776778	-0.006133	-0.002065	0.001457	-85.407711	4.302494	-33.595870
00972		-0.743978	-9.767899	0.807827	-0.012815	-0.002684	0.001959	-85.410778	4.302603	-33.595676
00973		-0.734422	-9.759153	0.774765	-0.009975	0.001066	-0.000044	-85.412486	4.301654	-33.597605
00974		-0.734345	-9.759248	0.773643	-0.012912	0.000319	-0.001637	-85.415750	4.299847	-33.599296
00975		-0.722492	-9.765829	0.792818	-0.012362	-0.001126	-0.000682	-85.418760	4.298449	-33.599665
00976		-0.724510	-9.750598	0.739451	-0.008424	-0.000269	-0.000774	-85.419424	4.297108	-33.600980
00977		-0.755394	-9.761888	0.782044	-0.010167	0.000081	-0.002048	-85.421219	4.294969	-33.602676
00978		-0.732730	-9.736202	0.776241	-0.012005	-0.003557	-0.001731	-85.423797	4.292931	-33.602151
00979		-0.743282	-9.768588	0.800097	-0.014748	-0.003317	-0.001322	-85.428047	4.291032	-33.602621
00980		-0.733118	-9.759873	0.766894	-0.011295	-0.001426	-0.009011	-85.430334	4.284932	-33.603650
00981		-0.741886	-9.768882	0.797804	-0.010101	-0.000329	-0.008693	-85.432105	4.278987	-33.605306
00982		-0.731438	-9.760155	0.764905	-0.009551	-0.001775	-0.007738	-85.433373	4.273599	-33.606076
00983		-0.741323	-9.792557	0.789321	-0.005257	-0.003349	-0.008876	-85.432198	4.267399	-33.606002
00984		-0.696779	-9.764463	0.772630	-0.003965	-0.005257	-0.004964	-85.430108	4.263437	-33.604652
00985		-0.716327	-9.743511	0.790710	-0.002133	0.005375	-0.010463	-85.427546	4.256735	-33.609783
00986		-0.715738	-9.743580	0.790392	-0.004129	-0.001842	-0.001914	-85.425685	4.254670	-33.610249
00987		-0.702740	-9.726741	0.816718	-0.014745	-0.003317	-0.001327	-85.429944	4.252807	-33.609028
00988		-0.716498	-9.767208	0.781185	-0.015652	0.000561	-0.001234	-85.434785	4.251240	-33.610839
00989		-0.718618	-9.751948	0.727299	-0.016102	-0.000997	0.001403	-85.439913	4.251025	-33.611666
00990		-0.717709	-9.790858	0.771229	-0.016102	-0.000996	0.001402	-85.444936	4.250893	-33.612465
00991		-0.739214	-9.793352	0.781397	-0.012165	-0.000139	0.001313	-85.447821	4.250654	-33.614043
00992		-0.738184	-9.770021	0.787216	-0.009065	-0.002808	-0.000145	-85.448741	4.249556	-33.613874
00993		-0.740117	-9.754687	0.734137	-0.006134	0.004932	-0.003729	-85.448419	4.246672	-33.618647
00994		-0.737779	-9.770145	0.786062	-0.001743	0.000352	-0.001275	-85.445282	4.245072	-33.620340
00995		-0.707705	-9.782292	0.735309	-0.006871	-0.001600	-0.001508	-85.445098	4.243183	-33.620223
00996		-0.724699	-9.753333	0.812449	-0.002386	-0.002191	-0.000641	-85.442219	4.241829	-33.620430
00997		-0.737358	-9.770274	0.784850	-0.005321	-0.002935	-0.002237	-85.441134	4.239451	-33.620746
00998		-0.724196	-9.753467	0.811287	-0.011549	-0.001992	-0.004379	-85.443526	4.235971	-33.621238
00999		-0.725831	-9.738170	0.757820	-0.012098	-0.000544	-0.005334	-85.446415	4.231938	-33.622568
01000		-0.726298	-9.761714	0.749757	-0.012933	-0.004069	-0.006706	-85.449520	4.227035	-33.621976
01001		-0.723508	-9.777298	0.800862	-0.012004	0.003447	-0.006922	-85.452531	4.222274	-33.625837
01002		-0.683506	-9.780549	0.717543	-0.009255	-0.003789	-0.002153	-85.453525	4.219984	-33.625197
01003		-0.713032	-9.768565	0.767264	-0.003584	0.003713	-0.006141	-85.451676	4.215670	-33.629032
01004		-0.734163	-9.771040	0.778277	-0.007320	-0.003159	0.001126	-85.451577	4.215281	-33.628604
01005		-0.713737	-9.792086	0.759231	-0.005869	-0.001486	-0.003194	-85.450805	4.212401	-33.630019
01006		-0.699551	-9.751878	0.792659	-0.008612	-0.001246	-0.002787	-85.451541	4.209865	-33.630865
01007		-0.711021	-9.745443	0.771446	-0.008611	-0.001246	-0.002787	-85.452348	4.207261	-33.630767
01008		-0.678638	-9.773024	0.772730	-0.005227	0.001058	-0.003827	-85.451244	4.204235	-33.632980
01009		-0.732874	-9.771415	0.774779	-0.008704	-0.005236	-0.001202	-85.451956	4.202343	-33.631472
01010		-0.711239	-9.769064	0.762565	-0.005226	0.001058	-0.003827	-85.450852	4.199317	-33.633685
01011		-0.699142	-9.775648	0.782517	-0.003769	-0.004267	-0.002971	-85.448764	4.196452	-33.632813
01012		-0.698878	-9.775690	0.782229	-0.002292	0.001801	-0.002229	-85.446004	4.194373	-33.635379
01013		-0.697471	-9.752352	0.788647	-0.006968	0.001412	-0.005103	-85.446023	4.190557	-33.637877
01014		-0.731375	-9.771733	0.772179	-0.008419	-0.000263	-0.000784	-85.446682	4.189209	-33.639194
01015		-0.709719	-9.769384	0.759875	-0.006968	0.001412	-0.005103	-85.446692	4.185399	-33.641341
01016		-0.709109	-9.769472	0.759313	-0.004418	0.000192	-0.007516	-85.445100	4.180227	-33.643226
01017		-0.729079	-9.748574	0.777209	-0.006676	-0.000616	0.000492	-85.444842	4.179496	-33.645148
01018		-0.728979	-9.748630	0.776600	-0.005584	0.003489	-0.002776	-85.444040	4.177181	-33.648706
01019		-0.716738	-9.755254	0.796288	-0.008351	-0.000663	-0.007432	-85.444779	4.171934	-33.650605
01020		-0.717124	-9.778783	0.788369	-0.012643	0.000911	-0.006297	-85.447925	4.167492	-33.652846
01021		-0.715362	-9.755564	0.793716	-0.018868	0.001858	-0.008444	-85.454808	4.161796	-33.655647
01022		-0.684592	-9.767729	0.741630	-0.016126	0.001620	-0.008852	-85.459987	4.155926	-33.658410
01023		-0.682853	-9.744473	0.747342	-0.008158	0.000320	-0.005429	-85.460608	4.151880	-33.659647
01024		-0.702732	-9.785967	0.803156	-0.014642	0.000685	-0.002935	-85.464877	4.149346	-33.661605
01025		-0.679065	-9.736865	0.803947	-0.015641	0.000571	-0.001253	-85.469787	4.147689	-33.663212
01026		-0.714169	-9.779713	0.779461	-0.021674	0.002499	-0.001396	-85.478156	4.146116	-33.666138
01027		-0.692761	-9.777422	0.765846	-0.020573	-0.000397	0.000508	-85.485868	4.145405	-33.668233
01028		-0.757791	-9.746013	0.753118	-0.020313	0.000189	-0.004135	-85.493370	4.142163	-33.669960
01029		-0.669701	-9.751911	0.757464	-0.016021	-0.001383	-0.005271	-85.498439	4.138126	-33.670620
01030		-0.720575	-9.742676	0.817408	-0.024885	-0.003206	-0.003429	-85.508418	4.135134	-33.670370
01031		-0.710499	-9.733897	0.782795	-0.031107	-0.002253	-0.005582	-85.522060	4.130867	-33.670744
01032		-0.690796	-9.778458	0.754308	-0.032196	-0.006359	-0.002324	-85.536094	4.128365	-33.668638
01033		-0.723484	-9.774624	0.742448	-0.030462	0.000298	-0.006217	-85.549526	4.123850	-33.671187
01034		-0.667197	-9.753151	0.743591	-0.033033	-0.002864	-0.008880	-85.564205	4.117759	-33.671373
01035		-0.688902	-9.779326	0.744727	-0.037770	-0.002852	-0.005118	-85.581656	4.113741	-33.671134
01036		-0.712959	-9.789797	0.693616	-0.032646	-0.000902	-0.004874	-85.596181	4.110025	-33.672264
01037		-0.687997	-9.779873	0.738364	-0.027613	-0.002948	-0.003051	-85.607813	4.107189	-33.671808
01038		-0.687800	-9.780075	0.735856	-0.024131	-0.003661	-0.000496	-85.617332	4.105853	-33.671163
01039		-0.716622	-9.745128	0.791242	-0.018100	-0.005593	-0.000352	-85.623417	4.104443	-33.669260
01040		-0.714753	-9.698571	0.802921	-0.030506	-0.006312	0.005570	-85.636460	4.106458	-33.666831
01041		-0.674265	-9.740553	0.762233	-0.044324	-0.006457	-0.001082	-85.657529	4.104581	-33.665093
01042		-0.694538	-9.720079	0.776152	-0.051987	-0.007175	0.001065	-85.682859	4.103986	-33.662366
01043		-0.710557	-9.807265	0.722410	-0.057458	-0.006681	0.001857	-85.711456	4.103793	-33.660089
01044		-0.731135	-9.786780	0.736153	-0.042188	-0.004847	0.004188	-85.731258	4.105084	-33.658561
01045		-0.688537	-9.782004	0.709045	-0.041018	-0.008121	-0.000569	-85.750334	4.103425	-33.655907
01046		-0.708620	-9.761485	0.723902	-0.036639	-0.005697	-0.003276	-85.766945	4.100416	-33.654210
01047		-0.686877	-9.759234	0.708769	-0.037826	-0.006783	-0.003612	-85.784263	4.097078	-33.652480
01048		-0.718383	-9.794629	0.741868	-0.028971	-0.004966	-0.005436	-85.796517	4.092867	-33.651292
01049		-0.686849	-9.783100	0.695425	-0.034085	-0.006900	-0.005702	-85.811656	4.088328	-33.649332
01050		-0.685325	-9.760013	0.699483	-0.028776	-0.003989	-0.003432	-85.823832	4.085302	-33.648618
01051		-0.706464	-9.762814	0.707907	-0.035885	-0.006161	-0.000341	-85.840074	4.083861	-33.647504
01052		-0.695298	-9.793124	0.717853	-0.031253	-0.003134	-0.007681	-85.853716	4.078444	-33.647454
01053		-0.674489	-9.814129	0.696305	-0.027940	-0.000466	-0.002048	-85.865627	4.076288	-33.648315
01054		-0.706326	-9.786850	0.692151	-0.023655	-0.002042	-0.003180	-85.874947	4.073488	-33.648703
01055		-0.683647	-9.761112	0.685657	-0.019178	-0.002650	-0.002300	-85.881829	4.071131	-33.647799
01056		-0.705655	-9.787178	0.688175	-0.019919	-0.002163	-0.005262	-85.889009	4.067136	-33.648202
01057		-0.682896	-9.761425	0.681928	-0.017988	-0.001558	-0.001970	-85.895210	4.064977	-33.649010
01058		-0.679038	-9.754342	0.739283	-0.021121	0.003780	-0.010735	-85.903336	4.058097	-33.653042
01059		-0.689864	-9.747866	0.716350	-0.032980	-0.002750	-0.008985	-85.918072	4.051850	-33.654558
01060		-0.691089	-9.794786	0.699004	-0.029414	0.000521	-0.007987	-85.930809	4.046406	-33.656608
01061		-0.703082	-9.811603	0.668826	-0.026038	0.002823	-0.009001	-85.941749	4.040409	-33.659203
01062		-0.687274	-9.748653	0.708092	-0.025039	0.002947	-0.010683	-85.952085	4.033523	-33.662750
01063		-0.698960	-9.765465	0.678166	-0.025228	0.001983	-0.012700	-85.962526	4.025361	-33.665619
01064		-0.668762	-9.800356	0.617908	-0.026327	0.004897	-0.014597	-85.973687	4.016314	-33.670439
01065		-0.685045	-9.772700	0.693866	-0.015244	-0.001796	-0.002384	-85.978288	4.013897	-33.671405
01066		-0.663340	-9.770245	0.680246	-0.027475	0.001132	-0.004710	-85.989928	4.010349	-33.673667
01067		-0.654333	-9.784339	0.638923	-0.019629	0.002821	-0.004832	-85.997223	4.006726	-33.676992
01068		-0.697685	-9.813063	0.652877	-0.018801	0.006332	-0.003430	-86.004097	4.004117	-33.682182
01069		-0.677002	-9.833857	0.632600	-0.011506	0.009476	-0.004496	-86.006970	4.000943	-33.689085
01070		-0.682297	-9.750144	0.692188	-0.008668	0.006194	-0.001319	-86.008026	3.999534	-33.694110
01071		-0.684151	-9.796815	0.677044	-0.005573	0.003528	-0.002783	-86.007319	3.997102	-33.698385
01072		-0.575334	-9.737047	0.633228	-0.006467	0.000367	0.002468	-86.006871	3.997625	-33.699921
01073		-0.602051	-9.832789	0.616423	0.016413	-0.006497	0.024740	-85.993089	4.010545	-33.696277
01074		-0.631956	-9.751313	0.690367	0.018652	-0.015004	0.038748	-85.977529	4.031187	-33.687546
01075		-0.683934	-9.809876	0.641736	0.020138	-0.015979	0.044660	-85.961112	4.055064	-33.678778
01076		-0.687413	-9.786113	0.651061	0.021076	-0.015494	0.049623	-85.944104	4.081898	-33.669313
01077		-0.701762	-9.794983	0.685481	0.030117	-0.012714	0.049824	-85.922087	4.108883	-33.660934
01078		-0.705404	-9.771131	0.695562	0.027197	-0.013422	0.048194	-85.901651	4.134978	-33.652695
01079		-0.586847	-9.848382	0.600974	0.040029	-0.020471	0.061657	-85.873599	4.168380	-33.640426
01080		-0.719200	-9.816290	0.689980	0.066370	-0.018332	0.071066	-85.830432	4.207333	-33.628395
01081		-0.732127	-9.754711	0.749380	0.055699	-0.016702	0.067989	-85.793506	4.244524	-33.616200
01082		-0.732744	-9.814474	0.701461	0.051185	-0.015689	0.073720	-85.759124	4.285089	-33.605519
01083		-0.729957	-9.804319	0.675093	0.058849	-0.007944	0.066417	-85.720789	4.321699	-33.600900
01084		-0.756888	-9.782518	0.699903	0.064543	-0.014461	0.072717	-85.678792	4.361730	-33.590911
01085		-0.739047	-9.771721	0.754017	0.065008	-0.012864	0.070058	-85.636668	4.400213	-33.582389
01086		-0.751769	-9.824744	0.687405	0.072090	-0.010301	0.073558	-85.590509	4.440891	-33.574684
01087		-0.719980	-9.773930	0.776689	0.073305	-0.009180	0.073844	-85.543711	4.481696	-33.566742
01088		-0.763153	-9.815108	0.760902	0.069300	-0.002192	0.082006	-85.499468	4.527550	-33.563239
01089		-0.774686	-9.975743	0.627655	0.073815	-0.004987	0.099646	-85.452562	4.583244	-33.558961
01090		-0.767225	-9.864285	0.692360	0.113437	-0.005233	0.116112	-85.382752	4.648432	-33.552065
01091		-0.757201	-9.744832	0.818413	0.121560	-0.009492	0.122972	-85.308150	4.717245	-33.542702
01092		-0.835205	-9.733934	0.812466	0.113308	-0.005625	0.120510	-85.238347	4.784908	-33.535206
01093		-0.854051	-9.655230	0.823693	0.107825	-0.002447	0.111041	-85.171903	4.847213	-33.529781
01094		-0.862174	-9.669050	0.885600	0.090857	-0.004206	0.100804	-85.115085	4.903678	-33.523903
01095		-0.881319	-9.637437	0.880187	0.075217	-0.001350	0.082740	-85.067523	4.949908	-33.519532
01096		-0.895229	-9.598231	0.932090	0.053106	-0.005500	0.065732	-85.032404	4.986279	-33.514560
01097		-0.921754	-9.599414	0.947950	0.035050	0.002099	0.041952	-85.008201	5.009405	-33.513968
01098		-0.857507	-9.584762	0.974111	0.003044	-0.003925	0.028525	-85.002000	5.024613	-33.511732
01099		-0.776901	-9.754605	0.840878	-0.004083	-0.006025	0.031643	-84.999859	5.041428	-33.508055
01100		-0.900449	-9.742526	0.826012	-0.002430	-0.003395	0.029338	-84.996816	5.057127	-33.506080
01101		-0.877968	-9.732347	0.873241	-0.004689	-0.002030	0.020524	-84.995279	5.067783	-33.505896
01102		-0.894415	-9.772278	0.838926	-0.001166	-0.003188	0.016448	-84.991579	5.076135	-33.504685
01103		-0.894143	-9.748775	0.845851	0.002261	-0.001362	0.008809	-84.986159	5.080134	-33.505930
01104		-0.891632	-9.701964	0.859515	-0.003398	-0.002267	0.001037	-84.983853	5.079736	-33.506021
01105		-0.900882	-9.710805	0.890918	-0.008608	-0.001631	-0.009354	-84.984703	5.073378	-33.506657
01106		-0.878063	-9.708976	0.878356	-0.011079	-0.001258	-0.020156	-84.986942	5.060934	-33.508391
01107		-0.875954	-9.709266	0.877253	-0.011831	-0.000801	-0.023095	-84.989701	5.046769	-33.510059
01108		-0.853867	-9.730914	0.857342	-0.017965	-0.002803	-0.021651	-84.995814	5.033394	-33.510982
01109		-0.821754	-9.782653	0.850516	-0.019949	-0.002992	-0.018307	-85.003085	5.021857	-33.510946
01110		-0.843583	-9.769507	0.808196	-0.014166	-0.005515	-0.013573	-85.006849	5.012957	-33.509908
01111		-0.799160	-9.804416	0.829315	-0.008718	-0.005603	-0.007790	-85.007474	5.007254	-33.509023
01112		-0.845180	-9.816494	0.793108	0.002176	-0.005783	0.003779	-85.001787	5.008246	-33.506963
01113		-0.844363	-9.793006	0.800619	0.010028	-0.003700	0.010201	-84.991779	5.012926	-33.506433
01114		-0.820978	-9.782802	0.849548	0.017642	-0.002168	0.021232	-84.977334	5.024059	-33.505565
01115		-0.856120	-9.777832	0.842575	0.017643	-0.002166	0.021229	-84.962953	5.035131	-33.504056
01116		-0.868218	-9.786227	0.876371	0.019363	-0.002083	0.029091	-84.947490	5.050753	-33.502834
01117		-0.888033	-9.717685	0.910541	0.020454	-0.004969	0.030975	-84.931349	5.067247	-33.499524
01118		-0.861144	-9.729877	0.861823	0.014462	-0.003434	0.024246	-84.918646	5.080036	-33.497766
01119		-0.871513	-9.714925	0.901909	0.010970	-0.002713	0.021719	-84.908090	5.091364	-33.496032
01120		-0.873436	-9.714667	0.902831	0.007151	-0.006960	0.018772	-84.899421	5.100848	-33.492529
01121		-0.891879	-9.739094	0.816926	0.000920	-0.005975	0.016658	-84.894474	5.109117	-33.489378
01122		-0.850316	-9.773685	0.839621	0.007696	-0.008402	0.019713	-84.885413	5.119064	-33.484997
01123		-0.850714	-9.750063	0.847259	0.007366	-0.005964	0.020757	-84.876690	5.129665	-33.481213
01124		-0.866183	-9.805217	0.866704	0.014310	-0.013908	0.037528	-84.863473	5.149494	-33.472757
01125		-0.848513	-9.802704	0.857196	0.026898	-0.011897	0.040170	-84.843160	5.170853	-33.465183
01126		-0.867949	-9.710540	0.898701	0.023152	-0.011265	0.048839	-84.824953	5.197268	-33.457643
01127		-0.862487	-9.740043	0.914187	0.015603	-0.007925	0.049438	-84.811312	5.224174	-33.449774
01128		-0.819959	-9.797000	0.840169	0.018543	-0.006737	0.057594	-84.795933	5.255816	-33.444358
01129		-0.849267	-9.821597	0.847350	0.028031	-0.008512	0.073394	-84.774980	5.296311	-33.436423
01130		-0.846997	-9.850720	0.864506	0.044332	-0.005758	0.087095	-84.744722	5.344832	-33.429991
01131		-0.813495	-9.845680	0.846346	0.059779	0.000891	0.100874	-84.705933	5.401465	-33.427100
01132		-0.829709	-9.782524	0.905571	0.081473	0.014910	0.131339	-84.655274	5.476316	-33.430084
01133		-0.905737	-9.724130	0.908756	0.065722	0.012212	0.138228	-84.613564	5.554900	-33.430393
01134		-0.838221	-9.800511	0.900034	0.054210	0.009327	0.163697	-84.578040	5.647911	-33.428312
01135		-0.896298	-9.778597	0.935695	0.062825	0.015008	0.182447	-84.537827	5.751816	-33.429081
01136		-0.913196	-9.752902	0.948257	0.059842	0.018828	0.196876	-84.499422	5.864267	-33.430494
01137		-0.948870	-9.790489	0.919912	0.055302	0.017127	0.217117	-84.463443	5.988097	-33.428852
01138		-0.994363	-9.812761	0.930605	0.065977	0.023055	0.232400	-84.421560	6.121043	-33.430558
01139		-1.015793	-9.786365	0.943537	0.065961	0.019791	0.240288	-84.379496	6.258226	-33.429461
01140		-1.061135	-9.784693	0.961662	0.071045	0.021360	0.244813	-84.334511	6.398156	-33.429292
01141		-1.068298	-9.826712	0.943795	0.077893	0.022581	0.250567	-84.285727	6.541372	-33.428646
01142		-1.109543	-9.863117	0.918088	0.089261	0.023689	0.263652	-84.230304	6.692175	-33.428483
01143		-1.132174	-9.850816	0.986234	0.099469	0.019738	0.266883	-84.168872	6.844535	-33.425112
01144		-1.210006	-9.780588	0.959643	0.107979	0.026508	0.266726	-84.102859	6.997254	-33.426062
01145		-1.246589	-9.784237	1.002021	0.108579	0.018459	0.272449	-84.036004	7.152727	-33.420314
01146		-1.258558	-9.848904	0.981472	0.114143	0.020458	0.261260	-83.966022	7.301971	-33.417757
01147		-1.296640	-9.666032	1.088336	0.117828	0.019990	0.263419	-83.893978	7.452349	-33.414194
01148		-1.314103	-9.677052	1.060285	0.105220	0.020704	0.250563	-83.829153	7.595508	-33.412072
01149		-1.359571	-9.587723	1.138941	0.089637	0.021266	0.242706	-83.773531	7.734185	-33.410004
01150		-1.374641	-9.599357	1.107459	0.062342	0.012993	0.224828	-83.732844	7.862202	-33.404793
01151		-1.441731	-9.520157	1.134447	0.046348	0.014764	0.205136	-83.701623	7.979062	-33.400183
01152		-1.456030	-9.455552	1.098201	0.031827	0.011595	0.181848	-83.678648	8.082509	-33.396757
01153		-1.519348	-9.415001	1.168600	0.021562	0.019278	0.145355	-83.662556	8.165640	-33.398118
01154		-1.508814	-9.374264	1.111792	0.004959	0.015361	0.119011	-83.655839	8.233540	-33.400817
01155		-1.450513	-9.462507	1.130588	-0.008413	0.009655	0.093225	-83.656615	8.286383	-33.400125
01156		-1.445427	-9.531009	1.098463	-0.015106	0.017761	0.072218	-83.662031	8.327788	-33.407199
01157		-1.487082	-9.547278	1.081317	-0.017752	0.013776	0.052266	-83.668875	8.357537	-33.412361
01158		-1.491506	-9.546837	1.079115	-0.024109	0.013612	0.037314	-83.679436	8.378803	-33.419285
01159		-1.462912	-9.639004	1.027916	-0.020754	0.014533	0.023356	-83.688378	8.392168	-33.425981
01160		-1.465099	-9.739412	1.020890	-0.012120	0.017867	0.016025	-83.692630	8.401575	-33.436717
01161		-1.460036	-9.841027	0.923961	0.004970	0.017703	0.006461	-83.687224	8.405525	-33.446319
01162		-1.439895	-9.940595	0.909506	0.046388	0.014879	0.015105	-83.657712	8.414223	-33.455390
01163		-1.407361	-10.109323	0.868508	0.088245	0.016423	0.017639	-83.604385	8.424422	-33.464748
01164		-1.527032	-9.965184	0.876157	0.146764	0.014954	0.040499	-83.517128	8.447600	-33.472196
01165		-1.541570	-9.869903	0.929931	0.194022	0.002692	0.047766	-83.401799	8.474162	-33.469820
01166		-1.592128	-9.641969	1.079629	0.209797	-0.005238	0.042840	-83.276682	8.497359	-33.465402
01167		-1.640029	-9.611761	1.017100	0.197271	-0.014218	0.023412	-83.158355	8.508902	-33.455596
01168		-1.732374	-9.692977	0.915346	0.226730	-0.016111	-0.011587	-83.023156	8.500372	-33.448616
01169		-1.817640	-9.251039	1.044934	0.241031	-0.020018	-0.070590	-82.880065	8.458002	-33.442111
01170		-2.012109	-8.894408	1.060052	0.169043	-0.066311	-0.107260	-82.774720	8.391462	-33.413243
01171		-1.012895	-9.526540	0.300234	0.026467	-0.130537	-0.218870	-82.747088	8.256840	-33.354917
01172		0.189738	-9.700404	-0.453986	0.034200	-0.062634	-0.331821	-82.721786	8.062889	-33.344727
01173		0.722811	-9.221438	-1.149987	0.028891	0.089488	-0.389477	-82.712310	7.847180	-33.425109
01174		0.669996	-8.501196	-1.336014	-0.107339	0.287346	-0.426285	-82.796121	7.624832	-33.622501
01175		0.447294	-8.960808	-1.209753	-0.332830	0.448359	-0.509322	-83.021292	7.365999	-33.917908
01176		0.269862	-9.705645	-0.807547	-0.470110	0.569046	-0.632642	-83.332940	7.043991	-34.289092
01177		0.119936	-9.809794	-0.277541	-0.438566	0.650148	-0.711508	-83.630659	6.680264	-34.709480
01178		-0.117550	-9.432998	0.627888	-0.355457	0.691141	-0.717449	-83.880150	6.313862	-35.152133
01179		-1.000325	-10.043436	2.018391	-0.228409	0.669064	-0.629675	-84.052696	5.994344	-35.575458
01180		-2.920726	-13.751387	4.728260	0.275964	0.551220	-0.381025	-83.925301	5.809454	-35.915660
01181		-6.334479	-9.428296	7.490331	0.735489	0.279840	-0.232659	-83.517898	5.693451	-36.092677
01182		-7.118347	-5.272191	6.297010	-0.114594	-0.072698	-0.248020	-83.576937	5.546725	-36.068598
01183		0.572154	-10.619059	0.622892	-0.482332	-0.365434	-0.172906	-83.830332	5.424483	-35.871704
01184		0.335614	-11.067848	-0.121760	-0.087998	-0.030238	-0.265847	-83.876541	5.270336	-35.872241
01185		-1.115899	-9.402201	1.374792	0.003988	0.006939	-0.157227	-83.871444	5.180293	-35.887298
01186		-0.823759	-8.928790	1.793083	-0.199653	-0.133128	-0.093856	-83.975385	5.117896	-35.818314
01187		-0.164770	-10.119827	0.725703	-0.265369	-0.092200	-0.033659	-84.118820	5.092334	-35.769033
01188		-0.816134	-9.715295	1.001132	-0.173870	-0.021894	-0.020393	-84.213303	5.078579	-35.759149
01189		-0.863806	-9.627363	1.121642	-0.218821	-0.067288	0.015659	-84.331097	5.082736	-35.721198
01190		-0.613950	-9.980421	0.772747	-0.213289	-0.053694	0.036171	-84.446263	5.099492	-35.689874
01191		-1.050627	-9.914417	0.775650	-0.149934	-0.016063	0.027107	-84.527126	5.113134	-35.680636
01192		-1.069716	-9.862352	0.845714	-0.129751	-0.032641	-0.000619	-84.595674	5.110143	-35.663424
01193		-0.983915	-9.886774	0.725638	-0.092017	-0.034264	-0.020881	-84.642665	5.095462	-35.646383
01194		-1.007763	-9.820094	0.840897	-0.056219	-0.033531	-0.048007	-84.669271	5.065418	-35.631196
01195		-0.756923	-9.727269	0.907655	-0.053434	-0.029303	-0.043424	-84.694531	5.038163	-35.618181
01196		-0.858562	-9.691756	0.970653	-0.055155	-0.015399	-0.050610	-84.721461	5.007606	-35.613490
01197		-0.891485	-9.603554	1.013504	-0.079925	-0.012885	-0.068176	-84.762841	4.967103	-35.611154
01198		-0.883930	-9.605215	1.004340	-0.113089	-0.010553	-0.086684	-84.823369	4.916221	-35.611077
01199		-0.824134	-9.664243	0.918172	-0.138477	-0.006067	-0.098709	-84.898754	4.858651	-35.614138
01200		-0.829755	-9.753159	0.855946	-0.144611	-0.001949	-0.104684	-84.977824	4.797932	-35.619772
01201		-0.769838	-9.835200	0.761067	-0.133902	-0.003463	-0.101610	-85.050704	4.738828	-35.624315
01202		-0.741069	-9.881304	0.723676	-0.119910	-0.000872	-0.084291	-85.115565	4.689788	-35.629406
01203		-0.797391	-9.866234	0.752702	-0.095500	-0.002328	-0.074326	-85.166373	4.646304	-35.633131
01204		-0.840088	-9.787877	0.825392	-0.084521	0.004159	-0.074400	-85.211136	4.603145	-35.640536
01205		-0.809154	-9.740171	0.820170	-0.089454	0.003252	-0.072772	-85.258719	4.560808	-35.647323
01206		-0.782241	-9.785787	0.786225	-0.091663	0.005135	-0.075107	-85.307605	4.517279	-35.655248
01207		-0.764118	-9.793838	0.798093	-0.087507	0.003956	-0.069575	-85.354076	4.476790	-35.662212
01208		-0.688339	-9.902334	0.631018	-0.073059	0.000538	-0.056172	-85.392014	4.443850	-35.666557
01209		-0.736616	-9.893874	0.685604	-0.043759	0.004385	-0.042746	-85.413333	4.418693	-35.672484
01210		-0.720235	-9.854490	0.717837	-0.012034	-0.000116	-0.026431	-85.416166	4.402705	-35.675063
01211		-0.737021	-9.787233	0.749252	-0.007567	0.000617	-0.016844	-85.416493	4.392168	-35.677623
01212		-0.744776	-9.773406	0.787069	-0.010145	0.000498	-0.023127	-85.418257	4.378095	-35.680402
01213		-0.721946	-9.794466	0.768217	-0.006542	0.000737	-0.018508	-85.418006	4.366611	-35.683141
01214		-0.730619	-9.764474	0.754522	0.002038	-0.001123	-0.011953	-85.412680	4.358846	-35.684479
01215		-0.718679	-9.771315	0.775489	0.003945	-0.003571	-0.005036	-85.406185	4.354860	-35.684082
01216		-0.727009	-9.733968	0.821743	0.003593	-0.001119	-0.004010	-85.399940	4.351631	-35.685057
01217		-0.738763	-9.750503	0.793923	-0.003580	-0.003295	-0.001015	-85.397754	4.349954	-35.684649
01218		-0.760324	-9.753028	0.804420	-0.004103	-0.001824	-0.001988	-85.395880	4.347848	-35.685128
01219		-0.726365	-9.734109	0.820642	-0.011967	-0.003510	-0.001965	-85.398496	4.345618	-35.684655
01220		-0.717420	-9.771555	0.773631	-0.012115	-0.007548	-0.000358	-85.400959	4.344180	-35.681780
01221		-0.707682	-9.785654	0.733968	-0.008535	-0.004254	0.000657	-85.401563	4.343413	-35.680745
01222		-0.749447	-9.744045	0.769347	-0.006967	-0.008665	0.003574	-85.401015	4.344170	-35.677050
01223		-0.760374	-9.753363	0.800295	-0.005773	-0.007566	0.003912	-85.399883	4.345109	-35.673972
01224		-0.761457	-9.776700	0.792662	-0.003932	-0.000842	0.000011	-85.397948	4.344190	-35.674921
01225		-0.727634	-9.757776	0.808916	-0.011444	-0.004978	-0.000994	-85.400192	4.342447	-35.673563
01226		-0.781845	-9.756052	0.808975	-0.009920	-0.003272	-0.005289	-85.401600	4.338390	-35.673365
01227		-0.726783	-9.758042	0.806468	-0.019534	0.002887	-0.005157	-85.408835	4.334631	-35.676718
01228		-0.727655	-9.765387	0.745513	-0.013181	-0.001544	-0.005913	-85.412188	4.330296	-35.677537
01229		-0.736618	-9.751570	0.782723	-0.017805	-0.001894	-0.008876	-85.418239	4.324193	-35.678290
01230		-0.714955	-9.772579	0.762908	-0.018474	-0.004461	-0.008245	-85.424507	4.318393	-35.677545
01231		-0.757459	-9.777779	0.783114	-0.012849	-0.000932	-0.010550	-85.427762	4.311378	-35.678917
01232		-0.744949	-9.745334	0.757292	-0.018995	-0.002988	-0.009221	-85.434396	4.305088	-35.679059
01233		-0.754270	-9.754933	0.786827	-0.021426	0.000941	-0.017112	-85.442673	4.294412	-35.681849
01234		-0.731837	-9.776004	0.766675	-0.020901	-0.000528	-0.016143	-85.450528	4.284280	-35.683714
01235		-0.731141	-9.799574	0.757537	-0.018161	-0.000781	-0.016494	-85.456852	4.273878	-35.685436
01236		-0.705817	-9.750709	0.759424	-0.017307	-0.001638	-0.020159	-85.462613	4.261401	-35.686846
01237		-0.738711	-9.793244	0.733721	-0.012514	-0.000310	-0.015194	-85.465717	4.251763	-35.688775
01238		-0.713210	-9.760508	0.788549	-0.006514	-0.002291	-0.014920	-85.465247	4.242249	-35.689571
01239		-0.734486	-9.786497	0.791579	-0.005821	-0.002785	-0.011947	-85.464403	4.234353	-35.689962
01240		-0.721645	-9.753963	0.766696	-0.007704	-0.003387	-0.015263	-85.464571	4.224593	-35.690146
01241		-0.698554	-9.751573	0.755035	-0.009082	-0.001057	-0.012572	-85.465669	4.216417	-35.691628
01242		-0.741633	-9.780148	0.768547	-0.010940	-0.004722	-0.012285	-85.467625	4.208298	-35.690912
01243		-0.705956	-9.738026	0.791464	-0.017126	0.000685	-0.009527	-85.473390	4.201941	-35.693156
01244		-0.675421	-9.796115	0.725873	-0.013340	-0.002513	-0.007933	-85.476799	4.196408	-35.693507
01245		-0.717330	-9.778067	0.753975	-0.004789	-0.001323	-0.004972	-85.475405	4.192563	-35.694397
01246		-0.704874	-9.761695	0.781321	-0.006336	0.000029	-0.004282	-85.474895	4.189230	-35.696037
01247		-0.694824	-9.775639	0.742018	-0.005288	-0.002916	-0.002339	-85.473702	4.186815	-35.695899
01248		-0.704494	-9.761797	0.780389	-0.002881	-0.003787	0.001949	-85.471031	4.186868	-35.695072
01249		-0.726202	-9.764399	0.790871	-0.004977	0.002102	-0.001937	-85.469870	4.184911	-35.697767
01250		-0.693871	-9.752451	0.747985	-0.006142	-0.002061	0.001325	-85.469143	4.184686	-35.697957
01251		-0.715758	-9.755058	0.758234	-0.006498	0.000388	0.002357	-85.468776	4.185104	-35.699515
01252		-0.726270	-9.764556	0.788877	-0.010931	-0.003382	-0.003648	-85.470754	4.181979	-35.699175
01253		-0.704320	-9.762064	0.777198	-0.006310	-0.003036	-0.000679	-85.470135	4.180504	-35.698995
01254		-0.715338	-9.755268	0.755929	-0.007501	-0.004133	-0.001022	-85.470107	4.178844	-35.698105
01255		-0.716042	-9.778612	0.748112	-0.004097	-0.001818	-0.001998	-85.468283	4.176674	-35.698623
01256		-0.713414	-9.748395	0.814202	-0.007526	-0.001066	-0.004626	-85.468410	4.173096	-35.699654
01257		-0.714452	-9.755493	0.753863	-0.012476	-0.002029	-0.002960	-85.471375	4.170363	-35.700200
01258		-0.724789	-9.765056	0.784036	-0.014689	-0.003246	-0.001642	-85.475506	4.168390	-35.699845
01259		-0.712983	-9.772077	0.803316	-0.012696	0.003132	-0.012171	-85.478850	4.160639	-35.703494
01260		-0.713585	-9.779214	0.742565	-0.015380	-0.002747	-0.004619	-85.483407	4.156988	-35.703560
01261		-0.700927	-9.762964	0.768918	-0.016596	-0.000775	-0.008566	-85.488808	4.151115	-35.704952
01262		-0.721795	-9.765747	0.778164	-0.016595	-0.000774	-0.008568	-85.494155	4.145297	-35.706326
01263		-0.720830	-9.765945	0.776567	-0.016097	0.000823	-0.011201	-85.499340	4.137993	-35.708668
01264		-0.697991	-9.763553	0.764099	-0.016620	0.002298	-0.012173	-85.504839	4.130253	-35.711962
01265		-0.719527	-9.789660	0.765783	-0.021710	-0.002708	-0.008914	-85.513079	4.124090	-35.712386
01266		-0.663492	-9.768228	0.770160	-0.015732	-0.000296	-0.003593	-85.517935	4.121134	-35.713808
01267		-0.684813	-9.770968	0.779753	-0.010259	-0.000805	-0.004287	-85.519693	4.117705	-35.714973
01268		-0.695581	-9.764211	0.757858	-0.016397	-0.002865	-0.002969	-85.524822	4.114992	-35.714895
01269		-0.695087	-9.764359	0.756399	-0.013687	-0.000047	-0.006918	-85.528584	4.110094	-35.716597
01270		-0.705956	-9.797290	0.779184	-0.014184	-0.001644	-0.004287	-85.532499	4.106682	-35.717277
01271		-0.705220	-9.757747	0.733092	-0.013518	0.000927	-0.004913	-85.536198	4.102967	-35.719645
01272		-0.694297	-9.788052	0.745138	-0.011474	0.001174	-0.008236	-85.538689	4.097425	-35.722115
01273		-0.681800	-9.771793	0.772011	-0.010090	0.000171	-0.002285	-85.540371	4.095183	-35.723653
01274		-0.703167	-9.774516	0.782011	-0.007521	-0.001056	-0.004636	-85.540494	4.091598	-35.724684
01275		-0.670489	-9.762441	0.738942	-0.007878	0.001391	-0.003601	-85.540961	4.088657	-35.727024
01276		-0.713465	-9.767791	0.759984	-0.005974	-0.002406	-0.005328	-85.540144	4.084616	-35.727314
01277		-0.723384	-9.737700	0.746058	-0.008018	-0.002653	-0.002007	-85.540526	4.082405	-35.727322
01278		-0.701649	-9.774849	0.779202	-0.006996	-0.002529	-0.003668	-85.540284	4.079307	-35.727467
01279		-0.669224	-9.762734	0.736208	-0.007326	-0.003156	0.000969	-85.540233	4.078776	-35.726968
01280		-0.723749	-9.761157	0.736708	-0.005639	-0.000462	-0.001316	-85.539291	4.077113	-35.728192
01281		-0.679790	-9.772367	0.766506	-0.005612	-0.003535	0.002284	-85.538247	4.077318	-35.727430
01282		-0.700906	-9.751771	0.784084	-0.007823	-0.004754	0.003599	-85.538365	4.078271	-35.725976
01283		-0.680337	-9.772442	0.765059	-0.009229	0.000641	0.002696	-85.539564	4.078896	-35.727634
01284		-0.680423	-9.772510	0.764119	-0.010228	-0.003871	-0.000694	-85.541110	4.077437	-35.726877
01285		-0.668456	-9.756228	0.791150	-0.008871	-0.001804	0.001658	-85.542000	4.077354	-35.727341
01286		-0.681549	-9.795884	0.755112	-0.006633	-0.003659	0.003943	-85.541480	4.078553	-35.726499
01287		-0.692246	-9.765714	0.741361	-0.004254	-0.001468	0.004635	-85.539731	4.080188	-35.726932
01288		-0.681644	-9.772631	0.761473	-0.005940	-0.004162	0.006918	-85.538785	4.083064	-35.725668
01289		-0.702064	-9.728758	0.786513	-0.005611	-0.003533	0.002282	-85.537736	4.083265	-35.724941
01290		-0.704185	-9.775312	0.771070	-0.009864	-0.005001	0.006916	-85.539004	4.086103	-35.723197
01291		-0.714828	-9.745178	0.756845	-0.011249	-0.003992	0.000964	-85.541171	4.085532	-35.722228
01292		-0.683811	-9.796062	0.750744	-0.011605	-0.001546	0.002001	-85.543593	4.085716	-35.722682
01293		-0.705456	-9.759009	0.715869	-0.010416	-0.000451	0.002348	-85.545429	4.086098	-35.723538
01294		-0.661788	-9.770273	0.745277	-0.008177	-0.002306	0.004631	-85.545847	4.087750	-35.723440
01295		-0.696019	-9.789245	0.727653	-0.003204	-0.004418	0.006570	-85.543363	4.090358	-35.722149
01296		-0.705384	-9.752284	0.773611	-0.002182	-0.004293	0.004910	-85.540264	4.092081	-35.720900
01297		-0.695398	-9.782475	0.786603	-0.002875	-0.003788	0.001935	-85.537641	4.092068	-35.720247
01298		-0.684263	-9.749649	0.762143	-0.005442	-0.002561	0.004286	-85.536483	4.093512	-35.720017
01299		-0.706321	-9.752313	0.772389	-0.007820	-0.004750	0.003592	-85.536646	4.094408	-35.718544
01300		-0.685858	-9.772963	0.753389	-0.008176	-0.002304	0.004630	-85.537064	4.096060	-35.718447
01301		-0.707170	-9.752371	0.770883	-0.007651	-0.003779	0.005598	-85.537169	4.098139	-35.717697
01302		-0.707607	-9.752392	0.770213	-0.006630	-0.003655	0.003938	-85.536647	4.099335	-35.716858
01303		-0.697676	-9.782634	0.782599	-0.010554	-0.004491	0.003935	-85.538378	4.100444	-35.715250
01304		-0.676346	-9.780043	0.770782	-0.009365	-0.003397	0.004282	-85.539433	4.101848	-35.714543
01305		-0.697327	-9.759478	0.788294	-0.006302	-0.003024	-0.000698	-85.538796	4.100368	-35.714224
01306		-0.707880	-9.729312	0.774347	-0.009860	-0.004996	0.006908	-85.540060	4.103201	-35.712483
01307		-0.730943	-9.755246	0.776870	-0.010553	-0.004489	0.003933	-85.541804	4.104297	-35.711504
01308		-0.676572	-9.757004	0.774499	-0.014505	-0.002249	0.000334	-85.545864	4.103497	-35.711630
01309		-0.710333	-9.776054	0.755870	-0.017239	-0.001991	0.000678	-85.551546	4.102847	-35.712085
01310		-0.679164	-9.787151	0.704632	-0.014475	-0.005323	0.003926	-85.555451	4.103963	-35.710290
01311		-0.666870	-9.787503	0.783607	-0.006628	-0.003653	0.003934	-85.554980	4.105103	-35.709511
01312		-0.720821	-9.722760	0.746845	-0.009333	-0.006470	0.007870	-85.555879	4.108421	-35.706884
01313		-0.711160	-9.752996	0.759215	-0.007648	-0.003776	0.005592	-85.555977	4.110502	-35.705999
01314		-0.711533	-9.753034	0.758383	-0.010195	-0.006930	0.002888	-85.557367	4.110953	-35.703331
01315		-0.691043	-9.773707	0.738855	-0.016018	-0.003968	0.004615	-85.562249	4.112469	-35.702271
01316		-0.692390	-9.797032	0.729932	-0.015493	-0.005443	0.005581	-85.566727	4.114525	-35.700335
01317		-0.679805	-9.757612	0.763947	-0.013453	-0.005193	0.002262	-85.570105	4.114640	-35.698833
01318		-0.724852	-9.769599	0.725170	-0.010054	-0.002883	0.001300	-85.571585	4.114364	-35.698553
01319		-0.680032	-9.757763	0.761812	-0.011243	-0.003975	0.000951	-85.573734	4.113788	-35.697489
01320		-0.702673	-9.783740	0.764085	-0.013312	-0.001147	0.000677	-85.577154	4.113233	-35.698231
01321		-0.680067	-9.757955	0.759312	-0.014145	-0.004682	-0.000715	-85.580967	4.111673	-35.697114
01322		-0.692097	-9.774289	0.730117	-0.011242	-0.003974	0.000949	-85.583084	4.111148	-35.696225
01323		-0.691687	-9.791018	0.780931	-0.013281	-0.004222	0.004265	-85.586389	4.112457	-35.694836
01324		-0.692753	-9.774408	0.727898	-0.008834	-0.004866	0.005236	-85.587076	4.114343	-35.693246
01325		-0.692697	-9.791081	0.779243	-0.004742	-0.003067	0.007250	-85.585536	4.117397	-35.692918
01326		-0.693208	-9.751161	0.734211	-0.005761	-0.003191	0.008908	-85.584519	4.121454	-35.692125
01327		-0.727709	-9.770014	0.716672	-0.003862	-0.006986	0.007172	-85.582322	4.124304	-35.689068
01328		-0.683377	-9.758128	0.754099	-0.001653	-0.005770	0.005863	-85.578855	4.126507	-35.686932
01329		-0.717766	-9.776961	0.736880	-0.001483	-0.004802	0.007871	-85.575347	4.129849	-35.684936
01330		-0.705451	-9.737448	0.772438	0.003458	-0.003847	0.006218	-85.569030	4.132340	-35.683885
01331		-0.717371	-9.770282	0.796732	0.002409	-0.000894	0.004288	-85.563472	4.133798	-35.684800
01332		-0.718584	-9.753576	0.744630	-0.005405	-0.005632	0.007864	-85.562153	4.137150	-35.682653
01333		-0.740275	-9.772864	0.807249	-0.000464	-0.004677	0.006211	-85.558083	4.139550	-35.680963
01334		-0.708589	-9.760544	0.764694	-0.004910	-0.004031	0.005240	-85.556556	4.141473	-35.679850
01335		-0.720281	-9.753514	0.743809	-0.002532	-0.001848	0.005939	-85.553791	4.143841	-35.679926
01336		-0.709676	-9.760517	0.764040	-0.004386	-0.005507	0.006205	-85.551898	4.146250	-35.677925
01337		-0.688265	-9.757888	0.752765	-0.003922	-0.000830	-0.000006	-85.550003	4.145255	-35.679525
01338		-0.711350	-9.783753	0.755838	-0.004044	-0.003572	0.010219	-85.547982	4.150043	-35.678453
01339		-0.710211	-9.737242	0.770667	0.002410	-0.000894	0.004287	-85.542436	4.151520	-35.678762
01340		-0.701524	-9.790693	0.776220	-0.004568	-0.002095	0.009254	-85.540780	4.155823	-35.678578
01341		-0.690837	-9.757760	0.752064	0.000726	-0.003585	0.006559	-85.536094	4.158476	-35.677420
01342		-0.734766	-9.762985	0.773865	-0.000988	-0.003200	0.005245	-85.532354	4.160439	-35.676783
01343		-0.713484	-9.760325	0.762946	0.000031	-0.003076	0.003587	-85.528081	4.161409	-35.676292
01344		-0.703643	-9.790557	0.776013	-0.000988	-0.003200	0.005244	-85.524340	4.163372	-35.675654
01345		-0.703983	-9.750601	0.731394	-0.001481	-0.004799	0.007866	-85.520857	4.166714	-35.673877
01346		-0.694268	-9.780828	0.744441	0.000031	-0.003076	0.003586	-85.516543	4.167735	-35.673384
01347		-0.716301	-9.783439	0.755229	-0.002702	-0.002814	0.003930	-85.513827	4.168907	-35.673150
01348		-0.726396	-9.769836	0.794017	0.000062	-0.006151	0.007172	-85.509356	4.171838	-35.670735
01349		-0.704264	-9.743949	0.790492	-0.002036	-0.000246	0.003315	-85.506396	4.172793	-35.671387
01350		-0.716767	-9.760152	0.762073	-0.006976	-0.001198	0.004967	-85.506171	4.174687	-35.671907
01351		-0.738828	-9.762802	0.772296	-0.007148	-0.002165	0.002960	-85.506026	4.175336	-35.671967
01352		-0.718292	-9.783422	0.753553	-0.001018	-0.000123	0.001658	-85.502443	4.175388	-35.673252
01353		-0.707297	-9.790471	0.773777	-0.005605	-0.003517	0.002266	-85.501421	4.175591	-35.672624
01354		-0.684178	-9.741394	0.777301	-0.004737	-0.003059	0.007244	-85.499828	4.178702	-35.671976
01355		-0.729189	-9.769866	0.791074	-0.007469	-0.002796	0.007588	-85.499844	4.181969	-35.671485
01356		-0.707139	-9.744033	0.786884	-0.008165	-0.002286	0.004616	-85.500256	4.183614	-35.671398
01357		-0.730999	-9.753195	0.737507	-0.009535	0.000034	0.007317	-85.501565	4.186853	-35.672508
01358		-0.710292	-9.790527	0.770312	-0.006803	-0.000229	0.006973	-85.501275	4.189936	-35.673493
01359		-0.709909	-9.767302	0.777240	-0.004243	-0.001459	0.004621	-85.499481	4.191567	-35.673776
01360		-0.722551	-9.783460	0.748982	-0.001339	-0.000756	0.006285	-85.496040	4.194234	-35.674490
01361		-0.700631	-9.757563	0.745533	0.000900	-0.002618	0.008562	-85.491260	4.198069	-35.673898
01362		-0.735111	-9.776305	0.728436	-0.001652	-0.005765	0.005854	-85.487790	4.200264	-35.671762
01363		-0.734019	-9.769733	0.788255	0.008923	-0.004377	0.005523	-85.478357	4.202293	-35.669949
01364		-0.733666	-9.746418	0.796247	0.001252	-0.005061	0.007517	-85.473247	4.205469	-35.668141
01365		-0.713427	-9.766968	0.778218	0.004829	-0.006169	0.003508	-85.466082	4.206248	-35.666147
01366		-0.714717	-9.790136	0.771194	0.003287	-0.004815	0.004202	-85.459827	4.207542	-35.664629
01367		-0.735676	-9.769477	0.789882	0.002590	-0.004306	0.001232	-85.454062	4.207115	-35.663669
01368		-0.715157	-9.790057	0.771780	0.002097	-0.005905	0.003852	-85.448444	4.208158	-35.661543
01369		-0.713770	-9.743559	0.786764	-0.001478	-0.004795	0.007860	-85.444953	4.211498	-35.659721
01370		-0.715233	-9.766772	0.779021	-0.005081	-0.004989	0.003227	-85.443488	4.212227	-35.658147
01371		-0.737378	-9.769370	0.789618	-0.002002	-0.003319	0.006897	-85.440348	4.215082	-35.657169
01372		-0.725858	-9.753177	0.817301	-0.005049	-0.008063	0.006809	-85.438723	4.217716	-35.653671
01373		-0.717622	-9.789988	0.770376	-0.007320	-0.003126	0.000952	-85.438656	4.217177	-35.653392
01374		-0.716685	-9.766808	0.777225	-0.005778	-0.004479	0.000257	-85.437622	4.216232	-35.652246
01375		-0.726889	-9.736574	0.763525	-0.007844	-0.001649	-0.000011	-85.437932	4.215222	-35.652465
01376		-0.737249	-9.746328	0.794041	-0.011273	-0.000875	-0.002637	-85.440208	4.212788	-35.653515
01377		-0.727892	-9.799960	0.798242	-0.017228	-0.001943	0.000670	-85.445904	4.212151	-35.653930
01378		-0.716197	-9.767193	0.772835	-0.012636	-0.002929	-0.004996	-85.448883	4.208276	-35.653912
01379		-0.715622	-9.767346	0.771425	-0.016416	0.000290	-0.006577	-85.454206	4.203584	-35.656471
01380		-0.704611	-9.757807	0.738557	-0.012986	-0.000485	-0.003952	-85.457484	4.200417	-35.657804
01381		-0.714946	-9.767586	0.769011	-0.007318	-0.003124	0.000948	-85.457431	4.199878	-35.657651
01382		-0.714977	-9.767626	0.768477	-0.003921	-0.000824	-0.000007	-85.455488	4.198948	-35.658610
01383		-0.702799	-9.751521	0.796045	-0.005111	-0.001912	-0.000358	-85.454233	4.197718	-35.659271
01384		-0.725271	-9.777410	0.799009	-0.004619	-0.000313	-0.002977	-85.452720	4.195115	-35.660658
01385		-0.702496	-9.751626	0.795031	-0.006652	-0.000558	0.000336	-85.452362	4.194349	-35.661450
01386		-0.725269	-9.777507	0.797820	-0.006479	0.000407	0.002344	-85.451928	4.194818	-35.663008
01387		-0.702840	-9.751694	0.793891	-0.003747	0.000142	0.002000	-85.449962	4.195026	-35.664803
01388		-0.715081	-9.767866	0.765328	-0.007842	-0.001646	-0.000015	-85.450230	4.194054	-35.665292
01389		-0.703741	-9.775008	0.785238	-0.004619	-0.000312	-0.002977	-85.448730	4.191399	-35.666744
01390		-0.713790	-9.744766	0.771642	-0.007176	0.000919	-0.000626	-85.448727	4.190195	-35.668729
01391		-0.702632	-9.751902	0.791509	-0.006127	-0.002035	0.001297	-85.448039	4.189915	-35.668801
01392		-0.702680	-9.751953	0.790841	-0.007841	-0.001646	-0.000016	-85.448308	4.188942	-35.669290
01393		-0.714998	-9.768129	0.762035	-0.008684	-0.000803	0.003648	-85.449080	4.190047	-35.670104
01394		-0.714121	-9.744968	0.768787	-0.006825	-0.001522	-0.001673	-85.448777	4.188134	-35.670739
01395		-0.735725	-9.747658	0.778978	-0.008506	-0.004210	0.000593	-85.449339	4.187350	-35.669494
01396		-0.715158	-9.768299	0.759705	-0.009208	0.000674	0.002686	-85.450478	4.188026	-35.671188
01397		-0.714421	-9.745135	0.766388	-0.007667	-0.000680	0.001991	-85.450748	4.188199	-35.672401
01398		-0.737174	-9.771021	0.769103	-0.006651	-0.000556	0.000334	-85.450378	4.187477	-35.673498
01399		-0.705075	-9.758704	0.726149	-0.006126	-0.002033	0.001295	-85.449706	4.187180	-35.674490
01400		-0.725035	-9.755014	0.795831	-0.008014	-0.002609	-0.002027	-85.450040	4.185015	-35.674520
01401		-0.703942	-9.775682	0.776624	-0.008047	0.000470	-0.005606	-85.450563	4.180899	-35.676531
01402		-0.702717	-9.752556	0.783343	-0.008505	-0.004209	0.000590	-85.451103	4.180157	-35.675524
01403		-0.703625	-9.775837	0.774965	-0.009554	-0.001254	-0.001333	-85.452418	4.178407	-35.676299
01404		-0.735512	-9.748218	0.772146	-0.006126	-0.002033	0.001294	-85.451683	4.178166	-35.676507
01405		-0.703823	-9.775928	0.773630	-0.005952	-0.001069	0.003302	-85.450896	4.179066	-35.677195
01406		-0.713657	-9.762492	0.811997	-0.005952	-0.001068	0.003302	-85.450095	4.180016	-35.677864
01407		-0.726068	-9.778612	0.783426	-0.005601	-0.003510	0.002254	-85.449028	4.180211	-35.677147
01408		-0.714726	-9.745689	0.759026	-0.004795	0.003098	0.000077	-85.447749	4.179508	-35.680349
01409		-0.692371	-9.759974	0.799301	-0.010359	-0.007860	0.000843	-85.449230	4.178705	-35.676943
01410		-0.725303	-9.755552	0.788954	-0.006125	-0.002032	0.001293	-85.448494	4.178463	-35.677151
01411		-0.703713	-9.752975	0.777208	-0.011234	-0.003940	0.000929	-85.450661	4.177894	-35.675938
01412		-0.725166	-9.755706	0.787178	-0.008711	-0.002091	-0.004999	-85.451426	4.174056	-35.676399
01413		-0.703169	-9.753160	0.775378	-0.009553	-0.001250	-0.001335	-85.452749	4.172305	-35.677333
01414		-0.725735	-9.779076	0.777925	-0.007838	-0.001641	-0.000022	-85.453016	4.171330	-35.677825
01415		-0.681322	-9.750651	0.762915	-0.006823	-0.001517	-0.001678	-85.452812	4.169395	-35.678013
01416		-0.725524	-9.779202	0.776537	-0.007173	0.000925	-0.000629	-85.452807	4.168189	-35.680002
01417		-0.714121	-9.746292	0.751808	-0.010708	-0.005417	0.001887	-85.454587	4.168095	-35.677966
01418		-0.692700	-9.783827	0.784281	-0.009552	-0.001249	-0.001336	-85.455856	4.166386	-35.678742
01419		-0.692595	-9.743774	0.739073	-0.008155	-0.002279	0.004602	-85.456302	4.167987	-35.678367
01420		-0.704353	-9.776790	0.762175	-0.007664	-0.000676	0.001986	-85.456503	4.168202	-35.679320
01421		-0.681178	-9.767910	0.809956	-0.007664	-0.000676	0.001986	-85.456759	4.168385	-35.679937
01422		-0.725474	-9.756324	0.779190	-0.007139	-0.002154	0.002945	-85.456594	4.169081	-35.680000
01423		-0.703993	-9.753706	0.767714	-0.004269	0.001622	0.001038	-85.454984	4.168807	-35.682664
01424		-0.725759	-9.756386	0.778153	-0.005459	0.000535	0.000684	-85.453975	4.168334	-35.684370
01425		-0.727875	-9.802810	0.762468	-0.006928	-0.008638	0.003461	-85.453449	4.168979	-35.680999
01426		-0.714073	-9.740379	0.805192	-0.002695	-0.002813	0.003917	-85.450707	4.170200	-35.680640
01427		-0.704262	-9.770742	0.817474	-0.010883	-0.002010	0.004942	-85.452725	4.171998	-35.680805
01428		-0.714754	-9.740438	0.803868	-0.003394	-0.002297	0.000947	-85.450414	4.171546	-35.680877
01429		-0.705349	-9.753865	0.764452	-0.006123	-0.002029	0.001289	-85.449713	4.171261	-35.681017
01430		-0.694238	-9.761058	0.784297	-0.007312	-0.003115	0.000934	-85.449614	4.170765	-35.680622
01431		-0.706647	-9.777131	0.755650	-0.005424	-0.002545	0.004257	-85.448491	4.172161	-35.679952
01432		-0.715539	-9.740560	0.801697	-0.004759	0.000020	0.003652	-85.447051	4.173360	-35.681228
01433		-0.695155	-9.761142	0.782445	-0.011056	-0.002970	0.002930	-85.449121	4.173958	-35.681213
01434		-0.705831	-9.771011	0.812895	-0.008851	-0.001759	0.001629	-85.449958	4.173920	-35.681562
01435		-0.717401	-9.763887	0.791662	-0.007103	-0.005233	0.006516	-85.449619	4.176463	-35.679678
01436		-0.717708	-9.763933	0.790823	-0.010565	-0.001366	0.000315	-85.451459	4.175693	-35.680312
01437		-0.696263	-9.761339	0.778995	-0.008152	-0.002275	0.004597	-85.451910	4.177296	-35.679823
01438		-0.707022	-9.771190	0.809693	-0.006787	-0.004591	0.001891	-85.451445	4.177279	-35.678538
01439		-0.730620	-9.780082	0.760510	-0.007137	-0.002151	0.002941	-85.451313	4.177936	-35.678345
01440		-0.697092	-9.761450	0.776849	-0.009341	-0.003360	0.004241	-85.452355	4.179317	-35.677658
01441		-0.730414	-9.756961	0.766502	-0.007626	-0.003753	0.005554	-85.452445	4.181396	-35.676454
01442		-0.742817	-9.773002	0.737870	-0.004442	0.000663	-0.000972	-85.450865	4.179983	-35.678308
01443		-0.697721	-9.761565	0.774848	-0.008500	-0.004197	0.000575	-85.451462	4.179164	-35.678786
01444		-0.719537	-9.764265	0.785037	-0.007136	-0.002150	0.002940	-85.451295	4.179858	-35.678851
01445		-0.707427	-9.748320	0.812269	-0.010214	-0.003802	-0.000739	-85.452918	4.178335	-35.678508
01446		-0.730722	-9.757239	0.762662	-0.012277	-0.000968	-0.001001	-85.455759	4.176831	-35.679430
01447		-0.720464	-9.787693	0.774430	-0.010563	-0.001362	0.000312	-85.457635	4.176000	-35.680959
01448		-0.708929	-9.754758	0.749600	-0.010738	-0.002322	-0.001699	-85.459541	4.174036	-35.681138
01449		-0.731627	-9.780673	0.751888	-0.011052	-0.002965	0.002924	-85.461615	4.174636	-35.680946
01450		-0.698844	-9.785237	0.760894	-0.000315	-0.005004	-0.000450	-85.457432	4.173263	-35.679531
01451		-0.697019	-9.738886	0.775842	-0.005421	-0.002543	0.004252	-85.456286	4.174638	-35.679645
01452		-0.698245	-9.762082	0.767827	-0.003393	-0.002294	0.000943	-85.453975	4.174184	-35.679719
01453		-0.698521	-9.762092	0.767445	-0.004896	-0.004022	0.005209	-85.452468	4.176056	-35.678153
01454		-0.708281	-9.748775	0.806038	-0.004057	-0.004858	0.001544	-85.450430	4.175829	-35.676732
01455		-0.742380	-9.767449	0.788306	-0.008673	-0.000793	0.003635	-85.451264	4.176939	-35.677941
01456		-0.699273	-9.762188	0.765537	-0.010037	-0.002838	0.001268	-85.452737	4.176646	-35.677689
01457		-0.699278	-9.762249	0.764760	-0.006295	-0.002984	-0.000728	-85.452113	4.175178	-35.677045
01458		-0.753844	-9.760423	0.765450	-0.008847	-0.001753	0.001623	-85.452948	4.175137	-35.677398
01459		-0.698516	-9.739164	0.770994	-0.005071	-0.004982	0.003197	-85.451473	4.175808	-35.675424
01460		-0.710056	-9.772238	0.794248	-0.006295	-0.002983	-0.000728	-85.450802	4.174368	-35.675179
01461		-0.710144	-9.772284	0.793610	-0.007133	-0.002147	0.002936	-85.450666	4.175022	-35.675115
01462		-0.700002	-9.762446	0.761567	-0.006609	-0.003627	0.003893	-85.450133	4.176192	-35.674292
01463		-0.721978	-9.765136	0.771854	-0.007133	-0.002147	0.002936	-85.449985	4.176843	-35.674203
01464		-0.722307	-9.765173	0.771070	-0.009336	-0.003355	0.004233	-85.451024	4.178220	-35.673520
01465		-0.712224	-9.755340	0.738815	-0.008671	-0.000791	0.003632	-85.451796	4.179337	-35.673747
01466		-0.702243	-9.785763	0.750931	-0.006119	-0.002022	0.001281	-85.451058	4.179089	-35.673962
01467		-0.743798	-9.744759	0.787645	-0.002692	-0.002813	0.003908	-85.448342	4.180271	-35.673242
01468		-0.679239	-9.777068	0.798521	-0.008497	-0.004189	0.000567	-85.448878	4.179516	-35.672248
01469		-0.732840	-9.752056	0.806886	-0.006119	-0.002021	0.001281	-85.448161	4.179210	-35.673168
01470		-0.723422	-9.765400	0.767147	-0.009022	-0.002709	-0.000390	-85.449063	4.177976	-35.673065
01471		-0.712210	-9.772682	0.786818	-0.007308	-0.003105	0.000923	-85.448976	4.177422	-35.673067
01472		-0.745154	-9.768174	0.776620	-0.007307	-0.003104	0.000923	-85.448874	4.176920	-35.672679
01473		-0.690600	-9.770121	0.774541	-0.006294	-0.002979	-0.000731	-85.448190	4.175425	-35.672696
01474		-0.701985	-9.762937	0.753409	-0.008145	-0.002270	0.004587	-85.448591	4.177053	-35.672618
01475		-0.711994	-9.749680	0.791690	-0.007444	-0.002790	0.007554	-85.448570	4.180312	-35.671967
01476		-0.724694	-9.765635	0.762937	-0.006467	0.000419	0.002334	-85.448129	4.180776	-35.673531
01477		-0.713749	-9.772895	0.782777	-0.005942	-0.001061	0.003290	-85.447342	4.181674	-35.674359
01478		-0.714122	-9.772913	0.782211	-0.006082	-0.005104	0.004844	-85.446442	4.183321	-35.672646
01479		-0.725674	-9.765691	0.761284	-0.004404	-0.002416	0.002592	-85.444697	4.183756	-35.672603
01480		-0.714567	-9.772957	0.781253	-0.005769	-0.004458	0.000223	-85.443660	4.182793	-35.671471
01481		-0.713846	-9.749813	0.788383	-0.005241	-0.001582	0.006256	-85.442495	4.185374	-35.671829
01482		-0.693493	-9.770332	0.769275	-0.005769	-0.004457	0.000223	-85.441458	4.184410	-35.670698
01483		-0.693677	-9.770390	0.768376	-0.013248	-0.004161	0.004210	-85.444745	4.185692	-35.669862
01484		-0.724860	-9.759872	0.817397	-0.006818	-0.001496	-0.001689	-85.444439	4.183772	-35.670513
01485		-0.714324	-9.750026	0.785311	-0.007831	-0.001621	-0.000036	-85.444742	4.182739	-35.671630
01486		-0.705032	-9.763312	0.745668	-0.005068	-0.004978	0.003188	-85.443271	4.183445	-35.670065
01487		-0.715720	-9.773248	0.776537	-0.006257	-0.006061	0.002830	-85.442452	4.183842	-35.668545
01488		-0.714871	-9.750122	0.783618	-0.006117	-0.002017	0.001277	-85.441712	4.183591	-35.668763
01489		-0.716078	-9.773315	0.775362	-0.006921	-0.008624	0.003427	-85.441135	4.184222	-35.664951
01490		-0.727509	-9.766105	0.754197	-0.008843	-0.001744	0.001617	-85.441968	4.184178	-35.665310
01491		-0.704308	-9.757490	0.802040	-0.005415	-0.002539	0.004243	-85.440816	4.185558	-35.665037
01492		-0.684068	-9.777993	0.782915	-0.005415	-0.002539	0.004243	-85.439643	4.186978	-35.664820
01493		-0.737892	-9.752943	0.791403	-0.008318	-0.003223	0.002571	-85.440183	4.187388	-35.664004
01494		-0.716440	-9.750328	0.779609	-0.009507	-0.004305	0.002212	-85.441287	4.187568	-35.662869
01495		-0.706545	-9.780791	0.791530	-0.008140	-0.002265	0.004582	-85.441700	4.189159	-35.662456
01496		-0.728650	-9.783492	0.801680	-0.008805	-0.004828	0.005178	-85.442370	4.191008	-35.660886
01497		-0.706258	-9.757699	0.797771	-0.004263	0.001630	0.001038	-85.440740	4.190734	-35.663809
01498		-0.685699	-9.778229	0.778530	-0.008494	-0.004179	0.000558	-85.441274	4.189974	-35.662821
01499		-0.740284	-9.776339	0.779456	-0.003390	-0.002289	0.000935	-85.438988	4.189465	-35.663465
01500		-0.695169	-9.724711	0.772464	-0.006078	-0.005101	0.004837	-85.438085	4.191107	-35.661754
01501		-0.716342	-9.744650	0.834250	-0.014292	-0.001192	0.002294	-85.442086	4.191434	-35.662438
01502		-0.729910	-9.783767	0.797166	-0.012578	-0.001590	0.003606	-85.445059	4.192534	-35.662794
01503		-0.706429	-9.734877	0.800356	-0.012755	-0.002547	0.001594	-85.448078	4.192391	-35.662696
01504		-0.719961	-9.773976	0.763343	-0.012578	-0.001589	0.003605	-85.451050	4.193489	-35.663053
01505		-0.730518	-9.743607	0.749452	-0.011388	-0.000507	0.003963	-85.453443	4.194804	-35.664333
01506		-0.709253	-9.781399	0.781533	-0.010871	-0.006339	-0.000165	-85.455251	4.193533	-35.662141
01507		-0.708525	-9.758288	0.788499	-0.004711	-0.003062	0.007204	-85.453668	4.196583	-35.661509
01508		-0.688200	-9.778782	0.769330	-0.006292	-0.002969	-0.000739	-85.452996	4.195137	-35.661273
01509		-0.719217	-9.727908	0.774613	-0.007613	-0.003743	0.005531	-85.453053	4.197199	-35.660326
01510		-0.709454	-9.758369	0.786661	-0.006601	-0.003618	0.003878	-85.452515	4.198362	-35.659508
01511		-0.698572	-9.765690	0.806455	-0.006601	-0.003618	0.003878	-85.451994	4.199462	-35.659699
01512		-0.711194	-9.781571	0.777611	-0.008661	-0.000780	0.003623	-85.452757	4.200607	-35.660519
01513		-0.701204	-9.771628	0.745462	-0.007612	-0.003742	0.005529	-85.452839	4.202674	-35.659612
01514		-0.722184	-9.751183	0.763451	-0.006461	0.000426	0.002330	-85.452396	4.203136	-35.661181
01515		-0.723380	-9.774351	0.755271	-0.003389	-0.002286	0.000932	-85.450136	4.202640	-35.661437
01516		-0.711319	-9.758519	0.783109	-0.002687	-0.002812	0.003897	-85.447390	4.203850	-35.661081
01517		-0.699318	-9.742687	0.810922	-0.003736	0.000151	0.001991	-85.445390	4.204066	-35.662501
01518		-0.678864	-9.763184	0.791778	-0.006114	-0.002010	0.001271	-85.444649	4.203812	-35.662723
01519		-0.723089	-9.751281	0.761341	-0.006114	-0.002010	0.001271	-85.443928	4.203526	-35.662566
01520		-0.699661	-9.742812	0.809121	-0.009363	-0.000253	0.000656	-85.445125	4.203001	-35.663823
01521		-0.744870	-9.754065	0.770778	-0.006638	-0.000528	0.000317	-85.444767	4.202217	-35.665534
01522		-0.701946	-9.789205	0.792140	-0.009185	0.000703	0.002668	-85.445895	4.202885	-35.667246
01523		-0.712442	-9.758793	0.778658	-0.006807	0.002865	0.003388	-85.445811	4.204064	-35.668596
01524		-0.724947	-9.774671	0.749601	-0.012087	0.000025	0.000993	-85.448579	4.203744	-35.669996
01525		-0.724117	-9.751610	0.756125	-0.012573	-0.001581	0.003597	-85.451565	4.204778	-35.671281
01526		-0.702621	-9.749020	0.743884	-0.013799	0.000428	-0.000321	-85.455336	4.203725	-35.672972
01527		-0.713098	-9.759104	0.774145	-0.008837	-0.001732	0.001606	-85.456199	4.203619	-35.674238
01528		-0.746183	-9.754517	0.763751	-0.011037	-0.002937	0.002896	-85.458234	4.204251	-35.673855
01529		-0.713221	-9.759228	0.772465	-0.004269	-0.002713	-0.004048	-85.456419	4.200886	-35.673783
01530		-0.713289	-9.759272	0.771852	-0.008481	0.000178	0.005630	-85.457112	4.203222	-35.675060
01531		-0.722798	-9.746211	0.810096	-0.009193	-0.003640	-0.002420	-85.458072	4.200731	-35.674928
01532		-0.700967	-9.743602	0.798406	-0.006290	-0.002963	-0.000746	-85.457400	4.199282	-35.674696
01533		-0.724431	-9.752121	0.749201	-0.007825	-0.001606	-0.000047	-85.457652	4.198250	-35.675163
01534		-0.735897	-9.785342	0.771930	-0.010549	-0.001328	0.000291	-85.459484	4.197467	-35.675821
01535		-0.701611	-9.726449	0.744233	-0.007339	0.000003	-0.002651	-85.459566	4.195042	-35.676589
01536		-0.702663	-9.749646	0.735603	-0.011035	-0.002935	0.002893	-85.461601	4.195673	-35.676208
01537		-0.712254	-9.777117	0.817818	-0.007339	0.000003	-0.002651	-85.461693	4.193232	-35.677896
01538		-0.724131	-9.752487	0.744726	-0.012262	-0.000924	-0.001025	-85.464527	4.191716	-35.678844
01539		-0.713981	-9.783045	0.756211	-0.011559	-0.001452	0.001940	-85.466926	4.191813	-35.679925
01540		-0.734415	-9.762699	0.773948	-0.008705	-0.002029	-0.005027	-85.467690	4.187961	-35.680422
01541		-0.679414	-9.764760	0.771612	-0.008180	-0.003511	-0.004076	-85.468125	4.184545	-35.680343
01542		-0.711976	-9.760196	0.761305	-0.010062	0.000282	-0.002315	-85.469754	4.182347	-35.682041
01543		-0.721921	-9.729818	0.747641	-0.011250	-0.000797	-0.002678	-85.472000	4.179837	-35.683566
01544		-0.722917	-9.793584	0.782679	-0.013102	-0.004437	-0.002452	-85.475174	4.177347	-35.682566
01545		-0.710083	-9.737400	0.765687	-0.011110	0.003249	-0.004219	-85.477552	4.174155	-35.686110
01546		-0.710805	-9.760622	0.756930	-0.009189	-0.003635	-0.002428	-85.478518	4.171715	-35.685569
01547		-0.721025	-9.770782	0.787244	-0.012259	-0.000921	-0.001029	-85.481333	4.170167	-35.685742
01548		-0.720859	-9.770882	0.786156	-0.010060	0.000285	-0.002318	-85.482960	4.167967	-35.687441
01549		-0.731979	-9.763595	0.764905	-0.007823	-0.001602	-0.000052	-85.483258	4.166952	-35.687452
01550		-0.698993	-9.768316	0.773623	-0.006812	-0.001476	-0.001704	-85.482950	4.165024	-35.688114
01551		-0.719435	-9.747973	0.791685	-0.007476	-0.004037	-0.001116	-85.482975	4.163293	-35.687006
01552		-0.720581	-9.771151	0.783057	-0.010506	-0.004417	0.003836	-85.484642	4.164396	-35.685734
01553		-0.698958	-9.768496	0.771373	-0.004614	-0.000270	-0.002992	-85.483140	4.161742	-35.687368
01554		-0.718354	-9.725044	0.797195	-0.009881	0.001239	-0.000305	-85.484698	4.160735	-35.689522
01555		-0.687557	-9.776008	0.790152	-0.008485	-0.004163	0.000534	-85.485194	4.159918	-35.688396
01556		-0.698921	-9.768696	0.768870	-0.010366	-0.000370	0.002296	-85.486955	4.160324	-35.689511
01557		-0.700151	-9.791869	0.760147	-0.008832	-0.001727	0.001596	-85.487802	4.160219	-35.690443
01558		-0.687962	-9.776190	0.787543	-0.007297	-0.003084	0.000896	-85.487695	4.159703	-35.690068
01559		-0.732101	-9.764197	0.757058	-0.007158	0.000962	-0.000642	-85.487704	4.158480	-35.690815
01560		-0.687046	-9.753177	0.794002	-0.005930	-0.001053	0.003273	-85.486891	4.159413	-35.691495
01561		-0.722257	-9.794778	0.768205	-0.010682	-0.005366	0.001818	-85.488632	4.159302	-35.688707
01562		-0.722034	-9.754242	0.723468	-0.006811	-0.001472	-0.001706	-85.488323	4.157372	-35.689372
01563		-0.709844	-9.779178	0.794952	-0.005762	-0.004439	0.000194	-85.487321	4.156346	-35.688899
01564		-0.722997	-9.777437	0.714597	-0.004574	-0.003361	0.000558	-85.485643	4.155624	-35.688379
01565		-0.687224	-9.753415	0.790922	-0.004049	-0.004845	0.001508	-85.483546	4.155330	-35.686725
01566		-0.708953	-9.756171	0.801362	-0.007296	-0.003082	0.000894	-85.483439	4.154813	-35.686350
01567		-0.698663	-9.746104	0.769369	-0.006771	-0.004566	0.001844	-85.482957	4.154720	-35.685406
01568		-0.710390	-9.779368	0.792113	-0.009978	-0.005897	0.004780	-85.484257	4.156295	-35.683243
01569		-0.688078	-9.753585	0.788070	-0.008651	-0.000773	0.003608	-85.484992	4.157376	-35.684580
01570		-0.700726	-9.769340	0.758976	-0.010502	-0.004412	0.003829	-85.486657	4.158475	-35.683310
01571		-0.689763	-9.776768	0.778746	-0.002336	-0.005250	0.002821	-85.483655	4.158935	-35.681275
01572		-0.699510	-9.763785	0.817548	-0.005225	-0.001585	0.006236	-85.482406	4.161536	-35.681515
01573		-0.712080	-9.738853	0.745068	-0.003870	-0.003893	0.003521	-85.480283	4.162436	-35.680653
01574		-0.722759	-9.748988	0.775996	-0.005058	-0.004970	0.003156	-85.478808	4.163125	-35.679094
01575		-0.690215	-9.753692	0.784879	-0.006067	-0.005096	0.004806	-85.477936	4.164728	-35.676916
01576		-0.724541	-9.772123	0.767107	-0.005928	-0.001051	0.003272	-85.477122	4.165660	-35.677597
01577		-0.703268	-9.769436	0.755382	-0.009976	-0.005893	0.004776	-85.478502	4.167220	-35.674892
01578		-0.712951	-9.756505	0.793707	-0.007779	-0.004689	0.003491	-85.478596	4.168113	-35.673479
01579		-0.714269	-9.738978	0.741332	-0.007075	-0.005222	0.006454	-85.478236	4.170637	-35.671294
01580		-0.714750	-9.779656	0.784599	-0.005761	-0.004435	0.000190	-85.477196	4.169656	-35.670176
01581		-0.713910	-9.756579	0.791938	-0.004878	-0.004018	0.005169	-85.475667	4.171492	-35.669421
01582		-0.693833	-9.776971	0.772550	-0.007599	-0.003737	0.005504	-85.475691	4.173578	-35.668462
01583		-0.726245	-9.749186	0.770241	-0.008607	-0.003864	0.007154	-85.476303	4.176566	-35.667275
01584		-0.704214	-9.764070	0.810065	-0.009836	-0.001845	0.003241	-85.477696	4.177444	-35.667502
01585		-0.727091	-9.749266	0.768425	-0.009974	-0.005890	0.004772	-85.479001	4.178968	-35.665709
01586		-0.705834	-9.746595	0.756486	-0.010499	-0.004405	0.003823	-85.480665	4.180064	-35.664444
01587		-0.695866	-9.777199	0.767829	-0.013924	-0.003589	0.001195	-85.484376	4.179675	-35.663264
01588		-0.707385	-9.769827	0.746426	-0.008122	-0.002252	0.004553	-85.484765	4.181284	-35.663200
01589		-0.717025	-9.756928	0.784791	-0.008965	-0.005761	0.003120	-85.485498	4.181868	-35.661621
01590		-0.695570	-9.754258	0.773025	-0.007957	-0.005634	0.001470	-85.485661	4.181565	-35.659758
01591		-0.718326	-9.780127	0.775413	-0.007818	-0.001589	-0.000060	-85.485871	4.180516	-35.660410
01592		-0.717285	-9.757091	0.782519	-0.007956	-0.005634	0.001470	-85.486034	4.180212	-35.658547
01593		-0.717429	-9.757131	0.781891	-0.005580	-0.003482	0.002201	-85.484969	4.180384	-35.658278
01594		-0.705132	-9.741503	0.809827	-0.000318	-0.004994	-0.000486	-85.480789	4.178991	-35.656870
01595		-0.718607	-9.780280	0.773223	-0.011546	-0.001433	0.001924	-85.483251	4.179115	-35.657195
01596		-0.717809	-9.757233	0.780266	-0.005400	-0.002532	0.004216	-85.482070	4.180519	-35.656984
01597		-0.697505	-9.777640	0.760689	-0.010013	-0.002790	0.001222	-85.483594	4.180153	-35.657768
01598		-0.727454	-9.744425	0.817813	-0.008825	-0.001714	0.001588	-85.484418	4.180094	-35.658145
01599		-0.718212	-9.757402	0.777776	-0.009005	-0.002662	-0.000428	-85.485291	4.178794	-35.658167
01600		-0.685314	-9.762195	0.786350	-0.007292	-0.003071	0.000886	-85.485182	4.178272	-35.657799
01601		-0.718274	-9.757523	0.776201	-0.009349	-0.000229	0.000640	-85.486373	4.177717	-35.658248
01602		-0.718375	-9.757586	0.775322	-0.008824	-0.001713	0.001587	-85.487196	4.177656	-35.658626
01603		-0.696725	-9.754919	0.763584	-0.006809	-0.001459	-0.001712	-85.486894	4.175678	-35.659633
01604		-0.696729	-9.754973	0.762887	-0.007636	-0.000637	0.001953	-85.487080	4.175875	-35.660610
01605		-0.696852	-9.755029	0.762061	-0.009349	-0.000228	0.000639	-85.488269	4.175316	-35.661157
01606		-0.708341	-9.788373	0.784648	-0.008479	-0.004145	0.000517	-85.488796	4.174535	-35.660190
01607		-0.738946	-9.737540	0.790301	-0.007333	0.000027	-0.002660	-85.488871	4.172105	-35.661180
01608		-0.719466	-9.781049	0.762618	-0.012206	-0.003989	0.002500	-85.491534	4.172463	-35.660213
01609		-0.707273	-9.765491	0.790031	-0.004252	0.001641	0.001037	-85.489922	4.172186	-35.663601
01610		-0.707374	-9.765555	0.789150	-0.013919	-0.003578	0.001185	-85.493588	4.171812	-35.662928
01611		-0.740246	-9.760905	0.778684	-0.009528	-0.001173	-0.001379	-85.494813	4.169989	-35.665952
01612		-0.707238	-9.765743	0.786943	-0.012911	-0.003450	-0.000465	-85.497913	4.168678	-35.665427
01613		-0.718316	-9.758373	0.765401	-0.012428	-0.001837	-0.003061	-85.500824	4.165920	-35.665963
01614		-0.718105	-9.758482	0.764207	-0.012247	-0.000889	-0.001046	-85.503652	4.164393	-35.666931
01615		-0.718037	-9.758578	0.763049	-0.011722	-0.002374	-0.000100	-85.506129	4.163294	-35.667518
01616		-0.717892	-9.758669	0.762017	-0.009389	0.002874	-0.002906	-85.507481	4.160873	-35.670725
01617		-0.717686	-9.758763	0.761011	-0.011377	-0.004806	-0.001171	-85.509771	4.159064	-35.670508
01618		-0.706345	-9.766350	0.780171	-0.012591	0.001545	0.000023	-85.512893	4.158256	-35.672822
01619		-0.706075	-9.766457	0.779079	-0.009887	-0.003063	-0.005416	-85.514349	4.154093	-35.673588
01620		-0.695551	-9.756308	0.746722	-0.012203	-0.003986	0.002492	-85.517011	4.154447	-35.672624
01621		-0.728568	-9.792472	0.779918	-0.012426	-0.001832	-0.003066	-85.519870	4.151698	-35.672057
01622		-0.695268	-9.756514	0.744292	-0.013432	-0.001959	-0.001418	-85.523333	4.149910	-35.672428
01623		-0.704341	-9.743818	0.782184	-0.013957	-0.000473	-0.002365	-85.527207	4.147615	-35.673826
01624		-0.705232	-9.767006	0.772936	-0.013431	-0.001958	-0.001420	-85.530670	4.145826	-35.674198
01625		-0.693687	-9.774611	0.792265	-0.006986	-0.002397	-0.003736	-85.530404	4.142641	-35.675026
01626		-0.727033	-9.752173	0.730664	-0.007166	-0.003342	-0.005754	-85.530234	4.138315	-35.674799
01627		-0.736954	-9.762534	0.761190	-0.009180	-0.003599	-0.002457	-85.531221	4.135834	-35.674033
01628		-0.704749	-9.790428	0.761914	-0.004792	-0.001194	-0.005016	-85.529777	4.132025	-35.675003
01629		-0.691986	-9.774946	0.789620	-0.006460	-0.003883	-0.002792	-85.529149	4.129310	-35.675079
01630		-0.701887	-9.744424	0.776829	-0.002554	-0.003093	-0.002756	-85.526337	4.126707	-35.674862
01631		-0.691456	-9.775029	0.789060	-0.000842	-0.003505	-0.001442	-85.522546	4.124792	-35.674960
01632		-0.690163	-9.711132	0.753083	-0.004568	-0.003350	0.000540	-85.520866	4.124060	-35.674448
01633		-0.713115	-9.777850	0.799339	-0.005574	-0.003479	0.002189	-85.519705	4.124225	-35.673516
01634		-0.702859	-9.767604	0.767517	-0.005754	-0.004423	0.000171	-85.518662	4.123234	-35.672406
01635		-0.712256	-9.754884	0.805901	-0.011882	0.001007	0.002983	-85.521303	4.124045	-35.674429
01636		-0.681438	-9.764959	0.754764	-0.006805	-0.001450	-0.001720	-85.520991	4.122107	-35.675106
01637		-0.702944	-9.767781	0.765187	-0.005093	-0.001863	-0.000406	-85.519646	4.120862	-35.675515
01638		-0.702832	-9.767819	0.764806	-0.002899	-0.000660	-0.001684	-85.517128	4.118980	-35.676643
01639		-0.701637	-9.744796	0.772367	-0.005092	-0.001863	-0.000406	-85.515842	4.117722	-35.678009
01640		-0.690377	-9.752369	0.792025	-0.008156	0.000853	0.001000	-85.516390	4.117442	-35.679883
01641		-0.713182	-9.778274	0.794082	-0.012061	0.000064	0.000963	-85.519193	4.117086	-35.680935
01642		-0.702820	-9.768060	0.761740	-0.009523	-0.001164	-0.001388	-85.520449	4.115350	-35.681761
01643		-0.702799	-9.768137	0.760767	-0.010212	0.003698	0.000758	-85.522360	4.115023	-35.685852
01644		-0.715128	-9.783730	0.731678	-0.006804	-0.001448	-0.001722	-85.522047	4.113084	-35.686530
01645		-0.702705	-9.768255	0.759334	-0.005437	0.000569	0.000666	-85.521064	4.112576	-35.688181
01646		-0.701709	-9.745245	0.766621	-0.008155	0.000854	0.000999	-85.521611	4.112294	-35.690056
01647		-0.701910	-9.786202	0.809524	-0.006623	-0.000504	0.000295	-85.521218	4.111517	-35.690963
01648		-0.690456	-9.752879	0.785656	-0.004430	0.000699	-0.000982	-85.519631	4.110097	-35.692837
01649		-0.678215	-9.737405	0.813274	-0.008636	-0.000762	0.003591	-85.520428	4.111181	-35.694431
01650		-0.702110	-9.745431	0.763882	-0.008816	-0.001705	0.001572	-85.521247	4.111112	-35.694814
01651		-0.724750	-9.771354	0.765828	-0.013290	0.002098	-0.002948	-85.524792	4.108579	-35.698169
01652		-0.671261	-9.796470	0.755147	-0.007629	-0.000632	0.001942	-85.524974	4.108769	-35.699150
01653		-0.680585	-9.742860	0.750105	-0.006442	0.000441	0.002312	-85.524516	4.109175	-35.701077
01654		-0.693384	-9.799313	0.764898	-0.004731	0.000026	0.003627	-85.523059	4.110358	-35.702360
01655		-0.691609	-9.753218	0.780409	-0.004205	-0.001461	0.004572	-85.521219	4.111982	-35.702436
01656		-0.703362	-9.745687	0.759451	-0.009641	-0.000890	0.005236	-85.522532	4.114042	-35.703122
01657		-0.714107	-9.756051	0.789979	-0.005917	-0.001046	0.003256	-85.521775	4.114941	-35.703836
01658		-0.705224	-9.768791	0.750051	-0.008110	-0.002248	0.004532	-85.522157	4.116538	-35.703776
01659		-0.704621	-9.745769	0.757228	-0.008454	0.000183	0.005606	-85.522763	4.118794	-35.705626
01660		-0.716458	-9.779195	0.779663	-0.009159	0.000728	0.002643	-85.523875	4.119446	-35.707355
01661		-0.706381	-9.768904	0.747486	-0.009159	0.000729	0.002643	-85.524954	4.120059	-35.708971
01662		-0.728188	-9.771738	0.757623	-0.008153	0.000858	0.000995	-85.525500	4.119776	-35.710848
01663		-0.715935	-9.756322	0.784960	-0.010870	0.001145	0.001327	-85.527684	4.119669	-35.713087
01664		-0.684238	-9.784232	0.785145	-0.012057	0.000073	0.000955	-85.530434	4.119327	-35.714517
01665		-0.728566	-9.771935	0.754713	-0.005572	-0.003475	0.002179	-85.529310	4.119506	-35.713091
01666		-0.705150	-9.764084	0.802430	-0.011875	0.001016	0.002973	-85.531989	4.120359	-35.714971
01667		-0.695170	-9.753777	0.770189	-0.008108	-0.002246	0.004528	-85.532385	4.121917	-35.715196
01668		-0.685288	-9.784433	0.781716	-0.007627	-0.000628	0.001937	-85.532566	4.122105	-35.716180
01669		-0.705914	-9.764243	0.799821	-0.010525	-0.001283	0.000249	-85.534386	4.121253	-35.717462
01670		-0.695610	-9.753951	0.767589	-0.009338	-0.000211	0.000621	-85.535568	4.120708	-35.718743
01671		-0.708180	-9.810472	0.781884	-0.010524	-0.001282	0.000249	-85.537422	4.119910	-35.717869
01672		-0.739981	-9.782717	0.779633	-0.009656	-0.005200	0.000116	-85.538582	4.118854	-35.716316
01673		-0.696655	-9.777191	0.757041	-0.003560	-0.003214	-0.001117	-85.536372	4.117151	-35.716171
01674		-0.716996	-9.757016	0.775307	-0.011891	-0.003295	-0.002144	-85.538899	4.114889	-35.715810
01675		-0.683882	-9.761898	0.783698	-0.006801	-0.001439	-0.001730	-85.538596	4.112908	-35.716736
01676		-0.662237	-9.759164	0.771989	-0.008605	-0.008176	0.002000	-85.539027	4.112795	-35.713395
01677		-0.716776	-9.757230	0.772821	-0.010179	-0.003710	-0.000829	-85.540502	4.111211	-35.713139
01678		-0.706676	-9.787933	0.784042	-0.011665	-0.005458	0.003406	-85.542793	4.112022	-35.711291
01679		-0.705748	-9.764975	0.790977	-0.011184	-0.003839	0.000816	-85.544809	4.111384	-35.710127
01680		-0.684041	-9.762258	0.779071	-0.007987	-0.002508	-0.002104	-85.545132	4.109179	-35.710214
01681		-0.718002	-9.780560	0.760888	-0.010659	-0.005327	0.001758	-85.546893	4.109033	-35.708320
01682		-0.683924	-9.762411	0.777250	-0.009173	-0.003578	-0.002478	-85.547852	4.106568	-35.707812
01683		-0.683688	-9.762518	0.776111	-0.014606	-0.003002	-0.001817	-85.551932	4.104468	-35.707646
01684		-0.705853	-9.747435	0.734300	-0.012251	-0.005170	-0.006188	-85.554602	4.099813	-35.706391
01685		-0.715720	-9.757959	0.764545	-0.009172	-0.003577	-0.002479	-85.555513	4.097315	-35.705298
01686		-0.691819	-9.750246	0.812134	-0.011363	-0.004777	-0.001207	-85.557674	4.095522	-35.704045
01687		-0.705155	-9.788794	0.774608	-0.013418	-0.001929	-0.001446	-85.561140	4.093703	-35.703756
01688		-0.682223	-9.763075	0.770380	-0.013074	-0.004358	-0.002525	-85.564302	4.091177	-35.702803
01689		-0.702612	-9.742946	0.788478	-0.006618	-0.000494	0.000287	-85.563923	4.090409	-35.703293
01690		-0.714805	-9.758431	0.759357	-0.010222	-0.000596	-0.004365	-85.565611	4.086997	-35.704575
01691		-0.694097	-9.778732	0.739281	-0.011181	-0.003836	0.000810	-85.567671	4.086358	-35.703843
01692		-0.714664	-9.758604	0.757265	-0.011180	-0.003835	0.000809	-85.569759	4.085759	-35.703040
01693		-0.693123	-9.755860	0.745257	-0.009994	-0.002765	0.001183	-85.571194	4.085393	-35.702480
01694		-0.704572	-9.789388	0.767598	-0.007803	-0.001563	-0.000089	-85.571443	4.084381	-35.703018
01695		-0.681777	-9.763612	0.763930	-0.007459	-0.003992	-0.001168	-85.571446	4.082647	-35.701137
01696		-0.681695	-9.763675	0.763204	-0.007803	-0.001563	-0.000089	-85.571695	4.081636	-35.701676
01697		-0.694276	-9.779103	0.734185	-0.007232	-0.006162	0.004380	-85.571443	4.082976	-35.698057
01698		-0.682277	-9.763746	0.761777	-0.008101	-0.002244	0.004518	-85.571820	4.084566	-35.698001
01699		-0.704438	-9.766575	0.772172	-0.004678	-0.003083	0.007150	-85.570201	4.087618	-35.696124
01700		-0.695560	-9.779156	0.732264	-0.007803	-0.001562	-0.000090	-85.570450	4.086606	-35.696663
01701		-0.683275	-9.763825	0.759863	-0.007096	-0.002112	0.002872	-85.570264	4.087234	-35.696525
01702		-0.684547	-9.786867	0.751297	-0.003376	-0.002270	0.000896	-85.567945	4.086754	-35.696614
01703		-0.705302	-9.766689	0.769934	-0.006045	-0.005091	0.004753	-85.567047	4.088308	-35.695534
01704		-0.704465	-9.743685	0.777626	-0.002190	-0.001200	0.001271	-85.564090	4.088090	-35.696219
01705		-0.695541	-9.756231	0.738115	-0.002144	-0.004311	0.004798	-85.560972	4.089716	-35.694943
01706		-0.706099	-9.766696	0.769116	-0.003376	-0.002270	0.000896	-85.558652	4.089236	-35.695033
01707		-0.683468	-9.740891	0.765738	-0.006091	-0.001980	0.001225	-85.557899	4.088914	-35.695766
01708		-0.685955	-9.786937	0.749099	-0.004198	-0.001462	0.004562	-85.556072	4.090563	-35.696155
01709		-0.719288	-9.782107	0.739484	-0.003537	0.001097	0.003996	-85.553949	4.091948	-35.698850
01710		-0.684448	-9.740918	0.764515	-0.003719	0.000159	0.001975	-85.551922	4.092193	-35.700283
01711		-0.685793	-9.763940	0.756105	-0.003194	-0.001331	0.002916	-85.549542	4.092874	-35.700998
01712		-0.706526	-9.743748	0.774964	-0.001665	-0.002690	0.002211	-85.546221	4.093126	-35.700788
01713		-0.686263	-9.763942	0.755658	-0.003194	-0.001331	0.002916	-85.543798	4.093788	-35.701993
01714		-0.706994	-9.743758	0.774409	-0.003719	0.000159	0.001975	-85.541771	4.094032	-35.703425
01715		-0.687886	-9.786967	0.746942	-0.002669	-0.002821	0.003856	-85.539055	4.095177	-35.703868
01716		-0.698329	-9.756318	0.734316	-0.006959	0.001939	0.001365	-85.538960	4.095152	-35.706347
01717		-0.707707	-9.743811	0.773091	-0.004380	-0.002400	0.002540	-85.537169	4.095567	-35.706250
01718		-0.687363	-9.764021	0.753641	-0.003376	-0.002269	0.000894	-85.534850	4.095085	-35.706341
01719		-0.686476	-9.741026	0.761314	-0.005383	-0.002530	0.004185	-85.533673	4.096442	-35.706142
01720		-0.708589	-9.785014	0.815097	-0.007437	0.000319	0.003950	-85.533776	4.097822	-35.707578
01721		-0.710099	-9.766896	0.762871	-0.007916	-0.001302	0.006535	-85.534120	4.100588	-35.707697
01722		-0.709265	-9.743924	0.770226	-0.007141	0.001002	-0.000657	-85.534097	4.099367	-35.709731
01723		-0.689936	-9.787178	0.742264	-0.008805	-0.001687	0.001552	-85.534871	4.099262	-35.709493
01724		-0.690144	-9.787207	0.741687	-0.003193	-0.001330	0.002914	-85.532479	4.099976	-35.710030
01725		-0.689213	-9.764221	0.749338	-0.006090	-0.001977	0.001223	-85.531771	4.099666	-35.710603
01726		-0.689254	-9.764278	0.748561	-0.009855	0.001294	-0.000328	-85.533314	4.098645	-35.712788
01727		-0.699661	-9.774825	0.778998	-0.006433	0.000451	0.002303	-85.532895	4.099051	-35.715111
01728		-0.699702	-9.774884	0.778221	-0.009512	-0.001133	-0.001410	-85.534146	4.097304	-35.715955
01729		-0.699515	-9.774973	0.777269	-0.010037	0.000358	-0.002350	-85.535787	4.095054	-35.717962
01730		-0.711898	-9.790374	0.748018	-0.008804	-0.001686	0.001550	-85.536600	4.094974	-35.718357
01731		-0.688168	-9.741591	0.752508	-0.006090	-0.001977	0.001221	-85.535853	4.094643	-35.719430
01732		-0.720036	-9.754997	0.793833	-0.012751	0.000650	-0.002022	-85.539033	4.092627	-35.721323
01733		-0.698377	-9.752264	0.781727	-0.009990	-0.002753	0.001173	-85.540411	4.092244	-35.720786
01734		-0.698412	-9.752338	0.780764	-0.009854	0.001296	-0.000330	-85.541953	4.091222	-35.722973
01735		-0.688183	-9.783110	0.791852	-0.011039	0.000229	-0.000707	-85.544140	4.089897	-35.725045
01736		-0.698119	-9.752524	0.778705	-0.010218	-0.000576	-0.004374	-85.545827	4.086482	-35.726340
01737		-0.677301	-9.772791	0.758595	-0.010035	0.000361	-0.002352	-85.547482	4.084249	-35.727693
01738		-0.687541	-9.783382	0.789040	-0.006089	-0.001976	0.001219	-85.546728	4.083966	-35.727937
01739		-0.698827	-9.775750	0.768065	-0.009510	-0.001129	-0.001414	-85.547978	4.082181	-35.728943
01740		-0.697680	-9.752831	0.775250	-0.009988	-0.002752	0.001169	-85.549426	4.081836	-35.728745
01741		-0.720381	-9.778738	0.777190	-0.009510	-0.001129	-0.001415	-85.550695	4.080087	-35.728321
01742		-0.699729	-9.798968	0.757268	-0.006796	-0.001420	-0.001743	-85.550378	4.078137	-35.729015
01743		-0.697183	-9.753068	0.772704	-0.010217	-0.000573	-0.004376	-85.552052	4.074709	-35.729324
01744		-0.709243	-9.768456	0.743444	-0.008506	-0.000996	-0.003060	-85.552737	4.072025	-35.730319
01745		-0.685335	-9.760960	0.791041	-0.011698	-0.002327	-0.000149	-85.555194	4.070918	-35.730351
01746		-0.718020	-9.756200	0.780769	-0.010216	-0.000571	-0.004377	-85.556879	4.067501	-35.731648
01747		-0.718980	-9.779305	0.771333	-0.016599	-0.003234	0.001444	-85.562026	4.067250	-35.731021
01748		-0.665494	-9.804429	0.759938	-0.013272	0.002149	-0.002967	-85.565568	4.064759	-35.733812
01749		-0.695966	-9.753700	0.765792	-0.011561	0.001725	-0.001651	-85.568118	4.062953	-35.737183
01750		-0.697158	-9.776771	0.756490	-0.011857	0.001036	0.002954	-85.570786	4.063795	-35.739075
01751		-0.684969	-9.761562	0.783902	-0.007615	-0.000615	0.001920	-85.570902	4.063961	-35.738736
01752		-0.684970	-9.761617	0.783206	-0.006794	-0.001417	-0.001747	-85.570584	4.062009	-35.739431
01753		-0.717559	-9.756834	0.773230	-0.009347	-0.004485	-0.004527	-85.571644	4.058286	-35.739538
01754		-0.694569	-9.731078	0.769594	-0.007137	0.001010	-0.000662	-85.571617	4.057060	-35.741575
01755		-0.673933	-9.751287	0.749514	-0.011877	-0.003258	-0.002178	-85.574136	4.054736	-35.741887
01756		-0.696441	-9.777225	0.751272	-0.010692	-0.002190	-0.001799	-85.576020	4.052720	-35.742142
01757		-0.683716	-9.762082	0.778498	-0.012927	-0.000273	-0.004055	-85.579363	4.049519	-35.742248
01758		-0.684495	-9.785179	0.769154	-0.011216	-0.000697	-0.002739	-85.581611	4.047032	-35.743399
01759		-0.673971	-9.774690	0.736775	-0.012744	0.000662	-0.002033	-85.584786	4.044996	-35.744498
01760		-0.694285	-9.754695	0.754567	-0.015457	0.000956	-0.001707	-85.589527	4.043171	-35.746550
01761		-0.681857	-9.739582	0.781337	-0.017462	0.000690	0.001579	-85.595359	4.043187	-35.747755
01762		-0.684062	-9.785676	0.763200	-0.018693	0.002743	-0.002321	-85.602028	4.041090	-35.750857
01763		-0.716872	-9.780959	0.752079	-0.020355	0.000052	-0.000121	-85.609530	4.040098	-35.752430
01764		-0.672564	-9.752371	0.736523	-0.015272	0.001893	0.000312	-85.614196	4.039467	-35.754929
01765		-0.684055	-9.786076	0.758053	-0.014747	0.000401	0.001249	-85.618516	4.039298	-35.755672
01766		-0.694357	-9.755459	0.744554	-0.015931	-0.000665	0.000867	-85.623455	4.038872	-35.756682
01767		-0.684403	-9.786281	0.755089	-0.014039	-0.000159	0.004208	-85.627465	4.040369	-35.758110
01768		-0.695886	-9.778601	0.733668	-0.011031	0.000243	-0.000722	-85.629638	4.039073	-35.759709
01769		-0.706334	-9.789317	0.763766	-0.011326	-0.000451	0.003881	-85.631917	4.040382	-35.759069
01770		-0.695278	-9.797142	0.782981	-0.008796	-0.001677	0.001532	-85.632725	4.040291	-35.759469
01771		-0.672852	-9.771351	0.779248	-0.010801	-0.001944	0.004817	-85.634658	4.042024	-35.760045
01772		-0.717214	-9.758771	0.748717	-0.012739	0.000673	-0.002042	-85.637832	4.039994	-35.761948
01773		-0.696571	-9.778955	0.728287	-0.012214	-0.000820	-0.001106	-85.640688	4.038419	-35.762715
