// General information: 
//  MT Manager version: 2022.2.0 
//  XDA version: 2022.2.0 build 7381 rev 124627 built on 2023-07-19
// Device information: 
//  DeviceId: 00B4BAF3
//  ProductCode: MTW2-3A7G6
//  Firmware Version: 4.6.0
//  Hardware Version: 2.0.0
// Device settings: 
//  Filter Profile: human(46.1)
//  Option Flags: Orientation Smoother Disabled, Position/Velocity Smoother Disabled, Continuous Zero Rotation Update Disabled, AHS Disabled, ICC Disabled
// Coordinate system: ENU
PacketCounter	SampleTimeFine	Acc_X	Acc_Y	Acc_Z	Gyr_X	Gyr_Y	Gyr_Z	Roll	Pitch	Yaw
00532		9.689977	-1.272017	-0.118672	0.027635	-0.005156	0.020282	-93.623958	-83.024582	-49.399847
00533		9.652166	-1.158252	-0.092957	0.029468	-0.002654	0.022515	-93.637112	-83.011222	-49.369577
00534		9.633906	-1.059715	-0.109148	0.026557	0.000289	0.021260	-93.638038	-82.998404	-49.353256
00535		9.630867	-1.007811	-0.101435	0.011395	0.000235	0.021880	-93.648251	-82.985504	-49.336377
00536		9.627192	-1.032929	-0.094528	-0.012687	0.002515	0.018074	-93.662180	-82.974589	-49.329609
00537		9.660761	-1.105119	-0.053231	-0.016003	0.006227	0.024115	-93.659535	-82.960642	-49.341473
00538		9.659829	-1.184297	-0.053738	-0.024863	0.003119	0.017112	-93.677891	-82.950298	-49.337274
00539		9.681874	-1.255283	-0.103452	-0.033570	0.002220	0.019946	-93.705000	-82.938591	-49.329278
00540		9.633883	-1.279955	-0.117670	-0.014759	-0.001770	0.024053	-93.737935	-82.924097	-49.304555
00541		9.672437	-1.243731	-0.141958	-0.005672	0.003100	0.022827	-93.744060	-82.910767	-49.301619
00542		9.651935	-1.307623	-0.100678	-0.010355	-0.001892	0.016766	-93.777063	-82.900432	-49.274282
00543		9.687071	-1.293990	-0.118346	0.000367	-0.001029	0.017100	-93.800340	-82.890213	-49.250600
00544		9.690349	-1.272551	-0.125080	0.012096	-0.000183	0.019018	-93.811817	-82.878653	-49.231992
00545		9.709521	-1.220716	-0.106616	0.009398	0.009276	0.018445	-93.782306	-82.868050	-49.256281
00546		9.680203	-1.268166	-0.102666	0.014873	0.003702	0.010177	-93.777107	-82.861692	-49.252875
00547		9.680995	-1.260737	-0.160972	0.014337	0.011299	0.007375	-93.738926	-82.857487	-49.282940
00548		9.642027	-1.299830	-0.135536	0.012055	0.010256	0.006098	-93.706701	-82.853706	-49.308397
00549		9.665874	-1.362862	-0.072286	0.018480	0.010103	0.001985	-93.673345	-82.852529	-49.331385
00550		9.654404	-1.362139	-0.161699	0.036542	0.007183	0.002616	-93.642165	-82.850623	-49.341650
00551		9.686144	-1.301549	-0.111156	0.045540	0.008437	0.004210	-93.600274	-82.848096	-49.357522
00552		9.683445	-1.247748	-0.102204	0.047784	0.010168	-0.000853	-93.550064	-82.848278	-49.380474
00553		9.689596	-1.209569	-0.054687	0.047985	0.016669	-0.000192	-93.470554	-82.848553	-49.432981
00554		9.683386	-1.178710	-0.038578	0.037887	0.011820	-0.000548	-93.418399	-82.848611	-49.463610
00555		9.667539	-1.209067	-0.061680	0.030603	0.010154	-0.003416	-93.379327	-82.850495	-49.485213
00556		9.633190	-1.215490	-0.102169	0.019858	0.009994	-0.010076	-93.348362	-82.855936	-49.504897
00557		9.654588	-1.292054	-0.091278	0.010594	0.007669	-0.009776	-93.333796	-82.861362	-49.513329
00558		9.643380	-1.290187	-0.181000	0.014293	0.007924	-0.014209	-93.316516	-82.869097	-49.522433
00559		9.623269	-1.350424	-0.138427	0.016540	0.009653	-0.019270	-93.292009	-82.880024	-49.537790
00560		9.686357	-1.372290	-0.099016	0.024319	0.014137	-0.026535	-93.243635	-82.895011	-49.572440
00561		9.664663	-1.369316	-0.107669	0.038904	0.012706	-0.029710	-93.194709	-82.911984	-49.599063
00562		9.649024	-1.327955	-0.070578	0.043718	0.015849	-0.029072	-93.127597	-82.928469	-49.641392
00563		9.693620	-1.325578	-0.047322	0.045892	0.023005	-0.031590	-93.027154	-82.946822	-49.716136
00564		9.691280	-1.268252	-0.037264	0.040145	0.023448	-0.036673	-92.928072	-82.967865	-49.792736
00565		9.705044	-1.249281	-0.062414	0.038867	0.022383	-0.036372	-92.834709	-82.988895	-49.864349
00566		9.739870	-1.238468	-0.018086	0.038036	0.019856	-0.037025	-92.752648	-83.010009	-49.925013
00567		9.712921	-1.195994	-0.071353	0.045928	0.017525	-0.034189	-92.676530	-83.029625	-49.975126
00568		9.668735	-1.122936	-0.030497	0.043646	0.016470	-0.035473	-92.605981	-83.049741	-50.020948
00569		9.691783	-1.042395	-0.017788	0.037191	0.017304	-0.037702	-92.535950	-83.071345	-50.069944
00570		9.717714	-1.015704	-0.012394	0.026932	0.014977	-0.038985	-92.482079	-83.093421	-50.108608
00571		9.766753	-0.981362	-0.055991	0.020773	0.016207	-0.036770	-92.425774	-83.114464	-50.153325
00572		9.753820	-0.993348	-0.025933	0.004923	0.025604	-0.033590	-92.332352	-83.133694	-50.244525
00573		9.754148	-0.990180	-0.023549	-0.000601	0.022846	-0.031379	-92.254849	-83.151803	-50.322868
00574		9.713315	-1.041065	-0.049798	-0.016449	0.014180	-0.027591	-92.226211	-83.167316	-50.361146
00575		9.693859	-1.023032	-0.006902	-0.025960	0.010783	-0.025382	-92.219306	-83.181717	-50.383052
00576		9.650685	-1.089824	-0.086396	-0.027125	0.012645	-0.021576	-92.202806	-83.193750	-50.415264
00577		9.654326	-1.064723	-0.092433	-0.026386	0.011574	-0.018091	-92.190873	-83.203994	-50.442418
00578		9.631337	-1.070897	-0.042696	-0.027550	0.013434	-0.014284	-92.169334	-83.211868	-50.479948
00579		9.600643	-1.053969	-0.090574	-0.025355	0.010895	-0.010164	-92.158518	-83.217564	-50.505428
00580		9.633004	-0.984021	-0.099740	-0.021422	0.016311	-0.001264	-92.117176	-83.218041	-50.559364
00581		9.638719	-0.945489	-0.052614	-0.011359	0.021167	-0.000928	-92.047253	-83.218661	-50.636315
00582		9.642099	-0.922740	-0.057818	-0.014392	0.016264	0.009850	-92.000229	-83.212760	-50.691917
00583		9.683041	-0.870150	-0.028425	-0.013464	0.012670	0.014286	-91.969917	-83.204498	-50.730196
00584		9.708351	-0.849009	-0.023632	-0.024490	0.015505	0.024744	-91.930101	-83.190045	-50.784367
00585		9.689109	-0.905549	-0.039947	-0.038532	0.018355	0.030430	-91.884573	-83.172659	-50.852413
00586		9.710467	-0.985954	-0.028777	-0.060027	0.013015	0.032583	-91.876198	-83.153662	-50.895429
00587		9.707422	-1.081808	-0.081151	-0.061096	0.008746	0.040168	-91.888310	-83.130524	-50.918478
00588		9.662431	-1.162458	-0.102079	-0.039877	0.012997	0.039900	-91.867620	-83.107337	-50.962273
00589		9.717682	-1.236723	-0.049485	-0.026798	0.008790	0.045307	-91.859322	-83.081254	-50.986029
00590		9.739139	-1.241589	-0.038159	-0.013719	0.013603	0.050423	-91.819659	-83.052049	-51.033844
00591		9.690261	-1.200238	0.008821	-0.001194	0.016964	0.052996	-91.757683	-83.021705	-51.096922
00592		9.696652	-1.158860	-0.003327	0.001420	0.013632	0.049814	-91.710147	-82.992838	-51.143937
00593		9.642758	-1.078307	-0.001237	-0.007838	0.020315	0.049793	-91.637838	-82.964364	-51.221249
00594		9.604502	-1.113481	-0.034778	-0.026812	0.017107	0.051295	-91.591064	-82.934694	-51.283800
00595		9.556362	-1.140638	-0.047916	-0.032470	0.012121	0.043644	-91.572386	-82.909604	-51.321248
00596		9.605535	-1.253240	-0.040788	-0.048547	0.015684	0.039780	-91.546728	-82.886499	-51.375077
00597		9.619202	-1.380545	-0.016532	-0.054837	0.014687	0.032135	-91.530982	-82.868033	-51.422649
00598		9.668343	-1.492195	-0.009791	-0.052675	0.012813	0.029906	-91.522419	-82.850536	-51.461638
00599		9.644590	-1.502582	0.039565	-0.047153	0.016257	0.021379	-91.496670	-82.838239	-51.514901
00600		9.649289	-1.472617	-0.025524	-0.045726	0.016172	0.009342	-91.471482	-82.832566	-51.566635
00601		9.632924	-1.435168	0.010773	-0.042634	0.019714	0.011263	-91.428742	-82.826086	-51.634305
00602		9.685435	-1.381769	-0.039517	-0.037477	0.019203	0.001147	-91.386083	-82.825141	-51.698886
00603		9.673322	-1.389064	-0.069565	-0.037660	0.021724	0.000199	-91.332604	-82.824999	-51.774401
00604		9.642803	-1.372687	-0.117176	-0.045854	0.013950	-0.000521	-91.318836	-82.824928	-51.814700
00605		9.693222	-1.403880	-0.109519	-0.026966	0.014258	-0.005481	-91.293857	-82.827917	-51.855353
00606		9.737370	-1.403939	-0.086897	-0.002882	0.021684	-0.008154	-91.220988	-82.832310	-51.930402
00607		9.731754	-1.441159	-0.130161	0.026380	0.027204	-0.008269	-91.106652	-82.837026	-52.030437
00608		9.667426	-1.355596	-0.045960	0.055264	0.028754	-0.009993	-90.968143	-82.842510	-52.138064
00609		9.732308	-1.293347	-0.062114	0.069792	0.032760	-0.010539	-90.803394	-82.848506	-52.263803
00610		9.736897	-1.191840	-0.063700	0.077864	0.037607	-0.013348	-90.611240	-82.855898	-52.412442
00611		9.738568	-1.182473	-0.118418	0.069130	0.036700	-0.010578	-90.428302	-82.861838	-52.556893
00612		9.658340	-1.273687	-0.118293	0.076841	0.045199	-0.002618	-90.201113	-82.862979	-52.741428
00613		9.615706	-1.334874	-0.082145	0.088531	0.046700	-0.007013	-89.960885	-82.866735	-52.932349
00614		9.613843	-1.349219	-0.128821	0.109832	0.045460	-0.009785	-89.713259	-82.871791	-53.118428
00615		9.609609	-1.302482	-0.056193	0.128033	0.048976	-0.008473	-89.439467	-82.876156	-53.320348
00616		9.618915	-1.240101	-0.011283	0.136062	0.044753	-0.011033	-89.179370	-82.881718	-53.503846
00617		9.616232	-1.184993	0.001803	0.136015	0.044689	-0.011107	-88.919904	-82.887398	-53.686794
00618		9.695883	-1.169311	0.011752	0.119563	0.043579	-0.010300	-88.674043	-82.892351	-53.865466
00619		9.656807	-1.206457	0.041549	0.116628	0.046469	-0.011647	-88.416771	-82.898120	-54.057454
00620		9.670549	-1.190206	0.019431	0.113508	0.042213	-0.007265	-88.180492	-82.901165	-54.229963
00621		9.686140	-1.158541	0.049410	0.115472	0.042808	-0.010481	-87.940259	-82.906131	-54.405286
00622		9.665025	-1.080103	0.043817	0.122772	0.038981	-0.010172	-87.712626	-82.910735	-54.563730
00623		9.596387	-1.016369	0.134701	0.111152	0.032043	-0.008330	-87.524335	-82.914564	-54.689293
00624		9.616544	-1.023030	0.208448	0.086150	0.024733	-0.007146	-87.383521	-82.917672	-54.781392
00625		9.623771	-0.976043	0.197139	0.059717	0.018914	-0.006585	-87.285192	-82.920784	-54.845884
00626		9.686004	-0.998898	0.238415	0.038267	0.013722	-0.004411	-87.223009	-82.922589	-54.886392
00627		9.741857	-0.999116	0.181288	0.012220	0.012536	-0.008611	-87.180729	-82.927029	-54.921978
00628		9.698047	-0.998038	0.161167	-0.018183	0.015117	-0.008415	-87.143472	-82.931078	-54.969960
00629		9.690915	-1.043384	0.176544	-0.034287	0.015153	-0.009425	-87.115383	-82.935913	-55.018012
00630		9.619880	-1.080951	0.100032	-0.047042	0.010785	-0.010080	-87.114193	-82.941035	-55.046312
00631		9.609183	-1.149395	0.121515	-0.046683	0.005754	-0.008149	-87.136838	-82.945418	-55.050427
00632		9.640659	-1.233771	0.111503	-0.047393	-0.002189	-0.011274	-87.195594	-82.951593	-55.018528
00633		9.704862	-1.248958	0.090747	-0.040167	-0.000542	-0.008409	-87.243617	-82.956298	-54.993277
00634		9.718681	-1.232847	0.062556	-0.037363	0.002593	-0.010959	-87.274666	-82.962156	-54.983503
00635		9.734259	-1.200631	0.086914	-0.036085	0.004281	-0.017626	-87.296022	-82.971998	-54.982751
00636		9.700690	-1.206804	0.044509	-0.039628	0.001543	-0.012243	-87.333036	-82.978618	-54.968277
00637		9.678897	-1.205565	0.033645	-0.039281	0.005505	-0.010686	-87.352117	-82.984453	-54.971713
00638		9.649956	-1.250506	0.036467	-0.042520	-0.004525	-0.013186	-87.418921	-82.991770	-54.928894
00639		9.659624	-1.334361	0.015070	-0.032298	-0.002240	-0.011884	-87.469914	-82.998487	-54.896160
00640		9.688273	-1.364222	0.011440	-0.018167	-0.002239	-0.014033	-87.512126	-83.006222	-54.864061
00641		9.634455	-1.354952	0.010560	-0.001972	0.000666	-0.009526	-87.532790	-83.011500	-54.844287
00642		9.655498	-1.291793	-0.031281	0.004862	-0.003249	-0.024373	-87.564596	-83.025174	-54.809379
00643		9.642664	-1.227710	-0.003915	0.012280	-0.004103	-0.020527	-87.597406	-83.036852	-54.769176
00644		9.604363	-1.186269	0.019852	0.004686	-0.000090	-0.031690	-87.613301	-83.054634	-54.750401
00645		9.665302	-1.222271	0.006782	-0.005192	0.001577	-0.031436	-87.627541	-83.072418	-54.739044
00646		9.636678	-1.265364	0.010246	-0.009822	0.004917	-0.031482	-87.628320	-83.089963	-54.743870
00647		9.707830	-1.308900	-0.023351	-0.015522	0.005346	-0.036595	-87.629730	-83.110602	-54.751311
00648		9.720157	-1.297233	0.008550	-0.002649	0.004961	-0.044780	-87.623541	-83.135757	-54.759015
00649		9.735622	-1.339373	0.033930	0.012548	0.007887	-0.041866	-87.595656	-83.159345	-54.779860
00650		9.699415	-1.288225	-0.000950	0.017033	-0.000645	-0.055135	-87.602771	-83.190563	-54.762808
00651		9.687830	-1.359615	0.079800	0.025343	0.005223	-0.059898	-87.576441	-83.224531	-54.774686
00652		9.651438	-1.384820	0.045088	0.038038	-0.002935	-0.055992	-87.582477	-83.256295	-54.746604
00653		9.608182	-1.370841	0.135328	0.058706	-0.008542	-0.064768	-87.602763	-83.293361	-54.692180
00654		9.602395	-1.333393	0.148797	0.057813	-0.013998	-0.068897	-87.649402	-83.332773	-54.611813
00655		9.677653	-1.264288	0.218319	0.048501	-0.018632	-0.078473	-87.723550	-83.377896	-54.509149
00656		9.792042	-1.164091	0.151898	0.025554	-0.012852	-0.083724	-87.781958	-83.425750	-54.435555
00657		9.735862	-1.179036	0.045956	-0.011712	-0.003982	-0.094140	-87.816696	-83.479497	-54.407275
00658		9.733933	-1.278179	-0.059054	-0.037333	-0.006813	-0.099354	-87.879699	-83.536155	-54.365337
00659		9.757386	-1.344943	-0.049479	-0.041488	-0.012724	-0.112743	-87.974106	-83.600721	-54.294278
00660		9.738987	-1.403582	-0.120922	-0.022956	-0.013522	-0.115892	-88.062712	-83.666968	-54.218299
00661		9.794679	-1.399666	-0.121537	0.023628	-0.012283	-0.117975	-88.119935	-83.734470	-54.147052
00662		9.832811	-1.279644	-0.086788	0.061710	-0.001873	-0.119528	-88.100926	-83.802566	-54.130550
00663		9.876598	-1.036036	-0.065363	0.088578	0.005551	-0.117626	-88.027722	-83.869519	-54.153105
00664		9.941738	-0.792359	-0.032741	0.097341	0.012239	-0.113574	-87.912595	-83.933923	-54.212739
00665		9.909037	-0.619289	-0.021174	0.082419	0.025046	-0.111882	-87.735389	-83.997161	-54.343374
00666		9.793893	-0.494425	-0.117779	0.042403	0.032878	-0.109904	-87.534761	-84.058938	-54.520610
00667		9.599396	-0.548059	-0.157713	0.016033	0.042261	-0.109162	-87.293998	-84.120101	-54.753301
00668		9.483385	-0.670837	-0.133291	-0.008725	0.040010	-0.094584	-87.078753	-84.172764	-54.974642
00669		9.472700	-0.832096	-0.100685	-0.004795	0.036507	-0.085311	-86.880743	-84.220292	-55.176447
00670		9.540210	-0.900741	-0.064433	0.045941	0.031361	-0.070722	-86.683558	-84.259422	-55.348119
00671		9.623727	-0.830108	0.100187	0.070983	0.032238	-0.061716	-86.468441	-84.293460	-55.523425
00672		9.685701	-0.676150	0.194137	0.077946	0.032342	-0.050537	-86.249731	-84.320885	-55.698280
00673		9.648206	-0.440155	0.264562	0.061369	0.028933	-0.034924	-86.065261	-84.339617	-55.848282
00674		9.601973	-0.284065	0.244420	0.030014	0.029395	-0.017147	-85.901608	-84.347962	-55.995397
00675		9.572705	-0.252744	0.250165	-0.031492	0.033132	-0.001107	-85.758664	-84.347140	-56.157124
00676		9.631037	-0.314506	0.247602	-0.081447	0.031327	0.016289	-85.661853	-84.336229	-56.301246
00677		9.672903	-0.509459	0.228297	-0.122731	0.033908	0.027869	-85.579953	-84.318799	-56.454171
00678		9.639393	-0.707384	0.085034	-0.149303	0.029659	0.033778	-85.540494	-84.297934	-56.579736
00679		9.635316	-0.911615	0.101333	-0.134151	0.017224	0.036454	-85.565435	-84.276340	-56.631871
00680		9.671463	-1.069449	0.032637	-0.099730	0.000188	0.036118	-85.666986	-84.255442	-56.587180
00681		9.710622	-1.111083	0.007744	-0.062694	-0.008231	0.035760	-85.794730	-84.235344	-56.494852
00682		9.722826	-1.091490	0.090133	-0.023804	-0.011772	0.047542	-85.923774	-84.208393	-56.378800
00683		9.761943	-1.041436	0.117039	-0.001307	-0.015313	0.047392	-86.059054	-84.181880	-56.243523
00684		9.812628	-0.983624	0.175823	0.026782	-0.010228	0.052006	-86.149956	-84.152267	-56.136666
00685		9.790463	-0.896264	0.216147	0.027984	-0.012726	0.054574	-86.254362	-84.121498	-56.015560
00686		9.783497	-0.879145	0.117469	0.021859	-0.008600	0.060237	-86.339915	-84.087082	-55.916905
00687		9.758816	-0.985536	0.113201	0.010653	-0.011016	0.057298	-86.443384	-84.054656	-55.806670
00688		9.714224	-1.153345	0.150849	0.001065	-0.004854	0.052710	-86.515675	-84.024382	-55.733315
00689		9.638766	-1.398661	0.087611	0.018159	-0.004107	0.048970	-86.572470	-83.996445	-55.665692
00690		9.631246	-1.542321	0.049648	0.038911	-0.006683	0.043680	-86.628802	-83.971381	-55.586573
00691		9.624275	-1.592237	0.063887	0.077485	-0.008948	0.031782	-86.671327	-83.953398	-55.499132
00692		9.575477	-1.463855	0.048722	0.109030	-0.015480	0.017940	-86.726067	-83.943334	-55.381208
00693		9.543568	-1.194349	0.160896	0.096649	-0.027327	0.009327	-86.849190	-83.938733	-55.201686
00694		9.603382	-1.078363	0.144952	0.063318	-0.033455	-0.001325	-87.020862	-83.940191	-54.992508
00695		9.603471	-1.077910	0.142383	0.041040	-0.031747	-0.006553	-87.195087	-83.944689	-54.793581
00696		9.631320	-1.123241	0.084268	0.041319	-0.042047	-0.017951	-87.421996	-83.955749	-54.541537
00697		9.724859	-0.996834	0.109006	0.041422	-0.035576	-0.017386	-87.615076	-83.966388	-54.323483
00698		9.753406	-0.947938	0.102330	0.019603	-0.034734	-0.029918	-87.813951	-83.983943	-54.112151
00699		9.812776	-0.922059	0.033193	0.005706	-0.037318	-0.026752	-88.036898	-83.999822	-53.884657
00700		9.786546	-0.958892	-0.025684	-0.008707	-0.025910	-0.025949	-88.206888	-84.014781	-53.718692
00701		9.693574	-1.081128	-0.056154	-0.008710	-0.025915	-0.025954	-88.377964	-84.029859	-53.551600
00702		9.662470	-1.148365	-0.047855	0.008635	-0.024756	-0.025287	-88.533452	-84.044320	-53.390234
00703		9.647955	-1.177033	-0.074303	0.025705	-0.024042	-0.029088	-88.675809	-84.061064	-53.232220
00704		9.692149	-1.173556	-0.054490	0.043622	-0.017864	-0.028795	-88.774344	-84.077367	-53.107969
00705		9.745743	-1.100408	-0.056067	0.045735	-0.022706	-0.034505	-88.898840	-84.097122	-52.956386
00706		9.724163	-1.097542	-0.068047	0.052055	-0.014506	-0.032671	-88.974877	-84.115563	-52.849904
00707		9.774603	-1.047343	-0.061405	0.053194	-0.004476	-0.033419	-88.995234	-84.134463	-52.798698
00708		9.729452	-1.051565	-0.023360	0.050909	-0.004978	-0.041097	-89.018814	-84.157622	-52.745614
00709		9.678838	-1.017377	-0.031626	0.034710	-0.011595	-0.042657	-89.089555	-84.181871	-52.654490
00710		9.775858	-1.035514	-0.062271	0.034022	-0.007636	-0.042710	-89.138509	-84.205967	-52.585632
00711		9.741021	-1.047199	-0.044896	0.039868	0.002041	-0.039942	-89.130468	-84.228531	-52.570741
00712		9.736951	-1.082769	-0.088888	0.045143	0.006696	-0.036805	-89.092717	-84.249118	-52.582629
00713		9.674884	-0.963968	-0.075568	0.050954	0.016943	-0.040445	-88.993147	-84.271820	-52.653300
00714		9.710545	-0.944303	-0.090502	0.039397	0.022482	-0.041804	-88.867072	-84.295099	-52.757262
00715		9.708234	-0.972689	-0.191803	0.046884	0.028779	-0.043809	-88.699871	-84.319554	-52.898301
00716		9.726288	-1.007386	-0.222180	0.063292	0.036404	-0.044237	-88.477133	-84.343967	-53.085633
00717		9.668018	-0.932614	-0.101189	0.079068	0.036038	-0.047779	-88.245778	-84.370470	-53.272507
00718		9.641872	-0.958267	-0.041196	0.084886	0.030780	-0.051588	-88.038338	-84.399052	-53.432019
00719		9.610066	-0.852352	0.022899	0.069486	0.026654	-0.052527	-87.862646	-84.428331	-53.568463
00720		9.674863	-0.768525	0.056542	0.053127	0.021959	-0.048644	-87.722536	-84.455327	-53.678594
00721		9.733582	-0.731165	0.104618	0.034146	0.024154	-0.044527	-87.580863	-84.480026	-53.801211
00722		9.723527	-0.718943	0.127641	0.012622	0.021281	-0.043211	-87.467065	-84.503878	-53.908214
00723		9.760501	-0.776280	0.114144	-0.010535	0.025316	-0.040072	-87.343109	-84.525954	-54.038779
00724		9.756672	-0.811764	0.072010	-0.019904	0.028948	-0.043657	-87.199933	-84.549807	-54.194007
00725		9.748806	-0.886768	-0.014803	-0.013260	0.025693	-0.040416	-87.072934	-84.572018	-54.329199
00726		9.766963	-0.922115	-0.046380	0.000336	0.023190	-0.032374	-86.954080	-84.589520	-54.448335
00727		9.717589	-0.966693	-0.050940	0.032434	0.019973	-0.027513	-86.837867	-84.604473	-54.546366
00728		9.647097	-0.818632	-0.024696	0.064278	0.015733	-0.020719	-86.730172	-84.615503	-54.617488
00729		9.637410	-0.698665	0.100121	0.071616	0.008513	-0.017421	-86.663720	-84.625030	-54.642965
00730		9.648416	-0.595236	0.183068	0.055356	0.006260	-0.003624	-86.624331	-84.626583	-54.650614
00731		9.652446	-0.555130	0.227892	0.016952	-0.005774	-0.004396	-86.680579	-84.629148	-54.584323
00732		9.715993	-0.585778	0.155430	-0.014706	-0.011049	-0.004306	-86.786457	-84.631657	-54.486384
00733		9.786259	-0.637725	0.180768	-0.035166	-0.010920	0.002101	-86.906087	-84.630665	-54.386418
00734		9.773472	-0.747043	0.157227	-0.051650	-0.006627	0.005552	-87.009491	-84.627363	-54.312224
00735		9.737107	-0.780266	0.121327	-0.056583	-0.007865	0.010367	-87.125152	-84.621527	-54.228584
00736		9.720958	-0.736175	0.094735	-0.051831	-0.005230	0.017365	-87.223407	-84.611399	-54.159664
00737		9.704782	-0.692599	0.067801	-0.052182	-0.016259	0.021683	-87.390038	-84.599286	-54.022264
00738		9.704600	-0.695312	0.066026	-0.060977	-0.012225	0.033458	-87.539231	-84.580092	-53.907439
00739		9.702801	-0.621677	0.062720	-0.066466	-0.018494	0.038648	-87.730052	-84.558258	-53.753979
00740		9.731884	-0.656041	0.058026	-0.078785	-0.016063	0.043062	-87.912481	-84.533581	-53.616008
00741		9.699324	-0.653238	0.065830	-0.099036	-0.014969	0.047472	-88.099884	-84.506545	-53.484723
00742		9.717016	-0.790387	-0.021402	-0.105244	-0.017308	0.052568	-88.303571	-84.476360	-53.340614
00743		9.757417	-0.817714	0.005147	-0.111599	-0.010676	0.057224	-88.471118	-84.443595	-53.236417
00744		9.720475	-0.855317	-0.031898	-0.114131	-0.012833	0.057825	-88.650790	-84.410249	-53.121537
00745		9.640871	-0.878023	-0.038209	-0.112335	-0.007384	0.063468	-88.797177	-84.373814	-53.039076
00746		9.626935	-0.899709	-0.012066	-0.110627	-0.008424	0.068539	-88.947196	-84.334220	-52.951962
00747		9.648250	-0.905627	-0.003388	-0.114221	-0.013561	0.064039	-89.127215	-84.297473	-52.836794
00748		9.725467	-0.911334	-0.053486	-0.106294	-0.012871	0.070392	-89.296801	-84.256802	-52.727508
00749		9.741930	-0.947987	0.021623	-0.104572	-0.009794	0.066158	-89.446298	-84.218754	-52.637362
00750		9.754677	-0.939049	-0.008467	-0.103705	-0.016310	0.067116	-89.629898	-84.179915	-52.512484
00751		9.743721	-0.938212	0.009825	-0.105657	-0.014049	0.073741	-89.800684	-84.137485	-52.401743
00752		9.710801	-0.938252	0.017700	-0.106102	-0.009700	0.078118	-89.945054	-84.092260	-52.317664
00753		9.706419	-1.062148	-0.029392	-0.100210	-0.012611	0.084170	-90.100795	-84.043796	-52.218775
00754		9.675091	-1.055173	-0.080657	-0.086802	-0.008572	0.081925	-90.224357	-83.996350	-52.144486
00755		9.674967	-1.140323	-0.082056	-0.079812	-0.004369	0.083805	-90.320145	-83.948061	-52.093982
00756		9.684279	-1.155811	-0.104108	-0.069432	-0.003903	0.079671	-90.405969	-83.901896	-52.047622
00757		9.715522	-1.170939	-0.115147	-0.050812	-0.001685	0.080056	-90.468990	-83.855747	-52.013510
00758		9.667519	-1.202050	-0.130111	-0.036112	0.003429	0.077545	-90.495360	-83.810825	-52.007740
00759		9.632671	-1.209614	-0.060846	-0.024250	0.002460	0.074093	-90.520667	-83.768107	-51.996422
00760		9.633255	-1.201257	-0.008502	-0.021279	0.003093	0.072495	-90.540114	-83.726076	-51.989065
00761		9.632434	-1.207826	-0.008209	-0.011814	0.007132	0.063922	-90.534156	-83.689190	-52.001800
00762		9.655122	-1.198139	0.054852	-0.024700	-0.003203	0.056218	-90.588630	-83.656449	-51.961173
00763		9.681854	-1.249239	-0.001561	-0.046626	-0.005856	0.046513	-90.669971	-83.629453	-51.906237
00764		9.760616	-1.237693	0.001984	-0.037412	-0.002862	0.039866	-90.729948	-83.606072	-51.867398
00765		9.763745	-1.295220	-0.005843	-0.052301	-0.001280	0.032105	-90.791217	-83.587337	-51.835877
00766		9.680731	-1.336921	-0.003953	-0.042285	0.004232	0.026101	-90.818239	-83.571891	-51.833007
00767		9.658505	-1.339103	-0.015007	-0.039905	0.000503	0.018482	-90.863883	-83.560955	-51.809835
00768		9.626154	-1.333088	-0.005115	-0.030146	0.004970	0.014400	-90.880941	-83.552219	-51.809993
00769		9.636009	-1.264581	-0.025734	-0.016868	-0.000355	0.008147	-90.918497	-83.547182	-51.781963
00770		9.596922	-1.226868	-0.002096	-0.007305	-0.005928	0.006323	-90.978226	-83.542969	-51.726007
00771		9.657579	-1.188654	-0.015798	-0.010029	-0.005528	0.005982	-91.037993	-83.539113	-51.671602
00772		9.654249	-1.211787	-0.009567	-0.002863	-0.005426	-0.007328	-91.093808	-83.542713	-51.617023
00773		9.662737	-1.226634	0.028132	0.008960	-0.009944	-0.007865	-91.166383	-83.546707	-51.538514
00774		9.694955	-1.233534	0.017217	0.023840	-0.010894	-0.006480	-91.234644	-83.549742	-51.456013
00775		9.691294	-1.101740	0.023685	0.032672	-0.016069	-0.005451	-91.324692	-83.552227	-51.346278
00776		9.670771	-1.008726	0.064433	0.027222	-0.015270	-0.006133	-91.413306	-83.554976	-51.241346
00777		9.694304	-0.923279	0.014572	0.015933	-0.021853	0.000166	-91.541570	-83.554138	-51.103077
00778		9.669019	-0.946750	0.008787	-0.007573	-0.018890	0.005087	-91.666948	-83.550354	-50.981211
00779		9.702816	-0.947122	-0.062326	-0.014674	-0.014770	0.009164	-91.775394	-83.544429	-50.880802
00780		9.711141	-0.963737	-0.025458	-0.019851	-0.013564	0.012943	-91.879245	-83.536190	-50.787675
00781		9.748382	-1.018531	-0.103672	-0.028360	-0.016333	0.010342	-92.002617	-83.529523	-50.679664
00782		9.741593	-1.065966	-0.091796	-0.026102	-0.015281	0.011624	-92.118443	-83.521962	-50.578088
00783		9.657183	-1.120933	-0.143714	-0.027440	-0.019255	0.008436	-92.256083	-83.516271	-50.455588
00784		9.711121	-1.129267	-0.145479	-0.030968	-0.021370	0.007456	-92.405709	-83.510900	-50.322798
00785		9.754918	-1.129905	-0.126212	-0.008047	-0.017446	0.006013	-92.523247	-83.506561	-50.209058
00786		9.754815	-1.130619	-0.127799	-0.009434	-0.013075	0.008860	-92.618120	-83.500537	-50.118954
00787		9.715774	-1.093177	-0.104720	0.000340	-0.009254	0.011148	-92.688013	-83.493450	-50.048160
00788		9.712219	-1.039818	-0.098367	-0.008842	-0.007393	0.002176	-92.755335	-83.491379	-49.985443
00789		9.749423	-1.086517	-0.064052	-0.029100	-0.002724	0.003625	-92.811149	-83.488757	-49.946099
00790		9.702138	-1.109978	-0.079215	-0.038539	-0.002580	0.002920	-92.871089	-83.486382	-49.907937
00791		9.690285	-1.117837	-0.111321	-0.035016	-0.000472	0.003892	-92.918643	-83.483646	-49.879364
00792		9.702186	-1.187817	-0.080623	-0.033755	0.000581	0.003578	-92.959777	-83.480980	-49.857371
00793		9.695348	-1.157313	-0.066706	-0.029967	0.003748	0.002646	-92.983927	-83.479088	-49.850643
00794		9.683521	-1.164979	-0.097972	-0.016474	0.007830	0.000514	-92.979644	-83.478389	-49.864396
00795		9.666568	-1.126740	-0.062177	-0.014871	0.012855	0.001797	-92.949607	-83.477265	-49.903354
00796		9.634470	-1.119181	-0.051033	-0.019398	0.010743	-0.000784	-92.932762	-83.477393	-49.931437
00797		9.656464	-1.118891	-0.039676	-0.020475	0.007834	-0.005883	-92.933137	-83.480481	-49.942615
00798		9.670042	-1.102508	-0.066522	-0.038953	0.015659	-0.008575	-92.904837	-83.485210	-49.993505
00799		9.668661	-1.193788	-0.118508	-0.042683	0.016055	-0.010521	-92.877668	-83.491203	-50.045048
00800		9.695961	-1.238464	-0.173192	-0.041623	0.019620	-0.011792	-92.831686	-83.497879	-50.115272
00801		9.670920	-1.259940	-0.175964	-0.025886	0.013530	-0.022168	-92.810298	-83.510443	-50.151112
00802		9.620639	-1.304408	-0.182733	-0.005464	0.014703	-0.016586	-92.769242	-83.519716	-50.195525
00803		9.663018	-1.240431	-0.211568	0.014679	0.016155	-0.021822	-92.711274	-83.532136	-50.245295
00804		9.686599	-1.146499	-0.145997	0.038488	0.012965	-0.015893	-92.653354	-83.540957	-50.281334
00805		9.691714	-1.106611	-0.098378	0.049717	0.015998	-0.019306	-92.575054	-83.551931	-50.331444
00806		9.722049	-1.043571	-0.046352	0.048853	0.021806	-0.013914	-92.465616	-83.559831	-50.413352
00807		9.701580	-0.949873	-0.001467	0.031229	0.023129	-0.015665	-92.360550	-83.568862	-50.501008
00808		9.755789	-0.955937	0.001669	0.010154	0.025251	-0.014895	-92.255501	-83.577368	-50.600810
00809		9.791394	-0.938669	-0.012566	-0.007666	0.029089	-0.017601	-92.142111	-83.587639	-50.719746
00810		9.783419	-0.998710	-0.048845	-0.013912	0.026708	-0.012564	-92.042419	-83.594799	-50.828028
00811		9.787161	-1.051423	-0.053577	-0.011390	0.028820	-0.013184	-91.931243	-83.602479	-50.946909
00812		9.722985	-1.035400	-0.030550	0.000577	0.030139	-0.006713	-91.804276	-83.606305	-51.074281
00813		9.719426	-0.980997	-0.020442	0.018130	0.025245	-0.002091	-91.692101	-83.607509	-51.176514
00814		9.651502	-0.912046	0.009501	0.017335	0.022072	0.003633	-91.595073	-83.605221	-51.264097
00815		9.661391	-0.842973	-0.008525	0.006432	0.022999	0.008622	-91.499703	-83.600223	-51.356445
00816		9.600313	-0.805670	0.006928	-0.007526	0.020358	0.011675	-91.424814	-83.593273	-51.436085
00817		9.617400	-0.845033	-0.025970	-0.024349	0.024192	0.010549	-91.341284	-83.587166	-51.534730
00818		9.646168	-0.876599	-0.027149	-0.048419	0.026305	0.006482	-91.260448	-83.583243	-51.643935
00819		9.654933	-1.047631	0.011923	-0.060394	0.023652	0.012718	-91.200084	-83.575883	-51.739606
00820		9.712711	-1.187568	0.006519	-0.059810	0.028659	0.012384	-91.113508	-83.568576	-51.861158
00821		9.706132	-1.312414	0.021616	-0.057962	0.034722	0.011744	-90.996169	-83.561840	-52.012882
00822		9.684360	-1.390435	0.012639	-0.059231	0.034317	0.005666	-90.881577	-83.558383	-52.162297
00823		9.650815	-1.398166	-0.027483	-0.054843	0.030614	0.001247	-90.784344	-83.557551	-52.291798
00824		9.698201	-1.452073	-0.011376	-0.037340	0.023491	-0.003962	-90.712925	-83.559474	-52.385144
00825		9.759329	-1.489535	-0.022743	-0.027823	0.027601	-0.012449	-90.616219	-83.566402	-52.498359
00826		9.776516	-1.449306	-0.053927	-0.016398	0.040016	-0.011682	-90.448935	-83.572796	-52.676099
00827		9.754891	-1.447714	-0.061013	-0.003480	0.039774	-0.019802	-90.276125	-83.583894	-52.852315
00828		9.711207	-1.368290	-0.077795	0.022139	0.040463	-0.024256	-90.083753	-83.597371	-53.033074
00829		9.721599	-1.296195	-0.093314	0.045284	0.041930	-0.024606	-89.870165	-83.611056	-53.220681
00830		9.711317	-1.208971	-0.066610	0.047662	0.050107	-0.029061	-89.611925	-83.627105	-53.452995
00831		9.721694	-1.136565	-0.081187	0.044183	0.050875	-0.026580	-89.351519	-83.641694	-53.689759
00832		9.639094	-1.095717	-0.073414	0.055615	0.051399	-0.028999	-89.079643	-83.657461	-53.931194
00833		9.616531	-1.107930	-0.131039	0.076012	0.053243	-0.029718	-88.785905	-83.673573	-54.182792
00834		9.578706	-1.051613	-0.048609	0.110987	0.050863	-0.036938	-88.481361	-83.693622	-54.425159
00835		9.622880	-0.878746	0.032294	0.117221	0.040007	-0.032414	-88.229346	-83.711165	-54.609760
00836		9.637892	-0.675623	0.115478	0.105054	0.042734	-0.023715	-87.969771	-83.723548	-54.810290
00837		9.645588	-0.611771	0.158783	0.063975	0.037947	-0.020425	-87.759182	-83.734213	-54.986356
00838		9.746238	-0.686160	0.126252	0.017055	0.038976	-0.019767	-87.568922	-83.744255	-55.167870
00839		9.778692	-0.861412	0.067426	-0.028291	0.045020	-0.017844	-87.373564	-83.753136	-55.381391
00840		9.789782	-0.944667	0.050300	-0.041260	0.042378	-0.013231	-87.199449	-83.759215	-55.580269
00841		9.769135	-1.098080	0.042275	-0.033838	0.041591	-0.009313	-87.026505	-83.763177	-55.774421
00842		9.676267	-1.128591	0.067981	-0.013012	0.039088	-0.014437	-86.852436	-83.769916	-55.956968
00843		9.657861	-1.104562	0.053619	0.004983	0.032140	-0.004266	-86.707595	-83.771146	-56.099522
00844		9.646817	-1.019654	0.077629	0.029917	0.023609	0.000918	-86.594323	-83.769520	-56.196166
00845		9.658334	-0.919657	0.164584	0.041765	0.019135	0.000471	-86.497882	-83.768426	-56.268629
00846		9.680325	-0.827199	0.230219	0.027502	0.012537	0.001900	-86.444381	-83.766596	-56.306540
00847		9.733581	-0.849826	0.180485	-0.007976	0.014087	0.000110	-86.403138	-83.765876	-56.352931
00848		9.776863	-0.942437	0.151317	-0.045598	0.023295	0.007475	-86.337141	-83.760461	-56.445545
00849		9.682779	-1.082252	0.069587	-0.052347	0.020111	0.003563	-86.290516	-83.757582	-56.522769
00850		9.613823	-1.198644	-0.008047	-0.048335	0.023668	0.007095	-86.224227	-83.752350	-56.617256
00851		9.577354	-1.230371	-0.042652	-0.019928	0.014348	0.009807	-86.191877	-83.746083	-56.662009
00852		9.591864	-1.200186	-0.016729	0.015970	0.005553	0.003715	-86.182263	-83.743461	-56.662418
00853		9.613813	-1.108111	0.047814	0.044443	-0.000216	0.003544	-86.186567	-83.741286	-56.631620
00854		9.686013	-0.969105	0.120699	0.038749	0.000159	-0.001651	-86.190156	-83.741937	-56.605617
00855		9.679090	-0.845320	0.187786	0.021649	0.000650	-0.010838	-86.198439	-83.747972	-56.585438
00856		9.729947	-0.874619	0.196211	-0.015027	0.004694	-0.015238	-86.204494	-83.756219	-56.587951
00857		9.721961	-0.949981	0.105054	-0.050783	0.005185	-0.015144	-86.228770	-83.764548	-56.592668
00858		9.724002	-1.087437	0.156424	-0.067684	0.003163	-0.023371	-86.270276	-83.777501	-56.589869
00859		9.687792	-1.208381	0.066843	-0.069465	0.000639	-0.025633	-86.325686	-83.791995	-56.574063
00860		9.696567	-1.390860	0.051026	-0.049107	-0.000399	-0.029788	-86.373363	-83.808747	-56.554350
00861		9.689683	-1.449419	0.011227	-0.020354	-0.005090	-0.031865	-86.428849	-83.826991	-56.509485
00862		9.714478	-1.438196	-0.037582	0.022066	-0.008812	-0.028624	-86.481069	-83.843373	-56.444187
00863		9.674698	-1.319787	-0.013795	0.040452	-0.009841	-0.035991	-86.526887	-83.864112	-56.375490
00864		9.642890	-1.216450	0.048253	0.040891	-0.014203	-0.040437	-86.593985	-83.887422	-56.284385
00865		9.672425	-1.150701	0.097361	0.047081	-0.015390	-0.042582	-86.664322	-83.912077	-56.186313
00866		9.686763	-1.130386	0.068869	0.035414	-0.015717	-0.051068	-86.740715	-83.941493	-56.089025
00867		9.665481	-1.033062	0.109704	0.038664	-0.014020	-0.054557	-86.806337	-83.972937	-56.000903
00868		9.644864	-0.920237	0.202606	0.021435	-0.020679	-0.057976	-86.917438	-84.006432	-55.876782
00869		9.598681	-0.937979	0.185316	0.009712	-0.024567	-0.063566	-87.056615	-84.043299	-55.730665
00870		9.616270	-0.892675	0.147985	-0.018289	-0.038657	-0.068051	-87.289964	-84.082997	-55.506536
00871		9.639469	-0.870772	0.207237	-0.042196	-0.042723	-0.068395	-87.563138	-84.122960	-55.255665
00872		9.750063	-0.885300	0.093305	-0.070572	-0.046033	-0.067857	-87.874374	-84.162492	-54.983385
00873		9.724253	-0.932250	-0.020691	-0.084672	-0.039171	-0.071656	-88.158591	-84.204011	-54.746135
00874		9.728409	-0.994456	-0.084623	-0.081860	-0.030219	-0.067229	-88.394470	-84.242638	-54.556135
00875		9.699487	-1.064640	-0.191056	-0.070011	-0.034666	-0.067720	-88.652087	-84.281679	-54.338370
00876		9.757848	-1.133875	-0.253431	-0.046090	-0.027670	-0.063910	-88.859045	-84.318213	-54.156865
00877		9.715652	-1.113210	-0.225392	0.004440	-0.019816	-0.062897	-88.994701	-84.354124	-54.018195
00878		9.745591	-1.137589	-0.229880	0.031358	-0.012112	-0.060628	-89.071268	-84.388539	-53.923146
00879		9.763581	-1.078001	-0.211858	0.072179	-0.005860	-0.052085	-89.090012	-84.418063	-53.861970
00880		9.746865	-1.020288	-0.123678	0.107556	0.004678	-0.047185	-89.026749	-84.444614	-53.863558
00881		9.715051	-0.901287	-0.006748	0.115743	0.007057	-0.049058	-88.945106	-84.472291	-53.879063
00882		9.743212	-0.672735	-0.013409	0.111547	0.010495	-0.033815	-88.845799	-84.491119	-53.914565
00883		9.771967	-0.607712	0.038771	0.087841	0.025105	-0.025916	-88.674377	-84.505328	-54.036268
00884		9.720904	-0.575754	0.033866	0.073967	0.028215	-0.015891	-88.492403	-84.513619	-54.176448
00885		9.731539	-0.581614	0.016426	0.048675	0.031977	-0.016254	-88.302626	-84.522109	-54.338734
00886		9.741449	-0.672856	0.058135	0.026600	0.033309	-0.010786	-88.117359	-84.527298	-54.509483
00887		9.709296	-0.842688	0.077498	0.023330	0.028060	-0.004389	-87.967160	-84.529013	-54.647264
00888		9.673272	-0.873992	0.044748	0.042697	0.029402	-0.000315	-87.797909	-84.528197	-54.792655
00889		9.654463	-0.851112	0.029770	0.055269	0.021040	-0.000744	-87.672209	-84.527892	-54.887094
00890		9.682518	-0.680989	0.186928	0.053076	0.025805	0.004944	-87.519932	-84.524082	-55.009462
00891		9.685442	-0.658195	0.182417	0.021496	0.017834	0.005566	-87.434388	-84.520240	-55.083462
00892		9.710154	-0.635282	0.188183	-0.009285	0.015313	0.010324	-87.382188	-84.513584	-55.141188
00893		9.733422	-0.713112	0.200301	-0.037596	0.011981	0.010950	-87.366878	-84.506809	-55.178366
00894		9.680700	-0.785060	0.199405	-0.066427	0.006561	0.015417	-87.401031	-84.497465	-55.182234
00895		9.703312	-0.878799	0.157603	-0.084362	0.000234	0.014890	-87.483297	-84.488707	-55.147536
00896		9.695927	-0.957633	0.065315	-0.084952	-0.008330	0.018122	-87.616741	-84.478180	-55.062314
00897		9.696650	-1.052071	0.011161	-0.068319	-0.006632	0.021838	-87.731364	-84.465637	-54.986519
00898		9.691907	-1.000084	0.016572	-0.057734	-0.015029	0.018183	-87.887925	-84.455185	-54.862400
00899		9.759497	-0.992767	-0.011207	-0.040287	-0.007269	0.019649	-87.989049	-84.443835	-54.783607
00900		9.765336	-0.948504	-0.025576	-0.040234	-0.001437	0.026649	-88.056462	-84.428222	-54.738980
00901		9.743953	-0.936026	0.015950	-0.044089	0.011409	0.021385	-88.049971	-84.415516	-54.770830
00902		9.699207	-1.024004	0.053294	-0.041877	0.009561	0.019178	-88.052212	-84.403964	-54.792630
00903		9.638118	-1.080740	0.013470	-0.044128	0.008477	0.017863	-88.062469	-84.393314	-54.807668
00904		9.649952	-1.166731	-0.007752	-0.028812	0.000381	0.011408	-88.109231	-84.386389	-54.777211
00905		9.622564	-1.199456	0.047257	-0.015581	0.007043	0.008369	-88.109522	-84.381202	-54.785813
00906		9.643630	-1.214955	0.005484	-0.017734	-0.009445	0.006822	-88.206106	-84.377081	-54.698916
00907		9.661681	-1.253321	-0.030179	-0.008511	-0.006382	0.000224	-88.279030	-84.376783	-54.630767
00908		9.690994	-1.283600	-0.033751	0.012363	-0.005847	-0.001383	-88.335885	-84.377278	-54.566462
00909		9.664129	-1.244860	-0.090130	0.034487	-0.004253	-0.003300	-88.371044	-84.378933	-54.511133
00910		9.731967	-1.235365	-0.116027	0.060588	-0.001981	-0.005172	-88.377184	-84.381527	-54.470025
00911		9.740546	-1.180395	-0.187712	0.090687	0.003878	-0.003503	-88.333003	-84.383148	-54.462240
00912		9.751696	-1.064778	-0.048698	0.125264	0.012484	-0.005662	-88.217731	-84.385780	-54.505894
00913		9.728560	-0.987449	-0.056586	0.156281	0.015377	-0.005962	-88.068639	-84.388567	-54.565513
00914		9.727794	-0.894782	-0.001322	0.163849	0.008546	0.001779	-87.955567	-84.386997	-54.584742
00915		9.705197	-0.802685	0.042520	0.143757	0.014026	0.001065	-87.822703	-84.385786	-54.635338
00916		9.707463	-0.686440	0.090183	0.115680	0.012325	-0.006695	-87.713357	-84.388976	-54.678554
00917		9.735381	-0.639027	0.089306	0.089886	0.014053	-0.003224	-87.610030	-84.390216	-54.730330
00918		9.739873	-0.692584	0.084447	0.059884	0.014690	-0.004249	-87.519333	-84.391933	-54.786930
00919		9.715050	-0.715799	0.082217	0.034857	0.016037	-0.003606	-87.435682	-84.393370	-54.851170
00920		9.661772	-0.801365	0.030401	0.014263	0.013677	-0.007346	-87.376125	-84.396871	-54.902745
00921		9.706822	-0.876915	0.054189	0.008817	0.014437	-0.008060	-87.315433	-84.400862	-54.958274
00922		9.693513	-1.000531	-0.021191	0.013484	0.010571	-0.001561	-87.275928	-84.401126	-54.990148
00923		9.701641	-1.015514	0.018345	0.020116	0.004405	-0.001735	-87.269176	-84.401776	-54.985475
00924		9.704180	-1.007628	-0.039927	0.037767	0.010221	-0.005760	-87.216604	-84.404450	-55.016498
00925		9.684605	-0.891638	-0.004465	0.041759	0.013823	-0.002240	-87.142375	-84.405099	-55.066833
00926		9.726716	-0.813330	0.018957	0.034581	0.014982	-0.001703	-87.064936	-84.405306	-55.124677
00927		9.704975	-0.813417	0.009618	0.020464	0.015408	-0.006035	-86.992245	-84.408102	-55.185979
00928		9.688289	-0.851546	0.045926	0.017742	0.015788	-0.006394	-86.918237	-84.410953	-55.250069
00929		9.660446	-0.897918	0.050364	0.016456	0.011211	-0.003152	-86.873316	-84.412209	-55.285735
00930		9.713036	-1.004697	0.060254	0.014665	0.005156	-0.002458	-86.864426	-84.413132	-55.286168
00931		9.708049	-0.966039	0.015298	0.017904	0.006837	-0.005965	-86.843341	-84.416116	-55.296756
00932		9.702487	-0.996154	0.082309	0.029010	0.002820	-0.003548	-86.839546	-84.417737	-55.283810
00933		9.734923	-1.002871	0.073556	0.031281	0.007413	-0.005186	-86.807949	-84.420257	-55.297839
00934		9.702073	-1.011053	0.031762	0.034223	0.004539	-0.003839	-86.791004	-84.421990	-55.295105
00935		9.735494	-0.986147	0.127473	0.041392	0.003365	-0.004389	-86.777474	-84.424182	-55.285084
00936		9.777092	-0.923248	0.097535	0.044367	0.004007	-0.005973	-86.757117	-84.427153	-55.279939
00937		9.747763	-0.892588	0.100957	0.043643	0.007369	0.000370	-86.720057	-84.426466	-55.291128
00938		9.689052	-0.831975	0.106437	0.034141	-0.002514	0.002001	-86.746428	-84.425089	-55.244919
00939		9.645490	-0.833474	0.084193	0.022225	-0.005100	0.008312	-86.797590	-84.420306	-55.181214
00940		9.664164	-0.856578	0.101919	0.007617	-0.006148	0.001448	-86.860190	-84.419353	-55.113874
00941		9.634792	-0.826627	0.103592	0.012761	-0.011461	0.007019	-86.953298	-84.415492	-55.013252
00942		9.667134	-0.834593	0.092856	0.003320	-0.014879	0.009211	-87.071680	-84.410337	-54.892336
00943		9.659484	-0.804799	0.104879	0.006768	-0.016269	0.013106	-87.197662	-84.403084	-54.761760
00944		9.682763	-0.705309	0.106675	0.004554	-0.014404	0.015297	-87.313738	-84.394383	-54.642447
00945		9.681226	-0.629739	0.104482	-0.008089	-0.015978	0.018071	-87.447035	-84.384228	-54.512834
00946		9.681104	-0.631919	0.102571	-0.025478	-0.021308	0.026611	-87.622385	-84.369164	-54.351247
00947		9.663615	-0.689533	0.082921	-0.047260	-0.019393	0.036600	-87.800962	-84.348448	-54.199399
00948		9.728128	-0.707606	0.061362	-0.071561	-0.021953	0.037330	-88.006615	-84.327158	-54.033883
00949		9.723029	-0.834991	0.073299	-0.072096	-0.024038	0.041166	-88.224614	-84.303778	-53.856301
00950		9.748242	-0.908675	0.022018	-0.080900	-0.034955	0.046300	-88.508471	-84.277433	-53.617554
00951		9.737245	-0.905658	0.038764	-0.081114	-0.029560	0.048755	-88.760327	-84.249640	-53.411235
00952		9.690782	-0.918781	0.072432	-0.080145	-0.029572	0.050329	-89.008980	-84.220713	-53.207414
00953		9.678396	-0.947495	-0.015312	-0.092347	-0.032645	0.052110	-89.280564	-84.190821	-52.987479
00954		9.707811	-0.967450	0.030578	-0.094030	-0.025819	0.053893	-89.511669	-84.159647	-52.809271
00955		9.707623	-1.065844	-0.024717	-0.088547	-0.020774	0.061531	-89.710209	-84.124143	-52.660460
00956		9.714369	-1.102225	-0.041600	-0.086134	-0.024553	0.053882	-89.925508	-84.092841	-52.493573
00957		9.714516	-1.092179	0.007722	-0.075925	-0.019257	0.058707	-90.104326	-84.058865	-52.357632
00958		9.708934	-1.059289	-0.040202	-0.068205	-0.015453	0.057775	-90.255561	-84.025241	-52.244809
00959		9.711512	-1.041588	-0.049445	-0.064545	-0.018774	0.056219	-90.421900	-83.992580	-52.114136
00960		9.697164	-0.970175	0.028065	-0.064826	-0.019842	0.058111	-90.591946	-83.958675	-51.980436
00961		9.694902	-0.914106	-0.026643	-0.061604	-0.018791	0.060987	-90.753160	-83.923204	-51.853274
00962		9.701639	-0.858550	0.009710	-0.076992	-0.017106	0.066817	-90.911438	-83.884256	-51.738401
00963		9.617038	-0.842436	-0.043695	-0.091781	-0.025213	0.065684	-91.120190	-83.845974	-51.581230
00964		9.677782	-0.886476	-0.060125	-0.097399	-0.033850	0.060828	-91.375517	-83.810160	-51.380487
00965		9.687664	-0.899853	-0.084266	-0.118521	-0.016397	0.061682	-91.549424	-83.774177	-51.274364
00966		9.684437	-1.005828	-0.080921	-0.124575	-0.020037	0.054855	-91.744354	-83.741862	-51.150015
00967		9.731931	-1.141975	-0.070104	-0.130279	-0.016813	0.053100	-91.925749	-83.710676	-51.043173
00968		9.733361	-1.286241	-0.022309	-0.117455	-0.020671	0.047806	-92.118041	-83.682296	-50.917359
00969		9.703753	-1.260623	-0.022296	-0.099770	-0.016201	0.056597	-92.274484	-83.649043	-50.816308
00970		9.657143	-1.273928	0.011947	-0.098882	-0.021370	0.044785	-92.457626	-83.622293	-50.688980
00971		9.659881	-1.255187	0.002013	-0.091464	-0.022188	0.048676	-92.639356	-83.593340	-50.558478
00972		9.650838	-1.166449	-0.038913	-0.092848	-0.029068	0.041932	-92.856217	-83.567919	-50.393725
00973		9.711447	-1.208468	-0.055966	-0.096801	-0.026202	0.038964	-93.060748	-83.544306	-50.243059
00974		9.663911	-1.235307	-0.074929	-0.096827	-0.026238	0.038921	-93.263587	-83.520563	-50.094696
00975		9.626480	-1.191905	-0.113420	-0.095571	-0.024527	0.032216	-93.458897	-83.500738	-49.953412
00976		9.640081	-1.255820	-0.145404	-0.096252	-0.019913	0.025807	-93.631470	-83.484608	-49.835169
00977		9.603055	-1.288113	-0.184364	-0.082729	-0.015109	0.017408	-93.775126	-83.473510	-49.738161
00978		9.675572	-1.397724	-0.170188	-0.073335	-0.018121	0.014665	-93.928175	-83.463747	-49.626346
00979		9.714518	-1.436885	-0.197423	-0.055467	-0.021226	0.011114	-94.087991	-83.455917	-49.496804
00980		9.660311	-1.430005	-0.200611	-0.033400	-0.013605	0.005448	-94.198303	-83.451543	-49.404973
00981		9.465065	-1.490579	-0.248465	-0.008278	-0.003189	-0.020835	-94.252854	-83.462680	-49.354864
00982		9.613511	-1.372022	-0.216232	0.020656	-0.014702	-0.041722	-94.355584	-83.485180	-49.239494
00983		9.941071	-1.237014	-0.215717	0.034061	-0.016940	-0.015415	-94.452972	-83.492578	-49.121313
00984		10.031629	-1.137014	-0.177600	0.041104	-0.000067	0.012444	-94.450402	-83.484754	-49.100139
00985		9.851279	-1.149570	-0.033167	0.057863	0.016982	0.016576	-94.352286	-83.475383	-49.165589
00986		9.755480	-1.037109	0.053034	0.061998	0.012245	0.014068	-94.275776	-83.467168	-49.206786
00987		9.604746	-1.007924	0.084013	0.034162	0.015394	0.001530	-94.204875	-83.466316	-49.258329
00988		9.488231	-0.899669	0.046265	-0.004738	-0.000292	0.002789	-94.233445	-83.464009	-49.232247
00989		9.514455	-0.882319	-0.061884	-0.033367	-0.012888	-0.000876	-94.343134	-83.463334	-49.141029
00990		9.636057	-0.804018	-0.087882	-0.055352	-0.016237	-0.004424	-94.482906	-83.464435	-49.032207
00991		9.742982	-0.833232	-0.140865	-0.079498	-0.014885	-0.002278	-94.629550	-83.464425	-48.930327
00992		9.700694	-0.895317	-0.113832	-0.104978	-0.017497	-0.003367	-94.803664	-83.464797	-48.815558
00993		9.668731	-0.964794	-0.108069	-0.116951	-0.016677	-0.000106	-94.979818	-83.463404	-48.705680
00994		9.672313	-1.018472	-0.118998	-0.116513	-0.018163	-0.001111	-95.162849	-83.462374	-48.588587
00995		9.651886	-1.081162	-0.081678	-0.101273	-0.015123	0.001987	-95.321218	-83.459796	-48.487577
00996		9.605005	-1.181176	-0.101222	-0.108170	-0.009345	-0.002279	-95.456037	-83.459833	-48.414200
00997		9.620448	-1.304627	-0.081844	-0.105449	-0.009049	-0.008318	-95.591424	-83.463413	-48.338815
00998		9.691869	-1.348958	-0.119019	-0.094053	-0.012061	-0.007850	-95.734480	-83.466433	-48.249006
00999		9.768725	-1.360604	-0.221803	-0.081180	-0.016513	-0.006720	-95.892468	-83.468612	-48.136757
01000		9.750229	-1.336376	-0.241494	-0.058489	-0.017091	-0.003138	-96.037921	-83.468593	-48.024027
01001		9.768551	-1.282172	-0.223754	-0.029512	-0.002612	-0.007579	-96.097722	-83.472040	-47.980858
01002		9.724921	-1.280673	-0.245773	-0.015214	0.001224	-0.012374	-96.132197	-83.478367	-47.954875
01003		9.694168	-1.258183	-0.182825	-0.009939	0.002975	-0.012579	-96.155664	-83.484982	-47.936682
01004		9.712632	-1.203048	-0.162976	0.015853	0.007443	-0.019695	-96.145325	-83.495860	-47.937888
01005		9.694353	-1.177497	-0.178996	0.034090	0.008370	-0.021575	-96.121512	-83.507924	-47.941978
01006		9.673663	-1.084239	-0.133608	0.034614	0.009795	-0.019013	-96.088194	-83.518557	-47.955493
01007		9.677219	-1.059008	-0.138559	0.033611	0.009799	-0.020630	-96.056936	-83.530166	-47.967487
01008		9.680422	-0.956564	-0.141576	0.029805	0.006593	-0.019776	-96.042743	-83.541038	-47.964526
01009		9.658734	-0.954642	-0.151405	0.023114	0.009156	-0.016700	-96.018530	-83.550379	-47.975587
01010		9.620100	-0.992190	-0.127833	0.022529	0.004851	-0.022798	-96.018861	-83.562868	-47.962206
01011		9.664044	-0.990659	-0.105798	0.022400	-0.002335	-0.017122	-96.053306	-83.571761	-47.914562
01012		9.672471	-1.005206	-0.067593	0.014719	0.000957	-0.022021	-96.077536	-83.583570	-47.881635
01013		9.640474	-0.995949	-0.057402	0.004702	-0.001118	-0.019036	-96.117289	-83.593622	-47.838938
01014		9.690990	-0.947846	-0.048807	-0.015384	-0.008142	-0.016589	-96.202262	-83.601771	-47.762243
01015		9.693234	-0.936858	-0.108545	-0.034232	-0.001534	-0.017529	-96.265889	-83.610932	-47.717934
01016		9.664942	-0.981708	-0.107193	-0.047402	0.001793	-0.016800	-96.319141	-83.619806	-47.691621
01017		9.716417	-1.087635	-0.102754	-0.062160	0.000814	-0.023787	-96.390628	-83.632680	-47.655555
01018		9.689901	-1.195372	-0.051024	-0.064120	0.002967	-0.017131	-96.447919	-83.641811	-47.634817
01019		9.693914	-1.247309	-0.060023	-0.046212	-0.000036	-0.020650	-96.513185	-83.652829	-47.595856
01020		9.687072	-1.215105	-0.045978	-0.038528	-0.003329	-0.015756	-96.587498	-83.660761	-47.543239
01021		9.671386	-1.089467	-0.068056	-0.043126	-0.009053	-0.015583	-96.694452	-83.668284	-47.460480
01022		9.688500	-0.880164	-0.045870	-0.046309	-0.019819	-0.011924	-96.855868	-83.672899	-47.324712
01023		9.681523	-0.848607	-0.032941	-0.039660	-0.010528	-0.011717	-96.966508	-83.678064	-47.236105
01024		9.680829	-0.842769	0.076920	-0.067572	-0.020062	-0.021296	-97.147783	-83.687917	-47.092617
01025		9.744225	-0.868840	0.001097	-0.117536	-0.019103	-0.021359	-97.353876	-83.697905	-46.952951
01026		9.737459	-0.931497	-0.154192	-0.160995	-0.016090	-0.015585	-97.565424	-83.704697	-46.832863
01027		9.742206	-0.987204	-0.277729	-0.178473	-0.011073	-0.015997	-97.762439	-83.712146	-46.737607
01028		9.684987	-1.169259	-0.333599	-0.165765	-0.010150	-0.012316	-97.944470	-83.717457	-46.649969
01029		9.656015	-1.378521	-0.281918	-0.120498	-0.007845	-0.012330	-98.089403	-83.723021	-46.573352
01030		9.630319	-1.564713	-0.235923	-0.045503	-0.010961	-0.010735	-98.205933	-83.727320	-46.482290
01031		9.651083	-1.577375	-0.279357	0.022280	-0.012947	-0.008615	-98.292940	-83.730294	-46.381540
01032		9.656935	-1.452932	-0.288906	0.070829	-0.013112	-0.002765	-98.348090	-83.729867	-46.285174
01033		9.720675	-1.222032	-0.247866	0.108255	-0.017541	-0.005546	-98.407413	-83.730688	-46.163133
01034		9.736113	-1.101105	-0.166449	0.123806	-0.013326	-0.004250	-98.434454	-83.731066	-46.064509
01035		9.720700	-1.053694	-0.189079	0.095168	-0.004271	-0.007012	-98.433911	-83.733807	-46.010018
01036		9.720798	-1.052878	-0.188609	0.044692	-0.001208	-0.012497	-98.450120	-83.739874	-45.967893
01037		9.755113	-1.048706	-0.257367	0.021991	0.002846	-0.018976	-98.464204	-83.749985	-45.941025
01038		9.766413	-1.130364	-0.279967	0.018660	0.015107	-0.031344	-98.425431	-83.768106	-45.969216
01039		9.723087	-1.200013	-0.190510	0.020710	0.019421	-0.037320	-98.368160	-83.790015	-46.014961
01040		9.608967	-1.302301	-0.068150	0.053634	0.014972	-0.032885	-98.310741	-83.808992	-46.041749
01041		9.590752	-1.348711	0.025927	0.100626	0.001490	-0.034667	-98.298829	-83.827894	-45.995697
01042		9.650336	-1.246868	-0.146853	0.128402	-0.010885	-0.026322	-98.329007	-83.841007	-45.891290
01043		9.717724	-0.994383	-0.224866	0.127840	-0.013094	-0.022587	-98.369214	-83.851832	-45.777254
01044		9.791311	-0.695285	-0.315673	0.104497	-0.002260	-0.025529	-98.367562	-83.865205	-45.718640
01045		9.718658	-0.662218	-0.332589	0.075372	0.005384	-0.030818	-98.347047	-83.882243	-45.695662
01046		9.626781	-0.860428	-0.366403	0.061710	0.010101	-0.029131	-98.307452	-83.898687	-45.699866
01047		9.605956	-1.098736	-0.322862	0.076449	0.011813	-0.028553	-98.250428	-83.914985	-45.713001
01048		9.635303	-1.290473	-0.269620	0.102139	0.012029	-0.026531	-98.175073	-83.930112	-45.729872
01049		9.717963	-1.248527	-0.268232	0.144448	0.008176	-0.027797	-98.097584	-83.945664	-45.724336
01050		9.774807	-1.061567	-0.214685	0.179086	0.009722	-0.024105	-97.988151	-83.959225	-45.731141
01051		9.737904	-0.830192	-0.137609	0.186488	0.008873	-0.020280	-97.876841	-83.970574	-45.735799
01052		9.812112	-0.680884	-0.120361	0.143165	0.016216	-0.023586	-97.752127	-83.984343	-45.778665
01053		9.807005	-0.639456	-0.162256	0.073283	0.025620	-0.020516	-97.615016	-83.997105	-45.874233
01054		9.773708	-0.736606	-0.255730	0.019578	0.032428	-0.019724	-97.469871	-84.009878	-46.008840
01055		9.689617	-0.966521	-0.299694	0.004989	0.040759	-0.022483	-97.290314	-84.024856	-46.187097
01056		9.655767	-1.221043	-0.224027	0.027690	0.043843	-0.021813	-97.078474	-84.039547	-46.384082
01057		9.634300	-1.310695	-0.284847	0.054369	0.029275	-0.024967	-96.932970	-84.054998	-46.499155
01058		9.656482	-1.216843	-0.215875	0.112949	0.035005	-0.020885	-96.718149	-84.068430	-46.650014
01059		9.663785	-0.970370	-0.064210	0.154868	0.026435	-0.017455	-96.524205	-84.079334	-46.755705
01060		9.728150	-0.657640	-0.193836	0.138734	0.031253	-0.005308	-96.304168	-84.083545	-46.896949
01061		9.774731	-0.379074	-0.178375	0.095946	0.033009	-0.000229	-96.096726	-84.084953	-47.050071
01062		9.767270	-0.257077	-0.106979	0.068141	0.036890	0.009889	-95.877049	-84.080732	-47.231616
01063		9.672457	-0.299556	-0.021977	0.038529	0.034712	0.020641	-95.681604	-84.070254	-47.405522
01064		9.678938	-0.439718	-0.139316	-0.010363	0.021611	0.034017	-95.578546	-84.051300	-47.515049
01065		9.854893	-0.540933	-0.215031	-0.031697	0.024127	0.052869	-95.465924	-84.021824	-47.646900
01066		9.996067	-0.553743	-0.167984	-0.024435	0.026814	0.078510	-95.321749	-83.977724	-47.805889
01067		9.932321	-0.370618	-0.149788	-0.023773	0.039197	0.101465	-95.103254	-83.921226	-48.039632
01068		9.757939	-0.127335	-0.237413	-0.042768	0.034435	0.115501	-94.917322	-83.856284	-48.251213
01069		9.728032	0.208401	-0.286426	-0.083007	0.024535	0.135880	-94.802540	-83.779315	-48.414240
01070		9.722539	0.479892	-0.272290	-0.148118	0.035302	0.158627	-94.661989	-83.689680	-48.640954
01071		9.605795	0.500200	-0.196423	-0.204664	0.042703	0.187745	-94.510834	-83.583926	-48.911700
01072		9.607013	0.235681	-0.247833	-0.268074	0.047482	0.206354	-94.370396	-83.467443	-49.207562
01073		9.675629	0.036393	-0.487215	-0.318259	0.087432	0.212631	-94.069590	-83.349204	-49.694567
01074		9.789580	-0.100421	-0.380744	-0.295743	0.094253	0.203673	-93.738158	-83.235770	-50.198841
01075		9.861636	-0.382436	-0.360567	-0.288648	0.077629	0.206772	-93.495770	-83.119993	-50.609643
01076		9.951241	-0.753352	-0.274942	-0.294305	0.078966	0.232513	-93.253253	-82.989008	-51.023767
01077		9.912832	-1.119579	-0.427853	-0.311156	0.089201	0.269036	-92.979020	-82.837532	-51.480146
01078		9.818873	-1.307640	-0.412701	-0.259438	0.098672	0.286034	-92.643184	-82.675986	-51.968469
01079		9.714262	-1.475557	-0.323787	-0.225457	0.098915	0.280740	-92.307797	-82.517431	-52.437731
01080		9.826248	-1.586663	-0.173988	-0.184172	0.098038	0.275136	-91.968213	-82.361400	-52.886683
01081		9.924414	-1.845729	-0.008101	-0.145913	0.123333	0.270431	-91.519301	-82.208355	-53.424174
01082		9.898615	-2.002675	-0.021443	-0.110078	0.134218	0.273801	-91.022257	-82.052671	-53.989554
01083		9.839355	-2.113858	-0.179872	-0.065864	0.129587	0.276084	-90.540720	-81.895290	-54.514519
01084		9.761217	-2.171240	-0.136525	0.015031	0.132639	0.271518	-90.018843	-81.739594	-55.033004
01085		9.621258	-2.289918	0.127457	0.097060	0.139151	0.265812	-89.445364	-81.586730	-55.556404
01086		9.463592	-2.462033	0.259965	0.134685	0.124078	0.251833	-88.925367	-81.441001	-56.004076
01087		9.529540	-2.468049	0.190933	0.169071	0.108011	0.234951	-88.461472	-81.304833	-56.375288
01088		9.567284	-2.374104	0.187659	0.207717	0.107830	0.218640	-87.986126	-81.177314	-56.735768
01089		9.628035	-2.266506	0.249362	0.242994	0.111927	0.201896	-87.486011	-81.059027	-57.101027
01090		9.636384	-2.228191	0.194416	0.258065	0.101218	0.181283	-87.022405	-80.952159	-57.420645
01091		9.626621	-2.123422	0.076479	0.261073	0.085912	0.156863	-86.616362	-80.859541	-57.680352
01092		9.571573	-2.167622	0.132964	0.268944	0.093454	0.142351	-86.181812	-80.774481	-57.964392
01093		9.495982	-2.180809	0.284293	0.281578	0.095094	0.128929	-85.738279	-80.696825	-58.250305
01094		9.379513	-2.154796	0.256220	0.301606	0.084249	0.120780	-85.323786	-80.623821	-58.495180
01095		9.306746	-2.116138	0.303384	0.326184	0.084187	0.114873	-84.899536	-80.554021	-58.735758
01096		9.232728	-2.036631	0.305535	0.346213	0.079300	0.102865	-84.480729	-80.490924	-58.959193
01097		9.159755	-1.926812	0.411883	0.362142	0.070499	0.097934	-84.085808	-80.430976	-59.149227
01098		9.215636	-1.837096	0.533440	0.319742	0.070158	0.080648	-83.712880	-80.380591	-59.341591
01099		9.249297	-1.804209	0.430889	0.232088	0.051208	0.059729	-83.448971	-80.343232	-59.474372
01100		9.455621	-1.570139	0.335505	0.157243	0.050432	0.037544	-83.222629	-80.318376	-59.612526
01101		9.570533	-1.507853	0.289299	0.077514	0.057839	0.008956	-83.007151	-80.309258	-59.786036
01102		9.553467	-1.499232	0.224375	0.001693	0.050785	-0.000184	-82.854548	-80.305666	-59.939807
01103		9.566749	-1.684741	0.134689	-0.061309	0.050634	-0.005040	-82.737131	-80.304862	-60.094532
01104		9.526856	-1.844278	0.093958	-0.078969	0.054932	-0.008129	-82.613683	-80.305367	-60.265611
01105		9.466068	-1.956907	0.199155	-0.064679	0.060743	-0.013789	-82.460779	-80.308657	-60.458296
01106		9.439107	-1.908131	0.258311	-0.049192	0.058693	-0.019271	-82.302670	-80.315056	-60.647227
01107		9.458623	-1.814519	0.236529	-0.032969	0.055855	-0.016893	-82.146141	-80.320297	-60.825151
01108		9.562782	-1.671163	0.268802	-0.022881	0.054761	-0.023154	-81.983788	-80.329034	-61.003088
01109		9.649269	-1.464270	0.237780	-0.027358	0.055637	-0.022379	-81.821706	-80.337230	-61.183375
01110		9.699782	-1.325477	0.215196	-0.025135	0.059405	-0.017700	-81.647241	-80.342320	-61.374901
01111		9.724982	-1.248289	0.232557	-0.045567	0.052345	-0.009161	-81.512615	-80.343139	-61.537915
01112		9.794021	-1.243264	0.212711	-0.066948	0.045329	-0.002228	-81.416523	-80.340508	-61.674240
01113		9.832891	-1.323066	0.239700	-0.067707	0.060175	0.006859	-81.276731	-80.331483	-61.855366
01114		9.777370	-1.484245	0.278277	-0.068639	0.054453	0.013461	-81.159657	-80.319072	-62.013966
01115		9.748053	-1.639156	0.269148	-0.046056	0.053457	0.021696	-81.038128	-80.302122	-62.163994
01116		9.723206	-1.756891	0.306290	-0.008291	0.052214	0.029829	-80.903355	-80.280535	-62.305486
01117		9.626282	-1.747184	0.284640	0.029483	0.048161	0.034582	-80.763972	-80.256660	-62.429734
01118		9.609029	-1.726458	0.271286	0.056798	0.038473	0.040641	-80.644195	-80.230121	-62.518191
01119		9.542086	-1.618782	0.255720	0.084052	0.042941	0.048637	-80.499627	-80.198692	-62.615993
01120		9.528387	-1.507052	0.295939	0.090978	0.037988	0.051102	-80.368882	-80.166217	-62.695722
01121		9.557672	-1.413004	0.306845	0.095182	0.036309	0.056540	-80.245383	-80.130890	-62.765686
01122		9.582331	-1.357485	0.272064	0.100764	0.044502	0.061207	-80.095041	-80.092012	-62.859633
01123		9.628362	-1.303567	0.249319	0.106258	0.041013	0.062961	-79.955192	-80.052545	-62.939770
01124		9.720576	-1.144837	0.355344	0.121499	0.038162	0.063768	-79.816629	-80.012780	-63.009718
01125		9.759562	-0.967598	0.306754	0.122266	0.026270	0.077393	-79.724656	-79.966632	-63.031944
01126		9.838775	-0.640633	0.451816	0.058627	0.027156	0.098664	-79.678608	-79.908284	-63.044538
01127		9.783111	-0.556341	0.563253	-0.048261	0.035669	0.128358	-79.684570	-79.832473	-63.066539
01128		9.725915	-0.737004	0.397668	-0.122422	0.025296	0.159124	-79.782350	-79.740230	-63.038398
01129		9.722421	-0.975859	0.076896	-0.146659	0.024402	0.172211	-79.903110	-79.640878	-63.001030
01130		9.780583	-1.143727	0.054035	-0.127779	0.038127	0.184536	-79.976062	-79.532997	-63.001236
01131		9.864286	-1.315654	0.135379	-0.098452	0.048811	0.200403	-80.008041	-79.415319	-63.026053
01132		9.920243	-1.457026	0.219424	-0.067037	0.051535	0.218061	-80.022911	-79.287189	-63.049947
01133		9.926997	-1.551433	0.346453	-0.040847	0.052978	0.240209	-80.030511	-79.146656	-63.066004
01134		9.874783	-1.580991	0.386560	-0.013474	0.055065	0.257694	-80.025211	-78.995812	-63.079207
01135		9.880982	-1.546252	0.431593	0.012862	0.056871	0.269221	-80.006090	-78.838531	-63.091151
01136		9.823588	-1.507097	0.441113	0.007379	0.057947	0.272467	-79.988831	-78.679063	-63.104379
01137		9.792672	-1.501686	0.449020	-0.012775	0.066665	0.289253	-79.967719	-78.509514	-63.133351
01138		9.749499	-1.666067	0.402747	-0.027517	0.063253	0.293441	-79.966854	-78.337682	-63.150269
01139		9.737987	-1.787316	0.354639	-0.038902	0.055943	0.306775	-79.998949	-78.159329	-63.140221
01140		9.676670	-1.982551	0.280950	-0.042924	0.053224	0.315924	-80.043993	-77.975809	-63.119260
01141		9.645837	-2.173592	0.251215	-0.022074	0.050177	0.319820	-80.086116	-77.790665	-63.089081
01142		9.640992	-2.343788	0.227411	0.012437	0.050282	0.317698	-80.106128	-77.606428	-63.061246
01143		9.619863	-2.458863	0.291229	0.058053	0.051785	0.314437	-80.094463	-77.424151	-63.039095
01144		9.522977	-2.448313	0.263839	0.103208	0.051875	0.308725	-80.054030	-77.244824	-63.019870
01145		9.424373	-2.445796	0.387491	0.137696	0.051785	0.306593	-79.993789	-77.066964	-63.000709
01146		9.340716	-2.466940	0.530059	0.153010	0.049116	0.301022	-79.929222	-76.892267	-62.976940
01147		9.293131	-2.544065	0.597810	0.152818	0.035301	0.288411	-79.893184	-76.726312	-62.923993
01148		9.304507	-2.749915	0.634432	0.136446	0.029626	0.267098	-79.870472	-76.572718	-62.866928
01149		9.334621	-2.901737	0.598521	0.131318	0.023338	0.254242	-79.859815	-76.427228	-62.800477
01150		9.231651	-3.029526	0.601404	0.139083	0.020680	0.242403	-79.845203	-76.288472	-62.733453
01151		9.128502	-3.171017	0.551995	0.162483	0.008014	0.228354	-79.840147	-76.159104	-62.642769
01152		9.041263	-3.196022	0.548350	0.178701	0.001932	0.212655	-79.832304	-76.039025	-62.545313
01153		8.971584	-3.205793	0.518049	0.194449	-0.000243	0.196837	-79.813420	-75.928233	-62.449910
01154		8.920587	-3.270575	0.493253	0.183984	-0.003046	0.178033	-79.798466	-75.828195	-62.356571
01155		8.822119	-3.436444	0.429744	0.142949	-0.023595	0.151210	-79.841541	-75.745458	-62.227608
01156		8.984296	-3.462060	0.287280	0.150263	-0.041858	0.112269	-79.904335	-75.686397	-62.073911
01157		9.110185	-3.447586	0.316981	0.174350	-0.017734	0.076485	-79.885602	-75.645131	-61.990105
01158		9.198542	-3.370110	0.330897	0.185990	-0.001583	0.031409	-79.806579	-75.627622	-61.961616
01159		9.272544	-3.124703	0.260101	0.160480	0.006152	0.000408	-79.713192	-75.626824	-61.963066
01160		9.413095	-2.863265	0.126300	0.115552	0.013983	-0.020176	-79.619785	-75.636814	-61.991086
01161		9.529882	-2.533654	0.096466	0.064930	0.025006	-0.032169	-79.526497	-75.652393	-62.048950
01162		9.645611	-2.165808	-0.072097	-0.015355	0.028768	-0.045991	-79.464771	-75.675362	-62.121681
01163		9.847858	-1.682594	-0.220024	-0.124505	0.048127	-0.060675	-79.416975	-75.704541	-62.244603
01164		9.924773	-1.235399	-0.354644	-0.274537	0.064098	-0.073942	-79.413576	-75.739509	-62.410363
01165		9.698524	-1.047681	-0.166822	-0.397729	0.064349	-0.089869	-79.473711	-75.783477	-62.583412
01166		9.275276	-0.959220	0.287527	-0.503164	0.001930	-0.094796	-79.730747	-75.836759	-62.615592
01167		9.108330	-1.616619	0.819519	-0.588112	-0.025372	-0.089695	-80.101187	-75.890035	-62.581060
01168		9.142047	-2.478131	1.591784	-0.538887	-0.050366	-0.092206	-80.499773	-75.946995	-62.488391
01169		9.366702	-2.701137	0.841870	-0.653282	-0.012433	-0.055936	-80.893798	-75.979869	-62.468039
01170		9.277874	-3.385200	-0.018337	-0.701009	0.032202	0.012696	-81.238966	-75.969800	-62.526197
01171		8.930893	-3.767384	0.327838	-0.410982	0.016109	0.063678	-81.472216	-75.932373	-62.528467
01172		8.587692	-3.807798	0.505571	-0.258118	-0.009351	0.076522	-81.678722	-75.889742	-62.467975
01173		8.228753	-3.425817	0.472385	-0.205121	-0.029340	0.033243	-81.885503	-75.873238	-62.375915
01174		8.073844	-2.962337	0.453932	-0.141865	-0.075029	-0.054294	-82.130841	-75.909954	-62.206699
01175		8.189407	-2.315148	0.705009	-0.076547	-0.110408	-0.161435	-82.387890	-76.009999	-61.986915
01176		8.460499	-1.784247	0.851909	-0.094636	-0.126982	-0.248022	-82.670764	-76.160265	-61.751292
01177		8.683801	-1.432145	0.435870	-0.225974	-0.136768	-0.289002	-83.046343	-76.334147	-61.497888
01178		8.822208	-1.371268	-0.109424	-0.449425	-0.148732	-0.314359	-83.579944	-76.522823	-61.213799
01179		9.005904	-1.712715	-0.793772	-0.722768	-0.169076	-0.358292	-84.321229	-76.736985	-60.877482
01180		9.475520	-2.122776	-1.307317	-0.857436	-0.077023	-0.446103	-84.910802	-76.995392	-60.776487
01181		9.894643	-2.475478	-0.394321	-0.660472	-0.022689	-0.540685	-85.243089	-77.304917	-60.823790
01182		10.977289	-2.918566	0.889609	-0.319599	0.016524	-0.570772	-85.275584	-77.629808	-60.978030
01183		11.456019	-4.462422	1.550381	-0.088005	0.107490	-0.397159	-84.968867	-77.851051	-61.343483
01184		10.679260	-5.872451	1.377009	0.056059	0.012061	-0.116509	-84.891096	-77.916714	-61.390116
01185		10.155167	-5.764954	0.334193	0.302292	-0.031630	0.035541	-84.824976	-77.897706	-61.280565
01186		9.092675	-3.758939	1.049224	0.656649	-0.053057	-0.049536	-84.591807	-77.928562	-61.134201
01187		8.534358	-1.452681	1.815101	0.678136	-0.072952	-0.275532	-84.341864	-78.089286	-60.992460
01188		8.767949	-0.267547	1.335453	0.362807	-0.047583	-0.460781	-84.151472	-78.354513	-60.974545
01189		9.597000	-0.770781	0.341247	0.032673	-0.058693	-0.497400	-84.169384	-78.641056	-60.937097
01190		10.500760	-1.705974	-0.257161	0.013436	-0.097307	-0.411035	-84.337198	-78.880776	-60.758096
01191		10.739958	-2.133465	-0.259616	0.103549	-0.021183	-0.331226	-84.258467	-79.070457	-60.777800
01192		10.027280	-2.241662	-0.143889	0.077952	0.032550	-0.290576	-84.044034	-79.233998	-60.950600
01193		9.342084	-2.427515	-0.189443	0.037743	0.008369	-0.303532	-83.916417	-79.406095	-61.058402
01194		9.035602	-2.428945	-0.081873	0.059606	-0.050226	-0.340761	-83.941394	-79.603117	-60.998209
01195		9.058907	-2.288014	0.054972	0.114351	-0.099945	-0.362061	-84.087110	-79.815024	-60.783466
01196		9.315109	-2.069009	0.081659	0.171069	-0.101706	-0.362625	-84.212901	-80.027471	-60.556094
01197		9.398778	-1.822408	0.069999	0.260691	-0.054025	-0.354852	-84.139416	-80.232469	-60.479019
01198		9.425351	-1.457575	0.279053	0.302290	-0.029316	-0.341711	-83.962711	-80.428768	-60.482518
01199		9.344041	-1.153562	0.366918	0.247870	-0.037264	-0.328257	-83.846437	-80.617655	-60.456361
01200		9.450640	-0.768393	0.521083	0.148350	-0.048949	-0.318846	-83.830300	-80.802132	-60.386527
01201		9.704771	-0.606164	0.426754	0.020450	-0.054441	-0.309732	-83.912725	-80.981542	-60.291124
01202		9.850049	-0.582857	0.209721	-0.085483	-0.042534	-0.305122	-84.017992	-81.157787	-60.234087
01203		9.921840	-0.876577	0.098218	-0.167713	-0.033912	-0.304645	-84.142250	-81.333066	-60.205533
01204		9.913510	-1.260465	-0.024678	-0.187639	-0.021961	-0.286078	-84.242613	-81.497227	-60.212702
01205		9.846490	-1.592861	-0.083237	-0.150726	-0.017487	-0.257604	-84.317316	-81.644754	-60.224428
01206		9.713683	-1.740565	-0.155973	-0.067610	-0.011682	-0.230912	-84.332484	-81.776881	-60.248189
01207		9.693680	-1.663721	-0.160107	0.036512	-0.007975	-0.223761	-84.275638	-81.904564	-60.284420
01208		9.732098	-1.468352	-0.057441	0.103873	-0.008239	-0.232305	-84.175675	-82.037281	-60.325210
01209		9.795202	-1.159537	-0.096731	0.137197	-0.022872	-0.234345	-84.114215	-82.171846	-60.307841
01210		9.895312	-0.861489	-0.055358	0.162904	-0.028519	-0.234544	-84.060499	-82.307022	-60.267796
01211		9.909785	-0.677769	-0.019931	0.153277	-0.031847	-0.228541	-84.029502	-82.438832	-60.210415
01212		9.879176	-0.557549	0.042624	0.142595	-0.018222	-0.203288	-83.956794	-82.555589	-60.201287
01213		9.739062	-0.485843	0.151026	0.093165	-0.009536	-0.190475	-83.879659	-82.664402	-60.225191
01214		9.692693	-0.475844	0.186033	0.055728	-0.010919	-0.184706	-83.831165	-82.770128	-60.241832
01215		9.656770	-0.460056	0.252586	0.005890	-0.018901	-0.174557	-83.852254	-82.870475	-60.217125
01216		9.692714	-0.568571	0.283550	-0.041801	-0.029437	-0.160161	-83.956827	-82.963346	-60.135825
01217		9.736972	-0.645827	0.248706	-0.064115	-0.028594	-0.144562	-84.080754	-83.047197	-60.047928
01218		9.738420	-0.723602	0.190328	-0.058461	-0.032324	-0.132027	-84.227304	-83.124156	-59.933989
01219		9.653463	-0.710213	0.140247	-0.047817	-0.035383	-0.117701	-84.392350	-83.193041	-59.795301
01220		9.665301	-0.706768	0.115776	-0.050157	-0.037592	-0.101931	-84.579428	-83.253046	-59.635790
01221		9.666018	-0.697523	0.111884	-0.063333	-0.034708	-0.090703	-84.768476	-83.306404	-59.481921
01222		9.674891	-0.810429	0.038195	-0.058479	-0.037645	-0.086104	-84.973570	-83.357252	-59.309107
01223		9.675925	-0.879287	0.031707	-0.064479	-0.035503	-0.086059	-85.174761	-83.407886	-59.143707
01224		9.716521	-0.972310	0.054113	-0.052171	-0.042043	-0.080853	-85.406061	-83.455794	-58.940911
01225		9.743231	-1.032915	-0.000002	-0.038862	-0.036516	-0.066385	-85.611072	-83.495098	-58.756925
01226		9.706865	-0.952202	0.066866	-0.013983	-0.033158	-0.057523	-85.790190	-83.529127	-58.584658
01227		9.681848	-0.893115	0.060697	-0.000133	-0.031859	-0.047465	-85.960552	-83.557297	-58.413235
01228		9.627685	-0.803984	0.057889	0.000626	-0.029384	-0.046814	-86.119291	-83.584939	-58.253074
01229		9.635569	-0.830283	0.040340	-0.015516	-0.030047	-0.037530	-86.295461	-83.607258	-58.084694
01230		9.664935	-0.857442	0.033978	-0.018627	-0.034320	-0.033185	-86.497544	-83.627173	-57.892032
01231		9.697714	-0.861724	0.021298	-0.037219	-0.033548	-0.026219	-86.709964	-83.643019	-57.699703
01232		9.712593	-0.906346	0.041220	-0.042016	-0.033900	-0.023535	-86.928362	-83.657242	-57.504122
01233		9.641322	-0.950532	0.015400	-0.041774	-0.027166	-0.018433	-87.114478	-83.668295	-57.340895
01234		9.606345	-0.992428	-0.078443	-0.044384	-0.032870	-0.015032	-87.332645	-83.677470	-57.146920
01235		9.617053	-0.984216	-0.050003	-0.037913	-0.036460	-0.016087	-87.566414	-83.687286	-56.933530
01236		9.649664	-0.990087	-0.062859	-0.027966	-0.032258	-0.009030	-87.774443	-83.692844	-56.740296
01237		9.685302	-0.959275	-0.028487	-0.018195	-0.031227	-0.009956	-87.972114	-83.698868	-56.551864
01238		9.726132	-1.073060	-0.058185	-0.024692	-0.024817	-0.005401	-88.140962	-83.702059	-56.396167
01239		9.765607	-1.082474	0.020691	-0.026143	-0.029059	-0.013124	-88.332095	-83.709729	-56.218898
01240		9.729836	-1.097757	0.032883	-0.024683	-0.027661	-0.008926	-88.515692	-83.714875	-56.048360
01241		9.755628	-1.150999	0.032520	-0.033980	-0.027295	-0.005438	-88.703858	-83.717991	-55.878598
01242		9.759084	-1.127113	0.023205	-0.030318	-0.034085	-0.004053	-88.925144	-83.720294	-55.673395
01243		9.733902	-1.136570	0.067091	-0.031317	-0.031247	-0.002174	-89.132964	-83.721440	-55.482325
01244		9.726692	-1.119353	0.025770	-0.039481	-0.026581	-0.006291	-89.320535	-83.724805	-55.316322
01245		9.751494	-1.044809	-0.074361	-0.042576	-0.020483	-0.015006	-89.478286	-83.733100	-55.182117
01246		9.780516	-1.060374	-0.027372	-0.039341	-0.022277	-0.015543	-89.643488	-83.741642	-55.038541
01247		9.716497	-1.121831	-0.014710	-0.052914	-0.029373	-0.017348	-89.854442	-83.751212	-54.856778
01248		9.746007	-1.163927	-0.074627	-0.049682	-0.031169	-0.017891	-90.073107	-83.760992	-54.665385
01249		9.742626	-1.172417	-0.018934	-0.026618	-0.024106	-0.015120	-90.242518	-83.769150	-54.510262
01250		9.699644	-1.170210	-0.044351	-0.011058	-0.025529	-0.020634	-90.410650	-83.780388	-54.347449
01251		9.692341	-1.137970	-0.032203	0.000913	-0.029826	-0.020867	-90.595633	-83.791703	-54.160800
01252		9.677492	-1.075572	-0.004991	0.006460	-0.024142	-0.019366	-90.747540	-83.802118	-54.004218
01253		9.663607	-1.103924	-0.033792	-0.007896	-0.028073	-0.014796	-90.929055	-83.809849	-53.826142
01254		9.702924	-1.062354	-0.057327	-0.001508	-0.019148	-0.018994	-91.060089	-83.820004	-53.695152
01255		9.703749	-1.111022	0.043753	-0.002221	-0.015228	-0.019000	-91.171680	-83.830192	-53.584145
01256		9.639956	-1.172078	0.057855	-0.011440	-0.016970	-0.025407	-91.298450	-83.843989	-53.463173
01257		9.637059	-1.206457	0.009023	-0.003205	-0.018056	-0.024166	-91.427130	-83.857043	-53.335549
01258		9.683052	-1.117244	-0.025824	0.005527	-0.020562	-0.023876	-91.564205	-83.869849	-53.194441
01259		9.708235	-1.091612	-0.022061	0.010583	-0.016284	-0.024954	-91.676724	-83.883316	-53.075131
01260		9.671851	-1.041916	-0.058362	0.004754	-0.023062	-0.024563	-91.828872	-83.896405	-52.919317
01261		9.693625	-1.026433	0.003994	0.000797	-0.017360	-0.024033	-91.953712	-83.909263	-52.793260
01262		9.704712	-1.030959	-0.018541	0.003264	-0.018801	-0.021722	-92.084503	-83.920733	-52.659790
01263		9.689845	-0.981847	-0.043512	0.002985	-0.019882	-0.019824	-92.221827	-83.931067	-52.519923
01264		9.685706	-0.926408	-0.036257	0.000234	-0.016688	-0.016708	-92.342837	-83.939649	-52.398040
01265		9.689139	-0.901064	-0.044314	-0.013334	-0.026654	-0.022034	-92.527495	-83.951013	-52.219981
01266		9.689386	-0.912101	-0.099746	-0.030532	-0.020586	-0.024514	-92.690041	-83.963888	-52.074061
01267		9.729587	-0.933689	-0.073731	-0.033615	-0.024895	-0.020181	-92.877662	-83.974130	-51.904716
01268		9.730878	-1.008688	-0.079365	-0.028290	-0.019532	-0.023164	-93.034112	-83.986171	-51.763640
01269		9.706205	-1.029886	-0.086857	-0.021040	-0.017762	-0.020030	-93.176892	-83.996450	-51.632146
01270		9.695570	-1.034571	-0.121112	-0.016591	-0.022053	-0.017993	-93.339850	-84.005372	-51.477792
01271		9.691333	-0.979383	-0.114251	-0.012361	-0.021003	-0.013368	-93.494077	-84.011654	-51.329793
01272		9.755205	-0.914774	-0.132197	-0.009120	-0.019945	-0.010373	-93.639464	-84.016208	-51.188804
01273		9.766107	-0.920345	-0.154635	-0.010279	-0.011017	-0.012266	-93.738176	-84.022157	-51.095427
01274		9.733724	-0.899351	-0.093333	-0.005825	-0.012467	-0.006690	-93.839897	-84.024831	-50.996449
01275		9.719733	-0.915626	-0.067770	-0.001318	-0.010333	-0.003962	-93.926973	-84.026030	-50.909611
01276		9.738197	-0.938934	-0.051394	0.000220	-0.005341	-0.002592	-93.984877	-84.026613	-50.851206
01277		9.719779	-0.915056	-0.068866	-0.000496	-0.001416	-0.002586	-94.022285	-84.027367	-50.813834
01278		9.701359	-0.891207	-0.086001	-0.009730	0.002494	-0.001912	-94.042848	-84.027869	-50.798707
01279		9.730639	-0.921287	-0.089301	-0.011932	0.007847	-0.002586	-94.036212	-84.028998	-50.812207
01280		9.721065	-0.991180	-0.071403	-0.017704	0.001800	-0.008588	-94.067731	-84.033288	-50.790658
01281		9.708300	-1.084442	-0.048048	-0.016988	0.000711	-0.005056	-94.103982	-84.035541	-50.763951
01282		9.656613	-1.244412	-0.109532	-0.010996	-0.001420	-0.005187	-94.148005	-84.037751	-50.725967
01283		9.692325	-1.227353	-0.125843	0.013639	-0.017451	-0.002869	-94.265257	-84.037978	-50.600174
01284		9.701955	-1.156575	-0.145067	0.027380	-0.022062	-0.004355	-94.399967	-84.038805	-50.448900
01285		9.730087	-1.096047	-0.094262	0.028913	-0.019911	-0.006529	-94.523554	-84.040948	-50.307940
01286		9.707285	-1.018065	-0.103849	0.026434	-0.018479	-0.008844	-94.641309	-84.044434	-50.174260
01287		9.800378	-0.970914	-0.071792	0.016210	-0.011727	-0.006261	-94.727465	-84.046749	-50.078254
01288		9.713946	-0.942936	-0.011297	0.005863	0.001857	-0.013859	-94.748122	-84.054024	-50.054051
01289		9.693658	-1.018511	-0.025883	-0.013701	-0.003167	-0.015518	-94.808919	-84.062018	-50.000771
01290		9.658116	-1.046854	-0.063893	-0.015956	-0.004237	-0.016883	-94.877154	-84.070720	-49.941302
01291		9.655123	-1.068575	-0.058501	-0.007168	-0.003139	-0.019459	-94.936234	-84.080952	-49.885988
01292		9.676941	-1.079986	-0.100536	-0.001400	-0.002767	-0.020542	-94.990156	-84.091802	-49.832526
01293		9.691184	-1.047995	-0.074680	-0.011181	-0.003864	-0.019603	-95.056001	-84.102065	-49.772725
01294		9.690030	-0.982124	-0.125074	-0.008707	-0.008139	-0.020836	-95.144405	-84.112796	-49.688809
01295		9.685690	-0.939549	-0.170156	-0.013762	-0.015284	-0.023308	-95.277401	-84.124558	-49.562988
01296		9.736863	-0.967625	-0.164206	-0.009752	-0.014563	-0.023170	-95.404026	-84.136242	-49.441256
01297		9.713692	-1.052521	-0.121205	0.001559	-0.011308	-0.026284	-95.508758	-84.149864	-49.335030
01298		9.667480	-1.060662	-0.085975	0.009992	-0.012767	-0.014174	-95.610101	-84.156470	-49.227345
01299		9.684700	-1.018853	-0.120083	0.014944	-0.021315	-0.016644	-95.758441	-84.163982	-49.069578
01300		9.684918	-1.004157	-0.069032	0.021433	-0.022024	-0.014197	-95.905454	-84.170010	-48.909399
01301		9.740915	-0.908926	-0.071673	0.017736	-0.015246	-0.015546	-96.018373	-84.177179	-48.785633
01302		9.733296	-0.890363	-0.110793	0.015028	-0.011315	-0.018806	-96.112564	-84.186414	-48.682242
01303		9.707315	-0.821715	-0.060727	0.010794	-0.006695	-0.016348	-96.182649	-84.194526	-48.605531
01304		9.718237	-0.826760	-0.081902	0.008585	-0.001342	-0.017017	-96.224054	-84.203335	-48.558911
01305		9.687376	-0.895440	-0.075509	-0.002413	0.000057	-0.018648	-96.265567	-84.213171	-48.518527
01306		9.706080	-0.917569	-0.058180	-0.008171	0.005368	-0.010469	-96.275038	-84.218665	-48.513656
01307		9.670488	-0.946790	-0.095659	-0.004514	-0.004994	-0.006274	-96.338650	-84.221135	-48.452274
01308		9.656544	-0.976307	-0.122662	0.007700	-0.011743	-0.005610	-96.432367	-84.222771	-48.353587
01309		9.702907	-0.965950	-0.160338	0.008385	-0.016407	0.000776	-96.548377	-84.220468	-48.232108
01310		9.729152	-1.019597	-0.159718	0.001891	-0.015706	-0.001673	-96.665171	-84.219563	-48.113571
01311		9.724576	-0.965653	-0.152090	0.003914	-0.014976	-0.004803	-96.779282	-84.220481	-47.996577
01312		9.747913	-1.029032	-0.092325	-0.015060	-0.008604	-0.006007	-96.868773	-84.222480	-47.915244
01313		9.673704	-1.098012	-0.109662	-0.024056	-0.015015	-0.021408	-97.010690	-84.232795	-47.786411
01314		9.661396	-1.203486	-0.140618	-0.015302	-0.011797	-0.014053	-97.124213	-84.239109	-47.681067
01315		9.697121	-1.185101	-0.157399	0.002490	-0.012076	-0.018282	-97.232897	-84.247795	-47.570350
01316		9.712744	-1.065625	-0.187478	0.013337	-0.003802	-0.023303	-97.292056	-84.259910	-47.503156
01317		9.689894	-0.972825	-0.142694	0.022610	-0.004116	-0.026852	-97.351065	-84.274014	-47.430783
01318		9.672989	-0.846263	-0.163012	0.023293	-0.011629	-0.024018	-97.450043	-84.285941	-47.317841
01319		9.704157	-0.760668	-0.117304	0.019029	-0.007744	-0.015155	-97.523683	-84.293110	-47.232826
01320		9.718217	-0.729369	-0.091897	0.018232	-0.010981	-0.009444	-97.611508	-84.296775	-47.134008
01321		9.719696	-0.628249	-0.095404	-0.002792	-0.006083	-0.001103	-97.677789	-84.296077	-47.068965
01322		9.744284	-0.618092	-0.143610	-0.032073	-0.002994	0.002473	-97.739965	-84.293565	-47.024890
01323		9.700860	-0.618352	-0.166835	-0.036888	-0.009812	0.004496	-97.842538	-84.289394	-46.942998
01324		9.721048	-0.719450	-0.154308	-0.052434	-0.011319	0.006538	-97.960255	-84.283905	-46.854828
01325		9.730094	-0.840721	-0.226846	-0.054682	-0.006710	0.012265	-98.048968	-84.275554	-46.797116
01326		9.688162	-0.918854	-0.253444	-0.041392	-0.003444	0.012397	-98.110721	-84.267349	-46.758831
01327		9.649444	-0.960348	-0.232963	-0.027914	-0.009109	0.012774	-98.196875	-84.258501	-46.688272
01328		9.708469	-0.995446	-0.135774	-0.023638	-0.007298	0.011007	-98.270980	-84.250757	-46.627347
01329		9.722134	-0.979949	-0.163431	-0.021410	-0.006966	0.018768	-98.335993	-84.238669	-46.574288
01330		9.765126	-0.995147	-0.195122	-0.018698	-0.010902	0.022015	-98.417958	-84.224370	-46.502616
01331		9.765086	-0.984238	-0.143247	-0.019687	-0.008059	0.023930	-98.483253	-84.209249	-46.448283
01332		9.732354	-0.980294	-0.133970	-0.018133	0.002628	0.032416	-98.480109	-84.190186	-46.461829
01333		9.659295	-0.952844	-0.152529	-0.027664	-0.000254	0.027905	-98.502834	-84.173469	-46.454873
01334		9.669989	-0.949021	-0.120711	-0.034927	0.000780	0.028311	-98.522943	-84.156575	-46.454718
01335		9.664984	-0.910956	-0.164798	-0.040445	-0.001370	0.023936	-98.562265	-84.142014	-46.438445
01336		9.712717	-0.966766	-0.152354	-0.040193	-0.003132	0.018475	-98.614951	-84.130358	-46.408576
01337		9.701566	-0.974955	-0.185090	-0.036182	-0.002407	0.018610	-98.661684	-84.118723	-46.382397
01338		9.719717	-1.013471	-0.221804	-0.030948	-0.004193	0.021319	-98.712198	-84.105359	-46.349383
01339		9.711863	-0.985583	-0.207366	-0.026207	-0.004558	0.024989	-98.759351	-84.089917	-46.317026
01340		9.679172	-0.981158	-0.198749	-0.029788	-0.013145	0.023161	-98.856101	-84.074718	-46.236860
01341		9.668194	-0.976753	-0.179509	-0.030564	-0.015650	0.022459	-98.967703	-84.059715	-46.142216
01342		9.689677	-0.978836	-0.170060	-0.022769	-0.014521	0.018251	-99.071212	-84.047140	-46.051205
01343		9.683194	-1.027640	-0.159998	-0.027997	-0.009904	0.019088	-99.152221	-84.034532	-45.985844
01344		9.737131	-1.036243	-0.159717	-0.043747	-0.005312	0.017328	-99.218037	-84.023294	-45.944814
01345		9.704222	-1.044157	-0.203642	-0.039944	0.000754	0.020087	-99.246983	-84.011085	-45.938685
01346		9.704012	-1.046071	-0.203805	-0.035155	0.003979	0.020924	-99.254404	-83.998664	-45.951419
01347		9.711357	-1.078102	-0.218767	-0.039120	0.009672	0.021497	-99.233672	-83.986475	-45.994734
01348		9.697262	-1.097112	-0.192044	-0.031696	-0.000311	0.021292	-99.261852	-83.973451	-45.984601
01349		9.754333	-1.082483	-0.196697	-0.018655	-0.000963	0.019810	-99.287910	-83.961235	-45.969114
01350		9.728019	-1.030869	-0.198353	0.000415	0.001924	0.025302	-99.282136	-83.946150	-45.974624
01351		9.683447	-0.943203	-0.163620	0.009402	-0.000230	0.030056	-99.279210	-83.928204	-45.972091
01352		9.685197	-0.845681	-0.165103	-0.002586	0.006838	0.033891	-99.241735	-83.908715	-46.011210
01353		9.683793	-0.771930	-0.161050	-0.015476	-0.001450	0.035566	-99.254870	-83.887547	-46.006911
01354		9.702021	-0.799159	-0.144222	-0.030723	0.004561	0.036392	-99.243672	-83.866433	-46.035819
01355		9.656506	-0.889644	-0.111270	-0.041422	0.010655	0.030023	-99.212811	-83.849520	-46.090668
01356		9.652748	-0.928535	-0.158034	-0.044415	0.010684	0.025116	-99.187263	-83.835342	-46.141902
01357		9.781087	-0.881419	-0.193024	-0.047828	0.001636	0.034124	-99.204132	-83.815284	-46.152446
01358		9.797906	-0.844880	-0.224938	-0.064079	0.015339	0.050340	-99.144792	-83.787261	-46.249008
01359		9.635843	-0.918032	-0.285209	-0.063317	0.017815	0.051017	-99.072984	-83.759117	-46.357675
01360		9.683316	-0.964149	-0.218558	-0.055585	0.012516	0.046084	-99.028261	-83.733225	-46.434647
01361		9.705441	-1.046266	-0.210718	-0.053594	0.015285	0.052883	-98.963884	-83.703778	-46.530286
01362		9.636802	-1.061372	-0.185063	-0.050481	0.006279	0.057947	-98.939709	-83.670603	-46.583652
01363		9.561543	-1.123361	-0.149098	-0.044029	-0.002907	0.049724	-98.966115	-83.641315	-46.582419
01364		9.593418	-1.134516	-0.159511	-0.042443	0.000056	0.041197	-98.982658	-83.617064	-46.590185
01365		9.701122	-1.152949	-0.157208	-0.040690	-0.000291	0.039968	-99.001565	-83.593527	-46.594600
01366		9.686309	-1.186382	-0.184436	-0.047759	-0.001768	0.041264	-99.030176	-83.569076	-46.593288
01367		9.683158	-1.290762	-0.183778	-0.046431	0.002913	0.038185	-99.037550	-83.546840	-46.612627
01368		9.736706	-1.302030	-0.182695	-0.037943	0.002127	0.043900	-99.038900	-83.521248	-46.633090
01369		9.726371	-1.466034	-0.223548	-0.020718	0.009411	0.037006	-99.000377	-83.500249	-46.683796
01370		9.675776	-1.515419	-0.233844	0.022580	0.011754	0.030063	-98.930540	-83.483344	-46.741007
01371		9.668113	-1.487931	-0.216920	0.053981	0.006602	0.019993	-98.876926	-83.471698	-46.763773
01372		9.645656	-1.412073	-0.222028	0.076422	0.009244	0.012254	-98.802879	-83.464641	-46.794174
01373		9.662764	-1.283100	-0.194862	0.086419	0.005001	0.008709	-98.747482	-83.459225	-46.800017
01374		9.712796	-1.238136	-0.181905	0.083662	0.008148	0.011817	-98.675223	-83.452312	-46.824444
01375		9.694679	-1.202913	-0.143689	0.075887	0.010604	0.013137	-98.595058	-83.444865	-46.861394
01376		9.658804	-1.220537	-0.126520	0.072113	0.008157	0.007525	-98.532761	-83.440378	-46.882454
01377		9.626402	-1.213924	-0.115081	0.075678	0.008255	-0.001290	-98.475092	-83.440897	-46.896936
01378		9.604575	-1.123337	-0.067705	0.075148	0.004026	-0.007444	-98.442469	-83.444540	-46.886376
01379		9.549769	-1.050910	-0.117331	0.067297	0.000073	-0.006840	-98.433893	-83.447515	-46.856130
01380		9.610202	-0.933189	-0.122922	0.046726	-0.004107	-0.016564	-98.464408	-83.455642	-46.798410
01381		9.695952	-0.881729	-0.180333	0.017166	-0.001234	-0.017579	-98.499070	-83.464588	-46.753596
01382		9.721200	-0.856644	-0.174756	-0.004079	0.001340	-0.023719	-98.537289	-83.477224	-46.717423
01383		9.722278	-0.918653	-0.125394	-0.028623	0.004904	-0.022951	-98.572060	-83.489742	-46.699071
01384		9.694051	-0.963171	-0.125227	-0.044494	0.002352	-0.019090	-98.625219	-83.499837	-46.671169
01385		9.719854	-1.015627	-0.123852	-0.046315	0.001900	-0.011516	-98.676534	-83.505608	-46.645918
01386		9.719044	-0.950356	-0.173418	-0.047156	-0.001389	-0.005858	-98.739969	-83.507879	-46.609209
01387		9.683360	-0.966182	-0.158494	-0.050126	0.001476	-0.007210	-98.792469	-83.511187	-46.585349
01388		9.701418	-1.002505	-0.195128	-0.045447	0.000279	0.002820	-98.839975	-83.508682	-46.563686
01389		9.662274	-1.042847	-0.174564	-0.044459	0.000254	0.004443	-98.886160	-83.505281	-46.542537
01390		9.698540	-1.104149	-0.194268	-0.037447	0.003722	0.013033	-98.903976	-83.497297	-46.546144
01391		9.702393	-1.158668	-0.204148	-0.034431	0.001641	0.008006	-98.934863	-83.491998	-46.534934
01392		9.702326	-1.159168	-0.204463	-0.035930	0.000261	0.003781	-98.976136	-83.488942	-46.514056
01393		9.698917	-1.183012	-0.198963	-0.028580	0.005623	0.004128	-98.986851	-83.486182	-46.519513
01394		9.698906	-1.183149	-0.198713	-0.024779	0.006041	-0.000192	-98.996176	-83.485891	-46.524359
01395		9.681204	-1.236144	-0.219316	-0.024991	0.008552	-0.001122	-98.994482	-83.486366	-46.540436
01396		9.630530	-1.205146	-0.225715	-0.008673	0.008912	0.000448	-98.979846	-83.485969	-46.560111
01397		9.604921	-1.150972	-0.226509	0.005858	0.003992	-0.003866	-98.985338	-83.487592	-46.551493
01398		9.608614	-1.114586	-0.178320	0.010667	0.007203	-0.003001	-98.970793	-83.488994	-46.559925
01399		9.669490	-1.074448	-0.187258	0.009171	0.005828	-0.007223	-98.967822	-83.492683	-46.557818
01400		9.680545	-1.067733	-0.154542	0.006627	0.003673	-0.006713	-98.976007	-83.495870	-46.545701
01401		9.709617	-1.097829	-0.158192	0.006359	0.005386	-0.001277	-98.972052	-83.496146	-46.545751
01402		9.695334	-1.127052	-0.184146	0.004654	0.006524	-0.006427	-98.966996	-83.499426	-46.548099
01403		9.745264	-1.092709	-0.225436	0.002879	0.004051	-0.008762	-98.977595	-83.503826	-46.535788
01404		9.724536	-1.156234	-0.186979	-0.001335	0.011466	-0.002752	-98.948516	-83.505467	-46.565768
01405		9.721035	-1.191621	-0.233525	0.004219	0.008737	-0.011833	-98.937454	-83.512003	-46.574172
01406		9.682124	-1.230240	-0.211773	0.012038	0.007065	-0.019539	-98.935716	-83.522753	-46.568922
01407		9.660945	-1.215291	-0.168933	0.016341	0.008879	-0.021268	-98.924390	-83.534651	-46.570914
01408		9.672158	-1.207259	-0.135577	0.022628	0.010654	-0.019734	-98.898772	-83.545829	-46.583591
01409		9.671551	-1.140468	-0.183694	0.022317	0.001118	-0.028499	-98.928521	-83.561123	-46.540700
01410		9.681850	-1.067627	-0.199916	0.024810	0.005287	-0.019099	-98.928069	-83.571465	-46.526793
01411		9.703196	-0.976718	-0.130637	0.015006	0.006997	-0.014658	-98.921766	-83.579452	-46.524654
01412		9.685749	-1.028430	-0.150891	0.011471	0.004859	-0.015778	-98.928518	-83.587877	-46.511188
01413		9.685901	-1.027080	-0.150336	0.002160	0.005154	-0.012293	-98.936969	-83.594366	-46.501585
01414		9.656968	-0.995321	-0.145678	0.004200	0.005910	-0.015398	-98.942338	-83.602669	-46.493704
01415		9.686223	-1.024237	-0.148962	0.000739	0.010192	-0.015789	-98.929163	-83.611583	-46.507054
01416		9.689703	-0.999342	-0.153682	-0.002572	0.008357	-0.012428	-98.923673	-83.618423	-46.514003
01417		9.697268	-1.028121	-0.168591	-0.006668	0.001216	-0.013319	-98.957923	-83.625135	-46.483209
01418		9.700695	-1.003610	-0.173830	0.001888	0.006872	-0.006857	-98.952974	-83.628690	-46.487042
01419		9.700792	-1.002788	-0.173153	-0.000097	0.006906	-0.010123	-98.952028	-83.634108	-46.487817
01420		9.719223	-1.026027	-0.155729	-0.001422	0.005038	-0.003495	-98.955590	-83.635597	-46.484996
01421		9.700913	-1.001819	-0.171982	-0.000645	0.007531	-0.002794	-98.946012	-83.636927	-46.494991
01422		9.708387	-1.031635	-0.186762	-0.001700	0.003943	-0.001606	-98.953779	-83.637248	-46.488099
01423		9.694328	-1.048643	-0.159778	-0.008471	0.006390	0.001365	-98.951293	-83.636110	-46.495505
01424		9.680117	-1.078269	-0.185965	-0.005724	0.003220	-0.001768	-98.965161	-83.636458	-46.484794
01425		9.676808	-1.101789	-0.180164	-0.005010	0.002109	0.001755	-98.981952	-83.634726	-46.470672
01426		9.655175	-1.101165	-0.191347	-0.013995	0.001471	-0.006573	-99.013298	-83.637636	-46.447143
01427		9.687670	-1.107416	-0.200926	-0.003191	0.002561	-0.005831	-99.033006	-83.640226	-46.429180
01428		9.698649	-1.100657	-0.168593	-0.005453	0.001501	-0.007209	-99.059866	-83.643496	-46.405241
01429		9.684534	-1.129509	-0.194926	0.000118	0.004396	-0.009193	-99.070959	-83.648154	-46.393784
01430		9.673753	-1.134719	-0.226516	0.013953	0.006228	-0.009921	-99.064909	-83.653385	-46.391771
01431		9.677313	-1.097673	-0.178188	0.020731	0.006595	-0.009342	-99.053196	-83.658327	-46.391549
01432		9.732397	-1.180903	-0.179921	0.019239	0.005211	-0.013570	-99.052248	-83.665531	-46.381355
01433		9.714300	-1.143330	-0.142933	0.022213	0.005160	-0.008671	-99.046463	-83.669959	-46.374322
01434		9.671018	-1.154041	-0.217901	0.027770	0.002422	-0.017760	-99.058294	-83.679283	-46.346353
01435		9.674601	-1.116550	-0.169480	0.035824	0.009497	-0.010343	-99.023669	-83.685037	-46.359806
01436		9.678059	-1.091763	-0.173927	0.026563	0.007754	-0.016786	-99.008125	-83.694290	-46.360076
01437		9.738923	-1.050341	-0.182535	0.022044	0.008445	-0.015992	-98.991587	-83.703158	-46.364168
01438		9.739090	-1.048974	-0.181456	0.014003	0.009814	-0.012765	-98.969354	-83.710319	-46.378406
01439		9.728365	-1.054003	-0.212538	0.019509	0.009105	-0.011931	-98.947436	-83.716951	-46.389264
01440		9.645318	-1.002784	-0.156050	0.017469	0.008351	-0.008824	-98.927479	-83.721751	-46.399215
01441		9.677886	-1.008512	-0.165082	0.010410	0.001251	-0.014608	-98.953419	-83.729200	-46.367351
01442		9.687938	-0.923755	-0.128908	0.005614	-0.001967	-0.015466	-98.998842	-83.736836	-46.318363
01443		9.702089	-0.905815	-0.155556	0.002532	-0.000665	-0.004066	-99.030496	-83.738165	-46.285224
01444		9.688073	-0.922322	-0.129038	-0.001213	-0.000298	-0.006118	-99.063681	-83.740656	-46.252482
01445		9.666445	-0.921713	-0.140494	-0.009310	-0.002525	-0.000059	-99.108793	-83.739535	-46.213115
01446		9.663141	-0.945516	-0.135266	-0.013387	-0.004029	0.006158	-99.158036	-83.734737	-46.171236
01447		9.698794	-0.929406	-0.150940	-0.015367	-0.001183	0.006438	-99.193925	-83.730058	-46.143943
01448		9.680368	-0.905977	-0.168165	-0.024127	-0.001526	0.002590	-99.239301	-83.727500	-46.112144
01449		9.630481	-0.952659	-0.179619	-0.019332	0.001690	0.003448	-99.264954	-83.724789	-46.097289
01450		9.731038	-0.950085	-0.214124	-0.020598	0.003429	0.007254	-99.278864	-83.720048	-46.095111
01451		9.709348	-0.950125	-0.225389	-0.027103	0.001331	0.001230	-99.312977	-83.718529	-46.076367
01452		9.750294	-1.051848	-0.200958	-0.022300	0.010181	0.009190	-99.291541	-83.713319	-46.110730
01453		9.736107	-1.070071	-0.173828	-0.024895	0.007238	0.016077	-99.281666	-83.703949	-46.134989
01454		9.721855	-1.088782	-0.146868	-0.015641	0.006162	0.018967	-99.268939	-83.692837	-46.156752
01455		9.689117	-1.096649	-0.189893	-0.012668	0.006113	0.023868	-99.251563	-83.678980	-46.182239
01456		9.655534	-1.014972	-0.175701	-0.008152	0.005420	0.023071	-99.235070	-83.665478	-46.203475
01457		9.644518	-1.010670	-0.154640	-0.015491	0.000046	0.022716	-99.251159	-83.651688	-46.196189
01458		9.622662	-1.012248	-0.166027	-0.014442	0.000817	0.017975	-99.265918	-83.640644	-46.189607
01459		9.626668	-1.067305	-0.175717	-0.016642	0.003358	0.013772	-99.272797	-83.632215	-46.191335
01460		9.677209	-1.112037	-0.221584	-0.013673	0.000493	0.015123	-99.291055	-83.622754	-46.180788
01461		9.766972	-1.091339	-0.182119	-0.006122	0.000540	0.012860	-99.307107	-83.614593	-46.167982
01462		9.780894	-1.075978	-0.208490	-0.000391	0.002945	0.021731	-99.299852	-83.601622	-46.175451
01463		9.741557	-1.118487	-0.187259	0.002366	0.005400	0.025699	-99.275939	-83.586648	-46.197879
01464		9.698082	-1.107455	-0.156229	0.006385	0.003309	0.022312	-99.262599	-83.573382	-46.207564
01465		9.679510	-1.085911	-0.172632	0.007871	0.004685	0.026534	-99.238573	-83.557852	-46.226540
01466		9.625156	-1.081146	-0.173921	0.003068	0.001471	0.025666	-99.233710	-83.542519	-46.229607
01467		9.632431	-1.100708	-0.136089	-0.008944	0.000103	0.018801	-99.248723	-83.530956	-46.219614
01468		9.660603	-1.055688	-0.136091	-0.003654	-0.000912	0.015161	-99.268083	-83.521344	-46.202179
01469		9.700280	-1.094099	-0.161488	-0.008244	-0.006634	0.015226	-99.318897	-83.511188	-46.155756
01470		9.700089	-1.095689	-0.162151	-0.007747	-0.005239	0.017814	-99.359748	-83.499671	-46.119051
01471		9.663332	-1.049449	-0.196288	-0.006690	-0.001654	0.016626	-99.383496	-83.489182	-46.098882
01472		9.688159	-1.028078	-0.190809	-0.007464	-0.001336	0.019470	-99.403294	-83.477090	-46.083202
01473		9.691996	-1.083293	-0.200910	-0.012978	-0.003431	0.015081	-99.440480	-83.467289	-46.052615
01474		9.728140	-1.157922	-0.273489	-0.006618	0.004758	0.017350	-99.431347	-83.456966	-46.065567
01475		9.732078	-1.200466	-0.229763	-0.003090	0.004081	0.014925	-99.426161	-83.447959	-46.072525
01476		9.692021	-1.177423	-0.257120	0.005809	0.011613	0.013139	-99.379710	-83.440658	-46.115874
01477		9.652815	-1.206116	-0.182026	0.009337	0.010935	0.010714	-99.337299	-83.434664	-46.153191
01478		9.637861	-1.159559	-0.203312	0.012865	0.010257	0.008290	-99.297544	-83.429971	-46.185732
01479		9.645273	-1.177698	-0.164585	0.014342	0.006013	0.005419	-99.280622	-83.426522	-46.194441
01480		9.666867	-1.178632	-0.152671	0.010809	0.003882	0.004297	-99.276585	-83.423496	-46.192213
01481		9.705966	-1.151385	-0.226159	0.009322	0.002508	0.000075	-99.284271	-83.422761	-46.180001
01482		9.699286	-1.185712	-0.161339	0.009393	0.006113	-0.002745	-99.275743	-83.423922	-46.183111
01483		9.695848	-1.221596	-0.208039	0.014689	0.007904	-0.002836	-99.255815	-83.425331	-46.194694
01484		9.649295	-1.231395	-0.171278	0.012849	0.001828	-0.002349	-99.266011	-83.425873	-46.176962
01485		9.659388	-1.185667	-0.293678	0.024497	0.006184	-0.007265	-99.252590	-83.429605	-46.176365
01486		9.656200	-1.195720	-0.233978	0.032329	0.007313	-0.011416	-99.231948	-83.435781	-46.178440
01487		9.699650	-1.195393	-0.210242	0.034372	0.008063	-0.014522	-99.209511	-83.443784	-46.181402
01488		9.710695	-1.187912	-0.176741	0.046931	0.008788	-0.014994	-99.176036	-83.452118	-46.187973
01489		9.688610	-1.109090	-0.182629	0.045162	0.009122	-0.013790	-99.141391	-83.459778	-46.196229
01490		9.709785	-1.030997	-0.165950	0.057221	0.008445	-0.016857	-99.105090	-83.469134	-46.199711
01491		9.684328	-0.962803	-0.113515	0.035060	0.004114	-0.014570	-99.101601	-83.476804	-46.183065
01492		9.673651	-0.967462	-0.145069	0.017770	0.003778	-0.017785	-99.111711	-83.486262	-46.162584
01493		9.685282	-1.049726	-0.169394	0.010929	0.002638	-0.011998	-99.127553	-83.492369	-46.141245
01494		9.739438	-1.056316	-0.167269	0.015871	0.002551	-0.003837	-99.133793	-83.493824	-46.125755
01495		9.703629	-1.072963	-0.151636	0.015029	0.002092	0.005376	-99.135858	-83.490031	-46.114768
01496		9.648839	-0.988862	-0.149339	0.008254	-0.001079	0.001257	-99.160381	-83.488273	-46.085268
01497		9.673847	-0.965651	-0.144007	-0.013828	-0.004617	-0.002806	-99.218826	-83.488493	-46.034378
01498		9.680630	-0.918143	-0.155739	-0.022015	0.000060	-0.006893	-99.261598	-83.491443	-46.003967
01499		9.670604	-0.975374	-0.085942	-0.039864	0.000355	-0.002783	-99.310367	-83.492097	-45.977765
01500		9.682153	-1.046066	-0.058143	-0.044170	-0.001457	-0.001060	-99.368652	-83.491603	-45.944517
01501		9.642985	-1.098501	-0.091105	-0.045165	-0.004260	-0.006242	-99.446012	-83.493793	-45.892571
01502		9.603856	-1.163005	-0.177196	-0.038047	-0.002028	-0.013926	-99.514284	-83.500507	-45.845741
01503		9.599935	-1.120374	-0.221503	-0.026762	-0.007997	-0.021227	-99.612193	-83.510763	-45.761686
01504		9.762282	-1.153321	-0.270650	-0.021604	-0.010597	-0.012130	-99.712395	-83.515621	-45.673239
01505		9.780635	-1.188875	-0.307312	-0.005655	0.004012	-0.008145	-99.728246	-83.519641	-45.660969
01506		9.806398	-1.255019	-0.358502	0.004303	0.001812	-0.001726	-99.743184	-83.519813	-45.643396
01507		9.744955	-1.204858	-0.290997	0.030767	0.010783	-0.002193	-99.699303	-83.521120	-45.669818
01508		9.713336	-1.262356	-0.230721	0.046574	0.012558	0.000345	-99.634821	-83.521158	-45.707801
01509		9.662624	-1.231801	-0.236282	0.060331	0.010762	0.002436	-99.570370	-83.519838	-45.738303
01510		9.640313	-1.141506	-0.188735	0.072450	0.010869	-0.007008	-99.505609	-83.523862	-45.761645
01511		9.618081	-1.037568	-0.088208	0.075749	0.009860	-0.013935	-99.450050	-83.531714	-45.773780
01512		9.642467	-0.948591	-0.130445	0.051403	0.005241	-0.019389	-99.435590	-83.542201	-45.758635
01513		9.663490	-0.870125	-0.114542	0.027280	0.003760	-0.016808	-99.440864	-83.551098	-45.738003
01514		9.724401	-0.841636	-0.176984	-0.002620	-0.000909	-0.016705	-99.485963	-83.559488	-45.694070
01515		9.685405	-0.880258	-0.156050	-0.035206	0.004012	-0.012773	-99.522417	-83.566145	-45.678036
01516		9.683004	-0.966657	-0.101132	-0.051505	0.003645	-0.014356	-99.570925	-83.573634	-45.658861
01517		9.676485	-1.025170	-0.143158	-0.061595	0.001451	-0.011583	-99.634624	-83.579343	-45.630381
01518		9.630851	-1.123932	-0.164599	-0.060120	0.000008	-0.010918	-99.703563	-83.584535	-45.595613
01519		9.663438	-1.129573	-0.174854	-0.053849	-0.001039	-0.012936	-99.776541	-83.590762	-45.553069
01520		9.681883	-1.152130	-0.158744	-0.046370	-0.004604	-0.012380	-99.862252	-83.596319	-45.493496
01521		9.692823	-1.170350	-0.233748	-0.049193	-0.005041	-0.006437	-99.947151	-83.598483	-45.436491
01522		9.753637	-1.129494	-0.244389	-0.041647	-0.007817	-0.012253	-100.046431	-83.603628	-45.360544
01523		9.771197	-1.075018	-0.224383	-0.028313	-0.004577	-0.012018	-100.122367	-83.608995	-45.301502
01524		9.717217	-1.066719	-0.226731	-0.023797	-0.002458	-0.009263	-100.181975	-83.612972	-45.255185
01525		9.680647	-1.018140	-0.261033	-0.014545	-0.003537	-0.006362	-100.239316	-83.615222	-45.205415
01526		9.666555	-1.034744	-0.234844	-0.007768	-0.000354	-0.002225	-100.272817	-83.615437	-45.176125
01527		9.648263	-1.010543	-0.251747	-0.003466	0.001463	-0.003949	-100.296443	-83.616847	-45.154122
01528		9.702398	-1.017347	-0.249807	0.001826	0.003264	-0.004038	-100.307884	-83.618452	-45.141500
01529		9.685008	-1.057595	-0.217284	0.012627	0.004359	-0.003282	-100.307427	-83.619711	-45.133823
01530		9.670942	-1.074216	-0.189947	0.017981	0.009760	-0.006198	-100.278837	-83.623198	-45.152168
01531		9.706774	-1.057090	-0.204091	0.011914	0.008280	-0.003262	-100.258664	-83.624888	-45.164773
01532		9.674373	-1.049823	-0.193967	0.014113	0.000114	-0.006153	-100.280909	-83.627364	-45.134196
01533		9.713490	-1.009188	-0.214395	0.015379	0.004003	-0.002862	-100.280335	-83.628364	-45.125399
01534		9.695166	-0.972463	-0.177530	0.008879	0.007539	-0.001796	-100.264116	-83.629142	-45.136542
01535		9.713511	-0.996267	-0.159882	-0.002694	0.006767	0.000297	-100.256936	-83.628700	-45.145569
01536		9.684360	-0.965925	-0.155324	-0.013989	0.007087	0.000497	-100.254005	-83.628138	-45.156526
01537		9.684400	-0.965609	-0.154825	-0.031999	0.007821	-0.006270	-100.264575	-83.631477	-45.164629
01538		9.662816	-0.964905	-0.165720	-0.042094	0.008425	0.000042	-100.271400	-83.631310	-45.181973
01539		9.637898	-0.988025	-0.171287	-0.052683	0.004814	0.000207	-100.302588	-83.630717	-45.180628
01540		9.660527	-1.077846	-0.217292	-0.055166	0.006251	-0.002119	-100.329865	-83.631547	-45.184928
01541		9.689742	-1.107727	-0.221375	-0.058423	0.005197	-0.005150	-100.367933	-83.633955	-45.180164
01542		9.683203	-1.154229	-0.210388	-0.051650	0.005563	-0.004564	-100.398945	-83.636092	-45.178680
01543		9.712440	-1.184008	-0.214327	-0.037813	0.007404	-0.005265	-100.413722	-83.638775	-45.184150
01544		9.686647	-1.129508	-0.215709	-0.029823	0.002445	-0.005652	-100.449018	-83.641201	-45.165771
01545		9.729079	-1.065110	-0.241686	-0.018244	0.006040	-0.004174	-100.458748	-83.643158	-45.166240
01546		9.742246	-0.958138	-0.209972	-0.019736	0.010274	-0.001302	-100.444623	-83.643946	-45.191773
01547		9.706510	-0.974740	-0.194082	-0.019737	0.010273	-0.001304	-100.430828	-83.644691	-45.215438
01548		9.684903	-0.974317	-0.205031	-0.023111	0.002018	0.001314	-100.457959	-83.643147	-45.201405
01549		9.689139	-1.028010	-0.214845	-0.031387	0.005871	0.003580	-100.468745	-83.640750	-45.208734
01550		9.699969	-1.034700	-0.235445	-0.034644	0.007628	0.004105	-100.471505	-83.638217	-45.225873
01551		9.693332	-1.082210	-0.224050	-0.032387	0.008686	0.005488	-100.467219	-83.635047	-45.249855
01552		9.682429	-1.076328	-0.202703	-0.030902	0.007254	0.006163	-100.467824	-83.631315	-45.267005
01553		9.693231	-1.083293	-0.223198	-0.021361	0.007283	0.007199	-100.462087	-83.627013	-45.284250
01554		9.671592	-1.083238	-0.233904	-0.023281	0.010925	0.001102	-100.444541	-83.626514	-45.315269
01555		9.703918	-1.078208	-0.189456	-0.020099	0.011160	0.010499	-100.415872	-83.620682	-45.354233
01556		9.682253	-1.078431	-0.199910	-0.015506	0.011285	0.003347	-100.390017	-83.618952	-45.389131
01557		9.725585	-1.091824	-0.229476	-0.010981	0.010605	0.002569	-100.366272	-83.617625	-45.419743
01558		9.668166	-1.108525	-0.225032	-0.012532	0.008426	0.004705	-100.351899	-83.614832	-45.441372
01559		9.715603	-1.163126	-0.211699	-0.014513	0.008463	0.001427	-100.342340	-83.613885	-45.459606
01560		9.694012	-1.162708	-0.222289	-0.012962	0.010641	-0.000711	-100.322046	-83.614372	-45.487442
01561		9.734098	-1.199249	-0.245966	-0.007327	0.019957	-0.001927	-100.253062	-83.616513	-45.560846
01562		9.647763	-1.197358	-0.289402	0.009286	0.021470	-0.002153	-100.166715	-83.618906	-45.642320
01563		9.604506	-1.183856	-0.256791	0.019118	0.019801	-0.006550	-100.086999	-83.623639	-45.710924
01564		9.680304	-1.190942	-0.241691	0.024078	0.014104	-0.005466	-100.032185	-83.627140	-45.752141
01565		9.708486	-1.131126	-0.186394	0.037446	0.011773	-0.012277	-99.987337	-83.634235	-45.773797
01566		9.701056	-1.100174	-0.169376	0.041189	0.011400	-0.010213	-99.940498	-83.640139	-45.797123
01567		9.718728	-1.058385	-0.199392	0.037991	0.016757	-0.012516	-99.870530	-83.647883	-45.845187
01568		9.729792	-1.063670	-0.218187	0.037487	0.018162	-0.011567	-99.792516	-83.655206	-45.902014
01569		9.722591	-1.044955	-0.253791	0.041020	0.017493	-0.013988	-99.718191	-83.663797	-45.952088
01570		9.671986	-1.013178	-0.258865	0.045029	0.021018	-0.010265	-99.619859	-83.670642	-46.025008
01571		9.657677	-1.016971	-0.176984	0.051535	0.017491	-0.011323	-99.537275	-83.677733	-46.078636
01572		9.682686	-0.992968	-0.169116	0.055710	0.012104	-0.007392	-99.475528	-83.682089	-46.108589
01573		9.654326	-1.026620	-0.114615	0.058457	0.011744	-0.006974	-99.413648	-83.686194	-46.136410
01574		9.696813	-0.962253	-0.139056	0.056900	0.009563	-0.004842	-99.361930	-83.688864	-46.155585
01575		9.653140	-0.936281	-0.054412	0.042496	0.005523	-0.000391	-99.336577	-83.688630	-46.157516
01576		9.678290	-0.925775	-0.100886	0.025122	0.004344	0.002698	-99.323389	-83.686550	-46.156246
01577		9.689502	-0.944786	-0.174521	0.016602	-0.001316	-0.003795	-99.350215	-83.687658	-46.120776
01578		9.681859	-0.914993	-0.159080	0.007470	0.002078	0.007684	-99.354514	-83.682548	-46.112086
01579		9.707693	-0.969602	-0.157118	0.004716	0.002428	0.007253	-99.359451	-83.677706	-46.103806
01580		9.657860	-1.016660	-0.168553	0.013759	0.001055	0.005697	-99.367014	-83.673624	-46.088208
01581		9.629613	-1.063900	-0.168844	0.019499	-0.004961	0.003950	-99.404038	-83.669993	-46.040092
01582		9.662055	-1.071197	-0.178850	0.015914	-0.010696	0.005653	-99.470180	-83.664830	-45.964311
01583		9.708464	-1.048769	-0.162358	0.014707	-0.008177	0.003074	-99.526726	-83.661360	-45.898498
01584		9.733550	-1.038713	-0.210263	0.012159	-0.007521	0.007128	-99.577416	-83.655648	-45.840428
01585		9.686982	-1.062282	-0.228208	0.004115	-0.008970	0.006779	-99.640380	-83.650053	-45.774756
01586		9.647765	-1.103204	-0.208367	0.015411	-0.009287	0.006601	-99.698414	-83.644456	-45.707421
01587		9.686757	-1.064040	-0.229575	0.018360	-0.006523	0.015057	-99.733954	-83.634377	-45.661641
01588		9.708168	-1.065885	-0.218554	0.022379	-0.005801	0.015227	-99.762613	-83.624237	-45.619844
01589		9.671477	-1.019540	-0.252834	0.024425	-0.005050	0.012122	-99.789304	-83.615987	-45.579567
01590		9.678682	-1.038274	-0.215151	0.027665	-0.004008	0.015136	-99.805773	-83.606070	-45.546988
01591		9.670944	-1.009675	-0.200023	0.026676	-0.003995	0.013496	-99.824306	-83.597054	-45.511376
01592		9.667470	-1.034555	-0.194561	0.015381	-0.003672	0.013678	-99.847244	-83.587990	-45.479368
01593		9.696507	-1.066108	-0.198289	0.015228	0.002425	0.009902	-99.843771	-83.581703	-45.475383
01594		9.718683	-1.131709	-0.137551	0.004932	-0.000076	0.008182	-99.859356	-83.576093	-45.456799
01595		9.690364	-1.178921	-0.137786	-0.001549	-0.002165	0.002150	-99.894757	-83.573748	-45.422696
01596		9.701237	-1.185682	-0.158793	-0.004800	-0.000396	0.002676	-99.922272	-83.571212	-45.397717
01597		9.661392	-1.161475	-0.187505	-0.009797	-0.003914	-0.002672	-99.975705	-83.571403	-45.350999
01598		9.682346	-1.096940	-0.225724	-0.010005	-0.004223	-0.007154	-100.034016	-83.574029	-45.298030
01599		9.736488	-1.103514	-0.224169	-0.011001	-0.001395	-0.005250	-100.077761	-83.575832	-45.259991
01600		9.682458	-1.095796	-0.226496	-0.006266	-0.004593	-0.005092	-100.134017	-83.577246	-45.206935
01601		9.685836	-1.071824	-0.232201	0.001831	0.003256	-0.004043	-100.146299	-83.578843	-45.193898
01602		9.689224	-1.047773	-0.237796	-0.001964	-0.002782	-0.006815	-100.192605	-83.581406	-45.148375
01603		9.685738	-1.058042	-0.179248	-0.000207	-0.000308	-0.004483	-100.223690	-83.582919	-45.116682
01604		9.718288	-1.064356	-0.188738	-0.003947	0.000061	-0.006546	-100.256693	-83.585613	-45.085689
01605		9.660952	-1.080090	-0.184832	-0.015187	0.006792	-0.005653	-100.262298	-83.588468	-45.088563
01606		9.697799	-1.139746	-0.203384	-0.008620	0.006851	-0.009539	-100.266658	-83.593542	-45.089088
01607		9.687026	-1.132180	-0.182050	0.000917	0.004054	-0.012057	-100.282980	-83.599709	-45.072400
01608		9.719657	-1.137977	-0.190841	0.000688	0.009370	-0.009455	-100.269275	-83.604992	-45.085737
01609		9.654818	-1.123060	-0.171359	-0.000559	0.002670	-0.016285	-100.296636	-83.613504	-45.059270
01610		9.712423	-1.104970	-0.174588	-0.000497	0.006263	-0.019121	-100.308116	-83.623919	-45.047947
01611		9.669461	-1.102545	-0.197027	-0.002814	0.001607	-0.017668	-100.343268	-83.633102	-45.014445
01612		9.705451	-1.084253	-0.211945	-0.003594	0.001929	-0.014823	-100.374580	-83.640647	-44.984954
01613		9.647461	-1.034845	-0.257092	-0.002827	0.004418	-0.014127	-100.392665	-83.648087	-44.968552
01614		9.690791	-1.034081	-0.233830	-0.001560	0.005493	-0.014384	-100.404467	-83.655750	-44.957519
01615		9.661980	-1.015231	-0.282628	0.001900	0.004037	-0.010424	-100.418665	-83.661027	-44.942242
01616		9.701997	-1.038154	-0.253702	0.006980	0.005528	-0.014995	-100.426020	-83.669038	-44.930761
01617		9.713055	-1.043581	-0.273854	0.010427	0.006885	-0.007491	-100.418366	-83.673071	-44.935104
01618		9.688042	-1.053101	-0.225754	0.017772	0.006624	-0.014225	-100.413255	-83.680762	-44.929943
01619		9.684911	-1.075409	-0.219181	0.019525	0.009099	-0.011893	-100.393215	-83.687421	-44.939910
01620		9.695695	-1.068208	-0.185698	0.014004	0.012613	-0.009208	-100.355018	-83.692902	-44.970210
01621		9.720995	-1.056671	-0.231386	0.015329	0.017279	-0.012305	-100.295074	-83.700638	-45.020723
01622		9.728515	-1.072879	-0.191532	0.011574	0.020455	-0.010831	-100.219527	-83.707827	-45.090000
01623		9.696500	-1.077515	-0.233107	0.003107	0.021192	-0.016606	-100.150535	-83.718403	-45.158106
01624		9.675126	-1.075929	-0.242368	0.005563	0.022566	-0.010741	-100.067159	-83.725735	-45.238722
01625		9.639511	-1.091499	-0.225117	0.003589	0.022588	-0.014021	-99.988561	-83.734866	-45.315873
01626		9.653947	-1.073157	-0.249421	0.012348	0.020123	-0.013686	-99.916120	-83.743594	-45.381575
01627		9.671294	-1.018492	-0.226108	0.014655	0.024773	-0.015149	-99.820302	-83.753596	-45.469991
01628		9.668227	-1.040648	-0.217994	0.018893	0.022995	-0.014035	-99.729148	-83.762778	-45.550742
01629		9.682289	-1.009268	-0.189343	0.021902	0.014510	-0.019747	-99.685453	-83.774346	-45.581545
01630		9.728889	-0.984420	-0.170311	0.018143	0.017684	-0.018279	-99.625538	-83.785396	-45.631302
01631		9.725404	-0.993500	-0.109865	0.012579	0.014793	-0.016299	-99.582542	-83.795057	-45.667492
01632		9.747131	-0.992218	-0.096831	0.010810	0.015130	-0.015093	-99.536991	-83.804055	-45.707024
01633		9.733472	-1.020689	-0.122038	0.008000	0.011892	-0.012680	-99.508440	-83.811331	-45.730474
01634		9.690518	-1.018993	-0.143548	0.004521	0.016152	-0.013110	-99.459222	-83.819299	-45.777318
01635		9.669143	-1.017325	-0.153530	-0.005484	0.014717	-0.016738	-99.426902	-83.829175	-45.812917
01636		9.630752	-1.068888	-0.184608	-0.007253	0.015054	-0.015531	-99.392041	-83.838402	-45.852105
01637		9.671292	-1.103979	-0.207779	-0.003215	0.012963	-0.018901	-99.369971	-83.849257	-45.876260
01638		9.721908	-1.119816	-0.145386	0.011361	0.017296	-0.018897	-99.315342	-83.860591	-45.924600
01639		9.740459	-1.141660	-0.126527	0.026408	0.013815	-0.020539	-99.271771	-83.872614	-45.953798
01640		9.732908	-1.109720	-0.109755	0.034662	0.012769	-0.019248	-99.227607	-83.883721	-45.978185
01641		9.669860	-0.993986	-0.091522	0.028596	0.011290	-0.016318	-99.192777	-83.893079	-45.997742
01642		9.704487	-0.898285	-0.101627	0.013820	0.006630	-0.020815	-99.194195	-83.904508	-45.988296
01643		9.703271	-0.819550	-0.097155	0.000687	0.006509	-0.013044	-99.197153	-83.911666	-45.986192
01644		9.707151	-0.807511	-0.155083	-0.015067	0.011076	-0.014950	-99.186516	-83.920185	-46.005515
01645		9.708675	-0.883216	-0.158133	-0.024640	0.007457	-0.013140	-99.199912	-83.927360	-46.007049
01646		9.683487	-0.892598	-0.110460	-0.023936	0.006363	-0.009601	-99.214793	-83.932421	-46.005820
01647		9.673065	-0.898227	-0.142442	-0.023510	0.004185	-0.004160	-99.236485	-83.934225	-45.996746
01648		9.705115	-0.891817	-0.098567	-0.026821	0.002360	-0.000796	-99.266723	-83.933939	-45.981734
01649		9.683027	-0.878786	-0.057130	-0.026596	-0.000140	0.000151	-99.309278	-83.932982	-45.954494
01650		9.733017	-0.845503	-0.098716	-0.030011	0.000086	0.013450	-99.340980	-83.924428	-45.939848
01651		9.696251	-0.799480	-0.133317	-0.033324	-0.001743	0.016810	-99.380986	-83.913911	-45.918619
01652		9.642011	-0.794078	-0.136044	-0.052376	-0.001832	0.014708	-99.434392	-83.904465	-45.895032
01653		9.656967	-0.842759	-0.114804	-0.070559	-0.018319	0.015690	-99.584420	-83.892986	-45.784966
01654		9.762338	-0.894235	-0.160280	-0.082374	-0.016634	0.016773	-99.730759	-83.880939	-45.685200
01655		9.747363	-1.090634	-0.138625	-0.079606	-0.010601	0.017885	-99.843126	-83.868829	-45.618132
01656		9.698110	-1.151570	-0.205470	-0.071860	-0.010242	0.020123	-99.945953	-83.855477	-45.556066
01657		9.673076	-1.176673	-0.213381	-0.059841	-0.014454	0.019946	-100.063940	-83.841895	-45.472408
01658		9.664530	-1.136050	-0.146976	-0.060355	-0.013057	0.020883	-100.173407	-83.827805	-45.397030
01659		9.649229	-1.090432	-0.171678	-0.052835	-0.019396	0.017929	-100.313469	-83.814678	-45.283335
01660		9.706826	-1.087854	-0.230907	-0.054367	-0.024383	0.016512	-100.481547	-83.801841	-45.145546
01661		9.687854	-1.052870	-0.197484	-0.057077	-0.020456	0.013226	-100.633786	-83.791197	-45.024051
01662		9.701476	-1.024459	-0.173212	-0.061614	-0.019794	0.013977	-100.783626	-83.780195	-44.908780
01663		9.665931	-1.054973	-0.214018	-0.067644	-0.017712	0.014038	-100.926392	-83.769423	-44.805584
01664		9.701565	-1.039141	-0.231101	-0.074886	-0.013114	0.011516	-101.051029	-83.760474	-44.723311
01665		9.684786	-1.105152	-0.307726	-0.076315	-0.010909	0.004424	-101.172807	-83.755706	-44.644408
01666		9.721329	-1.153120	-0.275507	-0.062922	-0.004030	0.001905	-101.253266	-83.753136	-44.599678
01667		9.725769	-1.206675	-0.286233	-0.050810	0.004574	0.003201	-101.281562	-83.750807	-44.599872
01668		9.687148	-1.259189	-0.319336	-0.047700	0.006127	-0.004640	-101.307830	-83.753047	-44.600883
01669		9.672993	-1.275802	-0.293169	-0.030845	0.002372	-0.007450	-101.347149	-83.756408	-44.578239
01670		9.637311	-1.291877	-0.278306	-0.013948	0.005021	-0.009520	-101.364815	-83.761265	-44.568449
01671		9.651714	-1.273409	-0.304262	0.005952	0.002031	-0.013771	-101.391642	-83.768154	-44.538111
01672		9.683200	-1.201757	-0.308326	0.026093	0.005731	-0.012796	-101.386155	-83.774931	-44.528534
01673		9.700480	-1.147004	-0.286094	0.035474	-0.000100	-0.023333	-101.416897	-83.786969	-44.477323
01674		9.728310	-1.086224	-0.231458	0.037686	0.006554	-0.014825	-101.402682	-83.794979	-44.469845
01675		9.742304	-1.055202	-0.203107	0.037008	0.014061	-0.017635	-101.352995	-83.805441	-44.497984
01676		9.696217	-1.076115	-0.218960	0.033556	0.012710	-0.025177	-101.319934	-83.819959	-44.511842
01677		9.693740	-1.109684	-0.265095	0.038566	0.013429	-0.023347	-101.278044	-83.833509	-44.529867
01678		9.666030	-1.154468	-0.263882	0.044840	0.015229	-0.021768	-101.221608	-83.846391	-44.560732
01679		9.677344	-1.158767	-0.282584	0.065968	0.016103	-0.022735	-101.149177	-83.859863	-44.593429
01680		9.676282	-1.079650	-0.275770	0.085058	0.013398	-0.024174	-101.081332	-83.873888	-44.612592
01681		9.685675	-0.994711	-0.236781	0.093516	0.012652	-0.018395	-101.006606	-83.884574	-44.633192
01682		9.680780	-0.927004	-0.171578	0.097313	0.013057	-0.022738	-100.931656	-83.897748	-44.652438
01683		9.662135	-0.888799	-0.133370	0.091221	0.011530	-0.019859	-100.865498	-83.909119	-44.665857
01684		9.674603	-0.780022	-0.100475	0.075170	0.012147	-0.023467	-100.808414	-83.922601	-44.679894
01685		9.696855	-0.790869	-0.140563	0.048967	0.009764	-0.017931	-100.773445	-83.932667	-44.685385
01686		9.723207	-0.842981	-0.137498	0.024593	0.010647	-0.016431	-100.745981	-83.942026	-44.698776
01687		9.703297	-0.918419	-0.151856	0.013772	0.012325	-0.013687	-100.713540	-83.950030	-44.723632
01688		9.687141	-0.983052	-0.225192	0.007959	0.005520	-0.013369	-100.719674	-83.957118	-44.712820
01689		9.689899	-0.945642	-0.176863	0.020015	0.007731	-0.012823	-100.706396	-83.964174	-44.713912
01690		9.712109	-0.957548	-0.217699	0.021937	0.004126	-0.006691	-100.705233	-83.967355	-44.702385
01691		9.738432	-1.010477	-0.215281	0.034522	0.002110	-0.010650	-100.711602	-83.972549	-44.674877
01692		9.730638	-0.979840	-0.199301	0.034972	0.006323	-0.004510	-100.689064	-83.974735	-44.677332
01693		9.686087	-0.902131	-0.217374	0.034692	0.005233	-0.002615	-100.670834	-83.975718	-44.674555
01694		9.656699	-0.871889	-0.212841	0.028397	0.006239	-0.000640	-100.648609	-83.975717	-44.680484
01695		9.713451	-0.842146	-0.162348	0.021422	0.005524	-0.005754	-100.640703	-83.978541	-44.677886
01696		9.729266	-0.901850	-0.191707	0.010351	0.012523	-0.000406	-100.595032	-83.979071	-44.717789
01697		9.733394	-0.942762	-0.146980	0.001533	0.011378	0.002086	-100.559284	-83.978092	-44.754278
01698		9.720337	-0.985764	-0.225423	-0.003524	0.016282	0.007354	-100.493809	-83.974637	-44.822089
01699		9.699712	-1.050445	-0.186422	-0.001728	0.013130	0.002600	-100.449452	-83.973520	-44.867323
01700		9.708211	-1.093495	-0.253370	0.003273	0.013858	0.004423	-100.395999	-83.971452	-44.919129
01701		9.675600	-1.087294	-0.242807	0.013811	0.011085	0.003575	-100.353132	-83.969576	-44.954879
01702		9.700299	-1.064253	-0.235687	0.025610	0.009387	0.002469	-100.312693	-83.968142	-44.980731
01703		9.732903	-1.071136	-0.243577	0.029395	0.012616	0.001695	-100.254378	-83.967526	-45.023574
01704		9.717121	-1.011457	-0.211487	0.033657	0.017248	0.003514	-100.166425	-83.966295	-45.092568
01705		9.708588	-0.968917	-0.141272	0.031685	0.017258	0.000221	-100.083184	-83.966935	-45.158046
01706		9.690277	-0.945336	-0.156624	0.020621	0.015048	0.001324	-100.016549	-83.966700	-45.213113
01707		9.700705	-0.939216	-0.122754	0.003546	0.014938	0.002505	-99.959510	-83.965833	-45.268689
01708		9.679857	-0.952170	-0.185985	-0.003501	0.013465	0.003790	-99.912862	-83.964038	-45.317556
01709		9.717166	-1.012657	-0.203536	-0.007009	0.011319	0.002661	-99.881395	-83.962706	-45.353896
01710		9.694951	-1.000078	-0.160991	-0.000520	0.010625	0.005179	-99.846954	-83.959842	-45.388771
01711		9.698122	-0.976970	-0.165477	-0.003502	0.013463	0.003788	-99.800805	-83.958067	-45.437161
01712		9.643991	-0.970474	-0.166990	-0.004275	0.004579	0.002409	-99.803366	-83.956173	-45.436992
01713		9.693365	-0.924156	-0.154728	-0.004079	0.004901	0.006903	-99.800127	-83.951790	-45.441824
01714		9.703727	-0.918343	-0.121914	-0.012059	0.007013	0.003687	-99.793005	-83.949411	-45.455876
01715		9.703691	-0.918801	-0.121328	-0.015599	0.007684	0.006098	-99.783121	-83.945775	-45.476063
01716		9.690024	-0.949388	-0.147508	-0.026188	0.006881	0.009789	-99.779227	-83.939938	-45.495011
01717		9.708241	-0.973956	-0.130036	-0.029698	0.004734	0.008655	-99.790305	-83.934475	-45.499463
01718		9.688120	-1.051851	-0.145218	-0.037010	0.008566	0.012519	-99.781195	-83.927261	-45.529892
01719		9.663320	-1.076026	-0.151015	-0.036949	0.002934	0.005429	-99.808873	-83.923537	-45.523426
01720		9.714889	-1.119489	-0.196224	-0.026639	0.002653	0.003639	-99.833327	-83.920759	-45.514126
01721		9.706960	-1.089793	-0.181093	-0.019362	0.001631	0.003313	-99.859791	-83.918115	-45.499156
01722		9.649595	-1.106869	-0.177747	-0.011837	0.004508	0.004631	-99.864994	-83.914960	-45.500686
01723		9.691824	-1.043191	-0.203393	-0.005541	0.003497	0.002662	-99.873552	-83.912822	-45.493623
01724		9.691817	-1.043327	-0.203010	0.003282	0.004640	0.000184	-99.873487	-83.912190	-45.491741
01725		9.713335	-1.043457	-0.190905	0.003562	0.005725	-0.001716	-99.869702	-83.912795	-45.494151
01726		9.695818	-1.083958	-0.158205	0.002826	0.009631	-0.001717	-99.845226	-83.913725	-45.517081
01727		9.666457	-1.053589	-0.153812	0.000808	0.006068	-0.002157	-99.841743	-83.914581	-45.520480
01728		9.691189	-1.030166	-0.147213	0.000019	0.006393	0.000692	-99.833804	-83.913834	-45.528395
01729		9.683323	-0.999925	-0.131544	-0.009192	0.004618	-0.005819	-99.847033	-83.916607	-45.520521
01730		9.695263	-1.018339	-0.204988	-0.011666	0.006046	-0.008161	-99.855766	-83.920824	-45.518403
01731		9.714394	-1.053917	-0.240237	-0.003860	0.010009	-0.008739	-99.839770	-83.925768	-45.536169
01732		9.708059	-1.100394	-0.228087	0.000351	0.011059	-0.004059	-99.811234	-83.928159	-45.564606
01733		9.677961	-1.057105	-0.170684	0.003595	0.002914	-0.005259	-99.825492	-83.930371	-45.546484
01734		9.684449	-1.009454	-0.181577	0.004104	0.001504	-0.006208	-99.847504	-83.933041	-45.521926
01735		9.701287	-0.955632	-0.160371	0.001298	-0.001735	-0.003798	-99.886379	-83.934021	-45.481197
01736		9.671907	-0.925141	-0.156857	0.000789	-0.000325	-0.002849	-99.916928	-83.934611	-45.449963
01737		9.726019	-0.931981	-0.154258	-0.006052	0.004905	0.003609	-99.918062	-83.932085	-45.452194
01738		9.684534	-1.008678	-0.181356	-0.017279	-0.000435	-0.003345	-99.960005	-83.932942	-45.419912
01739		9.678150	-1.055495	-0.169935	-0.022526	0.010536	-0.001895	-99.945349	-83.934122	-45.447418
01740		9.706097	-1.008303	-0.169069	-0.019281	0.002391	-0.003097	-99.973212	-83.935118	-45.430451
01741		9.681439	-1.031318	-0.174815	-0.018756	0.007372	-0.003354	-99.975130	-83.936795	-45.440046
01742		9.656016	-1.041619	-0.127411	-0.019002	0.003475	-0.005000	-99.998869	-83.938972	-45.427064
01743		9.681538	-1.030468	-0.174342	-0.015265	0.003124	-0.002912	-100.020172	-83.939954	-45.413170
01744		9.691915	-1.024071	-0.141834	-0.018811	0.003787	-0.000508	-100.037942	-83.939627	-45.406081
01745		9.699096	-1.041107	-0.103911	-0.019758	0.000986	-0.005700	-100.076445	-83.941944	-45.378314
01746		9.719905	-0.976286	-0.141436	-0.025550	0.000579	-0.004690	-100.119087	-83.943653	-45.350096
01747		9.712792	-0.958524	-0.179608	-0.034379	-0.000577	-0.002226	-100.170693	-83.943810	-45.316205
01748		9.712804	-0.958252	-0.180393	-0.051492	-0.007106	-0.001798	-100.266306	-83.943100	-45.249665
01749		9.692114	-0.970161	-0.246164	-0.059996	-0.003600	-0.004092	-100.349974	-83.944091	-45.199306
01750		9.721555	-0.999917	-0.250618	-0.051490	-0.000733	-0.001120	-100.411058	-83.943637	-45.167488
01751		9.668981	-1.069918	-0.257946	-0.046966	-0.001409	-0.001885	-100.474483	-83.943467	-45.129276
01752		9.643532	-1.080468	-0.211632	-0.031886	-0.004833	-0.003463	-100.548398	-83.943896	-45.073259
01753		9.624477	-1.043987	-0.176333	-0.022633	-0.005862	-0.000480	-100.619596	-83.942591	-45.014890
01754		9.631644	-1.061259	-0.139386	-0.015820	-0.008264	-0.003390	-100.702439	-83.942601	-44.940639
01755		9.686639	-0.955048	-0.086190	-0.019470	-0.014785	0.004698	-100.814183	-83.937339	-44.838984
01756		9.717702	-0.884694	-0.092478	-0.022653	-0.012257	-0.001193	-100.919782	-83.935653	-44.745785
01757		9.702580	-0.837399	-0.116339	-0.038302	-0.011028	0.004167	-101.023606	-83.931104	-44.665675
