// General information: 
//  MT Manager version: 2022.2.0 
//  XDA version: 2022.2.0 build 7381 rev 124627 built on 2023-07-19
// Device information: 
//  DeviceId: 00B4BB4E
//  ProductCode: MTW2-3A7G6
//  Firmware Version: 4.6.0
//  Hardware Version: 2.0.0
// Device settings: 
//  Filter Profile: human(46.1)
//  Option Flags: Orientation Smoother Disabled, Position/Velocity Smoother Disabled, Continuous Zero Rotation Update Disabled, AHS Disabled, ICC Disabled
// Coordinate system: ENU
PacketCounter	SampleTimeFine	Acc_X	Acc_Y	Acc_Z	Gyr_X	Gyr_Y	Gyr_Z	Roll	Pitch	Yaw
20639		9.696120	0.106807	0.419538	0.032872	0.002332	0.010114	10.757843	-87.122754	-38.425459
20640		9.728224	0.123966	0.483013	0.024309	0.002356	0.013012	10.575005	-87.124918	-38.227519
20641		9.675841	0.113183	0.456119	0.010312	0.002715	0.008244	10.431707	-87.126084	-38.077245
20642		9.697216	0.125557	0.432150	0.001427	-0.003445	0.000400	10.388948	-87.130161	-38.032901
20643		9.732454	0.001076	0.496810	-0.013340	-0.000967	0.005892	10.265711	-87.133137	-37.916282
20644		9.756681	0.001095	0.493702	-0.004773	-0.000989	0.002999	10.184731	-87.136088	-37.837146
20645		9.739258	-0.003128	0.550696	0.005177	-0.000581	0.002916	10.104464	-87.138528	-37.752929
20646		9.763479	-0.002750	0.547715	0.017441	0.001230	0.000751	10.056636	-87.139986	-37.694327
20647		9.737494	0.029978	0.542050	0.027745	-0.000961	0.004798	9.968562	-87.142818	-37.589348
20648		9.762152	0.105709	0.554597	0.037849	-0.002364	0.005891	9.881024	-87.146801	-37.479139
20649		9.708677	0.074119	0.515262	0.030426	0.002756	0.011049	9.715945	-87.148124	-37.295521
20650		9.658495	0.105889	0.512320	0.024298	-0.007451	0.004633	9.644129	-87.154831	-37.208737
20651		9.678808	0.096946	0.475548	0.021945	-0.004972	0.009128	9.510141	-87.160303	-37.061115
20652		9.679964	0.117122	0.486825	0.012532	-0.013671	0.012098	9.357222	-87.171203	-36.899985
20653		9.733547	0.147002	0.524839	0.002428	-0.012265	0.011006	9.202636	-87.180934	-36.742939
20654		9.753895	0.137606	0.487281	-0.012464	-0.016757	0.008716	9.077598	-87.193222	-36.624240
20655		9.785044	0.133536	0.536633	-0.023344	-0.018129	0.013695	8.885492	-87.206471	-36.444415
20656		9.786907	0.098910	0.543424	-0.027149	-0.022024	0.009396	8.751061	-87.221773	-36.324274
20657		9.784778	0.055331	0.517117	-0.023281	-0.017093	0.015494	8.532637	-87.234538	-36.118069
20658		9.753809	0.056972	0.464188	-0.024681	-0.022431	0.008491	8.407960	-87.249943	-36.006770
20659		9.760186	0.106767	0.519648	-0.024362	-0.021149	0.015035	8.197581	-87.264911	-35.809245
20660		9.775340	0.196902	0.455080	-0.015346	-0.026619	0.015653	7.996493	-87.283237	-35.615736
20661		9.699966	0.206037	0.440845	-0.027697	-0.025570	0.018458	7.745564	-87.300910	-35.379533
20662		9.700134	0.204039	0.438066	-0.044737	-0.033251	0.019461	7.486511	-87.323208	-35.145073
20663		9.746472	0.290454	0.423891	-0.060811	-0.030147	0.023976	7.149121	-87.343777	-34.841317
20664		9.727679	0.317415	0.469593	-0.090895	-0.031557	0.019563	6.851002	-87.365004	-34.593826
20665		9.758950	0.181751	0.498099	-0.109359	-0.031885	0.022640	6.494995	-87.386313	-34.299290
20666		9.730701	0.039934	0.445301	-0.123102	-0.032244	0.020937	6.152991	-87.407868	-34.026737
20667		9.727772	-0.080474	0.401248	-0.105126	-0.035444	0.026987	5.738141	-87.431290	-33.670880
20668		9.732713	0.000590	0.447285	-0.090282	-0.032004	0.027473	5.319692	-87.452895	-33.303027
20669		9.728738	-0.010942	0.410865	-0.084074	-0.034448	0.024879	4.929105	-87.475408	-32.959396
20670		9.731010	-0.101353	0.412167	-0.089526	-0.030185	0.019696	4.596930	-87.495383	-32.677249
20671		9.729879	-0.124544	0.396800	-0.075944	-0.029003	0.018504	4.277256	-87.514320	-32.399945
20672		9.731226	-0.105246	0.406047	-0.064970	-0.034342	0.010426	4.076268	-87.536137	-32.235858
20673		9.728851	-0.148581	0.377978	-0.060025	-0.030284	0.012797	3.834684	-87.555478	-32.027596
20674		9.733963	-0.066173	0.424612	-0.036240	-0.032396	0.013740	3.597163	-87.576250	-31.810542
20675		9.759144	0.008427	0.434805	-0.039017	-0.033214	0.008139	3.426179	-87.597034	-31.660902
20676		9.738422	-0.059735	0.451612	-0.039470	-0.027753	0.004655	3.299996	-87.614803	-31.556156
20677		9.781467	-0.088831	0.396856	-0.027098	-0.027810	0.003558	3.190107	-87.632317	-31.460832
20678		9.755697	-0.056216	0.388975	-0.018356	-0.028657	0.003550	3.088718	-87.650545	-31.368987
20679		9.778734	-0.077083	0.370399	-0.019593	-0.030883	0.001916	3.005446	-87.669753	-31.296001
20680		9.753362	-0.098659	0.358180	-0.019743	-0.029061	0.000757	2.940262	-87.688114	-31.241460
20681		9.756047	-0.056414	0.380069	-0.016427	-0.033367	-0.009310	3.018668	-87.708405	-31.328470
20682		9.754889	-0.076697	0.364366	-0.017475	-0.032534	-0.005557	3.046749	-87.728566	-31.365539
20683		9.779611	-0.129950	0.353846	-0.010441	-0.030155	-0.010710	3.148925	-87.746970	-31.472902
20684		9.779723	-0.128769	0.351150	-0.010906	-0.024697	-0.014201	3.302935	-87.762383	-31.631628
20685		9.736156	-0.174294	0.383871	-0.004426	-0.030799	-0.014538	3.469411	-87.781004	-31.799888
20686		9.781672	-0.159353	0.353899	0.012641	-0.026025	-0.016293	3.673437	-87.797039	-31.996135
20687		9.731242	-0.070496	0.354089	0.025866	-0.021237	-0.019908	3.933791	-87.809942	-32.240970
20688		9.757263	-0.101414	0.356842	0.032194	-0.025517	-0.021406	4.231494	-87.825406	-32.519936
20689		9.780268	-0.119720	0.338984	0.051839	-0.019113	-0.020514	4.519948	-87.836974	-32.777995
20690		9.814007	-0.024846	0.416939	0.065612	-0.018747	-0.018823	4.796636	-87.848584	-33.016909
20691		9.803213	0.048151	0.344444	0.060826	-0.020736	-0.017542	5.052868	-87.861130	-33.237566
20692		9.801506	0.083642	0.334167	0.059345	-0.018302	-0.019700	5.343771	-87.872376	-33.493153
20693		9.783474	0.060566	0.376998	0.051761	-0.021121	-0.024023	5.701139	-87.884698	-33.820210
20694		9.732608	0.020133	0.356628	0.048146	-0.021905	-0.022907	6.047899	-87.897687	-34.138569
20695		9.702870	-0.007561	0.312324	0.049394	-0.019667	-0.021262	6.366385	-87.909206	-34.428070
20696		9.756922	0.025254	0.349530	0.055382	-0.016444	-0.022665	6.710999	-87.918980	-34.739378
20697		9.725352	0.030770	0.297371	0.064331	-0.014199	-0.017296	6.971788	-87.927541	-34.962576
20698		9.740860	0.016056	0.226463	0.065299	-0.012185	-0.020395	7.283415	-87.934929	-35.235611
20699		9.737228	0.084801	0.208711	0.065237	-0.004457	-0.015567	7.501234	-87.938004	-35.415290
20700		9.787430	0.054084	0.209723	0.056793	-0.012132	-0.017383	7.763758	-87.945508	-35.644313
20701		9.797997	0.039741	0.283484	0.066701	-0.007873	-0.015132	7.984726	-87.950501	-35.826302
20702		9.803626	0.071237	0.328320	0.068906	-0.003626	-0.016606	8.225208	-87.953171	-36.026511
20703		9.755851	0.017638	0.330797	0.063952	-0.003812	-0.016503	8.458624	-87.955695	-36.222531
20704		9.737883	-0.005802	0.375603	0.063924	0.000060	-0.014088	8.648550	-87.956451	-36.374160
20705		9.709338	-0.013645	0.345955	0.071547	0.002934	-0.009722	8.762917	-87.955698	-36.446701
20706		9.731662	0.021443	0.334023	0.078079	-0.003124	-0.009974	8.903807	-87.958604	-36.540591
20707		9.730424	0.131699	0.341177	0.077671	0.003349	-0.011693	9.051896	-87.957427	-36.643364
20708		9.775655	0.146288	0.313857	0.074055	0.002563	-0.010577	9.185660	-87.957017	-36.733689
20709		9.774396	0.126621	0.301552	0.064100	-0.002726	-0.014582	9.387357	-87.958989	-36.897884
20710		9.795451	0.141015	0.277075	0.058973	-0.001113	-0.015672	9.604188	-87.960143	-37.080676
20711		9.747653	0.217132	0.299262	0.045349	0.001547	-0.012048	9.743953	-87.959906	-37.193650
20712		9.690555	0.199731	0.239832	0.035176	0.001916	-0.014865	9.925208	-87.959399	-37.353900
20713		9.717257	0.113882	0.241962	0.036521	0.001325	-0.013840	10.088822	-87.959086	-37.495801
20714		9.700517	0.111222	0.299602	0.037943	0.006662	-0.006869	10.132128	-87.956696	-37.515710
20715		9.720334	0.103625	0.263674	0.040512	0.003417	-0.008386	10.205668	-87.955741	-37.565191
20716		9.807111	0.153775	0.365428	0.048360	0.005536	-0.001060	10.166321	-87.954595	-37.495436
20717		9.804648	0.111542	0.341693	0.042326	0.006178	0.002736	10.057505	-87.953202	-37.361404
20718		9.784111	0.174337	0.381898	0.051177	0.006423	0.004563	9.929099	-87.952070	-37.202562
20719		9.789654	0.204076	0.427619	0.045142	0.007067	0.008357	9.731107	-87.950702	-36.977683
20720		9.733833	0.205324	0.380842	0.035464	0.006905	0.013228	9.456058	-87.950063	-36.681970
20721		9.754921	0.216606	0.357018	0.023364	0.003281	0.016637	9.124968	-87.951525	-36.336394
20722		9.804542	0.237222	0.362777	0.007071	0.003239	0.015792	8.802485	-87.953088	-36.008700
20723		9.799002	0.205501	0.317926	-0.000434	0.002405	0.014990	8.485003	-87.954765	-35.690385
20724		9.791590	0.206900	0.264345	-0.006579	0.005887	0.019369	8.091181	-87.954982	-35.299069
20725		9.743246	0.204019	0.271470	-0.017725	0.004252	0.019649	7.684846	-87.955827	-34.901758
20726		9.722191	0.189215	0.296031	-0.032288	0.001046	0.023977	7.212328	-87.958929	-34.446505
20727		9.746416	0.187189	0.293015	-0.047332	0.003264	0.024762	6.708159	-87.960462	-33.968273
20728		9.747031	0.130162	0.290206	-0.067412	0.004249	0.023837	6.210368	-87.961471	-33.507067
20729		9.747614	0.073277	0.287461	-0.081381	0.005633	0.020923	5.743123	-87.961133	-33.085304
20730		9.796538	0.017331	0.278311	-0.092696	0.009708	0.022449	5.244065	-87.958655	-32.638339
20731		9.757913	-0.076997	0.344975	-0.085195	0.005649	0.019113	4.804437	-87.957967	-32.246396
20732		9.756603	-0.100323	0.333520	-0.076596	0.010535	0.020381	4.348727	-87.954661	-31.833928
20733		9.735429	-0.114927	0.358613	-0.066972	0.009670	0.013737	4.002141	-87.951245	-31.524637
20734		9.757777	-0.082785	0.347462	-0.064279	0.008486	0.015795	3.631135	-87.948746	-31.189495
20735		9.733550	-0.084700	0.351500	-0.057120	0.008031	0.010065	3.352378	-87.946007	-30.942428
20736		9.739627	-0.110607	0.393841	-0.049299	0.005228	0.013220	3.034631	-87.945156	-30.651923
20737		9.730934	-0.129359	0.328152	-0.049735	0.006800	0.007305	2.806275	-87.942952	-30.451054
20738		9.703161	-0.064079	0.314925	-0.033350	0.008846	0.011685	2.520744	-87.939886	-30.184184
20739		9.679432	-0.119907	0.315309	-0.033692	0.007580	0.005154	2.336344	-87.937122	-30.018102
20740		9.787872	-0.113679	0.389475	-0.039325	-0.003122	0.006522	2.137307	-87.940742	-29.839992
20741		9.779995	-0.056390	0.339557	-0.031265	0.011034	0.006636	1.929320	-87.935990	-29.648915
20742		9.782039	0.039515	0.368694	-0.046136	0.006594	0.004469	1.753628	-87.933937	-29.499273
20743		9.756063	0.071539	0.364240	-0.058333	0.009710	0.010931	1.464170	-87.929961	-29.242191
20744		9.808265	0.134325	0.395513	-0.085738	0.007132	0.008698	1.200209	-87.927617	-29.026678
20745		9.754263	0.102667	0.357493	-0.092177	0.009378	0.006626	0.961344	-87.923700	-28.839625
20746		9.772835	0.072857	0.309544	-0.108630	0.005344	-0.001257	0.842187	-87.922217	-28.782153
20747		9.722332	-0.025209	0.288279	-0.098294	0.011883	0.009367	0.557375	-87.916838	-28.552629
20748		9.680431	-0.106416	0.333377	-0.074758	0.009580	0.005557	0.350902	-87.912942	-28.388678
20749		9.651887	-0.116431	0.304465	-0.053374	0.012791	0.011617	0.058791	-87.906976	-28.126095
20750		9.696372	-0.179764	0.261834	-0.019660	0.011062	0.012344	-0.220314	-87.902174	-27.857955
20751		9.727382	-0.129922	0.317738	0.016183	0.012541	0.009788	-0.441150	-87.896268	-27.626814
20752		9.731621	-0.122308	0.352276	0.029796	0.014723	0.010314	-0.657863	-87.889298	-27.392611
20753		9.760482	-0.168558	0.379647	0.044624	0.014258	0.008274	-0.835925	-87.882359	-27.187963
20754		9.761689	-0.148165	0.393756	0.065567	0.019051	0.008418	-0.998838	-87.872897	-26.986118
20755		9.781088	-0.102539	0.363155	0.083301	0.016593	0.011394	-1.199287	-87.864539	-26.736889
20756		9.756397	-0.049107	0.372029	0.074289	0.017216	0.006673	-1.328122	-87.856085	-26.564890
20757		9.704949	-0.037951	0.359352	0.059407	0.016669	0.006929	-1.470919	-87.847698	-26.387051
20758		9.729951	0.037490	0.373840	0.045789	0.014486	0.006395	-1.610894	-87.840789	-26.219623
20759		9.779995	0.004599	0.377240	0.036915	0.013276	0.002814	-1.703481	-87.834383	-26.104926
20760		9.832190	0.068540	0.408881	0.025678	0.009642	-0.000458	-1.752035	-87.830343	-26.040531
20761		9.833855	0.035011	0.418168	0.022421	0.006251	0.004769	-1.884907	-87.827913	-25.893828
20762		9.855922	0.122678	0.410877	0.018914	0.007513	0.009441	-2.086959	-87.824878	-25.679856
20763		9.786278	0.108250	0.442068	0.018916	0.007514	0.009444	-2.290710	-87.821586	-25.464233
20764		9.813033	0.149694	0.463976	0.034355	0.003667	0.014545	-2.561979	-87.820552	-25.172538
20765		9.805030	0.260911	0.417876	0.030632	0.005720	0.016255	-2.861489	-87.818028	-24.854368
20766		9.733754	0.278901	0.440231	0.011253	0.004426	0.024257	-3.290051	-87.816136	-24.418199
20767		9.670984	0.283086	0.338917	-0.008534	0.000837	0.023919	-3.729998	-87.815967	-23.981946
20768		9.671066	0.280653	0.338620	-0.026739	-0.008005	0.025158	-4.206229	-87.820885	-23.519554
20769		9.716943	0.236682	0.307119	-0.038037	-0.003902	0.026698	-4.711407	-87.823024	-23.034940
20770		9.716031	0.158308	0.290864	-0.054143	-0.001791	0.029491	-5.262407	-87.823868	-22.513967
20771		9.713457	0.113284	0.265605	-0.056223	-0.012720	0.027965	-5.812062	-87.830619	-21.995273
20772		9.794968	0.073954	0.317259	-0.062009	-0.012835	0.034769	-6.467215	-87.837048	-21.374414
20773		9.816546	0.028655	0.288559	-0.066112	-0.004300	0.034780	-7.116378	-87.838114	-20.761815
20774		9.778087	0.062525	0.373326	-0.074844	-0.003434	0.034805	-7.765452	-87.838658	-20.155095
20775		9.776770	0.037801	0.360638	-0.089714	-0.003946	0.035078	-8.432698	-87.838972	-19.537933
20776		9.728609	-0.020905	0.362863	-0.108727	-0.000807	0.031157	-9.041531	-87.837824	-18.990101
20777		9.710265	-0.049558	0.407628	-0.115136	0.001477	0.029118	-9.620176	-87.835126	-18.476178
20778		9.778912	-0.169036	0.356620	-0.131521	0.002406	0.025469	-10.146489	-87.832331	-18.023402
20779		9.703857	-0.323570	0.332942	-0.131687	0.003245	0.022586	-10.629825	-87.828953	-17.614345
20780		9.725395	-0.421772	0.300080	-0.114443	-0.002542	0.015411	-11.009389	-87.829725	-17.299156
20781		9.752609	-0.490236	0.312664	-0.088459	-0.000485	0.014834	-11.362435	-87.829090	-16.995696
20782		9.725570	-0.533900	0.290520	-0.076394	0.003070	0.011397	-11.644625	-87.826986	-16.757502
20783		9.714233	-0.510467	0.393213	-0.062905	-0.000688	0.005883	-11.850825	-87.827397	-16.586341
20784		9.738283	-0.456031	0.394263	-0.050032	0.002828	-0.004299	-11.886570	-87.827244	-16.578752
20785		9.662622	-0.389615	0.388110	-0.035565	0.009794	-0.006278	-11.864865	-87.823197	-16.619986
20786		9.711042	-0.387929	0.382213	-0.042245	0.004154	-0.017982	-11.690034	-87.823869	-16.820156
20787		9.739602	-0.377726	0.412314	-0.024714	-0.000444	-0.018706	-11.509991	-87.826992	-17.013619
20788		9.733661	-0.295987	0.375615	-0.015338	0.004328	-0.024192	-11.227625	-87.828201	-17.305780
20789		9.780378	-0.204903	0.366031	-0.011783	0.004092	-0.027097	-10.901490	-87.829627	-17.638026
20790		9.780427	-0.202177	0.366219	-0.011761	0.000243	-0.029532	-10.548165	-87.833589	-17.999127
20791		9.763284	-0.149521	0.427897	-0.007094	0.000200	-0.034392	-10.119629	-87.837798	-18.431157
20792		9.763102	-0.091807	0.432283	-0.005673	-0.003250	-0.034021	-9.703160	-87.843973	-18.851045
20793		9.744829	-0.113997	0.476484	0.010221	-0.003577	-0.038078	-9.214773	-87.850415	-19.333038
20794		9.713455	-0.106405	0.425647	0.016545	0.000841	-0.032931	-8.786598	-87.853932	-19.752123
20795		9.737408	-0.048159	0.426648	0.029156	-0.007754	-0.035994	-8.323345	-87.862276	-20.198103
20796		9.733176	-0.052772	0.392796	0.034022	-0.004745	-0.035446	-7.856177	-87.868912	-20.644955
20797		9.725984	-0.044884	0.338253	0.039288	-0.008212	-0.033214	-7.423914	-87.877037	-21.054112
20798		9.778700	-0.032661	0.364145	0.045950	-0.011277	-0.028176	-7.068336	-87.886602	-21.382761
20799		9.806861	0.033455	0.397474	0.045895	-0.012284	-0.029959	-6.683642	-87.896617	-21.740522
20800		9.782321	0.090607	0.403867	0.048349	-0.012698	-0.030892	-6.279296	-87.907034	-22.116259
20801		9.771187	0.035505	0.311301	0.040496	-0.006983	-0.033319	-5.829296	-87.914042	-22.542462
20802		9.750399	-0.028855	0.330402	0.044375	-0.002124	-0.027227	-5.461655	-87.918029	-22.883181
20803		9.773341	-0.046261	0.314041	0.036985	-0.010596	-0.032823	-5.021542	-87.926851	-23.301499
20804		9.742356	-0.093647	0.258218	0.040582	-0.005948	-0.031487	-4.590296	-87.933016	-23.709126
20805		9.741126	-0.111518	0.245260	0.048115	-0.004147	-0.028925	-4.191522	-87.937757	-24.079695
20806		9.763614	-0.074516	0.233630	0.047811	-0.000501	-0.031238	-3.749495	-87.940625	-24.492639
20807		9.744980	-0.042562	0.282344	0.045626	-0.004731	-0.029746	-3.336357	-87.945531	-24.879006
20808		9.794138	0.036764	0.292008	0.038326	-0.007326	-0.029327	-2.932774	-87.951998	-25.260534
20809		9.819056	0.115627	0.304889	0.015742	-0.004004	-0.030340	-2.522683	-87.956306	-25.660983
20810		9.786998	0.176248	0.258122	0.002449	-0.001094	-0.021886	-2.251448	-87.958832	-25.931138
20811		9.741049	0.219333	0.289464	-0.029956	-0.000988	-0.023348	-1.975724	-87.961112	-26.223332
20812		9.749545	0.238183	0.355722	-0.053240	-0.004338	-0.020705	-1.756120	-87.965411	-26.472419
20813		9.745238	0.231644	0.322346	-0.067078	-0.001856	-0.021728	-1.526714	-87.968076	-26.739548
20814		9.691901	0.148916	0.278847	-0.076014	-0.000200	-0.024624	-1.252109	-87.969995	-27.056839
20815		9.695518	0.084119	0.295156	-0.080848	-0.003205	-0.025127	-0.974691	-87.973383	-27.379902
20816		9.720928	-0.022149	0.283098	-0.067128	0.001019	-0.021021	-0.751714	-87.974455	-27.641060
20817		9.751225	-0.045167	0.321193	-0.050555	-0.001657	-0.016186	-0.600215	-87.976808	-27.820759
20818		9.802675	-0.055393	0.335199	-0.024248	-0.002149	-0.012727	-0.488224	-87.979596	-27.945877
20819		9.783949	-0.025508	0.384401	-0.007309	0.005482	-0.013869	-0.348151	-87.977821	-28.089348
20820		9.802010	0.001762	0.340499	-0.005180	0.008712	-0.017133	-0.152347	-87.974392	-28.286752
20821		9.783907	-0.022314	0.385657	0.006254	0.002803	-0.017598	0.055228	-87.974121	-28.489992
20822		9.784584	-0.074922	0.381147	0.005284	-0.004076	-0.018706	0.282177	-87.977964	-28.712424
20823		9.715765	-0.141675	0.407030	0.014767	0.002775	-0.020591	0.543484	-87.977638	-28.964548
20824		9.687356	-0.148515	0.376977	0.017635	-0.004114	-0.019849	0.797914	-87.981408	-29.208290
20825		9.721975	-0.162803	0.447965	0.031317	-0.004759	-0.019988	1.061490	-87.985325	-29.453195
20826		9.739623	-0.209952	0.385982	0.032163	-0.004762	-0.026671	1.437497	-87.989307	-29.809497
20827		9.766221	-0.164799	0.407715	0.044315	0.000879	-0.026542	1.814927	-87.989783	-30.160875
20828		9.758951	-0.157466	0.353800	0.056507	-0.002184	-0.033038	2.308974	-87.991973	-30.621351
20829		9.762496	-0.090808	0.391154	0.070997	-0.003830	-0.041625	2.952436	-87.994531	-31.223626
20830		9.779771	-0.006089	0.350469	0.069412	-0.003414	-0.047336	3.691129	-87.996575	-31.922441
20831		9.747446	0.056782	0.303693	0.070551	-0.003198	-0.049249	4.461071	-87.997928	-32.651528
20832		9.778672	-0.016924	0.337155	0.060711	-0.007428	-0.051446	5.270413	-88.001403	-33.426176
20833		9.784060	0.017852	0.382010	0.069419	-0.009240	-0.053228	6.117645	-88.005255	-34.233246
20834		9.735706	0.022061	0.387609	0.063149	-0.008819	-0.054109	6.979867	-88.008570	-35.058444
20835		9.785965	-0.079702	0.371984	0.060395	-0.009627	-0.059659	7.933619	-88.011297	-35.977268
20836		9.736451	-0.171353	0.348956	0.086281	-0.004523	-0.059595	8.892496	-88.010762	-36.886627
20837		9.780634	-0.248071	0.292526	0.097788	-0.005480	-0.055760	9.795504	-88.010455	-37.733237
20838		9.728191	-0.252367	0.265710	0.122697	-0.003368	-0.054330	10.683660	-88.008839	-38.548960
20839		9.784093	-0.173342	0.329241	0.138831	-0.006332	-0.058821	11.660687	-88.007734	-39.446106
20840		9.807364	-0.187337	0.313124	0.148899	-0.009694	-0.061264	12.693694	-88.007879	-40.391174
20841		9.790639	-0.109130	0.385489	0.163638	-0.014065	-0.070259	13.895760	-88.008425	-41.499273
20842		9.845235	0.026049	0.451218	0.152929	-0.014408	-0.063318	14.985301	-88.009573	-42.499218
20843		9.816692	0.099151	0.435902	0.142515	-0.010382	-0.068347	16.128446	-88.006859	-43.560469
20844		9.813469	0.118663	0.413460	0.116772	-0.018376	-0.068961	17.303496	-88.007835	-44.668150
20845		9.801531	0.195579	0.340126	0.106968	-0.016752	-0.065204	18.404939	-88.007670	-45.708055
20846		9.763987	0.325749	0.273658	0.106774	-0.011040	-0.063935	19.456968	-88.004123	-46.697830
20847		9.726637	0.380113	0.191641	0.088146	-0.014606	-0.066155	20.546703	-88.001262	-47.736813
20848		9.754798	0.396572	0.219377	0.071017	-0.020587	-0.066202	21.661496	-88.001048	-48.810409
20849		9.727122	0.414470	0.199825	0.044373	-0.013722	-0.066872	22.725552	-87.996180	-49.848796
20850		9.745008	0.370155	0.138106	0.033094	-0.007699	-0.061844	23.664613	-87.988813	-50.767726
20851		9.704831	0.392975	0.209757	0.008063	-0.012014	-0.066837	24.683704	-87.981809	-51.781946
20852		9.737489	0.245982	0.229171	-0.002443	-0.002187	-0.066099	25.611967	-87.969476	-52.708981
20853		9.710087	-0.005703	0.141633	0.007063	0.004784	-0.067953	26.508703	-87.952376	-53.601355
20854		9.683080	-0.224585	0.243863	0.025796	0.003563	-0.069768	27.439679	-87.935090	-54.515140
20855		9.711337	-0.498384	0.192624	0.074086	0.013429	-0.068370	28.285566	-87.912510	-55.318226
20856		9.671633	-0.571762	0.239995	0.158965	0.014020	-0.071574	29.203148	-87.888472	-56.144021
20857		9.751144	-0.488496	0.300820	0.213605	-0.000206	-0.073564	30.266229	-87.870260	-57.084480
20858		9.865425	-0.321192	0.459337	0.260174	-0.001063	-0.073280	31.343952	-87.852077	-58.012499
20859		9.840283	-0.140562	0.504564	0.275137	-0.000311	-0.077762	32.461950	-87.831342	-58.972658
20860		9.807847	0.161222	0.533139	0.258935	0.003495	-0.075998	33.498369	-87.808862	-59.859346
20861		9.816932	0.391092	0.485076	0.219570	-0.006086	-0.075433	34.564865	-87.790287	-60.799852
20862		9.787467	0.583799	0.506071	0.164879	-0.000969	-0.084551	35.649872	-87.765806	-61.789367
20863		9.814237	0.643779	0.359469	0.091063	-0.009996	-0.090084	36.811347	-87.742704	-62.898639
20864		9.746924	0.666575	0.235135	0.047280	-0.016296	-0.094063	38.026995	-87.720352	-64.086408
20865		9.773254	0.643652	0.239023	0.001563	-0.026623	-0.091860	39.259800	-87.702246	-65.318422
20866		9.806544	0.597040	0.285071	-0.019696	-0.024121	-0.087511	40.393098	-87.683751	-66.462967
20867		9.722613	0.615622	0.217664	-0.044465	-0.025333	-0.082674	41.451814	-87.666593	-67.547173
20868		9.711224	0.554483	0.291800	-0.061014	-0.024888	-0.086516	42.522663	-87.647073	-68.653332
20869		9.690533	0.430761	0.277135	-0.067334	-0.016583	-0.078158	43.406475	-87.626453	-69.575629
20870		9.649991	0.315141	0.299070	-0.048604	-0.013735	-0.077499	44.254735	-87.604448	-70.451122
20871		9.661064	0.273075	0.184000	-0.035693	-0.016034	-0.074296	45.082650	-87.584039	-71.299356
20872		9.672658	0.147712	0.220056	-0.021801	-0.015295	-0.072448	45.882891	-87.563679	-72.111862
20873		9.702676	0.089526	0.233693	-0.007393	-0.020995	-0.068806	46.696790	-87.546508	-72.929862
20874		9.739103	0.126429	0.326714	0.006805	-0.025921	-0.068097	47.551800	-87.531149	-73.781268
20875		9.760213	0.167595	0.311875	0.021120	-0.016723	-0.071152	48.337731	-87.510341	-74.554943
20876		9.740617	0.204757	0.358061	0.012195	-0.020228	-0.078202	49.203149	-87.487430	-75.413547
20877		9.762103	0.268374	0.355116	-0.010705	-0.019583	-0.083006	50.070437	-87.461528	-76.286938
20878		9.786707	0.137919	0.300553	-0.027435	-0.017383	-0.087996	50.931250	-87.432140	-77.163512
20879		9.761059	0.081137	0.266951	-0.026291	-0.018182	-0.091605	51.806515	-87.400736	-78.053866
20880		9.780625	0.060533	0.216936	-0.027491	-0.022486	-0.096624	52.742488	-87.368046	-79.005767
20881		9.812466	0.069664	0.265551	-0.029414	-0.018542	-0.104613	53.671005	-87.329526	-79.951269
20882		9.788307	0.078576	0.266953	-0.015390	-0.022629	-0.106810	54.638491	-87.290762	-80.927483
20883		9.781316	0.134045	0.234560	-0.005942	-0.017552	-0.112107	55.567311	-87.246970	-81.859888
20884		9.782326	0.209376	0.268262	0.000029	-0.016193	-0.116907	56.490247	-87.199877	-82.782461
20885		9.754276	0.231374	0.248812	0.010002	-0.019590	-0.123873	57.461932	-87.149640	-83.748711
20886		9.750302	0.255132	0.225763	0.021398	-0.019433	-0.122870	58.401053	-87.099186	-84.675216
20887		9.757835	0.265243	0.277435	0.029488	-0.026856	-0.123667	59.385888	-87.049635	-85.643538
20888		9.736932	0.242912	0.287692	0.052995	-0.022717	-0.125976	60.326389	-86.997074	-86.553806
20889		9.744515	0.253156	0.339608	0.083108	-0.016467	-0.119191	61.156404	-86.945285	-87.336418
20890		9.727524	0.219144	0.371463	0.109677	-0.022124	-0.125743	62.061646	-86.891259	-88.178232
20891		9.720089	0.297693	0.350409	0.157330	-0.016071	-0.121616	62.886565	-86.836906	-88.913228
20892		9.708263	0.344734	0.284462	0.190766	-0.023371	-0.121245	63.770475	-86.784169	-89.688018
20893		9.736199	0.390097	0.322498	0.199794	-0.022721	-0.119186	64.616381	-86.731546	-90.419742
20894		9.724031	0.415096	0.244139	0.215397	-0.025054	-0.116657	65.457847	-86.680345	-91.137973
20895		9.716393	0.557398	0.255964	0.223101	-0.024841	-0.117287	66.279159	-86.628024	-91.831760
20896		9.711985	0.602087	0.242530	0.209597	-0.025356	-0.114230	67.064432	-86.577020	-92.496186
20897		9.727657	0.659515	0.204257	0.185819	-0.024890	-0.112373	67.802268	-86.526224	-93.127819
20898		9.674758	0.657020	0.175135	0.159075	-0.022628	-0.115516	68.497821	-86.472957	-93.731588
20899		9.666116	0.690626	0.128934	0.147449	-0.030197	-0.109717	69.211658	-86.423750	-94.361273
20900		9.741632	0.674021	0.124609	0.133418	-0.026210	-0.107486	69.860212	-86.374602	-94.933046
20901		9.773002	0.906038	0.119445	0.133094	-0.020477	-0.106320	70.438718	-86.324467	-95.435435
20902		9.740043	0.850446	0.032436	0.110862	-0.012291	-0.108558	70.930040	-86.271385	-95.863035
20903		9.791155	0.918743	0.077964	0.101502	-0.020517	-0.108291	71.468308	-86.219610	-96.343298
20904		9.798233	0.928600	0.129292	0.067474	-0.018017	-0.101540	71.936911	-86.170887	-96.773164
20905		9.729091	0.943121	0.170264	0.055135	-0.018244	-0.096020	72.373139	-86.124889	-97.177837
20906		9.716606	0.874151	0.213166	0.048992	-0.020940	-0.097501	72.822997	-86.078413	-97.599681
20907		9.736429	0.806730	0.306304	0.046933	-0.024187	-0.094211	73.277497	-86.033979	-98.027424
20908		9.712129	0.748665	0.273853	0.041692	-0.018656	-0.088549	73.664541	-85.991610	-98.390575
20909		9.732978	0.593791	0.322481	0.052441	-0.024160	-0.086623	74.086688	-85.950930	-98.782765
20910		9.801302	0.532624	0.242760	0.073049	-0.025945	-0.084181	74.522723	-85.911729	-99.177011
20911		9.797148	0.508493	0.196232	0.105819	-0.021465	-0.081557	74.928081	-85.873037	-99.521744
20912		9.792619	0.527415	0.171905	0.128046	-0.025511	-0.076850	75.362139	-85.837436	-99.882465
20913		9.759380	0.598529	0.151606	0.148304	-0.025718	-0.080117	75.807245	-85.799784	-100.242679
20914		9.689129	0.722046	0.081411	0.154597	-0.024957	-0.081854	76.247837	-85.760933	-100.594693
20915		9.683868	0.784087	0.078575	0.139723	-0.023885	-0.073785	76.648869	-85.726170	-100.915676
20916		9.678253	0.867837	0.086850	0.113932	-0.022865	-0.080731	77.035259	-85.687307	-101.236754
20917		9.673071	0.908068	0.073286	0.088708	-0.022026	-0.075647	77.384812	-85.650955	-101.535455
20918		9.681489	0.850302	0.091664	0.060516	-0.019445	-0.075539	77.695527	-85.614277	-101.811368
20919		9.709490	0.827053	0.096342	0.036400	-0.017386	-0.070681	77.963553	-85.579904	-102.058388
20920		9.741506	0.814611	0.133798	0.032503	-0.015531	-0.069155	78.211389	-85.546136	-102.287393
20921		9.773235	0.823879	0.182290	0.016207	-0.017174	-0.067311	78.453738	-85.513464	-102.520285
20922		9.792437	0.843501	0.155425	0.012097	-0.014585	-0.068683	78.675496	-85.479702	-102.734888
20923		9.762819	0.902312	0.158232	0.021731	-0.007963	-0.067664	78.849736	-85.445668	-102.896303
20924		9.796945	0.967513	0.096331	0.013957	-0.007410	-0.069710	79.017583	-85.410431	-103.055697
20925		9.769113	0.917171	0.044928	0.006369	-0.006562	-0.067182	79.167723	-85.376443	-103.201780
20926		9.726750	0.985999	-0.027235	-0.002347	-0.008031	-0.066166	79.321240	-85.343185	-103.356226
20927		9.709939	1.012169	0.040365	-0.014292	-0.014067	-0.061736	79.499890	-85.312991	-103.542805
20928		9.717596	1.018501	0.093161	-0.029447	-0.014481	-0.060073	79.670055	-85.283753	-103.729549
20929		9.678569	0.954504	0.120632	-0.029454	-0.013430	-0.058371	79.827062	-85.255302	-103.903144
20930		9.733914	0.986825	0.177071	-0.025352	-0.013909	-0.053599	79.983746	-85.229562	-104.074069
20931		9.739644	0.893866	0.153884	-0.005445	-0.007036	-0.049694	80.097478	-85.205301	-104.190446
20932		9.749863	0.790056	0.152185	0.012717	-0.010429	-0.049773	80.244967	-85.181311	-104.330253
20933		9.768661	0.829396	0.136794	0.042234	-0.008148	-0.040394	80.380371	-85.162364	-104.440973
20934		9.758569	0.898408	0.114460	0.061297	-0.007429	-0.040156	80.522374	-85.143466	-104.547311
20935		9.704823	0.951721	0.120942	0.053932	-0.008388	-0.036431	80.659797	-85.126736	-104.653335
20936		9.728008	0.979427	0.126517	0.042018	-0.015495	-0.033686	80.835327	-85.112187	-104.804452
20937		9.702669	1.024013	0.150565	0.012131	-0.009791	-0.034172	80.953972	-85.096815	-104.915673
20938		9.711181	1.005964	0.192647	-0.011998	-0.009980	-0.032727	81.059545	-85.082247	-105.027643
20939		9.745281	0.924793	0.198455	-0.037471	-0.010704	-0.033981	81.154233	-85.067029	-105.143348
20940		9.748137	0.797165	0.132385	-0.058117	-0.009138	-0.036411	81.230312	-85.050264	-105.252262
20941		9.730425	0.700255	0.113631	-0.049634	-0.004794	-0.036915	81.281173	-85.032844	-105.330977
20942		9.715596	0.658208	0.149091	-0.042923	-0.008646	-0.038030	81.363145	-85.015103	-105.437059
20943		9.720364	0.629268	0.158879	-0.039916	-0.012472	-0.036456	81.467808	-84.998581	-105.564195
20944		9.768691	0.616113	0.139526	-0.022439	-0.010470	-0.040139	81.573868	-84.979775	-105.682684
20945		9.700369	0.623641	0.182143	-0.008178	-0.013049	-0.040416	81.702527	-84.961013	-105.815660
20946		9.726295	0.707007	0.242359	-0.001853	-0.016433	-0.048974	81.864858	-84.937649	-105.978815
20947		9.748821	0.757884	0.258951	-0.011934	-0.017439	-0.048973	82.024857	-84.914323	-106.145426
20948		9.722368	0.683645	0.195614	-0.013036	-0.019744	-0.050461	82.200059	-84.890300	-106.327908
20949		9.684568	0.718206	0.132938	-0.009063	-0.022572	-0.053621	82.395008	-84.864639	-106.527969
20950		9.728280	0.717439	0.090781	0.007479	-0.022573	-0.054258	82.599296	-84.838570	-106.727885
20951		9.675406	0.728453	0.074693	-0.003037	-0.021049	-0.058317	82.787901	-84.810006	-106.918127
20952		9.670464	0.744813	0.050868	-0.003633	-0.027953	-0.059083	83.018998	-84.781453	-107.151360
20953		9.678479	0.751053	0.102137	0.002590	-0.027181	-0.060919	83.246357	-84.751699	-107.377297
20954		9.673467	0.767934	0.077994	-0.006492	-0.028231	-0.067300	83.478248	-84.718326	-107.612985
20955		9.710640	0.745166	0.136135	0.003137	-0.023612	-0.069671	83.684730	-84.683200	-107.817665
20956		9.710819	0.730185	0.122874	0.001782	-0.023093	-0.070665	83.886515	-84.647439	-108.018361
20957		9.714920	0.726403	0.142216	0.009108	-0.019997	-0.071003	84.070040	-84.611206	-108.196570
20958		9.680552	0.773758	0.112056	0.024253	-0.018414	-0.070987	84.251501	-84.574876	-108.363980
20959		9.670072	0.823774	0.078164	0.035490	-0.016067	-0.071146	84.421944	-84.538236	-108.513886
20960		9.696725	0.944094	0.015384	0.043606	-0.020374	-0.071238	84.621642	-84.501777	-108.688497
20961		9.690685	0.983312	0.002477	0.039921	-0.020357	-0.068522	84.814039	-84.466766	-108.857925
20962		9.707068	1.068640	0.007741	0.043542	-0.017246	-0.066171	84.988036	-84.432928	-109.006721
20963		9.705596	1.096881	0.016536	0.023383	-0.019365	-0.066141	85.159668	-84.399127	-109.164826
20964		9.687966	1.144525	0.094291	0.023009	-0.013448	-0.060643	85.293470	-84.368177	-109.285111
20965		9.697455	1.107222	0.124978	0.011448	-0.010923	-0.056634	85.401648	-84.339340	-109.386342
20966		9.727094	1.061124	0.119589	0.014167	-0.010884	-0.052924	85.509618	-84.312630	-109.485743
20967		9.679480	1.038667	0.115453	0.019993	-0.004178	-0.049290	85.578870	-84.287654	-109.542944
20968		9.702122	1.067899	0.121606	0.042287	-0.007851	-0.044680	85.680418	-84.265479	-109.619734
20969		9.688375	1.081929	0.045107	0.044724	-0.004995	-0.040500	85.763532	-84.245543	-109.676628
20970		9.714939	1.121689	0.083475	0.053904	-0.005933	-0.037441	85.856596	-84.227400	-109.738244
20971		9.715357	1.103609	0.071367	0.048909	-0.007499	-0.039090	85.954667	-84.208353	-109.807766
20972		9.691030	1.104269	0.073910	0.046787	-0.008753	-0.032520	86.056618	-84.193109	-109.882354
20973		9.702690	1.021027	0.083109	0.032576	-0.008358	-0.035558	86.147759	-84.176091	-109.954321
20974		9.703210	1.002521	0.071132	0.033918	-0.007817	-0.032870	86.236282	-84.160581	-110.022931
20975		9.684551	0.970632	0.084511	0.031462	-0.009633	-0.035356	86.332901	-84.143703	-110.101050
20976		9.718538	0.933934	0.111494	0.026871	-0.012714	-0.031292	86.443249	-84.129248	-110.195552
20977		9.719156	0.914979	0.099229	0.040814	-0.010269	-0.027767	86.545186	-84.116703	-110.273635
20978		9.718013	0.939735	0.108522	0.039776	-0.013612	-0.030897	86.666762	-84.102472	-110.372016
20979		9.733029	0.944704	0.048936	0.047629	-0.015064	-0.030511	86.799122	-84.088481	-110.476763
20980		9.714750	1.011656	0.137370	0.050862	-0.011472	-0.035568	86.915536	-84.071470	-110.563593
20981		9.736274	0.962782	0.077863	0.058679	-0.011885	-0.033514	87.036472	-84.055619	-110.650495
20982		9.705462	1.017120	0.079884	0.060524	-0.014892	-0.028418	87.174022	-84.042759	-110.753030
20983		9.699480	1.052217	0.067277	0.067557	-0.008926	-0.028302	87.281386	-84.029770	-110.821176
20984		9.671402	1.040484	0.037037	0.074547	-0.013426	-0.026510	87.417501	-84.017919	-110.914157
20985		9.669268	1.087052	0.056326	0.074654	-0.015475	-0.029800	87.564168	-84.004204	-111.017736
20986		9.712010	1.105932	0.024686	0.078472	-0.013078	-0.024607	87.699237	-83.993382	-111.107482
20987		9.662948	1.124641	0.040949	0.083683	-0.015590	-0.029537	87.850575	-83.979767	-111.210562
20988		9.709535	1.155173	0.041415	0.083619	-0.013500	-0.026193	87.990307	-83.967997	-111.301985
20989		9.681436	1.143199	0.010786	0.071013	-0.015434	-0.027023	88.132013	-83.955765	-111.402682
20990		9.698466	1.049013	0.041395	0.067305	-0.015444	-0.024338	88.271712	-83.945037	-111.503450
20991		9.658064	0.969490	0.036687	0.078916	-0.016830	-0.026575	88.424449	-83.933032	-111.610690
20992		9.700784	0.988283	0.004597	0.086854	-0.019270	-0.027795	88.595473	-83.920323	-111.731753
20993		9.705374	0.980611	0.023424	0.106219	-0.018950	-0.024645	88.773916	-83.909384	-111.849118
20994		9.709977	0.972978	0.042284	0.107178	-0.016889	-0.027644	88.942598	-83.896662	-111.956106
20995		9.670266	1.025173	-0.011036	0.120417	-0.019456	-0.025949	89.130906	-83.884905	-112.075217
20996		9.714890	1.099721	0.009295	0.121939	-0.021971	-0.028163	89.333994	-83.871856	-112.208320
20997		9.756533	1.140557	-0.013388	0.119475	-0.022744	-0.028935	89.538181	-83.858318	-112.343950
20998		9.781094	1.224275	0.042774	0.103954	-0.020630	-0.026864	89.722434	-83.845902	-112.468392
20999		9.799805	1.239774	0.013914	0.070888	-0.021861	-0.022862	89.892636	-83.835748	-112.597846
21000		9.801469	1.298181	0.063998	0.050349	-0.022459	-0.024155	90.054663	-83.824801	-112.730912
21001		9.768429	1.295761	0.011536	0.014318	-0.023090	-0.026747	90.197917	-83.812343	-112.865868
21002		9.743276	1.216862	-0.050097	-0.009856	-0.022379	-0.019253	90.324171	-83.804119	-112.997612
21003		9.700166	1.202736	-0.022128	-0.018049	-0.018173	-0.019247	90.422308	-83.795915	-113.105844
21004		9.695974	1.192788	-0.055794	-0.025844	-0.018860	-0.022959	90.520051	-83.785526	-113.218150
21005		9.654862	1.134658	-0.048264	-0.031054	-0.016331	-0.018037	90.600544	-83.777986	-113.316133
21006		9.606866	1.130456	-0.041667	-0.030440	-0.021945	-0.018892	90.711470	-83.769862	-113.444455
21007		9.632547	1.091060	-0.068238	-0.024329	-0.017969	-0.015767	90.804092	-83.763574	-113.550765
21008		9.655301	1.017503	-0.137458	-0.027707	-0.021847	-0.015188	90.915862	-83.757518	-113.678318
21009		9.688913	1.001868	-0.100164	-0.003164	-0.022957	-0.015337	91.046328	-83.751383	-113.810501
21010		9.722579	0.985915	-0.062796	0.007920	-0.016307	-0.008911	91.149727	-83.748936	-113.909090
21011		9.712566	1.006754	-0.107717	0.007826	-0.014228	-0.005619	91.241568	-83.748418	-113.996085
21012		9.697538	1.137649	-0.100446	0.019712	-0.017351	-0.006638	91.357413	-83.747223	-114.100274
21013		9.740212	1.123182	-0.008996	-0.012673	-0.015893	-0.008539	91.445788	-83.744976	-114.195597
21014		9.719261	1.054707	-0.037476	-0.023217	-0.012204	-0.004847	91.510287	-83.744843	-114.272936
21015		9.742088	1.080193	-0.032058	-0.016758	-0.012078	-0.003808	91.576984	-83.745337	-114.348806
21016		9.688317	1.106485	-0.035872	-0.024741	-0.008609	-0.000929	91.622414	-83.747484	-114.407865
21017		9.644521	1.112572	0.003950	-0.017370	-0.006460	-0.002944	91.659562	-83.748552	-114.454363
21018		9.590778	1.138623	0.000876	-0.034462	-0.000816	0.003011	91.659280	-83.753081	-114.473067
21019		9.610692	1.029579	-0.109519	-0.036307	-0.008284	-0.000321	91.695578	-83.755617	-114.529624
21020		9.646541	0.968350	-0.091889	-0.012947	-0.009652	0.001337	91.753702	-83.759028	-114.594677
21021		9.761967	1.071252	-0.071255	0.007805	-0.009764	0.005454	91.824090	-83.764833	-114.660100
21022		9.785995	1.042157	0.046803	0.004632	-0.003929	0.007135	91.863440	-83.771660	-114.696127
21023		9.778097	1.117662	0.056173	0.007191	-0.004149	0.006318	91.904371	-83.778054	-114.732271
21024		9.728432	1.155048	0.084918	-0.001823	-0.004049	0.006104	91.940583	-83.784281	-114.768905
21025		9.673743	1.102440	0.018113	-0.022455	-0.002590	0.008141	91.956795	-83.791744	-114.797269
21026		9.606110	1.004859	-0.011912	-0.041110	-0.010637	0.000898	92.004330	-83.794853	-114.867887
21027		9.612113	0.972510	-0.001412	-0.030754	-0.010174	0.003781	92.055068	-83.799662	-114.935763
21028		9.615107	0.906038	-0.033833	-0.017536	-0.012742	0.005408	92.128223	-83.805296	-115.018586
21029		9.710663	0.917538	-0.051727	0.003873	-0.019516	0.007000	92.249001	-83.811723	-115.136956
21030		9.718718	1.072260	-0.037987	0.019125	-0.018768	0.005378	92.375323	-83.817175	-115.252153
21031		9.742638	1.074793	-0.044157	0.006479	-0.020771	0.004540	92.504149	-83.822107	-115.377113
21032		9.797521	1.126338	0.020443	-0.002747	-0.019935	0.001476	92.623599	-83.825240	-115.497926
21033		9.768678	1.133072	0.001262	-0.031042	-0.017802	0.005993	92.715926	-83.831029	-115.607795
21034		9.774701	1.100598	0.011140	-0.053171	-0.017193	0.000890	92.792032	-83.833856	-115.714125
21035		9.731971	1.084496	0.039683	-0.073027	-0.024432	-0.002831	92.893368	-83.834371	-115.857250
21036		9.735785	0.996883	-0.004024	-0.084786	-0.023350	-0.005038	92.982449	-83.833588	-115.994788
21037		9.697829	0.871231	-0.028421	-0.093765	-0.023218	-0.005197	93.064805	-83.832737	-116.130775
21038		9.673914	0.868664	-0.025787	-0.078290	-0.023198	-0.003963	93.157030	-83.832532	-116.267798
21039		9.651907	0.822247	-0.044594	-0.074241	-0.025951	-0.007042	93.264425	-83.830490	-116.417718
21040		9.647735	0.811291	-0.078845	-0.061243	-0.027787	-0.008299	93.389254	-83.827610	-116.577670
21041		9.640695	0.866081	-0.081175	-0.048695	-0.023728	-0.004187	93.500264	-83.827212	-116.716506
21042		9.651479	0.956244	-0.098758	-0.039203	-0.030768	-0.011031	93.652376	-83.822596	-116.891165
21043		9.630656	0.987838	-0.054257	-0.044297	-0.030316	-0.009361	93.798748	-83.818921	-117.063037
21044		9.705294	1.031671	-0.026161	-0.059987	-0.028520	-0.011723	93.926372	-83.813903	-117.225130
21045		9.675287	1.061782	-0.035074	-0.068478	-0.030904	-0.007805	94.062166	-83.811008	-117.400301
21046		9.726103	1.102267	-0.002625	-0.081383	-0.030061	-0.008119	94.186616	-83.807906	-117.571476
21047		9.714276	1.035349	0.021181	-0.097726	-0.031022	-0.004533	94.307294	-83.806793	-117.748298
21048		9.690373	1.032752	0.023506	-0.101892	-0.028513	-0.005870	94.412473	-83.804969	-117.911940
21049		9.666463	1.030241	0.025952	-0.119507	-0.031028	-0.006558	94.519725	-83.802625	-118.087812
21050		9.615454	0.991334	-0.010494	-0.125892	-0.031080	-0.007475	94.623753	-83.799703	-118.264095
21051		9.671928	0.900814	-0.043175	-0.104241	-0.044027	-0.015927	94.803644	-83.791315	-118.504239
21052		9.805040	1.040486	-0.038697	-0.090632	-0.037683	-0.010385	94.960641	-83.786313	-118.713603
21053		9.745526	0.979221	-0.140678	-0.068246	-0.031756	-0.009240	95.099071	-83.782215	-118.891301
21054		9.853931	1.125450	0.011975	-0.042085	-0.046682	-0.007411	95.331910	-83.778310	-119.148819
21055		9.710252	1.239616	-0.012208	-0.063307	-0.028092	-0.004279	95.456019	-83.777117	-119.309267
21056		9.645687	1.176691	-0.002375	-0.076003	-0.040729	-0.007784	95.637633	-83.773164	-119.534805
21057		9.657189	1.245340	-0.030658	-0.082359	-0.041812	-0.010361	95.819039	-83.767618	-119.763872
21058		9.616431	1.185872	-0.025287	-0.104532	-0.036972	-0.008577	95.963630	-83.763279	-119.968733
21059		9.591892	1.085152	-0.099574	-0.114565	-0.038082	-0.008425	96.107592	-83.758928	-120.178699
21060		9.641275	1.048715	-0.132838	-0.109746	-0.045118	-0.006284	96.292392	-83.755264	-120.427047
21061		9.659586	0.952246	-0.105014	-0.104445	-0.045278	-0.003437	96.482016	-83.753154	-120.677118
21062		9.671788	0.888066	-0.087826	-0.096798	-0.045917	-0.005956	96.678158	-83.749451	-120.929265
21063		9.695194	0.900900	0.048147	-0.069568	-0.050158	-0.007801	96.909968	-83.744335	-121.201676
21064		9.732251	0.929544	-0.007501	-0.066884	-0.053403	-0.013591	97.156381	-83.735557	-121.487211
21065		9.741912	0.922699	-0.102752	-0.029894	-0.054743	-0.016806	97.427538	-83.724732	-121.776345
21066		9.783085	0.860872	0.073254	-0.022208	-0.065838	-0.017702	97.759101	-83.712378	-122.121780
21067		9.782953	0.862816	0.067867	-0.019490	-0.047973	-0.022347	97.995289	-83.698617	-122.369750
21068		9.664484	0.938440	0.017633	-0.020822	-0.048480	-0.024979	98.230632	-83.683207	-122.617674
21069		9.655515	0.927587	0.091996	-0.024799	-0.059436	-0.029571	98.514616	-83.664160	-122.916809
21070		9.665051	0.930938	0.141595	-0.054902	-0.033309	-0.032919	98.644408	-83.645336	-123.078151
21071		9.627681	0.897168	0.047577	-0.138878	-0.008611	-0.021617	98.608509	-83.635018	-123.121208
21072		9.594577	0.865268	-0.157717	-0.167229	-0.032064	-0.010573	98.684010	-83.628944	-123.292669
21073		9.546527	1.017018	0.236159	-0.128637	-0.055732	-0.011204	98.900566	-83.620381	-123.583850
21074		9.613371	1.255377	0.364671	-0.177637	-0.043164	-0.020344	99.017582	-83.607691	-123.803117
21075		9.575501	1.094837	0.037090	-0.214246	-0.037281	-0.028320	99.076775	-83.590961	-123.985320
21076		9.470262	1.001897	0.208602	-0.155710	-0.069358	-0.032295	99.326493	-83.569006	-124.325486
21077		9.516551	1.298854	0.540011	-0.169954	-0.077526	-0.034463	99.605059	-83.544864	-124.702933
21078		9.672345	1.171219	0.062594	-0.255533	-0.052769	-0.036850	99.706824	-83.521628	-124.951813
21079		9.734899	0.932983	-0.053851	-0.245845	-0.064797	-0.029322	99.879255	-83.501388	-125.266237
21080		9.743794	0.956357	0.006993	-0.218020	-0.068372	-0.017842	100.093541	-83.487170	-125.606747
21081		9.758998	0.982829	-0.300476	-0.189703	-0.072289	-0.021788	100.338890	-83.470155	-125.962209
21082		9.692263	1.001146	-0.649314	-0.093969	-0.078795	-0.025152	100.665899	-83.450389	-126.344667
21083		9.811020	1.283457	-0.342141	-0.069174	-0.096268	-0.029913	101.086033	-83.425747	-126.806581
21084		9.834332	1.407941	-0.262900	-0.129329	-0.072485	-0.034618	101.348139	-83.400818	-127.144132
21085		9.754210	1.476856	-0.239883	-0.186013	-0.062723	-0.031701	101.531512	-83.378465	-127.435137
21086		9.646993	1.210690	-0.216410	-0.243648	-0.062641	-0.023544	101.687858	-83.360607	-127.732195
21087		9.466720	1.020419	-0.389632	-0.230943	-0.070093	-0.019632	101.890264	-83.343957	-128.068302
21088		9.463049	1.179243	-0.423672	-0.222066	-0.083854	-0.031924	102.149314	-83.318625	-128.456338
21089		9.626254	1.134198	-0.528776	-0.263743	-0.086003	-0.041467	102.382483	-83.287490	-128.842376
21090		9.611610	1.018042	-0.568474	-0.244163	-0.088556	-0.039323	102.638207	-83.257046	-129.239859
21091		9.639798	1.152100	-0.453904	-0.213190	-0.088508	-0.028839	102.919956	-83.232248	-129.645694
21092		9.664505	1.117034	-0.488248	-0.221373	-0.083283	-0.030997	103.167634	-83.206699	-130.021965
21093		9.639411	1.072587	-0.657792	-0.186268	-0.080277	-0.029290	103.420968	-83.182306	-130.383691
21094		9.805375	1.080213	-0.708492	-0.139390	-0.090953	-0.027790	103.750217	-83.157090	-130.794841
21095		9.937107	1.080499	-0.553433	-0.095193	-0.091984	-0.028615	104.105722	-83.130985	-131.206955
21096		9.993893	1.297760	-0.486515	-0.103308	-0.085092	-0.047346	104.400141	-83.095168	-131.562239
21097		10.141225	1.242354	-0.425123	-0.121477	-0.075387	-0.058986	104.622544	-83.054099	-131.855503
21098		10.146507	1.166168	-0.334975	-0.159199	-0.067657	-0.065265	104.778172	-83.010549	-132.103289
21099		10.140156	0.927469	-0.303828	-0.201641	-0.053723	-0.074902	104.832764	-82.963656	-132.273808
21100		10.023549	0.667812	-0.339637	-0.214897	-0.040512	-0.081572	104.811786	-82.914995	-132.375838
21101		9.894703	0.504674	-0.491395	-0.187119	-0.037956	-0.098741	104.774422	-82.857206	-132.445341
21102		9.880715	0.446432	-0.617713	-0.150195	-0.039335	-0.118386	104.741525	-82.788359	-132.497998
21103		9.823400	0.413119	-0.690507	-0.109394	-0.052918	-0.142785	104.762323	-82.703990	-132.581260
21104		9.969417	0.792055	-0.673481	-0.116918	-0.042847	-0.167125	104.707674	-82.607655	-132.592748
21105		9.856910	0.821340	-0.463914	-0.205122	-0.055217	-0.187402	104.632597	-82.498238	-132.634672
21106		9.824891	0.819101	-0.383309	-0.296657	-0.039886	-0.202127	104.427061	-82.382936	-132.597824
21107		9.747235	0.592838	-0.214865	-0.370167	-0.035266	-0.215652	104.149762	-82.260693	-132.531138
21108		9.551596	0.542803	-0.112417	-0.348389	-0.023570	-0.233361	103.825997	-82.130268	-132.404832
21109		9.487468	0.407622	-0.187777	-0.316893	-0.024204	-0.240023	103.522954	-81.995867	-132.281292
21110		9.675124	0.464901	-0.226771	-0.194228	-0.034241	-0.246528	103.330335	-81.856558	-132.198125
21111		9.768177	0.785747	-0.374749	-0.132660	-0.027602	-0.250357	103.147843	-81.715821	-132.089649
21112		9.930231	1.179813	-0.353365	-0.080812	-0.029708	-0.247411	103.010785	-81.576569	-131.996877
21113		9.848224	1.320893	-0.644010	-0.067617	-0.025500	-0.249986	102.866546	-81.436230	-131.889321
21114		9.710115	1.603848	-0.567446	-0.004804	-0.032771	-0.241576	102.796226	-81.299795	-131.819926
21115		9.760223	1.798410	-0.514334	-0.040790	-0.026613	-0.247750	102.679806	-81.160511	-131.724887
21116		9.593970	1.749015	-0.509304	-0.005834	-0.024227	-0.243910	102.581790	-81.023792	-131.628010
21117		9.652604	1.916363	-0.180674	0.018524	-0.032870	-0.234698	102.537169	-80.890983	-131.571190
21118		9.662472	1.866667	-0.437688	0.009901	-0.029871	-0.224778	102.486963	-80.764220	-131.513551
21119		9.654983	1.929257	-0.415398	0.042919	-0.029967	-0.216175	102.463159	-80.642119	-131.463621
21120		9.623956	1.986235	-0.388927	0.043890	-0.033504	-0.209379	102.458345	-80.523496	-131.432225
21121		9.665976	2.004373	-0.290347	-0.006898	-0.026688	-0.205387	102.404799	-80.407830	-131.381045
21122		9.632227	1.654312	-0.443416	-0.003006	-0.026358	-0.203650	102.355444	-80.293266	-131.331717
21123		9.705462	1.857295	-0.126980	0.026626	-0.024377	-0.208448	102.313766	-80.176156	-131.273055
21124		9.698542	1.655958	-0.376670	-0.015602	-0.015951	-0.201510	102.227618	-80.064036	-131.193679
21125		9.696087	1.522451	-0.410593	0.016549	-0.028526	-0.201884	102.200610	-79.950077	-131.155733
21126		9.713173	1.627220	-0.222217	0.016170	-0.017997	-0.203065	102.140935	-79.836817	-131.084698
21127		9.595353	1.518657	-0.173564	0.020053	-0.019472	-0.209005	102.085026	-79.719947	-131.015319
21128		9.587004	1.370156	-0.509174	0.031927	-0.023165	-0.212326	102.046876	-79.600863	-130.956934
21129		9.469853	1.393842	-0.442622	0.100811	-0.023453	-0.217431	102.046189	-79.478780	-130.896604
21130		9.366552	1.587741	-0.370485	0.090941	-0.032320	-0.223543	102.063638	-79.352326	-130.860323
21131		9.433795	1.502924	-0.519701	0.107441	-0.040224	-0.224654	102.112796	-79.224192	-130.846807
21132		9.389713	1.673139	-0.307140	0.117583	-0.040556	-0.228238	102.166551	-79.094132	-130.831912
21133		9.383888	1.765819	-0.241710	0.101376	-0.041910	-0.236794	102.208708	-78.959000	-130.814792
21134		9.365330	1.760892	-0.346075	0.105135	-0.034684	-0.242861	102.228975	-78.821470	-130.773025
21135		9.435494	1.869990	-0.386945	0.138391	-0.051321	-0.242446	102.314793	-78.682033	-130.778782
21136		9.535493	2.023925	-0.356149	0.192734	-0.052034	-0.244853	102.431419	-78.541279	-130.784070
21137		9.597135	2.205977	-0.473523	0.176706	-0.051607	-0.241349	102.537960	-78.402417	-130.788578
21138		9.698983	2.176154	-0.519201	0.197240	-0.041762	-0.223907	102.639304	-78.274647	-130.775639
21139		9.598858	2.236119	-0.325771	0.177862	-0.044449	-0.222532	102.736225	-78.147201	-130.769647
21140		9.565787	2.241800	-0.361880	0.143963	-0.051193	-0.223625	102.830383	-78.018392	-130.780560
21141		9.572143	2.109563	-0.254901	0.110736	-0.062553	-0.228478	102.930783	-77.885318	-130.817445
21142		9.429454	1.791221	-0.343702	0.090569	-0.055881	-0.234561	102.997795	-77.749786	-130.831903
21143		9.266520	1.648525	-0.443764	0.115827	-0.062383	-0.238539	103.092151	-77.611097	-130.859654
21144		9.284466	1.542829	-0.618481	0.173125	-0.084663	-0.242985	103.271485	-77.467105	-130.940709
21145		9.370527	1.743049	-0.477468	0.221005	-0.090748	-0.253621	103.483611	-77.316217	-131.027420
21146		9.344675	1.696502	-0.666749	0.232322	-0.104784	-0.270492	103.723357	-77.154085	-131.135724
21147		9.429110	1.809727	-0.521535	0.282013	-0.127353	-0.290607	104.029042	-76.977435	-131.282676
21148		9.573124	1.833472	-0.449504	0.287058	-0.114489	-0.309216	104.290338	-76.792216	-131.381045
21149		9.535916	1.828167	-0.414667	0.306096	-0.119867	-0.320290	104.563031	-76.599856	-131.480137
21150		9.676851	1.915974	-0.398222	0.281633	-0.123520	-0.331185	104.818773	-76.400965	-131.576136
21151		9.764561	1.790920	-0.416428	0.261604	-0.129534	-0.336700	105.067964	-76.197894	-131.677442
21152		9.719688	1.800014	-0.402673	0.276154	-0.131598	-0.351479	105.316399	-75.986399	-131.769304
21153		9.674780	1.833570	-0.580685	0.283481	-0.147922	-0.366320	105.590250	-75.763958	-131.883298
21154		9.842367	1.907407	-0.474534	0.319646	-0.153542	-0.373157	105.886983	-75.536918	-131.999454
21155		9.882587	2.120225	-0.194935	0.358632	-0.153147	-0.377447	106.195814	-75.307249	-132.105333
21156		9.781311	2.252929	-0.162444	0.322221	-0.152851	-0.378992	106.476383	-75.076844	-132.203477
21157		9.397918	2.063133	-0.695765	0.313534	-0.141169	-0.396806	106.711561	-74.838259	-132.260072
21158		8.990284	2.068925	-1.292474	0.343502	-0.145883	-0.402477	106.965545	-74.595935	-132.318231
21159		9.148413	2.102628	-1.783666	0.361160	-0.181500	-0.405960	107.292109	-74.345405	-132.441484
21160		9.633903	2.253377	-1.980163	0.334644	-0.185484	-0.406967	107.604022	-74.093674	-132.565230
21161		9.894785	2.337455	-1.803404	0.281808	-0.153062	-0.406184	107.818197	-73.847657	-132.619157
21162		9.776334	2.677539	-1.063115	0.180739	-0.108531	-0.403453	107.890510	-73.611128	-132.585439
21163		9.590224	2.452069	-0.951399	-0.015921	-0.061026	-0.403947	107.762737	-73.382444	-132.460772
21164		9.579288	2.326248	-0.858314	-0.053560	-0.039598	-0.388601	107.587586	-73.165990	-132.308746
21165		9.631927	2.695046	-0.617870	-0.134274	-0.023719	-0.382487	107.345153	-72.955232	-132.134821
21166		9.743887	3.023474	-0.591021	-0.176412	-0.023772	-0.381051	107.085130	-72.745260	-131.967289
21167		9.582916	3.181414	-0.496953	-0.210843	-0.001219	-0.375196	106.773830	-72.541787	-131.766785
21168		9.411965	3.314160	-0.464885	-0.230127	-0.003904	-0.367785	106.466229	-72.341846	-131.581271
21169		9.244787	3.423506	-0.443054	-0.249976	0.001921	-0.352560	106.149951	-72.150690	-131.398643
21170		9.178245	3.303987	-0.742146	-0.237520	0.001341	-0.347888	105.849567	-71.961924	-131.224797
21171		9.184230	3.187299	-1.072403	-0.170385	0.004505	-0.340085	105.590312	-71.777488	-131.053795
21172		9.329658	3.194743	-1.319622	-0.120889	0.010312	-0.335804	105.356177	-71.596266	-130.878988
21173		9.453668	2.985321	-1.543501	-0.066170	0.026178	-0.330019	105.133323	-71.420224	-130.683051
21174		9.550955	3.030674	-1.318878	-0.008783	0.036350	-0.324215	104.933417	-71.248859	-130.476207
21175		9.529092	2.979285	-1.376381	-0.004203	0.045270	-0.322081	104.725870	-71.079568	-130.258531
21176		9.634361	2.777859	-1.471816	0.042303	0.046323	-0.331195	104.543571	-70.905320	-130.038915
21177		9.721877	2.898341	-1.179220	0.055769	0.075856	-0.335098	104.323614	-70.732692	-129.771267
21178		9.667109	2.946734	-0.914791	0.039159	0.075981	-0.342704	104.095789	-70.555707	-129.504818
21179		9.813349	2.991286	-0.914022	0.033063	0.070669	-0.348775	103.874376	-70.374074	-129.248847
21180		9.877717	3.058798	-0.780454	0.024859	0.088237	-0.361030	103.621373	-70.187865	-128.963742
21181		9.741474	3.097813	-0.628365	-0.007950	0.096105	-0.363781	103.341073	-70.000523	-128.669541
21182		9.686787	3.007535	-0.771546	-0.015583	0.092080	-0.369149	103.066413	-69.809398	-128.385361
21183		9.798464	3.014100	-0.858175	-0.008774	0.092385	-0.377913	102.796904	-69.612735	-128.102448
21184		9.882536	2.986973	-0.688686	-0.038100	0.091842	-0.389272	102.513435	-69.409422	-127.821898
21185		9.977455	2.951912	-0.700568	-0.056637	0.090020	-0.398899	102.223994	-69.199769	-127.546241
21186		10.174397	2.558543	-0.686952	-0.081192	0.081733	-0.420548	101.932014	-68.976769	-127.282207
21187		10.351115	2.462670	-0.389010	-0.088685	0.082773	-0.428212	101.637288	-68.748845	-127.019758
21188		10.456824	2.577251	-0.341597	-0.120730	0.073834	-0.434770	101.341466	-68.516055	-126.775072
21189		10.478365	2.532145	-0.357846	-0.099541	0.060918	-0.446252	101.078065	-68.274619	-126.552165
21190		10.410372	2.764501	-0.041718	-0.088462	0.042531	-0.460002	100.848643	-68.023474	-126.358241
21191		10.405587	3.177802	0.093376	-0.155004	0.031771	-0.468266	100.598312	-67.765851	-126.182958
21192		10.207643	3.260818	0.200468	-0.244389	0.028444	-0.474870	100.305044	-67.504279	-126.015875
21193		10.027708	3.297217	0.194709	-0.299552	0.019531	-0.474351	99.997312	-67.241342	-125.867472
21194		9.822731	3.328016	0.083583	-0.366025	0.005507	-0.480925	99.674146	-66.973475	-125.742941
21195		9.719214	3.411526	0.037584	-0.425326	-0.001399	-0.481158	99.330976	-66.704083	-125.633788
21196		9.703194	3.565370	-0.075871	-0.458542	-0.028528	-0.507767	99.003690	-66.417410	-125.562029
21197		9.980397	3.572592	-0.073190	-0.537251	-0.042176	-0.520011	98.651061	-66.121948	-125.512124
21198		10.010594	3.335916	-0.095670	-0.551649	-0.045428	-0.511915	98.300645	-65.831201	-125.473121
21199		10.103811	3.249947	-0.139150	-0.550400	-0.063068	-0.490035	97.981163	-65.550826	-125.467629
21200		10.284470	3.207798	0.029869	-0.581973	-0.071558	-0.460021	97.662778	-65.287381	-125.482761
21201		10.224186	3.101749	0.109965	-0.610428	-0.081751	-0.429847	97.348402	-65.039790	-125.520771
21202		10.156552	3.432489	0.164033	-0.579753	-0.094614	-0.448061	97.066789	-64.781627	-125.575136
21203		9.988220	3.720069	0.186590	-0.573340	-0.115122	-0.482351	96.810403	-64.502035	-125.653965
21204		9.971920	3.779787	0.230264	-0.658925	-0.134507	-0.545955	96.520924	-64.185782	-125.750170
21205		9.875089	3.650682	0.338112	-0.730557	-0.138258	-0.646124	96.184025	-63.811824	-125.840070
21206		9.517361	3.688055	0.564475	-0.640175	-0.139812	-0.771601	95.888085	-63.367202	-125.917683
21207		9.390654	4.033299	0.938243	-0.537884	-0.144392	-0.901561	95.643933	-62.847700	-125.988496
21208		9.551002	4.168614	0.684780	-0.519253	-0.143902	-1.051383	95.396611	-62.243655	-126.043561
21209		9.195347	3.811548	0.052223	-0.464024	-0.075877	-1.222970	95.095695	-61.544673	-126.002832
21210		8.741360	3.500774	-0.300165	-0.293140	-0.084128	-1.367204	94.894577	-60.763639	-125.963472
21211		7.704293	4.212166	0.754048	-0.369438	0.004619	-1.602211	94.549364	-59.851754	-125.808745
21212		8.608872	3.423621	0.045321	-0.574465	-0.070771	-1.765181	94.162027	-58.843801	-125.739597
21213		10.009007	3.774442	-0.991262	-0.362008	-0.022295	-1.830499	93.859733	-57.799478	-125.627084
21214		10.704926	5.128992	-0.660060	-0.134224	-0.075881	-1.914213	93.740246	-56.705904	-125.574868
21215		11.430142	6.741160	-0.452926	-0.366566	-0.026459	-2.048276	93.446326	-55.536497	-125.472773
21216		10.543630	7.140522	-0.748039	-0.692007	0.171045	-2.214249	92.814689	-54.278788	-125.183775
21217		9.465176	7.206391	-0.803890	-1.068150	0.103726	-2.309372	92.048700	-52.962174	-124.991469
21218		8.878532	7.123843	-0.843912	-1.197385	0.026247	-2.361214	91.294641	-51.614070	-124.903858
21219		8.061390	7.988061	0.367198	-1.264616	0.044551	-2.388274	90.514554	-50.249151	-124.831269
21220		7.483372	8.050989	0.872258	-1.624342	0.042217	-2.402493	89.556697	-48.876411	-124.793920
21221		7.595507	7.487217	0.280020	-1.840709	0.048634	-2.390048	88.499134	-47.509680	-124.788897
21222		7.315358	7.118839	0.267559	-1.831586	0.102397	-2.401014	87.441086	-46.136566	-124.775454
21223		6.868674	6.766986	1.020780	-1.846221	0.017269	-2.460203	86.451506	-44.731435	-124.870052
21224		7.806001	6.943281	1.397113	-1.896702	-0.056560	-2.444118	85.492845	-43.340607	-125.052650
21225		8.291676	6.442240	1.192927	-2.207095	0.165847	-2.344493	84.253486	-41.997229	-125.088635
21226		7.743232	5.313972	0.672076	-2.083876	0.226422	-2.268877	83.073771	-40.694788	-125.108543
21227		7.745890	5.564997	1.334739	-1.656078	0.124302	-2.239450	82.205366	-39.416188	-125.232254
21228		8.221834	5.759504	1.847128	-1.393577	0.134207	-2.213412	81.491571	-38.153919	-125.365599
21229		8.136373	5.768988	2.065111	-1.209790	0.260596	-2.157692	80.832509	-36.912468	-125.420164
21230		7.582143	5.720586	1.993830	-0.964079	0.279422	-2.050948	80.306763	-35.731146	-125.463217
21231		7.203605	6.266025	2.174946	-0.703511	0.280924	-1.930215	79.927145	-34.617088	-125.502441
21232		6.860492	6.287173	2.264611	-0.532643	0.263891	-1.836284	79.648578	-33.559071	-125.547947
21233		6.767444	6.612025	1.978601	-0.258635	0.229208	-1.743750	79.535185	-32.555783	-125.610124
21234		6.574209	7.065218	2.158941	-0.081211	0.222823	-1.658339	79.519226	-31.602561	-125.665646
21235		6.609749	6.958174	1.812838	0.070677	0.162687	-1.526035	79.601453	-30.728885	-125.744583
21236		6.530383	7.020931	1.567857	0.319533	0.135036	-1.418985	79.825886	-29.919500	-125.824381
21237		6.563518	7.431104	1.567796	0.463269	0.112084	-1.299765	80.130279	-29.178066	-125.901585
21238		6.729743	7.534944	1.320855	0.526679	0.107795	-1.198426	80.463198	-28.495284	-125.963978
21239		6.706245	7.830578	1.076527	0.608822	0.101813	-1.090750	80.836923	-27.872235	-126.014819
21240		6.449817	8.407700	0.997802	0.696107	0.064636	-0.944094	81.261603	-27.336663	-126.068263
21241		6.071697	8.896613	1.318682	0.682776	0.022962	-0.795148	81.682069	-26.887230	-126.130541
21242		5.953152	9.315335	1.264063	0.595800	-0.057442	-0.666473	82.067955	-26.518429	-126.227186
21243		6.021602	9.886079	1.142503	0.497625	-0.023718	-0.566001	82.382824	-26.202008	-126.292204
21244		5.757894	10.327163	1.211643	0.425615	0.050950	-0.422852	82.628981	-25.962598	-126.294932
21245		5.913783	10.656946	0.810446	0.264275	0.128170	-0.331342	82.758131	-25.768002	-126.241870
21246		6.133721	9.804921	-0.205249	0.155469	0.244908	-0.200660	82.788172	-25.640914	-126.103198
21247		5.558888	10.285411	0.172270	0.345408	0.231767	-0.089928	82.927332	-25.576322	-125.965249
21248		5.347813	10.256336	0.604084	0.360328	0.031684	0.020511	83.125542	-25.590434	-125.943454
21249		6.115455	10.222958	0.738773	0.342540	0.004723	0.168509	83.316392	-25.689026	-125.928916
21250		6.269447	10.064468	0.355897	0.437556	0.195912	0.285825	83.505303	-25.843500	-125.784003
21251		5.571975	7.557481	0.027270	0.486269	0.322068	0.408190	83.683336	-26.058360	-125.552150
21252		4.562824	9.806348	-0.045601	1.224847	0.371224	0.409189	84.270261	-26.273912	-125.288832
21253		4.935317	12.523296	-0.306220	0.865661	0.057197	0.488773	84.738124	-26.552547	-125.223629
21254		5.886078	11.254059	0.050650	0.663740	-0.092961	0.478308	85.134174	-26.834898	-125.255794
21255		6.950194	11.818524	1.116742	0.616350	0.222599	0.471462	85.412757	-27.096599	-125.089427
21256		5.191140	10.292536	0.293046	0.431443	0.387601	0.641731	85.532134	-27.450283	-124.807578
21257		5.057417	10.063447	-0.214678	0.284236	0.489038	0.751693	85.532481	-27.860835	-124.455566
21258		4.749669	10.368988	-0.101491	0.189247	0.469369	0.857695	85.478525	-28.334339	-124.107888
21259		4.849797	10.455185	0.183355	0.148286	0.397472	0.920565	85.418431	-28.845049	-123.802927
21260		4.548130	10.205542	0.028654	0.157377	0.399359	0.999874	85.357216	-29.402316	-123.489036
21261		4.503685	9.935837	0.082141	0.155770	0.381370	1.089595	85.294691	-30.009728	-123.180987
21262		4.827732	9.977537	0.172068	0.219355	0.433259	1.234689	85.242712	-30.698860	-122.826642
21263		4.319967	9.559398	-0.088328	0.218378	0.538459	1.299915	85.146637	-31.418201	-122.396195
21264		4.542154	10.277493	-0.478392	0.278858	0.560406	1.435868	85.065813	-32.215053	-121.937125
21265		4.838948	10.528931	-0.393336	0.358319	0.614433	1.541752	84.999032	-33.067623	-121.431061
21266		4.599293	10.008818	-0.686370	0.344240	0.650200	1.535907	84.900972	-33.915911	-120.893290
21267		4.471470	10.065635	-0.819987	0.271987	0.567608	1.534461	84.783127	-34.765311	-120.406584
21268		4.913123	10.222521	-0.810382	0.204879	0.497331	1.588415	84.642725	-35.649690	-119.956856
21269		4.329876	9.389477	-0.619095	0.139647	0.573119	1.680984	84.418904	-36.580164	-119.439890
21270		3.968102	8.759787	-0.513816	0.007903	0.611607	1.740833	84.086356	-37.541824	-118.878055
21271		3.933149	8.147945	-0.708480	-0.019449	0.470491	1.866894	83.778457	-38.580023	-118.395292
21272		3.801986	7.796388	-0.340523	-0.078481	0.372046	1.982785	83.460148	-39.689615	-117.959752
21273		3.344405	7.200117	-0.355135	-0.090127	0.281428	2.086668	83.156466	-40.861297	-117.568534
21274		3.149566	7.635420	0.213646	-0.134116	0.260146	2.223029	82.813091	-42.111453	-117.163835
21275		1.999330	6.145219	0.185654	-0.086647	0.432547	2.351972	82.377245	-43.418918	-116.593799
21276		2.037000	5.603286	0.617226	0.004726	0.398180	2.390772	81.982436	-44.749048	-116.020232
21277		2.133577	5.645309	0.536316	-0.030386	0.323850	2.440934	81.577400	-46.109778	-115.474914
21278		1.835693	5.024041	0.523354	0.016830	0.192748	2.474168	81.247238	-47.498988	-115.006775
21279		2.310254	5.776633	0.618735	-0.051133	0.069112	2.529602	80.924697	-48.927783	-114.612345
21280		1.785148	5.215545	0.614324	-0.192092	0.019208	2.591158	80.522034	-50.395113	-114.226602
21281		1.846444	4.946673	0.499597	-0.309717	-0.024968	2.673179	80.042963	-51.910263	-113.838245
21282		2.230061	5.356664	0.510978	-0.351423	0.049251	2.860743	79.423476	-53.521871	-113.311028
21283		1.776062	4.075894	0.333364	-0.209702	0.225189	2.991167	78.674613	-55.183101	-112.536353
21284		1.490501	3.152184	0.002848	-0.078297	0.263540	2.977549	77.899005	-56.826666	-111.653448
21285		1.647215	3.978724	0.423720	0.068995	0.183381	2.903059	77.213153	-58.431442	-110.793644
21286		2.523956	3.777911	0.211862	-0.246839	0.150509	2.900822	76.293110	-60.033172	-109.886089
21287		1.828808	3.387357	0.418618	-0.214073	0.260022	2.861970	75.190843	-61.588966	-108.763101
21288		2.116586	3.613956	0.940090	-0.348736	0.113650	2.805926	74.059324	-63.125460	-107.710061
21289		2.938104	3.432063	0.686825	-0.432706	0.052849	2.755363	72.836689	-64.633345	-106.623615
21290		3.937542	3.785240	0.965505	-0.566520	0.073141	2.685206	71.396976	-66.088220	-105.395634
21291		4.550156	4.025830	1.263520	-0.788716	0.137271	2.681419	69.576119	-67.513337	-103.905448
21292		4.607057	3.153781	1.345134	-0.881101	0.188682	2.572475	67.473651	-68.848919	-102.183511
21293		5.151968	3.436904	1.883644	-0.823624	0.135894	2.446035	65.312769	-70.105270	-100.379281
21294		5.744779	3.856950	1.709415	-0.983722	0.067005	2.275219	63.030869	-71.265422	-98.557573
21295		6.080295	3.870704	1.832970	-1.260626	0.034971	2.065847	60.555060	-72.302342	-96.710725
21296		6.247719	3.533093	1.595746	-1.436903	-0.062378	1.948413	57.989013	-73.283597	-94.885406
21297		6.695227	2.929554	1.162681	-1.509921	-0.149015	1.825795	55.397463	-74.208012	-93.086276
21298		7.038302	2.414763	1.272302	-1.599641	-0.199843	1.739479	52.685955	-75.085234	-91.224008
21299		7.707074	1.844622	1.379702	-1.541656	-0.195359	1.665355	49.829834	-75.902729	-89.185406
21300		8.020228	1.648643	2.008152	-1.319538	-0.145870	1.646613	46.754922	-76.665877	-86.797640
21301		9.470838	2.137579	2.299287	-1.060777	-0.180324	1.645569	43.573006	-77.410506	-84.155389
21302		10.357913	1.943343	1.038299	-0.806171	0.047397	1.591251	39.901492	-78.000334	-80.869650
21303		9.122456	0.876548	0.054328	-0.389425	0.195245	1.484041	36.129090	-78.438923	-77.243188
21304		8.927148	1.056718	1.117059	-0.065500	-0.110816	1.388828	32.987361	-78.945556	-74.076698
21305		9.543805	1.731089	2.355432	-0.248203	-0.269239	1.323790	29.862058	-79.475477	-71.039083
21306		10.120675	1.158549	2.079805	-0.506677	-0.296513	1.262667	26.487712	-79.969582	-67.903930
21307		11.026394	0.768594	1.594586	-0.470146	-0.243050	1.170963	23.025593	-80.379580	-64.662813
21308		11.239963	0.611848	1.458596	-0.373197	-0.147891	1.092921	19.483780	-80.688019	-61.288055
21309		11.303943	0.793526	1.564748	-0.343685	-0.101796	1.010663	15.975012	-80.922162	-57.932235
21310		11.124588	0.778929	1.877976	-0.289014	-0.144464	0.959356	12.548868	-81.139956	-54.630485
21311		11.374805	0.910525	2.040514	-0.185129	-0.092282	0.859697	9.362737	-81.287390	-51.512981
21312		11.253995	0.451775	1.619663	-0.121202	-0.049857	0.765133	6.454576	-81.377816	-48.640636
21313		10.732346	-0.009510	1.425461	0.063934	0.040552	0.628889	4.091654	-81.389387	-46.212808
21314		10.582796	0.211409	1.474987	0.244358	-0.023784	0.536259	2.189846	-81.421406	-44.146957
21315		10.499240	-0.002525	1.592598	0.197312	-0.038269	0.500799	0.382914	-81.451167	-42.204440
21316		10.226826	0.030978	1.272603	0.266859	-0.072730	0.411935	-1.057359	-81.492863	-40.592608
21317		9.479112	1.054602	1.561707	0.160109	0.049896	0.209369	-1.779912	-81.462570	-39.768339
21318		7.409751	2.368361	1.793602	-0.085449	0.222271	-0.284869	-0.748468	-81.340214	-40.860183
21319		7.130323	0.028955	1.982317	-0.684966	-0.068665	-0.450386	0.538839	-81.381357	-42.558332
21320		10.651312	-3.066191	0.380776	-0.387713	-0.528113	0.000775	0.311842	-81.685349	-42.552631
21321		11.272182	-0.958422	1.465906	0.732544	0.192728	-0.043309	0.873690	-81.576033	-42.695402
21322		9.827037	1.538049	2.126072	0.664844	-0.109444	-0.017142	1.311627	-81.640018	-42.752171
21323		10.631664	0.589679	0.435358	0.172268	-0.158503	-0.117194	1.868116	-81.730346	-43.213931
21324		9.897072	1.855370	2.733780	0.282962	0.095205	-0.257704	3.008354	-81.671114	-44.201559
21325		10.388583	0.793302	1.688287	-0.135887	-0.053453	-0.174614	3.607501	-81.697411	-44.884866
21326		10.058655	0.151291	1.086842	0.089260	0.233407	-0.318902	4.813296	-81.552212	-46.051170
21327		9.303649	-0.107547	0.579124	0.081559	-0.020529	-0.327107	6.105708	-81.547688	-47.309632
21328		9.922944	-0.182574	1.532795	0.107611	-0.050604	-0.362038	7.561350	-81.553533	-48.718103
21329		9.901827	0.242008	2.611023	0.045604	0.027502	-0.375495	8.985041	-81.508711	-50.130181
21330		9.826323	0.086572	1.997566	0.158504	0.065517	-0.396514	10.511612	-81.435076	-51.581183
21331		9.424970	0.214643	1.582376	0.316182	0.041479	-0.423073	12.217120	-81.365880	-53.121971
21332		9.145748	0.748919	1.564741	0.320071	-0.051763	-0.438029	14.037839	-81.339718	-54.777326
21333		9.137664	0.613992	1.997213	0.156629	-0.012148	-0.425236	15.665380	-81.286020	-56.332078
21334		8.948078	0.576052	1.912650	0.051746	0.049270	-0.415737	17.113201	-81.193781	-57.766204
21335		8.827321	0.575832	1.761733	-0.010632	0.053922	-0.415112	18.485669	-81.093806	-59.160503
21336		8.704719	0.402239	1.718925	-0.045316	0.025092	-0.403125	19.803098	-81.006608	-60.519680
21337		8.807317	0.384925	1.862147	-0.047910	0.024102	-0.383303	21.026174	-80.919314	-61.785032
21338		8.801531	0.263978	1.990345	-0.023828	0.032346	-0.370830	22.188143	-80.826043	-62.974964
21339		8.777844	0.113025	1.860976	0.075117	0.047762	-0.324013	23.208651	-80.731502	-63.964337
21340		8.548065	0.190801	1.739727	0.191323	0.048495	-0.270790	24.106161	-80.646046	-64.761986
21341		8.462220	0.298490	1.496316	0.291683	0.018881	-0.206480	24.885918	-80.589562	-65.382034
21342		8.407168	0.676928	1.464052	0.399005	-0.010435	-0.167451	25.642006	-80.556321	-65.915968
21343		12.451872	-1.219149	2.324237	0.178172	-0.163810	-0.075333	26.214591	-80.624323	-66.391992
21344		21.724699	-6.384400	1.614328	-0.129364	-0.280971	0.149496	26.093469	-80.808916	-66.343587
21345		26.142930	-8.410750	1.049526	0.442510	0.061367	0.198369	25.607589	-80.829294	-65.593681
21346		15.844629	-0.018087	3.091400	1.030857	0.573698	-0.260064	26.128573	-80.471127	-65.522045
21347		6.762535	4.892325	4.466859	0.283396	0.252299	-0.620230	27.754644	-80.183725	-67.005949
21348		4.498167	2.645620	2.143024	-0.179607	0.018946	-0.552699	29.206411	-80.025744	-68.583136
21349		4.288952	2.429861	0.863001	-0.462109	-0.038982	-0.332404	29.932845	-79.953771	-69.588768
21350		5.455730	2.171346	-0.725343	-0.379060	-0.262340	-0.333006	31.066458	-79.989019	-70.959634
21351		8.046083	0.473617	0.035840	-0.200595	-0.372638	-0.396722	32.680294	-80.052974	-72.714060
21352		9.897829	-1.309636	2.618720	-0.217337	-0.232070	-0.356789	33.937205	-80.054538	-74.115672
21353		11.008480	-2.021282	2.812314	-0.137057	-0.137941	-0.285645	34.873689	-80.030006	-75.145313
21354		10.977819	-1.101922	2.380914	0.171073	-0.104892	-0.276742	35.893724	-79.989980	-76.080586
21355		10.234042	0.549658	2.257765	0.330548	-0.137468	-0.330469	37.200149	-79.943299	-77.214074
21356		9.596919	1.318568	1.614978	0.266230	-0.153314	-0.360709	38.564131	-79.888602	-78.443571
21357		8.927766	1.710383	1.402354	0.200010	-0.182400	-0.371839	39.964289	-79.837541	-79.748621
21358		9.006185	1.708574	1.365947	0.124659	-0.230865	-0.373414	41.411215	-79.801294	-81.145188
21359		9.491981	1.680615	1.623073	0.061335	-0.240027	-0.358321	42.797244	-79.768607	-82.516935
21360		9.709460	1.624989	1.743198	-0.003395	-0.222273	-0.319459	44.007838	-79.738345	-83.748210
21361		10.193285	1.935205	1.375175	-0.003366	-0.245937	-0.338001	45.306427	-79.705446	-85.069040
21362		10.136311	2.419934	0.928811	0.065909	-0.237802	-0.451322	46.859051	-79.616690	-86.608005
21363		9.803599	2.907867	0.793555	0.097891	-0.272292	-0.547484	48.681070	-79.492305	-88.402794
21364		9.853509	2.677777	0.761088	0.081702	-0.293468	-0.596301	50.593317	-79.343907	-90.299625
21365		9.770348	2.204511	1.038756	0.036938	-0.279587	-0.593501	52.388919	-79.180634	-92.104783
21366		9.774156	1.788923	1.090934	-0.013255	-0.249011	-0.567449	53.981986	-79.008905	-93.734024
21367		9.493684	1.719232	1.028395	-0.049776	-0.222801	-0.517285	55.359217	-78.844049	-95.165542
21368		9.412916	1.847502	0.901890	-0.078772	-0.214681	-0.453484	56.557763	-78.700706	-96.432639
21369		9.471388	1.999858	0.667992	-0.068529	-0.213399	-0.400266	57.647994	-78.577707	-97.583806
21370		9.612270	2.228591	0.512306	-0.044296	-0.246343	-0.377326	58.772885	-78.471422	-98.756693
21371		9.537999	2.452586	0.671891	-0.021688	-0.232182	-0.384613	59.866041	-78.352949	-99.884377
21372		9.565414	2.604330	1.004347	-0.036615	-0.276238	-0.382730	61.031077	-78.243369	-101.094724
21373		9.779572	2.513457	1.205462	-0.079271	-0.250265	-0.377825	62.081067	-78.124501	-102.212946
21374		9.784927	2.585563	1.112475	-0.046084	-0.221759	-0.375384	63.056257	-77.995233	-103.235872
21375		9.716108	2.657347	1.075179	-0.022564	-0.210859	-0.366656	63.987458	-77.864243	-104.200445
21376		9.671378	2.622906	0.939389	-0.006948	-0.203716	-0.355812	64.877608	-77.733777	-105.114446
21377		9.537186	2.565198	0.912290	-0.005140	-0.203741	-0.329607	65.722025	-77.614175	-105.980899
21378		9.299756	2.530634	0.973912	0.000677	-0.226045	-0.287780	66.562890	-77.518795	-106.840789
21379		9.373502	2.493331	1.106570	0.000187	-0.267333	-0.219266	67.421193	-77.466218	-107.718944
21380		9.599401	2.435552	1.110635	-0.032943	-0.256488	-0.164160	68.174469	-77.437667	-108.509240
21381		9.650339	3.107741	0.944596	-0.011315	-0.273038	-0.120288	68.936053	-77.433901	-109.295248
21382		9.639007	3.948705	1.015084	-0.031164	-0.253588	-0.112324	69.631362	-77.428061	-110.025202
21383		9.719523	3.975640	0.781091	-0.095179	-0.233639	-0.106073	70.235954	-77.420088	-110.699627
21384		9.862073	3.918216	0.724214	-0.099660	-0.208678	-0.085655	70.759152	-77.416601	-111.293537
21385		9.813328	3.727901	0.652528	-0.132292	-0.187839	-0.058772	71.190734	-77.423028	-111.812496
21386		9.602194	3.465155	0.507796	-0.115447	-0.200327	-0.031006	71.640340	-77.445539	-112.340285
21387		9.479087	3.232663	0.631564	-0.116238	-0.219501	0.028904	72.091020	-77.503595	-112.869273
21388		9.674452	2.993875	0.544150	-0.160450	-0.226867	0.085814	72.494727	-77.592670	-113.376264
21389		9.891261	3.046214	0.545089	-0.172908	-0.223950	0.143625	72.845973	-77.712615	-113.836340
21390		10.045266	2.616307	0.210688	-0.175511	-0.144967	0.170319	72.982319	-77.832948	-114.078181
21391		9.854420	2.407680	-0.071451	-0.128489	-0.114847	0.194790	73.053026	-77.962072	-114.224887
21392		9.890389	2.539875	-0.087258	-0.034250	-0.076682	0.228652	73.054610	-78.102834	-114.245998
21393		9.688895	2.757759	-0.211550	0.111714	-0.065814	0.273893	73.075460	-78.267106	-114.201006
21394		9.667945	2.988685	-0.284850	0.246954	-0.090737	0.317588	73.205700	-78.458941	-114.188942
21395		9.829607	3.033360	-0.350099	0.275826	-0.080240	0.358657	73.291600	-78.672130	-114.114446
21396		10.084455	2.779316	-0.304506	0.304383	-0.064384	0.379334	73.333364	-78.893484	-113.978657
21397		9.932557	2.714211	0.353615	0.304202	-0.045061	0.385473	73.311879	-79.115625	-113.778318
21398		9.777196	2.393114	0.750726	0.249841	-0.037484	0.397250	73.222918	-79.342318	-113.541484
21399		9.729086	2.038543	0.848287	0.322579	-0.045961	0.434136	73.159674	-79.591211	-113.288269
21400		9.843382	1.834290	0.957550	0.409448	-0.082184	0.452145	73.234217	-79.855336	-113.125063
21401		9.681385	1.660153	0.911111	0.486479	-0.080028	0.431431	73.362786	-80.108440	-112.971681
21402		9.473682	1.365724	1.137369	0.546355	-0.082682	0.424657	73.541588	-80.357669	-112.834943
21403		9.129089	1.340372	0.904716	0.682373	-0.106518	0.413127	73.889728	-80.605149	-112.790621
21404		9.158564	1.929296	1.335061	0.719131	-0.177817	0.410328	74.515116	-80.861603	-113.006281
21405		9.168099	1.858762	1.205336	0.632863	-0.174449	0.399687	75.111819	-81.111944	-113.242414
21406		9.343571	1.761559	1.169363	0.578670	-0.188846	0.400372	75.753624	-81.363629	-113.555851
21407		9.444196	1.855927	0.861319	0.472443	-0.184717	0.376187	76.368324	-81.601454	-113.902806
21408		9.610949	1.747168	0.306039	0.414297	-0.191812	0.377961	77.003547	-81.839904	-114.304397
21409		9.802386	1.684645	0.301987	0.402848	-0.172219	0.376967	77.584945	-82.075429	-114.657572
21410		9.744002	1.618725	-0.111650	0.383942	-0.143006	0.360203	78.077905	-82.296818	-114.932670
21411		9.614524	1.640991	-0.524968	0.481706	-0.093330	0.371863	78.427453	-82.519416	-115.005984
21412		9.597108	1.391266	-0.673554	0.528300	-0.122656	0.345594	78.970022	-82.729711	-115.247419
21413		9.593890	1.247090	-0.520136	0.470184	-0.105847	0.328515	79.439649	-82.929064	-115.448340
21414		9.580511	1.033093	-0.354570	0.469658	-0.112875	0.339140	79.953390	-83.134152	-115.694350
21415		9.647713	0.990970	-0.077322	0.441923	-0.097145	0.339045	80.397275	-83.338146	-115.885481
21416		9.357345	0.612422	0.040437	0.371601	-0.072533	0.323376	80.711599	-83.530074	-115.987091
21417		9.449419	0.512688	0.048015	0.421772	-0.087934	0.345964	81.127304	-83.736840	-116.161333
21418		9.611338	0.543551	0.012079	0.515785	-0.066772	0.353393	81.500271	-83.945130	-116.238736
21419		9.385785	0.921546	-0.033753	0.635760	-0.066871	0.358289	81.954435	-84.156855	-116.328237
21420		9.646499	1.354539	0.046985	0.631665	-0.064156	0.396455	82.382404	-84.389256	-116.394118
21421		9.826289	1.282359	-0.191183	0.576789	-0.041978	0.390714	82.668729	-84.617396	-116.348879
21422		9.858890	1.307758	-0.287055	0.563739	-0.050618	0.367138	83.032889	-84.832054	-116.389720
21423		9.538182	1.232667	0.185890	0.476352	-0.038988	0.345111	83.302539	-85.034081	-116.385545
21424		9.640378	0.878991	0.168578	0.443430	-0.038458	0.358233	83.552319	-85.242808	-116.380757
21425		9.613721	0.631574	0.080325	0.394469	-0.016330	0.366827	83.617082	-85.455746	-116.218089
21426		9.939751	0.415084	-0.282085	0.387838	-0.025494	0.371845	83.740128	-85.671411	-116.118136
21427		9.720079	0.415301	-0.053302	0.425786	0.011535	0.360120	83.601690	-85.878790	-115.733816
21428		9.701273	0.186055	-0.033079	0.409798	-0.007360	0.348341	83.597406	-86.079925	-115.493642
21429		9.789999	0.369479	-0.086148	0.449996	0.014532	0.349563	83.407584	-86.281017	-115.044113
21430		10.394961	0.085273	0.082521	0.369441	-0.048089	0.362685	83.703361	-86.492950	-115.127865
21431		11.910537	0.312290	-1.234292	0.740459	-0.184948	0.462618	85.515674	-86.769827	-116.517441
21432		10.793980	0.859191	0.565023	0.517171	-0.200251	0.507649	87.644120	-87.069370	-118.351668
21433		11.299951	0.599430	0.400162	0.751928	-0.389956	0.595836	92.767091	-87.413140	-123.048351
21434		11.691667	0.214223	-0.240486	0.857180	-0.455809	0.663502	100.507340	-87.763304	-130.303319
21435		11.511427	1.758419	-0.312232	1.164942	-0.510557	0.738089	112.302295	-88.090314	-141.437124
21436		10.379580	2.921441	-0.056648	1.095427	-0.485383	0.760199	127.734114	-88.331483	-156.247910
21437		8.219015	4.234570	1.091765	0.870758	-0.187915	0.633193	140.356615	-88.519615	-168.375149
21438		5.255089	3.218115	1.499080	0.254236	0.122669	0.396937	146.430039	-88.711921	-174.304254
21439		6.659844	0.256990	-1.301643	0.320795	-0.122695	0.462140	158.963420	-88.771407	173.344093
21440		7.940146	1.976306	-0.646478	0.632894	-0.107957	0.641533	176.971454	-88.786673	155.695050
21441		9.264557	1.648218	-0.062290	0.034975	-0.133246	0.608906	-167.404603	-88.678938	140.088263
21442		9.553544	-0.391115	-0.959238	-0.283071	0.032676	0.563303	-154.440033	-88.588547	126.958057
21443		9.247287	-1.254388	-1.180888	-0.147713	0.034754	0.528218	-143.994682	-88.447543	116.425458
21444		9.228734	-1.700709	-0.496644	-0.280461	0.012099	0.456531	-136.910189	-88.283646	109.177626
21445		9.083776	-3.050056	0.284179	-0.745809	-0.008910	0.314351	-133.316865	-88.149853	105.155922
21446		9.219018	-5.018279	0.558450	-1.107625	-0.018784	0.158247	-132.313733	-88.073537	103.517643
21447		9.614500	-6.538309	0.360569	-1.323421	-0.030946	0.012959	-133.277233	-88.053010	103.723876
21448		9.879788	-7.785376	-0.038180	-1.211689	-0.052801	-0.068736	-135.401710	-88.057367	105.155483
21449		10.345282	-7.440583	0.156969	-0.907350	-0.042507	-0.109039	-137.727156	-88.079678	106.962964
21450		10.254020	-6.257926	-0.187478	-0.604526	0.009813	-0.119863	-139.482696	-88.126430	108.373713
21451		9.981446	-4.528353	-0.532401	-0.192424	0.014716	-0.149287	-141.430433	-88.184523	110.213032
21452		9.718109	-2.204023	-0.204801	0.165096	-0.006882	-0.171565	-143.864674	-88.238057	112.744085
21453		9.543357	0.126299	0.105540	0.345607	0.002371	-0.193874	-146.606089	-88.299786	115.685740
21454		9.504409	1.668545	0.162431	0.328198	0.000540	-0.204162	-149.755854	-88.358910	119.025980
21455		9.640693	2.508981	0.056777	0.203386	0.008690	-0.195167	-152.970846	-88.414337	122.359705
21456		9.877902	2.513071	-0.124721	0.008803	0.021153	-0.175448	-156.029970	-88.466030	125.425938
21457		10.005427	1.969708	-0.527928	-0.107148	0.026262	-0.161546	-159.033975	-88.512986	128.370454
21458		10.160194	1.532566	-0.474687	-0.181762	0.010773	-0.141126	-161.938765	-88.543552	131.172877
21459		10.115773	0.941644	-0.482792	-0.233844	0.028827	-0.132185	-164.676191	-88.579029	133.778021
21460		9.658257	0.299262	-0.468141	-0.225276	0.019604	-0.127613	-167.488452	-88.605484	136.462827
21461		9.343178	0.195354	-0.178284	-0.209593	-0.007733	-0.128174	-170.505511	-88.613295	139.361532
21462		9.453882	-0.238939	-0.268991	-0.177123	0.004662	-0.125603	-173.442889	-88.624196	142.199051
21463		9.493396	-0.218751	0.238958	-0.156341	-0.014703	-0.149058	-176.985612	-88.621358	145.654076
21464		9.653855	-0.901329	-0.099421	-0.234774	-0.003934	-0.140245	179.654497	-88.619496	148.881192
21465		9.814324	-0.783628	-0.005439	-0.173800	-0.017519	-0.161200	175.883955	-88.604648	152.554111
21466		9.840115	-0.922789	-0.213104	-0.121995	-0.001047	-0.191271	171.486044	-88.590897	156.884251
21467		9.637784	-1.094267	-0.180700	-0.152216	0.004244	-0.199853	166.964281	-88.571101	161.321040
21468		9.330034	-0.557537	-0.175509	-0.117701	-0.010301	-0.251735	161.602928	-88.525723	166.617520
21469		6.596036	1.221070	1.173367	-0.364141	0.247443	-0.444831	150.114713	-88.550955	177.901626
21470		7.031162	-4.805238	-0.209627	-1.241404	0.123351	-0.599287	137.499191	-88.405018	-170.189117
21471		6.170693	-3.985121	-0.658469	0.325855	0.842081	-0.719376	115.229653	-88.359865	-147.723273
21472		8.517385	-2.440516	1.101546	-0.204101	-0.092892	-0.422057	113.525542	-88.119867	-146.134354
21473		13.428950	0.052573	-2.374170	0.666316	0.183616	-0.310473	109.176556	-87.994602	-141.400001
21474		10.959695	-0.812604	0.836581	-0.874428	0.132088	-0.552896	104.360952	-87.715573	-137.081334
21475		13.533565	-1.741756	-1.504625	0.053741	0.277776	-0.562876	99.201535	-87.434638	-131.885615
21476		10.074270	-0.088219	-1.508015	-0.348991	0.172442	-0.710888	95.897719	-87.046778	-128.777048
21477		10.666697	-1.541094	-0.535369	-0.379919	0.070210	-0.742458	94.299822	-86.629382	-127.393854
21478		10.129642	-1.270186	0.602317	-0.393775	0.096917	-0.789589	92.774784	-86.184516	-126.090695
21479		10.207419	-2.569472	-0.564290	-0.281773	0.134073	-0.797200	91.316949	-85.733612	-124.790202
21480		9.789991	-3.207767	0.115335	-0.081522	0.190795	-0.853501	89.841363	-85.249198	-123.355630
21481		9.597954	-2.648774	0.014239	0.189453	0.215094	-0.876081	88.633646	-84.748531	-122.033463
21482		10.072420	-2.493391	-0.557202	0.179821	0.154311	-0.899727	87.992668	-84.234431	-121.284622
21483		10.088026	-1.601424	-0.302983	0.161493	0.166177	-0.976936	87.411161	-83.674264	-120.605939
21484		9.658308	-1.462977	-0.715920	0.186119	0.172234	-1.047259	86.936109	-83.074092	-120.018849
21485		9.707380	-0.636322	-0.689750	0.149901	0.136868	-1.104198	86.692577	-82.441022	-119.685899
21486		9.820006	0.169035	-0.496064	0.169958	0.118928	-1.125163	86.581991	-81.797617	-119.474368
21487		10.185322	1.621817	-0.949170	0.448466	0.093777	-1.063434	86.726685	-81.189192	-119.359970
21488		9.434417	4.349467	-0.409706	0.627305	0.049676	-1.007959	87.111817	-80.615163	-119.384381
21489		9.355345	5.665387	1.191051	0.270983	0.009314	-0.924311	87.392932	-80.088887	-119.511145
21490		9.651061	5.055109	0.618780	0.104765	0.090669	-0.801654	87.290473	-79.631619	-119.344571
21491		9.415148	6.583174	0.091190	0.378711	0.102018	-0.719465	87.306038	-79.220060	-119.138776
21492		9.233951	8.133913	0.633237	0.207967	0.039997	-0.689953	87.409053	-78.827823	-119.120955
21493		9.265014	7.776227	0.598533	0.099020	0.048853	-0.610797	87.412076	-78.479915	-119.065275
21494		9.316448	7.405342	0.628143	-0.014900	0.068898	-0.527106	87.287643	-78.179744	-118.945760
21495		9.479616	6.355717	0.232008	-0.127948	0.053266	-0.459050	87.137234	-77.918518	-118.866052
21496		9.755772	5.631653	0.467828	-0.170021	0.034022	-0.395269	87.010259	-77.694395	-118.834797
21497		9.984006	4.581273	0.544371	-0.203386	0.042000	-0.350451	86.839658	-77.495569	-118.778534
21498		10.140818	3.355049	0.413349	-0.164802	0.068805	-0.310744	86.621189	-77.318444	-118.650520
21499		10.324836	2.386803	0.046119	0.036126	0.079908	-0.288703	86.489985	-77.153555	-118.493866
21500		10.376264	2.208432	0.018816	0.229109	0.081395	-0.282537	86.468226	-76.991962	-118.335965
21501		10.055165	2.192967	0.249555	0.285397	0.079575	-0.265917	86.482071	-76.840067	-118.181396
21502		10.356510	2.003765	0.131545	0.325605	0.077608	-0.241824	86.522122	-76.701915	-118.029995
21503		10.489855	2.172829	-0.031886	0.333332	0.090747	-0.224665	86.533170	-76.573256	-117.844146
21504		11.155928	1.974251	-0.153483	0.246890	0.084551	-0.240596	86.514221	-76.435602	-117.678267
21505		11.327267	1.382695	0.633944	0.211236	0.114118	-0.290756	86.414402	-76.268274	-117.450096
21506		11.476108	0.554278	1.077853	0.125576	0.156947	-0.326287	86.176845	-76.078855	-117.130405
21507		11.252041	0.111457	0.993185	0.198030	0.221027	-0.449455	85.862370	-75.816152	-116.688359
21508		11.251688	0.104107	0.499845	0.226363	0.202633	-0.591726	85.643244	-75.472557	-116.327295
21509		11.120372	1.409484	-0.273395	0.339571	0.127718	-0.753530	85.689584	-75.039515	-116.173120
21510		10.908674	2.988874	0.086101	0.179078	0.013727	-0.948180	85.914629	-74.500365	-116.298943
21511		10.801899	3.290366	0.398200	-0.036795	-0.022700	-1.106802	86.100101	-73.871646	-116.512705
21512		10.676052	3.448479	0.807352	-0.324025	-0.017105	-1.223495	86.113336	-73.176138	-116.719034
21513		10.362240	3.146739	0.721385	-0.473210	-0.009374	-1.354013	86.035504	-72.405519	-116.920468
21514		10.330389	3.704728	0.496444	-0.413467	-0.035307	-1.465554	86.043475	-71.572431	-117.176896
21515		10.082065	4.255371	0.514660	-0.377759	-0.058209	-1.555871	86.107089	-70.688341	-117.471921
21516		10.115898	4.574327	0.219138	-0.403131	-0.089552	-1.638181	86.197720	-69.758460	-117.812640
21517		10.176190	4.660002	-0.024895	-0.458935	-0.131935	-1.685307	86.304980	-68.802836	-118.207501
21518		10.359876	4.846443	-0.026925	-0.567831	-0.142002	-1.721370	86.346588	-67.826918	-118.601358
21519		10.123572	4.950629	0.223065	-0.702716	-0.122505	-1.756197	86.270343	-66.830278	-118.954114
21520		10.010198	5.241131	0.508614	-0.861998	-0.153073	-1.792809	86.134732	-65.814212	-119.344286
21521		10.172751	5.559290	0.756445	-1.087079	-0.155366	-1.810063	85.865570	-64.788845	-119.732622
21522		9.835215	4.991221	0.720668	-1.336039	-0.126709	-1.843308	85.419960	-63.744314	-120.086716
21523		9.664209	4.565520	0.947695	-1.465036	-0.146577	-1.869303	84.927846	-62.687153	-120.474769
21524		9.414781	4.437785	0.998575	-1.561498	-0.153470	-1.868423	84.390469	-61.632515	-120.877832
21525		9.619722	4.244789	1.024729	-1.594810	-0.176013	-1.893139	83.862231	-60.566868	-121.317201
21526		9.581783	3.822617	1.021557	-1.563323	-0.189742	-1.925835	83.369099	-59.485491	-121.780933
21527		9.877813	3.424038	1.284462	-1.542449	-0.240277	-1.964235	82.937466	-58.387546	-122.307730
21528		10.108536	3.094262	1.420435	-1.526443	-0.246195	-2.001853	82.518361	-57.270887	-122.844777
21529		10.109976	3.233653	1.809816	-1.538314	-0.239484	-2.030156	82.083574	-56.139616	-123.378038
21530		10.235327	3.141725	1.831227	-1.578202	-0.226961	-2.060007	81.613118	-54.993106	-123.902895
21531		10.219502	2.825300	0.892649	-1.408567	-0.191973	-2.101290	81.211302	-53.822147	-124.400155
21532		10.288142	2.775869	0.257330	-1.043215	-0.177766	-2.211160	81.011546	-52.589838	-124.895949
21533		10.128127	3.336945	1.264139	-0.968452	-0.211842	-2.327999	80.879845	-51.294783	-125.432275
21534		10.335372	4.122005	1.678383	-1.104479	-0.207282	-2.333969	80.653210	-49.997787	-125.956280
21535		10.385397	4.598410	1.433904	-1.218233	-0.038490	-2.289209	80.235994	-48.711110	-126.325190
21536		9.868032	4.462053	1.309450	-1.191833	0.035745	-2.316756	79.788278	-47.404382	-126.639988
21537		9.704910	4.692849	1.311681	-1.010606	-0.002887	-2.337597	79.468966	-46.090313	-126.995387
21538		9.767725	4.823125	1.293191	-0.798097	-0.035184	-2.341407	79.284190	-44.779810	-127.376407
21539		9.920137	5.637989	1.407208	-0.564386	0.010367	-2.263921	79.191853	-43.507482	-127.706866
21540		9.540209	6.038559	1.720410	-0.542543	0.110789	-2.189973	79.044340	-42.267824	-127.945303
21541		9.088312	5.922920	1.690145	-0.498703	0.104978	-2.108879	78.913195	-41.073415	-128.176504
21542		8.977983	6.030359	1.738428	-0.378193	0.084970	-1.999591	78.845618	-39.944558	-128.404406
21543		8.683795	6.547697	1.893932	-0.225983	0.131226	-1.893468	78.829579	-38.868753	-128.581713
21544		8.282290	6.702139	2.100832	-0.177427	0.134380	-1.799713	78.827318	-37.847084	-128.740165
21545		8.171270	6.422070	1.594439	-0.077239	0.091373	-1.682421	78.887557	-36.894286	-128.910867
21546		7.961887	6.271237	1.673182	0.160945	0.063980	-1.533060	79.078241	-36.030106	-129.074780
21547		7.695126	6.759278	2.184951	0.405601	0.048209	-1.376180	79.398179	-35.253424	-129.223497
21548		7.716752	7.005108	2.053392	0.554534	0.021180	-1.213461	79.796177	-34.572558	-129.361940
21549		7.569840	7.533915	1.940849	0.763323	0.045217	-1.088189	80.291019	-33.957073	-129.462478
21550		7.273765	8.104033	1.834512	0.863351	0.054255	-0.968384	80.826859	-33.409922	-129.534901
21551		6.727686	8.323941	1.883047	0.983840	-0.001008	-0.895263	81.444024	-32.906265	-129.631036
21552		6.525806	8.771467	1.952624	1.102354	-0.183675	-0.796596	82.185131	-32.474816	-129.831966
21553		6.711376	9.312126	1.652035	0.921485	-0.162845	-0.746489	82.808259	-32.066009	-130.008532
21554		6.186767	9.430066	1.323046	0.721144	-0.130632	-0.662229	83.297166	-31.703771	-130.150090
21555		6.018892	9.448598	1.242711	0.521022	-0.165994	-0.596595	83.678972	-31.377974	-130.307612
21556		6.040636	9.107691	0.705880	0.498828	-0.180502	-0.492044	84.046424	-31.114075	-130.463202
21557		6.322203	9.705483	0.999346	0.566576	-0.110756	-0.359886	84.422963	-30.918315	-130.562244
21558		6.171831	8.926409	0.526602	0.502559	-0.001488	-0.205341	84.719072	-30.806632	-130.576308
21559		6.295560	9.287851	0.164182	0.668913	0.114060	-0.112260	85.068493	-30.739761	-130.508451
21560		6.307041	7.485405	0.318839	0.572657	0.174746	0.108703	85.335151	-30.798838	-130.386409
21561		4.917981	7.594177	-0.168794	1.140769	0.254082	0.251844	85.896955	-30.934580	-130.205741
21562		5.845316	11.108933	-0.213073	1.040946	0.062878	0.352189	86.464775	-31.138949	-130.148281
21563		6.408490	11.341619	0.181740	0.839429	-0.040698	0.318065	86.955091	-31.325199	-130.164631
21564		6.836389	10.844119	1.329939	0.586085	0.295300	0.251395	87.184481	-31.465769	-129.958316
21565		5.442836	9.682337	-0.977256	0.349199	0.445840	0.393408	87.222605	-31.681410	-129.647325
21566		4.690040	9.206115	-0.960666	0.371119	0.388915	0.505947	87.289721	-31.965646	-129.369321
21567		5.869492	9.183367	-0.999565	0.304903	0.495698	0.596135	87.277703	-32.296328	-129.016605
21568		5.224753	8.626282	-1.760432	0.270066	0.677204	0.633793	87.175949	-32.645587	-128.536720
21569		4.319694	8.864456	-1.573702	0.310743	0.648622	0.649348	87.104241	-33.001599	-128.074349
21570		4.164690	9.236214	-0.963312	0.144372	0.612325	0.689868	86.945781	-33.383398	-127.631510
21571		4.446579	8.854851	-1.349565	0.148361	0.627841	0.815233	86.776726	-33.833071	-127.170926
21572		3.752384	8.445490	-1.212041	0.186936	0.700396	0.935076	86.593254	-34.349917	-126.650155
21573		3.362824	7.694447	-1.460962	0.184959	0.648461	1.028594	86.419936	-34.918508	-126.157189
21574		3.766167	8.096164	-1.181920	0.123384	0.599476	1.101258	86.221695	-35.531227	-125.688497
21575		3.414788	7.626732	-0.676559	0.039645	0.596366	1.214063	85.965357	-36.204932	-125.210739
21576		4.375063	8.360725	-0.825642	0.007253	0.663155	1.439398	85.644994	-37.004633	-124.664081
21577		4.113893	8.320879	-0.709066	0.119978	0.807478	1.727030	85.301907	-37.957562	-123.985865
21578		3.558302	7.324349	-0.816772	0.175552	0.887559	1.959025	84.925302	-39.037510	-123.216887
21579		3.428892	6.690955	-0.572350	0.187812	0.852550	2.111687	84.540030	-40.200501	-122.442618
21580		3.278339	6.126297	-0.302686	0.152236	0.809594	2.220935	84.122028	-41.425771	-121.667307
21581		2.969397	5.942408	-0.154916	0.086991	0.782918	2.293426	83.644918	-42.687585	-120.879389
21582		2.817696	5.943674	-0.193743	-0.022542	0.758698	2.324143	83.081563	-43.964781	-120.074980
21583		2.510235	5.704735	-0.246111	-0.089995	0.695792	2.369044	82.473203	-45.264327	-119.281007
21584		2.640722	6.320136	-0.482561	-0.075847	0.650575	2.485169	81.849397	-46.628689	-118.471420
21585		2.478979	6.488676	-0.460481	-0.058406	0.662043	2.635141	81.168465	-48.069061	-117.589985
21586		2.710108	5.990410	-0.384592	0.015906	0.599999	2.701480	80.510381	-49.546873	-116.701383
21587		2.677075	6.385487	0.654817	0.010977	0.578216	2.858677	79.787073	-51.107079	-115.752436
21588		2.430485	5.184456	0.082658	0.108105	0.562574	2.947494	79.051369	-52.712258	-114.737156
21589		3.043551	4.888439	0.563431	-0.061310	0.552620	2.928635	78.150225	-54.297735	-113.658922
21590		3.049514	4.011110	0.208549	-0.130206	0.494676	2.830508	77.185697	-55.825710	-112.571676
21591		3.197663	3.830535	0.157483	-0.178390	0.422479	2.714766	76.186255	-57.286797	-111.495458
21592		3.331122	4.033077	0.212394	-0.277161	0.373657	2.592623	75.109129	-58.676921	-110.410784
21593		4.006575	3.491221	0.241280	-0.443386	0.316562	2.534005	73.907209	-60.030815	-109.308104
21594		5.184310	3.767906	0.464615	-0.498898	0.285930	2.638014	72.565730	-61.434854	-108.096504
21595		4.650019	3.676124	0.987369	-0.615274	0.421256	2.716714	70.857099	-62.840341	-106.561738
21596		4.664330	3.330533	1.344824	-0.609437	0.380736	2.716571	69.025725	-64.231670	-104.904684
21597		4.641525	4.314293	1.796925	-0.544760	0.402716	2.652581	67.044629	-65.558216	-103.060798
21598		4.467909	4.843356	1.827132	-0.542745	0.454764	2.487669	64.882812	-66.757849	-101.036016
21599		0.418182	11.860407	0.834554	-0.656612	0.675325	2.879539	61.899065	-68.063217	-98.211153
21600		7.966116	-1.043211	4.296061	-3.199630	-0.556464	2.754191	58.765312	-69.595651	-96.815564
21601		3.870273	-0.767550	-1.601253	-0.521571	0.813599	1.919376	55.764245	-70.272001	-93.937897
21602		1.579550	1.714185	2.604798	0.227399	-0.145714	0.644750	55.501393	-70.627607	-93.519479
21603		6.423390	5.633196	3.597727	-0.542839	-0.585766	1.759329	54.296591	-71.648471	-92.574099
21604		6.472340	2.343357	1.758895	-1.397604	-0.211834	1.767762	51.913824	-72.534736	-90.910552
21605		6.799035	2.461994	2.140616	-0.914132	-0.214576	1.713234	49.675061	-73.376271	-89.115914
21606		7.852929	3.363926	2.578783	-0.807356	-0.170763	1.657627	47.300408	-74.155592	-87.123483
21607		7.723360	2.542785	1.696309	-0.855033	-0.079320	1.587428	44.645869	-74.844282	-84.876300
21608		7.555594	1.762145	1.403648	-0.680993	-0.220944	1.480605	42.253591	-75.522700	-82.804427
21609		8.801422	1.789963	1.561700	-0.592935	-0.440672	1.459812	40.064696	-76.266292	-80.896919
21610		9.053772	1.809841	1.875033	-0.587806	-0.318924	1.454911	37.475732	-76.933789	-78.580817
21611		9.655831	1.935440	1.738448	-0.462425	-0.361520	1.498025	34.673213	-77.609564	-75.978488
21612		10.410123	1.800626	1.718924	-0.265274	-0.194754	1.452687	31.551083	-78.160638	-72.939823
21613		9.615086	1.245951	1.277433	-0.147429	-0.120576	1.325685	28.426285	-78.602888	-69.835056
21614		9.407644	1.425653	1.709237	-0.076464	-0.304172	1.222591	25.612300	-79.079084	-67.010612
21615		9.852206	1.644208	2.099174	-0.116738	-0.487735	1.116832	23.049075	-79.599889	-64.469576
21616		10.578918	0.645737	1.830913	-0.229073	-0.553942	1.061104	20.406762	-80.122288	-61.917811
21617		10.809068	0.492427	2.257173	-0.221242	-0.366141	0.914215	17.770436	-80.494134	-59.371043
21618		10.796936	0.421302	2.013411	-0.206574	-0.308039	0.829334	15.177205	-80.800367	-56.861954
21619		10.569804	0.360037	1.352127	-0.118705	-0.326408	0.760690	12.723038	-81.088994	-54.444811
21620		10.370871	0.535040	1.314337	-0.023119	-0.260058	0.672581	10.450039	-81.314379	-52.157274
21621		10.145679	0.706262	1.578763	-0.094723	-0.176701	0.560148	8.397155	-81.468614	-50.135005
21622		9.962923	0.978284	1.728128	-0.072614	-0.168407	0.501475	6.509796	-81.603386	-48.268048
21623		10.045568	0.361928	0.978627	0.066211	-0.110068	0.362631	5.165919	-81.688880	-46.870528
21624		10.135486	0.232198	0.726944	0.257712	-0.123956	0.308046	4.126508	-81.775664	-45.670116
21625		9.983431	0.020148	0.917329	0.354114	-0.210938	0.228944	3.453451	-81.906451	-44.784321
21626		10.130152	0.234798	1.236195	0.362963	-0.263511	0.150896	3.092808	-82.063805	-44.209218
21627		9.803785	0.317834	1.428536	0.299242	-0.269691	0.099941	2.888645	-82.222583	-43.829154
21628		9.759811	0.057718	1.806135	0.184607	-0.234154	0.062198	2.762804	-82.360005	-43.594543
21629		9.420900	0.278922	1.729110	0.160483	-0.143316	0.043902	2.675185	-82.444684	-43.412495
21630		8.738601	0.721701	1.393113	0.151856	-0.103277	-0.028804	2.890776	-82.504618	-43.541325
21631		10.309512	0.043533	1.415702	0.049448	-0.203820	-0.105048	3.407801	-82.619402	-44.033278
21632		14.533282	-1.993211	1.058576	-0.166590	-0.273738	-0.330682	4.855952	-82.763873	-45.588658
21633		19.746634	-3.539527	1.437586	-0.202762	-0.363734	-0.803599	8.554255	-82.918838	-49.432190
21634		24.232360	-4.810673	0.279179	-0.282215	-0.389734	-1.152417	13.977160	-83.011026	-55.058151
21635		19.922045	-2.876316	-0.037928	0.012513	0.211048	-1.162955	18.798222	-82.708849	-59.908716
21636		11.989842	0.657151	2.171157	0.185622	0.368169	-0.948574	22.201408	-82.323490	-63.232749
21637		7.297411	1.078730	4.060432	-0.065023	0.206970	-0.741943	24.648436	-82.047989	-65.739415
21638		4.630928	0.081718	3.842198	-0.041196	0.119935	-0.606087	26.613053	-81.838562	-67.746414
21639		1.268098	2.209837	5.671773	-0.396734	0.643002	-0.862093	28.186826	-81.286615	-69.566293
21640		1.758854	-0.434122	4.715466	-1.493795	0.437235	-0.742670	28.936357	-80.865664	-71.190477
21641		5.037719	-4.128334	-1.601162	-0.112785	0.257577	-0.360593	29.525725	-80.638560	-71.852184
21642		6.831703	-0.399897	-0.150689	1.008991	0.495209	-0.392796	30.408651	-80.282975	-72.160375
21643		11.006668	-0.187939	-2.712082	1.751932	-0.219161	-0.455309	33.081929	-80.255158	-73.853341
21644		12.561134	1.951078	-0.709403	1.882085	-0.037888	-0.803253	36.396203	-80.013703	-76.121804
21645		13.317752	1.601904	3.465039	1.008404	-0.230068	-0.904826	39.716751	-79.800696	-78.906769
21646		14.447086	-0.401342	2.473984	0.819427	-0.079999	-0.882799	42.432478	-79.506055	-81.189100
21647		10.411138	2.547821	3.849294	0.930093	0.502599	-0.950684	44.008591	-78.926126	-82.250148
21648		9.041595	2.820907	1.652018	0.348855	-0.060543	-0.704784	45.770445	-78.668926	-83.841484
21649		9.127944	2.554288	1.031387	0.269305	0.065893	-0.592915	46.941780	-78.400045	-84.878324
21650		8.383836	3.012737	1.417788	-0.094355	0.023590	-0.520525	47.809047	-78.174651	-85.818298
21651		9.064867	2.194647	-0.229252	-0.058011	-0.057785	-0.509380	48.808766	-77.981778	-86.873123
21652		9.700213	1.981125	0.406943	0.037136	-0.053347	-0.536041	49.865977	-77.771922	-87.931736
21653		10.344007	2.139392	0.626262	0.244006	-0.113091	-0.585216	51.206238	-77.557318	-89.159655
21654		10.610234	2.113293	1.178211	0.341633	-0.068598	-0.592301	52.479021	-77.318011	-90.262135
21655		9.959870	2.664606	1.698890	0.377245	-0.028049	-0.577848	53.624932	-77.066188	-91.214718
21656		9.876050	2.432627	1.658435	0.333314	-0.059692	-0.519863	54.686759	-76.848022	-92.107662
21657		9.481182	2.592562	2.009335	0.283718	-0.045888	-0.458101	55.576614	-76.650842	-92.853944
21658		9.355917	2.680604	1.869301	0.223409	-0.068546	-0.378283	56.347881	-76.496432	-93.514343
21659		9.427737	2.864324	1.480616	0.154936	-0.063575	-0.331603	56.994051	-76.360856	-94.086844
21660		9.449936	3.040376	1.196240	0.109273	-0.073601	-0.325864	57.614883	-76.229663	-94.660518
21661		9.150007	3.446434	1.262733	0.089186	-0.108123	-0.341384	58.299786	-76.099897	-95.312350
21662		9.075960	3.783747	1.563003	0.061740	-0.152974	-0.348221	59.053231	-75.978101	-96.051389
21663		9.262254	3.358756	1.805939	-0.005440	-0.161844	-0.329989	59.751709	-75.865732	-96.773799
21664		9.436651	2.735725	1.964687	0.014617	-0.157837	-0.290200	60.398575	-75.769699	-97.431521
21665		9.452335	2.703203	2.024413	0.048916	-0.162304	-0.245059	61.015553	-75.695927	-98.038306
21666		9.536916	3.086911	1.883311	0.091462	-0.179707	-0.202009	61.639289	-75.646672	-98.627182
21667		9.441702	3.225789	1.728831	0.083448	-0.172258	-0.168533	62.204477	-75.611117	-99.160360
21668		9.140161	3.691134	1.694080	0.096200	-0.179511	-0.157694	62.777730	-75.581291	-99.694554
21669		9.187464	3.876731	1.760506	0.007300	-0.215786	-0.129679	63.341767	-75.574260	-100.271715
21670		9.566661	3.236738	1.325955	-0.084748	-0.230778	-0.106487	63.859942	-75.581072	-100.856189
21671		9.689066	3.016882	1.191550	-0.085142	-0.238401	-0.076704	64.364811	-75.604366	-101.426907
21672		9.556927	3.260975	1.078033	-0.106147	-0.219288	-0.059754	64.804786	-75.629971	-101.943228
21673		9.400008	3.422252	0.975385	-0.134717	-0.223967	-0.031567	65.212917	-75.670987	-102.443266
21674		9.444263	3.524256	0.931653	-0.144820	-0.215862	0.017091	65.556382	-75.733932	-102.882682
21675		9.565301	3.140564	0.747049	-0.188865	-0.191853	0.042587	65.804460	-75.804632	-103.249342
21676		9.763979	2.662408	0.467428	-0.175587	-0.175724	0.061721	66.012522	-75.880467	-103.567037
21677		9.892189	2.590083	0.495466	-0.139124	-0.148979	0.087460	66.164015	-75.964070	-103.804492
21678		9.616624	2.721704	0.456905	-0.072045	-0.121466	0.124497	66.264670	-76.059856	-103.950110
21679		9.495819	2.771846	0.406893	-0.037668	-0.132747	0.172991	66.364931	-76.184372	-104.074709
21680		9.612117	2.632384	0.266323	-0.011150	-0.128596	0.208365	66.441255	-76.325689	-104.159197
21681		9.550911	3.001185	0.391459	0.059750	-0.118845	0.255383	66.493185	-76.490225	-104.176496
21682		9.489776	3.287358	0.454022	0.073164	-0.114118	0.288969	66.512132	-76.670527	-104.152203
21683		9.729710	3.360171	0.548167	0.071409	-0.122292	0.308095	66.528396	-76.863547	-104.125974
21684		9.967713	3.193890	0.647003	0.066980	-0.117091	0.312949	66.526838	-77.057059	-104.084316
21685		10.052329	2.846265	0.680501	0.106640	-0.089188	0.302137	66.492060	-77.239388	-103.985071
21686		9.710517	2.431353	1.008983	0.191705	-0.063102	0.307959	66.438963	-77.417863	-103.817407
21687		9.314327	2.055034	1.508599	0.254726	-0.093444	0.337340	66.458882	-77.619632	-103.687426
21688		9.232183	1.762326	1.660503	0.314248	-0.135802	0.355343	66.597234	-77.839612	-103.644115
21689		9.281486	1.443626	1.305806	0.382025	-0.167435	0.339939	66.869787	-78.059631	-103.698092
21690		9.156518	1.490150	1.122111	0.512128	-0.193082	0.316995	67.315082	-78.272228	-103.852645
21691		9.243579	1.704424	1.411277	0.581823	-0.250368	0.336207	67.938701	-78.508155	-104.148065
21692		9.212123	1.713806	1.289034	0.611103	-0.236980	0.341878	68.557943	-78.742636	-104.421969
21693		9.565238	2.179803	1.214941	0.611610	-0.258755	0.359042	69.236708	-78.991123	-104.755706
21694		9.346114	2.538943	0.875701	0.537551	-0.214015	0.337032	69.793639	-79.217123	-105.008649
21695		9.571064	2.397778	0.604144	0.483944	-0.242621	0.317506	70.438548	-79.438660	-105.381852
21696		9.474947	2.115536	0.629470	0.426999	-0.233647	0.291507	71.073397	-79.642598	-105.778101
21697		9.798164	2.079951	0.410753	0.405191	-0.226421	0.273427	71.711308	-79.835644	-106.189553
21698		9.935772	1.857162	-0.135218	0.360644	-0.173691	0.253356	72.201563	-80.006581	-106.477091
21699		9.937506	1.252343	-0.417987	0.327048	-0.158522	0.264337	72.625808	-80.181569	-106.716642
21700		9.757238	0.966088	-0.383692	0.376342	-0.085988	0.280097	72.842937	-80.351557	-106.717605
21701		9.762142	0.857928	-0.575871	0.461461	-0.086105	0.262416	73.129589	-80.512931	-106.739279
21702		9.742871	0.726484	-0.288230	0.457551	-0.069293	0.243756	73.383954	-80.660296	-106.730772
21703		9.574317	0.661740	0.175652	0.445691	-0.054987	0.201015	73.627699	-80.782837	-106.718109
21704		9.546680	0.497493	0.528579	0.418331	-0.061724	0.162280	73.922822	-80.884256	-106.773617
21705		9.650375	0.342982	0.699918	0.412423	-0.031501	0.127627	74.145713	-80.962683	-106.759146
21706		9.385529	0.118223	0.558413	0.391455	-0.024642	0.087626	74.375812	-81.017173	-106.764365
21707		9.408168	0.509184	0.934400	0.358502	-0.082637	0.079566	74.798154	-81.076859	-106.983084
21708		9.538577	0.884489	0.843937	0.347703	-0.082233	0.085611	75.213112	-81.138840	-107.200768
21709		9.566139	1.418819	0.374016	0.431136	-0.060009	0.067816	75.615681	-81.188248	-107.357291
21710		9.605518	1.675200	0.342852	0.393867	-0.069517	0.027351	76.072237	-81.215605	-107.590247
21711		9.769822	1.371126	0.716527	0.213575	-0.090066	0.025636	76.501802	-81.245245	-107.900186
21712		9.792665	1.279963	0.493810	0.160285	-0.062178	0.046038	76.785852	-81.281543	-108.093982
21713		9.783545	1.265243	0.153474	0.196756	-0.048926	0.035670	77.051773	-81.310924	-108.248064
21714		9.762803	1.354286	-0.295359	0.195150	-0.044597	0.005005	77.329058	-81.321800	-108.414776
21715		9.716595	1.239039	-0.275059	0.105841	-0.057737	-0.009406	77.614254	-81.326839	-108.641038
21716		9.714237	0.702112	-0.061708	0.028637	-0.061577	-0.007389	77.869616	-81.332625	-108.882050
21717		9.707066	0.580862	0.064773	0.066525	-0.050682	0.011933	78.090317	-81.348477	-109.065851
21718		9.692194	0.679492	0.128085	0.126328	-0.037197	0.020993	78.290943	-81.367108	-109.194834
21719		9.699974	0.672793	0.177059	0.208130	-0.038252	0.006315	78.552538	-81.378164	-109.337917
21720		9.784997	0.733184	0.365178	0.236080	-0.042385	-0.004233	78.855397	-81.383097	-109.506667
21721		9.773804	0.738734	0.484169	0.262816	-0.020759	-0.007975	79.094614	-81.383991	-109.595422
21722		9.606595	0.669013	0.419161	0.262840	-0.027857	-0.032456	79.378894	-81.371307	-109.729860
21723		9.618310	0.995341	0.287516	0.291727	-0.037641	-0.035375	79.715930	-81.358385	-109.900806
21724		9.673473	1.214098	0.104659	0.230516	-0.032778	-0.062358	80.018175	-81.329160	-110.072148
21725		9.657892	1.014482	0.005983	0.146188	-0.023640	-0.057177	80.232274	-81.302298	-110.203108
21726		9.722267	0.957170	-0.200592	0.119606	-0.019618	-0.063109	80.420367	-81.271209	-110.323264
21727		9.602843	0.964584	-0.141546	0.103240	-0.009186	-0.075894	80.566206	-81.232275	-110.410080
21728		9.665529	1.085085	-0.032686	0.066704	-0.022214	-0.078510	80.740761	-81.192665	-110.547205
21729		9.708383	1.309906	-0.089638	0.101370	-0.012959	-0.059730	80.887614	-81.163146	-110.636149
21730		9.758040	1.538441	0.118643	0.116116	-0.003196	-0.057253	81.006913	-81.133772	-110.688704
21731		9.720336	1.713325	-0.063082	0.124821	0.005355	-0.044109	81.090595	-81.111405	-110.700124
21732		9.690763	1.817471	0.090784	0.137598	-0.004935	-0.045917	81.221263	-81.088567	-110.751732
21733		9.597005	1.566838	0.281416	0.097799	0.012056	-0.049448	81.267714	-81.062586	-110.741140
21734		9.638137	1.613132	0.089751	0.148652	0.013444	-0.044929	81.337453	-81.038681	-110.724666
21735		9.643366	1.465296	0.053940	0.118509	0.007283	-0.045666	81.410523	-81.015258	-110.729007
21736		9.766280	1.122058	-0.012808	0.142760	0.020376	-0.048806	81.454009	-80.988571	-110.689363
21737		9.642324	1.317506	0.163051	0.173869	0.021257	-0.057833	81.515141	-80.957066	-110.649502
21738		9.661898	1.349797	0.172914	0.143023	0.019820	-0.067723	81.570759	-80.919747	-110.621969
21739		9.671051	1.249522	0.252042	0.156355	0.014607	-0.067258	81.650195	-80.883469	-110.610799
21740		9.558953	1.477024	0.382497	0.174866	0.024823	-0.067379	81.705910	-80.845962	-110.564873
21741		9.658213	1.527379	0.061803	0.127915	0.030492	-0.073519	81.716192	-80.804825	-110.500156
21742		9.699626	1.529183	-0.010267	0.148258	0.028747	-0.082106	81.750616	-80.758655	-110.448093
21743		9.598160	1.561057	0.437415	0.103701	0.026243	-0.074521	81.762714	-80.717308	-110.399258
21744		9.503458	1.450309	0.278871	0.074429	0.029966	-0.075517	81.747693	-80.674780	-110.339941
21745		9.571279	1.421724	0.356963	0.019307	0.022997	-0.088424	81.730105	-80.625815	-110.310013
21746		9.662659	1.072555	0.213149	-0.031750	0.022341	-0.108921	81.697764	-80.564980	-110.294787
21747		9.742828	0.926968	0.161111	0.007866	0.025198	-0.110219	81.677597	-80.503471	-110.268879
21748		9.608686	0.915759	0.070327	0.049378	0.023818	-0.108502	81.686912	-80.442801	-110.248736
21749		9.631759	1.037308	0.273201	0.043269	-0.000589	-0.123444	81.780058	-80.375921	-110.317165
21750		9.647502	1.119344	0.538891	0.072689	-0.011742	-0.142387	81.936508	-80.298980	-110.432699
21751		9.640329	1.152940	0.924915	0.062529	-0.025838	-0.155632	82.135882	-80.215781	-110.597746
21752		9.680885	0.953672	0.440051	0.059334	-0.004240	-0.174063	82.269363	-80.120198	-110.697796
21753		9.651713	0.866543	0.414426	0.112653	-0.006898	-0.202427	82.450498	-80.008825	-110.815267
21754		9.674720	0.960503	0.158531	0.146149	-0.019587	-0.201070	82.688484	-79.898990	-110.970986
21755		9.808111	1.299341	-0.134558	0.201666	-0.019386	-0.225164	82.961610	-79.775425	-111.130183
21756		9.713358	1.759279	0.017580	0.212360	-0.029097	-0.234224	83.270469	-79.647181	-111.319472
21757		9.589531	1.888579	0.276563	0.123453	-0.043606	-0.249618	83.571508	-79.511002	-111.552745
21758		9.547509	1.882196	0.119319	0.159128	-0.037678	-0.247326	83.868424	-79.375481	-111.761072
21759		9.330388	2.169246	0.376937	0.168919	-0.027211	-0.242879	84.130661	-79.241740	-111.928552
21760		9.392923	2.019456	0.341487	0.131746	-0.052213	-0.233990	84.439103	-79.114260	-112.164778
21761		9.587002	2.029988	0.270782	0.167304	-0.053055	-0.228400	84.761385	-78.989854	-112.394501
21762		9.533950	2.199464	0.386291	0.130531	-0.050543	-0.224124	85.049223	-78.867428	-112.610649
21763		9.587434	2.093681	0.178515	0.060924	-0.040354	-0.225084	85.261910	-78.743884	-112.790980
21764		9.546969	1.810469	0.045970	0.029271	-0.037981	-0.235490	85.448876	-78.614039	-112.963620
21765		9.670002	1.782010	0.120622	0.009079	-0.036370	-0.244060	85.616682	-78.479250	-113.128629
21766		9.897663	2.000851	0.155579	0.011461	-0.042332	-0.235483	85.797728	-78.349403	-113.305799
21767		9.975207	1.943270	0.027092	0.014431	-0.007670	-0.244071	85.882287	-78.213240	-113.382814
21768		9.732820	1.716444	-0.355789	0.048686	0.007125	-0.253035	85.947140	-78.071222	-113.419633
21769		9.595397	1.962806	-0.483303	0.092930	0.006823	-0.238965	86.033257	-77.937357	-113.452339
21770		9.614433	2.254087	-0.489276	0.055141	0.014523	-0.242221	86.077910	-77.801232	-113.464724
21771		9.771944	2.385866	-0.563523	0.013254	0.037351	-0.242006	86.037220	-77.664418	-113.414410
21772		9.755829	2.441460	-0.566545	-0.039939	0.066752	-0.244246	85.893026	-77.525019	-113.289204
21773		10.019272	2.318698	-0.602799	-0.095360	0.073571	-0.243228	85.701238	-77.385938	-113.147797
21774		10.080127	2.162792	-0.508467	-0.106655	0.095095	-0.246101	85.454509	-77.244037	-112.956512
21775		10.058649	2.340547	-0.466708	-0.070383	0.105029	-0.244986	85.206609	-77.102240	-112.742723
21776		10.100410	2.525019	-0.124850	-0.046426	0.106365	-0.243886	84.975683	-76.960706	-112.531998
21777		10.085220	2.626492	0.189989	-0.067502	0.119227	-0.247581	84.705121	-76.816296	-112.293000
21778		10.044309	2.421428	0.378154	-0.091198	0.132014	-0.246166	84.397315	-76.671607	-112.029395
21779		9.996614	2.336954	0.605909	-0.047284	0.156085	-0.253924	84.063424	-76.520888	-111.713100
21780		10.117233	2.363625	0.814231	-0.045220	0.154145	-0.260153	83.745781	-76.366208	-111.411959
21781		10.414388	2.218928	0.561441	0.002716	0.156045	-0.259640	83.456092	-76.211441	-111.111263
21782		10.649683	2.417893	0.682644	0.048224	0.166172	-0.272565	83.180761	-76.048194	-110.798164
21783		10.438168	2.275380	0.898442	0.019304	0.179841	-0.272109	82.863163	-75.883967	-110.458487
21784		10.555400	2.156019	1.113874	0.058015	0.156365	-0.262305	82.626070	-75.726535	-110.178613
21785		10.749593	2.481261	1.254651	0.121808	0.159690	-0.249716	82.418569	-75.575819	-109.891483
21786		10.653466	2.596420	1.427069	0.093650	0.170694	-0.258355	82.179704	-75.419022	-109.588330
21787		10.633888	2.077756	1.329901	0.027587	0.176657	-0.278011	81.901128	-75.250312	-109.283123
21788		10.665023	1.524195	1.314954	-0.023846	0.166469	-0.297604	81.628278	-75.070926	-109.014020
21789		10.715497	1.060566	1.257969	-0.117434	0.186981	-0.302314	81.266364	-74.886776	-108.708056
21790		10.527581	0.798172	1.293151	-0.247722	0.180985	-0.331046	80.860399	-74.686454	-108.433463
21791		10.435875	0.219214	0.929082	-0.393816	0.154453	-0.415586	80.462377	-74.440217	-108.253718
21792		10.430476	0.369925	0.057082	-0.406116	0.119307	-0.544162	80.180228	-74.124734	-108.201337
21793		10.593003	1.148537	-1.088755	-0.403191	0.077571	-0.705405	80.041832	-73.722028	-108.296807
21794		10.637956	1.524741	-0.279041	-0.477240	0.031244	-0.876225	80.005833	-73.228027	-108.543382
21795		10.794119	1.298933	0.420430	-0.486762	-0.003153	-1.017349	80.064985	-72.657324	-108.896059
21796		10.936871	1.991165	0.079640	-0.237120	-0.051412	-1.148843	80.375068	-72.017346	-109.362897
21797		10.784311	3.404931	-0.146076	0.124414	-0.095848	-1.260296	80.966587	-71.316776	-109.910008
21798		10.140781	3.840380	0.686997	0.140899	-0.099274	-1.329609	81.549096	-70.576203	-110.439641
21799		9.638232	3.086097	0.789247	0.123232	-0.106911	-1.305540	82.087500	-69.847572	-110.935846
21800		9.443999	3.405542	0.667357	0.309499	-0.104816	-1.284603	82.688230	-69.129706	-111.386673
21801		9.508256	4.574947	0.715975	0.182712	-0.102883	-1.286764	83.180297	-68.408336	-111.801306
21802		9.630921	5.036232	0.630683	0.069725	-0.137138	-1.316574	83.632242	-67.671667	-112.244308
21803		9.611875	4.865666	0.912428	-0.158953	-0.143961	-1.348379	83.940265	-66.915595	-112.675972
21804		9.718198	4.294229	0.896449	-0.274211	-0.162826	-1.361106	84.186178	-66.153130	-113.114134
21805		9.765878	4.389752	0.921935	-0.332038	-0.173053	-1.365500	84.391342	-65.387525	-113.546766
21806		9.718804	4.549124	1.164397	-0.486922	-0.192506	-1.372372	84.514092	-64.619099	-113.988838
21807		9.508377	4.307564	1.224301	-0.700050	-0.189874	-1.383000	84.497521	-63.843770	-114.414847
21808		9.749579	4.270387	1.264538	-0.838794	-0.239248	-1.393606	84.446968	-63.065752	-114.894413
21809		9.585281	4.654313	1.256258	-1.021425	-0.225852	-1.392728	84.265755	-62.287390	-115.348180
21810		9.213331	4.648050	1.446049	-1.249882	-0.284497	-1.433730	84.012841	-61.490436	-115.872228
21811		9.684409	4.579505	1.494252	-1.419607	-0.347557	-1.471479	83.723619	-60.676461	-116.470033
21812		9.780283	4.680154	1.504751	-1.610981	-0.323516	-1.516661	83.297135	-59.837614	-117.040838
21813		9.733430	4.237556	1.314683	-1.797606	-0.346627	-1.588141	82.789378	-58.961475	-117.646504
21814		9.874401	4.064839	1.476029	-1.807295	-0.380665	-1.640458	82.307953	-58.061500	-118.295211
21815		9.680554	4.235023	2.169920	-1.924882	-0.379791	-1.663480	81.755285	-57.150825	-118.945784
21816		10.018671	4.188419	2.051043	-2.032887	-0.406375	-1.684447	81.160801	-56.234864	-119.627131
21817		10.061125	4.009846	1.746966	-2.033644	-0.340843	-1.719406	80.511602	-55.296474	-120.250207
21818		9.713768	3.733226	1.922606	-2.000774	-0.324799	-1.758382	79.870199	-54.339492	-120.867043
21819		9.840671	3.620201	2.012604	-1.934400	-0.351212	-1.790070	79.288729	-53.370268	-121.518401
21820		9.980485	4.082602	2.041469	-1.799614	-0.328350	-1.798031	78.761955	-52.399025	-122.149895
21821		10.017220	4.397808	2.067321	-1.732437	-0.264476	-1.809118	78.224338	-51.416652	-122.726913
21822		9.692351	4.347423	1.873227	-1.631252	-0.233527	-1.830927	77.720881	-50.423051	-123.281440
21823		9.648742	4.701274	1.939094	-1.454350	-0.275505	-1.832032	77.341900	-49.435332	-123.873958
21824		9.624013	5.263976	1.996671	-1.324162	-0.230959	-1.822840	76.998327	-48.451139	-124.423535
21825		9.508300	5.549958	2.348227	-1.266386	-0.156648	-1.805308	76.632873	-47.467641	-124.907270
21826		9.264123	5.545160	2.083626	-1.129549	-0.105700	-1.778190	76.304864	-46.496210	-125.342903
21827		9.128788	5.250225	1.944451	-0.960584	-0.125928	-1.727315	76.073472	-45.555503	-125.784926
21828		9.256737	5.654944	1.961034	-0.658600	-0.114846	-1.650649	75.989902	-44.658743	-126.198697
21829		8.847105	6.643324	2.308448	-0.532966	-0.048667	-1.599673	75.928691	-43.779484	-126.547525
21830		8.666042	6.613926	2.326016	-0.501643	-0.041792	-1.559044	75.869147	-42.924276	-126.878554
21831		8.464902	6.348563	2.040995	-0.342297	0.039553	-1.533326	75.850942	-42.069966	-127.140613
21832		7.982483	6.186890	1.904520	-0.189986	0.106292	-1.469586	75.872976	-41.244033	-127.336621
21833		7.564768	6.278388	1.675523	0.072727	0.046650	-1.349635	76.055864	-40.490493	-127.551098
21834		7.113791	6.717059	2.020256	0.266852	0.044129	-1.235789	76.331044	-39.802439	-127.739821
21835		7.006503	7.228650	2.089695	0.451242	0.015251	-1.115389	76.706754	-39.182074	-127.922662
21836		7.201310	7.804600	2.092151	0.563510	0.050608	-1.062293	77.118474	-38.588300	-128.063272
21837		6.894169	7.790137	1.787248	0.631966	0.098861	-1.001639	77.537757	-38.019083	-128.154118
21838		6.540167	7.756115	1.668953	0.704450	0.072838	-0.943665	77.999009	-37.487493	-128.247320
21839		6.276202	7.724742	1.436848	0.818709	0.020724	-0.855227	78.536439	-37.008423	-128.358776
21840		6.010252	8.092456	1.698689	0.999534	-0.043810	-0.763113	79.191300	-36.589932	-128.494994
21841		5.719608	8.470998	2.079197	1.048762	-0.152643	-0.721650	79.912330	-36.202273	-128.695965
21842		6.210095	9.045862	1.440699	0.885076	-0.153779	-0.697423	80.532504	-35.829050	-128.887319
21843		6.055652	9.136474	0.467502	0.751851	0.021048	-0.631189	80.997863	-35.473239	-128.945134
21844		5.662155	8.997781	0.871416	0.734063	-0.000745	-0.573831	81.454987	-35.153918	-129.007328
21845		5.638848	8.547047	0.674486	0.781325	-0.023872	-0.480451	81.941498	-34.886567	-129.073481
21846		6.026315	8.433218	1.025647	0.784650	-0.034349	-0.409219	82.427555	-34.662440	-129.136356
21847		7.048315	7.023854	0.243946	0.769908	-0.008935	-0.283042	82.888002	-34.505304	-129.168846
21848		5.648537	6.632934	-0.352762	1.308454	0.164076	-0.139552	83.580973	-34.420370	-129.067437
21849		5.505742	10.175414	0.404156	1.433212	0.078443	-0.136372	84.378744	-34.340982	-129.024440
21850		6.156810	10.453498	-0.562413	1.091519	-0.047544	-0.174115	85.029951	-34.249655	-129.068940
21851		6.672159	9.897274	0.189471	1.020020	0.041112	-0.282798	85.609037	-34.089247	-129.057859
21852		6.302277	9.609840	0.633791	0.844416	0.227918	-0.276260	86.013958	-33.927274	-128.915334
21853		5.836978	8.925388	-1.147768	0.665402	0.328923	-0.225062	86.276508	-33.788934	-128.700704
21854		5.292794	8.382484	-1.465694	0.655775	0.395975	-0.159406	86.506120	-33.688895	-128.436032
21855		5.257976	8.798972	-0.981441	0.681319	0.342888	-0.068998	86.769059	-33.640887	-128.204567
21856		5.333282	8.551471	-1.740832	0.563516	0.417158	-0.019491	86.935035	-33.621954	-127.919459
21857		4.532966	8.412788	-1.748101	0.505340	0.451902	0.004231	87.054245	-33.613771	-127.610221
21858		4.010766	8.465960	-1.425943	0.377683	0.356962	0.017358	87.136173	-33.618620	-127.365209
21859		3.633837	8.274463	-1.439601	0.252397	0.300946	0.124603	87.165448	-33.684322	-127.155482
21860		3.737855	7.628750	-1.540407	0.232966	0.245996	0.272144	87.201550	-33.838281	-126.977902
21861		4.070225	7.271766	-1.681454	0.179055	0.305308	0.495498	87.178692	-34.116232	-126.751857
21862		3.945260	7.304693	-1.184785	0.158098	0.374415	0.778513	87.109795	-34.556109	-126.466530
21863		4.075313	7.251083	-1.008020	0.254040	0.417299	1.067879	87.069099	-35.158001	-126.139111
21864		4.403919	7.516942	-0.989551	0.325738	0.494982	1.342508	87.027360	-35.916570	-125.743522
21865		3.879227	7.150403	-0.917913	0.351343	0.572133	1.601972	86.953860	-36.818934	-125.278603
21866		3.502172	6.534175	-0.571049	0.315319	0.562222	1.850646	86.847766	-37.865227	-124.803160
21867		3.853419	6.197178	-0.358971	0.304903	0.539613	2.085740	86.725925	-39.044044	-124.324930
21868		4.303316	6.307445	-0.124929	0.257101	0.630288	2.299786	86.512028	-40.342976	-123.756791
21869		4.270657	6.241416	-0.119124	0.155260	0.742511	2.483774	86.154008	-41.738956	-123.074750
21870		3.496538	5.904520	-0.169555	0.085467	0.789896	2.631860	85.694105	-43.215723	-122.318787
21871		2.805008	5.662757	-0.232583	0.036016	0.746849	2.760115	85.183487	-44.761147	-121.552663
21872		2.329808	5.521883	-0.076476	-0.038173	0.679139	2.880940	84.619339	-46.375381	-120.791018
21873		2.125120	5.355388	-0.026212	-0.107369	0.697818	3.028195	83.943003	-48.064995	-119.952260
21874		1.454204	4.795492	-0.051755	-0.097305	0.715599	3.147615	83.190365	-49.815677	-119.026001
21875		1.072725	4.707418	0.097054	-0.114250	0.662531	3.214655	82.384036	-51.598407	-118.067699
21876		1.269156	4.315704	-0.099230	-0.197587	0.577307	3.222563	81.510040	-53.384578	-117.106783
21877		1.324193	4.387340	0.177927	-0.303106	0.553415	3.196748	80.505144	-55.147246	-116.081833
21878		1.453143	4.019646	0.454829	-0.504768	0.501740	3.193990	79.323321	-56.902785	-115.003785
21879		1.700010	4.034270	0.954858	-0.651705	0.474301	3.183332	77.959402	-58.640644	-113.832004
21880		2.424347	4.098418	1.097522	-0.726151	0.409814	3.146876	76.480587	-60.351045	-112.597034
21881		2.722848	4.100173	1.210207	-0.822513	0.498437	3.066662	74.714659	-61.985127	-111.118379
