// General information: 
//  MT Manager version: 2022.2.0 
//  XDA version: 2022.2.0 build 7381 rev 124627 built on 2023-07-19
// Device information: 
//  DeviceId: 00B4BA83
//  ProductCode: MTW2-3A7G6
//  Firmware Version: 4.6.0
//  Hardware Version: 2.0.0
// Device settings: 
//  Filter Profile: human(46.1)
//  Option Flags: Orientation Smoother Disabled, Position/Velocity Smoother Disabled, Continuous Zero Rotation Update Disabled, AHS Disabled, ICC Disabled
// Coordinate system: ENU
PacketCounter	SampleTimeFine	Acc_X	Acc_Y	Acc_Z	Gyr_X	Gyr_Y	Gyr_Z	Roll	Pitch	Yaw
08218		9.437988	1.074947	-1.758877	-0.121099	0.005985	0.079470	151.346860	-78.160556	-175.297757
08219		9.493436	1.033578	-1.865162	-0.115180	0.012166	0.058234	151.416859	-78.182269	-175.434938
08220		9.508402	1.108318	-1.815662	-0.093911	0.019954	0.032430	151.428200	-78.200761	-175.499715
08221		9.460957	1.222906	-1.771932	-0.085894	0.012649	0.015975	151.412982	-78.211109	-175.532676
08222		9.455597	1.258054	-1.685702	-0.089936	0.004989	0.007070	151.385219	-78.215123	-175.555175
08223		9.541169	1.307888	-1.663490	-0.096865	-0.005517	0.003442	151.357336	-78.212893	-175.581619
08224		9.565927	1.311042	-1.711438	-0.089785	-0.006645	0.004232	151.338116	-78.210282	-175.612757
08225		9.604051	1.277601	-1.729470	-0.079216	-0.001279	0.008238	151.326245	-78.211500	-175.645230
08226		9.637369	1.284503	-1.735452	-0.089598	0.007038	0.006035	151.293452	-78.216267	-175.662392
08227		9.579531	1.169925	-1.767534	-0.081842	0.024217	0.010287	151.251305	-78.230861	-175.665474
08228		9.551860	1.123920	-1.768240	-0.069921	0.030252	0.006857	151.201019	-78.247518	-175.653252
08229		9.588269	1.158672	-1.817900	-0.059981	0.042619	0.012076	151.151125	-78.271839	-175.635626
08230		9.576186	1.291938	-1.923612	-0.068480	0.057420	0.019101	151.094841	-78.305510	-175.616436
08231		9.579361	1.313361	-1.890216	-0.084054	0.067376	0.026592	151.032799	-78.346251	-175.600497
08232		9.478158	1.356406	-1.822791	-0.091540	0.068840	0.029743	150.973328	-78.388592	-175.591548
08233		9.516745	1.315245	-1.761733	-0.136295	0.045596	0.024687	150.905654	-78.417874	-175.600420
08234		9.578559	1.246649	-1.948950	-0.159547	0.042424	0.013190	150.802175	-78.442372	-175.586326
08235		9.497917	1.153799	-1.903444	-0.163942	0.047358	0.000400	150.656294	-78.465725	-175.531533
08236		9.519430	1.027475	-1.745983	-0.169013	0.035340	-0.028115	150.455467	-78.475040	-175.423623
08237		9.601610	0.811585	-2.054884	-0.185354	0.038004	-0.046837	150.194059	-78.480251	-175.263441
08238		9.467113	0.780609	-1.874934	-0.074729	0.061732	-0.061984	149.927106	-78.492798	-175.032923
08239		9.347098	0.817604	-1.819284	-0.078273	0.044356	-0.069669	149.662146	-78.494272	-174.806559
08240		9.488901	0.882901	-1.603246	-0.030980	0.024997	-0.064585	149.465701	-78.487517	-174.622420
08241		9.643075	0.896179	-1.459152	-0.061636	0.007579	-0.061276	149.283502	-78.472976	-174.470718
08242		9.857682	0.698866	-1.726999	-0.026388	0.030178	-0.045852	149.127935	-78.474037	-174.325602
08243		9.862345	0.670046	-1.562263	0.078791	0.061016	-0.041748	148.996437	-78.491356	-174.143586
08244		9.832311	0.680892	-1.695428	0.073786	0.063227	-0.042754	148.857334	-78.509411	-173.956713
08245		9.818437	0.614929	-1.565427	0.074112	0.069932	-0.032852	148.730646	-78.533581	-173.782352
08246		9.771174	0.512847	-1.627134	0.038787	0.068721	-0.034066	148.583239	-78.556738	-173.607496
08247		9.632686	0.508613	-1.607344	0.027312	0.073452	-0.035497	148.416877	-78.581673	-173.420034
08248		9.637772	0.562495	-1.620224	-0.018822	0.066204	-0.030112	148.248383	-78.604595	-173.257369
08249		9.837814	0.490428	-1.674325	-0.056558	0.059405	-0.011080	148.112706	-78.629873	-173.150255
08250		9.806039	0.582477	-1.741762	-0.025994	0.061969	0.017730	148.061113	-78.665087	-173.111046
08251		9.695434	0.634587	-1.618549	-0.031463	0.054481	0.036461	148.062004	-78.702349	-173.128578
08252		9.843740	0.641235	-1.585460	-0.044518	0.028821	0.057570	148.147056	-78.733501	-173.239539
08253		9.767737	0.575709	-1.663156	-0.019906	0.037639	0.067407	148.256563	-78.771907	-173.361048
08254		9.350665	0.407038	-1.839267	-0.029066	0.058515	0.055474	148.301398	-78.816834	-173.421955
08255		9.388615	0.554965	-1.336248	0.045740	0.042418	0.041899	148.379697	-78.849849	-173.473288
08256		9.576361	0.483696	-1.621316	-0.007821	0.030929	0.024352	148.402460	-78.871946	-173.499279
08257		9.579795	0.525031	-1.563621	0.092074	0.063460	0.011448	148.399997	-78.906093	-173.441239
08258		9.726447	0.714789	-1.544664	0.114457	0.052829	0.008695	148.420412	-78.934178	-173.393442
08259		9.748553	0.664335	-1.568496	0.147339	0.063218	-0.001631	148.417105	-78.964296	-173.302279
08260		9.732014	0.776758	-1.455087	0.157445	0.062814	-0.014170	148.389210	-78.990388	-173.180179
08261		9.775696	0.792299	-1.488589	0.167971	0.059728	-0.011631	148.377507	-79.015800	-173.068458
08262		9.764933	0.849494	-1.486847	0.180271	0.070314	-0.013163	148.352908	-79.045838	-172.936417
08263		9.739625	0.770249	-1.684654	0.178580	0.082405	-0.014872	148.303082	-79.081319	-172.779695
08264		9.615497	0.785772	-1.483786	0.221074	0.091352	-0.021587	148.246535	-79.119032	-172.591342
08265		9.586494	0.730909	-1.768065	0.215808	0.092941	-0.038980	148.138855	-79.152299	-172.354053
08266		9.344640	0.842255	-1.798929	0.340065	0.125984	-0.053685	148.011992	-79.197004	-172.024744
08267		9.214486	1.205281	-1.301957	0.260892	0.084901	-0.051252	147.909427	-79.222446	-171.766383
08268		9.402048	1.014611	-1.527553	0.192516	0.047076	-0.052938	147.823876	-79.228868	-171.565241
08269		9.356283	1.045994	-1.548439	0.225532	0.060622	-0.049200	147.744193	-79.243018	-171.350844
08270		9.465295	1.155394	-1.346590	0.184541	0.042911	-0.044628	147.681497	-79.249865	-171.177630
08271		9.598481	1.005862	-1.537823	0.159608	0.052816	-0.037990	147.604615	-79.263573	-171.004526
08272		9.621374	1.094007	-1.519359	0.182209	0.057584	-0.034363	147.542489	-79.280592	-170.833266
08273		9.605628	1.039537	-1.650041	0.183083	0.069454	-0.033513	147.462655	-79.303636	-170.643486
08274		9.408879	1.184035	-1.512349	0.210682	0.075620	-0.038094	147.376852	-79.328126	-170.431555
08275		9.294181	1.211116	-1.159732	0.158404	0.062721	-0.035268	147.288229	-79.347269	-170.247268
08276		9.864013	1.360689	-1.030758	0.032587	-0.015211	-0.032490	147.263399	-79.329613	-170.201231
08277		9.717763	1.144156	-1.799070	0.084859	0.052047	-0.023051	147.181179	-79.347345	-170.066323
08278		9.346323	1.482928	-0.907370	0.077838	0.052249	-0.017125	147.110181	-79.366916	-169.946930
08279		9.537599	1.221582	-1.092954	-0.150421	-0.007023	-0.013885	147.013933	-79.359026	-169.934931
08280		9.611750	0.977178	-1.405542	-0.064989	0.015383	-0.007332	146.947073	-79.363879	-169.903016
08281		9.585215	1.041213	-1.205523	-0.064984	-0.001679	-0.004996	146.913635	-79.361337	-169.905138
08282		9.755172	0.764889	-1.517364	-0.038908	0.013273	-0.007505	146.864747	-79.365114	-169.876305
08283		9.623760	0.785981	-1.436999	0.054594	0.039030	-0.007624	146.825151	-79.381283	-169.802401
08284		9.589579	0.870486	-1.438442	0.053426	0.027750	-0.009843	146.798866	-79.391261	-169.742742
08285		9.565792	0.850729	-1.487237	0.081377	0.032445	-0.006165	146.789161	-79.404726	-169.683702
08286		9.498957	0.950760	-1.457564	0.090562	0.017929	-0.000377	146.824768	-79.412963	-169.665366
08287		9.509164	0.958416	-1.488714	0.082830	0.010581	0.011796	146.898683	-79.421577	-169.690515
08288		9.640581	0.999297	-1.416196	0.088790	-0.002670	0.017322	147.013355	-79.425460	-169.753644
08289		9.608337	1.061629	-1.520670	0.100523	0.002199	0.026247	147.148830	-79.434526	-169.831112
08290		9.608008	1.122379	-1.371245	0.119049	-0.000064	0.019509	147.282329	-79.440289	-169.895755
08291		9.542397	1.178411	-1.469997	0.089048	-0.009265	0.020123	147.414672	-79.441865	-169.976724
08292		9.584414	1.232759	-1.385851	0.068010	-0.017777	0.019943	147.549482	-79.439149	-170.072446
08293		9.570920	1.242695	-1.445304	0.036860	-0.021187	0.015975	147.660733	-79.433612	-170.162339
08294		9.630473	1.247798	-1.501376	0.024292	-0.005630	0.015206	147.738146	-79.435263	-170.225156
08295		9.549257	1.288184	-1.421133	-0.000510	-0.000620	0.016044	147.794327	-79.439664	-170.280887
08296		9.482063	1.251412	-1.433273	-0.023434	0.008683	0.017938	147.828135	-79.449066	-170.327163
08297		9.529949	1.267143	-1.355936	-0.048616	0.006574	0.014364	147.840628	-79.456425	-170.366441
08298		9.444257	1.219295	-1.564423	-0.050981	0.008617	0.015906	147.853568	-79.465170	-170.407542
08299		9.203052	1.260865	-1.569768	-0.011258	0.020081	0.009527	147.852712	-79.477597	-170.411450
08300		8.938386	1.094426	-1.342629	-0.005295	0.021366	0.009926	147.855358	-79.490703	-170.415456
08301		9.690713	1.740986	-1.182280	-0.060930	-0.093384	0.015521	148.027389	-79.449849	-170.624202
08302		10.025534	1.324164	-2.330518	0.003912	-0.000985	0.036016	148.140113	-79.459984	-170.734810
08303		9.403792	1.492139	-1.421581	0.100564	0.049814	0.023177	148.190958	-79.490977	-170.726166
08304		9.497344	1.542481	-1.169978	-0.077820	-0.037524	0.011983	148.253621	-79.476015	-170.833477
08305		9.396363	1.283464	-1.655219	-0.027430	-0.021336	0.011217	148.315273	-79.468723	-170.910388
08306		9.293361	1.526475	-1.224033	-0.018481	-0.042757	0.007270	148.407587	-79.449745	-171.013285
08307		9.458120	1.332576	-1.477699	-0.097347	-0.066767	0.017685	148.518652	-79.422151	-171.181213
08308		9.547808	1.162538	-1.635269	-0.039262	-0.045225	0.023690	148.645135	-79.406798	-171.330999
08309		9.506042	1.239516	-1.684448	-0.019024	-0.030848	0.037165	148.793732	-79.402443	-171.491533
08310		9.636717	1.304795	-1.776175	-0.034458	-0.030942	0.056408	148.985550	-79.403634	-171.704993
08311		9.728153	1.444268	-1.726501	-0.037427	-0.038206	0.077878	149.241997	-79.407417	-171.985955
08312		9.745909	1.564998	-1.705895	-0.101149	-0.061787	0.096274	149.548931	-79.404680	-172.355398
08313		9.658103	1.480836	-1.684194	-0.148068	-0.044157	0.103814	149.819970	-79.412488	-172.715673
08314		9.647637	1.432923	-1.419815	-0.222209	-0.052462	0.106432	150.070321	-79.416638	-173.098106
08315		9.805262	1.242903	-1.427081	-0.283452	-0.039286	0.097215	150.239429	-79.424430	-173.433584
08316		9.750268	1.013802	-1.549373	-0.292013	-0.017275	0.085398	150.340886	-79.439696	-173.705217
08317		9.710715	0.857850	-1.437029	-0.264078	-0.000753	0.081275	150.420950	-79.461925	-173.938799
08318		9.646221	0.683049	-1.376954	-0.285993	-0.021671	0.076597	150.510096	-79.472360	-174.194371
08319		9.582500	0.543042	-1.553056	-0.267965	-0.023638	0.073738	150.603343	-79.480927	-174.443611
08320		9.518179	0.572702	-1.488322	-0.238087	-0.025800	0.074141	150.720195	-79.488450	-174.699430
08321		9.485985	0.585607	-1.457031	-0.246099	-0.037375	0.074018	150.847990	-79.490055	-174.971052
08322		9.411695	0.566025	-1.487440	-0.237400	-0.037107	0.078642	150.994709	-79.492958	-175.256842
08323		9.377183	0.700503	-1.267667	-0.221006	-0.063023	0.091848	151.223479	-79.486361	-175.616540
08324		9.619223	0.670688	-1.242884	-0.261573	-0.088625	0.102086	151.495728	-79.469398	-176.044107
08325		9.754379	0.602916	-1.340877	-0.247526	-0.088562	0.106713	151.785648	-79.453377	-176.481494
08326		9.735420	0.650669	-1.392017	-0.211575	-0.075141	0.107764	152.080320	-79.443981	-176.902770
08327		9.663650	0.671884	-1.372561	-0.192391	-0.067579	0.102837	152.359500	-79.436769	-177.297130
08328		9.680793	0.678913	-1.367933	-0.216448	-0.072397	0.096199	152.614768	-79.424961	-177.681187
08329		9.673771	0.600382	-1.380416	-0.235571	-0.065153	0.091117	152.832750	-79.415285	-178.038484
08330		9.668197	0.544424	-1.365950	-0.266133	-0.064963	0.086941	153.022654	-79.404314	-178.385033
08331		9.754544	0.398017	-1.506396	-0.274528	-0.075885	0.085342	153.216250	-79.387220	-178.740258
08332		9.810273	0.289554	-1.587846	-0.232033	-0.075895	0.082213	153.426333	-79.368998	-179.087495
08333		9.840288	0.338350	-1.661057	-0.155308	-0.061022	0.082907	153.659731	-79.358437	-179.413754
08334		9.819388	0.380659	-1.636900	-0.097792	-0.052368	0.076421	153.897639	-79.350332	-179.711068
08335		9.733745	0.419074	-1.671658	-0.069313	-0.051055	0.078382	154.153726	-79.343272	179.989703
08336		9.616513	0.473342	-1.672657	-0.040305	-0.052114	0.068201	154.400855	-79.332776	179.716507
08337		9.566048	0.552803	-1.587706	-0.024646	-0.059608	0.063429	154.651815	-79.317129	179.448516
08338		9.555669	0.536959	-1.562339	-0.016223	-0.067295	0.048224	154.876234	-79.293457	179.212444
08339		9.629445	0.533920	-1.640286	-0.007724	-0.060635	0.033575	155.054647	-79.269664	179.028118
08340		9.681514	0.571822	-1.615706	-0.006528	-0.059151	0.024674	155.207880	-79.244270	178.870117
08341		9.794962	0.570664	-1.585767	-0.027918	-0.055666	0.022421	155.336465	-79.220211	178.724704
08342		9.786219	0.566335	-1.632163	-0.043866	-0.049914	0.022948	155.450718	-79.199084	178.584583
08343		9.742314	0.535141	-1.697523	-0.053253	-0.032396	0.024417	155.540293	-79.187531	178.464086
08344		9.704397	0.568113	-1.680772	-0.057109	-0.030098	0.026706	155.631933	-79.177544	178.339248
08345		9.694026	0.542312	-1.751720	-0.079481	-0.028815	0.034850	155.730188	-79.170253	178.194607
08346		9.719482	0.556965	-1.702345	-0.081990	-0.024623	0.022864	155.790006	-79.162151	178.087648
08347		9.693404	0.540108	-1.755840	-0.076606	-0.024804	0.022802	155.851862	-79.154066	177.981736
08348		9.640572	0.512077	-1.688204	-0.070861	-0.021755	0.014838	155.892409	-79.145544	177.900886
08349		9.679735	0.416504	-1.749831	-0.076660	-0.028175	0.004934	155.909447	-79.131490	177.840571
08350		9.667793	0.302678	-1.814705	-0.062192	-0.018189	-0.001216	155.906701	-79.121069	177.808856
08351		9.683858	0.226389	-1.800052	-0.026793	-0.006743	-0.012056	155.879998	-79.114252	177.822175
08352		9.678964	0.107087	-1.749124	0.015313	0.001419	-0.021098	155.843735	-79.109430	177.869811
08353		9.687288	0.028709	-1.774060	0.075150	0.014750	-0.032144	155.794844	-79.109136	177.965204
08354		9.620691	0.102158	-1.691889	0.119918	0.014622	-0.045604	155.735908	-79.105434	178.096965
08355		9.618180	0.153294	-1.750608	0.168316	0.015297	-0.059921	155.664608	-79.098849	178.269541
08356		9.837904	0.307361	-1.686920	0.222646	0.015689	-0.061688	155.619833	-79.091849	178.446826
08357		9.861301	0.534810	-1.734544	0.269293	0.012644	-0.065894	155.593887	-79.082421	178.632142
08358		9.952987	0.390636	-1.756221	0.246025	0.026480	-0.073965	155.516353	-79.078088	178.856441
08359		9.475711	0.200049	-1.716599	0.304777	0.085508	-0.110869	155.299340	-79.095780	179.257048
08360		9.221647	0.480001	-1.335445	0.299210	0.068025	-0.134324	155.037255	-79.098240	179.700311
08361		9.511792	0.642571	-1.098845	0.210063	0.009897	-0.133836	154.798799	-79.070478	-179.932509
08362		9.624363	0.596223	-1.462401	0.176009	0.004797	-0.126236	154.569483	-79.041463	-179.594456
08363		9.592388	0.637047	-1.329039	0.215384	0.024245	-0.138584	154.306137	-79.019379	-179.198753
08364		9.748226	0.545792	-1.521896	0.164389	0.032128	-0.147243	153.982106	-78.998603	-178.770945
08365		9.813120	0.532363	-1.657539	0.199016	0.075915	-0.157111	153.595633	-78.997552	-178.259322
08366		9.802556	0.619110	-1.554184	0.205380	0.088905	-0.168313	153.166471	-78.999366	-177.700473
08367		9.701200	0.608726	-1.453301	0.188571	0.085658	-0.176593	152.710000	-78.996766	-177.123639
08368		9.582255	0.659723	-1.471355	0.215962	0.065916	-0.175440	152.299889	-78.983380	-176.578006
08369		9.717083	0.938525	-1.360170	0.244034	0.045354	-0.154883	151.988536	-78.964661	-176.116598
08370		9.776572	1.125238	-1.171580	0.191556	0.020823	-0.127353	151.753939	-78.940327	-175.763971
08371		9.824281	1.003118	-1.312013	0.084016	0.004039	-0.100270	151.551771	-78.914888	-175.507171
08372		9.649410	0.830645	-1.534967	0.039338	0.007376	-0.085949	151.357434	-78.894631	-175.284390
08373		9.708307	0.754842	-1.580847	0.016863	-0.000280	-0.068921	151.204827	-78.875340	-175.117275
08374		9.689049	0.667979	-1.841252	0.036194	0.015165	-0.043840	151.106374	-78.870408	-174.994024
08375		9.700003	0.703210	-1.844910	0.054497	0.025831	-0.032979	151.030768	-78.874056	-174.883403
08376		9.629033	0.790521	-2.024765	0.084257	0.046347	-0.025580	150.962304	-78.889756	-174.762654
08377		9.500829	0.946856	-1.898192	0.131971	0.043930	-0.031420	150.909177	-78.902844	-174.629712
08378		9.400794	1.206675	-1.976726	0.171600	0.035633	-0.033284	150.885902	-78.910994	-174.504027
08379		9.327243	1.473372	-1.745979	0.113000	0.013691	-0.033505	150.859370	-78.908320	-174.409267
08380		9.405101	1.372923	-1.980887	0.014948	-0.010616	-0.041568	150.791085	-78.890989	-174.329177
08381		9.488530	1.329609	-1.876401	0.020755	0.008442	-0.044946	150.690225	-78.882423	-174.212521
08382		9.530360	1.124067	-1.947389	-0.034852	0.001442	-0.058290	150.534230	-78.866353	-174.072114
08383		9.563104	0.853632	-2.210635	-0.021214	0.018594	-0.068597	150.335361	-78.856022	-173.880064
08384		9.658620	0.828924	-2.208002	0.036757	0.034385	-0.079588	150.119894	-78.850095	-173.637214
08385		9.504955	0.802176	-2.373952	0.076163	0.054844	-0.080821	149.893988	-78.853955	-173.360733
08386		9.432811	0.852377	-2.245812	0.135042	0.055884	-0.078073	149.707346	-78.858760	-173.089868
08387		9.365854	0.820355	-2.254505	0.154573	0.051443	-0.057360	149.589998	-78.867373	-172.878247
08388		9.410729	0.786743	-2.154737	0.196242	0.043169	-0.047175	149.534315	-78.874647	-172.705129
08389		9.486540	0.825299	-2.098281	0.262214	0.052199	-0.025494	149.557243	-78.892794	-172.573625
08390		9.548536	0.914493	-1.973231	0.326978	0.063575	-0.004222	149.654021	-78.922630	-172.479560
08391		9.621560	0.992967	-1.978849	0.342041	0.071383	0.012096	149.789149	-78.961191	-172.415800
08392		9.726917	1.094346	-1.892469	0.340358	0.072050	0.034654	149.980147	-79.006492	-172.409937
08393		9.709319	1.137075	-1.935891	0.306027	0.067136	0.051186	150.201844	-79.054175	-172.455394
08394		9.658744	1.172571	-1.972319	0.273709	0.075230	0.064815	150.429522	-79.109624	-172.525780
08395		9.479182	1.274993	-1.878806	0.263684	0.077673	0.081641	150.693196	-79.171051	-172.638664
08396		9.455021	1.418613	-1.689461	0.216054	0.065658	0.092358	150.977498	-79.229278	-172.800296
08397		9.436504	1.412037	-1.784370	0.156967	0.060857	0.109372	151.282302	-79.289708	-173.017231
08398		9.335922	1.467950	-1.699272	0.134975	0.072689	0.122675	151.596007	-79.359455	-173.255992
08399		9.305963	1.514746	-1.538726	0.073542	0.053056	0.143635	151.962929	-79.424749	-173.584655
08400		9.239091	1.575227	-1.461254	0.022518	0.038862	0.168697	152.393934	-79.489086	-174.008166
08401		9.227108	1.591379	-1.417030	-0.081480	0.009761	0.185063	152.856489	-79.542352	-174.524292
08402		9.355706	1.388784	-1.483744	-0.179262	-0.015154	0.193899	153.327690	-79.584382	-175.106086
08403		9.459896	1.280204	-1.588921	-0.225166	-0.018428	0.194692	153.782966	-79.624102	-175.698363
08404		9.456296	1.240586	-1.726937	-0.227613	-0.001135	0.184310	154.188378	-79.669292	-176.241285
08405		9.389021	1.213342	-1.637327	-0.277333	0.002438	0.171022	154.526002	-79.712406	-176.744146
08406		9.418787	1.068089	-1.607143	-0.312183	-0.003090	0.153151	154.803902	-79.747784	-177.206580
08407		9.497331	0.963171	-1.476047	-0.325941	-0.003678	0.139523	155.037209	-79.779182	-177.631700
08408		9.569438	0.794262	-1.610347	-0.357711	-0.001150	0.116634	155.185385	-79.806120	-177.988737
08409		9.085059	0.515111	-1.316447	-0.289357	-0.003528	0.034759	155.139079	-79.812060	-178.108416
08410		9.822429	1.074376	-0.997598	-0.323007	-0.135639	-0.001110	155.146841	-79.740687	-178.302589
08411		10.285422	0.826475	-2.022980	-0.304429	-0.026620	0.038198	155.131579	-79.735471	-178.462533
08412		9.772808	0.659550	-1.779336	-0.029948	0.077328	0.042233	155.147726	-79.785254	-178.494608
08413		9.825903	0.994030	-1.315411	0.013311	0.042399	0.048757	155.253823	-79.818432	-178.592753
08414		9.744880	0.811047	-1.334861	0.003571	0.043175	0.028721	155.296490	-79.847188	-178.632252
08415		9.844113	0.829404	-1.538017	0.043221	0.041067	0.042290	155.403684	-79.878097	-178.714317
08416		9.684807	0.910642	-1.370454	0.098105	0.061849	0.020439	155.452008	-79.914592	-178.704537
08417		9.790140	1.032077	-1.182662	-0.001802	0.029054	0.028395	155.509667	-79.935905	-178.762652
08418		9.702861	0.788096	-1.468303	-0.044371	0.038344	0.031224	155.539866	-79.962705	-178.817372
08419		9.495500	0.828569	-1.215627	-0.045651	0.052302	0.033601	155.556906	-79.997370	-178.859566
08420		9.771538	0.833650	-1.346591	-0.127368	0.030007	0.052521	155.614347	-80.024854	-178.990222
08421		9.563609	0.690335	-1.619567	-0.091611	0.083424	0.057145	155.633650	-80.081323	-179.061266
08422		9.393911	0.840479	-1.167381	-0.118797	0.049884	0.084878	155.767543	-80.126771	-179.264506
08423		9.520973	0.680908	-1.471439	-0.236019	0.006372	0.108335	155.964005	-80.154894	-179.599401
08424		9.645909	0.576236	-1.553078	-0.216586	0.007299	0.146032	156.287250	-80.191952	179.948367
08425		9.725299	0.470851	-1.498581	-0.208165	-0.003673	0.151691	156.648969	-80.224112	179.462086
08426		9.798841	0.411815	-1.621328	-0.246472	-0.007696	0.178706	157.080753	-80.259626	178.882441
08427		9.774444	0.273074	-1.762520	-0.232008	0.005180	0.186768	157.532031	-80.303018	178.291417
08428		9.771082	0.335857	-1.623844	-0.222918	0.011794	0.219389	158.087860	-80.356050	177.599780
08429		9.702585	0.178237	-1.726467	-0.215773	0.019577	0.233204	158.687861	-80.415011	176.867668
08430		9.657882	0.120900	-1.712396	-0.216340	0.033474	0.261141	159.369150	-80.485721	176.052876
08431		9.558714	0.037250	-1.628799	-0.230978	0.035396	0.265032	160.062668	-80.556658	175.217418
08432		9.664004	-0.094753	-1.721597	-0.234189	0.022237	0.277176	160.821289	-80.621022	174.314203
08433		9.731315	-0.193371	-1.797323	-0.161113	0.023268	0.294539	161.689072	-80.687098	173.342857
08434		9.667237	-0.222958	-1.855061	-0.060908	0.035937	0.302684	162.641997	-80.758940	172.343708
08435		9.753280	-0.062776	-1.722497	-0.019348	0.048334	0.338645	163.743645	-80.840694	171.218220
08436		9.587850	-0.291685	-1.703350	0.050164	0.044038	0.362385	164.991398	-80.919983	169.985368
08437		9.454000	-0.273610	-1.422111	0.102641	0.034389	0.396704	166.419141	-80.994240	168.600971
08438		9.591252	-0.182001	-1.538969	0.080782	0.026980	0.459317	168.085722	-81.066319	166.962382
08439		9.619689	-0.367515	-1.759171	0.071544	0.052897	0.492008	169.873819	-81.148880	165.195790
08440		9.701605	-0.376420	-1.369709	0.055462	0.050879	0.515013	171.769852	-81.223525	163.311026
08441		9.767620	-0.588125	-1.866955	0.037905	0.043200	0.552597	173.829026	-81.286552	161.251366
08442		9.542980	-0.565476	-1.971269	0.150934	0.076366	0.568890	176.032603	-81.357589	159.111519
08443		9.294644	-0.312766	-1.499286	0.187697	0.066720	0.572419	178.304951	-81.410580	156.923768
08444		9.253821	-0.337707	-1.404692	0.099571	0.009938	0.590628	-179.382475	-81.417942	154.644450
08445		9.314578	-0.552472	-1.617977	0.106546	0.004560	0.629217	-176.920003	-81.407356	152.217561
08446		9.429205	-0.562878	-1.425031	0.181124	0.024895	0.662068	-174.294651	-81.390845	149.669077
08447		9.432317	-0.539544	-0.957040	0.138054	0.007514	0.687086	-171.624525	-81.345115	147.050132
08448		9.686401	-0.852390	-1.369618	0.049564	0.008886	0.700776	-168.987594	-81.280675	144.413099
08449		9.571227	-0.890273	-1.377524	0.099574	0.060954	0.716781	-166.262016	-81.224864	141.714937
08450		9.376742	-0.817165	-1.306219	0.034446	0.049197	0.717537	-163.624010	-81.143287	139.067139
08451		9.342435	-0.855747	-1.456813	0.026307	0.036548	0.706297	-161.096777	-81.038548	136.526067
08452		9.123285	-0.774180	-1.341439	0.019879	0.014207	0.690216	-158.720033	-80.908219	134.132826
08453		9.193378	-0.738816	-1.591363	0.021988	-0.021722	0.654364	-156.578505	-80.751945	131.978101
08454		9.397203	-0.573835	-1.473524	0.086114	-0.020682	0.627554	-154.557671	-80.590229	129.981955
08455		9.542995	-0.407331	-1.302689	0.109572	-0.032672	0.595755	-152.707177	-80.419579	128.171172
08456		9.630296	-0.337738	-1.087675	0.126950	-0.059778	0.566413	-151.042613	-80.234121	126.558160
08457		9.659220	-0.144923	-0.716303	0.083040	-0.101803	0.516518	-149.674124	-80.034743	125.219189
08458		9.720416	-0.044430	-0.478409	-0.002239	-0.170704	0.457172	-148.684901	-79.814242	124.214940
08459		9.878659	-0.069388	-0.585866	-0.104074	-0.233638	0.377069	-148.111037	-79.584723	123.572840
08460		10.051996	-0.268993	-0.889826	-0.144817	-0.250946	0.286199	-147.849803	-79.373561	123.224518
08461		10.185387	-0.464329	-1.115061	-0.086928	-0.221029	0.187269	-147.769603	-79.206970	123.093983
08462		10.169505	-0.562151	-1.198741	-0.001177	-0.162932	0.092463	-147.790244	-79.097433	123.116088
08463		10.052135	-0.563367	-0.989437	0.125585	-0.118471	0.005516	-147.885026	-79.036060	123.287687
08464		9.979677	-0.538106	-0.642375	0.230305	-0.109791	-0.066541	-148.085643	-79.000623	123.628237
08465		9.949933	-0.472481	-0.536049	0.299337	-0.128522	-0.119496	-148.405864	-78.971857	124.130975
08466		10.008189	-0.309420	-0.527235	0.341593	-0.137484	-0.145025	-148.777992	-78.945627	124.711306
08467		10.126389	-0.182744	-0.659712	0.321399	-0.161586	-0.192379	-149.313966	-78.920806	125.446859
08468		10.451083	-0.166396	-0.898128	0.289456	-0.155124	-0.271388	-150.056530	-78.920280	126.374297
08469		10.827828	0.058396	-1.405939	0.310676	-0.084144	-0.380879	-150.966126	-78.983697	127.484222
08470		10.852781	0.484871	-1.723749	0.371806	0.010567	-0.499185	-152.031127	-79.123250	128.787709
08471		10.440503	1.048604	-1.296981	0.273952	0.076182	-0.603182	-153.375057	-79.318576	130.317341
08472		10.211686	1.022660	-1.353330	-0.002519	0.070429	-0.695695	-155.198582	-79.525693	132.172686
08473		9.990513	0.811174	-1.564019	-0.159205	0.068736	-0.773052	-157.412568	-79.737929	134.332464
08474		9.782420	0.640206	-1.276216	-0.290730	0.044130	-0.829846	-159.990292	-79.932113	136.783815
08475		9.607601	0.192833	-1.332068	-0.379527	0.012229	-0.868562	-162.865919	-80.095570	139.484643
08476		9.497842	-0.217124	-1.364890	-0.320378	-0.008319	-0.911563	-165.948366	-80.229424	142.428534
08477		9.408397	-0.385967	-1.541917	-0.216408	-0.027734	-0.941950	-169.159471	-80.328682	145.562369
08478		9.372137	-0.512756	-1.992267	-0.041670	-0.013990	-0.956292	-172.366564	-80.406932	148.792847
08479		9.301163	-0.432757	-2.020095	0.148030	0.012892	-0.962736	-175.523336	-80.471063	152.081840
08480		9.319401	-0.315303	-2.022698	0.204036	0.038865	-0.970822	-178.705676	-80.519697	155.428746
08481		9.159278	-0.263029	-1.968004	0.240343	0.077091	-0.975150	178.088999	-80.559607	158.819610
08482		9.119235	-0.107897	-1.787140	0.198769	0.069000	-0.979960	174.830441	-80.562983	162.240078
08483		9.086420	-0.033911	-1.513737	0.129324	0.065208	-0.963462	171.597562	-80.533756	165.594300
08484		9.169223	0.042453	-1.276592	0.066386	0.067533	-0.946575	168.416018	-80.476546	168.860342
08485		9.179260	0.110354	-1.140621	-0.003800	0.064808	-0.924076	165.317182	-80.391500	172.002400
08486		9.355608	0.072068	-1.224519	-0.042476	0.060388	-0.892238	162.367301	-80.281491	174.971799
08487		9.534322	0.143759	-1.221158	-0.011239	0.047261	-0.869608	159.592275	-80.144019	177.783007
08488		9.547954	0.329183	-1.331240	0.026131	0.072365	-0.839382	156.981212	-80.003856	-179.549298
08489		9.544940	0.368600	-1.636934	0.091741	0.069383	-0.800529	154.600258	-79.851542	-177.075957
08490		9.481709	0.437375	-1.765398	0.136987	0.038581	-0.748417	152.512482	-79.679821	-174.872910
08491		9.465217	0.401348	-1.835386	0.071427	0.002812	-0.661706	150.746668	-79.500767	-173.034198
08492		9.470783	0.171649	-1.976108	-0.023300	-0.056358	-0.551750	149.369276	-79.314607	-171.644743
08493		9.590329	-0.156135	-2.001044	-0.119267	-0.120933	-0.407810	148.450754	-79.134411	-170.777554
08494		9.798569	-0.490890	-1.947706	-0.205654	-0.172321	-0.227882	148.041714	-78.981442	-170.479178
08495		10.018032	-0.785836	-1.880402	-0.265714	-0.195175	-0.048892	148.083438	-78.871574	-170.675082
08496		10.074350	-0.825996	-1.821297	-0.233773	-0.200980	0.112550	148.548243	-78.807149	-171.283595
08497		9.952139	-0.675132	-1.640542	-0.157980	-0.209936	0.246119	149.393841	-78.776612	-172.236166
08498		9.879912	-0.234171	-1.633069	-0.064993	-0.212630	0.342539	150.533698	-78.769007	-173.434449
08499		9.827093	0.286110	-1.725025	-0.021897	-0.226347	0.397152	151.853365	-78.764801	-174.790938
08500		9.724020	0.714763	-1.897332	-0.047024	-0.217613	0.410975	153.181397	-78.762373	-176.170615
08501		9.562420	0.906563	-1.970552	-0.117400	-0.201512	0.388506	154.389238	-78.756802	-177.468913
08502		9.694013	1.115022	-1.837436	-0.110417	-0.171541	0.327969	155.404953	-78.746940	-178.567246
08503		9.739066	0.837829	-1.932953	-0.177802	-0.138385	0.251537	156.140149	-78.733367	-179.418996
08504		9.566430	0.861313	-1.625885	-0.141336	-0.112040	0.168727	156.645910	-78.712616	179.984490
08505		9.571539	0.725251	-1.709884	-0.144777	-0.113823	0.089649	156.940981	-78.672464	179.600732
08506		9.502455	0.958647	-1.759597	-0.048963	-0.091923	0.053920	157.170496	-78.635337	179.339806
08507		9.612135	0.914102	-1.784931	-0.045512	-0.079578	0.028734	157.320719	-78.599184	179.161718
08508		9.419985	0.841728	-2.150076	0.042247	-0.045611	0.020286	157.461235	-78.578845	179.044840
08509		9.304551	1.130867	-1.874523	0.083554	-0.061075	0.020300	157.641522	-78.550448	178.911499
08510		9.381473	1.006978	-1.783581	-0.011315	-0.087940	0.026773	157.812405	-78.508939	178.732296
08511		9.647518	0.788457	-1.967076	-0.073876	-0.088056	0.040391	157.981656	-78.470382	178.518134
08512		9.699122	0.651773	-2.001218	-0.097585	-0.100660	0.048777	158.171134	-78.426603	178.269449
08513		9.712730	0.724625	-1.963117	-0.085794	-0.091559	0.073881	158.421316	-78.392975	177.965630
08514		9.763693	0.755850	-1.869362	-0.157696	-0.082262	0.081844	158.640142	-78.365546	177.651759
08515		9.460748	0.672040	-1.762815	-0.179808	-0.080556	0.084604	158.850366	-78.339540	177.333674
08516		9.809003	0.974965	-2.059870	-0.119593	-0.083549	0.121290	159.191965	-78.318974	176.916674
08517		9.700973	1.039081	-1.529363	-0.221164	-0.058048	0.125997	159.461464	-78.312752	176.513840
08518		9.881310	0.617419	-2.080394	-0.284520	-0.056810	0.109914	159.651490	-78.303477	176.155094
08519		9.664086	1.056632	-2.079476	-0.030287	-0.029447	0.136731	160.030412	-78.314028	175.752180
08520		9.486322	1.057653	-1.829198	-0.201805	-0.051223	0.144343	160.351971	-78.313645	175.307521
08521		9.033439	1.016231	-1.879919	-0.233647	-0.078581	0.151458	160.698603	-78.299482	174.818606
08522		9.043429	0.866966	-1.703370	-0.342914	-0.132257	0.143275	161.008444	-78.253996	174.303283
08523		9.347139	0.652659	-1.861641	-0.360352	-0.136540	0.151453	161.329885	-78.207283	173.765804
08524		9.369213	0.716870	-1.953861	-0.345043	-0.114946	0.146289	161.625013	-78.170613	173.264102
08525		9.442839	0.571603	-1.968187	-0.354151	-0.117194	0.128655	161.868384	-78.129229	172.809863
08526		9.532970	0.503159	-1.934279	-0.329714	-0.105043	0.107206	162.057962	-78.090152	172.424854
08527		9.660908	0.339612	-1.959898	-0.291857	-0.097977	0.077032	162.183462	-78.049556	172.127433
08528		9.775319	0.276614	-1.974346	-0.207799	-0.075762	0.051681	162.272456	-78.016379	171.916538
08529		9.989555	0.017906	-2.083451	-0.184721	-0.050882	0.006426	162.237268	-77.989013	171.846070
08530		9.766602	-0.103815	-2.362732	-0.001095	-0.009644	-0.023940	162.195669	-77.978685	171.889740
08531		9.765355	0.678190	-2.207980	0.153403	0.005787	-0.014605	162.253842	-77.978566	171.921892
08532		9.336163	0.579884	-1.645918	0.050030	-0.002530	-0.022292	162.239926	-77.972411	171.967209
08533		9.236766	0.313909	-1.955122	0.086296	-0.005599	-0.030782	162.227604	-77.963252	172.032125
08534		9.458489	0.662913	-1.681327	0.136297	-0.034307	-0.034682	162.257555	-77.937593	172.083133
08535		9.467273	0.659978	-2.191737	0.180890	0.004137	-0.023019	162.311461	-77.935117	172.135754
08536		9.445839	0.853429	-1.681600	0.092375	-0.028700	-0.029690	162.324377	-77.913401	172.178453
08537		9.479399	0.561609	-2.208421	0.052826	-0.043931	-0.031414	162.322667	-77.883228	172.212919
08538		9.518468	0.725768	-1.770420	0.034800	-0.054325	-0.029455	162.324124	-77.847565	172.233605
08539		10.010442	0.947692	-2.202613	0.040980	-0.030803	0.009454	162.408676	-77.831656	172.172895
08540		9.616754	1.169529	-1.656967	-0.028741	-0.034032	0.028859	162.504821	-77.817161	172.059473
08541		9.399342	0.656264	-2.023823	-0.183803	-0.017143	0.013211	162.458815	-77.809335	172.000564
08542		9.470373	0.941395	-2.060457	-0.076765	-0.041435	0.020571	162.512136	-77.789354	171.902794
08543		9.410033	1.125535	-1.960207	-0.132016	-0.026724	0.040694	162.572601	-77.780996	171.765302
08544		9.583753	1.054545	-1.879780	-0.193684	-0.035741	0.053143	162.636241	-77.769664	171.588419
08545		9.526283	0.741123	-2.267506	-0.188352	-0.011344	0.046939	162.667734	-77.770724	171.447537
08546		9.469034	0.732838	-2.210800	-0.163859	-0.014787	0.036895	162.690821	-77.768033	171.329631
08547		9.415357	0.676532	-2.095183	-0.157314	-0.028207	0.023408	162.693911	-77.755825	171.236006
08548		9.519333	0.530858	-2.212933	-0.132466	-0.024310	0.021837	162.704331	-77.745350	171.149460
08549		9.583695	0.495122	-2.038491	-0.095943	-0.012933	0.013770	162.706193	-77.739843	171.093069
08550		9.656731	0.478234	-1.967664	-0.046234	-0.005475	0.015913	162.736258	-77.738658	171.036976
08551		9.623972	0.693634	-1.957824	0.048075	0.003355	0.017546	162.817416	-77.742692	170.983880
08552		9.588923	0.877280	-1.902507	0.090722	0.004875	0.027033	162.945964	-77.749016	170.907309
08553		9.512532	0.982225	-1.848432	0.078788	0.003689	0.036302	163.091905	-77.756323	170.805930
08554		9.451940	1.017558	-1.852027	0.047121	-0.000886	0.045580	163.246991	-77.762483	170.676646
08555		9.488567	1.038920	-1.833006	-0.013846	-0.002469	0.057285	163.397855	-77.769746	170.515926
08556		9.459397	0.988184	-1.837694	-0.072224	0.004787	0.071848	163.547227	-77.783158	170.322531
08557		9.447929	1.012189	-1.792076	-0.141714	-0.004008	0.077985	163.678928	-77.792748	170.106472
08558		9.448351	0.963989	-1.976408	-0.200274	-0.004799	0.085562	163.797552	-77.802898	169.869488
08559		9.403852	0.922681	-1.963425	-0.216429	-0.016583	0.084485	163.912674	-77.806407	169.626608
08560		9.507488	0.833885	-2.039886	-0.241738	-0.019874	0.084791	164.016986	-77.807936	169.379968
08561		9.477848	0.777363	-1.973482	-0.277088	-0.037602	0.067675	164.069791	-77.797045	169.165286
08562		9.660025	0.542840	-2.120544	-0.284165	-0.016912	0.051616	164.062914	-77.794895	169.007526
08563		9.597415	0.414308	-2.014635	-0.243940	-0.014229	0.021883	164.000911	-77.789667	168.929732
08564		9.558078	0.310630	-2.102553	-0.245190	0.002497	0.005699	163.885260	-77.790999	168.906107
08565		9.516136	0.238607	-2.103623	-0.218715	0.008202	-0.014164	163.729608	-77.792417	168.938916
08566		9.646180	0.305471	-2.118752	-0.170825	0.015399	-0.022579	163.575049	-77.796308	168.998692
08567		9.689011	0.377620	-2.040787	-0.123476	0.034674	-0.019943	163.439353	-77.811292	169.066911
08568		9.644295	0.354560	-2.097497	-0.094451	0.050263	-0.017912	163.313716	-77.835027	169.141860
08569		9.570762	0.194427	-1.984481	-0.081865	0.043349	-0.021778	163.190044	-77.854403	169.222157
08570		9.593088	0.061747	-2.140011	-0.063062	0.041794	-0.034790	163.045173	-77.870615	169.335164
08571		9.498213	-0.070314	-2.023908	-0.006957	0.044838	-0.057347	162.871950	-77.884750	169.510029
08572		9.605117	-0.068000	-2.028800	0.056703	0.041129	-0.067065	162.713213	-77.894992	169.707389
08573		9.592559	0.145742	-1.854849	0.126799	0.040322	-0.072220	162.581739	-77.903920	169.917919
08574		9.789832	0.162224	-1.924019	0.142347	0.038342	-0.073075	162.458464	-77.911408	170.129183
08575		9.646216	0.393946	-1.838285	0.231364	0.046486	-0.060597	162.411173	-77.925558	170.314876
08576		9.687865	0.533557	-1.791282	0.175926	0.037354	-0.050225	162.365807	-77.936366	170.466126
08577		9.599585	0.630780	-1.873532	0.182628	0.043822	-0.033068	162.362666	-77.953798	170.578100
08578		9.608639	0.692959	-1.787927	0.124564	0.044206	-0.025075	162.346253	-77.972697	170.669638
08579		9.585692	0.638778	-1.849056	0.085540	0.047835	-0.024346	162.306146	-77.993825	170.762516
08580		9.700148	0.496783	-1.921330	0.043645	0.052515	-0.027707	162.229328	-78.016769	170.868395
08581		9.742776	0.303824	-2.032680	0.019055	0.055876	-0.043349	162.094967	-78.038895	171.018667
08582		9.881969	0.158819	-2.079589	0.038005	0.062657	-0.054494	161.936580	-78.062531	171.204601
08583		9.730387	0.047683	-2.121607	0.055431	0.071350	-0.077171	161.721664	-78.086856	171.458481
08584		9.634882	0.067218	-2.137583	0.157219	0.074075	-0.084315	161.543351	-78.111059	171.734550
08585		9.487075	0.127885	-2.115857	0.212939	0.066902	-0.095970	161.372379	-78.129203	172.035701
08586		9.405842	0.207679	-2.182411	0.306815	0.068134	-0.097065	161.250460	-78.147521	172.341688
08587		9.299732	0.692610	-1.733127	0.379191	0.039446	-0.073876	161.254975	-78.154611	172.560828
08588		9.424844	0.872389	-1.841282	0.362605	0.032632	-0.039447	161.344717	-78.164233	172.683189
08589		9.455613	0.987659	-1.696500	0.377152	0.027986	-0.007662	161.529461	-78.177320	172.716980
08590		9.486220	1.187833	-1.731233	0.313637	0.026604	0.017777	161.745112	-78.194141	172.682031
08591		9.528889	1.333944	-1.592351	0.226578	0.020886	0.027400	161.941299	-78.209672	172.615995
08592		9.504628	1.403316	-1.649735	0.122631	0.030611	0.029075	162.074256	-78.230630	172.553731
08593		9.572378	1.418431	-1.735837	0.025265	0.024177	0.019749	162.132673	-78.246546	172.510609
08594		9.565067	1.345508	-1.740958	-0.096313	0.022324	0.004197	162.082318	-78.258584	172.507456
08595		9.530860	1.259667	-1.796248	-0.182818	0.015884	-0.010716	161.948493	-78.264601	172.538918
08596		9.581296	1.122340	-1.750977	-0.204449	0.004997	-0.013246	161.805095	-78.264097	172.567516
08597		9.531383	1.046368	-1.790511	-0.179404	0.004632	-0.009173	161.686737	-78.264235	172.585178
08598		9.559289	1.004447	-1.777057	-0.166827	0.002109	-0.001706	161.597621	-78.264220	172.580350
08599		9.598094	0.832406	-1.730143	-0.139501	-0.004187	0.010029	161.559979	-78.263028	172.538924
08600		9.689277	0.760379	-1.614467	-0.130275	-0.002253	0.018695	161.548986	-78.264342	172.475695
08601		9.730393	0.541839	-1.753544	-0.142085	0.010919	0.028466	161.544913	-78.274714	172.398472
08602		9.640244	0.392091	-1.867828	-0.098419	0.029139	0.028412	161.550300	-78.294853	172.337160
08603		9.468209	0.382873	-1.842151	-0.085570	0.031026	0.021082	161.541864	-78.314820	172.297468
08604		9.427318	0.383622	-1.945896	-0.078969	0.025274	0.020005	161.539871	-78.331334	172.255081
08605		9.469097	0.460286	-1.941903	-0.066065	0.018500	0.032833	161.584752	-78.346620	172.172365
08606		9.536691	0.620462	-1.919867	-0.062548	0.004233	0.058589	161.712632	-78.358636	172.006984
08607		9.574748	0.732335	-1.904884	-0.063079	-0.010596	0.089200	161.934007	-78.368080	171.745825
08608		9.579129	0.826953	-1.810999	-0.079653	-0.022069	0.117672	162.231861	-78.375917	171.396915
08609		9.614591	0.903689	-1.752157	-0.105157	-0.027803	0.140720	162.581261	-78.384347	170.980455
08610		9.678932	0.872002	-1.723127	-0.114580	-0.029383	0.152604	162.959122	-78.393267	170.529458
08611		9.596037	0.854587	-1.865969	-0.122063	-0.035486	0.143429	163.313259	-78.396867	170.098296
08612		9.515275	0.930532	-2.013620	-0.117102	-0.034645	0.119994	163.607422	-78.396483	169.731280
08613		9.355780	1.036922	-2.173552	-0.113829	-0.017656	0.094934	163.822647	-78.401215	169.446750
08614		9.273583	1.160315	-2.132886	-0.123810	-0.015760	0.069766	163.963766	-78.402685	169.232052
08615		9.295111	1.201274	-2.168229	-0.142163	-0.022177	0.045737	164.034291	-78.396855	169.078670
08616		9.309899	1.253511	-2.144910	-0.141943	-0.021291	0.035006	164.075884	-78.389685	168.954963
08617		9.363558	1.352500	-2.074009	-0.145224	-0.027201	0.042849	164.140391	-78.380556	168.805930
08618		9.483256	1.510896	-1.904140	-0.133693	-0.029077	0.062046	164.264824	-78.373248	168.602466
08619		9.619350	1.668947	-1.823415	-0.150506	-0.018937	0.087302	164.438823	-78.375406	168.338555
08620		9.649866	1.747186	-1.628843	-0.199133	-0.007484	0.120726	164.667226	-78.388727	167.990672
08621		9.731271	1.268819	-1.757771	-0.325948	-0.006447	0.112460	164.799559	-78.401225	167.666697
08622		9.501055	1.007326	-2.013620	-0.225260	0.037787	0.107833	164.946646	-78.437266	167.386586
08623		9.414036	1.129664	-1.833244	-0.334138	0.026256	0.091348	164.995060	-78.464450	167.143543
08624		9.506257	0.820609	-1.955312	-0.368977	0.027083	0.082065	164.999444	-78.490623	166.925090
08625		9.480375	0.867083	-1.959250	-0.386976	0.022724	0.073778	164.973407	-78.513227	166.727173
08626		9.471990	0.796799	-1.965600	-0.413690	0.014383	0.061226	164.905414	-78.529315	166.556467
08627		9.532360	0.687252	-1.929933	-0.382924	0.008577	0.034844	164.786226	-78.538354	166.455991
08628		9.525668	0.568587	-1.881296	-0.326657	0.011566	0.012566	164.637507	-78.545669	166.418544
08629		9.664646	0.385345	-1.951239	-0.301082	0.004862	-0.006994	164.453836	-78.546373	166.431709
08630		9.766938	0.107791	-2.013457	-0.296518	0.037338	-0.028860	164.189604	-78.561541	166.529742
08631		9.818414	-0.243066	-2.122121	-0.307232	0.051625	-0.062982	163.813367	-78.579135	166.735771
08632		9.747602	-0.644608	-2.349203	-0.246237	0.077386	-0.097111	163.358621	-78.605012	167.057533
08633		9.640551	-0.598974	-2.246534	-0.123951	0.096733	-0.135921	162.849376	-78.634548	167.506321
08634		9.638120	-0.490966	-2.278823	-0.062484	0.098730	-0.159022	162.309306	-78.660351	168.022430
08635		9.501453	-0.346543	-2.239168	0.010495	0.097984	-0.157682	161.812281	-78.685111	168.537228
08636		9.513423	-0.066133	-2.057762	0.036154	0.073030	-0.137522	161.406255	-78.699104	168.974193
08637		9.472081	-0.073612	-2.013710	0.007104	0.065061	-0.100859	161.088923	-78.715026	169.303743
08638		9.553676	-0.087889	-1.895171	-0.025652	0.056223	-0.063296	160.862882	-78.732831	169.521022
08639		9.542513	-0.259038	-1.831517	-0.040130	0.051949	-0.026480	160.731551	-78.755171	169.633271
08640		9.508172	-0.217371	-1.704225	-0.028883	0.046263	0.000386	160.685300	-78.779445	169.665329
08641		9.624312	-0.279493	-1.710376	-0.042532	0.032183	0.013636	160.680411	-78.798670	169.647227
08642		9.632628	-0.079115	-1.678343	-0.016895	0.029204	0.030987	160.740881	-78.819511	169.577493
08643		9.704130	0.098481	-1.616765	-0.037166	0.019047	0.037259	160.816708	-78.836092	169.480246
08644		9.649368	0.124383	-1.776008	-0.052625	0.018385	0.031328	160.868417	-78.851110	169.398584
08645		9.633603	0.260430	-1.740789	-0.062982	0.013691	0.017930	160.881907	-78.861140	169.349837
08646		9.644288	0.215385	-1.813793	-0.081017	0.015362	-0.002774	160.826629	-78.868110	169.360640
08647		9.536082	0.201777	-1.832515	-0.057061	0.035126	-0.024487	160.706306	-78.881754	169.451715
08648		9.545426	0.010644	-1.948074	0.005063	0.043287	-0.052356	160.536707	-78.894383	169.629285
08649		9.633246	-0.077518	-2.033315	0.130175	0.068348	-0.083717	160.327561	-78.914495	169.920203
08650		9.649272	-0.020183	-1.999464	0.234662	0.083934	-0.110135	160.088995	-78.937581	170.302073
08651		9.709700	0.069581	-2.073644	0.321839	0.098397	-0.136295	159.812592	-78.963069	170.773326
08652		9.731804	0.180327	-2.053657	0.382206	0.098386	-0.153864	159.520457	-78.984519	171.295836
08653		9.697186	0.299946	-1.951571	0.409899	0.097015	-0.162143	159.221598	-79.003130	171.841336
08654		9.640521	0.375673	-1.817561	0.391015	0.092835	-0.162571	158.913462	-79.018781	172.385222
08655		9.592575	0.385410	-1.786079	0.371017	0.092911	-0.155132	158.613460	-79.035549	172.909102
08656		9.550917	0.304249	-1.711758	0.350347	0.089259	-0.151064	158.315160	-79.050623	173.419177
08657		9.507297	0.203414	-1.665272	0.338835	0.084014	-0.150972	158.015723	-79.062510	173.923619
08658		9.474953	0.206076	-1.651652	0.341789	0.078871	-0.146668	157.734293	-79.072021	174.411476
08659		9.507029	0.279331	-1.609955	0.334417	0.067712	-0.128553	157.510911	-79.079260	174.835897
08660		9.654120	0.432095	-1.636598	0.336605	0.069726	-0.102374	157.357266	-79.092959	175.190558
08661		9.747169	0.703361	-1.557000	0.343980	0.069490	-0.058780	157.327735	-79.116153	175.423095
08662		9.750210	0.884742	-1.559530	0.300217	0.064650	-0.019854	157.384767	-79.145279	175.541949
08663		9.634388	0.952170	-1.450823	0.250907	0.048114	0.004688	157.500811	-79.171194	175.571926
08664		9.612494	1.055388	-1.377554	0.196174	0.027025	0.023504	157.661461	-79.189954	175.524575
08665		9.602727	1.108794	-1.378192	0.118098	0.004018	0.045741	157.866173	-79.201421	175.386803
08666		9.622438	1.159124	-1.142103	0.029463	-0.028493	0.052704	158.075891	-79.196908	175.192262
08667		9.654898	1.046259	-1.347471	-0.037733	-0.029053	0.060784	158.270461	-79.193812	174.973918
08668		9.654159	1.214276	-1.113439	-0.047500	-0.044289	0.070327	158.502339	-79.184340	174.711917
08669		9.619243	1.181398	-1.138103	-0.096968	-0.051530	0.078624	158.736732	-79.172670	174.418471
08670		9.566645	1.135347	-1.172933	-0.100231	-0.044309	0.077433	158.957356	-79.164261	174.137148
08671		9.606179	1.196910	-1.100416	-0.092516	-0.052441	0.076756	159.188870	-79.151297	173.849203
08672		9.624064	1.111961	-1.262615	-0.072547	-0.046101	0.074546	159.418240	-79.140923	173.575106
08673		9.596965	1.080908	-1.245299	-0.027352	-0.032824	0.068536	159.642419	-79.136421	173.332636
08674		9.632310	1.090852	-1.327421	-0.001631	-0.031671	0.056517	159.846274	-79.129830	173.125881
08675		9.762114	1.148092	-1.343573	0.007594	-0.032910	0.047280	160.030426	-79.120788	172.944542
08676		9.814506	1.162549	-1.515403	-0.003173	-0.027362	0.031356	160.157990	-79.111372	172.814564
08677		9.745492	1.128500	-1.532150	-0.020919	-0.027341	0.017238	160.235387	-79.099351	172.725283
08678		9.707823	1.010877	-1.551788	-0.072630	-0.031590	0.000067	160.239441	-79.081532	172.680548
08679		9.614389	0.906474	-1.661188	-0.107149	-0.026072	-0.020546	160.160287	-79.062862	172.700406
08680		9.564619	0.761481	-1.677117	-0.130694	-0.033553	-0.037785	160.027720	-79.036623	172.760935
08681		9.683763	0.666832	-1.699927	-0.140926	-0.042144	-0.047217	159.871973	-79.004047	172.839080
08682		9.708213	0.526694	-1.789294	-0.122236	-0.032656	-0.051296	159.707051	-78.975555	172.937520
08683		9.658196	0.454736	-1.836897	-0.078095	-0.022884	-0.056741	159.542736	-78.951341	173.061076
08684		9.567470	0.385386	-1.818658	-0.025071	-0.017621	-0.063622	159.385470	-78.928332	173.208456
08685		9.533475	0.385822	-1.813873	0.015116	-0.023483	-0.063622	159.257605	-78.902279	173.349314
08686		9.478249	0.341113	-1.775352	0.056025	-0.025535	-0.060344	159.165135	-78.875573	173.478038
08687		9.507598	0.400853	-1.670671	0.091924	-0.025299	-0.057990	159.099643	-78.849609	173.600223
08688		9.547837	0.482340	-1.669567	0.119785	-0.022227	-0.055257	159.054984	-78.825656	173.717474
08689		9.518575	0.601807	-1.713566	0.154103	-0.018136	-0.056155	159.023447	-78.803866	173.841380
08690		9.491252	0.741516	-1.730108	0.165105	-0.015607	-0.058816	158.988905	-78.782696	173.974806
08691		9.403925	0.861072	-1.619770	0.145220	-0.025185	-0.057897	158.955475	-78.756754	174.095400
08692		9.392548	0.923703	-1.624041	0.094198	-0.038978	-0.062722	158.894794	-78.722248	174.214079
08693		9.406817	0.921218	-1.646393	0.034739	-0.058044	-0.065079	158.813834	-78.677209	174.318798
08694		9.542682	0.910683	-1.693498	-0.004612	-0.065902	-0.063993	158.722379	-78.627996	174.411157
08695		9.618369	0.868842	-1.885332	-0.012936	-0.054439	-0.057903	158.630872	-78.586317	174.498651
08696		9.650216	0.880522	-1.897022	-0.008348	-0.046907	-0.058040	158.534808	-78.548423	174.593556
08697		9.579296	0.762693	-1.911242	-0.049789	-0.047563	-0.054865	158.424344	-78.510979	174.678965
08698		9.578297	0.607460	-1.880582	-0.085699	-0.053896	-0.056081	158.297699	-78.469704	174.759878
08699		9.501249	0.428781	-1.978649	-0.092387	-0.068137	-0.059937	158.172426	-78.420162	174.835401
08700		9.544719	0.393728	-1.891531	-0.073961	-0.067400	-0.060539	158.056537	-78.370687	174.912225
08701		9.548387	0.370769	-1.983805	-0.041888	-0.062389	-0.053053	157.973582	-78.325614	174.974233
08702		9.546413	0.285283	-1.985807	-0.007622	-0.054569	-0.058012	157.890208	-78.283447	175.056694
08703		9.615364	0.252470	-1.945931	0.048065	-0.044564	-0.056709	157.832051	-78.247008	175.146061
08704		9.695681	0.341756	-2.085046	0.109046	-0.035136	-0.050177	157.816195	-78.216815	175.227856
08705		9.652901	0.416987	-2.054078	0.157804	-0.028324	-0.044146	157.836704	-78.191696	175.301124
08706		9.650265	0.568769	-2.020337	0.180843	-0.031211	-0.027734	157.915090	-78.168443	175.328679
08707		9.561435	0.672627	-2.010702	0.184282	-0.028887	-0.015007	158.025120	-78.149329	175.326021
08708		9.469809	0.745364	-1.956846	0.160770	-0.045400	-0.011979	158.146012	-78.121924	175.298395
08709		9.492518	0.647318	-1.933963	0.113314	-0.049427	-0.017169	158.230364	-78.091415	175.280390
08710		9.471820	0.531532	-2.045044	0.100608	-0.049045	-0.032702	158.267718	-78.057654	175.302907
08711		9.437396	0.527303	-2.042944	0.111248	-0.046603	-0.051895	158.260584	-78.021269	175.377183
08712		9.434299	0.600616	-2.079858	0.148346	-0.043816	-0.069232	158.228746	-77.982533	175.498407
08713		9.537159	0.673779	-2.124748	0.184876	-0.043623	-0.080117	158.191097	-77.941696	175.647710
08714		9.429309	0.760397	-2.054493	0.210532	-0.037234	-0.091834	158.133229	-77.901607	175.832026
08715		9.474164	0.733903	-2.038454	0.193309	-0.033714	-0.102508	158.036487	-77.861191	176.046230
08716		9.512585	0.727155	-2.035773	0.188866	-0.024137	-0.104121	157.924638	-77.825297	176.273121
08717		9.563575	0.757470	-1.864230	0.153622	-0.025652	-0.108772	157.783834	-77.787613	176.509386
08718		9.630915	0.707918	-1.849671	0.134188	-0.023686	-0.113861	157.618590	-77.749608	176.758920
08719		9.771123	0.644297	-1.762611	0.131716	-0.024188	-0.114975	157.451026	-77.711072	177.009830
08720		9.746929	0.484840	-1.850593	0.124657	-0.016400	-0.127454	157.242649	-77.673595	177.297995
08721		9.681297	0.308553	-1.898125	0.153330	0.000276	-0.135966	157.014752	-77.642934	177.623054
08722		9.634605	0.358251	-1.991677	0.196882	0.020073	-0.152038	156.754108	-77.618651	178.007161
08723		9.541085	0.422095	-1.959713	0.254906	0.033066	-0.155898	156.505244	-77.600102	178.413936
08724		9.526226	0.551615	-1.920502	0.284682	0.027911	-0.148218	156.298063	-77.580118	178.794870
08725		9.513541	0.505290	-1.941389	0.332483	0.032682	-0.140878	156.131821	-77.564217	179.162039
08726		9.501828	0.675342	-1.850186	0.372574	0.027614	-0.129364	156.021628	-77.547994	179.495272
08727		9.555654	0.751699	-1.867853	0.360753	0.019514	-0.117366	155.942468	-77.530373	179.789752
08728		9.595308	0.750602	-1.934736	0.363995	0.013528	-0.106118	155.898326	-77.512021	-179.949654
08729		9.573951	0.801577	-1.907135	0.356963	0.018652	-0.099551	155.860863	-77.498010	-179.700040
08730		9.660576	0.882346	-1.933891	0.327333	0.015724	-0.097517	155.814427	-77.482741	-179.458581
08731		9.551950	0.969042	-1.862949	0.292644	0.020721	-0.092448	155.755291	-77.471405	-179.224738
08732		9.620698	1.030414	-1.826560	0.232990	0.008473	-0.089326	155.682396	-77.454171	-179.011524
08733		9.561045	1.128171	-1.926718	0.214825	0.015070	-0.080386	155.613616	-77.442592	-178.813016
08734		9.646164	1.311497	-1.792204	0.193275	-0.007946	-0.071115	155.578718	-77.421002	-178.662020
08735		9.497466	1.302096	-1.821082	0.168523	-0.004064	-0.062861	155.545225	-77.403537	-178.526986
08736		9.431976	1.314482	-1.782624	0.150614	-0.011532	-0.059601	155.517114	-77.382773	-178.407968
08737		9.541181	1.261507	-1.903848	0.133053	-0.019401	-0.060232	155.486146	-77.357903	-178.296347
08738		9.344607	1.145313	-1.997005	0.118185	-0.001580	-0.064435	155.418215	-77.341139	-178.155541
08739		9.423809	1.127128	-1.983741	0.095437	-0.008846	-0.075696	155.319229	-77.318011	-177.996296
08740		9.468603	1.085751	-2.061944	0.106343	-0.003571	-0.080955	155.209185	-77.296149	-177.819254
08741		9.524973	1.094909	-2.046596	0.103783	-0.000673	-0.086142	155.083116	-77.274611	-177.627289
08742		9.486605	1.026349	-2.118126	0.121973	0.000352	-0.091913	154.953680	-77.251969	-177.421153
08743		9.435405	1.011291	-2.120920	0.151797	0.002169	-0.101329	154.818393	-77.228013	-177.191514
08744		9.434126	1.013136	-2.049635	0.180422	-0.004854	-0.110099	154.687804	-77.198019	-176.949815
08745		9.296646	0.920031	-2.025543	0.196256	0.000692	-0.111483	154.557950	-77.170565	-176.699554
08746		9.332720	0.865151	-1.999015	0.233178	-0.013212	-0.114833	154.457602	-77.134852	-176.457811
08747		9.467512	0.966040	-1.955681	0.271707	-0.006280	-0.103580	154.398065	-77.105558	-176.235302
08748		9.483618	1.128636	-2.055755	0.282333	0.005696	-0.079156	154.387273	-77.088341	-176.056488
08749		9.413944	1.210299	-2.128062	0.280642	-0.000635	-0.061062	154.423261	-77.072464	-175.926665
08750		9.410055	1.300109	-2.143492	0.233015	-0.007588	-0.040264	154.486403	-77.058032	-175.852680
08751		9.423824	1.263918	-2.116152	0.169795	-0.014621	-0.023265	154.559016	-77.044284	-175.825586
08752		9.494801	1.229210	-1.998727	0.101157	-0.020511	-0.018408	154.609573	-77.028576	-175.816203
08753		9.576546	1.093922	-1.999285	0.064435	-0.018516	-0.012447	154.650189	-77.015471	-175.818239
08754		9.513286	0.987601	-1.900291	0.027887	-0.016019	-0.022497	154.644756	-77.001089	-175.794478
08755		9.599069	0.933617	-2.043619	0.060182	-0.028163	-0.030703	154.652220	-76.978508	-175.764972
08756		9.812910	1.287288	-1.982751	0.086248	-0.022617	-0.017717	154.697951	-76.961883	-175.759401
08757		9.315770	1.145685	-2.064711	0.093503	-0.004628	-0.015300	154.734036	-76.955270	-175.739684
08758		9.233863	1.294391	-1.825908	0.080716	-0.047824	-0.007189	154.826539	-76.928152	-175.785380
08759		9.498970	1.097529	-1.945713	-0.005012	-0.069704	-0.014998	154.874955	-76.887868	-175.836299
08760		9.460160	0.415565	-2.538734	0.004206	-0.004951	-0.024735	154.839413	-76.878701	-175.795542
08761		9.330412	1.002358	-1.524586	0.128681	-0.048465	-0.018238	154.934865	-76.848633	-175.816058
08762		9.599723	1.049405	-1.871383	0.055305	-0.064419	0.004272	155.054606	-76.815635	-175.904701
08763		9.617174	0.793224	-2.090481	0.088947	-0.041322	0.015722	155.194573	-76.797456	-175.994378
08764		9.515969	0.876807	-1.913097	0.152473	-0.048353	0.031130	155.412105	-76.779142	-176.126299
08765		9.660774	1.002060	-1.955824	0.195136	-0.050198	0.042978	155.681574	-76.762647	-176.286490
08766		9.587259	0.998291	-1.961248	0.202203	-0.028775	0.035941	155.917769	-76.755435	-176.408328
08767		9.512430	0.971759	-1.990885	0.199477	-0.031167	0.025329	156.130767	-76.744491	-176.507956
08768		9.495793	0.978084	-2.125385	0.227397	-0.023519	0.020575	156.341644	-76.736274	-176.588962
08769		9.479387	1.117301	-2.076859	0.226782	-0.019890	0.025763	156.559848	-76.731183	-176.677891
08770		9.481819	1.159647	-2.104497	0.203006	-0.022690	0.027459	156.770966	-76.724825	-176.773506
08771		9.616414	1.090430	-2.199722	0.180335	-0.008148	0.029612	156.959693	-76.726634	-176.859485
08772		9.490740	1.017253	-2.178543	0.186169	-0.000760	0.017851	157.118718	-76.729555	-176.911490
08773		9.474238	0.858102	-2.150706	0.151695	-0.002309	0.002079	157.223928	-76.728214	-176.928515
08774		9.464224	0.823281	-2.144653	0.142279	-0.004183	-0.013264	157.291364	-76.722389	-176.912255
08775		9.480073	0.811906	-2.089396	0.135249	-0.003050	-0.019409	157.339700	-76.715896	-176.880529
08776		9.465570	0.843468	-2.049701	0.144247	-0.005716	-0.016176	157.403142	-76.708626	-176.859005
08777		9.453577	0.923923	-2.034242	0.136098	-0.010880	-0.013463	157.472545	-76.699313	-176.848433
08778		9.439957	0.979697	-2.044709	0.149688	-0.026405	-0.003789	157.585932	-76.683815	-176.875027
08779		9.369933	1.054169	-2.120927	0.163624	-0.028752	0.008635	157.736847	-76.669850	-176.931994
08780		9.366754	1.001070	-2.101733	0.142378	-0.039438	0.010216	157.888883	-76.650438	-177.002618
08781		9.379184	0.939637	-2.099053	0.117088	-0.038485	0.008286	158.020687	-76.631158	-177.067362
08782		9.488832	0.874055	-2.145203	0.071284	-0.035505	0.006731	158.120094	-76.613017	-177.125769
08783		9.560288	0.843597	-2.100571	0.022001	-0.030693	0.008741	158.190995	-76.597923	-177.183924
08784		9.642530	0.732482	-2.218459	-0.008151	-0.024948	0.013632	158.250547	-76.586832	-177.248154
08785		9.662665	0.656248	-2.196650	0.012650	-0.016450	0.018594	158.325193	-76.581376	-177.315673
08786		9.638146	0.517188	-2.255523	0.022905	-0.007605	0.018266	158.397355	-76.580463	-177.374577
08787		9.539373	0.495255	-2.231510	0.072859	-0.008386	0.019224	158.500751	-76.579393	-177.436183
08788		9.488557	0.583588	-2.077319	0.091371	-0.008870	0.016483	158.609243	-76.577386	-177.492109
08789		9.521334	0.586524	-2.087172	0.079793	-0.012105	0.017436	158.715869	-76.573907	-177.552959
08790		9.560442	0.548004	-2.032089	0.112846	-0.007426	0.015235	158.832565	-76.572363	-177.604669
08791		9.580235	0.607991	-2.049624	0.153524	-0.002408	0.014207	158.965790	-76.573348	-177.649430
08792		9.654933	0.762054	-1.994543	0.184910	-0.002743	0.012655	159.113942	-76.573725	-177.691030
08793		9.650771	0.822930	-1.963811	0.163933	-0.005419	0.011605	159.249893	-76.572521	-177.732465
08794		9.688951	0.783648	-2.054743	0.161939	0.007273	0.007769	159.365428	-76.577232	-177.754064
08795		9.649056	0.790279	-2.062539	0.145841	0.019491	0.004851	159.454789	-76.587994	-177.758255
08796		9.554480	0.702771	-2.141409	0.125908	0.028948	-0.006670	159.498993	-76.601421	-177.727746
08797		9.522083	0.694662	-2.131348	0.123102	0.023725	-0.009278	159.540012	-76.611623	-177.695638
08798		9.471225	0.647652	-2.080756	0.131980	0.015822	-0.016636	159.576285	-76.616019	-177.653403
08799		9.525699	0.740834	-2.081721	0.144394	0.011275	-0.011550	159.634877	-76.619094	-177.626818
08800		9.507102	0.698298	-2.113765	0.148935	0.009592	-0.001124	159.721133	-76.623249	-177.625976
08801		9.476410	0.714437	-2.008244	0.162323	0.008541	0.003067	159.825358	-76.627768	-177.635738
08802		9.559586	0.738631	-2.017960	0.158579	0.002435	0.004057	159.934862	-76.629095	-177.653113
08803		9.561896	0.781366	-2.117260	0.184960	0.006843	0.014741	160.079990	-76.634981	-177.691588
08804		9.480988	0.914310	-1.981836	0.161103	0.002254	0.006832	160.197418	-76.636732	-177.715620
08805		9.487947	0.892763	-2.039619	0.147349	0.003827	0.006557	160.304979	-76.639371	-177.737631
08806		9.372076	0.994910	-1.993194	0.139169	0.004639	0.002428	160.397933	-76.641540	-177.749424
08807		9.434408	1.092029	-2.102664	0.122098	0.002220	0.001879	160.481701	-76.642397	-177.761852
08808		9.347095	1.128330	-2.063755	0.106373	-0.005833	-0.004537	160.548477	-76.637571	-177.766052
08809		9.404320	1.132498	-2.049539	0.070394	-0.006453	-0.010790	160.580717	-76.631316	-177.755964
08810		9.457918	1.085923	-2.155870	0.044023	-0.008251	-0.013466	160.593379	-76.623482	-177.741262
08811		9.429221	1.016510	-2.106675	0.015659	-0.019706	-0.022243	160.578806	-76.607881	-177.715288
08812		9.547655	0.962998	-2.108088	-0.007527	-0.022781	-0.024602	160.548350	-76.590071	-177.686622
08813		9.552360	0.921971	-2.190044	0.005350	-0.011421	-0.019703	160.527075	-76.579423	-177.659832
08814		9.537771	0.958213	-2.151317	0.008262	-0.012108	-0.020875	160.505672	-76.568085	-177.631170
08815		9.508767	0.887502	-2.174574	0.020185	-0.004259	-0.020378	160.485685	-76.561168	-177.596957
08816		9.451092	0.883519	-2.190747	0.028776	-0.000419	-0.020124	160.468432	-76.556281	-177.560475
08817		9.437992	0.803130	-2.229398	0.017987	0.000509	-0.021632	160.440565	-76.551690	-177.519461
08818		9.346483	0.770556	-2.187143	0.011035	0.001587	-0.027882	160.394074	-76.546388	-177.463366
08819		9.331804	0.666606	-2.249565	0.001523	-0.005799	-0.037866	160.325318	-76.535246	-177.389997
08820		9.351479	0.594547	-2.296989	0.019501	-0.002588	-0.046188	160.245957	-76.524124	-177.295111
08821		9.355493	0.673580	-2.226609	0.049152	-0.010631	-0.054917	160.170353	-76.507019	-177.186627
08822		9.454471	0.719293	-2.303017	0.058590	-0.008614	-0.060852	160.085718	-76.489733	-177.063272
08823		9.578432	0.907638	-2.180251	0.083386	-0.009079	-0.054866	160.029065	-76.473404	-176.954094
08824		9.629329	0.957813	-2.158793	0.049834	-0.003867	-0.044020	159.973645	-76.461909	-176.865932
08825		9.627397	0.936070	-2.183159	0.017363	-0.003727	-0.040512	159.907187	-76.451227	-176.785565
08826		9.613963	0.836535	-2.099326	-0.004489	-0.009755	-0.030076	159.856818	-76.439268	-176.734607
08827		9.559782	0.744830	-2.096800	-0.064166	-0.009651	-0.023055	159.787625	-76.428811	-176.699475
08828		9.459357	0.542428	-2.074305	-0.085832	-0.010475	-0.023357	159.706397	-76.417770	-176.664712
08829		9.523885	0.535604	-2.042482	-0.090861	-0.010888	-0.016527	159.637624	-76.407930	-176.645740
08830		9.533303	0.408382	-2.031563	-0.087693	-0.012171	-0.016193	159.572803	-76.397389	-176.628950
08831		9.576406	0.472066	-2.099524	-0.032148	-0.011738	-0.009334	159.554475	-76.388531	-176.627274
08832		9.653469	0.544394	-2.030158	0.000087	-0.019732	-0.004753	159.571604	-76.376216	-176.643054
08833		9.714636	0.482347	-2.119683	-0.003863	-0.002842	-0.003220	159.575719	-76.373364	-176.647792
08834		9.689827	0.644940	-2.165194	0.050308	-0.010594	0.003144	159.631537	-76.367531	-176.673775
08835		9.599723	0.774450	-1.998207	0.036824	-0.009552	0.014976	159.704786	-76.364699	-176.725665
08836		9.500481	0.751140	-2.046958	0.011496	-0.013730	0.028951	159.798035	-76.362282	-176.813049
08837		9.483633	0.875498	-1.881299	-0.001223	-0.028304	0.038942	159.917779	-76.354056	-176.935222
08838		9.512759	0.826199	-2.012852	-0.053794	-0.024038	0.046865	160.021553	-76.349527	-177.071936
08839		9.603206	0.855344	-2.130113	-0.048714	-0.018276	0.055978	160.143584	-76.349921	-177.224470
08840		9.565286	0.887663	-2.042249	-0.052136	-0.013743	0.062147	160.273933	-76.353773	-177.387553
08841		9.504083	0.804183	-2.057377	-0.073306	-0.026918	0.066505	160.412153	-76.351371	-177.571228
08842		9.463763	0.809739	-2.067356	-0.076837	-0.027724	0.062090	160.539290	-76.347482	-177.745573
08843		9.500748	0.745756	-2.109198	-0.090422	-0.032041	0.058030	160.652689	-76.340511	-177.913841
08844		9.444570	0.762714	-2.103073	-0.097277	-0.028364	0.038442	160.715785	-76.331645	-178.034341
08845		9.455075	0.677476	-2.192685	-0.086568	-0.023439	0.027708	160.757022	-76.323498	-178.126051
08846		9.371743	0.649147	-2.184816	-0.065209	-0.024720	0.018509	160.791154	-76.312797	-178.197839
08847		9.437873	0.684533	-2.253166	-0.023723	-0.018969	0.008580	160.822303	-76.303440	-178.242135
08848		9.513915	0.751752	-2.330054	0.005491	-0.011942	0.003099	160.852727	-76.296738	-178.268417
08849		9.519357	0.849137	-2.308939	0.026283	-0.012006	0.001574	160.891522	-76.289820	-178.291085
08850		9.577418	0.994114	-2.191931	0.015643	-0.014314	0.009633	160.944017	-76.283048	-178.334101
08851		9.534421	0.955162	-2.176107	-0.012096	-0.021686	0.009192	160.985053	-76.272297	-178.381702
08852		9.498842	1.038869	-2.114018	-0.019057	-0.017923	0.021618	161.046892	-76.265787	-178.454807
08853		9.483139	1.046726	-2.098962	-0.074735	-0.018227	0.030957	161.097482	-76.260933	-178.549196
08854		9.454325	0.972943	-2.122469	-0.103202	-0.018517	0.042027	161.156705	-76.257850	-178.669243
08855		9.519248	0.959767	-2.091506	-0.138372	-0.026858	0.052639	161.225311	-76.252273	-178.819731
08856		9.492880	0.933553	-2.140561	-0.159722	-0.023000	0.064581	161.305440	-76.250839	-178.994643
08857		9.515137	0.881364	-2.092141	-0.179582	-0.028031	0.069514	161.388575	-76.247621	-179.184389
08858		9.548119	0.884091	-2.101671	-0.205434	-0.025860	0.086002	161.492122	-76.248413	-179.410376
08859		9.498070	0.858834	-2.101691	-0.230428	-0.034010	0.089851	161.595607	-76.245482	-179.651070
08860		9.549192	0.785272	-2.233443	-0.250949	-0.037957	0.102579	161.718755	-76.242481	-179.924090
08861		9.461492	0.680782	-2.225177	-0.264631	-0.039707	0.101331	161.832181	-76.238273	179.804806
08862		9.503082	0.576584	-2.276618	-0.269676	-0.046150	0.099173	161.942737	-76.229943	179.533693
08863		9.526961	0.457790	-2.336665	-0.252024	-0.042337	0.089376	162.038340	-76.221943	179.288394
08864		9.523635	0.406396	-2.315117	-0.214663	-0.038826	0.079978	162.132051	-76.214000	179.067060
08865		9.538600	0.395197	-2.334023	-0.201388	-0.027960	0.065089	162.192144	-76.209409	178.888013
08866		9.502063	0.453047	-2.294079	-0.160662	-0.022984	0.053198	162.245738	-76.205300	178.739836
08867		9.556322	0.521470	-2.246321	-0.162493	-0.007560	0.046739	162.272749	-76.208563	178.617857
08868		9.465967	0.509964	-2.252615	-0.129875	0.000742	0.049442	162.318816	-76.216703	178.495596
08869		9.506300	0.585761	-2.114188	-0.115786	-0.015892	0.046031	162.377062	-76.215243	178.369174
08870		9.488829	0.568433	-2.122817	-0.101487	-0.010260	0.050380	162.449347	-76.217477	178.236667
08871		9.501353	0.508093	-2.116063	-0.107427	-0.011469	0.044817	162.506554	-76.218162	178.116213
08872		9.467284	0.500905	-2.180896	-0.090084	-0.003805	0.045271	162.569522	-76.222977	178.000029
08873		9.499266	0.593379	-2.131628	-0.065107	-0.012861	0.044378	162.651060	-76.222768	177.879330
08874		9.439530	0.562875	-2.172238	-0.064257	-0.006027	0.039355	162.717252	-76.225288	177.775064
08875		9.462182	0.535121	-2.173443	-0.075024	-0.010790	0.028765	162.756857	-76.223493	177.691803
08876		9.469386	0.517527	-2.157929	-0.078631	-0.005455	0.017547	162.765754	-76.222589	177.638049
08877		9.570752	0.496982	-2.338723	-0.064339	0.006206	0.015070	162.769168	-76.227762	177.598382
08878		9.557188	0.706410	-2.106550	-0.048018	-0.006577	0.008566	162.776344	-76.224718	177.564459
08879		9.466242	0.609663	-2.244664	-0.092026	0.006850	0.012159	162.756965	-76.229752	177.531874
08880		9.436617	0.513556	-2.148279	-0.094105	-0.017027	0.000751	162.727541	-76.219666	177.508449
08881		9.583355	0.530161	-2.200021	-0.086057	-0.006240	0.007281	162.709745	-76.216715	177.477831
08882		9.652188	0.592137	-2.240416	-0.055049	0.003036	0.009047	162.707283	-76.219020	177.449684
08883		9.629667	0.618617	-2.238919	-0.049200	0.001720	0.006589	162.703588	-76.220309	177.426231
08884		9.594482	0.729627	-2.365485	-0.012721	0.007496	0.012413	162.729806	-76.225627	177.393525
08885		9.617430	0.965098	-2.043146	-0.004194	-0.008408	0.012776	162.772727	-76.222421	177.348553
08886		9.593950	0.816971	-2.305961	-0.060221	0.014425	0.007729	162.756501	-76.230729	177.331528
08887		9.420632	0.895077	-2.290881	-0.037766	0.022694	0.001267	162.732930	-76.242584	177.335305
08888		9.345866	0.878364	-2.311954	-0.077968	0.019585	-0.013104	162.656365	-76.250168	177.369933
08889		9.291465	0.813454	-2.358948	-0.077294	0.021270	-0.023494	162.555627	-76.256995	177.429883
08890		9.307159	0.808773	-2.373060	-0.071336	0.022667	-0.028601	162.445917	-76.263566	177.502541
08891		9.344466	0.753230	-2.340197	-0.099350	0.015409	-0.034239	162.312545	-76.265265	177.583014
08892		9.386590	0.685129	-2.438188	-0.095950	0.019535	-0.039275	162.166984	-76.268182	177.678059
08893		9.414575	0.624210	-2.446255	-0.078292	0.018213	-0.043963	162.021914	-76.269595	177.782977
08894		9.436515	0.578548	-2.396933	-0.056029	0.021231	-0.050453	161.872984	-76.271337	177.905035
08895		9.433809	0.535130	-2.371410	-0.025433	0.026041	-0.055549	161.726601	-76.274802	178.042508
08896		9.440228	0.611927	-2.293589	-0.018933	0.026192	-0.057705	161.579026	-76.277785	178.185046
08897		9.400351	0.628773	-2.298057	-0.010237	0.030051	-0.057468	161.433973	-76.282910	178.330108
08898		9.422141	0.696219	-2.236669	0.000995	0.031053	-0.051947	161.306818	-76.289419	178.463374
08899		9.376032	0.726806	-2.183835	-0.015922	0.021767	-0.038761	161.206198	-76.293342	178.559271
08900		9.421518	0.707305	-2.305252	-0.055662	0.017012	-0.039497	161.084741	-76.294419	178.653254
08901		9.438119	0.701277	-2.246979	-0.064395	0.012992	-0.034375	160.972703	-76.294309	178.732436
08902		9.451693	0.673755	-2.287245	-0.100887	0.009374	-0.026811	160.859349	-76.293538	178.791407
08903		9.442553	0.671904	-2.326381	-0.109469	0.010490	-0.016266	160.763606	-76.295412	178.827179
08904		9.494021	0.694118	-2.251635	-0.118264	0.006156	-0.000442	160.701279	-76.297841	178.823380
08905		9.531552	0.636502	-2.220001	-0.143585	0.009727	0.000570	160.623902	-76.302472	178.820160
08906		9.488428	0.489181	-2.287873	-0.123953	0.015086	0.010223	160.574976	-76.311758	178.799212
08907		9.449518	0.499714	-2.220286	-0.104131	0.006625	-0.001443	160.518187	-76.314331	178.798008
08908		9.439870	0.609587	-2.247536	-0.068017	0.008048	-0.002496	160.478573	-76.317392	178.800463
08909		9.448595	0.730885	-2.193274	-0.043915	0.004137	-0.001402	160.458343	-76.318630	178.797150
08910		9.405978	0.804668	-2.091588	-0.048758	0.000581	-0.006441	160.426884	-76.316903	178.802569
08911		9.474169	0.758229	-2.216088	-0.055505	0.001348	-0.016429	160.368895	-76.313746	178.831325
08912		9.465876	0.752244	-2.183121	-0.018037	0.006017	-0.027566	160.303950	-76.310877	178.889325
08913		9.508795	0.794210	-2.197656	-0.011121	0.008458	-0.036233	160.221949	-76.307707	178.968908
08914		9.509703	0.795220	-2.123352	-0.014499	0.013091	-0.040557	160.124707	-76.306087	179.062238
08915		9.558055	0.797436	-2.147120	-0.037628	0.011840	-0.038468	160.019933	-76.304241	179.149612
08916		9.558884	0.688120	-2.158177	-0.054349	0.016551	-0.034579	159.910316	-76.305576	179.232179
08917		9.527986	0.709128	-2.122556	-0.046678	0.016746	-0.028142	159.819206	-76.308330	179.300217
08918		9.500802	0.665420	-2.121947	-0.048269	0.022823	-0.023548	159.732262	-76.315158	179.363031
08919		9.512961	0.613359	-2.187346	-0.027994	0.018774	-0.023013	159.661447	-76.319976	179.421285
08920		9.525077	0.671912	-2.166912	-0.018798	0.018997	-0.027885	159.584831	-76.323844	179.490845
08921		9.517010	0.666178	-2.132893	-0.011520	0.014879	-0.033703	159.503012	-76.324399	179.569905
08922		9.452240	0.683187	-2.162562	-0.003157	0.016863	-0.037638	159.415555	-76.325114	179.659845
08923		9.490719	0.652958	-2.179292	-0.006792	0.013634	-0.044771	159.313096	-76.322709	179.762994
08924		9.482520	0.648510	-2.145483	0.006990	0.018227	-0.051399	159.200026	-76.321287	179.885279
08925		9.456124	0.632646	-2.193399	0.011056	0.015371	-0.057440	159.078593	-76.317125	-179.981225
08926		9.488939	0.644417	-2.200423	0.026674	0.013082	-0.061843	158.958292	-76.310689	-179.839885
08927		9.480606	0.640769	-2.166996	0.029975	0.014545	-0.064224	158.833734	-76.304558	-179.692251
08928		9.445908	0.616459	-2.183035	0.023100	0.012395	-0.066241	158.702589	-76.296695	-179.541850
08929		9.486020	0.611093	-2.174830	0.035184	0.011688	-0.061657	158.589332	-76.289424	-179.402678
08930		9.553334	0.652395	-2.164974	0.053588	0.014407	-0.057981	158.492258	-76.284225	-179.269358
08931		9.516289	0.714021	-2.120596	0.074860	0.013944	-0.058251	158.407492	-76.278767	-179.136376
08932		9.622891	0.717850	-2.056061	0.072035	0.008768	-0.060960	158.319557	-76.269837	-179.001577
08933		9.589901	0.744525	-2.168091	0.098386	0.020056	-0.064038	158.230577	-76.266308	-178.850168
08934		9.531309	0.855279	-2.097008	0.094873	0.021919	-0.065716	158.134131	-76.263260	-178.693131
08935		9.560874	0.819454	-2.154718	0.094149	0.017872	-0.068715	158.034608	-76.257454	-178.533448
08936		9.493010	0.924297	-2.125014	0.107491	0.020222	-0.068806	157.940328	-76.252714	-178.371191
08937		9.467274	0.904850	-2.100659	0.088841	0.009423	-0.069920	157.842786	-76.242038	-178.216717
08938		9.430337	0.858134	-2.215587	0.114509	0.019264	-0.073290	157.743921	-76.235688	-178.045589
08939		9.401024	0.929025	-2.204062	0.121067	0.022160	-0.078024	157.636366	-76.229861	-177.861425
08940		9.408905	0.914564	-2.114349	0.105870	0.018097	-0.081440	157.516253	-76.220958	-177.673506
08941		9.436301	0.830301	-2.149232	0.110266	0.017263	-0.088571	157.384490	-76.210036	-177.470741
08942		9.431208	0.900646	-2.114271	0.131411	0.014231	-0.091448	157.261407	-76.196680	-177.264677
08943		9.481291	0.954284	-2.162208	0.141082	0.013157	-0.093284	157.141394	-76.182340	-177.055978
08944		9.441637	0.994159	-2.144991	0.131751	0.007707	-0.093803	157.020051	-76.164808	-176.851479
08945		9.455954	0.966393	-2.113837	0.127664	0.010776	-0.098420	156.884296	-76.147843	-176.634522
08946		9.503805	0.971215	-2.138954	0.118735	0.009892	-0.092091	156.757980	-76.131628	-176.432553
08947		9.486160	0.961856	-2.147230	0.113500	0.015144	-0.086628	156.636000	-76.119405	-176.238205
08948		9.493873	0.976107	-2.179201	0.100820	0.016754	-0.083514	156.512000	-76.108542	-176.049172
08949		9.437342	0.973062	-2.047992	0.100205	0.017778	-0.075779	156.403447	-76.099995	-175.876635
08950		9.459676	0.954212	-2.121456	0.081152	0.010666	-0.071819	156.299064	-76.088449	-175.719405
08951		9.431776	1.072986	-2.062089	0.099336	0.008210	-0.068110	156.215696	-76.076491	-175.572735
08952		9.485044	1.011273	-2.120967	0.065357	0.004897	-0.064905	156.122684	-76.063401	-175.436529
08953		9.476308	1.007413	-2.088828	0.072944	0.002637	-0.061117	156.044514	-76.050045	-175.310869
08954		9.492652	1.027643	-2.081076	0.059358	0.000889	-0.067817	155.946127	-76.034079	-175.172649
08955		9.529051	0.950906	-2.148178	0.062945	0.004320	-0.066031	155.850732	-76.020340	-175.034491
08956		9.505621	0.980204	-2.074539	0.065306	0.004913	-0.070166	155.747539	-76.005812	-174.887789
08957		9.502240	0.938813	-2.197338	0.045286	0.005539	-0.072081	155.628630	-75.991205	-174.737423
08958		9.502278	0.943587	-2.124057	0.052038	0.005134	-0.072706	155.512863	-75.976049	-174.585577
08959		9.501272	0.924082	-2.075545	0.055564	0.005892	-0.068279	155.408000	-75.962364	-174.442771
08960		9.473625	0.857464	-2.100697	0.051105	0.004193	-0.069132	155.300580	-75.947433	-174.300061
08961		9.450551	0.911788	-2.075773	0.061008	-0.000176	-0.061523	155.219255	-75.932098	-174.178544
08962		9.472562	0.867144	-2.101518	0.072208	0.001174	-0.066592	155.132591	-75.916100	-174.044748
08963		9.495626	0.846702	-2.102483	0.084579	0.002762	-0.068414	155.048229	-75.900529	-173.905624
08964		9.567393	0.824863	-2.127978	0.103796	0.009254	-0.070840	154.963579	-75.887602	-173.755226
08965		9.533702	0.823125	-2.192745	0.131800	0.013937	-0.082167	154.867628	-75.874381	-173.575951
08966		9.510249	0.852756	-2.118784	0.147113	0.017553	-0.087801	154.765282	-75.861501	-173.381694
08967		9.485286	0.858833	-2.142577	0.145597	0.017813	-0.087152	154.663698	-75.848941	-173.189233
08968		9.500826	0.855358	-2.158651	0.157589	0.017309	-0.087745	154.568243	-75.835782	-172.995870
08969		9.508622	0.868069	-2.190803	0.178761	0.022258	-0.087770	154.480570	-75.825209	-172.797934
08970		9.516504	0.880091	-2.222829	0.199871	0.024536	-0.085122	154.408091	-75.816294	-172.603265
08971		9.525699	0.916151	-2.157320	0.217999	0.024816	-0.089224	154.337871	-75.806552	-172.400038
08972		9.484120	0.904298	-2.189308	0.224039	0.022864	-0.084714	154.282061	-75.796762	-172.208263
08973		9.476691	0.948436	-2.181418	0.232114	0.019431	-0.088452	154.227051	-75.784333	-172.012394
08974		9.454569	1.050396	-2.109279	0.234042	0.017830	-0.085982	154.179740	-75.771543	-171.823454
08975		9.446854	1.094554	-2.102308	0.216616	0.015608	-0.082600	154.131912	-75.758510	-171.643825
08976		9.438388	1.114089	-2.119653	0.204200	0.013921	-0.080720	154.082470	-75.744944	-171.470305
08977		9.471709	1.174481	-2.080910	0.180366	0.011508	-0.080613	154.022426	-75.730232	-171.299881
08978		9.421584	1.155384	-2.081554	0.166755	0.004241	-0.087261	153.948357	-75.709947	-171.123063
08979		9.502898	1.214041	-2.141276	0.169670	0.008898	-0.077816	153.890926	-75.694500	-170.961635
08980		9.453665	1.242731	-2.166946	0.170241	0.012932	-0.080153	153.825170	-75.680383	-170.791309
08981		9.500521	1.195543	-2.240248	0.162571	0.012373	-0.081272	153.753768	-75.665774	-170.620093
08982		9.500578	1.247925	-2.266233	0.155841	0.017990	-0.080703	153.674106	-75.654009	-170.443909
08983		9.413230	1.386698	-2.131000	0.162514	0.017606	-0.075921	153.608551	-75.643320	-170.278401
08984		9.419488	1.324908	-2.162427	0.100702	0.010095	-0.073836	153.519331	-75.629142	-170.124944
08985		9.434306	1.272605	-2.152926	0.091654	0.015223	-0.069191	153.429451	-75.618809	-169.975765
08986		9.425393	1.268053	-2.192760	0.079979	0.020356	-0.067210	153.331726	-75.611466	-169.825770
08987		9.423990	1.199576	-2.189884	0.061220	0.015864	-0.065999	153.230382	-75.602158	-169.682805
08988		9.398493	1.155787	-2.187870	0.062341	0.010882	-0.062671	153.141417	-75.591018	-169.552276
08989		9.397959	1.160153	-2.187852	0.061411	0.004754	-0.059036	153.065601	-75.577730	-169.435678
08990		9.454509	1.171876	-2.172474	0.085356	0.003949	-0.054814	153.012758	-75.565007	-169.328817
08991		9.462693	1.209448	-2.109155	0.086206	0.002220	-0.050353	152.971201	-75.552632	-169.233013
08992		9.486762	1.258456	-2.184928	0.079748	-0.000600	-0.045606	152.938233	-75.539947	-169.149983
08993		9.469985	1.247321	-2.120187	0.072151	0.001467	-0.049479	152.891295	-75.527394	-169.057204
08994		9.518454	1.274166	-2.122063	0.057513	-0.003262	-0.040911	152.857769	-75.514549	-168.986746
08995		9.468897	1.252827	-2.121799	0.044681	0.001625	-0.036919	152.819945	-75.505319	-168.919365
08996		9.451672	1.214117	-2.153309	0.030061	-0.000658	-0.041636	152.766799	-75.493586	-168.844880
08997		9.442827	1.185289	-2.144213	0.022777	0.003528	-0.041441	152.705655	-75.484123	-168.766750
08998		9.442392	1.188598	-2.144297	0.024221	0.000605	-0.039321	152.652629	-75.473605	-168.695839
08999		9.458094	1.160197	-2.110963	0.021001	-0.000799	-0.036953	152.604010	-75.463080	-168.631549
09000		9.449009	1.128453	-2.175357	0.016601	-0.005138	-0.035125	152.560862	-75.450718	-168.575347
09001		9.473127	1.131671	-2.151406	0.014879	0.001205	-0.025542	152.529280	-75.444195	-168.532023
09002		9.448133	1.084956	-2.149762	0.027138	0.000224	-0.024590	152.507444	-75.437329	-168.491598
09003		9.448349	1.137121	-2.103047	0.037646	0.000127	-0.024542	152.491857	-75.430505	-168.451203
09004		9.464495	1.132420	-2.046391	0.037344	-0.001910	-0.023326	152.480568	-75.422883	-168.415630
09005		9.464382	1.204452	-2.122620	0.030058	0.002270	-0.023138	152.461257	-75.417520	-168.375926
09006		9.472209	1.212984	-2.155601	0.034727	0.003350	-0.026076	152.437790	-75.411835	-168.329318
09007		9.464095	1.233219	-2.099393	0.033844	0.002442	-0.027823	152.411308	-75.405329	-168.280426
09008		9.455218	1.200612	-2.163418	0.024198	0.000650	-0.034002	152.369179	-75.396157	-168.220764
09009		9.479475	1.229392	-2.116076	0.017760	-0.004842	-0.031864	152.333153	-75.384848	-168.171156
09010		9.446305	1.198864	-2.131454	0.011936	-0.000885	-0.026969	152.299373	-75.376749	-168.127377
09011		9.470241	1.176960	-2.130849	-0.000332	-0.002612	-0.030517	152.253502	-75.366908	-168.078147
09012		9.477794	1.138638	-2.137798	0.000543	-0.004302	-0.026070	152.218531	-75.357301	-168.039881
09013		9.485654	1.102712	-2.071678	-0.000331	-0.005113	-0.022530	152.190694	-75.348327	-168.009676
09014		9.476949	1.095115	-2.112695	0.000536	-0.009495	-0.020677	152.171563	-75.337522	-167.987782
09015		9.452203	1.121391	-2.114408	0.010172	-0.007792	-0.019785	152.157890	-75.327926	-167.966048
09016		9.411280	1.156312	-2.100078	0.010171	-0.007793	-0.019784	152.144319	-75.318220	-167.944194
09017		9.435035	1.155990	-2.150163	0.014826	-0.014592	-0.019922	152.140036	-75.305130	-167.929144
09018		9.410317	1.207271	-2.129017	0.027669	-0.011487	-0.021394	152.137195	-75.293119	-167.908015
09019		9.425933	1.199877	-2.146772	0.013649	-0.020131	-0.017756	152.142206	-75.277820	-167.903578
09020		9.417239	1.194698	-2.115965	0.001382	-0.021871	-0.021298	152.135109	-75.260575	-167.893619
09021		9.440915	1.172102	-2.117183	-0.011160	-0.022850	-0.015747	152.132593	-75.244413	-167.895515
09022		9.456620	1.190179	-2.111744	-0.016403	-0.022713	-0.010481	152.136979	-75.229639	-167.907968
09023		9.456028	1.191359	-2.113729	-0.017274	-0.023523	-0.006941	152.148403	-75.215504	-167.928174
09024		9.480052	1.240575	-2.117529	-0.015490	-0.018914	0.004433	152.178033	-75.206643	-167.966196
09025		9.479785	1.240222	-2.118929	-0.025974	-0.016047	0.012271	152.213702	-75.201418	-168.016420
09026		9.520301	1.231623	-2.112044	-0.038232	-0.020289	0.016722	152.255194	-75.195128	-168.080191
09027		9.503724	1.214262	-2.120965	-0.055160	-0.023026	0.021425	152.298655	-75.188795	-168.155939
09028		9.470740	1.180364	-2.137508	-0.064804	-0.027341	0.023249	152.344445	-75.180639	-168.239908
09029		9.477956	1.136129	-2.219117	-0.073573	-0.025556	0.021437	152.379739	-75.173010	-168.318449
09030		9.420522	1.079536	-2.210291	-0.067767	-0.026916	0.013848	152.405245	-75.162547	-168.383198
09031		9.444271	1.103362	-2.237905	-0.061384	-0.034692	0.009315	152.433325	-75.147034	-168.446852
09032		9.411292	1.121554	-2.208330	-0.041266	-0.033238	-0.000359	152.452970	-75.129580	-168.489837
09033		9.426338	1.136605	-2.276829	-0.025516	-0.033438	-0.005611	152.471654	-75.110736	-168.522430
09034		9.433701	1.122362	-2.262913	-0.029633	-0.033239	-0.012964	152.473751	-75.089937	-168.540365
09035		9.440833	1.083508	-2.272235	-0.035472	-0.026782	-0.016023	152.460134	-75.071726	-168.545748
09036		9.440128	1.038162	-2.248339	-0.027327	-0.024928	-0.025150	152.432082	-75.051921	-168.531116
09037		9.422919	1.024500	-2.257979	-0.005136	-0.024814	-0.027182	152.412776	-75.031734	-168.512126
09038		9.430344	1.011116	-2.243660	0.019694	-0.024670	-0.026570	152.408799	-75.011682	-168.494525
09039		9.438051	1.022653	-2.205840	0.028155	-0.023294	-0.028934	152.403797	-74.991806	-168.470763
09040		9.477592	1.039306	-2.249920	0.031975	-0.022931	-0.023059	152.411832	-74.973568	-168.458311
09041		9.468851	1.081521	-2.245499	0.028785	-0.021656	-0.018088	152.426162	-74.957412	-168.454346
09042		9.419830	1.108554	-2.199526	0.028790	-0.024261	-0.015393	152.448158	-74.940532	-168.458238
09043		9.426671	1.091186	-2.258593	0.038704	-0.023197	-0.018341	152.469157	-74.923526	-168.455268
09044		9.417362	1.155429	-2.304333	0.055346	-0.027684	-0.016479	152.507617	-74.904619	-168.460453
09045		9.465445	1.180128	-2.308590	0.054183	-0.020046	-0.017207	152.536487	-74.889513	-168.456405
09046		9.424273	1.213842	-2.295436	0.058825	-0.016356	-0.022851	152.553791	-74.874681	-168.437613
09047		9.432494	1.249552	-2.233756	0.051240	-0.014231	-0.021422	152.567325	-74.861419	-168.419459
09048		9.432409	1.228069	-2.186152	0.038663	-0.018028	-0.023698	152.573129	-74.845516	-168.400717
09049		9.382251	1.227929	-2.236803	0.029868	-0.024239	-0.027978	152.571891	-74.825435	-168.379922
09050		9.423317	1.250136	-2.134543	0.033371	-0.018102	-0.028979	152.564886	-74.808099	-168.351046
09051		9.421876	1.274867	-2.186652	0.028674	-0.024595	-0.031192	152.557379	-74.786990	-168.324492
09052		9.452770	1.307780	-2.247689	0.030400	-0.020281	-0.035682	152.538362	-74.766773	-168.284926
09053		9.403097	1.285975	-2.248392	0.034480	-0.017966	-0.036312	152.518279	-74.747671	-168.241771
09054		9.434342	1.271311	-2.283042	0.035325	-0.022457	-0.039735	152.496803	-74.725269	-168.196723
09055		9.433467	1.299889	-2.262380	0.025076	-0.028369	-0.043421	152.468403	-74.698991	-168.150572
09056		9.473773	1.273360	-2.207708	0.009028	-0.030329	-0.042202	152.435133	-74.671925	-168.108907
09057		9.505087	1.186856	-2.239737	-0.012287	-0.024375	-0.043795	152.380984	-74.647561	-168.058290
09058		9.472568	1.061850	-2.203649	-0.037854	-0.022464	-0.027684	152.340352	-74.628328	-168.036838
09059		9.472074	0.992068	-2.202723	-0.043678	-0.026516	-0.025242	152.304824	-74.607798	-168.024153
09060		9.469778	0.941151	-2.325292	-0.027236	-0.032795	-0.011610	152.309983	-74.587599	-168.043883
09061		9.542294	0.967562	-2.306424	0.001173	-0.044726	0.001541	152.366978	-74.564956	-168.100505
09062		9.467850	0.966785	-2.310530	-0.028209	-0.067017	0.014965	152.453069	-74.534421	-168.204784
09063		9.602893	0.953280	-2.433260	-0.027203	-0.086998	0.033013	152.591460	-74.498569	-168.362828
09064		9.633526	1.056181	-2.429761	-0.024998	-0.090742	0.053947	152.772347	-74.466075	-168.563614
09065		9.541783	1.082134	-2.470310	-0.062786	-0.093147	0.074658	152.971025	-74.437709	-168.805348
09066		9.475151	0.439652	-3.006939	-0.070602	-0.070340	0.049267	153.096734	-74.414089	-168.976033
09067		9.498097	1.586294	-1.590967	0.001149	-0.109558	0.051634	153.303613	-74.371007	-169.188371
09068		9.481516	0.943449	-2.408212	-0.106126	-0.105101	0.041714	153.425695	-74.327380	-169.376491
09069		9.425888	0.960818	-2.262364	0.150538	-0.086180	0.038420	153.670701	-74.292583	-169.539654
09070		9.374586	0.850757	-2.339006	0.430685	-0.030661	0.026360	154.003406	-74.282941	-169.627119
09071		9.365493	1.504335	-1.618012	0.581732	-0.047208	0.007758	154.402958	-74.260103	-169.694159
09072		9.364180	1.729481	-2.016188	0.474179	-0.037810	-0.007213	154.704586	-74.238202	-169.723461
09073		9.318132	2.160664	-2.205408	0.401130	-0.058228	-0.020175	154.957795	-74.202649	-169.745877
09074		9.368748	2.433150	-2.063987	0.243143	-0.069106	-0.019537	155.130369	-74.161444	-169.778639
09075		9.278099	2.294446	-2.047460	0.083641	-0.057716	-0.020630	155.199362	-74.126007	-169.798712
09076		9.237231	2.062361	-1.998392	-0.059447	-0.071154	-0.010099	155.216960	-74.085979	-169.850613
09077		9.249020	1.707859	-2.121754	-0.208592	-0.090531	0.009556	155.200782	-74.040728	-169.956476
09078		9.232745	1.323842	-2.366237	-0.338350	-0.117824	0.032824	155.175415	-73.986754	-170.129934
09079		9.120291	0.921275	-2.513899	-0.348285	-0.160987	0.058520	155.225851	-73.916628	-170.388433
09080		9.163896	0.603333	-2.563048	-0.310369	-0.210903	0.092300	155.398682	-73.828327	-170.751644
09081		9.135045	0.357592	-2.546242	-0.243455	-0.245114	0.127923	155.697938	-73.730331	-171.206643
09082		9.150556	0.299558	-2.412851	-0.166397	-0.271108	0.153669	156.103435	-73.623868	-171.726698
09083		9.215988	0.237554	-2.485454	-0.091677	-0.242390	0.152820	156.521862	-73.531357	-172.215795
09084		9.292433	0.426997	-2.322560	0.020152	-0.219886	0.152991	156.982601	-73.449545	-172.682487
09085		9.261940	0.459165	-2.392139	0.066712	-0.203489	0.143784	157.436943	-73.373437	-173.114808
09086		9.301235	0.293132	-2.504344	0.153035	-0.191559	0.126416	157.897358	-73.298745	-173.502061
09087		9.354673	0.406039	-2.358860	0.269670	-0.169823	0.105019	158.367610	-73.230304	-173.829991
09088		9.461198	0.714930	-2.198961	0.338986	-0.131015	0.087640	158.816962	-73.178015	-174.094666
09089		9.460976	1.136971	-1.949044	0.352499	-0.101024	0.071083	159.222476	-73.137979	-174.305564
09090		9.595314	1.499681	-1.792040	0.319437	-0.069805	0.041005	159.533805	-73.108060	-174.437823
09091		9.751031	1.887007	-1.553867	0.240357	-0.030577	0.027422	159.749416	-73.096522	-174.517451
09092		9.718619	2.163450	-1.637377	0.057983	0.016169	0.018231	159.813735	-73.108047	-174.548129
09093		9.196480	2.107529	-1.978803	-0.137468	0.060530	0.009255	159.721033	-73.141860	-174.531801
09094		8.639367	1.757303	-2.288958	-0.289920	0.051832	-0.003916	159.523221	-73.168147	-174.496859
09095		8.646471	1.384140	-2.709834	-0.364628	0.005146	-0.012995	159.296957	-73.167741	-174.476974
09096		9.014779	1.055702	-3.073950	-0.404779	-0.020536	-0.010058	159.070476	-73.153942	-174.480838
09097		9.396606	0.817703	-3.333910	-0.425615	-0.060436	-0.018159	158.844705	-73.117343	-174.497972
09098		9.713622	0.614278	-3.246655	-0.323699	-0.077899	-0.057181	158.621469	-73.063132	-174.456675
09099		9.637078	0.651338	-2.939719	-0.187714	-0.076394	-0.104374	158.393255	-72.999954	-174.328746
09100		9.545749	0.844391	-2.800349	-0.092605	-0.056528	-0.140537	158.144520	-72.939339	-174.122273
09101		9.564209	1.074466	-2.754258	-0.084553	-0.006285	-0.157884	157.836647	-72.901578	-173.849103
09102		9.612580	0.949827	-2.878806	-0.157000	0.051774	-0.160257	157.443393	-72.893391	-173.529947
09103		9.485983	0.650775	-2.927921	-0.161015	0.065347	-0.159846	157.038849	-72.891994	-173.201427
09104		9.270650	0.407187	-2.984031	-0.083467	0.045801	-0.156127	156.699760	-72.880328	-172.894844
09105		9.134106	0.359955	-3.110484	0.085210	0.025609	-0.144227	156.492860	-72.860501	-172.625476
09106		9.094291	0.619562	-3.099254	0.249303	0.021108	-0.120489	156.424315	-72.843373	-172.402433
09107		9.114005	0.933149	-3.029706	0.316737	0.028511	-0.106525	156.412819	-72.833458	-172.198687
09108		9.319757	1.139061	-2.983004	0.312132	0.032649	-0.098147	156.410006	-72.827458	-172.006739
09109		9.338040	1.280229	-2.933307	0.275154	0.029982	-0.099902	156.385058	-72.819802	-171.813830
09110		9.302879	1.296551	-2.974076	0.226233	0.017078	-0.100615	156.340626	-72.805015	-171.629817
09111		9.342118	1.266642	-2.991879	0.201826	0.018174	-0.105732	156.272901	-72.789719	-171.436080
09112		9.323354	1.301664	-3.025625	0.193787	0.025987	-0.111056	156.185999	-72.777066	-171.227037
09113		9.299008	1.356603	-3.002649	0.176934	0.024923	-0.117723	156.079177	-72.762340	-171.007267
09114		9.283448	1.397321	-2.963082	0.126866	0.017836	-0.112848	155.957543	-72.744774	-170.801972
09115		9.331653	1.356523	-2.962580	0.048348	0.013021	-0.106202	155.806045	-72.726224	-170.612524
09116		9.321571	1.281712	-2.997448	-0.022015	0.011124	-0.089246	155.644530	-72.710401	-170.454758
09117		9.322628	1.144157	-2.988164	-0.042394	0.010951	-0.076902	155.492382	-72.697396	-170.319048
09118		9.221968	1.098108	-3.052110	-0.030988	0.020755	-0.063906	155.361222	-72.692385	-170.198441
09119		9.231250	1.088474	-3.032812	0.010685	0.032816	-0.052015	155.264563	-72.696528	-170.088987
09120		9.355063	1.169251	-2.990380	0.029359	0.043785	-0.039459	155.191066	-72.709242	-169.992566
09121		9.432480	1.175796	-2.917133	0.053919	0.042993	-0.023642	155.158579	-72.725414	-169.924386
09122		9.486172	1.131685	-2.840690	0.050176	0.033050	-0.009457	155.155286	-72.739734	-169.889008
09123		9.420129	1.136195	-2.869159	0.056193	0.010792	-0.000546	155.187613	-72.744712	-169.887340
09124		9.395674	1.158292	-2.869252	0.057561	0.006010	0.008112	155.238909	-72.749196	-169.904694
09125		9.371836	1.206250	-2.846764	0.051207	0.002182	-0.001339	155.273739	-72.749499	-169.908637
09126		9.313149	1.268598	-2.864906	0.056246	-0.006068	-0.009023	155.304898	-72.743586	-169.905695
09127		9.223015	1.349560	-2.850139	0.046096	0.000446	-0.019382	155.307911	-72.738658	-169.879385
09128		9.217032	1.370333	-2.793776	0.013295	0.010639	-0.027825	155.270091	-72.736937	-169.829980
09129		9.289207	1.447019	-2.799597	0.002947	0.028508	-0.034788	155.200924	-72.742894	-169.753973
09130		9.328408	1.464748	-2.839230	-0.013892	0.049616	-0.033281	155.108143	-72.760091	-169.663333
09131		9.313165	1.451438	-2.840160	-0.023205	0.063255	-0.033062	154.999583	-72.784435	-169.561782
09132		9.342745	1.433124	-2.939956	-0.025442	0.062789	-0.028905	154.896755	-72.809434	-169.467574
09133		9.294520	1.484344	-2.934804	-0.007961	0.056556	-0.028005	154.810116	-72.831420	-169.379850
09134		9.294440	1.435422	-2.975761	0.000815	0.049490	-0.026092	154.737080	-72.850128	-169.301100
09135		9.303945	1.396616	-2.977642	0.005267	0.043378	-0.022405	154.677499	-72.866578	-169.233775
09136		9.362990	1.434021	-2.937253	0.003617	0.044402	-0.018023	154.623388	-72.884581	-169.173162
09137		9.393622	1.493012	-2.790456	-0.011664	0.049369	-0.011286	154.567769	-72.906813	-169.120143
09138		9.414147	1.515657	-2.705657	-0.055104	0.050634	-0.001185	154.503087	-72.932152	-169.083683
09139		9.394156	1.571223	-2.604186	-0.104903	0.046345	0.011229	154.434087	-72.958339	-169.072559
09140		9.366361	1.568832	-2.515049	-0.151256	0.042879	0.022710	154.360584	-72.985561	-169.084501
09141		9.368397	1.596004	-2.485454	-0.193196	0.038586	0.037709	154.291738	-73.014303	-169.126442
09142		9.378377	1.556111	-2.485466	-0.241522	0.023376	0.055213	154.237209	-73.039554	-169.212293
09143		9.395497	1.548000	-2.496472	-0.267006	0.009108	0.066893	154.199490	-73.060382	-169.330975
09144		9.316270	1.515103	-2.478650	-0.298115	0.005987	0.076858	154.163579	-73.082101	-169.470159
09145		9.307434	1.479770	-2.536956	-0.306020	0.003294	0.082463	154.134889	-73.103860	-169.621616
09146		9.390629	1.563620	-2.497534	-0.300333	0.009921	0.082670	154.104638	-73.129105	-169.768011
09147		9.390834	1.611261	-2.517355	-0.314425	0.022237	0.086225	154.062238	-73.161617	-169.910132
09148		9.344369	1.488211	-2.528741	-0.353440	0.015554	0.087387	154.005323	-73.191009	-170.060413
09149		9.375748	1.298570	-2.647363	-0.373505	0.023599	0.088303	153.931773	-73.224825	-170.205307
09150		9.208408	1.200914	-2.608008	-0.341417	0.006345	0.096626	153.905603	-73.251893	-170.380455
09151		9.211672	1.130650	-2.781741	-0.300949	-0.003403	0.111354	153.936106	-73.277650	-170.590550
09152		9.186623	1.272300	-2.805440	-0.203207	-0.000630	0.131069	154.054766	-73.309712	-170.834181
09153		9.167372	1.269608	-2.932511	-0.150006	0.007549	0.159246	154.246300	-73.352829	-171.122018
09154		9.094455	1.471883	-2.751268	-0.086962	0.022103	0.178940	154.497532	-73.408037	-171.434381
09155		9.291708	1.721044	-2.556391	-0.100147	0.006871	0.201757	154.795248	-73.460505	-171.803036
09156		9.540618	1.923846	-2.541125	-0.199605	0.004657	0.248444	155.121976	-73.522595	-172.261276
09157		9.567236	1.806409	-2.608680	-0.392088	-0.009482	0.304661	155.451839	-73.590014	-172.837621
09158		9.545409	1.403314	-2.826850	-0.540086	-0.032660	0.351506	155.802692	-73.655474	-173.524027
09159		9.420079	1.230566	-2.760414	-0.584867	-0.039147	0.389026	156.204244	-73.724970	-174.289754
09160		9.397034	1.185203	-2.805752	-0.584083	-0.056368	0.410559	156.663822	-73.788775	-175.115193
09161		9.387591	1.266913	-2.762230	-0.523741	-0.057752	0.428698	157.196946	-73.853876	-175.980938
09162		9.379617	1.507118	-2.585706	-0.516402	-0.067220	0.430801	157.751044	-73.912179	-176.863871
09163		9.351605	1.608545	-2.466685	-0.536783	-0.082207	0.440902	158.327937	-73.962211	-177.782432
09164		9.375108	1.744826	-2.527655	-0.586633	-0.099574	0.446488	158.903894	-74.001634	-178.729534
09165		9.310160	1.757604	-2.676984	-0.626972	-0.098373	0.460688	159.485806	-74.041892	-179.706678
09166		9.139227	1.642021	-2.719520	-0.622483	-0.083211	0.470988	160.083688	-74.089625	179.302455
09167		9.072391	1.651689	-2.556235	-0.578146	-0.054143	0.482703	160.714335	-74.152314	178.304212
09168		9.158895	1.747346	-2.368343	-0.567130	-0.035672	0.497331	161.374363	-74.224721	177.282321
09169		9.294138	1.805995	-2.360832	-0.606017	-0.018188	0.510074	162.032924	-74.305652	176.239199
09170		9.370882	1.723914	-2.406080	-0.701096	-0.020092	0.518278	162.663295	-74.383851	175.169178
09171		9.367019	1.487389	-2.721309	-0.779606	-0.044688	0.526579	163.287002	-74.446733	174.059748
09172		9.399070	1.251859	-2.904114	-0.818639	-0.060588	0.525627	163.902914	-74.497560	172.935499
09173		9.477511	1.045278	-2.960415	-0.809720	-0.068556	0.528270	164.538327	-74.541041	171.796582
09174		9.435013	0.928830	-2.924271	-0.740798	-0.058565	0.521042	165.199103	-74.585598	170.672555
09175		9.463325	0.954157	-2.992805	-0.595092	-0.057722	0.501236	165.907144	-74.624133	169.586328
09176		9.431341	1.102465	-2.865126	-0.480350	-0.051634	0.480045	166.640102	-74.659625	168.542622
09177		9.380018	1.273839	-2.863310	-0.434250	-0.040152	0.460880	167.358198	-74.695466	167.541896
09178		9.340279	1.389550	-2.727488	-0.412373	-0.039013	0.431662	168.033029	-74.725245	166.599168
09179		9.378623	1.550092	-2.612182	-0.386464	-0.014000	0.412676	168.675430	-74.763911	165.705604
09180		9.421321	1.671319	-2.375451	-0.380022	0.010399	0.391515	169.272918	-74.811525	164.862584
09181		9.485737	1.766446	-2.008642	-0.400965	0.025642	0.356408	169.782900	-74.861839	164.097998
09182		9.595649	1.901124	-1.783174	-0.493875	0.037780	0.321296	170.166940	-74.914027	163.408901
09183		9.744579	2.096344	-1.710722	-0.616580	0.049861	0.292074	170.417275	-74.969146	162.785640
09184		9.849166	2.037604	-1.758202	-0.799401	0.069612	0.265286	170.503733	-75.032477	162.223758
09185		9.778055	1.769844	-1.985108	-0.974635	0.084535	0.241624	170.435421	-75.101925	161.718325
09186		9.587212	1.374152	-1.993730	-1.122658	0.068816	0.235709	170.278605	-75.162229	161.216858
09187		9.588814	0.767559	-2.166382	-1.285056	0.020842	0.253310	170.083299	-75.197535	160.659073
09188		9.779996	0.049456	-2.454268	-1.318605	-0.026879	0.279710	169.945266	-75.208981	160.022223
09189		9.851477	-0.685254	-2.589002	-1.281877	-0.036307	0.321108	169.919106	-75.219475	159.291471
09190		9.684188	-1.422690	-2.667250	-1.184120	-0.034840	0.360361	170.034706	-75.234578	158.472077
09191		9.640164	-1.979385	-2.914344	-0.999633	-0.041382	0.392744	170.327390	-75.248411	157.578925
09192		9.716877	-2.102430	-3.025338	-0.803470	-0.052113	0.421284	170.800072	-75.257334	156.615909
09193		9.844929	-2.047567	-3.091446	-0.658046	-0.067222	0.434874	171.389807	-75.256649	155.618034
09194		9.890165	-1.718184	-2.799997	-0.466870	-0.040931	0.437048	172.086959	-75.268183	154.622373
09195		9.823721	-1.311581	-2.330840	-0.342735	-0.023031	0.456224	172.892306	-75.288019	153.588455
09196		9.883747	-0.830355	-1.820188	-0.328536	0.018815	0.474793	173.739454	-75.329093	152.519877
09197		10.095533	-0.396453	-1.241180	-0.397768	0.075712	0.496824	174.587992	-75.399916	151.409139
09198		9.935498	-0.169072	-0.841686	-0.593993	0.106995	0.534393	175.411275	-75.486321	150.208733
09199		9.714205	-0.104913	-0.717774	-0.795787	0.126030	0.554747	176.172380	-75.580381	148.953621
09200		9.578725	-0.282862	-0.673411	-0.963281	0.134351	0.563795	176.870123	-75.675411	147.665387
09201		9.171738	-0.414393	-0.689637	-1.050570	0.140014	0.554670	177.509041	-75.769853	146.386784
09202		8.869648	-0.554737	-1.032181	-1.124220	0.136405	0.523278	178.047634	-75.858120	145.168657
09203		8.715281	-0.632844	-1.407566	-1.131296	0.134524	0.494884	178.527687	-75.942379	144.007165
09204		8.774469	-0.616831	-1.587243	-1.110903	0.142396	0.436662	178.895453	-76.028087	142.973884
09205		8.765566	-0.615849	-1.528907	-1.091704	0.201445	0.384645	179.160774	-76.145971	142.057927
09206		8.762276	-0.547275	-1.571501	-1.051149	0.259432	0.327047	179.324109	-76.295577	141.271437
09207		8.878967	-0.570759	-1.774449	-0.990655	0.312564	0.278095	179.415639	-76.475154	140.595034
09208		8.896652	-0.652884	-1.815131	-0.937369	0.347440	0.239080	179.453961	-76.674055	140.005266
09209		9.097262	-0.989116	-1.721170	-0.877442	0.319790	0.196760	179.432740	-76.857125	139.512399
09210		9.335644	-1.382973	-2.086602	-0.690447	0.286160	0.162784	179.442231	-77.020479	139.098340
09211		9.580432	-1.429960	-2.309726	-0.348508	0.306508	0.126670	179.563122	-77.195481	138.771260
09212		9.698270	-1.037062	-2.194041	-0.054393	0.325060	0.063018	179.696913	-77.380439	138.603945
09213		9.822194	-0.523679	-2.251009	0.163227	0.362837	-0.014447	179.759281	-77.587039	138.637634
09214		9.574714	0.071534	-2.264758	0.316828	0.387664	-0.115054	179.643750	-77.807288	138.943460
09215		9.389240	0.591497	-2.184735	0.380621	0.348539	-0.240212	179.221268	-78.004374	139.600332
09216		9.076816	1.032218	-1.873133	0.324696	0.298944	-0.362263	178.417838	-78.169860	140.613357
09217		9.090472	1.151479	-2.114939	0.156642	0.223017	-0.448463	177.263586	-78.286682	141.885851
09218		8.714428	0.875425	-2.449719	-0.058979	0.118004	-0.457023	175.958244	-78.337284	143.186100
09219		8.586972	0.424521	-2.622129	-0.333939	-0.056509	-0.396126	174.697647	-78.285405	144.279776
09220		8.792875	-0.358903	-2.883416	-0.558663	-0.183964	-0.293946	173.636843	-78.162101	145.038193
09221		9.316346	-0.855013	-2.845473	-0.474238	-0.186151	-0.211411	172.865194	-78.040870	145.550871
09222		9.558422	-0.432228	-1.871667	-0.220980	-0.136491	-0.213719	172.226931	-77.946171	146.075745
09223		9.947998	0.638546	-1.223207	-0.047926	-0.100216	-0.289730	171.482132	-77.864774	146.811137
09224		10.362180	1.421151	-1.240982	0.065506	-0.024551	-0.358254	170.600318	-77.817698	147.753361
09225		10.292571	2.004007	-0.741564	-0.036717	-0.021912	-0.397311	169.564352	-77.765176	148.793540
09226		10.133208	2.214579	-0.543414	-0.556685	-0.009947	-0.351007	168.353552	-77.719929	149.707971
09227		9.921966	1.487287	-1.267213	-1.171173	0.014687	-0.263918	167.007608	-77.695066	150.400486
09228		9.556529	0.559380	-1.900015	-1.539861	0.043905	-0.197272	165.606539	-77.691715	150.933264
09229		9.157506	-0.447303	-2.669546	-1.634529	-0.008876	-0.176881	164.239583	-77.659736	151.375624
09230		8.999104	-1.128067	-3.423654	-1.346699	-0.105088	-0.169938	163.131432	-77.573665	151.721974
09231		9.136751	-1.239753	-3.941360	-0.870171	-0.198622	-0.173775	162.367725	-77.434811	151.995309
09232		9.278455	-0.855524	-3.984408	-0.417625	-0.222825	-0.181050	161.874959	-77.280589	152.256877
09233		9.587309	-0.290042	-3.665830	-0.169548	-0.212543	-0.188548	161.506432	-77.130390	152.536937
09234		9.699605	0.132026	-3.293718	-0.097013	-0.139592	-0.188971	161.127299	-77.019101	152.870684
09235		9.566108	0.103341	-3.182653	-0.070515	-0.078801	-0.172470	160.758496	-76.943509	153.209520
09236		9.513133	0.081320	-2.915478	-0.011357	-0.044100	-0.166086	160.413635	-76.887238	153.558681
09237		9.394282	0.068830	-3.006689	0.057136	-0.047602	-0.156933	160.135133	-76.830570	153.880061
09238		9.246007	0.243196	-2.954268	0.131174	-0.058892	-0.151503	159.923199	-76.768422	154.176734
09239		9.250112	0.450338	-3.005929	0.157456	-0.083456	-0.145170	159.764078	-76.694223	154.434683
09240		9.246201	0.678575	-2.974945	0.175152	-0.089653	-0.136908	159.640896	-76.618060	154.666213
09241		9.336202	1.025846	-2.884831	0.165419	-0.086014	-0.133963	159.518117	-76.544431	154.891653
09242		9.464970	1.435015	-2.709781	0.117390	-0.076738	-0.129999	159.370419	-76.476347	155.114501
09243		9.706310	1.600257	-2.578130	0.033963	-0.066690	-0.119333	159.192433	-76.415743	155.319384
09244		9.813810	1.663107	-2.412766	-0.035843	-0.044514	-0.106934	158.984411	-76.369301	155.514076
09245		9.813384	1.607738	-2.284591	-0.110489	-0.028741	-0.082162	158.776298	-76.336301	155.664876
09246		9.712929	1.486948	-2.285765	-0.151214	-0.016003	-0.056730	158.590220	-76.315211	155.769008
09247		9.515391	1.310324	-2.293501	-0.161796	-0.008445	-0.028294	158.454381	-76.304101	155.815192
09248		9.408367	1.163756	-2.359251	-0.134516	-0.008731	-0.000233	158.395663	-76.298678	155.798094
09249		9.419933	1.043371	-2.431468	-0.108109	-0.019380	0.025427	158.417504	-76.293038	155.713643
09250		9.441939	1.018523	-2.628602	-0.090174	-0.032974	0.057187	158.530497	-76.286761	155.545949
09251		9.550396	1.132359	-2.590384	-0.103176	-0.045711	0.083528	158.704526	-76.279124	155.307748
09252		9.562200	1.157095	-2.495516	-0.160553	-0.056073	0.109748	158.911417	-76.271162	155.001876
09253		9.595080	1.232900	-2.328111	-0.234180	-0.061979	0.119963	159.103274	-76.261902	154.668039
09254		9.634734	1.175509	-2.174632	-0.294311	-0.062914	0.133429	159.290477	-76.254603	154.303516
09255		9.660613	1.119786	-2.092757	-0.298482	-0.057853	0.143141	159.492268	-76.251693	153.921505
09256		9.681463	1.049256	-1.860745	-0.273313	-0.046962	0.149129	159.712602	-76.255483	153.535253
09257		9.578111	1.009971	-1.876575	-0.213779	-0.037893	0.141696	159.943636	-76.262335	153.173109
09258		9.341056	1.090071	-2.001701	-0.110417	-0.036870	0.136853	160.222638	-76.268396	152.822561
09259		9.219573	1.153935	-2.100856	-0.099517	-0.039745	0.131839	160.499324	-76.271553	152.480831
09260		9.311656	1.076384	-2.547981	-0.097208	-0.028554	0.132248	160.769730	-76.280433	152.146938
09261		9.365468	0.835266	-2.796152	-0.138269	-0.016154	0.118894	160.977837	-76.293196	151.852972
09262		9.412953	0.722542	-2.752388	-0.167045	0.006781	0.092435	161.093631	-76.313254	151.637070
09263		9.522165	0.507211	-2.775015	-0.202763	0.023494	0.060858	161.106299	-76.336444	151.506262
09264		9.527098	0.411132	-2.852480	-0.187850	0.037932	0.028507	161.044466	-76.361471	151.460926
09265		9.547054	0.277641	-2.793643	-0.157262	0.042133	0.002352	160.938473	-76.383883	151.479069
09266		9.504033	0.283028	-2.639278	-0.108014	0.042582	-0.016632	160.817615	-76.402991	151.541535
09267		9.440577	0.312410	-2.471876	-0.065385	0.029369	-0.021177	160.721254	-76.414030	151.603924
09268		9.441195	0.276635	-2.314568	-0.037693	0.009574	-0.016946	160.665507	-76.415183	151.640850
09269		9.476090	0.214286	-2.192349	-0.052879	-0.005999	-0.010114	160.628795	-76.409170	151.649243
09270		9.417733	0.114397	-2.228473	-0.001010	0.016981	0.006048	160.639668	-76.418686	151.639254
09271		9.385907	0.243783	-1.772665	-0.006268	-0.002643	0.028194	160.712836	-76.421757	151.562080
09272		9.597669	0.130933	-2.003367	-0.010754	0.012931	0.041168	160.800091	-76.435709	151.467772
09273		9.556819	0.312758	-1.832018	0.068910	0.020416	0.058281	160.966206	-76.456857	151.339305
09274		9.654233	0.425860	-1.857718	0.032639	0.024407	0.057566	161.106927	-76.479973	151.215593
09275		9.595432	0.496135	-1.904974	0.067035	0.035670	0.055262	161.254362	-76.508693	151.105254
09276		9.594908	0.522749	-1.875390	0.063173	0.020059	0.037948	161.372413	-76.525708	151.022871
09277		9.621184	0.509664	-2.036817	0.077887	0.027300	0.019365	161.451866	-76.543234	150.988848
09278		9.545480	0.507881	-2.060734	0.094758	0.039626	0.001222	161.490086	-76.564138	151.007164
09279		9.615377	0.348211	-2.238123	0.112030	0.042523	-0.021554	161.484592	-76.582486	151.080593
09280		9.534985	0.336683	-2.202304	0.151863	0.055538	-0.035520	161.459574	-76.605346	151.197550
09281		9.473006	0.368669	-2.216559	0.183930	0.061242	-0.046677	161.423319	-76.629269	151.344930
09282		9.372160	0.417502	-2.230769	0.219774	0.061997	-0.058837	161.378398	-76.651342	151.522314
09283		9.399803	0.479648	-2.210887	0.268484	0.066638	-0.059818	161.355725	-76.675746	151.705495
09284		9.385477	0.623196	-2.138101	0.294647	0.058593	-0.062980	161.346146	-76.695175	151.890613
09285		9.432419	0.768269	-2.020323	0.288022	0.054867	-0.060182	161.342377	-76.713106	152.065841
09286		9.556007	0.731473	-2.166996	0.262459	0.043091	-0.056100	161.341731	-76.725375	152.222805
09287		9.613124	0.865505	-2.103349	0.241162	0.044376	-0.049288	161.343961	-76.739607	152.364264
09288		9.555685	0.948928	-1.937137	0.168671	0.052061	-0.047321	161.302452	-76.758344	152.507983
09289		9.533553	0.932202	-1.980134	0.086153	0.039942	-0.037708	161.245595	-76.772263	152.618885
09290		9.503301	0.937210	-1.846572	0.031666	0.044010	-0.034337	161.161381	-76.788961	152.725818
09291		9.556145	0.920824	-1.770325	-0.029717	0.037988	-0.024315	161.070160	-76.804239	152.803812
09292		9.533421	0.829133	-1.898660	-0.052886	0.027257	-0.016693	160.991153	-76.815072	152.855627
09293		9.555800	0.773716	-1.935241	-0.050939	0.023805	-0.009641	160.932680	-76.825369	152.887490
09294		9.483307	0.709247	-2.012988	-0.045457	0.019237	-0.002928	160.896030	-76.834414	152.900171
09295		9.457239	0.681936	-2.090140	-0.030309	0.015187	-0.002407	160.872927	-76.841397	152.907847
09296		9.457281	0.716528	-2.153416	-0.012802	0.015268	-0.000190	160.864470	-76.848805	152.910788
09297		9.472403	0.714908	-2.171146	0.000704	0.018394	-0.000228	160.861590	-76.857932	152.915944
09298		9.487602	0.713159	-2.188610	0.003686	0.022035	-0.001205	160.854768	-76.868813	152.926907
09299		9.481232	0.701151	-2.036711	-0.001653	0.021361	-0.003297	160.841009	-76.878965	152.941847
09300		9.475980	0.724918	-2.041268	-0.027405	0.014135	-0.008582	160.805581	-76.884180	152.963890
09301		9.509561	0.732965	-2.045740	-0.037616	0.010855	-0.010176	160.763681	-76.887350	152.986567
09302		9.467085	0.707205	-2.012930	-0.045396	0.008875	-0.012018	160.714189	-76.889063	153.012466
09303		9.474700	0.763298	-2.010651	-0.039200	0.015191	-0.012669	160.662029	-76.894098	153.044745
09304		9.515938	0.791480	-1.949331	-0.030643	0.011445	-0.008888	160.626134	-76.897785	153.065362
09305		9.491985	0.807576	-1.967393	-0.025546	0.020178	-0.009450	160.585128	-76.906119	153.094219
09306		9.523886	0.848210	-1.944897	-0.012813	0.014842	-0.008684	160.557097	-76.911675	153.117249
09307		9.551947	0.878455	-1.955492	-0.008107	0.015999	-0.003912	160.542300	-76.918804	153.129455
09308		9.533574	0.871290	-1.967394	-0.034427	0.013511	-0.009844	160.500241	-76.923415	153.154172
09309		9.520740	0.841868	-1.972968	-0.038990	0.014206	-0.011367	160.451817	-76.928147	153.182734
09310		9.493048	0.814714	-1.959300	-0.061548	0.009633	-0.016340	160.382274	-76.929407	153.219713
09311		9.505841	0.773373	-2.036918	-0.077671	0.003316	-0.019304	160.302213	-76.926721	153.258001
09312		9.524342	0.785096	-2.022478	-0.099721	0.001466	-0.016478	160.217278	-76.923526	153.288328
09313		9.530038	0.731642	-1.950456	-0.133682	0.003468	-0.015774	160.113233	-76.921582	153.318293
09314		9.531633	0.627603	-2.062342	-0.122086	0.000526	-0.014903	160.019985	-76.918166	153.344000
09315		9.533393	0.598466	-2.088279	-0.090161	0.002343	-0.014090	159.945772	-76.915928	153.368939
09316		9.552099	0.575167	-2.009576	-0.088845	-0.001055	-0.012884	159.877634	-76.912043	153.388421
09317		9.551979	0.578144	-2.009291	-0.081774	-0.003273	-0.013558	159.814282	-76.906878	153.407143
09318		9.533312	0.572608	-2.022511	-0.062103	0.001945	-0.010918	159.763505	-76.904986	153.424532
09319		9.516468	0.643416	-2.040246	-0.031768	0.003879	-0.009322	159.732563	-76.904503	153.439395
09320		9.516513	0.644784	-2.039602	-0.023972	0.005871	-0.007475	159.708248	-76.905399	153.452046
09321		9.494332	0.703127	-1.998644	-0.029420	0.008000	-0.007598	159.679126	-76.907472	153.466421
09322		9.490609	0.695027	-2.030830	-0.031143	0.003403	-0.011997	159.642364	-76.906140	153.487634
09323		9.497944	0.750959	-2.028723	-0.034937	0.005467	-0.012935	159.599923	-76.905786	153.512438
09324		9.535044	0.694639	-2.087500	-0.041324	0.004374	-0.016883	159.545226	-76.903990	153.546074
09325		9.477441	0.705484	-2.100583	-0.032734	0.007376	-0.022968	159.479270	-76.902639	153.596318
09326		9.512643	0.757564	-2.045616	-0.029178	0.005910	-0.031822	159.395794	-76.898643	153.666648
09327		9.536733	0.746588	-2.025087	-0.038339	0.007283	-0.034844	159.299401	-76.894809	153.744847
09328		9.549565	0.782018	-2.016270	-0.038519	0.012535	-0.039410	159.187428	-76.892767	153.838943
09329		9.521753	0.756966	-2.003158	-0.057855	0.008131	-0.037493	159.073117	-76.888781	153.924060
09330		9.523793	0.694174	-1.964654	-0.052656	0.006970	-0.038652	158.959776	-76.883834	154.011247
09331		9.523637	0.698822	-1.963762	-0.039556	0.005012	-0.039937	158.853241	-76.877605	154.099148
09332		9.553075	0.700718	-2.001847	-0.033475	0.002424	-0.042494	158.746296	-76.869358	154.191057
09333		9.577056	0.690201	-1.981928	-0.007733	0.000837	-0.039142	158.663743	-76.861000	154.273059
09334		9.545373	0.654708	-2.003395	0.008394	-0.004540	-0.040075	158.592774	-76.849480	154.352666
09335		9.544713	0.693073	-2.068300	0.033897	-0.005145	-0.038009	158.542249	-76.838128	154.426279
09336		9.516482	0.700708	-2.121359	0.058091	0.002278	-0.031892	158.512506	-76.831927	154.492797
09337		9.480602	0.762939	-2.153254	0.069680	0.002229	-0.029102	158.496311	-76.826359	154.552212
09338		9.476387	0.829041	-2.099647	0.081801	0.004525	-0.027018	158.489305	-76.822371	154.609333
09339		9.505604	0.901638	-2.051512	0.072284	0.010020	-0.020850	158.486440	-76.822684	154.656593
09340		9.534853	0.974350	-2.003119	0.047271	0.008670	-0.020348	158.471124	-76.822304	154.701929
09341		9.566041	1.015015	-1.981853	0.023723	0.001137	-0.020637	158.448887	-76.817922	154.740510
09342		9.498759	1.037652	-2.035133	0.010659	-0.004021	-0.018036	158.429288	-76.811259	154.768701
09343		9.513362	1.037893	-2.054720	0.001406	0.000144	-0.019101	158.398664	-76.806664	154.802765
09344		9.476191	1.023554	-2.081495	-0.022215	0.006802	-0.022034	158.341449	-76.804914	154.850247
09345		9.474085	1.058760	-2.053381	-0.041652	0.012282	-0.019487	158.274328	-76.806682	154.896459
09346		9.454413	0.976616	-2.060657	-0.064078	0.013706	-0.024481	158.181328	-76.808058	154.956059
09347		9.447477	0.925984	-2.060452	-0.071797	0.009231	-0.019786	158.098976	-76.808107	155.000175
09348		9.416577	0.854963	-2.016022	-0.075573	0.004171	-0.019399	158.019604	-76.805463	155.039014
09349		9.451881	0.832684	-2.048069	-0.068673	-0.004132	-0.020059	157.950672	-76.798327	155.071185
09350		9.475511	0.855950	-2.092796	-0.063127	-0.008690	-0.013402	157.903865	-76.790126	155.083901
09351		9.520143	0.819215	-2.086926	-0.045282	-0.009438	-0.009922	157.876213	-76.782346	155.087439
09352		9.530555	0.884569	-2.052279	-0.038405	0.001122	-0.007984	157.846846	-76.780519	155.096792
09353		9.542041	0.840098	-2.040210	-0.029920	-0.004409	-0.007511	157.828846	-76.775927	155.099456
09354		9.531816	0.929110	-1.992319	-0.019332	-0.004833	-0.006592	157.819038	-76.771240	155.099943
09355		9.534866	0.975282	-2.023771	-0.033251	-0.004669	-0.014370	157.783899	-76.765027	155.118253
09356		9.510412	0.992203	-2.043047	-0.062296	0.001589	-0.010843	157.733993	-76.762824	155.134643
09357		9.501292	0.973312	-2.016797	-0.096789	0.002470	-0.014614	157.655336	-76.760333	155.160261
09358		9.495431	0.999976	-2.021155	-0.116953	0.007971	-0.017824	157.552503	-76.759977	155.198852
09359		9.494376	0.927197	-2.015088	-0.125657	0.011617	-0.021508	157.433286	-76.760794	155.249146
09360		9.569380	0.855310	-1.981842	-0.135544	0.001619	-0.025753	157.307946	-76.755295	155.299918
09361		9.515872	0.804184	-2.048927	-0.133958	0.001185	-0.035034	157.163456	-76.747552	155.371291
09362		9.523593	0.755015	-2.069478	-0.112298	-0.001935	-0.039138	157.024990	-76.737136	155.449235
09363		9.511694	0.806960	-2.079803	-0.084555	0.011272	-0.043140	156.881344	-76.732813	155.548827
09364		9.497647	0.740365	-2.146079	-0.083863	0.019732	-0.043810	156.728281	-76.732663	155.658511
09365		9.533356	0.720991	-2.176465	-0.053878	0.023877	-0.044811	156.586470	-76.734475	155.774278
09366		9.497089	0.674235	-2.137554	-0.021233	0.023773	-0.050023	156.451515	-76.734904	155.902223
09367		9.519701	0.660661	-2.024851	0.006491	0.016707	-0.051514	156.336345	-76.731290	156.026155
09368		9.502387	0.698510	-1.977229	0.014053	0.003704	-0.051680	156.237602	-76.720691	156.137672
09369		9.539467	0.681538	-2.101689	0.028570	-0.005811	-0.048599	156.163867	-76.705855	156.232038
09370		9.503296	0.710234	-2.069908	0.057321	-0.012456	-0.048223	156.113782	-76.687524	156.319043
09371		9.477733	0.763508	-2.155302	0.074038	-0.019330	-0.038153	156.102840	-76.667997	156.375665
09372		9.474092	0.832852	-2.194500	0.085790	-0.021776	-0.028871	156.121219	-76.649264	156.409084
09373		9.490658	0.915414	-2.096110	0.068971	-0.027490	-0.020679	156.154033	-76.629515	156.417759
09374		9.465553	0.930395	-2.118741	0.049021	-0.026977	-0.010848	156.196131	-76.612236	156.405149
09375		9.466160	0.971382	-2.061557	0.045438	-0.029872	0.001259	156.265960	-76.596307	156.361913
09376		9.523807	1.039855	-2.054942	0.030937	-0.036064	0.005955	156.343244	-76.578122	156.302476
09377		9.519612	1.028984	-2.091421	0.038556	-0.028385	0.011751	156.430468	-76.565353	156.237298
09378		9.498301	1.051196	-2.081200	0.045535	-0.032351	0.007782	156.516221	-76.549496	156.177745
09379		9.480603	1.083027	-2.038018	0.029683	-0.030875	0.008068	156.592322	-76.534532	156.118769
09380		9.497149	1.048731	-2.087691	0.014838	-0.029337	0.001721	156.644018	-76.518847	156.076144
09381		9.496555	1.048525	-2.090494	0.011388	-0.026794	-0.003152	156.680890	-76.503457	156.046722
09382		9.504875	1.070562	-2.118031	0.006965	-0.020012	-0.004655	156.705121	-76.491221	156.027698
09383		9.460045	1.074307	-2.061547	-0.004247	-0.014884	-0.006132	156.715155	-76.481414	156.016663
09384		9.459041	0.998166	-2.059032	-0.024343	-0.016531	-0.008033	156.710729	-76.470243	156.008662
09385		9.480071	0.939823	-2.010471	-0.039546	-0.031202	-0.002609	156.723538	-76.452645	155.973968
09386		9.523169	0.860521	-2.067543	-0.028315	-0.032038	-0.004393	156.739305	-76.434135	155.942854
09387		9.557174	0.871090	-2.167573	0.003565	-0.032811	0.006756	156.798583	-76.417801	155.885762
09388		9.508485	0.863668	-2.145743	0.023014	-0.035004	0.014584	156.887651	-76.401990	155.809487
09389		9.516665	0.883396	-2.174586	0.030556	-0.036266	0.018393	156.990615	-76.386406	155.723351
09390		9.501292	0.882053	-2.158838	0.032988	-0.034935	0.018153	157.092702	-76.371367	155.639550
09391		9.502338	0.921146	-2.101956	0.028448	-0.029637	0.021892	157.195583	-76.359987	155.552246
09392		9.544916	0.912103	-2.071992	0.016424	-0.030185	0.023117	157.294275	-76.348489	155.462164
09393		9.511264	0.902610	-2.068938	0.002775	-0.026387	0.021901	157.379207	-76.338761	155.378186
09394		9.521874	0.890401	-2.123665	-0.008847	-0.022120	0.015905	157.440158	-76.329881	155.312035
09395		9.487602	0.804604	-2.115933	-0.000769	-0.021030	0.019003	157.511714	-76.322305	155.239729
09396		9.525497	0.822528	-2.182254	0.017961	-0.023494	0.012513	157.581711	-76.311918	155.180071
09397		9.588743	0.790630	-2.165409	0.022763	-0.025480	0.006794	157.644016	-76.299280	155.131157
09398		9.618776	0.752273	-2.142230	0.017096	-0.013829	-0.001109	157.675102	-76.291020	155.111035
09399		9.595414	0.657679	-2.186004	0.029002	-0.006542	-0.012124	157.682887	-76.284292	155.121915
09400		9.544478	0.608125	-2.129774	0.027014	0.005524	-0.025634	157.649123	-76.280947	155.174396
09401		9.511508	0.491335	-2.055215	0.023623	0.009190	-0.044232	157.570181	-76.275546	155.271379
09402		9.504242	0.364514	-2.052156	0.035178	0.012778	-0.061741	157.456421	-76.268097	155.411026
09403		9.508620	0.305378	-2.105317	0.067140	0.014205	-0.078061	157.324951	-76.257818	155.587759
09404		9.501073	0.292109	-2.170280	0.116485	0.012965	-0.081762	157.214697	-76.245894	155.771767
09405		9.501186	0.297378	-2.169070	0.157903	0.021026	-0.091820	157.099900	-76.235994	155.984890
09406		9.485493	0.338998	-2.212528	0.189853	0.019918	-0.101527	156.983291	-76.223148	156.218740
09407		9.479822	0.444369	-2.221794	0.229280	0.021806	-0.110653	156.868841	-76.209232	156.473637
09408		9.472586	0.507455	-2.291178	0.257164	0.025450	-0.119236	156.748422	-76.195077	156.751150
09409		9.493567	0.565618	-2.308244	0.290841	0.027862	-0.123133	156.637764	-76.181275	157.038495
09410		9.491236	0.680160	-2.285126	0.315483	0.042337	-0.124863	156.523829	-76.174454	157.343771
09411		9.547964	0.788824	-2.339406	0.332174	0.049000	-0.119859	156.424774	-76.172244	157.643574
09412		9.493692	0.962969	-2.329704	0.345723	0.050088	-0.117088	156.337754	-76.171022	157.938982
09413		9.422848	1.137250	-2.210669	0.317863	0.044172	-0.105652	156.265408	-76.169331	158.202839
09414		9.402440	1.207820	-2.138574	0.273252	0.033271	-0.095845	156.197996	-76.164012	158.435297
09415		9.376931	1.301607	-2.165278	0.244694	0.024227	-0.088301	156.139561	-76.155734	158.641663
09416		9.385638	1.369540	-2.133457	0.217833	0.019398	-0.084922	156.076981	-76.145563	158.836457
09417		9.411756	1.403223	-2.147187	0.171352	0.014860	-0.080369	156.002512	-76.134108	159.016074
09418		9.446367	1.458017	-2.186924	0.146076	0.011533	-0.070704	155.936792	-76.123026	159.171772
09419		9.425236	1.529532	-2.116505	0.119343	0.014433	-0.060384	155.875537	-76.115914	159.307097
09420		9.475478	1.626255	-2.116466	0.073461	0.010958	-0.051423	155.809808	-76.108969	159.419958
09421		9.472053	1.662775	-2.090728	0.024381	0.003425	-0.037542	155.752966	-76.101395	159.494696
09422		9.466565	1.655237	-2.032082	-0.020733	-0.004197	-0.019477	155.715275	-76.094006	159.523081
09423		9.483998	1.622083	-2.077054	-0.067094	-0.006570	0.000561	155.695905	-76.090161	159.505226
09424		9.460046	1.559422	-2.089601	-0.099738	-0.009465	0.019984	155.701200	-76.089322	159.442694
09425		9.436261	1.495686	-2.102222	-0.114788	-0.013533	0.034527	155.732656	-76.089835	159.344323
09426		9.405596	1.409698	-2.180233	-0.130496	-0.012886	0.048404	155.783544	-76.093879	159.216666
09427		9.458086	1.347461	-2.165928	-0.154241	-0.022414	0.057368	155.849008	-76.095063	159.059976
09428		9.464523	1.202307	-2.211488	-0.153484	-0.019712	0.052729	155.902387	-76.096487	158.916187
09429		9.453983	1.135875	-2.153054	-0.162177	-0.020424	0.052306	155.950725	-76.097450	158.772457
09430		9.436310	1.048833	-2.159985	-0.172807	-0.015905	0.048086	155.979666	-76.099728	158.642439
09431		9.430618	0.993819	-2.160219	-0.165224	-0.018623	0.044834	156.008777	-76.099849	158.516721
09432		9.408718	0.973936	-2.206471	-0.153684	-0.017211	0.042440	156.037981	-76.100097	158.397719
09433		9.434734	0.925485	-2.121769	-0.139802	-0.015849	0.045027	156.079469	-76.101678	158.274257
09434		9.441051	0.901449	-2.115667	-0.128732	-0.016755	0.043342	156.124470	-76.102336	158.153710
09435		9.511090	0.924714	-2.095245	-0.126819	-0.017323	0.052319	156.190259	-76.104783	158.012878
09436		9.505320	0.868053	-2.096315	-0.134587	-0.014743	0.055687	156.256246	-76.109286	157.867260
09437		9.527482	0.884402	-2.050500	-0.141644	-0.019754	0.057765	156.327457	-76.111635	157.712097
09438		9.515314	0.850431	-2.058570	-0.158132	-0.026818	0.058835	156.397939	-76.110438	157.547955
09439		9.526394	0.836647	-2.112027	-0.166197	-0.027574	0.064247	156.476118	-76.110076	157.371122
09440		9.512802	0.877800	-2.034076	-0.163209	-0.022091	0.066566	156.555750	-76.113023	157.194558
09441		9.484649	0.878971	-2.087276	-0.167998	-0.022968	0.070358	156.641715	-76.116357	157.008644
09442		9.509345	0.938812	-2.073315	-0.174256	-0.025194	0.067784	156.720562	-76.117825	156.826374
09443		9.494751	0.937224	-2.054442	-0.206048	-0.023790	0.073630	156.792550	-76.121345	156.632404
09444		9.530479	0.832545	-2.082880	-0.209932	-0.020432	0.067553	156.846213	-76.125163	156.455025
09445		9.547755	0.796896	-2.129365	-0.197846	-0.016671	0.064432	156.896932	-76.130275	156.287810
09446		9.487565	0.757562	-2.111626	-0.179899	-0.014464	0.057446	156.940941	-76.134895	156.138105
