// General information: 
//  MT Manager version: 2022.2.0 
//  XDA version: 2022.2.0 build 7381 rev 124627 built on 2023-07-19
// Device information: 
//  DeviceId: 00B4BB4E
//  ProductCode: MTW2-3A7G6
//  Firmware Version: 4.6.0
//  Hardware Version: 2.0.0
// Device settings: 
//  Filter Profile: human(46.1)
//  Option Flags: Orientation Smoother Disabled, Position/Velocity Smoother Disabled, Continuous Zero Rotation Update Disabled, AHS Disabled, ICC Disabled
// Coordinate system: ENU
PacketCounter	SampleTimeFine	Acc_X	Acc_Y	Acc_Z	Gyr_X	Gyr_Y	Gyr_Z	Roll	Pitch	Yaw
08218		9.536075	1.411672	0.897732	-0.052430	0.031616	0.014558	47.788347	-80.803438	-80.312271
08219		9.579653	1.523765	1.007351	-0.053196	0.031066	0.026487	47.608330	-80.805797	-80.159894
08220		9.586743	1.549312	0.966061	-0.066477	0.040254	0.036490	47.373642	-80.809119	-79.959972
08221		9.585974	1.511723	0.962282	-0.060871	0.037543	0.036959	47.146990	-80.813180	-79.764812
08222		9.569184	1.506316	1.042259	-0.066480	0.040068	0.045191	46.891540	-80.819932	-79.543683
08223		9.639159	1.396217	1.030216	-0.069554	0.044682	0.054374	46.598647	-80.828177	-79.286469
08224		9.613505	1.245885	1.043729	-0.053965	0.048909	0.065260	46.277746	-80.839420	-78.991715
08225		9.628768	1.219386	1.052217	-0.040298	0.049996	0.078571	45.927123	-80.855084	-78.659065
08226		9.665900	1.249357	1.113820	-0.022651	0.050467	0.078556	45.585407	-80.870591	-78.325154
08227		9.645534	1.217520	1.074766	-0.032749	0.058495	0.087192	45.193597	-80.885691	-77.946437
08228		9.620317	1.175837	1.003486	-0.047140	0.062728	0.090674	44.773812	-80.900406	-77.548039
08229		9.615944	1.157263	0.976951	-0.033619	0.060370	0.096241	44.351094	-80.917511	-77.138559
08230		9.661761	1.247922	1.002642	-0.027418	0.056595	0.100096	43.930907	-80.937584	-76.728109
08231		9.693136	1.232921	1.023716	-0.021211	0.063531	0.102888	43.486916	-80.955046	-76.289932
08232		9.666962	1.281138	0.945556	-0.009795	0.067539	0.107769	43.026208	-80.972551	-75.828146
08233		9.649133	1.360170	1.020606	-0.011896	0.071301	0.118743	42.523001	-80.991788	-75.324651
08234		9.680950	1.467845	1.044639	-0.024496	0.075081	0.120716	41.997145	-81.009828	-74.805581
08235		9.620182	1.341179	1.021195	-0.049759	0.087294	0.127406	41.406092	-81.024044	-74.235161
08236		9.547209	1.299894	1.012573	-0.057972	0.087796	0.134741	40.788422	-81.040214	-73.642526
08237		9.688948	1.175278	1.013501	-0.055165	0.081577	0.140938	40.166401	-81.060049	-73.043943
08238		9.648814	0.979145	1.041919	-0.049550	0.089556	0.140426	39.529152	-81.075486	-72.426729
08239		9.569182	0.895105	0.991143	-0.016217	0.089551	0.140004	38.908865	-81.089392	-71.807367
08240		9.527411	0.837389	1.108136	0.005030	0.088864	0.137070	38.310084	-81.101893	-71.197613
08241		9.654839	0.765714	1.114255	0.040011	0.084661	0.136044	37.740949	-81.114606	-70.597461
08242		9.776940	0.731612	1.183017	0.058465	0.085337	0.132897	37.189686	-81.125360	-70.004635
08243		9.831082	0.713330	1.275211	0.080439	0.081535	0.118906	36.698077	-81.131849	-69.459535
08244		9.825747	0.740513	1.344962	0.042516	0.070866	0.107208	36.242932	-81.138937	-68.973348
08245		9.804451	0.616941	1.313986	0.011201	0.076779	0.093565	35.796050	-81.137735	-68.513682
08246		9.740992	0.495223	1.288804	-0.004264	0.070524	0.076772	35.405044	-81.133694	-68.119418
08247		9.684853	0.359514	1.320383	-0.030486	0.065185	0.063278	35.050235	-81.126930	-67.777101
08248		9.687161	0.191326	1.262089	-0.054162	0.059483	0.053713	34.723963	-81.119770	-67.477296
08249		9.800109	0.088058	1.278895	-0.031971	0.056797	0.041770	34.451762	-81.109379	-67.219439
08250		9.902081	0.072361	1.309872	-0.007046	0.059795	0.029926	34.224703	-81.093959	-66.992703
08251		9.765474	0.111984	1.250827	0.024042	0.061360	0.019004	34.045486	-81.073769	-66.796459
08252		9.743304	0.271758	1.395809	0.044555	0.053096	0.019509	33.894458	-81.057990	-66.616721
08253		9.759309	0.375743	1.406518	0.047308	0.063654	0.013723	33.741422	-81.034856	-66.433466
08254		9.539427	0.658487	1.328440	0.045167	0.061779	0.011112	33.599841	-81.012130	-66.262916
08255		9.416202	0.876093	1.344402	-0.002579	0.045352	-0.000636	33.499705	-80.993056	-66.162137
08256		9.568212	0.801911	1.330641	-0.050185	0.042084	-0.016373	33.426752	-80.970961	-66.116361
08257		9.614928	0.764656	1.266944	-0.055688	0.040232	-0.019671	33.364371	-80.948290	-66.084612
08258		9.703573	0.715832	1.308639	-0.034754	0.032139	-0.020773	33.333580	-80.929552	-66.072586
08259		9.739703	0.605111	1.391809	-0.005121	0.035205	-0.012246	33.288168	-80.911618	-66.028677
08260		9.718772	0.583601	1.349900	0.031031	0.033584	-0.012259	33.266899	-80.894862	-65.988090
08261		9.719900	0.618850	1.361789	0.087725	0.039100	-0.009915	33.260357	-80.875789	-65.929667
08262		9.721666	0.745763	1.366561	0.128219	0.039032	-0.010386	33.278635	-80.857011	-65.872770
08263		9.702774	0.839376	1.436877	0.146939	0.036176	-0.014180	33.324569	-80.838003	-65.833129
08264		9.620133	0.888551	1.347730	0.141044	0.051990	-0.016979	33.344569	-80.810954	-65.770494
08265		9.641461	0.878792	1.189062	0.150270	0.038633	-0.016320	33.394020	-80.790103	-65.732477
08266		9.457669	0.961732	1.193604	0.143821	0.054098	-0.008791	33.387546	-80.764637	-65.641427
08267		9.465406	0.902163	1.159058	0.120980	0.041427	-0.012860	33.404765	-80.743543	-65.587751
08268		9.458922	0.862056	1.120506	0.110304	0.040109	-0.015344	33.425766	-80.722702	-65.543960
08269		9.468398	0.836023	1.094204	0.120964	0.043880	-0.015742	33.446825	-80.699532	-65.494178
08270		9.484334	0.944115	1.101114	0.120888	0.038000	-0.020563	33.493272	-80.678065	-65.470006
08271		9.582928	0.950196	1.216506	0.096586	0.030673	-0.022006	33.544028	-80.659233	-65.464468
08272		9.640270	0.966506	1.225346	0.064065	0.026328	-0.019252	33.576500	-80.643758	-65.459184
08273		9.641317	1.002924	1.235473	0.075820	0.026962	-0.023649	33.627103	-80.626177	-65.465550
08274		9.588395	1.117524	1.374481	0.047329	0.018208	-0.033352	33.706194	-80.610097	-65.517126
08275		9.336183	1.043343	1.304099	-0.002519	0.031417	-0.025067	33.707219	-80.589940	-65.518734
08276		9.834250	0.860613	1.458680	0.003149	-0.009307	-0.027761	33.797491	-80.588722	-65.607420
08277		9.625571	0.900134	1.493258	0.002475	0.027245	-0.024948	33.808842	-80.570589	-65.616595
08278		9.453145	1.053315	1.346790	0.007755	0.023104	-0.017744	33.810624	-80.557126	-65.612776
08279		9.540794	1.063406	1.371155	-0.025664	0.008983	-0.024447	33.839355	-80.547845	-65.655915
08280		9.560883	1.007330	1.314117	-0.047503	0.008370	-0.022159	33.850303	-80.539959	-65.693655
08281		9.537062	0.999671	1.357184	-0.063475	0.006329	-0.025972	33.866694	-80.531449	-65.746251
08282		9.674091	0.913080	1.329968	-0.078965	-0.005056	-0.028276	33.902712	-80.527989	-65.827632
08283		9.613046	0.834310	1.306966	-0.081023	0.001363	-0.028995	33.927061	-80.520866	-65.898490
08284		9.659849	0.696338	1.359272	-0.056350	-0.011332	-0.024924	33.978450	-80.521441	-65.982214
08285		9.590155	0.680038	1.373119	-0.034684	0.003497	-0.027541	34.021006	-80.513753	-66.044614
08286		9.527973	0.659345	1.333697	0.004106	0.005306	-0.024262	34.073001	-80.506622	-66.094205
08287		9.545050	0.709258	1.354531	0.017544	0.005278	-0.021451	34.124615	-80.500027	-66.135451
08288		9.649614	0.744105	1.277940	0.060625	0.000329	-0.020558	34.207881	-80.496449	-66.183704
08289		9.633185	0.904643	1.360930	0.062458	0.003288	-0.014228	34.268493	-80.493109	-66.207983
08290		9.631814	0.963987	1.344240	0.035273	-0.000449	-0.010245	34.309484	-80.493192	-66.228251
08291		9.607013	1.013478	1.369352	0.024921	0.000617	-0.008665	34.337990	-80.492908	-66.241784
08292		9.560997	1.096704	1.333222	-0.002941	-0.000900	-0.013102	34.366061	-80.492261	-66.271153
08293		9.580866	1.121002	1.378179	-0.030395	-0.003594	-0.005438	34.361891	-80.495010	-66.283689
08294		9.582955	1.073024	1.283321	-0.045776	-0.000780	-0.001007	34.331070	-80.498228	-66.278041
08295		9.565866	1.115793	1.255369	-0.042272	0.000435	0.001763	34.291950	-80.501397	-66.262041
08296		9.541189	1.162987	1.281364	-0.044934	0.000627	0.006517	34.237617	-80.506366	-66.232128
08297		9.511042	1.166601	1.266274	-0.052625	0.002567	0.014125	34.153357	-80.512501	-66.176376
08298		9.543490	1.111582	1.188071	-0.061275	0.007791	0.017018	34.046048	-80.517439	-66.101967
08299		9.358612	1.154453	1.181767	-0.054373	0.014893	0.025354	33.905004	-80.521277	-65.989662
08300		9.033488	1.112995	0.964917	-0.062488	0.037975	0.041215	33.670220	-80.519464	-65.787144
08301		9.960896	1.028031	1.126566	-0.028509	-0.027234	0.040484	33.580557	-80.548087	-65.711910
08302		9.880631	1.023479	1.281186	-0.020441	0.024192	0.052169	33.364068	-80.556148	-65.503388
08303		9.618466	1.289095	1.311741	-0.006731	0.025211	0.072848	33.093069	-80.569711	-65.231688
08304		9.604287	1.381675	1.414176	-0.046431	0.018272	0.078759	32.794774	-80.588577	-64.955425
08305		9.538394	1.249834	1.352625	-0.110267	0.040897	0.082869	32.404280	-80.597172	-64.622755
08306		9.400036	1.123471	1.281632	-0.118537	0.043906	0.087149	31.990866	-80.605563	-64.271422
08307		9.499019	0.943678	1.303780	-0.119071	0.036485	0.097695	31.558275	-80.619997	-63.901215
08308		9.587079	0.768641	1.235247	-0.111862	0.048416	0.107304	31.079132	-80.631303	-63.479636
08309		9.621901	0.680101	1.185504	-0.082461	0.050323	0.113991	30.591899	-80.642723	-63.032817
08310		9.760865	0.761478	1.148278	-0.048660	0.056161	0.117237	30.103445	-80.651925	-62.565076
08311		9.756105	0.878241	1.209863	-0.034299	0.064729	0.118784	29.602423	-80.656305	-62.076338
08312		9.810038	0.949918	1.294752	-0.038335	0.058540	0.123586	29.094997	-80.664766	-61.583530
08313		9.692881	1.164985	1.343848	-0.051481	0.073070	0.118947	28.568687	-80.663589	-61.079155
08314		9.596910	1.287370	1.470163	-0.119853	0.055398	0.117996	28.035821	-80.670653	-60.607729
08315		9.626130	1.176901	1.499936	-0.205929	0.047169	0.113749	27.478787	-80.679688	-60.161913
08316		9.685076	1.037681	1.425463	-0.247540	0.045970	0.115372	26.894434	-80.689364	-59.712514
08317		9.673899	0.902631	1.483982	-0.272130	0.047248	0.108882	26.312704	-80.695654	-59.280130
08318		9.680328	0.735541	1.458351	-0.294678	0.044566	0.100148	25.749662	-80.700745	-58.879708
08319		9.664408	0.513682	1.377139	-0.291754	0.049332	0.096845	25.190498	-80.701606	-58.481595
08320		9.590159	0.358803	1.392255	-0.259666	0.043742	0.098974	24.651670	-80.705588	-58.085424
08321		9.539717	0.214192	1.364785	-0.226245	0.042046	0.104045	24.117280	-80.710735	-57.674389
08322		9.473281	0.192631	1.415154	-0.182346	0.041569	0.104497	23.607258	-80.715959	-57.262497
08323		9.471172	0.282703	1.501439	-0.145947	0.039533	0.111804	23.096388	-80.722993	-56.828689
08324		9.539397	0.389873	1.574882	-0.127530	0.031675	0.106756	22.622708	-80.732782	-56.421814
08325		9.673689	0.447991	1.616439	-0.131434	0.025757	0.102765	22.166407	-80.743971	-56.034895
08326		9.716565	0.550830	1.586638	-0.131767	0.030529	0.098619	21.716499	-80.751570	-55.654586
08327		9.634821	0.575647	1.609212	-0.158156	0.029167	0.085662	21.294818	-80.756382	-55.318271
08328		9.620506	0.526380	1.623687	-0.190642	0.024322	0.084778	20.863349	-80.763518	-54.990834
08329		9.592010	0.420222	1.527628	-0.213180	0.014739	0.075952	20.459190	-80.773305	-54.704225
08330		9.619060	0.312110	1.549513	-0.225106	0.007598	0.064655	20.093756	-80.784692	-54.463711
08331		9.732359	0.234293	1.571082	-0.227886	0.004474	0.061639	19.739625	-80.796617	-54.236338
08332		9.749683	0.136381	1.500973	-0.200762	0.000365	0.066438	19.389174	-80.811769	-53.996887
08333		9.763333	0.125095	1.624931	-0.141922	-0.000217	0.064508	19.078604	-80.826338	-53.763765
08334		9.769941	0.139939	1.547879	-0.092289	0.003139	0.065154	18.789542	-80.839328	-53.523559
08335		9.687757	0.235210	1.410445	-0.020254	0.011503	0.064629	18.533434	-80.847185	-53.275007
08336		9.641099	0.466503	1.416509	0.032409	0.006580	0.056628	18.339447	-80.856429	-53.058742
08337		9.515414	0.626125	1.501246	0.024104	-0.000774	0.053009	18.160892	-80.868597	-52.863012
08338		9.544155	0.639715	1.492908	-0.008716	-0.014952	0.047829	17.996065	-80.887787	-52.700162
08339		9.610606	0.501508	1.496124	-0.043569	-0.014703	0.053044	17.792695	-80.907363	-52.518588
08340		9.687515	0.410771	1.576018	-0.071026	-0.021212	0.049183	17.592858	-80.930027	-52.356459
08341		9.744193	0.299572	1.609100	-0.075503	-0.021345	0.044660	17.405389	-80.951589	-52.209537
08342		9.714257	0.142303	1.520513	-0.058617	-0.018039	0.040153	17.238585	-80.970806	-52.073676
08343		9.724156	0.110260	1.488371	-0.022875	-0.014621	0.039623	17.090058	-80.987700	-51.935668
08344		9.694136	0.197305	1.434763	0.004141	-0.011636	0.037142	16.961608	-81.002795	-51.802243
08345		9.716875	0.330756	1.453391	-0.005421	-0.017072	0.035529	16.838864	-81.020250	-51.680226
08346		9.722436	0.393062	1.471923	-0.032651	-0.019888	0.030881	16.718769	-81.038748	-51.576611
08347		9.682377	0.366311	1.497864	-0.044853	-0.025988	0.023193	16.624772	-81.058994	-51.506579
08348		9.669580	0.299665	1.529163	-0.064155	-0.026280	0.020869	16.527369	-81.079305	-51.444217
08349		9.662206	0.198054	1.496061	-0.062568	-0.030464	0.020138	16.437814	-81.101478	-51.388964
08350		9.661505	0.137136	1.506583	-0.044482	-0.024461	0.016547	16.364247	-81.120059	-51.339324
08351		9.659280	0.102380	1.493884	-0.011692	-0.027899	0.013587	16.323679	-81.139743	-51.304154
08352		9.633985	0.116077	1.508917	0.031909	-0.027814	0.010213	16.319244	-81.159137	-51.280185
08353		9.681729	0.079109	1.437070	0.071445	-0.031469	0.008605	16.347466	-81.179981	-51.266429
08354		9.663265	0.134809	1.495459	0.114826	-0.027920	0.006096	16.405167	-81.198773	-51.257262
08355		9.632343	0.169091	1.453328	0.168711	-0.031590	0.003967	16.505952	-81.218935	-51.260540
08356		9.693057	0.173949	1.601925	0.199140	-0.038446	0.012237	16.601484	-81.244514	-51.240770
08357		9.771164	0.149456	1.666064	0.232875	-0.028543	0.011230	16.710337	-81.264195	-51.215015
08358		9.814927	0.208790	1.643605	0.273746	-0.045891	0.012019	16.857891	-81.293826	-51.204628
08359		9.518400	0.359680	1.588883	0.300739	-0.025293	0.017726	16.979247	-81.312826	-51.152190
08360		9.285856	0.504018	1.598648	0.281271	-0.039736	0.015589	17.112282	-81.339682	-51.122756
08361		9.410217	0.384703	1.606477	0.239985	-0.056528	0.010019	17.261634	-81.374511	-51.133853
08362		9.582909	0.285570	1.531173	0.245428	-0.062756	0.002670	17.447515	-81.411759	-51.178644
08363		9.539498	0.296503	1.385259	0.268803	-0.057425	0.005538	17.632166	-81.446294	-51.208738
08364		9.628734	0.489264	1.444892	0.267690	-0.079016	0.009144	17.828139	-81.493496	-51.250827
08365		9.661446	0.460613	1.475705	0.246815	-0.079759	0.004719	18.031483	-81.540031	-51.312550
08366		9.727498	0.413372	1.434674	0.250083	-0.091539	0.002760	18.258672	-81.592859	-51.396385
08367		9.607082	0.477189	1.568582	0.241275	-0.103696	-0.001833	18.515705	-81.651149	-51.515569
08368		9.643111	0.482854	1.606369	0.209466	-0.104564	-0.005086	18.769332	-81.709495	-51.649618
08369		9.669829	0.331379	1.632355	0.177627	-0.108894	-0.016295	19.055899	-81.767755	-51.835460
08370		9.727652	-0.000770	1.521701	0.163913	-0.116821	-0.020956	19.364938	-81.829532	-52.051824
08371		9.775648	-0.175576	1.497182	0.199588	-0.123856	-0.022015	19.713006	-81.894480	-52.287024
08372		9.757451	-0.134918	1.425084	0.234811	-0.114583	-0.015803	20.048319	-81.955688	-52.488821
08373		9.686305	0.101065	1.308482	0.251832	-0.105212	-0.024054	20.416991	-82.009801	-52.714529
08374		9.698551	0.333578	1.180411	0.222736	-0.112130	-0.045797	20.865272	-82.063255	-53.037317
08375		9.824828	0.427317	1.001224	0.197209	-0.106177	-0.062096	21.359279	-82.109544	-53.421106
08376		9.818654	0.553182	0.668728	0.177197	-0.113850	-0.069697	21.886814	-82.158101	-53.850162
08377		9.721109	0.724836	0.606415	0.138113	-0.127888	-0.077438	22.451477	-82.211610	-54.339354
08378		9.706689	0.862128	0.866421	0.058504	-0.139008	-0.078892	23.000387	-82.270309	-54.858504
08379		9.656273	0.911176	0.776771	-0.013215	-0.127496	-0.080686	23.504797	-82.321609	-55.374261
08380		9.603797	0.964181	0.886395	-0.025898	-0.129311	-0.083680	24.022606	-82.372846	-55.910698
08381		9.677828	0.813810	1.052894	-0.104097	-0.124791	-0.079424	24.478746	-82.421818	-56.430167
08382		9.797227	0.642718	0.929906	-0.103849	-0.097594	-0.075008	24.873519	-82.457472	-56.887433
08383		9.754401	0.722652	0.998424	-0.089285	-0.079697	-0.076791	25.255244	-82.482698	-57.323192
08384		9.859674	0.572079	0.874934	-0.126888	-0.068613	-0.081977	25.616879	-82.500844	-57.760293
08385		9.842747	0.274300	0.739577	-0.107554	-0.044396	-0.083138	25.950470	-82.505557	-58.158026
08386		9.780666	0.132044	0.642005	-0.075563	-0.030091	-0.083958	26.277767	-82.502723	-58.530819
08387		9.669058	0.125628	0.660618	-0.030604	-0.017231	-0.091313	26.634690	-82.490806	-58.907622
08388		9.662513	0.138917	0.713286	-0.023623	-0.011295	-0.093833	26.991808	-82.475242	-59.280485
08389		9.690291	0.108595	0.719386	-0.010252	-0.000799	-0.099323	27.355939	-82.452237	-59.652826
08390		9.751746	0.268315	0.814012	-0.007023	0.007452	-0.103844	27.719673	-82.423905	-60.022794
08391		9.828505	0.279944	0.857782	-0.018675	0.021302	-0.108349	28.063764	-82.386679	-60.379837
08392		9.813810	0.368300	0.841361	-0.003905	0.033530	-0.116678	28.418596	-82.341125	-60.739082
08393		9.848811	0.487400	0.972591	-0.028079	0.032517	-0.121762	28.777002	-82.294000	-61.116080
08394		9.836021	0.552491	0.982301	-0.052819	0.053805	-0.130726	29.105484	-82.233816	-61.477094
08395		9.661334	0.629990	0.850763	-0.048025	0.050824	-0.135662	29.456063	-82.173050	-61.857828
08396		9.602551	0.723659	1.040804	-0.077197	0.044485	-0.137652	29.803941	-82.114974	-62.252625
08397		9.659645	0.690511	1.068373	-0.127308	0.058103	-0.135793	30.083679	-82.049963	-62.607810
08398		9.549960	0.717129	0.906647	-0.131465	0.077890	-0.128497	30.289090	-81.977461	-62.890261
08399		9.503221	0.811130	0.880644	-0.150401	0.070177	-0.123417	30.477980	-81.909695	-63.167176
08400		9.490071	0.816298	0.909907	-0.173188	0.076503	-0.117635	30.616813	-81.840799	-63.406621
08401		9.503841	0.897165	0.915696	-0.189006	0.081720	-0.114202	30.721583	-81.769845	-63.620992
08402		9.490897	1.049965	0.924881	-0.202468	0.085343	-0.108882	30.790402	-81.699043	-63.806758
08403		9.558911	1.063621	1.031458	-0.234309	0.069591	-0.102959	30.850934	-81.637278	-64.002727
08404		9.577637	1.093019	1.087009	-0.268553	0.087444	-0.100149	30.845063	-81.567958	-64.151323
08405		9.518441	1.041099	0.995238	-0.286470	0.087101	-0.091260	30.799380	-81.501011	-64.270190
08406		9.520221	1.099705	1.136089	-0.286300	0.084663	-0.081000	30.724396	-81.438702	-64.359305
08407		9.463162	1.065822	1.164165	-0.290325	0.084327	-0.071076	30.615461	-81.379067	-64.416474
08408		9.595498	0.992277	1.229285	-0.252215	0.066425	-0.058796	30.523227	-81.332264	-64.468388
08409		9.487344	1.061757	1.397681	-0.208151	0.088329	-0.040995	30.357487	-81.279419	-64.420479
08410		9.490839	1.161887	1.435794	-0.181585	0.062912	-0.033014	30.230345	-81.241828	-64.396111
08411		9.900830	1.053729	1.559844	-0.156294	0.061825	-0.021111	30.082065	-81.207801	-64.335794
08412		9.744361	1.002644	1.583044	-0.108753	0.091030	-0.011422	29.877236	-81.162405	-64.190592
08413		9.758945	1.015215	1.604596	-0.055850	0.075566	0.004132	29.682800	-81.128668	-64.025305
08414		9.669547	1.006674	1.590217	-0.043767	0.089004	0.011674	29.448621	-81.090634	-63.812788
08415		9.775148	0.923365	1.550892	-0.028262	0.077442	0.020737	29.216804	-81.060424	-63.593630
08416		9.636558	0.840377	1.488549	-0.019690	0.092229	0.022635	28.959518	-81.023545	-63.343819
08417		9.688578	0.751386	1.475088	-0.010120	0.078668	0.030015	28.709811	-80.994989	-63.095985
08418		9.640789	0.649406	1.458924	-0.020461	0.088054	0.033838	28.427650	-80.962915	-62.821402
08419		9.547966	0.554461	1.303815	-0.027680	0.085472	0.037059	28.137411	-80.932466	-62.542671
08420		9.653087	0.527972	1.250548	-0.032559	0.074652	0.026309	27.898511	-80.904735	-62.318594
08421		9.583783	0.521954	1.160393	-0.034275	0.085099	0.016235	27.674446	-80.868535	-62.110661
08422		9.578898	0.512818	1.134657	-0.057896	0.069237	-0.001368	27.520108	-80.835948	-61.986927
08423		9.615457	0.430765	1.227654	-0.107904	0.064234	-0.010984	27.376441	-80.802975	-61.903131
08424		9.703443	0.379088	1.271169	-0.161483	0.055644	-0.020447	27.246487	-80.772220	-61.864227
08425		9.683636	0.317521	1.365264	-0.213301	0.056172	-0.034272	27.129823	-80.737198	-61.868957
08426		9.722515	0.210765	1.479817	-0.250660	0.040241	-0.045773	27.053399	-80.707663	-61.936089
08427		9.725022	0.128453	1.520945	-0.266428	0.045023	-0.061717	27.009991	-80.671187	-62.045898
08428		9.747229	0.068277	1.608445	-0.272356	0.047363	-0.079815	27.015000	-80.629179	-62.208195
08429		9.737998	-0.034110	1.549488	-0.256949	0.062512	-0.084972	27.020286	-80.577728	-62.361884
08430		9.623286	-0.038106	1.428324	-0.219041	0.063050	-0.096520	27.080505	-80.523359	-62.549001
08431		9.629464	0.025874	1.367952	-0.188996	0.066717	-0.105328	27.177777	-80.464396	-62.756529
08432		9.667855	-0.031748	1.348537	-0.173346	0.064425	-0.118615	27.325167	-80.403428	-63.005764
08433		9.766751	-0.009027	1.358655	-0.167971	0.066899	-0.130932	27.506540	-80.337447	-63.286452
08434		9.833473	-0.087692	1.465282	-0.195099	0.064148	-0.144036	27.711692	-80.269634	-63.606954
08435		9.744953	-0.173911	1.448877	-0.229224	0.072531	-0.166131	27.945988	-80.191048	-63.977072
08436		9.695351	-0.356230	1.395791	-0.242559	0.082746	-0.199453	28.247590	-80.098439	-64.423198
08437		9.660578	-0.463385	1.344429	-0.218615	0.097563	-0.231151	28.623939	-79.988840	-64.931580
08438		9.577684	-0.455253	1.505287	-0.189260	0.085023	-0.249729	29.078169	-79.880218	-65.501972
08439		9.733242	-0.268726	1.656972	-0.206800	0.071778	-0.247716	29.527632	-79.777539	-66.078095
08440		9.807298	-0.156483	1.444258	-0.253768	0.101604	-0.260868	29.927864	-79.656010	-66.631548
08441		9.809623	-0.159508	1.211251	-0.248833	0.102916	-0.292790	30.404189	-79.523408	-67.259906
08442		9.752540	-0.081191	1.234433	-0.209420	0.105324	-0.317615	30.949188	-79.381865	-67.935218
08443		9.559421	0.106788	1.480337	-0.240376	0.110629	-0.346536	31.527545	-79.227411	-68.663064
08444		9.435310	0.237510	1.572234	-0.333785	0.114793	-0.366606	32.076823	-79.064088	-69.415957
08445		9.489345	0.216960	1.570732	-0.416424	0.120827	-0.392625	32.615494	-78.887986	-70.206935
08446		9.558761	0.373559	1.641883	-0.479696	0.123673	-0.408465	33.129653	-78.704765	-71.010138
08447		9.527144	0.644185	1.756643	-0.563141	0.122750	-0.439586	33.650936	-78.510207	-71.870140
08448		9.478053	0.901468	1.859995	-0.632130	0.108995	-0.467811	34.194779	-78.312165	-72.793880
08449		9.493236	1.111498	1.897662	-0.662582	0.105337	-0.489028	34.751026	-78.106621	-73.749030
08450		9.481982	1.326292	1.835528	-0.649685	0.134211	-0.520452	35.311206	-77.875874	-74.701173
08451		9.421998	1.467678	1.689032	-0.583783	0.173176	-0.537118	35.856824	-77.618940	-75.600885
08452		9.205659	1.476901	1.455202	-0.486111	0.193652	-0.551952	36.426636	-77.346239	-76.468734
08453		9.111034	1.395981	1.222549	-0.427197	0.159533	-0.509992	36.968255	-77.101200	-77.274178
08454		9.409448	1.412784	1.326235	-0.355816	0.123845	-0.442000	37.445538	-76.895005	-77.972110
08455		9.436000	1.692744	1.656694	-0.306985	0.142717	-0.375324	37.777588	-76.701883	-78.492933
08456		9.387574	2.135147	1.621811	-0.222721	0.143313	-0.334701	38.067466	-76.522730	-78.920940
08457		9.311128	2.693732	1.747210	-0.160515	0.131172	-0.300562	38.338683	-76.360081	-79.293631
08458		9.118008	3.246608	1.862623	-0.148171	0.117851	-0.275917	38.583353	-76.212350	-79.631738
08459		9.042339	3.716701	2.136644	-0.182456	0.075355	-0.249791	38.817421	-76.092096	-79.979574
08460		9.031536	3.818125	2.436718	-0.259295	0.062188	-0.218305	38.965403	-75.989250	-80.284043
08461		9.048079	3.593529	2.480715	-0.278632	0.064801	-0.183662	39.034223	-75.897106	-80.518652
08462		8.973925	3.413016	2.487918	-0.172304	0.076910	-0.148183	39.082178	-75.812729	-80.668849
08463		8.942487	3.211855	2.629639	-0.051395	0.060820	-0.105409	39.146160	-75.750527	-80.764322
08464		9.092772	2.903820	2.732047	0.063303	0.024898	-0.036875	39.206913	-75.729387	-80.788549
08465		9.329551	2.637873	2.870811	0.215983	0.016961	0.035381	39.240030	-75.737617	-80.694124
08466		9.318160	2.649957	2.707454	0.411387	0.032791	0.112799	39.227361	-75.767142	-80.436859
08467		9.257077	2.987463	2.288642	0.667295	0.017660	0.167030	39.286933	-75.822808	-80.103010
08468		9.109375	3.500141	2.221260	0.832876	-0.019274	0.216483	39.406614	-75.913135	-79.733348
08469		9.298856	3.905541	2.080949	0.855865	-0.070092	0.269538	39.516977	-76.045239	-79.340760
08470		9.334385	4.094296	2.200933	0.816834	-0.090166	0.312190	39.555524	-76.202029	-78.897437
08471		9.408961	4.178750	2.298520	0.707066	-0.102961	0.347140	39.480718	-76.377047	-78.402530
08472		9.362639	3.960684	2.141686	0.593915	-0.106404	0.385629	39.267818	-76.567341	-77.832651
08473		9.425227	3.747795	2.121611	0.500162	-0.122764	0.421827	38.944863	-76.777310	-77.205350
08474		9.453006	3.362659	2.051283	0.367775	-0.119921	0.475433	38.422847	-77.004120	-76.452143
08475		9.387097	2.804555	1.778108	0.272282	-0.128110	0.494055	37.797219	-77.239497	-75.649439
08476		9.327515	2.425116	1.615821	0.239794	-0.126940	0.516974	37.078745	-77.480155	-74.771479
08477		9.266081	2.140338	1.701471	0.244115	-0.138792	0.509861	36.363641	-77.721448	-73.895190
08478		9.259733	1.704209	1.706952	0.226946	-0.136846	0.500799	35.625538	-77.956312	-73.006311
08479		9.337489	1.058643	1.482374	0.338089	-0.140417	0.515266	34.890806	-78.195272	-72.056494
08480		9.302134	0.706195	1.776004	0.495678	-0.147036	0.545413	34.155089	-78.444548	-71.014403
08481		9.330233	0.371415	2.028534	0.556081	-0.126833	0.576771	33.306635	-78.691293	-69.822821
08482		9.277330	0.215116	1.973325	0.614178	-0.106970	0.600780	32.358143	-78.932157	-68.496429
08483		9.268679	0.208517	1.849509	0.680566	-0.096651	0.613525	31.347485	-79.167459	-67.068969
08484		9.308895	0.239075	1.943725	0.684330	-0.092819	0.615566	30.276033	-79.396485	-65.578626
08485		9.335326	0.183420	1.738418	0.679260	-0.095178	0.603550	29.180491	-79.618007	-64.067756
08486		9.430741	0.269803	1.529439	0.677019	-0.077430	0.590280	28.040322	-79.821543	-62.513935
08487		9.614208	0.277070	1.204160	0.655829	-0.081711	0.567203	26.905465	-80.015611	-60.978736
08488		9.700377	0.236503	1.041072	0.642293	-0.096526	0.542928	25.806169	-80.205856	-59.488479
08489		9.754986	0.014137	1.015281	0.573191	-0.107927	0.505748	24.745190	-80.388023	-58.078031
08490		9.696824	-0.453935	1.067547	0.457274	-0.094845	0.446451	23.740950	-80.545153	-56.793227
08491		9.749402	-1.097442	1.176369	0.311510	-0.097898	0.367315	22.872143	-80.682378	-55.730834
08492		9.768468	-1.959606	1.331269	0.099557	-0.095085	0.272971	22.159698	-80.795116	-54.950330
08493		9.906617	-2.961117	1.203509	-0.103306	-0.085536	0.176605	21.618686	-80.880699	-54.461389
08494		10.023443	-3.898929	1.129718	-0.198693	-0.079715	0.090200	21.295931	-80.944644	-54.248921
08495		10.066673	-4.325572	1.127579	-0.181062	-0.077228	0.022081	21.205585	-80.992827	-54.261591
08496		10.070117	-4.041519	1.184815	-0.069456	-0.067053	-0.020520	21.309104	-81.026975	-54.405716
08497		9.990976	-3.067987	1.189766	0.060808	-0.061718	-0.037353	21.538845	-81.054442	-54.602132
08498		9.934310	-1.804712	1.192915	0.178988	-0.060525	-0.048907	21.873665	-81.078992	-54.836216
08499		9.804416	-0.431493	1.407367	0.222799	-0.066556	-0.069193	22.313833	-81.101806	-55.151655
08500		9.688829	0.705910	1.568887	0.204756	-0.072133	-0.097258	22.846458	-81.121331	-55.570950
08501		9.531148	1.548004	1.576702	0.149676	-0.056123	-0.117495	23.396454	-81.126899	-56.039922
08502		9.735880	1.857185	1.555721	0.063556	-0.067541	-0.129703	23.953878	-81.135289	-56.566183
08503		9.555611	2.113008	1.417083	0.002592	-0.033808	-0.131133	24.432593	-81.124639	-57.048298
08504		9.529292	2.151383	1.319765	-0.090294	-0.053818	-0.130871	24.885537	-81.124179	-57.558062
08505		9.594152	1.975809	1.195787	-0.146591	-0.072063	-0.124109	25.313808	-81.133910	-58.075633
08506		9.611655	1.858467	1.258889	-0.188054	-0.078226	-0.109505	25.679760	-81.150171	-58.554039
08507		9.645478	1.468102	1.265233	-0.237538	-0.083101	-0.120920	26.065577	-81.165312	-59.081342
08508		9.610087	1.039095	1.163354	-0.236094	-0.069578	-0.113660	26.406762	-81.175108	-59.562519
08509		9.417724	0.585094	1.049697	-0.196343	-0.071367	-0.105660	26.748959	-81.187149	-60.021760
08510		9.581911	0.224866	1.045109	-0.112641	-0.087898	-0.088685	27.111595	-81.211892	-60.453027
08511		9.713007	0.108806	1.195465	-0.050795	-0.089551	-0.067449	27.445375	-81.242366	-60.819314
08512		9.790232	0.116656	1.231115	0.017400	-0.080364	-0.059990	27.779391	-81.270131	-61.146169
08513		9.823562	0.319891	1.348800	0.081380	-0.072411	-0.060784	28.141515	-81.293054	-61.464463
08514		9.750067	0.528255	1.407836	0.091937	-0.055384	-0.072105	28.517517	-81.304313	-61.790550
08515		9.667640	0.791595	1.275709	0.058326	-0.045210	-0.090597	28.918217	-81.304720	-62.161211
08516		9.604732	1.007304	1.315737	-0.006016	-0.046969	-0.107661	29.340234	-81.301158	-62.590614
08517		9.918375	0.958061	1.214977	-0.068915	-0.059015	-0.121578	29.794239	-81.298855	-63.088956
08518		9.726122	1.370365	1.347702	-0.126532	-0.042110	-0.127392	30.201199	-81.286240	-63.572990
08519		9.797972	0.965610	1.281217	-0.317599	-0.049725	-0.158932	30.613858	-81.267409	-64.173688
08520		9.697974	0.717918	1.070724	-0.301658	-0.037804	-0.166613	31.034400	-81.240098	-64.773074
08521		9.256991	0.879296	1.177143	-0.354879	-0.048014	-0.163588	31.432074	-81.217735	-65.380300
08522		9.482378	0.825875	1.055335	-0.410969	-0.056815	-0.160643	31.802599	-81.200230	-65.992431
08523		9.472893	0.805539	1.098585	-0.387004	-0.034282	-0.148109	32.101747	-81.174724	-66.518647
08524		9.522984	0.739133	1.163588	-0.392808	-0.032992	-0.134422	32.349726	-81.152689	-66.996439
08525		9.525622	0.737383	1.075483	-0.316759	-0.036422	-0.118355	32.596966	-81.136638	-67.429449
08526		9.547017	1.015895	1.365809	-0.251749	-0.041409	-0.103266	32.843306	-81.127683	-67.823790
08527		9.661032	1.124961	1.487605	-0.238695	-0.030908	-0.099656	33.064688	-81.114251	-68.185387
08528		9.740908	1.032655	1.446176	-0.218858	-0.020471	-0.094779	33.260334	-81.097443	-68.509370
08529		9.818836	0.982498	1.502629	-0.176313	-0.015058	-0.092173	33.460812	-81.078387	-68.813660
08530		9.777186	1.021510	1.519036	-0.148829	-0.004257	-0.089338	33.645257	-81.055197	-69.085747
08531		9.733644	0.639614	1.379964	-0.119408	0.006508	-0.096736	33.846131	-81.024098	-69.357473
08532		9.545066	0.659486	1.135183	0.006307	0.012668	-0.094126	34.096679	-80.991019	-69.606597
08533		9.424350	1.145379	1.242367	0.023696	0.015996	-0.084657	34.320722	-80.958974	-69.818810
08534		9.603392	0.930638	1.074177	-0.048879	0.003888	-0.094512	34.555239	-80.929614	-70.083645
08535		9.696078	0.459010	0.866041	0.011579	0.007881	-0.078475	34.767689	-80.903147	-70.291183
08536		9.479816	0.637114	1.086720	0.032422	-0.004583	-0.061920	34.967673	-80.888130	-70.474099
08537		9.691873	0.744512	1.089817	-0.007569	-0.026327	-0.054027	35.166032	-80.885522	-70.678495
08538		9.603023	0.988717	1.313990	-0.006975	-0.002987	-0.063665	35.344236	-80.868997	-70.862138
08539		9.921948	0.779888	1.337921	-0.056797	-0.036623	-0.080057	35.610619	-80.862305	-71.164011
08540		9.594965	0.846402	1.345969	-0.049025	-0.007353	-0.085012	35.834013	-80.840427	-71.418184
08541		9.541207	1.053464	1.290099	-0.078163	-0.021640	-0.078369	36.050672	-80.826963	-71.682117
08542		9.475371	1.202921	1.354926	-0.142944	-0.023432	-0.075132	36.223883	-80.815568	-71.939439
08543		9.575911	1.149493	1.248065	-0.183955	-0.022331	-0.078927	36.381722	-80.801970	-72.205208
08544		9.649991	1.109604	1.160378	-0.190910	-0.006459	-0.086503	36.522867	-80.778652	-72.458169
08545		9.687354	0.970210	0.992684	-0.180777	-0.000754	-0.079498	36.637195	-80.754726	-72.678043
08546		9.605736	0.914964	1.016590	-0.162150	-0.010460	-0.062705	36.734345	-80.741230	-72.870020
08547		9.608254	0.860601	1.028466	-0.128457	-0.017893	-0.054871	36.844188	-80.733490	-73.054994
08548		9.621602	0.951070	1.150568	-0.054864	-0.003933	-0.046338	36.942624	-80.722545	-73.185125
08549		9.612692	1.112264	1.225942	-0.030903	0.005853	-0.046336	37.033780	-80.706776	-73.294540
08550		9.661743	1.098624	1.277709	-0.039680	0.005201	-0.048118	37.125900	-80.690957	-73.410023
08551		9.705507	1.012503	1.274438	-0.029681	0.012266	-0.046141	37.203002	-80.672274	-73.504497
08552		9.649958	0.910157	1.269279	-0.014081	0.016057	-0.035219	37.250551	-80.655916	-73.559505
08553		9.607552	0.912134	1.276083	-0.006390	0.011442	-0.031519	37.301698	-80.642652	-73.614159
08554		9.549731	0.900016	1.269347	0.007835	0.007700	-0.022869	37.344744	-80.634371	-73.652836
08555		9.509558	1.031989	1.319040	0.014925	0.009942	-0.017448	37.372202	-80.626670	-73.671105
08556		9.563067	1.074237	1.305071	-0.006582	0.012943	-0.017086	37.379888	-80.618015	-73.682259
08557		9.555994	1.159730	1.272338	-0.040373	0.017308	-0.013344	37.348826	-80.608386	-73.673329
08558		9.560869	1.283904	1.230321	-0.083416	0.008878	-0.011205	37.304997	-80.603628	-73.676350
08559		9.537381	1.289038	1.163440	-0.136344	0.011486	-0.013174	37.230791	-80.596710	-73.679424
08560		9.564046	1.308801	1.158654	-0.166987	0.002841	-0.012279	37.154856	-80.594332	-73.698195
08561		9.540554	1.261565	1.191291	-0.185560	0.005618	-0.009583	37.054907	-80.591339	-73.703759
08562		9.666673	1.244199	1.287678	-0.208643	-0.011304	-0.004224	36.962343	-80.598207	-73.730302
08563		9.657441	1.110829	1.299494	-0.210528	0.009282	0.001136	36.810884	-80.597225	-73.698154
08564		9.660498	1.049313	1.313599	-0.196673	0.005841	0.002815	36.670007	-80.598615	-73.668962
08565		9.567308	0.913403	1.335818	-0.167186	0.011787	0.001076	36.538409	-80.596434	-73.631776
08566		9.653690	0.822350	1.327210	-0.134342	0.011473	0.003477	36.419882	-80.595428	-73.588683
08567		9.704479	0.665936	1.246870	-0.091239	0.019886	0.001306	36.314626	-80.589563	-73.534088
08568		9.718322	0.580529	1.228213	-0.028319	0.020585	0.005852	36.231445	-80.585135	-73.465901
08569		9.661623	0.629932	1.245367	0.012787	0.025158	0.014562	36.138243	-80.581288	-73.363106
08570		9.673830	0.701084	1.249699	0.050097	0.018203	0.014119	36.081840	-80.580769	-73.276348
08571		9.614149	0.809904	1.254789	0.053921	0.012792	0.008039	36.055636	-80.580415	-73.217577
08572		9.655013	0.746354	1.227389	0.066908	0.010830	-0.000705	36.065291	-80.578293	-73.187790
08573		9.623613	0.668228	1.300026	0.091072	0.010432	-0.008736	36.111997	-80.573373	-73.181348
08574		9.744496	0.582549	1.337934	0.103979	0.002240	-0.013903	36.197189	-80.570778	-73.206262
08575		9.748350	0.592018	1.371657	0.123130	0.012750	-0.014536	36.273602	-80.562826	-73.211314
08576		9.680632	0.671927	1.418009	0.142230	0.005723	-0.021737	36.395078	-80.555959	-73.251178
08577		9.685967	0.832986	1.386340	0.145364	0.015377	-0.023754	36.504191	-80.543655	-73.276466
08578		9.553844	0.984276	1.390749	0.143004	0.011912	-0.039158	36.661302	-80.527939	-73.351598
08579		9.606775	0.997929	1.364148	0.102213	-0.004931	-0.042388	36.838188	-80.518548	-73.470664
08580		9.655566	0.952568	1.402639	0.061739	-0.005111	-0.042812	36.993006	-80.509313	-73.590949
08581		9.757587	0.934062	1.305304	0.054974	-0.007636	-0.041210	37.144654	-80.501457	-73.711875
08582		9.818088	0.947150	1.223924	0.058797	-0.013069	-0.047241	37.325905	-80.494201	-73.860280
08583		9.828403	0.894415	1.179768	0.073943	-0.007020	-0.056870	37.529138	-80.480487	-74.022496
08584		9.739308	0.826747	1.133475	0.108579	-0.002069	-0.070233	37.777408	-80.460013	-74.209701
08585		9.596512	0.668251	1.201091	0.144173	-0.009921	-0.083327	38.096621	-80.438053	-74.448742
08586		9.598828	0.553240	1.189903	0.158063	0.007394	-0.067271	38.343262	-80.414081	-74.605877
08587		9.502302	0.453801	1.187972	0.192153	0.002885	-0.063877	38.608991	-80.392937	-74.762827
08588		9.543615	0.430990	1.171493	0.254484	0.009928	-0.060906	38.886577	-80.369882	-74.895418
08589		9.511075	0.765850	1.229552	0.300720	0.015577	-0.050669	39.151033	-80.347606	-74.988001
08590		9.463099	1.119673	1.282918	0.280424	0.002313	-0.050721	39.431297	-80.331426	-75.108008
08591		9.563539	1.490259	1.276659	0.242084	-0.004886	-0.042054	39.682091	-80.321189	-75.220822
08592		9.583287	1.765567	1.282204	0.183948	0.003603	-0.038300	39.871290	-80.308798	-75.304135
08593		9.518023	1.872323	1.247312	0.117103	0.011325	-0.036455	40.000505	-80.293373	-75.366262
08594		9.551528	1.813400	1.273886	0.050795	-0.009599	-0.033258	40.128484	-80.288538	-75.464974
08595		9.585231	1.753658	1.300614	0.000425	-0.008943	-0.033747	40.227207	-80.282943	-75.563992
08596		9.576006	1.543618	1.170986	-0.027032	-0.008628	-0.026541	40.291136	-80.280118	-75.643527
08597		9.575304	1.331409	1.218660	-0.034948	-0.017597	-0.025092	40.366118	-80.281468	-75.739023
08598		9.575130	1.184291	1.286597	-0.069684	-0.021219	-0.016751	40.407999	-80.287729	-75.821096
08599		9.593746	1.008653	1.269460	-0.087176	-0.019480	-0.012540	40.425255	-80.294538	-75.888384
08600		9.647944	1.065541	1.373515	-0.049098	-0.024991	-0.005133	40.457708	-80.306741	-75.948709
08601		9.713500	1.095294	1.446371	-0.071665	-0.021685	0.002051	40.451568	-80.319929	-75.983241
08602		9.598456	1.014909	1.298493	-0.060618	-0.020691	-0.007883	40.475208	-80.329224	-76.041452
08603		9.525849	0.952609	1.266486	-0.050823	-0.014683	-0.007993	40.491522	-80.335621	-76.086647
08604		9.548179	0.834627	1.181562	-0.055198	-0.031397	-0.016666	40.564279	-80.346302	-76.191641
08605		9.604872	0.653929	1.123518	-0.042704	-0.027887	-0.018684	40.641718	-80.354440	-76.294117
08606		9.639117	0.526204	1.128084	-0.028006	-0.018877	-0.018860	40.708453	-80.358823	-76.377127
08607		9.711742	0.524739	1.135922	0.007579	-0.023470	-0.024008	40.818825	-80.363005	-76.483781
08608		9.670622	0.723128	1.202406	0.033589	-0.017363	-0.026369	40.936730	-80.363880	-76.582924
08609		9.670591	0.940553	1.153094	0.028366	-0.016937	-0.025464	41.048392	-80.364618	-76.678805
08610		9.713488	1.240594	1.239777	0.024923	-0.029330	-0.018834	41.168743	-80.373442	-76.785625
08611		9.664821	1.620003	1.302228	-0.012143	-0.012654	-0.003788	41.192676	-80.380457	-76.816063
08612		9.534082	1.806665	1.116155	-0.041613	-0.004367	-0.003534	41.180709	-80.384254	-76.827106
08613		9.453119	1.910307	0.960834	-0.072898	-0.010535	0.008366	41.134172	-80.394941	-76.821376
08614		9.346877	1.825935	0.992535	-0.099063	-0.008891	0.021517	41.035562	-80.410114	-76.777776
08615		9.468610	1.688455	0.901538	-0.115811	-0.007178	0.031180	40.898266	-80.427915	-76.704938
08616		9.518379	1.470112	0.890448	-0.099782	0.006374	0.044711	40.705162	-80.445094	-76.566080
08617		9.511261	1.333631	0.903814	-0.077911	0.006437	0.059259	40.485761	-80.467362	-76.387973
08618		9.570082	1.324459	1.023456	-0.044400	0.012041	0.072140	40.239070	-80.492064	-76.163032
08619		9.667612	1.439819	1.146817	-0.014922	0.012578	0.084700	39.973458	-80.520778	-75.901508
08620		9.635865	1.574900	1.263995	-0.018581	0.022337	0.100650	39.640982	-80.551037	-75.574434
08621		9.570126	1.739306	1.343794	-0.031893	0.021553	0.113807	39.264772	-80.585884	-75.210700
08622		9.587317	1.740644	1.360249	-0.096285	0.028408	0.128394	38.795208	-80.622719	-74.789633
08623		9.467595	1.225957	0.845828	-0.038641	0.031034	0.136232	38.327523	-80.660396	-74.337185
08624		9.434647	1.513815	0.983560	0.053955	0.015121	0.145599	37.918273	-80.708206	-73.890678
08625		9.639526	1.861031	1.096369	0.026047	0.018336	0.143110	37.488037	-80.752943	-73.438736
08626		9.539183	1.890539	1.084883	-0.066789	0.032638	0.120998	37.033064	-80.783142	-73.015507
08627		9.559055	1.563079	0.940268	-0.141571	0.015313	0.120183	36.570353	-80.820246	-72.628047
08628		9.733095	1.269321	1.123598	-0.192373	0.002804	0.125124	36.088062	-80.864468	-72.250796
08629		9.692455	0.978932	1.189528	-0.235259	0.022035	0.148860	35.466887	-80.906940	-71.757304
08630		9.765169	0.872624	1.291054	-0.192918	0.003369	0.157123	34.879840	-80.960241	-71.274638
08631		9.768624	0.744725	1.404448	-0.132393	0.021228	0.160918	34.272569	-81.005366	-70.735682
08632		9.793797	0.806597	1.389257	-0.081072	0.037553	0.153764	33.678770	-81.039744	-70.180872
08633		9.709218	0.567168	1.360487	-0.088547	0.043896	0.143594	33.093771	-81.066799	-69.639135
08634		9.756302	0.122629	1.339250	-0.082439	0.052679	0.133068	32.525063	-81.085691	-69.110425
08635		9.706838	-0.309789	1.238529	-0.068777	0.053119	0.126964	31.979042	-81.101520	-68.596736
08636		9.620513	-0.650088	1.088467	0.007011	0.053968	0.120172	31.495024	-81.114375	-68.101846
08637		9.748874	-0.671341	1.221997	0.066789	0.050875	0.104044	31.099686	-81.123152	-67.662087
08638		9.690875	-0.661188	1.230821	0.080447	0.056371	0.092243	30.738777	-81.125543	-67.249217
08639		9.717225	-0.510716	1.361606	0.115747	0.054126	0.077117	30.449509	-81.124031	-66.888430
08640		9.619205	-0.183889	1.419001	0.100115	0.058116	0.057631	30.205987	-81.114912	-66.582940
08641		9.629908	0.067663	1.424536	0.059172	0.042937	0.029899	30.055162	-81.104914	-66.395075
08642		9.690971	0.210621	1.480323	0.004550	0.033070	0.013347	29.943840	-81.095276	-66.278788
08643		9.674424	0.306825	1.359880	-0.001832	0.041004	0.001918	29.850954	-81.078129	-66.184938
08644		9.696186	0.535830	1.332209	0.001680	0.027564	-0.013420	29.833078	-81.063551	-66.164894
08645		9.692919	0.701065	1.443937	-0.033968	0.023856	-0.021200	29.826296	-81.048321	-66.176838
08646		9.656153	0.760479	1.385767	-0.041323	0.020029	-0.020096	29.818515	-81.035585	-66.191953
08647		9.580579	0.807173	1.476608	-0.028033	0.025851	-0.019518	29.806230	-81.019843	-66.194885
08648		9.591692	0.815237	1.459064	-0.001162	0.031520	-0.016398	29.789129	-81.002441	-66.177269
08649		9.623257	0.738632	1.368230	0.037016	0.044893	-0.016096	29.769249	-80.978204	-66.134776
08650		9.634455	0.623170	1.341171	0.086371	0.043911	-0.008707	29.756211	-80.956820	-66.070491
08651		9.741370	0.515293	1.284079	0.141352	0.053454	-0.004412	29.744667	-80.931643	-65.975899
08652		9.732012	0.471220	1.210161	0.185568	0.050992	-0.001836	29.754806	-80.908691	-65.877517
08653		9.768484	0.449081	1.285844	0.212654	0.047592	-0.004510	29.795252	-80.886408	-65.794190
08654		9.743452	0.407130	1.319635	0.221915	0.048968	-0.012829	29.864062	-80.861358	-65.734123
08655		9.629354	0.449555	1.328517	0.233146	0.051012	-0.020569	29.959813	-80.832820	-65.694911
08656		9.605390	0.318032	1.364092	0.208091	0.047391	-0.028044	30.069989	-80.804228	-65.684756
08657		9.609653	0.239698	1.403263	0.192795	0.045959	-0.034832	30.194741	-80.774116	-65.698339
08658		9.536634	0.251436	1.396637	0.187803	0.050621	-0.043297	30.333136	-80.739534	-65.728542
08659		9.535029	0.225961	1.390166	0.162679	0.042575	-0.060842	30.524248	-80.703535	-65.826850
08660		9.652080	0.188701	1.301818	0.160701	0.038009	-0.079981	30.778014	-80.664430	-65.989697
08661		9.766533	0.227551	1.320935	0.166644	0.022852	-0.093276	31.100691	-80.628429	-66.219063
08662		9.754185	0.390118	1.361141	0.139693	0.018427	-0.101434	31.437212	-80.592263	-66.478009
08663		9.693504	0.603364	1.359052	0.101754	0.016084	-0.111237	31.783385	-80.553737	-66.768930
08664		9.615636	0.737012	1.322828	0.048344	0.008052	-0.118559	32.131629	-80.516921	-67.092850
08665		9.604584	0.891491	1.505406	0.016221	0.001519	-0.123050	32.484530	-80.481253	-67.440344
08666		9.566858	1.008784	1.574393	-0.058900	-0.005118	-0.123737	32.805348	-80.448550	-67.798922
08667		9.578777	1.042011	1.443414	-0.071757	-0.005058	-0.120934	33.109112	-80.416056	-68.147772
08668		9.506022	1.172429	1.584177	-0.068209	-0.012149	-0.120283	33.423427	-80.387155	-68.505103
08669		9.558616	1.189402	1.558478	-0.075127	-0.015074	-0.110058	33.709202	-80.362274	-68.837724
08670		9.460336	1.347333	1.606101	-0.055424	-0.013219	-0.098649	33.968736	-80.340178	-69.132097
08671		9.430651	1.492168	1.630930	-0.056642	-0.021434	-0.085199	34.205058	-80.325793	-69.403850
08672		9.492303	1.570823	1.571278	-0.063984	-0.022098	-0.076240	34.412354	-80.314710	-69.650326
08673		9.439678	1.652014	1.505306	-0.035339	-0.024136	-0.065910	34.611430	-80.307524	-69.871931
08674		9.487690	1.607490	1.544758	-0.056559	-0.033303	-0.060133	34.799304	-80.306671	-70.094241
08675		9.615174	1.424669	1.498783	-0.041289	-0.036025	-0.036800	34.937352	-80.314378	-70.257393
08676		9.680377	1.407937	1.439085	-0.011571	-0.044012	-0.019092	35.059069	-80.331810	-70.386704
08677		9.644016	1.580189	1.525594	0.017437	-0.037564	-0.008270	35.155873	-80.349524	-70.473872
08678		9.648222	1.588134	1.555321	-0.016948	-0.040805	-0.001713	35.221370	-80.371118	-70.548765
08679		9.636101	1.400596	1.399707	-0.061053	-0.031912	0.002660	35.232582	-80.389769	-70.594723
08680		9.532013	1.211036	1.308347	-0.080193	-0.036738	0.008253	35.226803	-80.412728	-70.634128
08681		9.644920	1.057470	1.379498	-0.086977	-0.051170	0.008434	35.245131	-80.442298	-70.702360
08682		9.678777	0.958815	1.393274	-0.088170	-0.045664	0.009681	35.248610	-80.469886	-70.756159
08683		9.631680	0.750980	1.297818	-0.056293	-0.043809	0.012779	35.258326	-80.497445	-70.797821
08684		9.612332	0.677535	1.346656	-0.027214	-0.057548	0.019984	35.291772	-80.533996	-70.846898
08685		9.593064	0.603773	1.395222	0.001903	-0.044947	0.027124	35.297208	-80.566832	-70.850411
08686		9.628182	0.587748	1.318922	0.048875	-0.040132	0.032090	35.305728	-80.599249	-70.830088
08687		9.554702	0.746949	1.323285	0.101651	-0.040116	0.031633	35.346008	-80.631321	-70.810991
08688		9.578541	0.773912	1.398824	0.115712	-0.036208	0.031864	35.385654	-80.661859	-70.782965
08689		9.568561	0.815989	1.315002	0.134711	-0.031840	0.034920	35.418929	-80.691161	-70.737576
08690		9.552227	0.957475	1.316357	0.141629	-0.033192	0.041206	35.440497	-80.723411	-70.676897
08691		9.500823	1.030530	1.247667	0.120446	-0.033629	0.040601	35.452811	-80.755441	-70.618559
08692		9.498254	1.053111	1.220367	0.092503	-0.030851	0.046546	35.425946	-80.788342	-70.536260
08693		9.522200	1.062238	1.175448	0.066536	-0.030607	0.045174	35.387435	-80.820472	-70.457736
08694		9.579948	1.040408	1.169424	0.031417	-0.031276	0.043557	35.334178	-80.852556	-70.384726
08695		9.667051	0.947044	1.158332	0.010150	-0.035379	0.043699	35.276565	-80.886407	-70.319592
08696		9.735557	0.881200	1.232121	-0.008304	-0.035115	0.049022	35.191618	-80.922072	-70.237153
08697		9.690868	0.884293	1.321598	-0.037648	-0.034854	0.047000	35.094727	-80.956736	-70.159990
08698		9.664049	0.826427	1.316388	-0.084960	-0.031143	0.037183	34.991168	-80.986593	-70.103476
08699		9.639325	0.694358	1.203977	-0.096789	-0.018309	0.029493	34.876739	-81.007697	-70.042875
08700		9.629316	0.543789	1.094087	-0.086185	-0.026337	0.027696	34.789790	-81.032196	-70.003471
08701		9.617002	0.468552	1.091473	-0.061369	-0.032577	0.020272	34.752078	-81.056975	-69.999998
08702		9.671554	0.506127	1.073082	-0.030192	-0.033332	0.020736	34.732026	-81.082479	-69.996194
08703		9.696909	0.598645	1.170735	-0.029539	-0.031508	0.012555	34.733387	-81.104235	-70.013812
08704		9.759633	0.479460	1.079921	-0.021723	-0.026958	0.001167	34.763865	-81.120365	-70.055634
08705		9.762049	0.388240	1.079276	0.017216	-0.031868	-0.003276	34.840726	-81.137110	-70.122550
08706		9.740052	0.409772	1.127597	0.064288	-0.032450	-0.012081	34.972284	-81.151468	-70.217268
08707		9.696899	0.534858	1.138110	0.095428	-0.019231	-0.004495	35.071551	-81.161844	-70.261504
08708		9.646131	0.677721	1.092656	0.112034	-0.013304	-0.003303	35.163959	-81.170061	-70.288677
08709		9.640018	0.762928	1.054868	0.115671	-0.008488	-0.001338	35.242750	-81.176428	-70.300452
08710		9.610819	0.851788	0.947511	0.127259	-0.011689	0.003581	35.319798	-81.186156	-70.303659
08711		9.600677	1.102870	1.013910	0.114986	-0.021746	-0.003056	35.431906	-81.198142	-70.349545
08712		9.583322	1.165920	1.105743	0.075036	-0.024909	-0.013189	35.558319	-81.208468	-70.432883
08713		9.624024	1.103059	1.076985	0.041575	-0.024655	-0.021226	35.689827	-81.215714	-70.540958
08714		9.626207	1.014303	1.077205	0.028584	-0.023269	-0.023334	35.817163	-81.221809	-70.652021
08715		9.594082	0.907217	1.139620	0.017863	-0.024637	-0.025714	35.948909	-81.227465	-70.774079
08716		9.601792	0.892183	1.193545	0.020720	-0.028515	-0.022650	36.081468	-81.236150	-70.895228
08717		9.624476	0.858098	1.249986	0.026455	-0.025103	-0.025950	36.220238	-81.241855	-71.019409
08718		9.684335	0.784627	1.257446	0.041525	-0.027877	-0.029059	36.383008	-81.247974	-71.158965
08719		9.726194	0.740042	1.349560	0.066045	-0.027427	-0.027799	36.555516	-81.254015	-71.294326
08720		9.768256	0.744611	1.341122	0.076720	-0.023539	-0.028282	36.726828	-81.258276	-71.422266
08721		9.706662	0.725663	1.298041	0.088809	-0.014584	-0.023701	36.871831	-81.259712	-71.516600
08722		9.664137	0.695866	1.291151	0.106763	-0.018311	-0.035244	37.069548	-81.259067	-71.653729
08723		9.606039	0.652875	1.271517	0.118278	-0.016471	-0.036069	37.272452	-81.256989	-71.789562
08724		9.628165	0.637442	1.217740	0.145217	-0.014673	-0.044482	37.511150	-81.251324	-71.945772
08725		9.616660	0.686253	1.134914	0.172884	-0.018579	-0.052411	37.798005	-81.244309	-72.134893
08726		9.635177	0.649257	1.157744	0.185409	-0.025864	-0.053525	38.111197	-81.240287	-72.343279
08727		9.672323	0.616608	1.105351	0.196023	-0.027692	-0.058871	38.450415	-81.234764	-72.571972
08728		9.703331	0.652990	1.126327	0.219150	-0.028561	-0.063326	38.816987	-81.228073	-72.814849
08729		9.678347	0.774348	1.168867	0.230895	-0.030098	-0.064837	39.198203	-81.221028	-73.065828
08730		9.698397	0.839131	1.219238	0.224770	-0.033314	-0.068410	39.592711	-81.214097	-73.333790
08731		9.641722	0.899459	1.226300	0.211936	-0.033272	-0.065483	39.971397	-81.207696	-73.593211
08732		9.718209	0.993310	1.172034	0.192966	-0.031576	-0.072077	40.352841	-81.198106	-73.866272
08733		9.699819	1.112499	1.158999	0.174812	-0.032286	-0.070388	40.720592	-81.188927	-74.136164
08734		9.664966	1.150722	1.114742	0.173205	-0.032752	-0.072468	41.093267	-81.179151	-74.411778
08735		9.646649	1.302992	1.110357	0.153354	-0.035170	-0.075024	41.467213	-81.168926	-74.700395
08736		9.626756	1.321587	1.068886	0.123085	-0.037029	-0.067250	41.805895	-81.162425	-74.970736
08737		9.496697	1.350239	1.056931	0.100888	-0.034584	-0.063896	42.116563	-81.155687	-75.225749
08738		9.597898	1.328585	0.957290	0.084135	-0.027758	-0.060214	42.389966	-81.147510	-75.452696
08739		9.472062	1.364681	0.979425	0.097284	-0.030254	-0.053042	42.657545	-81.142764	-75.666200
08740		9.594098	1.319066	1.026876	0.071661	-0.040084	-0.042826	42.907068	-81.146208	-75.876194
08741		9.685642	1.277217	1.059224	0.071737	-0.030615	-0.038811	43.122408	-81.146894	-76.051642
08742		9.642780	1.180297	1.034311	0.088141	-0.022320	-0.031963	43.307778	-81.146932	-76.187167
08743		9.618424	1.118102	0.943888	0.100737	-0.020358	-0.020372	43.464575	-81.150429	-76.286548
08744		9.580603	1.094927	0.970441	0.107352	-0.024175	-0.009540	43.605969	-81.159969	-76.366423
08745		9.568987	1.024702	0.970423	0.114266	-0.016789	-0.009938	43.733892	-81.166038	-76.428735
08746		9.495764	0.929445	0.931359	0.130785	-0.019191	-0.002090	43.856592	-81.176416	-76.476109
08747		9.670966	0.820424	0.935885	0.147879	-0.019936	-0.002428	43.992163	-81.186727	-76.526669
08748		9.682008	0.794046	0.903458	0.163176	-0.008276	-0.000213	44.100768	-81.193332	-76.540986
08749		9.622421	0.825914	0.991000	0.157719	-0.006820	0.004352	44.190526	-81.200926	-76.539480
08750		9.576870	0.883555	0.979184	0.158088	-0.006605	0.002792	44.284070	-81.208046	-76.541506
08751		9.624413	1.062391	1.047863	0.135407	0.000486	0.001845	44.348921	-81.211642	-76.527732
08752		9.616849	1.178694	1.015186	0.097203	0.003002	-0.001431	44.393970	-81.213136	-76.515990
08753		9.678725	1.238192	1.062148	0.056717	0.002158	-0.000729	44.416244	-81.215019	-76.504754
08754		9.674629	1.263075	1.037325	0.029198	0.000349	-0.006446	44.442532	-81.215585	-76.513455
08755		9.666536	1.311531	0.988272	0.000615	-0.001045	0.003355	44.430166	-81.220417	-76.499695
08756		9.818482	1.090034	1.013073	-0.014673	-0.006629	-0.002606	44.439328	-81.225372	-76.516504
08757		9.611410	1.037534	0.946620	0.010688	0.007621	-0.001411	44.422835	-81.224747	-76.492729
08758		9.485049	0.933340	0.938384	-0.001616	-0.006824	0.010293	44.405786	-81.234955	-76.475448
08759		9.585001	1.015656	0.955366	0.027062	0.001188	0.024604	44.346214	-81.247385	-76.398594
08760		9.542275	1.192986	1.089991	-0.015488	-0.015941	0.024649	44.306540	-81.267077	-76.366468
08761		9.677549	0.786895	1.059474	-0.016502	-0.009230	0.027723	44.240373	-81.285008	-76.308201
08762		9.602051	0.241985	1.023601	0.058563	-0.015571	0.019918	44.254521	-81.302649	-76.287600
08763		9.648101	0.675984	1.127081	0.177857	-0.000274	0.049945	44.216232	-81.325780	-76.144889
08764		9.717588	1.186895	1.203927	0.145658	-0.012156	0.044562	44.204591	-81.351874	-76.047721
08765		9.671727	1.174779	1.175590	0.137184	0.020992	0.022661	44.160084	-81.355352	-75.922307
08766		9.642936	1.097261	1.056897	0.114408	0.012518	0.021579	44.127509	-81.362105	-75.822082
08767		9.730124	1.150794	0.974527	0.082425	-0.000796	0.029760	44.089366	-81.377354	-75.734845
08768		9.648092	1.280824	1.018926	0.065617	0.010873	0.027380	44.017074	-81.387068	-75.622733
08769		9.570016	1.138169	0.943393	0.052962	0.002548	0.028270	43.956860	-81.400317	-75.530251
08770		9.633937	1.079827	0.877473	0.092121	-0.015154	0.035444	43.945797	-81.423941	-75.464719
08771		9.675788	1.115979	1.075268	0.123535	-0.020352	0.049137	43.928731	-81.454922	-75.374991
08772		9.703245	1.132064	1.063181	0.119953	-0.007422	0.053087	43.864021	-81.482351	-75.239096
08773		9.631351	1.131212	1.052002	0.126220	0.000824	0.057920	43.767008	-81.508033	-75.066991
08774		9.662666	1.122713	1.066208	0.128014	0.006236	0.061249	43.646546	-81.532965	-74.870080
08775		9.655427	1.165716	1.016269	0.096559	0.011294	0.056217	43.507781	-81.553523	-74.672967
08776		9.653973	1.137049	0.896903	0.078906	0.013252	0.044511	43.385793	-81.568805	-74.502982
08777		9.615844	1.075645	0.919746	0.060259	0.007599	0.037872	43.286308	-81.583566	-74.366619
08778		9.684777	0.983336	0.991702	0.039762	-0.003596	0.036593	43.208036	-81.602684	-74.263514
08779		9.623275	0.954450	0.953137	0.029802	0.011674	0.043183	43.064314	-81.617752	-74.100087
08780		9.528097	0.910646	0.978501	0.030146	0.005814	0.045450	42.929357	-81.636322	-73.945263
08781		9.503645	0.838088	0.892704	0.040711	-0.013012	0.053861	42.825652	-81.665811	-73.815981
08782		9.613854	0.860379	1.067719	0.047270	-0.022568	0.060037	42.732554	-81.701910	-73.693567
08783		9.660840	0.865649	1.092648	0.029572	-0.012439	0.058750	42.605013	-81.732988	-73.546670
08784		9.700637	0.802573	0.958325	0.027062	-0.006113	0.050951	42.480864	-81.758547	-73.404598
08785		9.754984	0.761555	1.033920	0.036918	-0.010688	0.043229	42.396413	-81.782798	-73.297006
08786		9.759170	0.734414	1.057594	0.016532	-0.009792	0.034172	42.323921	-81.803376	-73.213236
08787		9.686328	0.701420	1.039086	0.026860	-0.010704	0.032552	42.264216	-81.823478	-73.136479
08788		9.676724	0.761410	1.075102	0.038767	-0.002635	0.026242	42.207952	-81.837943	-73.056238
08789		9.638170	0.701703	1.097306	0.060983	-0.003912	0.025170	42.170873	-81.852302	-72.982592
08790		9.680946	0.734333	1.098373	0.097999	-0.003272	0.023991	42.156484	-81.866160	-72.910374
08791		9.670647	0.762037	1.126187	0.139128	-0.002359	0.028930	42.148489	-81.881298	-72.820886
08792		9.695256	0.987702	1.215524	0.168150	0.000100	0.028347	42.151879	-81.895397	-72.726027
08793		9.702957	1.015328	1.167895	0.158950	0.003935	0.022182	42.158082	-81.905267	-72.639415
08794		9.740527	1.005579	1.128039	0.146966	0.000791	0.013957	42.190224	-81.913535	-72.585864
08795		9.751862	1.085255	1.009185	0.127902	0.003301	0.010715	42.214511	-81.919270	-72.535488
08796		9.683874	1.099746	1.031041	0.090946	-0.005558	0.001450	42.269161	-81.925418	-72.537093
08797		9.678005	1.022793	0.982090	0.061025	-0.003540	-0.000645	42.307665	-81.929684	-72.539778
08798		9.648968	0.903170	0.968049	0.045239	-0.012943	-0.004058	42.372800	-81.936830	-72.578427
08799		9.674570	0.781347	1.037967	0.045406	-0.020023	-0.003775	42.456771	-81.946858	-72.636070
08800		9.665051	0.653374	1.060091	0.074415	-0.009254	-0.002615	42.524414	-81.952990	-72.660365
08801		9.657671	0.626706	1.105111	0.116461	-0.006742	0.001179	42.598166	-81.959313	-72.666570
08802		9.727937	0.715039	1.103180	0.133021	0.003004	0.001382	42.653852	-81.961823	-72.644873
08803		9.681523	0.779435	0.978922	0.164890	0.007703	0.008838	42.692863	-81.965034	-72.587970
08804		9.633497	1.085843	0.959368	0.171371	0.008978	0.005270	42.742446	-81.966548	-72.537917
08805		9.622994	1.190127	0.889452	0.149736	0.003344	0.004990	42.796263	-81.970108	-72.504736
08806		9.578136	1.247496	0.875749	0.126827	0.001988	0.003581	42.844688	-81.973910	-72.479292
08807		9.599150	1.307321	0.924899	0.072633	-0.013426	0.005049	42.900546	-81.984543	-72.492786
08808		9.558219	1.340552	0.936087	0.018830	-0.012043	0.008291	42.912003	-81.996069	-72.492506
08809		9.602592	1.249344	0.940179	-0.010845	-0.011198	0.011113	42.895814	-82.008132	-72.481544
08810		9.625327	1.182580	0.994398	-0.023425	-0.007565	0.021449	42.831239	-82.022896	-72.428940
08811		9.589772	1.139427	0.939009	-0.023904	-0.005372	0.028744	42.738194	-82.039367	-72.347927
08812		9.624602	1.109257	0.979102	-0.016028	-0.013157	0.032216	42.660469	-82.060643	-72.277776
08813		9.708823	1.032817	1.063694	-0.005244	-0.010342	0.036720	42.567043	-82.082270	-72.185593
08814		9.664294	0.967236	0.942904	0.019638	-0.002293	0.043424	42.444516	-82.103258	-72.049588
08815		9.694604	0.925300	0.950688	0.034616	-0.001493	0.048369	42.312512	-82.125586	-71.895412
08816		9.638286	0.939357	0.952163	0.042204	0.002512	0.054211	42.154903	-82.148600	-71.710957
08817		9.641783	0.950856	0.872937	0.029701	0.003824	0.058891	41.970951	-82.172589	-71.507202
08818		9.604323	0.995643	0.806687	0.031931	0.001088	0.058796	41.795035	-82.197809	-71.310232
08819		9.603689	1.041006	0.899748	0.022500	-0.002401	0.063117	41.608642	-82.225896	-71.108203
08820		9.618322	0.982307	0.896552	-0.001063	-0.000412	0.063942	41.399240	-82.253534	-70.896542
08821		9.630178	0.980264	0.875309	-0.009573	0.000016	0.064040	41.181885	-82.280732	-70.681839
08822		9.591593	0.917279	0.899428	-0.007109	-0.003824	0.060295	40.987194	-82.308260	-70.488552
08823		9.714760	0.895018	0.960390	-0.019825	-0.009699	0.058248	40.806668	-82.337294	-70.316965
08824		9.829324	0.727040	0.960584	-0.006186	0.000088	0.056087	40.612518	-82.361379	-70.123718
08825		9.730108	0.707078	0.961463	0.003211	0.005932	0.048779	40.430041	-82.379930	-69.936866
08826		9.706922	0.660272	0.997215	0.005870	0.000971	0.050052	40.257857	-82.401230	-69.758825
08827		9.730196	0.623998	1.059294	-0.012270	-0.000943	0.049439	40.081538	-82.422881	-69.587152
08828		9.662464	0.549621	0.982256	-0.020308	0.007990	0.040937	39.903052	-82.437601	-69.417901
08829		9.637672	0.594162	1.007213	-0.025357	0.003763	0.039047	39.738950	-82.453230	-69.266131
08830		9.653730	0.605253	1.018674	-0.030335	-0.002813	0.031475	39.614751	-82.469133	-69.157440
08831		9.743260	0.561881	0.945348	-0.017471	-0.012350	0.023463	39.550685	-82.486105	-69.102026
08832		9.772103	0.572638	1.045972	0.012336	-0.009739	0.019654	39.508920	-82.500726	-69.051830
08833		9.789241	0.619856	1.063516	0.009158	-0.006149	0.009307	39.490114	-82.509787	-69.026681
08834		9.781649	0.592039	1.109281	0.020124	-0.010446	0.005453	39.502295	-82.519544	-69.026392
08835		9.751150	0.596400	1.092707	0.022955	-0.011784	-0.002934	39.548241	-82.526632	-69.058580
08836		9.679843	0.635059	1.089353	0.032324	-0.005973	-0.001572	39.578650	-82.531851	-69.069618
08837		9.611557	0.690590	1.007072	0.014790	-0.006461	-0.010467	39.630570	-82.533833	-69.112548
08838		9.621989	0.746977	1.077795	0.015848	-0.020327	-0.013076	39.730401	-82.541170	-69.203131
08839		9.728285	0.756198	1.021561	-0.008536	-0.016199	-0.011996	39.801482	-82.546865	-69.278862
08840		9.699635	0.744397	0.918500	0.010567	-0.012758	-0.012611	39.875756	-82.551008	-69.346705
08841		9.666851	0.891655	0.983670	0.011097	-0.019690	-0.013913	39.974581	-82.557504	-69.439069
08842		9.684988	0.975393	1.006986	-0.007607	-0.022987	-0.014919	40.075293	-82.565256	-69.544077
08843		9.669203	0.961693	0.993894	-0.040066	-0.020640	-0.012359	40.142613	-82.572703	-69.634229
08844		9.628214	0.911627	0.904876	-0.041463	-0.019962	-0.012500	40.207608	-82.579983	-69.722786
08845		9.627238	0.878516	0.895932	-0.044922	-0.025980	-0.009211	40.277085	-82.590904	-69.817916
08846		9.601403	0.893637	0.911265	-0.045422	-0.021411	-0.004898	40.318773	-82.601609	-69.885251
08847		9.632249	0.889419	0.924654	-0.042767	-0.026374	-0.003629	40.372269	-82.614750	-69.963015
08848		9.703881	0.851120	0.924997	-0.037816	-0.017434	0.000944	40.387589	-82.625874	-69.999366
08849		9.726422	0.858887	0.881066	-0.030937	-0.016102	0.004351	40.391770	-82.637488	-70.020567
08850		9.738899	0.896216	0.865239	-0.006116	-0.022441	0.004600	40.427489	-82.652150	-70.059179
08851		9.725749	0.823969	0.870371	-0.006646	-0.015511	0.005912	40.438743	-82.664084	-70.073477
08852		9.709397	0.859291	0.951327	0.008310	-0.012407	0.007831	40.443007	-82.675569	-70.072030
08853		9.674193	0.852168	0.902221	0.000235	-0.014181	0.009314	40.442865	-82.688188	-70.070863
08854		9.652073	0.842931	0.943400	-0.012761	-0.016565	0.007941	40.446757	-82.701526	-70.081214
08855		9.694138	0.841941	0.935930	-0.040412	-0.017190	0.005710	40.444348	-82.714117	-70.101240
08856		9.663619	0.845516	0.919561	-0.073024	-0.016052	-0.002364	40.447428	-82.723400	-70.145585
08857		9.677416	0.792287	0.915523	-0.100120	-0.015272	-0.004167	40.439022	-82.731483	-70.194054
08858		9.702340	0.743447	0.890258	-0.118487	-0.016025	-0.009727	40.441262	-82.738017	-70.263810
08859		9.702434	0.743251	0.889396	-0.140149	-0.021552	-0.009959	40.448184	-82.746685	-70.350847
08860		9.713703	0.747252	0.866975	-0.149815	-0.023867	-0.010586	40.458515	-82.756319	-70.446855
08861		9.706357	0.719354	0.912191	-0.157125	-0.025310	-0.012291	40.474965	-82.765755	-70.553298
08862		9.726066	0.710330	0.947474	-0.154055	-0.021787	-0.010887	40.478077	-82.774367	-70.644476
08863		9.727279	0.743699	0.954064	-0.144034	-0.019276	-0.011793	40.482871	-82.781355	-70.731606
08864		9.700338	0.724460	0.963234	-0.123923	-0.016664	-0.010688	40.487702	-82.787806	-70.807099
08865		9.716345	0.739002	0.973656	-0.099348	-0.019555	-0.009875	40.512497	-82.795626	-70.888580
08866		9.712724	0.762844	0.947581	-0.088121	-0.016581	-0.015704	40.555026	-82.800166	-70.981428
08867		9.665048	0.719620	0.912484	-0.070749	-0.015016	-0.011925	40.590082	-82.805233	-71.056733
08868		9.726552	0.711594	0.941521	-0.050297	-0.018183	-0.017248	40.664531	-82.809876	-71.159870
08869		9.698490	0.660123	0.942466	-0.041082	-0.013622	-0.017940	40.733345	-82.812069	-71.252066
08870		9.709589	0.665980	0.920246	-0.026101	-0.010547	-0.016074	40.795106	-82.813807	-71.328429
08871		9.618045	0.763529	0.976037	-0.025837	-0.014004	-0.016753	40.869802	-82.816585	-71.417749
08872		9.669906	0.736025	0.939629	-0.047155	-0.016982	-0.021572	40.957613	-82.819019	-71.532560
08873		9.640799	0.651375	0.932638	-0.034877	-0.017234	-0.022687	41.057262	-82.820928	-71.652250
08874		9.678493	0.726068	0.994389	-0.028717	-0.018555	-0.021755	41.161089	-82.823925	-71.772544
08875		9.636443	0.802836	0.903208	-0.029602	-0.014194	-0.015779	41.231128	-82.827081	-71.859342
08876		9.647124	0.857984	0.975175	-0.025622	-0.015060	-0.020399	41.321745	-82.829041	-71.964521
08877		9.673035	0.845230	0.956213	-0.062153	-0.020054	-0.023386	41.416914	-82.831803	-72.095445
08878		9.705533	0.751859	0.978893	-0.055945	-0.023659	-0.028149	41.542699	-82.834464	-72.253582
08879		9.790954	0.663574	0.973866	-0.051058	-0.020678	-0.028289	41.662997	-82.835562	-72.403422
08880		9.582386	0.773957	0.916123	-0.043040	-0.005905	-0.025302	41.732731	-82.831636	-72.497618
08881		9.744384	0.815806	0.952043	-0.075978	-0.022629	-0.030064	41.850671	-82.832827	-72.659475
08882		9.770097	0.646052	0.926187	-0.060035	-0.017869	-0.038106	41.990323	-82.829055	-72.833922
08883		9.762924	0.778652	0.977870	-0.033204	-0.012912	-0.030085	42.103150	-82.826014	-72.965925
08884		9.794585	0.968632	1.006775	-0.031289	-0.009798	-0.032519	42.215421	-82.820872	-73.096234
08885		9.728852	1.004126	0.951867	-0.049106	-0.000827	-0.035776	42.301032	-82.810453	-73.209993
08886		9.735662	1.035428	0.906161	-0.036035	-0.000851	-0.031505	42.379421	-82.801857	-73.308844
08887		9.661120	1.084495	0.794449	-0.042870	0.003756	-0.030090	42.435047	-82.791659	-73.388782
08888		9.573693	1.061387	0.688109	-0.039011	-0.000843	-0.025113	42.490016	-82.785499	-73.465784
08889		9.599449	1.048838	0.670539	-0.054961	-0.005621	-0.017047	42.523597	-82.784294	-73.530487
08890		9.584412	1.068819	0.666957	-0.070127	-0.010061	-0.012229	42.545975	-82.787002	-73.592615
08891		9.683658	0.974966	0.753221	-0.076524	-0.007689	-0.009459	42.548246	-82.789605	-73.638211
08892		9.669816	0.869908	0.750699	-0.090156	-0.000745	-0.012302	42.530979	-82.788353	-73.671924
08893		9.661714	0.808186	0.789228	-0.083427	-0.000668	-0.010973	42.512850	-82.787407	-73.700944
08894		9.664639	0.751251	0.806447	-0.066642	0.001918	-0.010648	42.495406	-82.785674	-73.720932
08895		9.677214	0.713681	0.889492	-0.055290	0.008425	-0.008779	42.458278	-82.781736	-73.714551
08896		9.666490	0.661264	0.817182	-0.024509	0.014942	-0.008400	42.417721	-82.775371	-73.686887
08897		9.666316	0.662000	0.818634	-0.011376	0.012650	-0.009857	42.396526	-82.769229	-73.671205
08898		9.641525	0.662580	0.751352	0.005263	0.022310	-0.009767	42.355261	-82.759219	-73.625645
08899		9.630801	0.610807	0.679429	0.008170	0.016290	-0.012263	42.342316	-82.750605	-73.606989
08900		9.652161	0.669873	0.733046	0.011522	0.008032	-0.013424	42.360256	-82.745234	-73.617465
08901		9.672997	0.776864	0.881038	-0.021055	0.002012	-0.012305	42.374009	-82.742649	-73.642602
08902		9.687459	0.677634	0.782282	-0.063492	0.011591	-0.021840	42.366106	-82.732526	-73.670367
08903		9.673877	0.655691	0.883290	-0.072611	0.002508	-0.032528	42.415806	-82.721917	-73.761523
08904		9.681467	0.610636	0.933571	-0.103277	0.008070	-0.040649	42.457764	-82.706011	-73.862539
08905		9.744182	0.590641	0.878093	-0.102504	0.008434	-0.043872	42.509338	-82.688491	-73.972858
08906		9.701186	0.559929	0.877743	-0.087793	0.014986	-0.041323	42.540819	-82.669389	-74.054360
08907		9.688241	0.682580	0.901336	-0.077128	0.016487	-0.038931	42.565791	-82.650367	-74.123207
08908		9.619078	0.776182	0.833038	-0.053086	0.022965	-0.039843	42.587767	-82.628467	-74.175094
08909		9.651684	0.875827	0.875474	-0.040114	0.019486	-0.043346	42.638786	-82.606459	-74.248827
08910		9.605324	0.902924	0.859648	-0.025789	0.025857	-0.039185	42.665111	-82.583589	-74.289317
08911		9.618052	1.011741	0.866195	-0.024163	0.023969	-0.034070	42.681318	-82.563284	-74.318734
08912		9.652286	0.986297	0.908019	-0.031974	0.018701	-0.033252	42.705934	-82.545726	-74.361095
08913		9.670132	0.912623	0.929170	-0.037930	0.010513	-0.030991	42.744025	-82.532279	-74.420540
08914		9.678424	0.900537	0.988111	-0.050523	0.014168	-0.029094	42.757836	-82.518237	-74.462743
08915		9.707372	0.831571	0.988390	-0.063344	0.019041	-0.032182	42.759652	-82.500735	-74.500293
08916		9.734980	0.695857	0.971736	-0.053116	0.014503	-0.032975	42.783152	-82.485038	-74.553739
08917		9.692076	0.664496	0.971417	-0.038176	0.020041	-0.034093	42.802278	-82.466369	-74.594206
08918		9.671954	0.677011	0.937236	-0.020639	0.016967	-0.033173	42.837373	-82.449556	-74.640603
08919		9.673509	0.780504	0.964330	-0.000179	0.016178	-0.032924	42.885560	-82.432958	-74.688428
08920		9.699873	0.803276	0.956442	0.004204	0.015360	-0.030529	42.930850	-82.417842	-74.730707
08921		9.654232	0.863151	0.948187	0.009480	0.018543	-0.032283	42.975224	-82.400493	-74.769105
08922		9.643916	0.814103	0.875642	0.006107	0.018504	-0.032932	43.019542	-82.383114	-74.809400
08923		9.649329	0.893779	0.926724	0.021413	0.009892	-0.033681	43.100000	-82.368829	-74.877308
08924		9.683723	0.868830	0.967070	0.002752	0.010177	-0.035438	43.174098	-82.353935	-74.949453
08925		9.674110	0.853473	0.902211	0.000786	0.009463	-0.035971	43.250557	-82.338908	-75.025256
08926		9.654481	0.755825	0.953025	-0.004614	0.011135	-0.040099	43.331455	-82.321761	-75.108609
08927		9.648933	0.716812	0.912799	0.001115	0.012079	-0.040528	43.413892	-82.303822	-75.190260
08928		9.632880	0.706273	0.902117	0.011458	0.011192	-0.042224	43.509582	-82.285780	-75.279243
08929		9.672400	0.725384	0.983687	0.018955	0.005793	-0.048954	43.645475	-82.267084	-75.404531
08930		9.703229	0.759601	1.007814	0.028152	0.010421	-0.049626	43.774469	-82.246385	-75.517475
08931		9.740984	0.823170	0.986457	0.040063	0.010077	-0.049158	43.909318	-82.225760	-75.629516
08932		9.714223	0.842161	1.005142	0.039142	0.014568	-0.051790	44.037713	-82.202418	-75.735550
08933		9.751394	0.872643	0.975466	0.047978	0.010735	-0.052688	44.184421	-82.180045	-75.854996
08934		9.667547	0.909954	0.996649	0.056449	0.012780	-0.055807	44.338425	-82.155760	-75.976831
08935		9.709185	0.950257	0.999521	0.061287	0.009742	-0.052074	44.492253	-82.133952	-76.095780
08936		9.719255	0.927548	0.970570	0.057609	0.013145	-0.052002	44.632992	-82.110958	-76.203594
08937		9.600040	0.959147	0.943803	0.061919	0.014778	-0.052533	44.772420	-82.086833	-76.307652
08938		9.637466	1.022893	0.922435	0.064815	0.016891	-0.044549	44.883269	-82.065260	-76.381071
08939		9.605740	0.998443	0.899920	0.059318	0.014908	-0.047766	45.005660	-82.042952	-76.469443
08940		9.570545	1.064861	0.869064	0.076068	0.011569	-0.043545	45.134459	-82.023893	-76.554457
08941		9.657882	1.047707	0.881755	0.067660	0.007102	-0.037464	45.253484	-82.008873	-76.634612
08942		9.646382	1.046672	0.902836	0.068276	0.006079	-0.034090	45.365757	-81.995827	-76.707398
08943		9.650175	1.026624	0.927239	0.064972	0.003605	-0.031793	45.476489	-81.984483	-76.780739
08944		9.632134	1.029908	1.002099	0.076015	0.005367	-0.030999	45.585880	-81.972946	-76.846225
08945		9.642266	0.971746	0.964723	0.067484	0.011782	-0.034676	45.681980	-81.957107	-76.903339
08946		9.641376	0.908327	0.948782	0.068173	0.008348	-0.028355	45.770275	-81.945425	-76.951973
08947		9.660713	0.903183	0.985287	0.074907	0.008648	-0.035643	45.881877	-81.930414	-77.020452
08948		9.644809	0.892294	0.974002	0.075764	0.012478	-0.031153	45.969887	-81.915904	-77.064592
08949		9.655249	0.867613	0.945380	0.077091	0.014235	-0.033960	46.061227	-81.899331	-77.111346
08950		9.615422	0.889211	0.873266	0.083267	0.012983	-0.033024	46.156817	-81.883832	-77.158602
08951		9.653038	0.984994	0.858748	0.090923	0.008659	-0.029005	46.257911	-81.871498	-77.207207
08952		9.646397	1.060580	0.928330	0.086131	0.003222	-0.025906	46.363343	-81.862804	-77.262156
08953		9.650960	1.174708	0.984502	0.070393	0.005666	-0.028407	46.459275	-81.851876	-77.317432
08954		9.650403	1.144615	0.976338	0.040568	0.002795	-0.033075	46.559116	-81.840338	-77.393561
08955		9.658470	1.101067	1.025971	0.024287	0.003832	-0.036002	46.654364	-81.826943	-77.474837
08956		9.642310	1.022642	0.998806	0.000337	0.003148	-0.039062	46.746079	-81.812706	-77.565815
08957		9.668051	0.945413	0.965751	-0.000057	0.002975	-0.037442	46.833216	-81.799009	-77.652993
08958		9.632417	0.909042	0.910150	0.006672	0.003124	-0.036102	46.919770	-81.785986	-77.735882
08959		9.671518	0.895378	0.982893	0.030385	-0.001023	-0.034133	47.026412	-81.775199	-77.825150
08960		9.682283	0.903906	0.961341	0.048147	0.000928	-0.031989	47.131546	-81.764733	-77.902326
08961		9.594012	0.928558	0.947894	0.071778	-0.000800	-0.032961	47.257587	-81.754301	-77.987238
08962		9.633205	0.949024	1.027912	0.090469	0.002737	-0.032011	47.381200	-81.743067	-78.058831
08963		9.617568	1.005371	1.031181	0.081547	-0.002999	-0.034965	47.524028	-81.732587	-78.155054
08964		9.712022	1.050525	1.004872	0.075274	0.000520	-0.030220	47.640252	-81.722924	-78.227186
08965		9.680849	0.990557	0.973411	0.072294	0.000618	-0.032492	47.760151	-81.712037	-78.305599
08966		9.629978	0.972891	0.913170	0.080506	-0.002147	-0.036661	47.903476	-81.700627	-78.402773
08967		9.664779	0.950433	0.952126	0.085826	-0.007221	-0.040153	48.073526	-81.689429	-78.524040
08968		9.690910	0.941443	0.933148	0.080500	-0.008038	-0.041346	48.245575	-81.678188	-78.650229
08969		9.705978	0.927802	0.935518	0.092839	-0.004462	-0.043341	48.419066	-81.664470	-78.770919
08970		9.690223	0.917850	0.922853	0.100877	-0.002538	-0.044795	48.594750	-81.649550	-78.888938
08971		9.669984	0.998497	0.900327	0.115873	-0.001600	-0.039914	48.763248	-81.636117	-78.991251
08972		9.662872	1.009340	0.952808	0.121645	-0.002873	-0.045930	48.953625	-81.620741	-79.112270
08973		9.646884	1.067255	0.955048	0.126854	0.000372	-0.047640	49.141337	-81.603130	-79.227654
08974		9.661811	1.054693	0.957594	0.119961	-0.001028	-0.050969	49.336944	-81.584739	-79.354805
08975		9.630483	1.064059	0.940858	0.115498	-0.003908	-0.052411	49.541419	-81.566531	-79.493722
08976		9.645321	1.085341	0.950437	0.110259	-0.007124	-0.050627	49.747073	-81.550430	-79.636787
08977		9.624901	1.132706	0.919501	0.103830	-0.004832	-0.047927	49.935029	-81.534385	-79.765774
08978		9.650750	1.158211	0.907762	0.109993	-0.006023	-0.046937	50.126892	-81.519353	-79.895086
08979		9.634625	1.215478	0.909299	0.111065	-0.003274	-0.037504	50.287649	-81.507205	-79.992392
08980		9.629671	1.243247	0.882542	0.101037	0.000053	-0.040476	50.439670	-81.492693	-80.086562
08981		9.650987	1.291066	0.845695	0.099404	-0.004145	-0.041640	50.605619	-81.478953	-80.195880
08982		9.689664	1.348097	0.931705	0.084856	-0.001419	-0.040468	50.751853	-81.464896	-80.293698
08983		9.643463	1.272853	0.889963	0.065933	0.002005	-0.041743	50.879849	-81.448801	-80.384038
08984		9.612376	1.246477	0.866816	0.047919	-0.002625	-0.039338	51.005071	-81.435613	-80.481878
08985		9.634426	1.192157	0.809286	0.041891	-0.000189	-0.038293	51.116783	-81.421789	-80.569688
08986		9.638271	1.206863	0.841238	0.044469	-0.000400	-0.034379	51.220998	-81.409954	-80.648366
08987		9.611901	1.156627	0.843664	0.030746	-0.003369	-0.032517	51.321448	-81.399804	-80.731249
08988		9.642361	1.157074	0.858479	0.025645	0.000627	-0.032697	51.407413	-81.388314	-80.802389
08989		9.633756	1.104832	0.786186	0.032357	0.000851	-0.031327	51.493081	-81.377152	-80.869393
08990		9.626386	1.148231	0.846470	0.045577	-0.003563	-0.029624	51.595242	-81.368502	-80.945361
08991		9.680374	1.219488	0.944067	0.036289	-0.003619	-0.026295	51.684221	-81.361157	-81.013439
08992		9.660584	1.195836	0.899777	0.027928	-0.002112	-0.024187	51.758972	-81.354400	-81.071922
08993		9.659957	1.232275	0.906345	0.030798	0.000215	-0.024864	51.829881	-81.346313	-81.124906
08994		9.659674	1.234882	0.905812	0.021699	-0.004548	-0.024184	51.908067	-81.340395	-81.190468
08995		9.648439	1.232728	0.926582	0.015285	-0.002284	-0.021542	51.969571	-81.334669	-81.242932
08996		9.663765	1.216774	0.930430	0.015185	0.000087	-0.024517	52.030894	-81.326940	-81.295219
08997		9.648256	1.203618	0.919126	0.002009	-0.001498	-0.022272	52.083988	-81.320591	-81.346872
08998		9.628530	1.179349	0.875275	-0.000474	-0.003665	-0.023201	52.144236	-81.314759	-81.407154
08999		9.648554	1.140308	0.904521	-0.006550	-0.004861	-0.021199	52.199768	-81.310062	-81.466236
09000		9.633117	1.126852	0.893105	-0.007038	-0.002650	-0.022563	52.251640	-81.304145	-81.521844
09001		9.628638	1.118004	0.860497	0.003953	-0.000733	-0.021730	52.302043	-81.297744	-81.569651
09002		9.643640	1.135784	0.871064	0.009246	-0.009419	-0.024178	52.386841	-81.293446	-81.649128
09003		9.638742	1.161408	0.844551	0.015943	-0.009145	-0.031402	52.490921	-81.285569	-81.744290
09004		9.626656	1.227455	0.878778	0.020471	-0.008583	-0.026956	52.585770	-81.279676	-81.827439
09005		9.630196	1.275223	0.916968	0.021581	-0.011718	-0.030812	52.699055	-81.272912	-81.928649
09006		9.618523	1.307476	0.943941	0.008943	-0.011912	-0.028173	52.799683	-81.267570	-82.024332
09007		9.633942	1.291829	0.946833	-0.004229	-0.013514	-0.025925	52.892228	-81.263604	-82.119523
09008		9.613855	1.301352	0.909009	-0.012099	-0.014234	-0.022457	52.974671	-81.261625	-82.209022
09009		9.649721	1.244040	0.941735	-0.015797	-0.010898	-0.022501	53.044985	-81.258283	-82.288428
09010		9.635309	1.162847	0.915794	-0.021485	-0.011942	-0.022107	53.114362	-81.255638	-82.370121
09011		9.640413	1.107761	0.933457	-0.015244	-0.009528	-0.013517	53.160748	-81.255916	-82.424999
09012		9.667449	1.061460	0.908442	-0.019136	-0.011055	-0.014589	53.211988	-81.256391	-82.486997
09013		9.640797	1.076385	0.924644	-0.001091	-0.012336	-0.013039	53.273810	-81.257836	-82.549286
09014		9.662147	1.120598	0.887687	0.014131	-0.012331	-0.011779	53.341669	-81.260021	-82.608820
09015		9.630754	1.158366	0.878140	0.012720	-0.011688	-0.011923	53.407033	-81.261736	-82.666687
09016		9.615054	1.177752	0.872687	0.008059	-0.013538	-0.009773	53.470632	-81.265236	-82.725422
09017		9.577042	1.221691	0.916676	0.011757	-0.016871	-0.009728	53.546188	-81.269708	-82.794157
09018		9.623662	1.201539	0.934424	-0.005495	-0.015313	-0.005906	53.598892	-81.275571	-82.849735
09019		9.630358	1.195795	0.879144	-0.001905	-0.016275	-0.008836	53.662999	-81.280230	-82.914805
09020		9.646143	1.178195	0.881380	-0.000426	-0.022904	-0.004741	53.739062	-81.289186	-82.991039
09021		9.624456	1.169547	0.922108	-0.001797	-0.018645	-0.005859	53.803984	-81.295999	-83.056868
09022		9.645056	1.129066	0.949849	-0.005689	-0.020174	-0.006927	53.873871	-81.302994	-83.129911
09023		9.583362	1.135205	0.917589	-0.006868	-0.020616	-0.010681	53.952708	-81.308215	-83.212754
09024		9.619138	1.110817	0.956188	-0.012858	-0.024156	-0.014282	54.046969	-81.313106	-83.314637
09025		9.671362	1.152349	0.933508	-0.024726	-0.024044	-0.014846	54.135347	-81.317508	-83.417481
09026		9.719766	1.149021	0.871473	-0.026522	-0.023563	-0.013376	54.218179	-81.322575	-83.515682
09027		9.679193	1.198692	0.803452	-0.027322	-0.023841	-0.018737	54.313173	-81.325051	-83.626719
09028		9.698162	1.260697	0.851871	-0.035643	-0.028305	-0.021254	54.422671	-81.327983	-83.757214
09029		9.682381	1.280806	0.845685	-0.046216	-0.026463	-0.024636	54.527847	-81.328520	-83.889501
09030		9.616095	1.277241	0.780999	-0.051525	-0.027348	-0.025834	54.635404	-81.328919	-84.027230
09031		9.670817	1.313996	0.869993	-0.051567	-0.030960	-0.024853	54.751814	-81.330768	-84.173982
09032		9.620311	1.291848	0.809107	-0.057334	-0.029688	-0.018825	54.848139	-81.335142	-84.303708
09033		9.630155	1.247351	0.857611	-0.047794	-0.030719	-0.017192	54.949577	-81.340423	-84.433125
09034		9.630745	1.214760	0.848368	-0.033253	-0.023793	-0.014692	55.032860	-81.344729	-84.535699
09035		9.646572	1.197659	0.849898	-0.013478	-0.032765	-0.012732	55.150948	-81.352712	-84.662065
09036		9.647264	1.164908	0.839811	-0.000918	-0.030222	-0.009801	55.262414	-81.361363	-84.774404
09037		9.652889	1.109131	0.855509	0.002668	-0.021622	-0.009068	55.347748	-81.367366	-84.858278
09038		9.655539	1.059303	0.759728	0.022519	-0.023357	-0.009057	55.450079	-81.374078	-84.947777
09039		9.649833	1.032757	0.803566	0.034698	-0.030527	-0.008190	55.579908	-81.383338	-85.058091
09040		9.696710	1.012960	0.819510	0.040573	-0.024612	-0.007571	55.693662	-81.391108	-85.148704
09041		9.680484	1.066204	0.819786	0.053200	-0.024381	-0.010254	55.819709	-81.397340	-85.244467
09042		9.679442	1.135156	0.831048	0.060450	-0.022720	-0.008521	55.941281	-81.403996	-85.331447
09043		9.643540	1.162066	0.787662	0.070747	-0.023415	-0.010117	56.074380	-81.409920	-85.424170
09044		9.621527	1.188028	0.834386	0.075135	-0.024086	-0.007686	56.207221	-81.417352	-85.514051
09045		9.647031	1.243402	0.827796	0.064673	-0.024625	-0.008066	56.336668	-81.424575	-85.606598
09046		9.642108	1.267418	0.799278	0.063412	-0.022737	-0.006200	56.455774	-81.432227	-85.689349
09047		9.657419	1.284148	0.807298	0.061995	-0.022094	-0.006331	56.572374	-81.439420	-85.770452
09048		9.611927	1.322524	0.706028	0.064535	-0.022245	-0.011012	56.700976	-81.444558	-85.862189
09049		9.613717	1.306580	0.616618	0.086692	-0.023024	-0.012067	56.846987	-81.449240	-85.958722
09050		9.636157	1.363918	0.774453	0.078482	-0.039424	-0.015192	57.047523	-81.457666	-86.115070
09051		9.645257	1.387729	0.835081	0.045652	-0.028543	-0.007272	57.178125	-81.466287	-86.219795
09052		9.637034	1.332441	0.759709	0.046242	-0.036720	-0.001927	57.324730	-81.480136	-86.340361
09053		9.656485	1.393447	0.805556	0.053615	-0.037409	0.002780	57.468357	-81.496268	-86.453636
09054		9.627548	1.294252	0.765912	0.047872	-0.036125	0.008806	57.592816	-81.515033	-86.550773
09055		9.570955	1.077671	0.603930	0.080304	-0.054396	0.013090	57.786855	-81.541274	-86.699543
09056		9.677990	1.053121	0.810480	0.126933	-0.084999	0.022807	58.089418	-81.581600	-86.930955
09057		9.715162	1.175274	1.066963	0.089510	-0.072342	0.031927	58.312293	-81.622236	-87.103514
09058		9.658341	1.040653	0.838387	0.047690	-0.044580	0.017452	58.450371	-81.647544	-87.214549
09059		9.669082	0.895703	0.587396	0.081774	-0.042918	-0.004855	58.648502	-81.661250	-87.366556
09060		9.700663	0.811168	0.662184	0.109635	-0.067724	-0.009526	58.955973	-81.680092	-87.612862
09061		9.866885	0.889347	1.082718	0.069172	-0.094570	-0.001859	59.316587	-81.710228	-87.936355
09062		9.960694	0.699224	0.888650	0.019540	-0.052046	-0.004697	59.512351	-81.726505	-88.121930
09063		9.965065	0.660912	0.547100	0.072107	-0.019151	-0.017459	59.652335	-81.726690	-88.220747
09064		9.875243	0.701111	0.618206	0.098085	-0.026704	-0.036244	59.870170	-81.719892	-88.383134
09065		9.775961	0.719388	0.624297	0.090081	-0.028681	-0.034695	60.086758	-81.714160	-88.548958
09066		9.654511	0.845841	0.613251	0.147552	-0.028525	-0.030592	60.327483	-81.710525	-88.705816
09067		9.762130	0.925745	0.676004	0.206012	-0.043509	-0.012049	60.616968	-81.720064	-88.878183
09068		9.665993	1.373245	0.819685	0.315506	-0.034454	-0.009932	60.934500	-81.728201	-89.015433
09069		9.588744	1.697386	0.781572	0.341558	-0.009553	-0.010301	61.182136	-81.728947	-89.067026
09070		9.472336	1.677384	0.410511	0.404830	-0.004435	-0.017493	61.461948	-81.724830	-89.114425
09071		9.551010	1.798013	0.735849	0.468276	-0.044522	-0.002103	61.888298	-81.739138	-89.273242
09072		9.479412	2.051697	0.788435	0.434663	-0.039736	0.004710	62.267153	-81.755630	-89.403451
09073		9.416799	2.186965	0.601991	0.428257	-0.071924	0.010029	62.746813	-81.783018	-89.639286
09074		9.571083	2.194638	0.990700	0.318847	-0.088099	0.018754	63.207960	-81.818945	-89.919682
09075		9.543340	1.813792	0.626498	0.199284	-0.054711	0.022139	63.477929	-81.847615	-90.076177
09076		9.529976	1.361658	0.591464	0.123409	-0.063522	0.033272	63.717960	-81.884271	-90.246295
09077		9.617101	0.863042	0.298207	0.064791	-0.057070	0.041844	63.887341	-81.923488	-90.378995
09078		9.616565	0.303538	-0.181991	0.174994	-0.053218	0.053642	64.086726	-81.967883	-90.478176
09079		9.785476	0.037469	0.151500	0.314739	-0.071962	0.074201	64.400377	-82.027360	-90.611916
09080		9.751417	-0.175691	0.233458	0.376914	-0.054922	0.089444	64.662992	-82.090600	-90.658085
09081		9.525810	-0.048193	0.359545	0.521197	-0.065885	0.093958	65.044106	-82.158643	-90.740472
09082		9.495468	0.382092	0.347972	0.662631	-0.053127	0.076749	65.492383	-82.214798	-90.808773
09083		9.434933	0.751645	0.797038	0.722821	-0.076138	0.073960	66.072241	-82.274610	-90.975125
09084		9.509929	0.619043	0.450195	0.679013	-0.052709	0.068378	66.551007	-82.326114	-91.064695
09085		9.494409	0.716991	0.607092	0.813572	-0.076056	0.084206	67.176212	-82.390871	-91.224293
09086		9.435134	1.168207	0.725356	0.882418	-0.064003	0.086027	67.796639	-82.453952	-91.339169
09087		9.538165	1.777403	1.197658	0.871399	-0.089030	0.085226	68.519458	-82.521521	-91.563760
09088		9.460532	2.231377	1.343606	0.713506	-0.067844	0.076245	69.087225	-82.579791	-91.723099
09089		9.335995	2.555115	1.209250	0.602891	-0.084812	0.048907	69.709901	-82.626380	-92.001781
09090		9.454222	3.050678	1.958075	0.389137	-0.097485	0.020988	70.310641	-82.660208	-92.381741
09091		9.419224	3.206112	1.992704	-0.011995	-0.085818	-0.018817	70.695126	-82.669711	-92.775439
09092		9.509231	2.860448	1.113143	-0.392881	-0.092779	-0.046548	70.931549	-82.665348	-93.239835
09093		9.168676	1.882511	-0.448442	-0.454761	-0.092895	-0.051946	71.140510	-82.657749	-93.712343
09094		9.084394	1.787133	0.093391	-0.419964	-0.180068	-0.029100	71.704860	-82.678129	-94.523033
09095		9.570820	1.944033	-0.049774	-0.699043	-0.136908	-0.037507	71.940775	-82.685429	-95.163809
09096		9.687612	1.579770	-0.842936	-0.707266	-0.133709	-0.068157	72.200658	-82.675151	-95.833485
09097		9.971926	1.659153	-0.009531	-0.617317	-0.216276	-0.074984	72.871034	-82.674599	-96.865096
09098		10.258133	1.506812	0.632088	-0.558415	-0.173924	-0.068464	73.385929	-82.669261	-97.705921
09099		9.775051	1.170862	0.823222	-0.403592	-0.101648	-0.070017	73.681204	-82.650532	-98.235898
09100		9.577197	1.058466	1.037012	-0.392185	-0.110925	-0.062085	74.011035	-82.637312	-98.794142
09101		9.797988	0.986037	0.527922	-0.406471	-0.090917	-0.040971	74.220361	-82.632219	-99.239149
09102		9.798997	0.803018	0.200950	-0.289134	-0.097860	-0.021511	74.503277	-82.638727	-99.690559
09103		9.999328	0.465545	0.128667	-0.222418	-0.103847	-0.001378	74.827326	-82.656925	-100.144899
09104		9.842698	0.187238	-0.285453	-0.101013	-0.086795	0.015331	75.130513	-82.681573	-100.508029
09105		9.690976	0.367245	-0.229648	0.046725	-0.109515	0.018638	75.615432	-82.710968	-100.969036
09106		9.640769	0.715598	0.001061	0.079974	-0.111634	0.017659	76.133743	-82.739687	-101.444440
09107		9.674187	0.769268	0.092604	0.079450	-0.118691	0.031799	76.671706	-82.776590	-101.939952
09108		9.786835	0.777519	-0.002228	0.139732	-0.103733	0.043510	77.171701	-82.817623	-102.362302
09109		9.837256	0.981960	-0.016910	0.197179	-0.095674	0.063839	77.653753	-82.868461	-102.733389
09110		9.755863	1.270630	0.109381	0.190779	-0.085008	0.067802	78.086620	-82.919976	-103.058523
09111		9.834713	1.321100	-0.073176	0.120965	-0.066418	0.074917	78.393266	-82.972939	-103.296783
09112		9.725112	1.267136	-0.135942	0.028649	-0.083976	0.092803	78.715581	-83.037890	-103.604052
09113		9.745690	1.289327	0.163022	0.000974	-0.090573	0.079998	79.069646	-83.096039	-103.959276
09114		9.827090	1.225925	0.049767	-0.052770	-0.061119	0.071259	79.268914	-83.145997	-104.189520
09115		9.832680	0.865914	-0.186291	-0.054744	-0.057323	0.062998	79.459039	-83.190702	-104.411708
09116		9.797003	0.804176	-0.026615	0.008474	-0.051242	0.056713	79.665327	-83.231253	-104.613641
09117		9.793925	0.775058	0.017353	0.022895	-0.050290	0.054385	79.879235	-83.270197	-104.814945
09118		9.644802	0.850458	0.065446	0.050043	-0.032431	0.050097	80.029488	-83.304982	-104.936439
09119		9.724647	0.927048	0.106645	0.027963	-0.034183	0.045846	80.179898	-83.337382	-105.070859
09120		9.769869	0.913122	0.042454	-0.028178	-0.007877	0.043011	80.174695	-83.365718	-105.080947
09121		9.910399	0.722234	-0.135375	-0.014687	-0.012009	0.043142	80.196671	-83.394404	-105.110654
09122		9.974802	0.954636	-0.078456	0.008766	-0.001749	0.031924	80.192268	-83.415893	-105.100234
09123		9.921472	1.027256	-0.119645	0.003713	-0.008888	0.014646	80.233881	-83.428183	-105.139094
09124		9.867652	1.169766	-0.018718	0.000695	-0.008949	0.012391	80.276857	-83.439346	-105.181022
09125		9.778605	1.290927	0.118275	0.002900	0.001281	0.005816	80.275720	-83.445662	-105.177318
09126		9.711502	1.201877	0.131740	-0.014543	0.000295	0.005912	80.270134	-83.452267	-105.179153
09127		9.618689	1.231008	0.309948	0.003045	0.007371	0.010152	80.235401	-83.460439	-105.141550
09128		9.597448	1.233730	0.141808	-0.028535	0.017647	0.021272	80.123052	-83.474016	-105.043996
09129		9.664046	1.079625	0.099719	-0.016119	0.013412	0.036493	80.024311	-83.496445	-104.953023
09130		9.725581	1.185304	0.061627	0.008051	0.026588	0.037745	79.873061	-83.518374	-104.795229
09131		9.746627	1.289310	-0.100694	0.002213	0.031545	0.044236	79.686052	-83.543272	-104.604859
09132		9.824040	1.342196	-0.137569	-0.001242	0.028856	0.038109	79.515571	-83.565059	-104.433089
09133		9.828227	1.362117	-0.183207	-0.033865	0.036134	0.038378	79.287641	-83.586032	-104.222358
09134		9.824542	1.232180	-0.143117	-0.045835	0.038447	0.034855	79.044181	-83.604801	-104.002882
09135		9.786360	1.252131	-0.045367	-0.032974	0.042225	0.029265	78.792344	-83.619781	-103.767596
09136		9.797976	1.241970	0.151123	-0.063285	0.042077	0.027133	78.525952	-83.633582	-103.535125
09137		9.783638	1.041655	0.205452	-0.083651	0.048189	0.022656	78.219655	-83.643913	-103.274269
09138		9.767601	0.988822	0.198073	-0.064561	0.061717	0.024802	77.853977	-83.653792	-102.942645
09139		9.732289	0.964233	0.239993	-0.085549	0.058287	0.028981	77.486761	-83.666074	-102.621601
09140		9.764662	0.856320	0.112748	-0.109520	0.053783	0.037564	77.118346	-83.683615	-102.313157
09141		9.760065	1.010080	0.110385	-0.095739	0.053454	0.045178	76.747557	-83.705106	-101.994413
09142		9.812203	1.077777	0.095343	-0.088088	0.058831	0.044027	76.354041	-83.725133	-101.648385
09143		9.785229	1.133806	0.043972	-0.088869	0.056120	0.041791	75.973257	-83.743901	-101.315652
09144		9.674480	1.256242	0.152515	-0.076674	0.059693	0.039493	75.583290	-83.760776	-100.966643
09145		9.647310	1.402470	0.462910	-0.128834	0.049932	0.040367	75.208750	-83.779160	-100.663246
09146		9.702347	1.357394	0.381795	-0.189584	0.062923	0.039827	74.733113	-83.795192	-100.293164
09147		9.751416	1.082694	0.321671	-0.194980	0.065758	0.047903	74.225153	-83.814782	-99.893705
09148		9.789949	0.952302	0.223054	-0.198508	0.082454	0.060236	73.610019	-83.838203	-99.388487
09149		9.762940	0.768910	0.007391	-0.181615	0.088170	0.074597	72.947813	-83.867839	-98.826225
09150		9.831648	0.849308	0.006811	-0.130627	0.098743	0.082345	72.243512	-83.899302	-98.192266
09151		9.673593	0.601724	-0.006256	-0.144077	0.112753	0.095874	71.428830	-83.934606	-97.455102
09152		9.654495	0.417611	-0.109795	-0.056650	0.111255	0.099891	70.657033	-83.971417	-96.710728
09153		9.623331	0.895594	0.146636	0.021206	0.133226	0.100856	69.805333	-84.003238	-95.841213
09154		9.457972	1.377474	0.750531	-0.128459	0.149497	0.070601	68.836445	-84.014248	-94.940108
09155		9.697324	0.798378	0.253624	-0.403355	0.159196	0.053625	67.691575	-84.012275	-94.020447
09156		9.897613	0.082767	-0.013836	-0.363482	0.141468	0.044813	66.679537	-84.007930	-93.211358
09157		10.048159	0.454206	0.371809	-0.330275	0.140122	0.037404	65.710263	-83.998403	-92.426140
09158		9.942277	0.515437	0.213442	-0.330907	0.156398	0.014652	64.717174	-83.971901	-91.617296
09159		9.858638	0.560097	0.171543	-0.282356	0.151335	-0.000876	63.820411	-83.937074	-90.877314
09160		9.788022	0.684504	0.283862	-0.235951	0.144369	-0.000061	62.991937	-83.903472	-90.179195
09161		9.734949	0.960378	0.429328	-0.206149	0.144000	-0.004675	62.201245	-83.866388	-89.501883
09162		9.768106	1.174704	0.415454	-0.232364	0.144734	-0.000735	61.392032	-83.830287	-88.820981
09163		9.788922	1.262933	0.320891	-0.255877	0.140594	0.004579	60.582574	-83.796775	-88.153361
09164		9.812916	1.464032	0.576013	-0.260406	0.140178	0.008995	59.769763	-83.764753	-87.484920
09165		9.654711	1.360069	0.583604	-0.311217	0.151748	0.013782	58.870104	-83.730435	-86.758372
09166		9.403252	1.284091	0.633160	-0.300008	0.144319	0.018223	58.007313	-83.699481	-86.062403
09167		9.305729	1.428777	0.521448	-0.333138	0.149645	0.023549	57.094420	-83.668106	-85.335089
09168		9.411012	1.536109	0.501665	-0.377466	0.135282	0.023123	56.228007	-83.639979	-84.680056
09169		9.703376	1.586720	0.399221	-0.481193	0.149482	0.030795	55.226098	-83.609557	-83.948446
09170		9.773641	1.340330	0.216009	-0.520029	0.152887	0.033352	54.189752	-83.577919	-83.204540
09171		9.872951	1.352625	0.234606	-0.479198	0.154465	0.038529	53.162570	-83.546488	-82.446255
09172		9.908401	1.338277	0.382609	-0.460191	0.157272	0.034598	52.157176	-83.510943	-81.698912
09173		9.798418	1.311302	0.428355	-0.411812	0.161515	0.043328	51.144092	-83.476177	-80.915854
09174		9.792498	1.360627	0.596670	-0.323513	0.156857	0.057651	50.164628	-83.448065	-80.115688
09175		9.876122	1.437385	0.704425	-0.269534	0.159258	0.078961	49.144454	-83.426627	-79.243349
09176		9.825606	1.472639	0.680605	-0.195531	0.169050	0.103835	48.055880	-83.410483	-78.259478
09177		9.672532	1.463309	0.539079	-0.113501	0.176887	0.136760	46.878798	-83.402831	-77.139137
09178		9.571905	1.556128	0.556341	-0.008433	0.167082	0.170423	45.684710	-83.410482	-75.941124
09179		9.630228	1.911215	0.793641	0.055699	0.154877	0.213194	44.414442	-83.437315	-74.629433
09180		9.599523	2.210230	0.804466	0.034461	0.163448	0.235353	43.013365	-83.465993	-73.198456
09181		9.468241	2.357086	0.786284	0.028612	0.164789	0.250311	41.535132	-83.495626	-71.693217
09182		9.542072	2.684445	1.192193	-0.028502	0.139980	0.270575	40.015469	-83.539233	-70.179409
09183		9.706786	2.753760	1.228958	-0.230403	0.142793	0.287388	38.282509	-83.582691	-68.567412
09184		9.766226	2.278385	1.012931	-0.342571	0.118359	0.303986	36.472185	-83.637510	-66.942505
09185		9.810237	1.654407	0.895363	-0.425382	0.105053	0.311484	34.591180	-83.695099	-65.294287
09186		9.756730	0.847797	0.511883	-0.401488	0.072607	0.306312	32.810469	-83.760731	-63.733521
09187		9.968239	0.312693	0.799345	-0.390834	0.012752	0.302858	31.179537	-83.849227	-62.317372
09188		10.247599	-0.001824	1.168086	-0.512361	0.005353	0.297169	29.484082	-83.935342	-60.906725
09189		10.340238	-0.328917	1.039764	-0.681490	0.050895	0.259406	27.711042	-83.983519	-59.515546
09190		10.081058	-0.755260	0.556206	-0.726426	0.072856	0.190338	26.175576	-83.998395	-58.389345
09191		10.135511	-0.976596	0.763883	-0.669457	0.037411	0.113773	25.125332	-84.009822	-57.718120
09192		10.258884	-1.039578	1.241181	-0.698961	0.026376	0.036348	24.467036	-84.007464	-57.458102
09193		10.204774	-1.056502	1.461741	-0.728740	0.029553	-0.032442	24.124963	-83.986864	-57.533097
09194		9.923766	-0.890348	1.779066	-0.686328	0.038056	-0.070318	23.977960	-83.953140	-57.779895
09195		9.702084	-0.290789	2.508177	-0.688867	0.035164	-0.123163	24.092957	-83.908468	-58.291571
09196		9.313532	0.963891	3.171346	-0.886785	0.010527	-0.187879	24.459682	-83.861303	-59.170563
09197		9.262990	1.764662	3.653234	-1.270334	-0.062400	-0.315269	25.370901	-83.820130	-60.818260
09198		9.281058	2.211196	3.861942	-1.666210	-0.050459	-0.461526	26.694585	-83.732604	-63.109287
09199		9.208613	2.323956	3.476928	-2.062860	-0.006789	-0.604525	28.275644	-83.578754	-65.888411
09200		9.118854	2.054517	2.749071	-2.282980	0.008505	-0.722805	30.094363	-83.375048	-69.034728
09201		9.026394	2.018674	2.445424	-2.444190	0.016986	-0.806486	31.983989	-83.131068	-72.346816
09202		9.032490	1.953234	1.822165	-2.545525	0.069484	-0.869575	33.736994	-82.829783	-75.581737
09203		8.811346	1.643629	1.395306	-2.554864	0.108445	-0.926209	35.378619	-82.480292	-78.711979
09204		8.727953	1.400146	1.753811	-2.576284	0.113370	-0.947195	36.850445	-82.110485	-81.685960
09205		8.549225	1.035192	1.924389	-2.524584	0.136271	-0.935773	38.057318	-81.725261	-84.365028
09206		8.674652	0.861715	2.332488	-2.365345	0.181649	-0.921285	39.028408	-81.317551	-86.716276
09207		8.964810	0.362781	2.158776	-2.192059	0.288933	-0.903661	39.649414	-80.864201	-88.615259
09208		9.157873	-0.096137	1.829763	-1.923679	0.387281	-0.876386	40.013739	-80.374817	-90.100856
09209		9.272093	-0.334434	1.839219	-1.537219	0.410404	-0.843535	40.375685	-79.886224	-91.361330
09210		9.743918	0.148447	1.967765	-1.068241	0.470651	-0.786498	40.672159	-79.391135	-92.284114
09211		9.610157	0.593420	1.222932	-0.521966	0.601620	-0.739001	40.864484	-78.856560	-92.783591
09212		9.318017	0.555135	0.223680	-0.044482	0.541788	-0.652927	41.222112	-78.379521	-93.173571
09213		9.259047	0.436322	0.138164	0.283292	0.359315	-0.459846	41.672503	-78.053804	-93.466948
09214		9.439161	0.267987	0.396243	0.523813	0.242248	-0.207603	41.949109	-77.873847	-93.442070
09215		9.520541	0.423779	-0.537609	0.716547	0.238849	0.062514	41.807031	-77.798872	-92.875847
09216		9.311114	0.139534	-2.215170	0.902188	0.140732	0.328839	41.416981	-77.866554	-91.947189
09217		9.811822	-0.288740	-3.101820	1.073410	-0.070784	0.549938	41.038629	-78.107721	-90.930678
09218		9.719331	-1.224681	-3.935501	1.241017	-0.176384	0.655276	40.695279	-78.432766	-89.852912
09219		9.740388	0.215161	-1.199636	1.512168	-0.461034	0.638664	41.038164	-78.874941	-89.318055
09220		10.367959	3.941530	1.060434	0.842713	-0.416507	0.455478	41.312128	-79.229466	-89.104400
09221		9.390170	6.666822	1.351324	-0.147559	-0.365042	0.100870	41.727676	-79.427378	-89.612397
09222		8.712387	5.416821	2.886316	-0.661225	-0.529792	-0.156329	42.804573	-79.594817	-91.092038
09223		9.245181	2.516766	6.229138	-0.940711	-0.537768	-0.079463	43.602219	-79.791295	-92.449696
09224		9.785182	0.033013	5.547725	-1.320850	-0.205069	0.076762	43.112419	-79.909839	-92.720135
09225		9.447518	-1.317649	1.282196	-0.985731	0.033495	0.161996	42.083357	-79.961560	-92.247705
09226		9.539445	-0.744304	0.027836	-0.275922	-0.123717	0.215162	41.666204	-80.099508	-91.983848
09227		10.131111	0.170593	0.304921	-0.263353	-0.241794	0.239207	41.446979	-80.297094	-91.913608
09228		10.273569	-0.179603	-1.108596	-0.302374	-0.268110	0.233573	41.273489	-80.503745	-91.912517
09229		10.307768	-0.020084	-1.222527	-0.125754	-0.311630	0.226870	41.316413	-80.726673	-92.028159
09230		10.377940	0.908881	-0.331979	-0.227442	-0.314040	0.186250	41.419926	-80.935235	-92.264148
09231		10.066403	0.997188	0.122356	-0.382224	-0.255588	0.098167	41.540331	-81.085202	-92.606880
09232		9.850340	0.443963	0.780639	-0.369608	-0.241748	0.037000	41.811362	-81.205794	-93.094637
09233		9.944325	-0.158810	1.220342	-0.347436	-0.193578	0.039692	41.976311	-81.306551	-93.462042
09234		9.855743	-0.630269	0.924839	-0.184417	-0.167364	0.069369	42.091906	-81.407454	-93.684961
09235		9.760676	-0.401902	0.953142	0.006596	-0.161814	0.085780	42.260104	-81.512176	-93.850332
09236		9.888371	-0.202819	0.793595	0.097866	-0.144541	0.087752	42.434507	-81.610359	-93.969053
09237		9.894190	0.097799	0.571223	0.211842	-0.121540	0.088943	42.613080	-81.699149	-94.025971
09238		9.892191	0.344799	0.243369	0.236151	-0.094390	0.082818	42.753267	-81.774218	-94.029985
09239		9.783225	0.642247	0.021173	0.273622	-0.087337	0.066157	42.945718	-81.839713	-94.065139
09240		9.724673	0.991429	0.316473	0.248749	-0.102241	0.043273	43.234335	-81.902612	-94.211788
09241		9.752785	1.019558	0.633584	0.175647	-0.107882	0.040936	43.506585	-81.966693	-94.384224
09242		9.897855	0.822313	0.767121	0.139611	-0.080607	0.042995	43.678977	-82.020331	-94.476607
09243		9.877294	0.747288	1.056318	0.142050	-0.047199	0.051385	43.734185	-82.063272	-94.449283
09244		9.938348	0.814582	1.133591	0.129267	-0.024120	0.072098	43.654871	-82.105011	-94.293500
09245		9.892683	1.036405	1.095473	0.109382	-0.010882	0.080868	43.498200	-82.144513	-94.071179
09246		9.902436	1.174342	0.872057	0.054689	-0.001299	0.077350	43.291864	-82.178703	-93.830339
09247		9.828144	1.115295	0.601464	-0.037797	0.005988	0.061772	43.056912	-82.203455	-93.614157
09248		9.754152	0.953662	0.553986	-0.124375	-0.004298	0.046971	42.846218	-82.226788	-93.472503
09249		9.839621	0.856041	0.572916	-0.198098	-0.011957	0.041827	42.629486	-82.251112	-93.367429
09250		9.838885	0.604309	0.667148	-0.237269	0.001019	0.025097	42.404902	-82.263592	-93.277050
09251		9.789217	0.436441	0.790138	-0.197183	0.008529	0.021470	42.192292	-82.271275	-93.175615
09252		9.783560	0.402692	0.931171	-0.149549	0.017611	0.022817	41.977250	-82.275745	-93.044142
09253		9.808431	0.450314	0.950282	-0.079408	0.023950	0.039771	41.730422	-82.283737	-92.840080
09254		9.834380	0.728539	0.964783	-0.014487	0.030148	0.054313	41.457249	-82.294673	-92.571854
09255		9.825290	0.941985	0.981503	0.018569	0.040133	0.061749	41.150262	-82.303747	-92.250449
09256		9.732616	1.174322	1.028634	0.037452	0.031282	0.065511	40.866250	-82.318036	-91.941269
09257		9.740196	1.368744	1.040981	0.025549	0.027544	0.075475	40.552055	-82.337260	-91.608576
09258		9.665504	1.295678	0.859853	-0.015477	0.049442	0.083845	40.125572	-82.349923	-91.186274
09259		9.524648	1.136921	0.650675	-0.028748	0.063836	0.086566	39.641487	-82.356624	-90.713576
09260		9.602994	1.123245	0.697827	-0.015135	0.059802	0.093611	39.152451	-82.367323	-90.227989
09261		9.640529	1.165618	0.597246	-0.045660	0.070852	0.089548	38.628133	-82.370876	-89.724491
09262		9.715083	1.096362	0.573214	-0.070643	0.066335	0.081502	38.128678	-82.373186	-89.260497
09263		9.808195	1.048198	0.704925	-0.104112	0.064684	0.080998	37.615221	-82.375332	-88.801754
09264		9.782957	0.869500	0.811257	-0.136545	0.071065	0.073010	37.094397	-82.371439	-88.354301
09265		9.751947	0.721966	0.902471	-0.135814	0.067065	0.064239	36.614146	-82.365654	-87.947382
09266		9.715808	0.429047	1.054737	-0.125703	0.069316	0.064479	36.134566	-82.358656	-87.535263
09267		9.694963	0.192135	1.155523	-0.104725	0.076425	0.053318	35.688127	-82.343969	-87.144470
09268		9.649726	-0.004847	1.104912	-0.063406	0.080010	0.057400	35.244541	-82.328767	-86.732624
09269		9.649331	-0.039260	1.093588	-0.014457	0.086440	0.054379	34.825074	-82.308936	-86.316827
09270		9.637522	0.046067	1.091725	0.014208	0.087214	0.045043	34.455282	-82.285535	-85.934523
09271		9.576670	-0.056100	0.996949	0.024911	0.082072	0.040437	34.121770	-82.262549	-85.582664
09272		9.660099	0.147585	1.163112	0.077481	0.069357	0.035389	33.867991	-82.243975	-85.280804
09273		9.681971	0.442492	1.255120	0.090548	0.071922	0.026979	33.646240	-82.221102	-85.003749
09274		9.627724	0.687008	1.266001	0.074411	0.062576	0.015904	33.477010	-82.199291	-84.788963
09275		9.687486	0.859110	1.325786	0.044524	0.047346	0.004504	33.366288	-82.180859	-84.650565
09276		9.632699	0.928400	1.411169	0.007898	0.046332	0.001881	33.246717	-82.162278	-84.524355
09277		9.660448	0.938738	1.307791	-0.011867	0.043191	0.002044	33.122897	-82.144990	-84.405339
09278		9.640126	0.827711	1.290605	-0.015967	0.045707	0.000819	32.995925	-82.126294	-84.285453
09279		9.648891	0.698574	1.146302	0.003483	0.041751	0.004977	32.875032	-82.110541	-84.160503
09280		9.668553	0.575355	1.209581	0.049621	0.036220	0.007805	32.783646	-82.098512	-84.038598
09281		9.658554	0.505657	1.192617	0.105609	0.043653	0.011678	32.694598	-82.083860	-83.886715
09282		9.576550	0.513841	1.120298	0.143983	0.051089	0.009991	32.617357	-82.065285	-83.724492
09283		9.553359	0.450568	1.001676	0.180678	0.052961	0.014960	32.540350	-82.047093	-83.541326
09284		9.577637	0.531122	1.041947	0.212640	0.052326	0.018413	32.471662	-82.030460	-83.348001
09285		9.701887	0.573152	1.049415	0.215500	0.047250	0.018585	32.415690	-82.016084	-83.165914
09286		9.705486	0.702970	1.076297	0.217862	0.048345	0.017608	32.362414	-82.001079	-82.985115
09287		9.701921	0.848022	1.173940	0.172448	0.043583	0.012337	32.312132	-81.986517	-82.833671
09288		9.696552	0.879699	1.161409	0.119532	0.040139	-0.000600	32.283781	-81.969873	-82.734927
09289		9.628309	0.854411	1.171411	0.076107	0.035112	-0.007679	32.266034	-81.953267	-82.672075
09290		9.616957	0.844097	1.192322	0.044329	0.031613	-0.014620	32.261518	-81.936453	-82.640916
09291		9.651287	0.734627	1.272405	0.010067	0.023310	-0.020191	32.274404	-81.921737	-82.647215
09292		9.690433	0.655216	1.179015	-0.028979	0.022442	-0.016034	32.252574	-81.908931	-82.640990
09293		9.654211	0.694829	1.152906	-0.031007	0.025561	-0.016810	32.225609	-81.894158	-82.630809
09294		9.612390	0.794032	1.129931	-0.043017	0.014853	-0.020765	32.228163	-81.883583	-82.657338
09295		9.637009	0.745131	1.178530	-0.057394	0.014281	-0.024490	32.236352	-81.871930	-82.697938
09296		9.602923	0.698642	1.095399	-0.058059	0.019604	-0.027830	32.243989	-81.856892	-82.738310
09297		9.629974	0.665353	1.057557	-0.037019	0.015858	-0.021447	32.250038	-81.845404	-82.764957
09298		9.633122	0.694528	1.112412	-0.020094	0.016258	-0.024752	32.275999	-81.832929	-82.801869
09299		9.653527	0.647912	1.126714	-0.015172	0.018395	-0.026932	32.307506	-81.818530	-82.841591
09300		9.653158	0.650150	1.128587	-0.002701	0.019204	-0.021509	32.326040	-81.805619	-82.860932
09301		9.639593	0.726669	1.205536	0.007053	0.024720	-0.019924	32.333093	-81.790301	-82.863086
09302		9.604893	0.709252	1.141101	0.004938	0.016635	-0.019849	32.355774	-81.779142	-82.882195
09303		9.597113	0.726112	1.213747	0.006158	0.012612	-0.015905	32.374480	-81.770916	-82.896641
09304		9.607688	0.739828	1.197069	0.018527	0.020048	-0.013226	32.375472	-81.760135	-82.885970
09305		9.569910	0.837428	1.207783	0.036829	0.017285	-0.010395	32.383407	-81.751339	-82.871775
09306		9.618957	0.868651	1.291407	0.008091	0.010735	-0.009181	32.384647	-81.746303	-82.867398
09307		9.648837	0.849856	1.166080	0.013323	0.014570	-0.006997	32.373544	-81.739863	-82.847575
09308		9.682087	0.898998	1.252214	0.008753	0.005413	-0.005834	32.375278	-81.738426	-82.843316
09309		9.616010	0.916630	1.192146	-0.022365	0.008994	-0.004390	32.346847	-81.735483	-82.826644
09310		9.607447	0.817876	1.154696	-0.036049	0.006819	-0.005069	32.317432	-81.733595	-82.816850
09311		9.618103	0.728077	1.167326	-0.048393	0.003115	-0.008031	32.298637	-81.732382	-82.824986
09312		9.669775	0.671311	1.193629	-0.052634	-0.000612	-0.002787	32.267783	-81.734790	-82.823340
09313		9.666359	0.684328	1.299356	-0.060869	-0.003080	-0.004755	32.243966	-81.737582	-82.833624
09314		9.632931	0.635736	1.214464	-0.062730	0.004621	-0.003617	32.199051	-81.737198	-82.823615
09315		9.649593	0.588427	1.192959	-0.036299	-0.005224	-0.006386	32.199251	-81.740532	-82.843943
09316		9.666226	0.581951	1.329469	-0.031556	-0.007660	-0.010465	32.220883	-81.744012	-82.883128
09317		9.670433	0.540605	1.204907	-0.015199	0.003901	-0.009250	32.223546	-81.742048	-82.893728
09318		9.629514	0.610459	1.161088	0.013454	-0.004481	-0.009359	32.260553	-81.744322	-82.922387
09319		9.648717	0.620397	1.210694	0.007660	-0.009612	-0.012145	32.314479	-81.748015	-82.971553
09320		9.649572	0.592826	1.190945	0.013298	-0.005325	-0.011540	32.360480	-81.750025	-83.009389
09321		9.631258	0.658686	1.091214	0.021349	-0.007435	-0.011469	32.415462	-81.752859	-83.051695
09322		9.617901	0.734381	1.165037	0.020205	-0.013768	-0.012388	32.486206	-81.758682	-83.110531
09323		9.648015	0.757006	1.195845	0.013900	-0.012730	-0.016326	32.564483	-81.762564	-83.180686
09324		9.649717	0.803003	1.126941	0.014209	-0.011040	-0.011963	32.624719	-81.767179	-83.232374
09325		9.653123	0.831379	1.178620	-0.006081	-0.019265	-0.012250	32.692077	-81.775450	-83.303063
09326		9.663293	0.771435	1.207502	-0.006617	-0.016829	-0.013127	32.756852	-81.782478	-83.371394
09327		9.649203	0.733228	1.170909	-0.004561	-0.016211	-0.012633	32.820048	-81.789136	-83.436995
09328		9.628476	0.681019	1.186646	-0.003466	-0.017347	-0.011156	32.881388	-81.797003	-83.500029
09329		9.658722	0.703153	1.216868	0.004562	-0.023187	-0.010808	32.959036	-81.807563	-83.574947
09330		9.617132	0.699982	1.219674	0.019614	-0.018792	-0.012709	33.042191	-81.815615	-83.646656
09331		9.659039	0.705811	1.212804	0.021267	-0.018628	-0.010632	33.119271	-81.824012	-83.711328
09332		9.680146	0.658576	1.223152	0.009567	-0.022277	-0.018924	33.225325	-81.831755	-83.811984
09333		9.704459	0.598123	1.128029	0.020168	-0.017490	-0.012106	33.304515	-81.839114	-83.879421
09334		9.723056	0.637302	1.195154	0.026696	-0.022646	-0.011649	33.397248	-81.849282	-83.956697
09335		9.709022	0.599329	1.158002	0.023160	-0.018850	-0.012313	33.482149	-81.857197	-84.028170
09336		9.643831	0.589339	1.076531	0.048155	-0.016777	-0.015842	33.588537	-81.863201	-84.106815
09337		9.641425	0.677897	1.130958	0.070153	-0.022457	-0.010182	33.701593	-81.873476	-84.179527
09338		9.636483	0.710584	1.112815	0.065953	-0.025784	-0.019268	33.850041	-81.882635	-84.290354
09339		9.689149	0.729416	1.087051	0.067158	-0.017354	-0.010234	33.950601	-81.890420	-84.352173
09340		9.667413	0.809000	1.090739	0.070900	-0.025274	-0.013020	34.080407	-81.901275	-84.441301
09341		9.727851	0.853420	1.151732	0.053818	-0.026564	-0.011873	34.200002	-81.912865	-84.530064
09342		9.644144	0.948186	1.129017	0.053476	-0.015812	-0.011155	34.292673	-81.919788	-84.591764
09343		9.624043	0.969429	1.095379	0.030373	-0.021855	-0.009014	34.379048	-81.930030	-84.660538
09344		9.618607	0.927890	1.126690	0.013305	-0.023150	-0.007875	34.454864	-81.941455	-84.728461
09345		9.618787	0.928437	1.124695	-0.012023	-0.018218	-0.003343	34.490038	-81.951796	-84.770053
09346		9.620611	0.870909	1.085535	-0.037217	-0.019521	-0.010385	34.537295	-81.960672	-84.838368
09347		9.612513	0.772202	1.045946	-0.042348	-0.017534	-0.004723	34.558330	-81.970234	-84.883226
09348		9.632921	0.752434	1.075891	-0.044970	-0.019456	-0.005799	34.585897	-81.980562	-84.936139
09349		9.625703	0.624490	1.017168	-0.048389	-0.022282	-0.003707	34.611218	-81.992688	-84.988818
09350		9.666812	0.657852	1.029009	-0.015445	-0.021041	-0.001258	34.644363	-82.005237	-85.030278
09351		9.637911	0.750823	1.104524	-0.001950	-0.023419	-0.002502	34.695159	-82.018283	-85.081810
09352		9.683466	0.782740	1.150047	-0.002209	-0.026756	0.001551	34.740035	-82.034432	-85.127454
09353		9.694460	0.794660	1.129656	0.000054	-0.017818	0.003633	34.758558	-82.046835	-85.145237
09354		9.684315	0.855339	1.096964	0.005481	-0.021835	0.002615	34.793007	-82.061008	-85.175902
09355		9.662320	0.859598	1.150446	-0.006496	-0.016402	0.003468	34.805146	-82.072688	-85.191026
09356		9.627147	0.868298	1.101496	-0.015523	-0.019794	0.004693	34.815911	-82.086576	-85.209929
09357		9.573417	0.908722	1.160595	-0.008835	-0.024094	0.007328	34.831851	-82.103136	-85.230243
09358		9.629847	0.951654	1.187996	-0.030260	-0.026236	0.011289	34.827131	-82.122208	-85.242038
09359		9.663615	0.855619	1.142509	-0.044696	-0.021875	0.013253	34.797173	-82.139663	-85.236758
09360		9.664775	0.824667	1.121884	-0.041776	-0.021990	0.018981	34.749476	-82.159246	-85.211831
09361		9.671132	0.762930	1.116614	-0.039160	-0.020068	0.020064	34.694857	-82.178072	-85.178456
09362		9.641254	0.739603	1.082707	-0.036525	-0.026852	0.015788	34.672347	-82.198898	-85.175919
09363		9.663044	0.761974	1.044006	-0.026629	-0.024204	0.019796	34.635345	-82.219580	-85.153082
09364		9.648010	0.676009	1.074527	-0.013530	-0.027044	0.020109	34.611363	-82.241903	-85.135763
09365		9.692292	0.591854	1.010245	-0.011050	-0.022236	0.018721	34.582029	-82.261305	-85.111659
09366		9.678186	0.550710	0.973059	0.018568	-0.025095	0.017242	34.581507	-82.281777	-85.099455
09367		9.718570	0.538026	1.051657	0.015684	-0.030354	0.020222	34.581597	-82.305495	-85.089588
09368		9.724145	0.505957	1.064141	0.020456	-0.025321	0.015553	34.588514	-82.325529	-85.083798
09369		9.763024	0.453254	0.984631	0.031805	-0.017979	0.010743	34.601140	-82.340327	-85.077261
09370		9.707015	0.408983	0.953133	0.042929	-0.018951	0.004338	34.644879	-82.353714	-85.095629
09371		9.704206	0.451382	1.075724	0.057741	-0.014164	0.006132	34.679399	-82.365213	-85.096190
09372		9.701167	0.395423	1.002420	0.049781	-0.009569	-0.000137	34.720087	-82.372723	-85.107513
09373		9.655962	0.437475	0.904694	0.067808	-0.006538	-0.002322	34.771634	-82.377871	-85.119432
09374		9.684388	0.546562	0.991922	0.065403	-0.008853	-0.007146	34.844239	-82.382758	-85.153922
09375		9.646869	0.643745	0.999925	0.053544	-0.010021	-0.003500	34.900390	-82.389154	-85.178732
09376		9.703449	0.761918	0.978683	0.047025	-0.013580	-0.009290	34.981739	-82.395550	-85.232662
09377		9.691515	0.808844	1.033094	0.039319	-0.009776	-0.004985	35.034513	-82.401336	-85.262287
09378		9.663731	0.873851	1.090552	0.022085	-0.011908	-0.005963	35.085944	-82.408028	-85.300452
09379		9.684418	0.927714	1.071719	0.018360	-0.003982	-0.003176	35.106134	-82.411687	-85.309318
09380		9.622984	0.914423	1.026570	0.000367	-0.003282	-0.001285	35.107435	-82.415870	-85.309465
09381		9.634990	0.868693	0.970423	0.002425	-0.002662	-0.000804	35.106887	-82.419691	-85.306621
09382		9.628956	0.854892	1.022446	-0.006291	-0.008072	0.005094	35.093791	-82.428218	-85.296095
09383		9.646246	0.778082	0.981491	-0.015428	-0.004842	0.003564	35.072987	-82.434500	-85.283137
09384		9.662218	0.759199	0.977927	-0.011369	-0.011064	0.005129	35.064245	-82.444441	-85.279940
09385		9.708422	0.688271	1.054950	-0.021157	-0.011613	0.009250	35.036786	-82.455768	-85.263581
09386		9.699203	0.617378	1.035120	-0.018419	-0.003480	0.003784	35.009872	-82.461708	-85.246128
09387		9.714470	0.627662	1.050628	-0.004543	-0.005422	0.000925	35.005991	-82.467392	-85.243950
09388		9.693271	0.602976	1.086671	-0.008183	-0.007842	0.006789	34.985038	-82.476368	-85.226594
09389		9.646249	0.555315	1.125017	0.019148	-0.007194	0.008292	34.972914	-82.485304	-85.202409
09390		9.666375	0.636945	1.125177	0.032827	-0.005005	0.008894	34.960780	-82.493638	-85.170246
09391		9.667975	0.651366	1.038096	0.037707	0.002120	0.012321	34.921615	-82.499519	-85.108064
09392		9.646378	0.728357	1.043990	0.038603	-0.003592	0.011931	34.898277	-82.508181	-85.061263
09393		9.707345	0.770565	1.106699	0.036992	-0.005018	0.003931	34.906348	-82.514660	-85.047137
09394		9.694337	0.745732	0.984898	0.019032	-0.000579	0.005523	34.887105	-82.519802	-85.015778
09395		9.679790	0.705564	0.950296	0.025941	0.003436	0.009730	34.846928	-82.524206	-84.959378
09396		9.699001	0.743195	1.018981	0.025739	-0.001148	0.007861	34.824491	-82.530378	-84.920923
09397		9.736261	0.748344	0.978755	0.029397	-0.007818	0.011022	34.809624	-82.540492	-84.888053
09398		9.751028	0.787481	1.012095	0.037088	-0.011628	0.006730	34.823857	-82.551222	-84.880025
09399		9.718674	0.779919	1.084241	0.015882	-0.017872	0.007272	34.839855	-82.564838	-84.886093
09400		9.650459	0.708686	1.158294	0.007873	-0.020760	0.001589	34.878869	-82.578177	-84.919938
09401		9.620880	0.658304	1.105604	0.006710	-0.027094	0.000723	34.936658	-82.593978	-84.973448
09402		9.668413	0.530539	1.143911	0.014633	-0.022590	-0.002010	34.997485	-82.606983	-85.025381
09403		9.702692	0.378386	1.061196	0.037518	-0.021165	-0.006116	35.083100	-82.617737	-85.089148
09404		9.667789	0.359715	0.993128	0.077586	-0.021342	-0.008936	35.202277	-82.627855	-85.163541
09405		9.673366	0.404265	0.956733	0.114308	-0.021863	-0.015872	35.369484	-82.635671	-85.265213
09406		9.667544	0.393972	1.006432	0.144578	-0.027562	-0.020148	35.584126	-82.644914	-85.397154
09407		9.671787	0.425441	1.055871	0.162495	-0.028254	-0.021973	35.818189	-82.653569	-85.538394
09408		9.687346	0.512665	1.018342	0.184679	-0.026833	-0.020646	36.056512	-82.662175	-85.671036
09409		9.666863	0.463795	1.033777	0.187903	-0.017405	-0.025491	36.290097	-82.664474	-85.797111
09410		9.746874	0.492344	0.899074	0.207902	-0.015016	-0.033033	36.555468	-82.663277	-85.943602
09411		9.752113	0.467342	0.912519	0.219789	-0.012968	-0.034377	36.827359	-82.660349	-86.089881
09412		9.741457	0.533066	0.878647	0.231863	-0.006317	-0.033873	37.085919	-82.654713	-86.215662
09413		9.694280	0.636373	0.815904	0.239080	-0.003094	-0.037063	37.351393	-82.646177	-86.344329
09414		9.656935	0.780713	0.752151	0.233740	-0.006935	-0.039038	37.630194	-82.638878	-86.489436
09415		9.633535	0.922993	0.789896	0.217770	-0.014368	-0.041837	37.929905	-82.633612	-86.664941
09416		9.678310	0.991048	0.851531	0.157878	-0.010480	-0.038119	38.170974	-82.628058	-86.815836
09417		9.668449	1.068608	0.729805	0.115222	-0.005755	-0.039356	38.379040	-82.619604	-86.958182
09418		9.655502	1.150122	0.800435	0.080363	-0.011456	-0.041954	38.591106	-82.612973	-87.124625
09419		9.658670	1.141529	0.920089	0.030442	-0.009950	-0.039922	38.763392	-82.606064	-87.279878
09420		9.670489	1.026492	0.915917	0.003634	-0.005228	-0.037588	38.898715	-82.598087	-87.413277
09421		9.681396	1.011929	0.878947	-0.025071	-0.003989	-0.033217	38.999120	-82.590843	-87.528123
09422		9.681106	1.014687	0.878959	-0.050418	-0.003678	-0.030610	39.074886	-82.584629	-87.632703
09423		9.712686	0.980357	0.874677	-0.074242	0.003407	-0.028800	39.111153	-82.575654	-87.711284
09424		9.693239	0.942007	0.808026	-0.086798	0.001384	-0.022008	39.122487	-82.570279	-87.771914
09425		9.665840	0.979273	0.848243	-0.099512	0.002204	-0.017725	39.109709	-82.565839	-87.815639
09426		9.655152	0.968099	0.868370	-0.107014	0.006914	-0.011329	39.057779	-82.561866	-87.824153
09427		9.660437	0.938029	0.886336	-0.113767	0.008758	-0.007753	38.984746	-82.558114	-87.815349
09428		9.701213	0.971346	0.900918	-0.110662	0.013341	-0.000184	38.875120	-82.555291	-87.767788
09429		9.674619	0.976797	0.924653	-0.129701	0.015105	0.000177	38.748548	-82.551550	-87.714197
09430		9.649504	0.923374	0.912502	-0.132694	0.020193	0.000065	38.606889	-82.545722	-87.647064
09431		9.615409	0.799336	0.882446	-0.137067	0.015646	0.003241	38.464331	-82.542798	-87.581605
09432		9.614880	0.754859	0.953871	-0.127234	0.018383	0.007271	38.306323	-82.540301	-87.494830
09433		9.676623	0.695292	1.051243	-0.131588	0.017561	0.010103	38.138296	-82.538902	-87.400517
09434		9.646121	0.670802	1.022780	-0.124170	0.022949	0.014905	37.943583	-82.536974	-87.274952
09435		9.682533	0.630994	1.054392	-0.114816	0.018047	0.006843	37.795234	-82.534132	-87.190793
09436		9.682385	0.629013	1.056932	-0.121763	0.019012	0.008282	37.635473	-82.531575	-87.099084
09437		9.704098	0.621538	1.004143	-0.123675	0.019255	0.010006	37.468051	-82.529229	-87.000808
09438		9.708340	0.690987	0.990970	-0.118057	0.018562	0.004980	37.323210	-82.525663	-86.922002
09439		9.717989	0.730573	0.993403	-0.127428	0.013443	0.001933	37.197227	-82.523102	-86.867688
09440		9.676961	0.695770	0.982336	-0.129097	0.008261	-0.005697	37.110534	-82.520504	-86.853907
09441		9.638236	0.747366	1.060805	-0.135127	0.007245	-0.004926	37.020427	-82.518384	-86.840224
09442		9.642769	0.745314	1.096313	-0.146198	-0.001776	-0.009716	36.964346	-82.518987	-86.867201
09443		9.657112	0.784143	1.131876	-0.154327	0.001579	-0.003795	36.874186	-82.519848	-86.864560
09444		9.673793	0.735709	1.111551	-0.156775	-0.000744	-0.008557	36.805279	-82.520382	-86.884712
09445		9.655514	0.667562	1.025132	-0.138100	0.000772	-0.007646	36.739968	-82.520291	-86.897756
09446		9.686591	0.659358	1.038940	-0.113253	0.000430	-0.005015	36.680521	-82.521504	-86.902299
09447		9.650817	0.667677	0.992603	-0.087826	0.001384	-0.001818	36.622016	-82.523128	-86.893156
09448		9.681656	0.732712	0.957129	-0.067782	0.001363	-0.003239	36.579937	-82.524522	-86.888938
09449		10.084420	0.475356	1.082268	-0.078102	-0.025792	0.004567	36.575352	-82.540829	-86.928557
09450		11.356041	-0.172398	-0.798521	0.258664	-0.080441	0.127880	36.470754	-82.624601	-86.672673
09451		10.177915	2.037181	1.867993	0.378605	-0.116934	0.191787	36.296781	-82.746598	-86.277680
09452		9.754842	2.492530	1.268356	0.015708	-0.090579	0.166300	35.927068	-82.847811	-85.895009
09453		8.452681	2.926530	1.584373	-0.132620	-0.030459	0.051056	35.731377	-82.881944	-85.773481
09454		8.451130	1.775125	1.836551	-0.487590	-0.057091	-0.085184	35.910722	-82.882970	-86.234842
09455		9.700451	-0.455890	0.617057	-0.421538	-0.046169	-0.047732	35.959213	-82.891202	-86.526218
09456		9.453517	-0.024954	0.825650	-0.178859	-0.030737	0.057289	35.714077	-82.927754	-86.381546
09457		9.617658	-0.320677	0.854607	-0.256819	-0.023592	0.088322	35.285159	-82.970996	-86.096740
09458		9.869091	0.419749	0.979630	-0.000336	-0.028408	0.060977	35.116898	-83.007496	-85.926478
09459		9.392763	0.389140	0.817284	-0.075861	0.008984	0.037409	34.893631	-83.018412	-85.744443
09460		9.803542	-0.391850	0.592267	-0.008547	-0.053117	0.024575	34.924306	-83.054486	-85.779348
09461		9.721838	0.007761	1.041394	0.123142	-0.024957	0.042785	34.884185	-83.083074	-85.666970
09462		9.731002	0.103904	1.080143	0.108410	0.020858	0.032741	34.750243	-83.087049	-85.468533
09463		9.646924	0.056357	0.741568	0.191697	0.006231	0.035695	34.691800	-83.098592	-85.298137
09464		9.789818	0.609624	1.063558	0.244213	-0.005578	0.032994	34.705167	-83.115066	-85.169707
09465		9.724260	1.002177	1.091435	0.113804	0.018157	0.019616	34.632007	-83.115730	-85.029450
09466		9.573088	0.825384	0.790317	0.033551	0.002450	0.002800	34.620601	-83.118563	-84.997648
09467		9.681831	0.739130	0.892171	-0.002258	-0.019270	0.001028	34.654510	-83.130808	-85.032219
09468		9.705567	0.833019	1.031973	-0.036185	-0.004364	-0.003855	34.647611	-83.134686	-85.045205
09469		9.638921	0.747981	1.001944	-0.080711	-0.013680	-0.003345	34.638650	-83.142872	-85.081869
09470		9.682479	0.636304	0.919552	-0.081726	-0.019158	-0.002029	34.638640	-83.154314	-85.128076
09471		9.800243	0.750386	1.029433	-0.075371	-0.021431	-0.004068	34.656747	-83.165917	-85.188920
09472		9.745042	0.620091	0.942283	-0.079184	-0.011853	-0.009646	34.668474	-83.171431	-85.245480
09473		9.643252	0.414348	0.875425	-0.050500	-0.012778	-0.010581	34.703083	-83.176829	-85.308589
09474		9.669660	0.335403	0.901133	-0.019069	-0.018411	-0.007705	34.759649	-83.186059	-85.375615
09475		9.675010	0.378456	0.866676	0.027523	-0.002290	0.003812	34.753753	-83.191212	-85.352909
09476		9.669373	0.438113	0.869848	0.046630	-0.009110	-0.002372	34.801588	-83.197809	-85.373227
09477		9.725177	0.540114	0.936118	0.075182	-0.002182	-0.000137	34.838288	-83.201623	-85.365918
