// General information: 
//  MT Manager version: 2022.2.0 
//  XDA version: 2022.2.0 build 7381 rev 124627 built on 2023-07-19
// Device information: 
//  DeviceId: 00B4BA83
//  ProductCode: MTW2-3A7G6
//  Firmware Version: 4.6.0
//  Hardware Version: 2.0.0
// Device settings: 
//  Filter Profile: human(46.1)
//  Option Flags: Orientation Smoother Disabled, Position/Velocity Smoother Disabled, Continuous Zero Rotation Update Disabled, AHS Disabled, ICC Disabled
// Coordinate system: ENU
PacketCounter	SampleTimeFine	Acc_X	Acc_Y	Acc_Z	Gyr_X	Gyr_Y	Gyr_Z	Roll	Pitch	Yaw
46052		9.415422	0.918775	-2.336550	-0.013154	-0.008651	0.007298	161.576787	-75.306649	-84.419593
46053		9.431665	0.903356	-2.310835	-0.023610	-0.009685	0.009743	161.597247	-75.302353	-84.452244
46054		9.417372	0.875857	-2.295839	-0.026947	-0.012017	0.007626	161.616399	-75.296379	-84.486214
46055		9.444190	0.827129	-2.318902	-0.015774	-0.015589	0.005675	161.636939	-75.288188	-84.514291
46056		9.407702	0.867845	-2.319836	-0.001615	-0.018866	0.003024	161.665724	-75.277653	-84.543217
46057		9.439374	0.838652	-2.380842	0.006037	-0.021448	0.000115	161.690968	-75.265208	-84.565167
46058		9.431510	0.861217	-2.388045	0.006276	-0.022983	0.000280	161.721327	-75.251933	-84.591050
46059		9.411193	0.815185	-2.448886	0.014872	-0.015457	0.000501	161.748451	-75.242805	-84.608268
46060		9.444805	0.888020	-2.407224	0.022470	-0.012251	-0.006398	161.766912	-75.234166	-84.612254
46061		9.444533	0.888058	-2.408278	0.015835	-0.006451	-0.004167	161.778678	-75.229099	-84.614370
46062		9.464818	0.861238	-2.324037	0.004607	-0.004664	-0.003535	161.787642	-75.225102	-84.619118
46063		9.417746	0.864459	-2.361426	-0.006678	-0.004662	-0.004228	161.785191	-75.220993	-84.619359
46064		9.434032	0.849983	-2.335349	-0.011397	-0.003570	-0.003342	161.784639	-75.217625	-84.623749
46065		9.451968	0.794248	-2.378649	-0.013313	0.001139	-0.001996	161.779081	-75.217085	-84.624247
46066		9.451911	0.794545	-2.378776	-0.002565	-0.005151	-0.000295	161.790944	-75.213402	-84.636243
46067		9.469875	0.810025	-2.336818	0.005325	-0.009269	-0.003042	161.800934	-75.206974	-84.642321
46068		9.436914	0.839883	-2.390142	0.007635	-0.001479	0.004886	161.826820	-75.206216	-84.662777
46069		9.444264	0.816516	-2.385289	0.003154	-0.001923	0.005938	161.849134	-75.205412	-84.682737
46070		9.440899	0.826901	-2.332347	-0.005976	-0.008165	0.004066	161.870037	-75.200862	-84.706106
46071		9.441253	0.754132	-2.307399	-0.013612	-0.014260	0.001843	161.882768	-75.192575	-84.724828
46072		9.447678	0.804341	-2.329522	-0.018388	-0.014953	0.001405	161.895620	-75.183852	-84.747227
46073		9.401944	0.766311	-2.437251	-0.014386	-0.011440	0.000024	161.902104	-75.176848	-84.761464
46074		9.441290	0.786446	-2.406321	-0.003637	-0.010156	-0.000942	161.915321	-75.170319	-84.775499
46075		9.433694	0.809347	-2.412288	0.002337	-0.009565	-0.002345	161.925347	-75.163939	-84.782739
46076		9.436730	0.798729	-2.466473	0.007831	-0.005902	-0.004077	161.935816	-75.159168	-84.787134
46077		9.462099	0.791448	-2.419392	0.018581	-0.004618	-0.005044	161.946310	-75.154932	-84.785242
46078		9.434891	0.840060	-2.398053	0.017327	-0.006302	-0.004528	161.961548	-75.149862	-84.788943
46079		9.446171	0.805528	-2.335219	0.015298	-0.005165	-0.005832	161.968815	-75.145170	-84.786649
46080		9.469194	0.840519	-2.330330	0.014398	-0.004812	-0.002502	161.985532	-75.141271	-84.793617
46081		9.406319	0.785596	-2.368001	0.016666	0.000089	-0.003698	161.994516	-75.139833	-84.791473
46082		9.435018	0.767236	-2.374118	0.028374	-0.004769	-0.004008	162.016108	-75.135690	-84.795200
46083		9.409537	0.845947	-2.336737	0.031840	-0.007545	-0.004382	162.037557	-75.129980	-84.796748
46084		9.443016	0.847173	-2.380781	0.022471	-0.012255	-0.006411	162.055799	-75.121331	-84.800509
46085		9.403070	0.827232	-2.413857	0.021035	-0.010617	-0.004736	162.072464	-75.113913	-84.802174
46086		9.416909	0.854460	-2.430616	0.015596	-0.004918	-0.004344	162.086120	-75.109628	-84.805264
46087		9.415074	0.824178	-2.447145	0.009860	0.000529	-0.005441	162.087573	-75.108145	-84.797504
46088		9.424178	0.832197	-2.425734	0.003407	0.003010	-0.004365	162.088945	-75.108179	-84.795109
46089		9.408683	0.846646	-2.339921	0.000181	0.004251	-0.003827	162.085352	-75.108984	-84.791372
46090		9.432492	0.809242	-2.308415	0.001380	-0.003426	-0.002999	162.092627	-75.105750	-84.796289
46091		9.466102	0.810806	-2.351785	0.004847	-0.006202	-0.003371	162.099789	-75.100953	-84.798714
46092		9.433032	0.840687	-2.405136	0.014993	-0.004311	0.000476	162.122562	-75.097848	-84.811596
46093		9.445264	0.836999	-2.437749	0.022757	-0.003322	0.000206	162.145285	-75.095232	-84.820939
46094		9.434599	0.870242	-2.389915	0.014457	-0.003028	-0.001180	162.163499	-75.092533	-84.829422
46095		9.422162	0.873360	-2.358328	0.011117	-0.005362	-0.003288	162.173715	-75.088207	-84.832713
46096		9.436094	0.900662	-2.374690	0.009144	-0.002439	-0.003269	162.184209	-75.085462	-84.836358
46097		9.412862	0.866274	-2.380156	-0.002557	0.001306	-0.010757	162.166972	-75.083435	-84.818736
46098		9.432524	0.841300	-2.406913	-0.014151	0.002166	-0.005129	162.157280	-75.082876	-84.815304
46099		9.432505	0.842503	-2.406569	-0.014380	0.002588	-0.013093	162.127852	-75.081114	-84.789201
46100		9.444814	0.840587	-2.438255	-0.011700	0.003743	-0.007488	162.113696	-75.080998	-84.779696
46101		9.468705	0.803816	-2.406308	-0.006924	0.004438	-0.007055	162.099245	-75.081355	-84.769421
46102		9.456424	0.807758	-2.373800	-0.004894	0.003303	-0.005751	162.092834	-75.081304	-84.763895
46103		9.442387	0.781236	-2.357646	-0.009429	0.001072	-0.006019	162.081483	-75.079886	-84.756803
46104		9.447318	0.801474	-2.394644	-0.009133	0.001323	-0.004530	162.076452	-75.078971	-84.755218
46105		9.439977	0.824773	-2.399373	-0.004838	0.005090	-0.004428	162.068466	-75.080221	-84.747442
46106		9.432727	0.847956	-2.403779	0.002444	0.009152	-0.005028	162.063865	-75.083486	-84.739438
46107		9.425532	0.870849	-2.408068	0.002080	0.008224	-0.000043	162.066783	-75.087110	-84.738542
46108		9.453019	0.894252	-2.343225	-0.011477	0.010890	-0.002196	162.058848	-75.091822	-84.735342
46109		9.442506	0.856680	-2.379404	-0.019961	0.014502	-0.002425	162.040103	-75.098415	-84.724957
46110		9.461009	0.873003	-2.335130	-0.035967	0.015586	-0.002223	162.014947	-75.105681	-84.718457
46111		9.464656	0.863213	-2.386596	-0.043913	0.017913	-0.000799	161.983526	-75.114443	-84.709140
46112		9.439553	0.871897	-2.432105	-0.051253	0.019633	-0.004196	161.942827	-75.123561	-84.695620
46113		9.456543	0.858183	-2.403159	-0.059454	0.024596	0.004861	161.909398	-75.136951	-84.694946
46114		9.414251	0.850286	-2.378925	-0.057405	0.022353	-0.001638	161.868532	-75.148002	-84.684902
46115		9.389317	0.858991	-2.423930	-0.058251	0.024484	0.003016	161.832192	-75.161017	-84.679179
46116		9.436817	0.857485	-2.384268	-0.049933	0.023093	-0.003393	161.791428	-75.172154	-84.664813
46117		9.406774	0.846878	-2.392517	-0.051293	0.017836	-0.005536	161.745864	-75.179990	-84.645599
46118		9.420183	0.772770	-2.396979	-0.049078	0.013377	-0.005398	161.707986	-75.185475	-84.633712
46119		9.440817	0.747195	-2.310923	-0.040409	0.006449	-0.006333	161.674447	-75.187011	-84.623399
46120		9.442507	0.778947	-2.293984	-0.034433	-0.000531	-0.005079	161.655069	-75.184986	-84.621968
46121		9.445729	0.769398	-2.347624	-0.023443	-0.008346	-0.003221	161.647963	-75.179041	-84.626857
46122		9.472025	0.794318	-2.395880	-0.007574	-0.004317	-0.000912	161.655121	-75.175708	-84.636957
46123		9.455569	0.809527	-2.422310	-0.008904	0.000881	0.003423	161.663790	-75.175951	-84.648865
46124		9.444923	0.842762	-2.373522	-0.006399	0.004252	0.002402	161.672591	-75.177875	-84.659969
46125		9.446700	0.873100	-2.356679	-0.009679	0.003704	0.001609	161.675264	-75.179350	-84.665745
46126		9.457534	0.911209	-2.318340	-0.016426	0.005925	0.001191	161.674697	-75.181966	-84.673101
46127		9.463366	0.858630	-2.329112	-0.020295	0.004882	-0.002583	161.661780	-75.183272	-84.669363
46128		9.454408	0.851675	-2.349911	-0.022747	0.003292	-0.000233	161.656455	-75.184200	-84.675544
46129		9.461817	0.829701	-2.344560	-0.021896	0.001166	-0.004893	161.640202	-75.183036	-84.671471
46130		9.440376	0.826061	-2.333485	-0.025122	0.002399	-0.004357	161.625647	-75.182734	-84.669511
46131		9.424039	0.842181	-2.359135	-0.024055	0.007402	-0.003698	161.606473	-75.185248	-84.662546
46132		9.461957	0.832669	-2.342944	-0.025175	0.000616	-0.005689	161.590370	-75.183736	-84.659016
46133		9.445543	0.848677	-2.368943	-0.022505	0.001752	-0.000074	161.583575	-75.183818	-84.662426
46134		9.452938	0.826535	-2.363746	-0.021065	0.000121	-0.001754	161.578255	-75.182748	-84.667615
46135		9.436465	0.842438	-2.390019	-0.017893	-0.002894	-0.003622	161.569846	-75.179735	-84.668673
46136		9.422340	0.815675	-2.374427	-0.016052	-0.000715	-0.001148	161.569214	-75.178321	-84.675740
46137		9.442078	0.790420	-2.401677	-0.013784	-0.003389	0.000314	161.571783	-75.175647	-84.682905
46138		9.458358	0.775407	-2.375878	-0.014021	-0.009436	0.002792	161.586368	-75.170206	-84.704509
46139		9.450817	0.798329	-2.381355	-0.013543	-0.004925	0.000474	161.590331	-75.166730	-84.715037
46140		9.443297	0.821094	-2.386796	-0.002982	-0.007885	0.003334	161.611273	-75.162228	-84.736677
46141		9.439798	0.831293	-2.333962	-0.003223	-0.006350	0.003175	161.627753	-75.158441	-84.753213
46142		9.468464	0.813111	-2.340442	-0.008049	-0.008831	0.001398	161.642441	-75.153072	-84.771386
46143		9.448468	0.838864	-2.314093	-0.002133	-0.010006	-0.001328	161.652638	-75.146553	-84.782445
46144		9.419448	0.786151	-2.395516	0.000372	-0.006632	-0.002344	161.662961	-75.141703	-84.791111
46145		9.425961	0.836514	-2.416569	0.010581	-0.004037	-0.004945	161.668890	-75.137794	-84.791196
46146		9.434775	0.844133	-2.396086	0.010826	-0.013155	-0.002149	161.690015	-75.129430	-84.804843
46147		9.450836	0.829090	-2.371245	0.005704	-0.015882	-0.005415	161.700461	-75.118885	-84.809159
46148		9.441421	0.821559	-2.394046	0.008430	-0.012967	0.001530	161.727581	-75.111283	-84.830429
46149		9.462627	0.825746	-2.405824	0.008299	-0.007870	0.004033	161.753526	-75.106866	-84.848396
46150		9.483902	0.829820	-2.417369	0.002328	-0.008475	0.005430	161.782059	-75.102402	-84.874747
46151		9.468147	0.842729	-2.332251	-0.002155	-0.001347	0.003840	161.797103	-75.101557	-84.889412
46152		9.473139	0.862192	-2.369357	-0.006337	-0.001555	0.006378	161.817941	-75.101025	-84.912938
46153		9.437607	0.829811	-2.343334	-0.004714	-0.006501	0.003526	161.834315	-75.097251	-84.930651
46154		9.442400	0.849648	-2.381094	-0.012581	-0.011066	0.001119	161.847186	-75.090598	-84.949636
46155		9.420715	0.845193	-2.371299	-0.012581	-0.011066	0.001119	161.857290	-75.083987	-84.964590
46156		9.458389	0.835094	-2.356449	-0.024876	-0.006721	-0.001544	161.854740	-75.079224	-84.974908
46157		9.431741	0.740240	-2.395612	-0.017118	-0.005719	-0.001801	161.852266	-75.074970	-84.983589
46158		9.404431	0.789009	-2.373856	-0.002373	-0.008471	-0.001488	161.863889	-75.069263	-84.995231
46159		9.442126	0.778648	-2.359041	-0.001121	-0.006784	-0.001997	161.871040	-75.064361	-85.003113
46160		9.429540	0.781940	-2.327739	-0.004512	-0.010894	-0.005453	161.874952	-75.056627	-85.008043
46161		9.443276	0.809972	-2.344350	-0.008989	-0.011350	-0.004404	161.875926	-75.048764	-85.011756
46162		9.441270	0.780304	-2.361920	-0.002778	-0.012279	-0.005644	161.881355	-75.040243	-85.017230
46163		9.420330	0.808234	-2.447701	0.011781	-0.011714	-0.004161	161.894912	-75.032301	-85.022772
46164		9.429115	0.815874	-2.427450	0.017510	-0.009571	-0.005720	161.909990	-75.025240	-85.026201
46165		9.407506	0.811227	-2.417433	0.014154	-0.003242	-0.002674	161.922200	-75.022120	-85.030086
46166		9.425582	0.826056	-2.375165	0.019464	-0.003832	-0.000584	161.945025	-75.019097	-85.040376
46167		9.441178	0.883336	-2.374922	0.016720	-0.005671	0.000275	161.966417	-75.015199	-85.051064
46168		9.457593	0.867832	-2.349068	0.012476	-0.000077	-0.001152	161.981584	-75.014119	-85.057571
46169		9.439357	0.852608	-2.392075	0.002215	-0.004455	0.000128	161.993832	-75.010937	-85.064322
46170		9.417849	0.848221	-2.381582	-0.005661	-0.001438	-0.004912	161.991852	-75.008450	-85.063837
46171		9.421040	0.838302	-2.435065	0.004841	0.001404	-0.006032	161.988661	-75.007337	-85.058984
46172		9.387963	0.869160	-2.487783	0.012971	-0.004226	-0.008637	161.991623	-75.002670	-85.052562
46173		9.405972	0.884680	-2.445556	0.019236	-0.003374	-0.008548	161.995185	-74.998450	-85.040882
46174		9.396770	0.877555	-2.467194	0.019710	0.001138	-0.010868	161.993929	-74.996311	-85.026096
46175		9.405851	0.885781	-2.445621	0.010987	0.006275	-0.011245	161.980826	-74.996867	-85.003101
46176		9.440620	0.886737	-2.375874	0.000476	0.011014	-0.012763	161.958163	-74.999772	-84.977562
46177		9.426754	0.860767	-2.359136	-0.006622	0.011203	-0.015994	161.921803	-75.002146	-84.943225
46178		9.450842	0.824560	-2.326635	-0.013316	0.015201	-0.015073	161.883738	-75.006912	-84.909921
46179		9.456864	0.773189	-2.336564	-0.011769	0.017134	-0.014092	161.844291	-75.012880	-84.876019
46180		9.422407	0.775077	-2.404264	-0.010250	0.008623	-0.019608	161.803109	-75.013243	-84.837671
46181		9.460275	0.766702	-2.388222	-0.006351	0.001004	-0.021001	161.763558	-75.009143	-84.799869
46182		9.443608	0.783982	-2.414488	-0.001389	-0.001609	-0.021732	161.730009	-75.003544	-84.764167
46183		9.416164	0.763095	-2.478995	0.001957	-0.006859	-0.016971	161.708754	-74.995818	-84.740247
46184		9.429847	0.791830	-2.495338	0.007562	-0.007197	-0.013389	161.701060	-74.988673	-84.726002
46185		9.391650	0.803295	-2.511587	0.004873	-0.007256	-0.011198	161.693587	-74.981847	-84.714184
46186		9.424463	0.773717	-2.459597	0.006766	-0.003293	-0.007395	161.694987	-74.977903	-84.709825
46187		9.430127	0.792137	-2.385095	0.007356	-0.002799	-0.004413	161.699776	-74.974808	-84.708735
46188		9.420943	0.784942	-2.406799	0.009751	-0.002987	-0.008095	161.701263	-74.970905	-84.702695
46189		9.417493	0.795921	-2.353828	0.007251	-0.006364	-0.007075	161.702913	-74.965289	-84.699470
46190		9.420508	0.785915	-2.408184	0.006487	-0.011123	-0.006246	161.711722	-74.957292	-84.702948
46191		9.405285	0.831474	-2.419197	0.014124	-0.012593	-0.001365	161.732970	-74.949395	-84.717174
46192		9.444515	0.851457	-2.388442	0.010964	-0.010665	-0.007297	161.741892	-74.941459	-84.718114
46193		9.420124	0.889515	-2.421137	0.021967	-0.018464	-0.005460	161.763228	-74.929546	-84.728430
46194		9.448544	0.871498	-2.428702	0.027208	-0.013248	-0.007343	161.783062	-74.920196	-84.731032
46195		9.462181	0.899169	-2.445469	0.013220	-0.005756	-0.008480	161.785070	-74.914747	-84.722353
46196		9.457151	0.880111	-2.408825	0.008376	-0.000664	-0.012891	161.774547	-74.911252	-84.704689
46197		9.396115	0.856458	-2.429953	0.005201	0.002348	-0.011020	161.761269	-74.909654	-84.687453
46198		9.414248	0.872446	-2.387060	0.007285	0.002997	-0.008389	161.756779	-74.908956	-84.676685
46199		9.410043	0.885252	-2.445163	0.010026	0.004838	-0.009252	161.748772	-74.909103	-84.654722
46200		9.396099	0.858592	-2.429261	0.006937	0.000965	-0.011210	161.739746	-74.906793	-84.639462
46201		9.435609	0.879540	-2.397106	-0.006027	0.004097	-0.010375	161.719982	-74.906279	-84.624270
46202		9.428174	0.832321	-2.487995	-0.009359	0.001758	-0.012495	161.698507	-74.904167	-84.605787
46203		9.432399	0.821499	-2.429123	-0.005318	0.007072	-0.012538	161.672914	-74.904847	-84.584048
46204		9.424936	0.845899	-2.433396	-0.014256	0.005063	-0.018238	161.634853	-74.903491	-84.551292
46205		9.385402	0.827851	-2.464707	-0.004711	0.006481	-0.017361	161.600546	-74.902942	-84.516480
46206		9.433953	0.857224	-2.410923	0.001451	0.003777	-0.019935	161.568941	-74.900570	-84.481089
46207		9.424834	0.851296	-2.431907	0.006519	0.004735	-0.018005	161.540709	-74.898963	-84.448839
46208		9.410910	0.825321	-2.415812	0.009799	0.005291	-0.017216	161.518359	-74.897898	-84.418080
46209		9.471881	0.851330	-2.393908	0.001950	0.011157	-0.013123	161.493338	-74.900708	-84.388739
46210		9.450637	0.847953	-2.382059	-0.004854	0.011577	-0.014864	161.463084	-74.903479	-84.358490
46211		9.436974	0.822163	-2.364885	-0.013832	0.018231	-0.015406	161.419605	-74.909688	-84.319365
46212		9.449559	0.820932	-2.395515	-0.007837	0.011268	-0.014163	161.389231	-74.912409	-84.290763
46213		9.425602	0.860444	-2.425703	-0.008476	0.008987	-0.018476	161.348731	-74.912953	-84.252390
46214		9.447069	0.867073	-2.435521	-0.009673	0.009080	-0.016635	161.313797	-74.914024	-84.220155
46215		9.386285	0.844114	-2.455814	-0.012658	0.008770	-0.015936	161.276131	-74.914930	-84.187754
46216		9.416818	0.858254	-2.444184	-0.020070	0.009777	-0.012855	161.242365	-74.917064	-84.162898
46217		9.445911	0.842038	-2.448762	-0.013098	0.013622	-0.014925	161.203387	-74.920860	-84.126584
46218		9.424736	0.839006	-2.436555	-0.013343	0.015156	-0.015086	161.165272	-74.925490	-84.093233
46219		9.435451	0.878751	-2.397271	-0.014883	0.013217	-0.016068	161.123033	-74.928791	-84.057698
46220		9.430858	0.860810	-2.358511	-0.013125	0.021200	-0.017568	161.075832	-74.936225	-84.014810
46221		9.429703	0.832289	-2.373068	-0.016278	0.016624	-0.013057	161.036450	-74.941956	-83.983583
46222		9.425806	0.846227	-2.429908	-0.019065	0.012994	-0.013531	160.999589	-74.945680	-83.954929
46223		9.442528	0.833028	-2.402259	-0.021143	0.012342	-0.016166	160.953843	-74.948554	-83.922688
46224		9.450212	0.811946	-2.396251	-0.009740	0.008381	-0.010163	160.932288	-74.950400	-83.904353
46225		9.433805	0.828141	-2.421643	0.003984	0.010036	-0.011812	160.911381	-74.952785	-83.882656
46226		9.430499	0.839570	-2.367332	-0.007709	0.007249	-0.008862	160.894390	-74.954259	-83.867842
46227		9.442964	0.837601	-2.398950	-0.006140	0.001608	-0.005240	160.887331	-74.953286	-83.860206
46228		9.447854	0.858088	-2.435660	-0.013555	0.002606	-0.002164	160.883717	-74.953502	-83.862713
46229		9.417575	0.845827	-2.445845	0.004079	0.007103	0.001300	160.892015	-74.956678	-83.863165
46230		9.449660	0.888204	-2.417792	0.005419	0.012358	0.003456	160.903794	-74.963227	-83.870353
46231		9.436125	0.860404	-2.401021	0.000111	0.012926	0.001358	160.905646	-74.969632	-83.869416
46232		9.407558	0.878201	-2.393714	-0.002365	0.018906	0.001068	160.903587	-74.979279	-83.866893
46233		9.426641	0.822484	-2.435307	-0.003640	0.024795	-0.001063	160.890390	-74.991659	-83.848142
46234		9.438951	0.891051	-2.378880	0.000945	0.018385	-0.005944	160.876412	-74.999708	-83.831316
46235		9.426861	0.894534	-2.345096	-0.005609	0.017262	-0.007536	160.853952	-75.006783	-83.808521
46236		9.457401	0.908010	-2.333330	-0.006303	0.003842	-0.011878	160.834006	-75.005842	-83.789816
46237		9.468373	0.876083	-2.381771	-0.006520	-0.002204	-0.009400	160.820960	-75.001991	-83.776196
46238		9.446857	0.872165	-2.371145	-0.001705	0.000296	-0.007619	160.814750	-74.999931	-83.768984
46239		9.430374	0.887910	-2.397090	-0.003598	0.006770	-0.004926	160.805650	-75.001842	-83.763577
46240		9.421592	0.880724	-2.417650	0.002464	0.010962	-0.003653	160.802340	-75.006300	-83.756895
46241		9.438397	0.866028	-2.390045	0.010144	0.017793	-0.007869	160.787583	-75.013455	-83.735342
46242		9.427680	0.899548	-2.339880	-0.002998	0.016626	-0.003249	160.777955	-75.021053	-83.725360
46243		9.437032	0.907724	-2.316610	-0.010535	0.021637	-0.005483	160.753403	-75.030883	-83.706653
46244		9.412096	0.916322	-2.361872	-0.021885	0.027372	-0.010167	160.711313	-75.042983	-83.674272
46245		9.403806	0.910094	-2.380195	-0.025272	0.033686	-0.007129	160.666358	-75.059013	-83.642635
46246		9.395635	0.903939	-2.398090	-0.026344	0.036257	-0.010434	160.614706	-75.075852	-83.603007
46247		9.420439	0.867753	-2.363231	-0.024850	0.036412	-0.010781	160.560584	-75.092712	-83.559297
46248		9.430084	0.877003	-2.338239	-0.023400	0.034787	-0.012462	160.507349	-75.108350	-83.516290
46249		9.421858	0.871114	-2.356327	-0.012456	0.032824	-0.014565	160.454703	-75.122414	-83.470984
46250		9.447731	0.865268	-2.305820	-0.021718	0.022267	-0.012685	160.410843	-75.131231	-83.436687
46251		9.444252	0.879464	-2.361844	-0.032703	0.022445	-0.011920	160.359871	-75.140119	-83.399332
46252		9.473679	0.863459	-2.365224	-0.038138	0.020522	-0.008889	160.315497	-75.148712	-83.374238
46253		9.422278	0.848029	-2.363312	-0.042947	0.018018	-0.010683	160.263997	-75.155642	-83.346504
46254		9.435193	0.847379	-2.393291	-0.041452	0.018174	-0.011029	160.215004	-75.162543	-83.318599
46255		9.419176	0.864431	-2.417288	-0.028177	0.024695	-0.011619	160.165488	-75.172764	-83.279464
46256		9.429914	0.904123	-2.376211	-0.028450	0.033807	-0.014406	160.105478	-75.187418	-83.232458
46257		9.426773	0.918686	-2.431118	-0.031434	0.033486	-0.013719	160.042826	-75.201761	-83.185091
46258		9.413608	0.893315	-2.412074	-0.032747	0.037593	-0.017181	159.971665	-75.217884	-83.129107
46259		9.415715	0.925916	-2.391220	-0.026226	0.046300	-0.018194	159.893352	-75.238392	-83.060566
46260		9.398846	0.910858	-2.318048	-0.018347	0.040475	-0.022268	159.817588	-75.255023	-82.991299
46261		9.462615	0.895534	-2.250534	-0.009427	0.039656	-0.025662	159.738290	-75.270366	-82.910794
46262		9.472113	0.905804	-2.224994	-0.016425	0.043365	-0.026260	159.652945	-75.287707	-82.830491
46263		9.493130	0.883558	-2.247790	-0.032419	0.044331	-0.026145	159.555564	-75.305487	-82.744421
46264		9.447157	0.889503	-2.281109	-0.047645	0.033115	-0.022940	159.466578	-75.317927	-82.678859
46265		9.454246	0.842586	-2.401964	-0.040302	0.019230	-0.027377	159.380791	-75.321866	-82.614007
46266		9.443220	0.881139	-2.463110	-0.011543	0.018516	-0.027071	159.315110	-75.325597	-82.551156
46267		9.423185	0.908887	-2.433878	0.012993	0.025146	-0.026863	159.256651	-75.332747	-82.479107
46268		9.407928	0.954007	-2.329519	0.011179	0.022961	-0.029355	159.195778	-75.338361	-82.407773
46269		9.403063	0.936440	-2.290591	0.000196	0.023112	-0.028623	159.128232	-75.344102	-82.330607
46270		9.462620	0.934330	-2.282974	-0.007445	0.022771	-0.034891	159.045401	-75.348438	-82.247610
46271		9.432592	0.925350	-2.291825	-0.000262	0.023338	-0.038089	158.957418	-75.352148	-82.153802
46272		9.454235	0.934016	-2.300153	0.010157	0.022699	-0.041809	158.870489	-75.354956	-82.056146
46273		9.432889	0.932641	-2.287642	0.011935	0.023104	-0.040656	158.784042	-75.358084	-81.960828
46274		9.489839	0.974114	-2.321693	0.011122	0.024144	-0.043804	158.692364	-75.361172	-81.857696
46275		9.448078	0.998030	-2.281778	0.002231	0.026713	-0.039093	158.600697	-75.366387	-81.761214
46276		9.418086	0.989226	-2.290472	-0.002564	0.024196	-0.040908	158.506951	-75.370026	-81.664054
46277		9.464752	0.990782	-2.250626	-0.010844	0.024413	-0.042361	158.403434	-75.373317	-81.557914
46278		9.427050	1.005099	-2.264098	-0.017066	0.025284	-0.041163	158.299882	-75.377395	-81.459209
46279		9.442602	0.964050	-2.251858	-0.015570	0.025446	-0.041504	158.194794	-75.381215	-81.350691
46280		9.459806	0.955686	-2.334813	-0.007288	0.025229	-0.040052	158.099047	-75.385412	-81.254266
46281		9.467712	0.936665	-2.327694	-0.005409	0.021616	-0.033600	158.018669	-75.388882	-81.167185
46282		9.467924	0.939660	-2.325626	0.001941	0.021729	-0.028815	157.953897	-75.393565	-81.097308
46283		9.481917	0.970022	-2.338896	-0.007980	0.019280	-0.024795	157.891963	-75.397705	-81.030579
46284		9.438233	0.931812	-2.333102	-0.009090	0.015337	-0.017665	157.848810	-75.401366	-80.989576
46285		9.439310	0.964052	-2.314804	-0.014382	0.015876	-0.019800	157.796346	-75.404658	-80.933958
46286		9.448129	0.973740	-2.291522	-0.012860	0.017818	-0.018801	157.746609	-75.409371	-80.888384
46287		9.448337	0.975799	-2.289786	-0.011114	0.016453	-0.018981	157.696515	-75.413105	-80.839443
46288		9.464894	0.962605	-2.261701	-0.010553	0.016944	-0.015991	157.654497	-75.417947	-80.800483
46289		9.457360	0.987143	-2.264850	-0.005139	0.017120	-0.020332	157.604985	-75.421941	-80.746786
46290		9.457483	0.989383	-2.263358	-0.003979	0.013488	-0.024843	157.551560	-75.423002	-80.692147
46291		9.433527	1.029358	-2.293036	-0.002403	0.018984	-0.021165	157.499850	-75.427582	-80.635771
46292		9.449206	0.986255	-2.281707	0.006504	0.016436	-0.025865	157.447831	-75.429953	-80.576381
46293		9.458725	1.026383	-2.241853	0.007467	0.017887	-0.027856	157.389194	-75.432449	-80.505813
46294		9.436576	0.993598	-2.246402	0.007925	0.022399	-0.030162	157.324138	-75.436995	-80.432112
46295		9.420412	1.011396	-2.270876	0.003419	0.020117	-0.030492	157.256003	-75.440047	-80.352683
46296		9.458415	1.004322	-2.252860	-0.002808	0.020973	-0.029304	157.187683	-75.443986	-80.281966
46297		9.441484	0.991932	-2.294068	-0.000782	0.019856	-0.027988	157.122208	-75.447467	-80.210270
46298		9.450937	1.032266	-2.254016	-0.001490	0.016872	-0.025840	157.065144	-75.449974	-80.150403
46299		9.463310	1.001873	-2.301006	-0.003365	0.017519	-0.019184	157.018068	-75.454236	-80.101009
46300		9.450508	1.006196	-2.267561	-0.003135	0.014212	-0.020365	156.973444	-75.456541	-80.054970
46301		9.450646	1.008045	-2.266167	-0.004073	0.014535	-0.017036	156.932905	-75.459328	-80.005242
46302		9.443052	1.032238	-2.269439	-0.004026	0.018087	-0.014360	156.896584	-75.465008	-79.968308
46303		9.467443	0.995947	-2.236456	-0.007975	0.016295	-0.011699	156.863313	-75.470208	-79.932246
46304		9.454018	0.969343	-2.219586	-0.013927	0.017393	-0.009019	156.832728	-75.476714	-79.907101
46305		9.475838	0.975488	-2.228157	-0.012842	0.016601	-0.004372	156.810920	-75.483674	-79.887758
46306		9.483919	0.953859	-2.221725	-0.016682	0.013747	-0.009530	156.780852	-75.488138	-79.864778
46307		9.451568	0.984872	-2.273025	-0.011071	0.017016	-0.003210	156.761730	-75.495329	-79.844549
46308		9.482583	1.028448	-2.243407	-0.007852	0.014050	-0.005062	156.745519	-75.500960	-79.830656
46309		9.444975	1.038902	-2.258371	-0.007089	0.009460	-0.004589	156.732676	-75.504095	-79.817124
46310		9.453604	1.047036	-2.235948	-0.003593	0.006741	-0.004943	156.725529	-75.505903	-79.810074
46311		9.462889	1.085250	-2.196902	0.001164	0.007497	-0.004451	156.719542	-75.507862	-79.794502
46312		9.454567	1.077955	-2.217641	-0.000285	0.010878	-0.001438	156.717801	-75.512642	-79.791077
46313		9.441100	1.050425	-2.201351	-0.010309	0.012425	-0.002740	156.704031	-75.517953	-79.788557
46314		9.432880	1.043446	-2.221541	-0.015574	0.014727	-0.003549	156.685839	-75.524279	-79.777190
46315		9.428606	1.053843	-2.166620	-0.023477	0.011138	0.001765	156.675017	-75.529687	-79.774358
46316		9.471193	1.034540	-2.202804	-0.026232	0.007492	0.001251	156.666849	-75.533294	-79.779651
46317		9.446639	1.042633	-2.249673	-0.024282	0.012175	-0.001386	156.648564	-75.538677	-79.771261
46318		9.469052	1.078938	-2.241775	-0.031083	0.010757	-0.004542	156.622919	-75.542686	-79.761374
46319		9.482304	1.077701	-2.272295	-0.027820	0.011342	-0.003713	156.598648	-75.546954	-79.745490
46320		9.434245	1.047770	-2.213695	-0.032025	0.011074	-0.001216	156.578952	-75.551885	-79.742304
46321		9.418224	1.063877	-2.238551	-0.033337	0.015172	-0.004680	156.544758	-75.557814	-79.727677
46322		9.426197	1.042600	-2.232437	-0.037119	0.004747	-0.007236	156.515441	-75.558046	-79.717572
46323		9.447842	1.048872	-2.241706	-0.042914	0.007129	0.004754	156.503385	-75.562149	-79.724668
46324		9.485185	1.009379	-2.241333	-0.042659	0.005597	0.004909	156.494923	-75.565600	-79.739374
46325		9.517947	0.979520	-2.187381	-0.044384	0.008727	0.006427	156.483995	-75.570922	-79.751018
46326		9.501942	0.994965	-2.212516	-0.042614	0.009139	0.007590	156.477894	-75.576848	-79.768135
46327		9.510053	0.972482	-2.206381	-0.038110	0.011424	0.007934	156.471390	-75.583624	-79.771010
46328		9.497945	1.004835	-2.156211	-0.037855	0.009893	0.008087	156.468371	-75.590060	-79.788493
46329		9.481361	0.990254	-2.197947	-0.047162	0.014425	0.004637	156.447015	-75.598029	-79.791741
46330		9.426969	0.986104	-2.255793	-0.045984	0.010809	0.000118	156.422224	-75.603124	-79.791551
46331		9.431723	0.977560	-2.308387	-0.037014	0.000717	-0.001966	156.405057	-75.602213	-79.791533
46332		9.437570	1.029270	-2.327901	-0.012652	-0.003134	-0.009660	156.391813	-75.597744	-79.783549
46333		9.403483	1.057735	-2.268618	-0.021247	0.004390	-0.015243	156.353591	-75.595873	-79.755019
46334		9.465365	1.011818	-2.220345	-0.022240	0.012279	-0.014511	156.311158	-75.598375	-79.722571
46335		9.436776	0.897650	-2.223080	-0.016266	0.012968	-0.015839	156.267038	-75.600601	-79.677101
46336		9.436310	0.869361	-2.238655	0.001931	0.015279	-0.018320	156.227951	-75.603784	-79.633809
46337		9.406476	0.858126	-2.248979	0.006483	0.009988	-0.015376	156.200149	-75.604492	-79.592845
46338		9.411810	0.879918	-2.284874	0.028155	0.007817	-0.019558	156.180266	-75.603466	-79.553867
46339		9.423491	0.982244	-2.324086	0.035656	-0.000670	-0.019965	156.169375	-75.597780	-79.521731
46340		9.476004	1.061443	-2.289248	0.053600	0.003173	-0.022601	156.162073	-75.593612	-79.480689
46341		9.469205	1.145267	-2.260261	0.040870	0.004604	-0.021756	156.146153	-75.590084	-79.430006
46342		9.460569	1.139398	-2.282015	0.022798	0.001246	-0.027097	156.113810	-75.583857	-79.381330
46343		9.432937	1.085892	-2.251993	0.004253	0.004488	-0.030058	156.060378	-75.578565	-79.321168
46344		9.439995	1.036069	-2.263725	0.006439	0.005877	-0.033873	156.000758	-75.573164	-79.254003
46345		9.399295	0.985559	-2.201487	0.016075	0.006360	-0.040690	155.930358	-75.566152	-79.169362
46346		9.406324	0.936365	-2.213348	0.020795	0.003578	-0.042875	155.862883	-75.557403	-79.085586
46347		9.468036	0.892080	-2.165662	0.026388	0.006843	-0.036536	155.806642	-75.551602	-79.008487
46348		9.466895	0.834543	-2.198836	0.038646	0.012022	-0.035007	155.757783	-75.549074	-78.933369
46349		9.496875	0.849608	-2.186277	0.056895	0.019672	-0.033464	155.714287	-75.550702	-78.845180
46350		9.497572	0.880904	-2.168060	0.076572	0.020972	-0.021823	155.705693	-75.555931	-78.789202
46351		9.479422	0.969106	-2.217814	0.092880	0.023931	-0.017656	155.710475	-75.563491	-78.734480
46352		9.493852	1.026469	-2.214940	0.103969	0.019834	-0.013033	155.736410	-75.570199	-78.697951
46353		9.486681	1.078144	-2.202376	0.097020	0.015898	-0.011066	155.763927	-75.575153	-78.668959
46354		9.436470	1.119053	-2.169419	0.081856	0.019234	-0.005235	155.793579	-75.583390	-78.649353
46355		9.450403	1.145877	-2.183738	0.079807	0.016781	-0.009242	155.813881	-75.589038	-78.618174
46356		9.445891	1.155033	-2.129387	0.059611	0.019110	-0.005411	155.830547	-75.597172	-78.598320
46357		9.429440	1.139213	-2.171773	0.045847	0.011970	-0.007935	155.838632	-75.600716	-78.575691
46358		9.437963	1.146727	-2.149480	0.034857	0.012037	-0.007272	155.843783	-75.604718	-78.558594
46359		9.451333	1.144378	-2.180500	0.031340	0.012968	-0.008268	155.841982	-75.608803	-78.536492
46360		9.443187	1.136955	-2.201124	0.031778	0.015695	-0.011919	155.832546	-75.613627	-78.506156
46361		9.459166	1.091990	-2.190460	0.038622	0.007795	-0.007452	155.841401	-75.615209	-78.490823
46362		9.518605	1.087708	-2.183804	0.045311	0.011462	-0.010934	155.845587	-75.618051	-78.466546
46363		9.475729	1.076791	-2.162682	0.056875	0.015449	-0.005935	155.860830	-75.623790	-78.441522
46364		9.470723	1.055783	-2.125051	0.062434	0.015188	-0.002278	155.889073	-75.630612	-78.431952
46365		9.489525	1.072139	-2.193035	0.050037	0.011083	0.004027	155.925034	-75.636559	-78.436345
46366		9.475816	1.012249	-2.193799	0.048132	0.011745	0.010677	155.974727	-75.644607	-78.457377
46367		9.459979	1.024734	-2.219793	0.047451	0.012328	0.015498	156.031530	-75.653954	-78.486434
46368		9.455148	1.001901	-2.182141	0.042298	0.014177	0.022647	156.100283	-75.666047	-78.530586
46369		9.469264	1.026753	-2.196740	0.032061	0.007888	0.022469	156.166733	-75.674687	-78.577863
46370		9.453504	1.038796	-2.222713	0.023286	0.012889	0.021969	156.224539	-75.685923	-78.621956
46371		9.410491	0.995562	-2.217729	0.016250	0.014753	0.019971	156.270348	-75.697384	-78.656769
46372		9.407949	1.006021	-2.275191	0.013374	0.009754	0.010156	156.301128	-75.704236	-78.678829
46373		9.402433	0.954662	-2.254137	0.008332	0.006955	0.006826	156.322700	-75.708608	-78.691505
46374		9.440361	0.944688	-2.237120	0.005484	0.005517	-0.000327	156.331224	-75.710821	-78.695262
46375		9.442072	0.841531	-2.227901	0.011695	0.001109	-0.004149	156.337251	-75.709710	-78.694853
46376		9.466529	0.834676	-2.179815	0.027421	-0.001770	-0.006967	156.351243	-75.706572	-78.691281
46377		9.509567	0.844806	-2.200672	0.045740	-0.001685	-0.002800	156.382201	-75.704248	-78.694028
46378		9.496697	0.876433	-2.153175	0.065116	-0.004147	0.004690	156.443936	-75.702536	-78.717438
46379		9.476435	0.959829	-2.094669	0.076772	-0.004152	0.015001	156.531303	-75.702986	-78.763233
46380		9.496481	1.064640	-2.115186	0.072687	-0.003051	0.026800	156.642000	-75.706867	-78.832693
46381		9.495166	1.163347	-2.125439	0.052844	-0.002620	0.038760	156.763954	-75.713462	-78.923242
46382		9.471524	1.195663	-2.158195	0.027685	-0.005235	0.045903	156.890449	-75.720426	-79.035607
46383		9.440084	1.250624	-2.195973	-0.003288	-0.006061	0.049220	157.004795	-75.727494	-79.154642
46384		9.440548	1.246622	-2.196254	-0.036128	-0.005102	0.044721	157.092373	-75.734158	-79.264569
46385		9.457124	1.228882	-2.169515	-0.061674	-0.007540	0.042387	157.161006	-75.738942	-79.369101
46386		9.443690	1.199141	-2.153953	-0.091533	-0.008020	0.035892	157.201180	-75.742040	-79.462867
46387		9.436866	1.087036	-2.166252	-0.101078	-0.013108	0.032227	157.230605	-75.741513	-79.552059
46388		9.441707	1.001774	-2.082282	-0.108493	-0.011065	0.020747	157.232245	-75.739624	-79.616092
46389		9.468852	0.863575	-2.153387	-0.098813	-0.008877	0.015257	157.224273	-75.737490	-79.660959
46390		9.492769	0.826830	-2.121648	-0.076373	-0.006362	0.010274	157.218433	-75.735765	-79.698288
46391		9.513773	0.801907	-2.148357	-0.046070	-0.003190	0.013111	157.230479	-75.736196	-79.738788
46392		9.519760	0.851645	-2.168767	-0.017048	-0.005271	0.013782	157.264966	-75.735820	-79.782654
46393		9.490445	0.867892	-2.163827	0.002956	-0.000803	0.013796	157.304121	-75.737586	-79.824089
46394		9.496612	0.916505	-2.183980	0.014278	0.004683	0.018630	157.358004	-75.743528	-79.869448
46395		9.446551	0.956817	-2.151719	0.008841	0.004511	0.022949	157.415652	-75.750242	-79.923808
46396		9.454673	0.931812	-2.146262	-0.000113	0.005282	0.026271	157.476787	-75.758157	-79.985153
46397		9.458114	0.992015	-2.224475	-0.013572	0.003772	0.029255	157.535471	-75.765717	-80.052618
46398		9.488412	1.002556	-2.212603	-0.045522	-0.000249	0.033222	157.589999	-75.772193	-80.133985
46399		9.473205	1.045691	-2.222218	-0.065233	-0.002680	0.036031	157.638788	-75.777770	-80.222768
46400		9.452587	1.068942	-2.194850	-0.082455	-0.001720	0.037849	157.683210	-75.784439	-80.315534
46401		9.458431	1.087410	-2.230779	-0.104160	-0.001266	0.040656	157.718769	-75.791824	-80.410519
46402		9.453441	1.066016	-2.192592	-0.128906	0.004637	0.040151	157.736080	-75.802337	-80.502767
46403		9.401631	1.017534	-2.209035	-0.142533	-0.001754	0.031128	157.729644	-75.807464	-80.582506
46404		9.408858	0.965281	-2.219901	-0.149108	-0.008263	0.025427	157.715657	-75.807942	-80.654405
46405		9.424248	0.921150	-2.209863	-0.143201	-0.014707	0.018735	157.694672	-75.803465	-80.713451
46406		9.439471	0.877511	-2.200389	-0.127586	-0.015376	0.009259	157.665226	-75.796667	-80.756687
46407		9.481049	0.829629	-2.254619	-0.099680	-0.009125	0.002669	157.630212	-75.791540	-80.778396
46408		9.535398	0.836595	-2.194814	-0.073821	-0.003514	-0.006578	157.588218	-75.787584	-80.776912
46409		9.505963	0.856203	-2.189191	-0.058350	-0.003113	-0.008225	157.549573	-75.783390	-80.766816
46410		9.496706	0.820916	-2.227704	-0.043700	-0.003431	-0.014364	157.508521	-75.777771	-80.748501
46411		9.465827	0.780610	-2.256245	-0.027283	-0.003335	-0.019333	157.464072	-75.770874	-80.717786
46412		9.487979	0.817847	-2.249196	0.000772	0.005996	-0.015240	157.438547	-75.770045	-80.689202
46413		9.488696	0.849198	-2.231568	0.010032	0.009027	-0.014374	157.415307	-75.770982	-80.659657
46414		9.437150	0.832568	-2.232452	0.014723	0.004467	-0.017897	157.393563	-75.768754	-80.626727
46415		9.450963	0.861591	-2.247062	0.032230	0.005532	-0.016873	157.381128	-75.767257	-80.592982
46416		9.451595	0.892536	-2.229873	0.038209	0.006212	-0.018192	157.370723	-75.765883	-80.557866
46417		9.459987	0.901013	-2.207741	0.030933	0.009634	-0.020335	157.346536	-75.765709	-80.514176
46418		9.457678	0.945525	-2.248588	0.012707	0.005577	-0.019223	157.319930	-75.763764	-80.477420
46419		9.434332	1.015006	-2.262649	0.004245	0.001495	-0.016937	157.294470	-75.760044	-80.450095
46420		9.408933	0.994631	-2.327912	-0.020543	-0.007273	-0.020189	157.258036	-75.751086	-80.422853
46421		9.438525	1.009546	-2.316893	-0.021240	-0.008491	-0.016710	157.227672	-75.742185	-80.402003
46422		9.438826	1.041737	-2.300328	-0.029468	-0.004759	-0.015527	157.193691	-75.735582	-80.382567
46423		9.433050	1.023573	-2.264135	-0.031021	-0.010243	-0.019229	157.153969	-75.725095	-80.358648
46424		9.448786	1.010788	-2.238336	-0.036725	-0.010689	-0.016415	157.119236	-75.715157	-80.342724
46425		9.434560	0.985043	-2.224300	-0.033927	-0.014625	-0.013287	157.094317	-75.703660	-80.333579
46426		9.479701	0.954493	-2.203971	-0.035189	-0.006980	-0.014056	157.062161	-75.696202	-80.319406
46427		9.465707	0.928455	-2.189187	-0.033636	-0.001500	-0.010352	157.031855	-75.692287	-80.306305
46428		9.473401	0.907624	-2.184104	-0.042136	0.001985	-0.010663	156.994913	-75.690313	-80.291299
46429		9.524289	0.897368	-2.199078	-0.032626	0.003498	-0.009644	156.962189	-75.689125	-80.275568
46430		9.515902	0.891460	-2.220204	-0.021371	0.003656	-0.008800	156.939537	-75.688446	-80.263031
46431		9.505131	0.928482	-2.282642	-0.007128	0.004161	-0.008614	156.923057	-75.687942	-80.248535
46432		9.497321	0.952092	-2.287012	0.000848	0.001966	-0.009955	156.912241	-75.686111	-80.235075
46433		9.464349	0.953463	-2.356649	0.001120	0.002206	-0.008456	156.902558	-75.684523	-80.222877
46434		9.421720	0.973584	-2.319386	0.007855	-0.001690	-0.009316	156.900302	-75.680907	-80.214108
46435		9.430017	0.981443	-2.297803	0.015888	0.001423	-0.006618	156.904097	-75.679390	-80.202744
46436		9.423992	0.931300	-2.278331	0.009096	0.000011	-0.009797	156.900063	-75.676562	-80.191405
46437		9.449042	0.953954	-2.213331	0.010166	-0.000798	-0.005149	156.905200	-75.674127	-80.188043
46438		9.469921	0.929713	-2.240748	0.008110	-0.003221	-0.009163	156.904758	-75.669739	-80.180994
46439		9.457187	0.962460	-2.192130	0.000405	-0.000788	-0.006324	156.901854	-75.667138	-80.175932
46440		9.491855	0.966321	-2.234193	-0.010052	-0.002000	-0.004019	156.900547	-75.664549	-80.178731
46441		9.491788	0.966936	-2.234211	-0.008812	-0.000298	-0.004501	156.895984	-75.662669	-80.175613
46442		9.461258	0.924892	-2.262605	-0.011085	0.002347	-0.005975	156.886227	-75.661932	-80.170301
46443		9.469634	0.933189	-2.240516	-0.022067	0.002423	-0.005322	156.869824	-75.661197	-80.163216
46444		9.430789	0.884053	-2.290319	-0.016346	0.004645	-0.006792	156.853349	-75.661486	-80.154081
46445		9.422415	0.877803	-2.311606	-0.005925	0.002322	-0.011788	156.832951	-75.659309	-80.134342
46446		9.446373	0.841278	-2.280179	0.006721	0.004934	-0.017900	156.806553	-75.657243	-80.101324
46447		9.425298	0.867707	-2.252631	0.020844	0.005951	-0.025688	156.769335	-75.653880	-80.052154
46448		9.462969	0.859590	-2.236000	0.041062	0.007160	-0.026817	156.742314	-75.650961	-79.998183
46449		9.498060	0.894704	-2.261098	0.058208	-0.000825	-0.034019	156.716257	-75.642048	-79.930590
46450		9.497276	0.866577	-2.278440	0.072387	0.005496	-0.037776	156.686197	-75.635757	-79.854951
46451		9.514344	0.913429	-2.217950	0.082356	0.011534	-0.039050	156.652631	-75.632273	-79.768048
46452		9.478981	0.881819	-2.192690	0.087897	0.009475	-0.036738	156.630131	-75.628291	-79.691037
46453		9.493016	0.941517	-2.190602	0.084644	0.008874	-0.037584	156.603152	-75.623793	-79.611825
46454		9.501214	0.950594	-2.168854	0.086686	0.009527	-0.034923	156.583693	-75.620235	-79.538665
46455		9.485317	0.997145	-2.178487	0.082736	0.007713	-0.032285	156.567476	-75.616269	-79.471926
46456		9.434229	1.010013	-2.163014	0.080580	0.009866	-0.025795	156.562967	-75.614961	-79.417811
46457		9.461490	1.066246	-2.193102	0.074965	0.005389	-0.017684	156.574519	-75.612874	-79.380616
46458		9.488342	1.091906	-2.240080	0.064265	0.007470	-0.014195	156.586573	-75.612951	-79.353250
46459		9.437713	1.133857	-2.208183	0.056327	0.000312	-0.011582	156.604143	-75.609818	-79.337879
46460		9.496532	1.099184	-2.219144	0.045623	0.002398	-0.008093	156.622528	-75.608619	-79.328075
46461		9.713580	0.720478	-2.251393	0.004579	0.004641	-0.028576	156.571670	-75.603797	-79.272627
46462		10.251114	0.958690	-2.510627	0.065553	0.057894	-0.018301	156.531209	-75.629439	-79.190285
46463		9.535040	1.136381	-1.880684	0.089651	0.042539	-0.051269	156.448780	-75.639277	-79.050878
46464		9.032933	1.404890	-2.277956	0.115131	-0.013201	-0.067747	156.398689	-75.616208	-78.929275
46465		9.275089	1.787105	-2.152867	0.108669	-0.054246	-0.059082	156.398437	-75.573520	-78.860006
46466		9.446317	1.935530	-2.359190	0.125013	0.002473	-0.000557	156.477665	-75.574079	-78.866057
46467		8.882384	1.624602	-1.781586	-0.065415	0.057346	0.024341	156.448373	-75.608915	-78.869018
46468		9.627885	0.678297	-1.752165	-0.307921	-0.017900	0.003572	156.306227	-75.599729	-78.902612
46469		9.045525	0.514641	-2.899103	-0.095163	0.049165	0.020520	156.259112	-75.629617	-78.905128
46470		9.605793	0.737049	-2.059641	-0.140854	-0.000377	0.009748	156.209688	-75.631067	-78.935620
46471		9.271189	0.919676	-2.380277	0.038565	0.006674	0.007082	156.249894	-75.635394	-78.948389
46472		9.422439	1.165129	-2.222264	0.000482	-0.008381	-0.003698	156.261135	-75.629541	-78.957910
46473		9.500650	1.239418	-2.252674	0.025300	-0.025296	-0.003239	156.301609	-75.614771	-78.977737
46474		9.610309	1.193502	-2.279822	-0.019541	-0.001810	-0.003696	156.295452	-75.612364	-78.981141
46475		9.602311	1.110539	-2.164275	-0.014033	0.009046	0.000022	156.288699	-75.616353	-78.978788
46476		9.540074	1.022185	-2.107898	-0.048080	0.008220	-0.004027	156.256501	-75.619131	-78.972189
46477		9.439660	0.913962	-2.084727	-0.060842	0.006074	-0.005890	156.214085	-75.620143	-78.954615
46478		9.401192	0.865077	-2.134016	-0.061313	-0.001990	-0.006270	156.178914	-75.617048	-78.952773
46479		9.425035	0.905187	-2.238938	-0.047235	-0.003939	-0.000937	156.162600	-75.613811	-78.958141
46480		9.449457	0.898501	-2.190751	-0.034910	-0.004535	0.004568	156.167004	-75.611891	-78.981539
46481		9.509161	0.924186	-2.167561	-0.024047	0.000014	0.014427	156.192242	-75.614591	-79.019177
46482		9.568654	0.918579	-2.161107	-0.008196	0.000260	0.022272	156.243828	-75.619270	-79.075481
46483		9.544728	0.953824	-2.192529	0.001396	-0.002217	0.028593	156.314879	-75.623920	-79.140860
46484		9.550711	1.001317	-2.212497	0.011441	-0.000184	0.032614	156.399383	-75.630709	-79.219528
46485		9.497438	1.052593	-2.238845	0.013990	-0.002574	0.035596	156.492017	-75.636826	-79.305928
46486		9.460833	1.118716	-2.221796	0.003555	-0.000253	0.040579	156.588580	-75.645332	-79.401703
46487		9.471264	1.095728	-2.328433	-0.028953	0.004439	0.040218	156.660382	-75.655883	-79.483222
46488		9.410383	1.169989	-2.358739	-0.034147	0.000928	0.043344	156.740213	-75.665571	-79.584014
46489		9.440709	1.180056	-2.346729	-0.049214	-0.002111	0.037309	156.800577	-75.672179	-79.669298
46490		9.414166	1.151584	-2.299653	-0.050865	-0.003015	0.044114	156.876098	-75.679904	-79.775520
46491		9.400818	1.120993	-2.284567	-0.047473	-0.005244	0.035788	156.936643	-75.684414	-79.864724
46492		9.418158	1.163992	-2.224244	-0.046787	-0.005804	0.030961	156.989913	-75.687661	-79.945567
46493		9.412976	1.141860	-2.187541	-0.046611	-0.003305	0.025824	157.028503	-75.690776	-80.010085
46494		9.429370	1.125531	-2.160654	-0.048184	0.000550	0.020860	157.054565	-75.695090	-80.063673
46495		9.421812	1.147501	-2.164549	-0.063460	0.004371	0.018697	157.062054	-75.700588	-80.103917
46496		9.407929	1.089351	-2.165213	-0.086459	0.008850	0.018018	157.053075	-75.708643	-80.143972
46497		9.436741	1.012326	-2.202694	-0.093480	0.010721	0.016018	157.032459	-75.716877	-80.169721
46498		9.444494	0.959973	-2.213037	-0.085192	0.012304	0.018871	157.022971	-75.726950	-80.208499
46499		9.452164	0.907252	-2.223920	-0.063717	0.004101	0.017177	157.027451	-75.732132	-80.250368
46500		9.503998	0.924622	-2.221122	-0.050379	0.010222	0.024748	157.051988	-75.742418	-80.303669
46501		9.539781	0.956416	-2.244793	-0.031594	0.005446	0.027904	157.096040	-75.750730	-80.366663
46502		9.561724	0.959553	-2.254296	-0.020805	0.001089	0.031045	157.158750	-75.757577	-80.441863
46503		9.533210	1.004121	-2.231527	-0.021234	0.000098	0.036019	157.231141	-75.764725	-80.519964
46504		9.482664	1.012851	-2.215719	-0.029369	0.001533	0.043825	157.315340	-75.774588	-80.622389
46505		9.453774	1.026931	-2.209746	-0.048611	0.001792	0.042943	157.385084	-75.784170	-80.717640
46506		9.435542	1.004968	-2.140646	-0.055771	0.004689	0.048770	157.462000	-75.796725	-80.828146
46507		9.421739	0.943375	-2.142040	-0.071640	0.005014	0.056703	157.544368	-75.810850	-80.949686
46508		9.464930	0.920174	-2.178457	-0.083804	-0.002435	0.061730	157.638893	-75.822382	-81.094909
46509		9.465445	0.916003	-2.177979	-0.090474	-0.004371	0.066499	157.739524	-75.833786	-81.253005
46510		9.463863	0.954940	-2.218383	-0.088138	-0.001745	0.072014	157.853010	-75.847783	-81.420331
46511		9.464545	0.949942	-2.217617	-0.089331	0.000065	0.075182	157.969131	-75.863125	-81.590618
46512		9.470871	0.965384	-2.253135	-0.080520	0.000312	0.079690	158.102031	-75.879689	-81.773438
46513		9.480735	0.996806	-2.213092	-0.075577	0.003585	0.075088	158.223595	-75.896592	-81.937963
46514		9.466289	1.037109	-2.220843	-0.081361	0.005426	0.071265	158.334558	-75.913902	-82.098635
46515		9.446710	0.953315	-2.186229	-0.089820	0.001325	0.073496	158.446920	-75.929194	-82.266245
46516		9.417367	0.936208	-2.197231	-0.082665	-0.001581	0.067653	158.555938	-75.941857	-82.425661
46517		9.415708	0.926713	-2.085200	-0.081266	-0.008457	0.061896	158.657414	-75.949408	-82.575623
46518		9.496885	0.922601	-2.089487	-0.090511	-0.019076	0.063519	158.768016	-75.951728	-82.741296
46519		9.467035	0.906309	-2.102240	-0.099981	-0.018809	0.063814	158.871593	-75.954094	-82.907086
46520		9.505676	0.818014	-2.064543	-0.109714	-0.033968	0.067671	158.992371	-75.949155	-83.094589
46521		9.523610	0.803214	-2.152277	-0.089171	-0.029115	0.070802	159.125576	-75.947311	-83.284588
46522		9.500013	0.836860	-2.185194	-0.076427	-0.036454	0.073860	159.280499	-75.942084	-83.487635
46523		9.488660	0.838884	-2.267780	-0.071909	-0.034202	0.074239	159.434657	-75.937911	-83.689195
46524		9.469479	0.814056	-2.202978	-0.081474	-0.046792	0.072973	159.592763	-75.926689	-83.898516
46525		9.485867	0.822615	-2.163574	-0.086014	-0.058431	0.073727	159.756902	-75.909066	-84.115122
46526		9.529716	0.857456	-2.170023	-0.110232	-0.043466	0.081581	159.913691	-75.901048	-84.340099
46527		9.542309	0.796856	-2.352209	-0.088404	-0.042818	0.088112	160.094326	-75.894333	-84.575188
46528		9.543185	0.819675	-2.337728	-0.054142	-0.036281	0.089808	160.294948	-75.891442	-84.812235
46529		9.502055	0.861411	-2.285187	-0.047465	-0.034357	0.085038	160.485908	-75.888332	-85.033007
46530		9.476386	0.783860	-2.201409	-0.058166	-0.028143	0.083313	160.663936	-75.888217	-85.249140
46531		9.463250	0.779215	-2.171915	-0.062329	-0.032858	0.075227	160.823498	-75.883737	-85.449722
46532		9.483593	0.749032	-2.202131	-0.063039	-0.028268	0.074820	160.980451	-75.881662	-85.647009
46533		9.468823	0.789624	-2.212504	-0.061954	-0.027707	0.065032	161.114634	-75.877810	-85.818824
46534		9.442938	0.765476	-2.280077	-0.057148	-0.023789	0.052504	161.223440	-75.873811	-85.962987
46535		9.416654	0.765321	-2.218069	-0.047157	-0.023969	0.039396	161.307862	-75.867230	-86.077328
46536		9.401807	0.809162	-2.227848	-0.050332	-0.019551	0.026872	161.362074	-75.860731	-86.161173
46537		9.421794	0.783987	-2.257492	-0.061083	-0.027076	0.015724	161.389534	-75.848004	-86.224015
46538		9.477643	0.741868	-2.160073	-0.064526	-0.028740	0.005551	161.396213	-75.832596	-86.267234
46539		9.488712	0.712100	-2.212202	-0.080559	-0.031258	0.002811	161.387495	-75.815242	-86.305122
46540		9.479771	0.632886	-2.214124	-0.076187	-0.023992	0.005809	161.384524	-75.802460	-86.345285
46541		9.498292	0.580061	-2.261638	-0.064164	-0.019173	0.005936	161.383392	-75.792305	-86.380680
46542		9.457699	0.532845	-2.314536	-0.043328	-0.014209	0.010560	161.402311	-75.785703	-86.424005
46543		9.487704	0.544241	-2.303914	-0.024116	-0.014646	0.011397	161.432560	-75.778926	-86.467304
46544		9.423862	0.557219	-2.257214	0.010070	-0.017554	0.014176	161.492151	-75.771153	-86.521028
46545		9.466668	0.565934	-2.279669	0.020630	-0.029043	0.011736	161.559015	-75.756616	-86.575957
46546		9.451251	0.610202	-2.291399	0.049015	-0.047913	0.006465	161.645833	-75.730911	-86.634758
46547		9.448669	0.675727	-2.206526	0.045885	-0.047605	-0.000836	161.713376	-75.704061	-86.675082
46548		9.438630	0.646026	-2.363049	0.053446	-0.053553	-0.006463	161.778644	-75.672930	-86.709037
46549		9.398122	0.723591	-2.295224	0.079397	-0.066466	-0.011935	161.854271	-75.633706	-86.738476
46550		9.423861	0.772724	-2.219290	0.059134	-0.081290	-0.020256	161.912305	-75.584994	-86.761610
46551		9.459010	0.739697	-2.341395	0.050790	-0.084518	-0.024482	161.956970	-75.533684	-86.775811
46552		9.462233	0.762367	-2.386220	0.063583	-0.092841	-0.029354	162.005807	-75.477056	-86.786824
46553		9.446979	0.765352	-2.363415	0.061010	-0.092127	-0.033657	162.042058	-75.419981	-86.785229
46554		9.424397	0.791730	-2.344559	0.076564	-0.090961	-0.041813	162.070631	-75.362175	-86.767621
46555		9.393915	0.835143	-2.217954	0.074385	-0.089199	-0.051074	162.075721	-75.303668	-86.728649
46556		9.416801	0.835754	-2.291448	0.070085	-0.097419	-0.061881	162.063395	-75.238803	-86.672581
46557		9.446002	0.888177	-2.384160	0.093425	-0.103757	-0.075579	162.038826	-75.167969	-86.592037
46558		9.436395	0.848401	-2.487932	0.118536	-0.099419	-0.081431	162.016160	-75.098548	-86.496514
46559		9.399152	0.849903	-2.455575	0.134321	-0.092185	-0.092009	161.975259	-75.031140	-86.372604
46560		9.404240	0.930065	-2.353967	0.135814	-0.076806	-0.097368	161.916324	-74.971172	-86.229225
46561		9.407695	0.883350	-2.375653	0.123761	-0.073129	-0.092092	161.858038	-74.914157	-86.094200
46562		9.463418	0.957230	-2.401311	0.132944	-0.066070	-0.096521	161.793622	-74.860107	-85.946770
46563		9.460969	0.963222	-2.408553	0.117084	-0.061638	-0.093686	161.722135	-74.808917	-85.801770
46564		9.382419	0.892444	-2.552095	0.104112	-0.057672	-0.085061	161.660029	-74.761407	-85.673783
46565		9.381558	0.926903	-2.541085	0.124813	-0.056939	-0.076923	161.624575	-74.715714	-85.561063
46566		9.426981	0.921908	-2.398099	0.105930	-0.042499	-0.066731	161.590901	-74.679719	-85.461419
46567		9.406711	0.876573	-2.351954	0.085912	-0.045955	-0.058820	161.562291	-74.643225	-85.380460
46568		9.479456	0.932281	-2.350177	0.080833	-0.055336	-0.051794	161.552824	-74.602937	-85.320800
46569		9.465965	0.971816	-2.418116	0.071240	-0.048228	-0.047446	161.540500	-74.567227	-85.263421
46570		9.371673	1.011424	-2.479964	0.044102	-0.053274	-0.044116	161.524086	-74.529445	-85.218366
46571		9.411325	0.995301	-2.523890	0.039962	-0.054543	-0.049416	161.494359	-74.490030	-85.162463
46572		9.387341	1.062838	-2.429944	0.015990	-0.043801	-0.050342	161.443825	-74.456248	-85.098697
46573		9.410583	1.063681	-2.498161	0.001700	-0.036649	-0.052913	161.374183	-74.425807	-85.023357
46574		9.405702	1.077784	-2.447838	0.002357	-0.035412	-0.056393	161.299092	-74.395430	-84.942186
46575		9.426863	1.118358	-2.444291	-0.009653	-0.030935	-0.057528	161.210873	-74.367177	-84.853357
46576		9.415235	1.087354	-2.485798	-0.032168	-0.031192	-0.058952	161.108897	-74.338548	-84.764786
46577		9.409191	1.072967	-2.452003	-0.050362	-0.035255	-0.057656	161.000195	-74.308008	-84.682635
46578		9.384059	1.014460	-2.478397	-0.075798	-0.031355	-0.047844	160.895434	-74.281280	-84.617114
46579		9.362398	0.946834	-2.558369	-0.070782	-0.032150	-0.047254	160.793638	-74.254202	-84.553667
46580		9.364421	0.908842	-2.520193	-0.051888	-0.033470	-0.041680	160.716353	-74.227435	-84.502443
46581		9.401368	0.903358	-2.507675	-0.041491	-0.031279	-0.036281	160.652312	-74.202738	-84.460226
46582		9.427337	0.928689	-2.445437	-0.035814	-0.028072	-0.029979	160.603321	-74.181081	-84.428824
46583		9.444365	0.981499	-2.498797	-0.048187	-0.024637	-0.026120	160.550859	-74.161989	-84.400507
46584		9.448010	0.971506	-2.442734	-0.065724	-0.027485	-0.028292	160.487772	-74.140956	-84.372260
46585		9.426713	0.901981	-2.522556	-0.089191	-0.028303	-0.019887	160.425917	-74.121099	-84.362063
46586		9.390898	0.907704	-2.593314	-0.071080	-0.027738	-0.023923	160.368447	-74.100752	-84.342841
46587		9.348616	0.930522	-2.556387	-0.071938	-0.025700	-0.019225	160.316546	-74.082464	-84.329848
46588		9.363496	0.888829	-2.549867	-0.077239	-0.025158	-0.021315	160.258911	-74.064003	-84.314120
46589		9.362896	0.857771	-2.457356	-0.083166	-0.026837	-0.027764	160.185244	-74.043469	-84.286769
46590		9.397574	0.828294	-2.573223	-0.081543	-0.022340	-0.031856	160.103573	-74.024465	-84.248603
46591		9.358595	0.843250	-2.589573	-0.044126	-0.018478	-0.032579	160.038010	-74.007490	-84.204944
46592		9.419597	0.901874	-2.551606	-0.038819	-0.019028	-0.030497	159.981348	-73.990511	-84.167321
46593		9.382723	0.877636	-2.639282	-0.042357	-0.017126	-0.023599	159.932856	-73.975915	-84.141069
46594		9.428591	0.944769	-2.514628	-0.036275	-0.008414	-0.011690	159.905769	-73.968331	-84.132698
46595		9.436012	0.924312	-2.511579	-0.059693	-0.021399	-0.011339	159.873494	-73.953831	-84.132453
46596		9.411464	0.897228	-2.631526	-0.047481	-0.017032	-0.003422	159.861389	-73.943240	-84.146351
46597		9.354731	0.894653	-2.690764	-0.035947	-0.015689	0.006601	159.872385	-73.935319	-84.175594
46598		9.356092	0.888495	-2.580019	-0.033501	-0.011315	0.013481	159.895930	-73.931133	-84.218257
46599		9.376077	0.863762	-2.608926	-0.036103	-0.007930	0.018410	159.923459	-73.929698	-84.266523
46600		9.410375	0.928235	-2.451338	-0.022098	-0.004106	0.019644	159.960112	-73.930592	-84.316029
46601		9.420900	0.931694	-2.595849	-0.023490	-0.011919	0.022479	160.005166	-73.927983	-84.375913
46602		9.412212	1.020430	-2.511343	-0.022221	-0.008446	0.023371	160.051660	-73.927248	-84.435733
46603		9.375874	0.991789	-2.598376	-0.047771	-0.012662	0.019947	160.078380	-73.923489	-84.491471
46604		9.367910	1.014032	-2.602796	-0.047348	-0.008102	0.017716	160.099652	-73.921818	-84.540027
46605		9.343083	1.052629	-2.632235	-0.043610	-0.002136	0.009824	160.102722	-73.921757	-84.568866
46606		9.351027	1.030077	-2.628001	-0.037921	0.000116	0.008306	160.106242	-73.922675	-84.593326
46607		9.379463	1.080935	-2.545193	-0.059050	-0.005314	0.002464	160.088502	-73.919524	-84.612606
46608		9.381781	1.008339	-2.522553	-0.093697	-0.004628	0.011567	160.069364	-73.918527	-84.646745
46609		9.388454	0.957120	-2.535957	-0.102016	-0.005277	0.016638	160.053842	-73.918224	-84.690929
46610		9.388426	0.957799	-2.535804	-0.096576	-0.011726	0.022552	160.058384	-73.915555	-84.751430
46611		9.366651	0.988702	-2.619084	-0.068645	-0.007607	0.022295	160.074381	-73.915030	-84.805826
46612		9.363536	0.996262	-2.565475	-0.058706	-0.012673	0.020704	160.097792	-73.911481	-84.863383
46613		9.372586	1.002632	-2.544147	-0.048137	-0.005306	0.015937	160.112206	-73.910913	-84.903355
46614		9.383663	1.105065	-2.580576	-0.042188	-0.005496	0.006711	160.114076	-73.908497	-84.928643
46615		9.370137	1.077956	-2.566086	-0.063739	-0.005239	-0.004480	160.081012	-73.904130	-84.931205
46616		9.380902	1.049920	-2.615713	-0.072987	0.001944	-0.012818	160.023745	-73.901911	-84.913312
46617		9.359538	1.047091	-2.604368	-0.057410	-0.001706	-0.009461	159.982768	-73.898453	-84.902681
46618		9.385028	1.106474	-2.466592	-0.071421	0.006523	-0.002577	159.942400	-73.900701	-84.901442
46619		9.428394	1.052936	-2.575832	-0.082715	0.016646	0.003495	159.898314	-73.909547	-84.903931
46620		9.389923	0.998455	-2.512590	-0.090821	0.013583	0.015142	159.875053	-73.919084	-84.932066
46621		9.416025	1.026326	-2.557008	-0.097698	0.012231	0.026321	159.867728	-73.930092	-84.983832
46622		9.365977	1.074415	-2.630494	-0.092530	0.019334	0.040257	159.886519	-73.947675	-85.056741
46623		9.388386	1.078002	-2.637844	-0.095297	0.028588	0.055685	159.924407	-73.973177	-85.154324
46624		9.433651	1.115492	-2.637014	-0.116301	0.030182	0.069601	159.977494	-74.002337	-85.277065
46625		9.413011	1.039769	-2.546685	-0.165375	0.031791	0.078510	160.016434	-74.033947	-85.418079
46626		9.357073	1.005221	-2.618129	-0.213044	0.030940	0.092121	160.056652	-74.067869	-85.585046
46627		9.339426	0.921979	-2.581871	-0.222704	0.024104	0.101273	160.112266	-74.099836	-85.774038
46628		9.335144	0.866429	-2.560292	-0.207329	0.023639	0.105875	160.187729	-74.132409	-85.974191
46629		9.376490	0.814593	-2.614227	-0.196109	0.021988	0.105167	160.268255	-74.163872	-86.174678
46630		9.378129	0.706384	-2.608811	-0.183796	0.016840	0.099840	160.351454	-74.191460	-86.368797
46631		9.406809	0.655478	-2.631612	-0.171001	0.018033	0.093746	160.428627	-74.218325	-86.548631
46632		9.362104	0.646863	-2.553622	-0.188943	0.020001	0.092634	160.493889	-74.246099	-86.727122
46633		9.419599	0.579596	-2.583637	-0.184457	0.019693	0.083742	160.543820	-74.271746	-86.888032
46634		9.423521	0.530636	-2.542149	-0.163756	0.019531	0.084019	160.608087	-74.297527	-87.050454
46635		9.468586	0.463243	-2.540273	-0.143799	0.023984	0.083998	160.679624	-74.325576	-87.209204
46636		9.507718	0.447096	-2.522356	-0.121021	0.033803	0.086010	160.763426	-74.359340	-87.366439
46637		9.428284	0.441893	-2.512212	-0.103447	0.038276	0.089688	160.860964	-74.396231	-87.526150
46638		9.483130	0.418002	-2.579907	-0.102196	0.039974	0.089236	160.958808	-74.433802	-87.686709
46639		9.431022	0.366185	-2.595879	-0.074487	0.037060	0.083567	161.062797	-74.468500	-87.836983
46640		9.441328	0.366139	-2.570352	-0.049098	0.035123	0.075142	161.167995	-74.500673	-87.973546
46641		9.468126	0.349469	-2.519864	-0.034111	0.038844	0.058903	161.246569	-74.531934	-88.075928
46642		9.423168	0.340438	-2.441339	-0.021957	0.037215	0.040633	161.299057	-74.558793	-88.141630
46643		9.418361	0.325641	-2.514046	0.006949	0.033524	0.025319	161.340003	-74.580661	-88.176028
46644		9.440726	0.328677	-2.521154	0.048193	0.036631	0.013043	161.379071	-74.602124	-88.186104
46645		9.417741	0.430483	-2.454010	0.076072	0.038116	0.003781	161.414371	-74.622707	-88.173762
46646		9.434277	0.549839	-2.353293	0.077739	0.042703	-0.000194	161.440297	-74.645048	-88.152648
46647		9.456807	0.553506	-2.359633	0.073863	0.050218	0.001469	161.461893	-74.671840	-88.127657
46648		9.445585	0.552056	-2.323048	0.086947	0.051624	-0.003044	161.481501	-74.698513	-88.094529
46649		9.447688	0.589514	-2.411747	0.098135	0.042296	-0.001340	161.516722	-74.720437	-88.068517
46650		9.408704	0.580877	-2.553198	0.113400	0.044423	-0.017464	161.527557	-74.740587	-88.010591
46651		9.435221	0.568486	-2.502331	0.124337	0.051978	-0.020558	161.532479	-74.764128	-87.940929
46652		9.372718	0.655138	-2.468681	0.127673	0.050928	-0.035415	161.511144	-74.784552	-87.841199
46653		9.384257	0.690734	-2.424032	0.128481	0.054902	-0.043918	161.470506	-74.805507	-87.716850
46654		9.429718	0.732097	-2.421610	0.133994	0.057862	-0.053318	161.411921	-74.826396	-87.574790
46655		9.415855	0.779987	-2.423682	0.134721	0.060891	-0.055385	161.346716	-74.848316	-87.424062
46656		9.401975	0.828093	-2.425701	0.135401	0.062183	-0.058846	161.274328	-74.870450	-87.266896
46657		9.410610	0.807266	-2.417037	0.132810	0.073133	-0.056301	161.196999	-74.898862	-87.106410
46658		9.395686	0.817113	-2.324647	0.123644	0.081240	-0.056826	161.108036	-74.931591	-86.939096
46659		9.371826	0.821561	-2.253701	0.106570	0.081316	-0.062753	160.995818	-74.962909	-86.757935
46660		9.428156	0.723319	-2.186166	0.086117	0.067964	-0.071285	160.864309	-74.985572	-86.568877
46661		9.449042	0.704992	-2.209953	0.067130	0.045395	-0.079127	160.720929	-74.994653	-86.380432
46662		9.461951	0.710307	-2.239133	0.076650	0.027232	-0.083917	160.586706	-74.992662	-86.194198
46663		9.482562	0.804722	-2.379657	0.087971	0.030813	-0.080357	160.463554	-74.993213	-86.010266
46664		9.399444	0.854989	-2.411518	0.102798	0.033423	-0.075842	160.356160	-74.995910	-85.836298
46665		9.415898	0.946089	-2.386588	0.110998	0.034024	-0.066554	160.271189	-75.000813	-85.681310
46666		9.414732	1.023948	-2.405679	0.102324	0.031401	-0.064462	160.187764	-75.004483	-85.532445
46667		9.438860	1.091233	-2.376642	0.089733	0.050035	-0.051241	160.109147	-75.020503	-85.396737
46668		9.474933	1.127853	-2.396620	0.064969	0.055047	-0.045053	160.025827	-75.040592	-85.270153
46669		9.416548	1.136231	-2.396704	0.044317	0.066284	-0.045177	159.921939	-75.066611	-85.130348
46670		9.426753	1.042667	-2.365463	0.021145	0.072347	-0.045788	159.798510	-75.095743	-84.988271
46671		9.410237	0.922367	-2.288307	0.016479	0.061340	-0.053086	159.664629	-75.117340	-84.838137
46672		9.416029	0.859377	-2.075264	0.004208	0.031335	-0.064580	159.523480	-75.120524	-84.687791
46673		9.398593	0.853138	-2.116824	-0.008800	0.015308	-0.077497	159.360224	-75.112362	-84.522132
46674		9.448553	0.806012	-2.391108	0.013882	0.021706	-0.078174	159.204588	-75.107420	-84.351054
46675		9.453558	0.813054	-2.554318	0.061259	0.033381	-0.078228	159.066419	-75.108733	-84.170936
46676		9.410866	0.807746	-2.531064	0.086788	0.042551	-0.086147	158.920497	-75.113081	-83.966686
46677		9.428518	0.826771	-2.483746	0.102427	0.049128	-0.090145	158.769960	-75.119818	-83.745654
46678		9.439413	0.765398	-2.436264	0.102616	0.053459	-0.093865	158.608783	-75.128103	-83.516250
46679		9.440046	0.771842	-2.431774	0.113510	0.059275	-0.098385	158.439635	-75.138314	-83.270270
46680		9.418474	0.742925	-2.435082	0.133270	0.057702	-0.095960	158.287962	-75.148082	-83.032547
46681		9.441319	0.783794	-2.422995	0.148946	0.054901	-0.098884	158.141197	-75.155475	-82.788134
46682		9.364492	0.772766	-2.356619	0.173398	0.058509	-0.085352	158.032674	-75.167646	-82.571285
46683		9.408689	0.869326	-2.208686	0.191993	0.034739	-0.081628	157.961772	-75.167881	-82.377214
46684		9.447631	0.921418	-2.156602	0.177751	0.014570	-0.073145	157.915763	-75.159202	-82.222457
46685		9.492682	1.000907	-2.253253	0.165071	0.014486	-0.057874	157.892881	-75.153690	-82.097849
46686		9.486914	1.090479	-2.333994	0.167272	0.014492	-0.047253	157.892925	-75.150522	-81.996940
46687		9.467651	1.151070	-2.400305	0.146096	0.021047	-0.045309	157.879747	-75.151208	-81.890097
46688		9.400465	1.179455	-2.409330	0.120335	0.031154	-0.047620	157.838583	-75.156787	-81.774379
46689		9.396000	1.190022	-2.353994	0.095546	0.029869	-0.053478	157.771828	-75.160210	-81.645858
46690		9.428826	1.161941	-2.299958	0.067805	0.031733	-0.055950	157.683307	-75.164219	-81.512289
46691		9.403286	1.198619	-2.215969	0.056220	0.038891	-0.060819	157.572334	-75.170904	-81.359624
46692		9.449164	1.170565	-2.193045	0.058204	0.032487	-0.063600	157.462243	-75.173511	-81.209440
46693		9.450616	1.180506	-2.302271	0.071245	0.036624	-0.058870	157.364760	-75.179102	-81.064065
46694		9.483150	1.123258	-2.264921	0.074092	0.036192	-0.053061	157.281604	-75.185865	-80.932332
46695		9.445212	1.106640	-2.295495	0.083772	0.043814	-0.054430	157.194240	-75.196202	-80.788646
46696		9.414105	1.091822	-2.192692	0.081813	0.033796	-0.055935	157.111560	-75.200960	-80.652839
46697		9.464690	1.024648	-2.240470	0.066989	0.043847	-0.058959	157.005957	-75.210309	-80.498050
46698		9.378709	0.976569	-2.214194	0.079588	0.041266	-0.069141	156.889081	-75.215919	-80.328204
46699		9.404058	1.033393	-2.128631	0.051101	0.033005	-0.074969	156.750183	-75.215688	-80.153349
46700		9.434807	0.967703	-2.277917	0.055067	0.038369	-0.074890	156.610141	-75.218267	-79.974077
46701		9.466877	1.051040	-2.340352	0.073772	0.037757	-0.077041	156.476376	-75.219617	-79.786548
46702		9.458975	1.078609	-2.341801	0.088838	0.044357	-0.068279	156.363524	-75.226648	-79.615389
46703		9.443121	1.127852	-2.347456	0.103089	0.048487	-0.065379	156.260220	-75.236345	-79.444448
46704		9.473644	1.204157	-2.297507	0.100402	0.055399	-0.057818	156.164791	-75.251424	-79.284471
46705		9.453008	1.261298	-2.248724	0.084007	0.058640	-0.050169	156.071338	-75.269924	-79.136258
46706		9.461949	1.301721	-2.205292	0.057839	0.054751	-0.049124	155.968848	-75.286552	-78.994221
46707		9.454201	1.297972	-2.222957	0.030967	0.044328	-0.048659	155.860779	-75.297765	-78.858576
46708		9.387013	1.298257	-2.247170	0.011033	0.043189	-0.046070	155.747425	-75.308931	-78.733049
46709		9.382085	1.251934	-2.224290	-0.006185	0.035109	-0.051046	155.620676	-75.314474	-78.601601
46710		9.325811	1.187393	-2.203612	-0.020149	0.029407	-0.053824	155.486204	-75.316473	-78.472717
46711		9.347240	1.168851	-2.228221	-0.022598	0.020674	-0.056933	155.351447	-75.312944	-78.340837
46712		9.389997	1.186301	-2.246197	-0.028298	0.016625	-0.056838	155.218015	-75.307416	-78.217852
46713		9.440909	1.151523	-2.277156	-0.028025	0.011561	-0.059397	155.083968	-75.298490	-78.090374
46714		9.491603	1.176800	-2.274020	-0.033725	0.009275	-0.057951	154.952239	-75.288731	-77.972357
46715		9.510600	1.154140	-2.187855	-0.021794	0.017852	-0.055141	154.824475	-75.284156	-77.851571
46716		9.507125	1.233020	-2.209670	-0.013269	0.017994	-0.052112	154.708138	-75.280210	-77.737343
46717		9.472264	1.203958	-2.182786	-0.018827	0.027056	-0.049028	154.585770	-75.281546	-77.616002
46718		9.472072	1.238761	-2.162962	-0.033910	0.020861	-0.042010	154.474878	-75.281452	-77.519631
46719		9.407647	1.195810	-2.148181	-0.032569	0.014996	-0.039915	154.373929	-75.278737	-77.428073
46720		9.488072	1.232266	-2.133269	-0.013904	0.004381	-0.034309	154.305235	-75.271961	-77.363478
46721		9.487771	1.235424	-2.132781	-0.001603	0.003873	-0.028767	154.254353	-75.266044	-77.303416
46722		9.492460	1.288821	-2.151360	-0.021715	0.003674	-0.018367	154.213225	-75.262844	-77.271948
46723		9.457600	1.256948	-2.126202	-0.045158	0.001595	-0.018166	154.160905	-75.258543	-77.237324
46724		9.470865	1.257964	-2.157158	-0.072992	0.000184	-0.007654	154.114739	-75.256207	-77.231024
46725		9.435753	1.256108	-2.114821	-0.094113	-0.009820	-0.010055	154.060962	-75.247980	-77.222418
46726		9.481813	1.197441	-2.111103	-0.095329	-0.011547	-0.009593	154.009401	-75.239112	-77.223774
46727		9.455183	1.143555	-2.081774	-0.086763	-0.001288	-0.014242	153.942723	-75.234347	-77.205505
46728		9.439048	1.102578	-2.141875	-0.074922	0.002548	-0.023462	153.862384	-75.229237	-77.165008
46729		9.422582	1.092051	-2.184833	-0.055494	-0.001985	-0.033103	153.778308	-75.219318	-77.104129
46730		9.289842	1.134082	-2.147730	-0.034459	0.006794	-0.040031	153.684918	-75.212157	-77.026154
46731		9.401827	1.189979	-2.233207	-0.012456	-0.003631	-0.049419	153.595703	-75.197377	-76.940208
46732		9.404363	1.180838	-2.174565	-0.021838	0.011354	-0.044732	153.496221	-75.191291	-76.848443
46733		9.418277	0.995494	-2.499056	-0.004921	-0.032161	-0.058335	153.421989	-75.159258	-76.768327
46734		9.452746	0.986620	-2.373074	0.009716	-0.011509	-0.063938	153.325988	-75.136460	-76.661440
46735		9.416965	1.057470	-2.109782	0.011570	0.002031	-0.059720	153.225786	-75.121576	-76.545017
46736		9.433502	0.947498	-2.322773	0.018040	0.006815	-0.055286	153.133902	-75.110291	-76.437439
46737		9.459136	1.008481	-2.351767	0.068687	-0.003194	-0.048215	153.093769	-75.095800	-76.355283
46738		9.449017	1.163356	-2.101003	0.066761	-0.016283	-0.036602	153.088413	-75.077516	-76.308346
46739		9.498530	1.019387	-2.263285	0.045810	-0.008469	-0.023918	153.086665	-75.066532	-76.279695
46740		9.473897	1.223108	-2.133501	0.087298	-0.013295	-0.026813	153.108995	-75.052314	-76.249229
46741		9.542772	1.263111	-2.201114	0.059176	0.002119	-0.020049	153.112457	-75.047673	-76.214444
46742		9.483749	1.236892	-2.224558	0.050190	0.018097	-0.020364	153.095409	-75.051168	-76.165226
46743		9.453907	1.254469	-2.218207	0.021091	0.010091	-0.021432	153.066549	-75.050281	-76.122261
46744		9.455981	1.261373	-2.329619	0.001230	-0.000022	-0.025655	153.028945	-75.043136	-76.080801
46745		9.452477	1.277573	-2.388009	0.003025	-0.004881	-0.028547	152.990179	-75.032799	-76.041094
46746		9.446961	1.259270	-2.352526	0.004834	-0.011506	-0.032797	152.952287	-75.017919	-75.997194
46747		9.420188	1.234566	-2.306578	0.004171	0.005669	-0.022234	152.916368	-75.014556	-75.957499
46748		9.372684	1.173474	-2.267164	-0.000565	0.004833	-0.022766	152.878673	-75.010613	-75.917002
46749		9.410915	1.136602	-2.267837	-0.013868	-0.000999	-0.014570	152.853721	-75.005850	-75.898219
46750		9.420081	1.056015	-2.298104	-0.021727	-0.006521	-0.010680	152.838023	-74.999270	-75.893045
46751		9.427320	1.094404	-2.259868	0.008375	-0.014175	-0.009327	152.848496	-74.989221	-75.899237
46752		9.457822	1.173043	-2.326077	0.030135	-0.001083	-0.009057	152.860298	-74.985838	-75.891770
46753		9.486250	1.246552	-2.280019	0.053463	0.003375	-0.015901	152.866920	-74.983047	-75.867731
46754		9.418230	1.272294	-2.291177	0.047653	0.005098	-0.019737	152.862442	-74.980025	-75.833016
46755		9.413682	1.222836	-2.271809	0.041874	0.013382	-0.033985	152.818718	-74.977582	-75.760794
46756		9.375506	1.234187	-2.287709	0.041662	0.007834	-0.039560	152.770538	-74.970751	-75.684383
46757		9.391695	1.222395	-2.261093	0.037099	0.007739	-0.046582	152.705625	-74.962125	-75.594222
46758		9.407819	1.211089	-2.234525	0.031151	0.005172	-0.046642	152.640758	-74.952035	-75.506761
46759		9.411095	1.171468	-2.193190	0.023815	0.010222	-0.047445	152.564617	-74.944139	-75.409709
46760		9.423651	1.203808	-2.207054	0.016879	0.009711	-0.042815	152.494535	-74.937310	-75.325309
46761		9.453358	1.190915	-2.211768	0.009251	0.007966	-0.034702	152.435997	-74.931666	-75.258666
46762		9.449969	1.206979	-2.269610	0.015190	0.002217	-0.025580	152.404950	-74.925562	-75.215689
46763		9.418554	1.284990	-2.229912	0.004336	-0.001941	-0.019675	152.381864	-74.918862	-75.188011
46764		9.491682	1.252659	-2.272744	0.006887	-0.002529	-0.015338	152.370083	-74.913061	-75.169913
46765		9.439540	1.293784	-2.240176	0.003568	0.003900	-0.010774	152.357793	-74.911696	-75.152551
46766		9.431447	1.287163	-2.261876	-0.007527	-0.002274	-0.007727	152.351844	-74.908046	-75.149046
46767		9.453915	1.234563	-2.306191	-0.019327	0.000401	-0.008910	152.333261	-74.905326	-75.139226
46768		9.421471	1.247269	-2.189185	-0.008180	-0.007045	-0.006954	152.333102	-74.899460	-75.142106
46769		9.464061	1.260701	-2.209514	-0.023223	-0.005017	-0.008992	152.317472	-74.893945	-75.137612
46770		9.435139	1.218339	-2.238359	-0.009185	0.005098	-0.009977	152.299085	-74.893435	-75.122208
46771		9.449724	1.294334	-2.160519	-0.004877	-0.011703	-0.010167	152.298327	-74.884257	-75.122655
46772		9.396755	1.229324	-2.255154	-0.012708	0.005974	-0.010981	152.275184	-74.883923	-75.104415
46773		9.372480	1.249482	-2.115586	-0.017334	0.002857	-0.004871	152.262795	-74.883540	-75.100668
46774		9.401125	1.157906	-2.230465	-0.027494	-0.000076	-0.002450	152.253169	-74.882410	-75.105204
46775		9.397932	1.171708	-2.288600	-0.003395	-0.003161	0.004280	152.272089	-74.881462	-75.124429
46776		9.486045	1.212529	-2.253578	-0.004307	-0.008178	0.003546	152.294991	-74.877821	-75.148898
46777		9.430635	1.265705	-2.280194	0.003058	-0.014989	0.002990	152.326732	-74.870422	-75.177809
46778		9.458556	1.338963	-2.235186	-0.005219	-0.013194	0.002812	152.352635	-74.864033	-75.205929
46779		9.454141	1.287731	-2.217094	-0.020171	-0.011671	0.008773	152.378499	-74.859862	-75.243218
46780		9.440581	1.288752	-2.186154	-0.032361	-0.013527	0.009867	152.402373	-74.855171	-75.285349
46781		9.427106	1.289820	-2.154840	-0.045428	-0.007278	0.013229	152.417841	-74.854435	-75.326562
46782		9.441120	1.258318	-2.203938	-0.057375	-0.007124	0.017183	152.434818	-74.854930	-75.376396
46783		9.432562	1.280346	-2.208552	-0.058304	-0.010377	0.017799	152.454485	-74.853855	-75.429799
46784		9.404274	1.206669	-2.255208	-0.060333	-0.009301	0.016469	152.470555	-74.853046	-75.480449
46785		9.403663	1.236148	-2.238290	-0.061674	-0.015319	0.020709	152.498424	-74.850181	-75.545079
46786		9.430350	1.233137	-2.302506	-0.061950	-0.013800	0.020560	152.525623	-74.848156	-75.608219
46787		9.438314	1.240040	-2.281212	-0.067910	-0.014611	0.021854	152.551597	-74.846003	-75.673198
46788		9.403507	1.234454	-2.239881	-0.067924	-0.012852	0.023210	152.579403	-74.845144	-75.740515
46789		9.404037	1.203816	-2.257720	-0.055193	-0.012286	0.023764	152.613883	-74.844582	-75.807091
46790		9.403522	1.232692	-2.240787	-0.047999	-0.011520	0.020635	152.646962	-74.843702	-75.868044
46791		9.425433	1.208323	-2.268632	-0.048538	-0.010238	0.018984	152.674180	-74.842871	-75.923683
46792		9.450590	1.170341	-2.238194	-0.053137	-0.006788	0.014686	152.688536	-74.842822	-75.968288
46793		9.442493	1.163010	-2.260238	-0.044422	-0.009344	0.008508	152.697768	-74.839763	-76.001705
46794		9.399038	1.180615	-2.223336	-0.045617	-0.012835	0.007610	152.708984	-74.834771	-76.038594
46795		9.442643	1.134151	-2.278686	-0.041814	-0.006882	-0.000277	152.700783	-74.830649	-76.052343
46796		9.438262	1.208627	-2.301851	-0.037079	-0.006040	0.000255	152.696475	-74.827184	-76.068081
46797		9.412345	1.152314	-2.273547	-0.041780	-0.010409	-0.003007	152.686664	-74.820546	-76.079732
46798		9.352706	1.156221	-2.280151	-0.045053	-0.007530	-0.001137	152.676613	-74.815958	-76.094254
46799		9.450465	1.116046	-2.275205	-0.047638	-0.003398	-0.002742	152.656967	-74.812975	-76.100560
46800		9.447531	1.101570	-2.350822	-0.036797	-0.007573	0.000389	152.654550	-74.808768	-76.118090
46801		9.434008	1.103301	-2.319424	-0.022567	-0.008561	-0.000742	152.657933	-74.803700	-76.134188
46802		9.441815	1.111026	-2.298392	-0.016722	-0.013816	0.000349	152.672973	-74.796305	-76.157891
46803		9.403100	1.150042	-2.297746	-0.022319	-0.006566	0.002129	152.680158	-74.792977	-76.176257
46804		9.432955	1.133902	-2.303755	-0.014081	-0.004844	0.005025	152.696768	-74.791376	-76.200019
46805		9.424305	1.156177	-2.308546	-0.004307	-0.008200	0.003498	152.718301	-74.787582	-76.223295
46806		9.437504	1.155125	-2.340904	-0.002687	-0.003691	-0.000579	152.729820	-74.785093	-76.235016
46807		9.436912	1.185007	-2.323708	-0.001181	-0.005248	-0.002269	152.739420	-74.781328	-76.244830
46808		9.436280	1.215028	-2.306604	-0.002934	-0.005687	-0.003451	152.747336	-74.777068	-76.252965
46809		9.427517	1.238020	-2.311472	-0.000201	-0.007276	-0.006971	152.750864	-74.770968	-76.254120
46810		9.426818	1.268658	-2.294294	-0.012532	-0.003306	-0.009774	152.739152	-74.766262	-76.247611
46811		9.422327	1.219089	-2.275763	-0.016170	-0.000112	-0.017395	152.707277	-74.761139	-76.220669
46812		9.401282	1.185104	-2.282911	-0.014041	0.006629	-0.017094	152.671457	-74.759565	-76.190070
46813		9.380301	1.151378	-2.289732	-0.013880	0.007415	-0.023580	152.621926	-74.756582	-76.144684
46814		9.402026	1.130284	-2.316798	-0.007491	0.000873	-0.020848	152.588441	-74.751078	-76.112614
46815		9.393721	1.125080	-2.338638	0.002268	-0.000717	-0.021009	152.560656	-74.744669	-76.082100
46816		9.410116	1.111527	-2.312703	0.011062	-0.002041	-0.017836	152.546280	-74.738471	-76.058818
46817		9.384630	1.150444	-2.343548	0.018105	-0.003802	-0.015844	152.540165	-74.731849	-76.041761
46818		9.413787	1.164941	-2.332345	0.017436	-0.006821	-0.013737	152.541725	-74.724302	-76.031210
46819		9.421639	1.172657	-2.311116	0.015473	-0.002766	-0.004332	152.554894	-74.721201	-76.033182
46820		9.420980	1.202227	-2.294163	0.021306	-0.006256	-0.001877	152.580193	-74.717073	-76.044941
46821		9.404143	1.216943	-2.321287	0.019411	-0.009242	0.002061	152.613716	-74.712344	-76.065993
46822		9.462374	1.273024	-2.280952	0.014925	-0.008094	0.004401	152.648792	-74.708932	-76.091679
46823		9.428410	1.332441	-2.316566	0.006934	-0.007826	0.004379	152.677995	-74.705506	-76.116224
46824		9.453068	1.324146	-2.269104	-0.005138	-0.003629	0.003083	152.694809	-74.704013	-76.134895
46825		9.453012	1.324376	-2.269204	-0.011759	-0.000849	-0.003889	152.691155	-74.702021	-76.136874
46826		9.439065	1.356082	-2.219741	-0.023501	-0.003459	-0.009144	152.674527	-74.697400	-76.131782
46827		9.422806	1.343023	-2.263039	-0.031136	0.004870	-0.008680	152.645440	-74.697055	-76.118047
46828		9.423261	1.315071	-2.279867	-0.040582	0.001410	-0.011112	152.610694	-74.694392	-76.104318
46829		9.440378	1.272336	-2.270412	-0.049673	0.006012	-0.013058	152.561724	-74.693376	-76.080784
46830		9.411409	1.231478	-2.298829	-0.049391	0.004485	-0.012922	152.515620	-74.691792	-76.060512
46831		9.399070	1.175289	-2.301457	-0.045309	0.000554	-0.011652	152.476898	-74.688499	-76.046596
46832		9.370078	1.133848	-2.330475	-0.034778	0.001433	-0.005931	152.455106	-74.687210	-76.042850
46833		9.378170	1.141703	-2.308180	-0.015192	0.001229	0.004471	152.462973	-74.688502	-76.058571
46834		9.404351	1.169522	-2.353835	-0.006535	0.003986	0.002390	152.470335	-74.690713	-76.068273
46835		9.425335	1.205196	-2.345715	-0.006957	0.002959	0.007370	152.486861	-74.693615	-76.086672
46836		9.408246	1.249538	-2.354002	0.001329	-0.000588	0.006162	152.510160	-74.694499	-76.108227
46837		9.424945	1.233974	-2.327933	0.000000	0.000000	-0.000000	152.519428	-74.693897	-76.117966
46838		9.399700	1.271791	-2.358117	-0.005290	0.002199	-0.000809	152.523298	-74.694352	-76.123309
46839		9.425057	1.234306	-2.327304	-0.009108	0.006362	-0.000572	152.520258	-74.696819	-76.124961
46840		9.420503	1.213092	-2.290399	-0.015888	0.008355	-0.001058	152.511645	-74.700337	-76.123657
46841		9.364589	1.201551	-2.237872	-0.027667	0.002632	0.006784	152.515331	-74.702958	-76.143062
46842		9.437958	1.168531	-2.280723	-0.027911	0.000639	0.003908	152.516516	-74.703868	-76.159058
46843		9.409186	1.124988	-2.309978	-0.026760	0.001010	0.017924	152.542893	-74.708681	-76.202086
46844		9.455510	1.121927	-2.271653	-0.010781	0.000482	0.017974	152.580219	-74.713221	-76.245374
46845		9.439148	1.135493	-2.297388	-0.007311	0.004874	0.023079	152.623863	-74.721374	-76.293749
46846		9.452848	1.132465	-2.328738	-0.000549	0.004636	0.024933	152.676085	-74.729842	-76.346398
46847		9.444684	1.152592	-2.332404	0.006620	0.007186	0.023180	152.725705	-74.739114	-76.392862
46848		9.419369	1.217952	-2.344413	0.014508	0.007484	0.015215	152.765779	-74.746461	-76.423972
46849		9.432994	1.215211	-2.376014	0.006947	0.000389	0.019206	152.814941	-74.751235	-76.468644
46850		9.444527	1.206395	-2.296354	0.005651	-0.002534	0.010306	152.850435	-74.752178	-76.500265
46851		9.397189	1.170877	-2.240261	0.002052	0.007137	0.016157	152.884348	-74.759472	-76.534955
46852		9.432675	1.145042	-2.299388	0.003165	0.001037	0.016703	152.926999	-74.763896	-76.575470
46853		9.436597	1.098951	-2.259559	0.009141	-0.008297	0.023037	152.992862	-74.765058	-76.637828
46854		9.423828	1.067581	-2.246338	0.013187	-0.008715	0.027044	153.069998	-74.767164	-76.708131
46855		9.423951	1.064422	-2.247325	0.023454	-0.008086	0.031263	153.159600	-74.770471	-76.784383
46856		9.431724	1.097274	-2.209066	0.030890	-0.013704	0.040010	153.276025	-74.773313	-76.884891
46857		9.466151	1.127462	-2.234923	0.047396	-0.013793	0.043067	153.407254	-74.776717	-76.988166
46858		9.482589	1.136576	-2.192764	0.032196	-0.010783	0.048902	153.538534	-74.783214	-77.103289
46859		9.483232	1.101352	-2.212222	0.037365	-0.019066	0.052087	153.686025	-74.786018	-77.230014
46860		9.443390	1.098399	-2.119481	0.024943	-0.033058	0.057932	153.851113	-74.783198	-77.384477
46861		9.400751	1.050203	-2.121136	0.011029	-0.047249	0.064105	154.032322	-74.774478	-77.562212
46862		9.477600	1.090509	-2.170062	0.006527	-0.050970	0.078177	154.241431	-74.767223	-77.773244
46863		9.452969	1.061037	-2.240294	-0.012070	-0.047606	0.091013	154.460152	-74.764527	-78.004714
46864		9.446683	1.021991	-2.395579	-0.029283	-0.043477	0.095540	154.674669	-74.765004	-78.242622
46865		9.481162	1.048382	-2.423093	-0.007089	-0.029385	0.090864	154.879593	-74.771344	-78.457129
46866		9.413224	1.125664	-2.400446	-0.004623	-0.022825	0.076833	155.054322	-74.777571	-78.639149
46867		9.412928	1.208111	-2.349818	0.014649	-0.024968	0.060503	155.209915	-74.778616	-78.791289
46868		9.428813	1.335954	-2.238116	0.012662	-0.026031	0.041986	155.330876	-74.774569	-78.907318
46869		9.415494	1.333781	-2.208737	-0.003548	-0.026045	0.024631	155.408125	-74.766246	-78.989765
46870		9.397147	1.311798	-2.143220	-0.010426	-0.028724	0.012072	155.460826	-74.753584	-79.048767
46871		9.399967	1.297404	-2.088011	-0.028266	-0.035003	-0.002573	155.479482	-74.734085	-79.084816
46872		9.419406	1.209513	-2.042396	-0.048968	-0.040485	-0.007212	155.483348	-74.710694	-79.116096
46873		9.426935	1.129485	-2.077265	-0.060055	-0.051925	-0.008296	155.487629	-74.680865	-79.154832
46874		9.450804	1.063571	-2.069438	-0.065059	-0.061390	-0.001340	155.511408	-74.647967	-79.216328
46875		9.492344	1.017637	-2.130769	-0.054351	-0.073464	0.002740	155.557775	-74.609650	-79.298568
46876		9.538441	0.962758	-2.246982	-0.043109	-0.079807	0.013931	155.638347	-74.570729	-79.405954
46877		9.516420	0.962046	-2.356304	-0.021842	-0.089319	0.025048	155.758845	-74.529391	-79.541481
46878		9.488491	0.990911	-2.283325	-0.003821	-0.095948	0.038049	155.919909	-74.487568	-79.709076
46879		9.537746	0.976099	-2.308976	-0.012588	-0.104385	0.058348	156.119387	-74.445972	-79.922368
46880		9.551883	0.917948	-2.199376	-0.017002	-0.113046	0.084132	156.371792	-74.405502	-80.192693
46881		9.549457	0.872768	-2.116585	-0.047368	-0.126333	0.119011	156.680987	-74.365547	-80.539377
46882		9.551424	0.816918	-2.089274	-0.076092	-0.152321	0.151934	157.055488	-74.318858	-80.971773
46883		9.616630	0.716834	-2.130470	-0.079596	-0.172315	0.188402	157.508386	-74.268815	-81.490789
46884		9.511614	0.631585	-2.166675	-0.107655	-0.173654	0.227707	158.018382	-74.225424	-82.082961
46885		9.347309	0.614409	-2.285236	-0.095959	-0.206558	0.243425	158.584333	-74.166481	-82.732316
46886		9.353914	0.659039	-2.246357	-0.096047	-0.204830	0.259027	159.175342	-74.109769	-83.402112
46887		9.291372	0.832708	-2.219634	-0.093275	-0.196863	0.270106	159.777247	-74.057662	-84.086780
46888		9.273998	0.885115	-2.226354	-0.124975	-0.189416	0.267948	160.349229	-74.007226	-84.754378
46889		9.353698	0.894996	-2.230453	-0.165802	-0.186837	0.249296	160.856344	-73.953158	-85.379600
46890		9.421504	0.812295	-2.309878	-0.214878	-0.182278	0.230642	161.294325	-73.896423	-85.961711
46891		9.477280	0.799952	-2.432288	-0.206736	-0.175212	0.199417	161.668392	-73.836889	-86.480640
46892		9.375939	0.905888	-2.468927	-0.173422	-0.163196	0.178079	162.012922	-73.779009	-86.941051
46893		9.223601	0.958534	-2.411525	-0.164895	-0.159974	0.153586	162.310155	-73.717978	-87.351081
46894		9.134398	0.963198	-2.309947	-0.175104	-0.158689	0.136569	162.568008	-73.654047	-87.722470
46895		9.155297	0.886803	-2.312376	-0.199278	-0.158591	0.127506	162.791826	-73.587990	-88.073163
46896		9.163210	0.850629	-2.375976	-0.239319	-0.165316	0.121082	162.983184	-73.517004	-88.413835
46897		9.148469	0.952018	-2.523924	-0.253494	-0.156529	0.120022	163.156187	-73.450562	-88.745918
46898		9.110116	0.952824	-2.603695	-0.315067	-0.151773	0.117165	163.285213	-73.385797	-89.067074
46899		9.074469	0.846271	-2.734574	-0.345525	-0.134570	0.098233	163.350305	-73.327153	-89.339491
46900		9.183896	0.919137	-2.483283	-0.322811	-0.137583	0.083876	163.403267	-73.264473	-89.586070
46901		9.300257	1.013212	-2.485983	-0.385127	-0.118607	0.065598	163.374893	-73.209098	-89.786944
46902		9.305059	0.926517	-2.415972	-0.442039	-0.106981	0.045277	163.271316	-73.156934	-89.941502
46903		9.294715	0.889105	-2.350542	-0.518165	-0.095851	0.016598	163.064855	-73.106296	-90.038889
46904		9.262382	0.648587	-2.439653	-0.553135	-0.073213	-0.004867	162.788909	-73.064502	-90.079896
46905		9.318010	0.421104	-2.461807	-0.504285	-0.070711	-0.019361	162.512777	-73.021934	-90.093875
46906		9.260612	0.257346	-2.507683	-0.424896	-0.071435	-0.033982	162.258377	-72.976178	-90.080596
46907		9.216828	0.328719	-2.563409	-0.303345	-0.062126	-0.044518	162.049740	-72.933873	-90.042625
46908		9.408079	0.562973	-2.785864	-0.151942	-0.019584	-0.054884	161.885870	-72.912632	-89.960443
46909		9.531046	0.828274	-2.954545	-0.038004	0.032437	-0.056026	161.754719	-72.919811	-89.844323
46910		9.771951	0.878148	-3.065000	-0.068166	0.047712	-0.045816	161.615774	-72.936688	-89.738004
46911		9.654421	0.496706	-3.461313	-0.085567	0.033951	-0.026562	161.507106	-72.949738	-89.680756
46912		9.541632	0.548735	-3.096013	-0.039332	-0.021339	-0.013306	161.482904	-72.934906	-89.677187
46913		9.369139	0.489669	-3.419194	-0.057361	-0.056051	0.003027	161.497263	-72.904360	-89.727113
46914		9.154420	0.580908	-3.627200	0.043764	-0.077244	0.001275	161.579315	-72.861792	-89.784905
46915		9.029823	0.769357	-3.655869	0.054573	-0.110719	-0.001597	161.681219	-72.800459	-89.858909
46916		8.971654	0.755756	-3.613032	0.035116	-0.126410	-0.021356	161.746296	-72.727023	-89.904152
46917		8.947060	0.943308	-3.224296	0.004803	-0.140408	-0.038811	161.770211	-72.642889	-89.928618
46918		9.194211	0.917207	-3.092299	-0.111731	-0.108286	-0.048552	161.693032	-72.574425	-89.912998
46919		9.424240	0.742118	-2.857907	-0.140247	-0.069546	-0.064316	161.549433	-72.524094	-89.849351
46920		9.647927	0.560203	-2.696730	-0.203965	-0.033298	-0.083024	161.317815	-72.490046	-89.727203
46921		9.540590	0.145559	-3.041434	-0.153105	-0.006647	-0.085531	161.095171	-72.469812	-89.587348
46922		9.346544	0.147436	-2.982549	0.002168	-0.020959	-0.089276	160.964802	-72.441028	-89.447487
46923		9.242418	0.289590	-3.108696	0.057694	-0.045823	-0.071289	160.912087	-72.402100	-89.355577
46924		9.137434	0.396697	-3.310827	0.016111	-0.057679	-0.038755	160.898306	-72.362813	-89.329601
46925		9.098460	0.439263	-3.309900	-0.043581	-0.072774	-0.011375	160.905618	-72.320525	-89.362348
46926		9.169648	0.459694	-3.107837	-0.129146	-0.090164	-0.001754	160.890589	-72.270586	-89.422414
46927		9.180876	0.223269	-3.284012	-0.175178	-0.098399	-0.014506	160.832522	-72.213851	-89.464714
46928		9.201021	0.126747	-3.087504	-0.163134	-0.098971	-0.045800	160.728975	-72.150878	-89.452296
46929		9.229837	0.077298	-3.014526	-0.172511	-0.094963	-0.077341	160.565489	-72.084069	-89.382616
46930		9.133879	0.059932	-3.000196	-0.105501	-0.061926	-0.115770	160.357549	-72.027671	-89.225748
46931		9.168273	0.169603	-2.933870	-0.037374	-0.045545	-0.146847	160.128762	-71.973930	-89.005679
46932		9.345782	0.168815	-2.930897	0.006832	-0.014172	-0.160898	159.884173	-71.934021	-88.742484
46933		9.337528	0.106975	-2.882023	0.026329	0.018338	-0.170994	159.615797	-71.909274	-88.442423
46934		9.316879	0.083852	-2.943580	0.049198	0.028007	-0.175380	159.347737	-71.888345	-88.128914
46935		9.264201	0.151868	-3.011567	0.090539	0.032806	-0.178848	159.095851	-71.868886	-87.807425
46936		9.221081	0.255904	-2.983543	0.113092	0.026653	-0.181962	158.855817	-71.845020	-87.484810
46937		9.228817	0.377866	-2.956235	0.138288	0.020767	-0.187287	158.626722	-71.816560	-87.158283
46938		9.247074	0.533838	-2.887850	0.142847	0.020245	-0.202638	158.375937	-71.784106	-86.806300
46939		9.163446	0.491204	-2.917156	0.128634	0.031626	-0.228975	158.068935	-71.751639	-86.403609
46940		9.107711	0.723452	-2.615301	0.120485	0.016993	-0.254627	157.726336	-71.705094	-85.968284
46941		9.198683	0.717061	-2.728565	0.047102	0.049167	-0.274005	157.292091	-71.670494	-85.480565
46942		9.222565	0.740410	-2.842385	0.062755	0.086442	-0.296602	156.806578	-71.649197	-84.929354
46943		9.349103	0.897180	-2.784939	0.038659	0.105885	-0.318290	156.261538	-71.631705	-84.329855
46944		9.385974	0.894954	-3.000445	0.004321	0.131608	-0.338229	155.647563	-71.621013	-83.678453
46945		9.406976	0.846560	-3.112695	-0.010073	0.130656	-0.374817	154.970580	-71.598864	-82.969204
46946		9.390485	0.717278	-3.132008	-0.049436	0.131943	-0.407616	154.220220	-71.566422	-82.206352
46947		9.283695	0.613797	-3.090711	-0.048080	0.130956	-0.438263	153.428045	-71.522598	-81.398390
46948		9.162539	0.610060	-3.068858	-0.054075	0.125327	-0.470091	152.591578	-71.463876	-80.547142
46949		8.983862	0.633360	-3.085434	-0.005145	0.113160	-0.489710	151.769940	-71.389958	-79.681593
46950		9.050665	0.770373	-2.936985	-0.011535	0.106385	-0.495913	150.946866	-71.306856	-78.818031
46951		9.098399	0.755643	-2.931526	-0.048825	0.108204	-0.483286	150.128052	-71.224405	-77.981041
46952		9.109918	0.710394	-2.793512	-0.086684	0.111655	-0.449962	149.338992	-71.149384	-77.198074
46953		9.143358	0.642881	-2.684623	-0.143885	0.132035	-0.417072	148.553819	-71.090779	-76.453483
46954		9.033903	0.555210	-2.701025	-0.192063	0.127007	-0.401529	147.771141	-71.030976	-75.740508
46955		8.986008	0.582570	-2.909641	-0.191233	0.114791	-0.394472	147.015842	-70.964537	-75.055649
46956		9.129316	0.691780	-3.136771	-0.178322	0.104185	-0.396552	146.278629	-70.889281	-74.381875
46957		9.172721	0.678253	-3.371614	-0.177860	0.117746	-0.404409	145.525320	-70.815279	-73.690404
46958		9.205892	0.599623	-3.393887	-0.167572	0.126979	-0.429984	144.739153	-70.733991	-72.957640
46959		9.287702	0.586304	-3.559015	-0.124311	0.139161	-0.462883	143.930577	-70.644250	-72.174397
46960		9.361436	0.637013	-3.573967	-0.030657	0.152056	-0.498580	143.122565	-70.544423	-71.334492
46961		9.409695	0.868624	-3.545847	0.097496	0.153211	-0.534155	142.351434	-70.429176	-70.455157
46962		9.532583	1.059591	-3.456887	0.183986	0.155760	-0.546614	141.619642	-70.306602	-69.564427
46963		9.503080	1.249405	-3.203160	0.200556	0.141856	-0.558852	140.908130	-70.169917	-68.684323
46964		9.538091	1.382446	-3.042164	0.184823	0.129399	-0.548410	140.222063	-70.027643	-67.840207
46965		9.716787	1.552353	-2.677401	0.115397	0.115632	-0.528160	139.547179	-69.883685	-67.049449
46966		9.734242	1.503147	-2.943624	-0.004801	0.132513	-0.503375	138.823949	-69.752751	-66.279983
46967		9.564417	1.557323	-3.139243	-0.023686	0.144461	-0.481644	138.114066	-69.632195	-65.535535
46968		9.547960	1.563595	-3.188869	-0.076569	0.144842	-0.466206	137.397717	-69.514226	-64.816074
46969		9.535275	1.440404	-3.174256	-0.114298	0.158630	-0.463242	136.658859	-69.400345	-64.094978
46970		9.443019	1.394053	-3.071268	-0.068711	0.158896	-0.468092	135.946610	-69.281121	-63.373991
46971		9.242282	1.380644	-3.154773	-0.012204	0.170168	-0.469758	135.263156	-69.163113	-62.648460
46972		9.345599	1.668421	-2.630670	0.053153	0.150705	-0.463772	134.650024	-69.036382	-61.957679
46973		9.460462	1.480776	-3.022008	0.116550	0.171670	-0.451620	134.073162	-68.920866	-61.266124
46974		9.275245	1.582494	-2.774412	0.225427	0.183678	-0.447727	133.554453	-68.808960	-60.569663
46975		9.212139	1.651266	-2.910729	0.235239	0.191592	-0.437978	133.051145	-68.702419	-59.883013
46976		9.298899	1.754031	-2.948815	0.323410	0.207503	-0.428646	132.594100	-68.603483	-59.191479
46977		9.407107	2.137255	-2.596838	0.325233	0.227058	-0.412161	132.140512	-68.517536	-58.501927
46978		9.452571	2.328567	-2.864143	0.276585	0.216546	-0.379230	131.704597	-68.439186	-57.861119
46979		9.527232	2.620753	-2.664520	0.207224	0.190256	-0.340419	131.300640	-68.366270	-57.296912
46980		9.727041	2.845398	-2.458877	0.103190	0.180137	-0.309408	130.878455	-68.300952	-56.777137
46981		9.763904	2.940825	-2.532462	0.022899	0.174872	-0.273937	130.454094	-68.248165	-56.304152
46982		9.894047	2.956069	-2.315453	-0.044482	0.143011	-0.231563	130.065180	-68.200364	-55.910920
46983		9.795596	2.911565	-2.381477	-0.088396	0.139027	-0.180783	129.705708	-68.172983	-55.576228
46984		9.860372	2.941993	-1.907444	-0.144598	0.138541	-0.113544	129.374315	-68.173871	-55.306611
46985		9.963044	2.686837	-2.211195	-0.253830	0.130699	-0.046663	129.051454	-68.201562	-55.113459
46986		10.113090	2.720428	-1.980013	-0.219512	0.129660	0.038674	128.823548	-68.266037	-55.001605
46987		10.236710	2.570040	-1.872210	-0.294403	0.118664	0.129708	128.648232	-68.367657	-54.992432
46988		10.470814	2.248862	-1.963214	-0.203260	0.132767	0.221941	128.589989	-68.515052	-55.053150
46989		10.473337	1.998514	-1.446354	-0.081687	0.181347	0.309598	128.628418	-68.719650	-55.142667
46990		10.348783	1.871996	-1.302779	-0.017215	0.201543	0.406159	128.769564	-68.974027	-55.302716
46991		9.632063	1.665880	-1.301079	-0.022816	0.163934	0.505757	129.052085	-69.259702	-55.617100
46992		9.369584	1.535655	-1.578882	0.027590	0.105553	0.611440	129.542136	-69.569652	-56.121823
46993		9.126222	1.679088	-1.713622	0.089128	0.054659	0.718841	130.254193	-69.906917	-56.824440
46994		8.982145	1.950987	-1.630279	0.135444	0.045189	0.816367	131.128080	-70.278944	-57.669466
46995		8.941241	2.195345	-1.678263	0.146455	0.073748	0.901710	132.101949	-70.694403	-58.611691
46996		8.973227	2.580633	-1.496641	0.174468	0.097417	0.950590	133.158027	-71.133337	-59.621566
46997		9.117284	2.874182	-1.107949	0.178187	0.148744	1.013662	134.279651	-71.613036	-60.695510
46998		9.269448	2.803466	-0.928821	0.139150	0.228665	1.076625	135.413950	-72.143106	-61.803271
46999		9.243829	2.688948	-1.178874	0.194205	0.317634	1.138568	136.620835	-72.728008	-62.950547
47000		9.193349	2.636041	-1.033776	0.190564	0.392974	1.209279	137.907923	-73.363809	-64.180120
47001		9.171173	2.427176	-1.086837	0.084164	0.436981	1.288982	139.297432	-74.040814	-65.575668
47002		9.280964	2.225228	-1.074357	-0.005583	0.460589	1.365823	140.846800	-74.745597	-67.185819
47003		9.353899	2.063989	-1.166744	-0.150205	0.442964	1.462661	142.658255	-75.464420	-69.147432
47004		9.426840	1.872625	-1.410694	-0.295778	0.420950	1.557902	144.784470	-76.187097	-71.513337
47005		9.658953	1.593371	-1.525955	-0.378267	0.408923	1.653105	147.321200	-76.910958	-74.342571
47006		9.751861	1.375398	-1.299978	-0.385812	0.432508	1.759762	150.367105	-77.644684	-77.689858
47007		9.881793	1.343618	-1.238355	-0.395117	0.445410	1.845412	153.999039	-78.364248	-81.632387
47008		9.889140	1.288155	-1.157916	-0.430559	0.456430	1.922864	158.283017	-79.048995	-86.250566
47009		9.897996	1.160682	-1.194133	-0.512817	0.421723	1.982098	163.289524	-79.651121	-91.641830
47010		9.980685	0.792663	-1.469871	-0.568203	0.373920	2.025150	169.014282	-80.136544	-97.785501
47011		9.981986	0.459078	-1.711384	-0.561810	0.322447	2.064434	175.430975	-80.479219	-104.619659
47012		9.921064	0.048913	-1.853167	-0.534382	0.260674	2.105642	-177.615179	-80.650420	-111.977209
47013		9.981625	-0.244090	-1.859767	-0.494839	0.191753	2.145291	-170.389697	-80.629482	-119.585501
47014		10.111798	-0.546748	-1.795940	-0.476856	0.123347	2.182027	-163.260000	-80.410965	-127.088849
47015		10.212041	-0.681272	-1.655583	-0.407127	0.065885	2.212859	-156.500730	-80.007195	-134.182687
47016		10.334036	-0.833146	-1.913013	-0.329111	0.048118	2.238559	-150.280578	-79.454270	-140.693676
47017		10.527852	-1.035813	-2.193217	-0.186363	-0.023901	2.246141	-144.774562	-78.748172	-146.407534
47018		10.212990	-1.070951	-2.177653	-0.039148	-0.034666	2.235973	-139.930742	-77.946827	-151.374156
47019		10.225269	-1.314127	-1.834618	0.038438	-0.107361	2.206130	-135.857746	-77.050131	-155.521523
47020		10.086007	-1.402411	-1.616862	0.210562	-0.132373	2.178950	-132.322925	-76.097802	-159.029651
47021		10.007238	-1.378888	-1.610574	0.318621	-0.159881	2.150001	-129.270983	-75.102021	-161.990159
47022		10.025190	-1.479861	-1.935239	0.372753	-0.165059	2.124361	-126.610615	-74.081270	-164.526232
47023		10.011427	-1.625398	-2.193024	0.476815	-0.170224	2.092166	-124.248208	-73.044725	-166.702534
47024		9.958718	-1.775847	-2.253931	0.566748	-0.161958	2.066455	-122.111028	-72.000415	-168.600777
47025		9.879324	-2.104486	-2.184044	0.570111	-0.152483	2.022817	-120.215008	-70.960295	-170.253933
47026		9.925580	-2.244525	-1.939473	0.569171	-0.145749	1.981752	-118.525265	-69.927325	-171.699113
47027		10.102319	-2.457036	-1.814682	0.488991	-0.162077	1.947768	-117.076705	-68.893748	-172.945308
47028		9.911413	-2.428470	-1.502492	0.393254	-0.183821	1.890534	-115.870148	-67.874749	-173.998842
47029		9.920835	-2.789862	-1.628025	0.224734	-0.227777	1.847254	-114.934005	-66.859681	-174.871662
47030		9.839469	-3.141148	-1.988313	0.255591	-0.238018	1.818941	-114.083041	-65.852435	-175.638803
47031		9.620198	-3.367104	-1.966813	0.323542	-0.235939	1.800622	-113.263718	-64.850334	-176.334356
47032		9.357863	-3.582848	-2.344881	0.454222	-0.260401	1.738128	-112.482928	-63.872406	-176.909781
47033		9.193017	-3.560367	-2.532678	0.702030	-0.246571	1.669544	-111.624056	-62.929857	-177.418497
47034		9.048878	-3.282279	-2.209706	0.880167	-0.214675	1.590484	-110.707945	-62.033298	-177.880850
47035		8.930210	-3.623858	-1.849088	0.859443	-0.239711	1.541464	-109.886537	-61.154436	-178.252879
47036		8.929935	-3.941751	-1.821178	0.945210	-0.217392	1.482540	-109.049009	-60.309737	-178.590130
47037		8.797980	-3.561921	-1.156579	0.909566	-0.203324	1.443366	-108.261362	-59.486120	-178.896165
47038		8.911935	-3.537279	-1.147866	0.702374	-0.242205	1.381389	-107.671316	-58.688135	-179.112797
47039		8.892598	-3.615861	-1.111553	0.570346	-0.259082	1.335250	-107.202081	-57.911026	-179.278177
47040		8.802598	-3.579579	-1.165648	0.453499	-0.262438	1.301038	-106.825058	-57.151931	-179.415000
47041		8.812945	-3.387980	-1.355432	0.451166	-0.290676	1.237258	-106.499208	-56.422381	-179.493410
47042		8.605307	-3.591266	-1.316443	0.408939	-0.269544	1.183668	-106.200980	-55.725869	-179.568339
47043		8.429040	-3.952381	-1.143706	0.380935	-0.275370	1.140333	-105.939739	-55.051781	-179.618429
47044		8.148185	-4.238340	-1.302868	0.329784	-0.243379	1.071478	-105.703373	-54.420845	-179.674358
47045		8.016562	-4.301665	-1.117197	0.258388	-0.275262	1.022606	-105.546519	-53.811586	-179.683056
47046		8.059366	-4.548011	-1.208663	0.210820	-0.254532	0.991852	-105.410220	-53.222730	-179.700172
47047		7.987682	-4.742300	-1.278289	0.246916	-0.214490	0.944203	-105.235728	-52.666025	-179.739329
47048		8.065807	-4.677304	-1.372049	0.352164	-0.188692	0.889841	-104.996322	-52.143380	-179.784617
47049		8.067702	-4.580949	-1.265205	0.453141	-0.155887	0.837171	-104.689421	-51.654419	-179.842430
47050		7.985574	-4.486486	-1.219592	0.505553	-0.111507	0.775691	-104.337128	-51.205911	-179.920304
47051		7.718125	-4.309564	-1.307122	0.513926	-0.130688	0.696367	-104.011000	-50.798377	-179.958761
47052		7.616125	-4.249885	-1.489155	0.446861	-0.164760	0.627315	-103.760996	-50.424570	-179.948702
47053		7.547401	-4.283592	-1.681056	0.404562	-0.158371	0.554213	-103.544450	-50.092294	-179.926551
47054		7.494534	-4.297789	-1.423324	0.351862	-0.137086	0.491380	-103.355285	-49.797983	-179.908022
47055		7.512470	-4.477694	-1.265401	0.261254	-0.127757	0.438985	-103.220786	-49.534145	-179.885768
47056		7.542993	-4.595560	-1.092156	0.173695	-0.106650	0.379890	-103.132257	-49.306068	-179.868998
47057		7.375969	-4.746807	-0.909269	0.022493	-0.127117	0.321845	-103.152339	-49.107765	-179.823097
47058		7.256255	-4.918074	-1.024179	-0.101502	-0.175187	0.281675	-103.279937	-48.925484	-179.728798
47059		7.097913	-4.962876	-1.273143	-0.154928	-0.230663	0.233779	-103.479672	-48.762462	-179.579039
47060		7.054421	-5.063058	-1.169051	-0.178659	-0.228262	0.195177	-103.696205	-48.620812	-179.424727
47061		7.024251	-5.283772	-1.359122	-0.177778	-0.204760	0.155794	-103.902312	-48.504039	-179.283280
47062		6.887486	-5.402839	-1.583227	-0.105232	-0.190820	0.108178	-104.064826	-48.415242	-179.144380
47063		6.819878	-5.607836	-1.802559	-0.056268	-0.195991	0.049526	-104.211149	-48.358206	-178.989394
47064		6.965581	-6.021669	-1.725140	-0.011515	-0.154770	-0.009275	-104.315208	-48.339271	-178.856624
47065		6.863176	-6.387332	-1.442762	0.010013	-0.107676	-0.070043	-104.387159	-48.360767	-178.750268
47066		6.809759	-6.665512	-1.454378	0.072011	-0.103750	-0.116396	-104.428751	-48.408328	-178.637114
47067		6.858583	-6.686243	-1.390055	0.150930	-0.096209	-0.163581	-104.428137	-48.483249	-178.519989
47068		6.699300	-6.462629	-1.237637	0.166098	-0.106808	-0.199833	-104.431675	-48.576642	-178.385930
47069		6.725171	-6.265785	-1.256018	0.152307	-0.138787	-0.232482	-104.468862	-48.683653	-178.217708
47070		6.759046	-6.115727	-1.329726	0.173194	-0.125471	-0.256042	-104.490172	-48.805478	-178.055043
47071		6.610876	-6.086040	-1.436876	0.221397	-0.084775	-0.275368	-104.461619	-48.943954	-177.922164
47072		6.550702	-5.988041	-1.366922	0.312471	-0.038998	-0.296630	-104.355574	-49.100764	-177.823176
47073		6.267269	-5.740217	-0.897488	0.302777	-0.069850	-0.320255	-104.278807	-49.266500	-177.693012
47074		6.204341	-5.665845	-0.664713	0.139628	-0.121644	-0.356249	-104.335637	-49.444824	-177.510379
47075		6.281554	-5.857007	-0.732964	-0.049329	-0.163626	-0.403597	-104.537215	-49.643221	-177.280225
47076		6.318708	-6.032736	-0.926964	-0.139421	-0.166555	-0.457337	-104.803985	-49.870300	-177.033101
47077		6.480830	-6.167765	-1.106028	-0.168439	-0.155086	-0.521152	-105.093806	-50.133671	-176.778376
47078		6.643930	-6.239032	-1.370148	-0.141371	-0.111413	-0.578106	-105.353055	-50.434263	-176.544382
47079		6.632246	-6.286045	-1.373916	0.005159	-0.044094	-0.630277	-105.495860	-50.773424	-176.353396
47080		6.556019	-5.962011	-0.905336	0.120324	-0.013421	-0.674796	-105.563100	-51.141622	-176.175813
47081		6.545481	-5.909998	-0.686967	0.058843	-0.087859	-0.701012	-105.724413	-51.512555	-175.923660
47082		6.762087	-6.103371	-1.219572	0.007038	-0.162485	-0.721173	-105.976081	-51.882357	-175.595600
47083		7.010921	-6.195656	-1.670049	0.097310	-0.152991	-0.752927	-106.180873	-52.270308	-175.262965
47084		7.098397	-5.977085	-1.434292	0.238883	-0.057231	-0.776545	-106.246219	-52.686115	-175.005804
47085		6.986275	-5.668998	-1.074103	0.224325	0.002705	-0.808142	-106.286361	-53.128722	-174.792035
47086		6.987168	-5.657979	-1.251589	0.226802	0.016130	-0.847955	-106.327388	-53.595344	-174.576787
47087		7.127583	-5.455293	-1.194584	0.247866	-0.023180	-0.906576	-106.402173	-54.087648	-174.305973
47088		7.569303	-5.506528	-1.365321	0.101453	-0.052963	-0.942144	-106.597786	-54.594336	-173.991531
47089		7.813428	-5.963252	-1.957016	-0.008328	-0.031935	-0.967714	-106.853211	-55.117721	-173.682736
47090		7.540768	-6.192955	-1.988595	0.134242	0.020917	-0.994642	-106.999647	-55.664130	-173.409248
47091		7.650826	-6.074864	-1.702878	0.289951	0.013955	-1.010679	-107.072292	-56.217748	-173.118811
47092		7.630491	-5.973676	-1.426465	0.385089	0.004090	-1.016212	-107.106302	-56.772694	-172.811326
47093		7.758595	-5.737671	-1.411471	0.458824	-0.039549	-1.019083	-107.141166	-57.321601	-172.454297
47094		7.879282	-5.348595	-1.423106	0.549052	-0.029082	-1.027464	-107.124566	-57.876980	-172.099306
47095		7.752668	-4.510204	-1.022046	0.607678	-0.004324	-1.030920	-107.058887	-58.438387	-171.764601
47096		7.847841	-3.763793	-0.643977	0.402426	-0.004486	-1.048467	-107.122693	-59.009550	-171.418127
47097		7.747086	-3.727300	-0.945424	0.097448	-0.032868	-1.079602	-107.405493	-59.592233	-171.022164
47098		8.086807	-3.929571	-1.114231	-0.116922	-0.156242	-1.141838	-107.961958	-60.186065	-170.454327
47099		7.547093	-4.379732	-1.892529	-0.438693	-0.182690	-1.206238	-108.772856	-60.806590	-169.809307
47100		7.882987	-5.134818	-2.256812	-0.549819	-0.292168	-1.236003	-109.797851	-61.417440	-168.996462
47101		8.673942	-5.729559	-2.629662	-0.465470	-0.234675	-1.217754	-110.747418	-62.022899	-168.218977
47102		9.708832	-5.260541	-1.969217	-0.132948	-0.148508	-1.157811	-111.429475	-62.608903	-167.532808
47103		8.840257	-4.626043	-0.806301	-0.056761	0.014068	-1.075433	-111.890719	-63.182034	-167.049157
47104		8.267550	-4.446094	-0.321528	-0.150738	-0.186929	-1.075777	-112.642335	-63.709521	-166.303516
47105		8.528493	-4.484302	-1.271383	-0.205179	-0.114062	-1.053391	-113.364913	-64.237016	-165.628189
47106		8.210748	-3.911579	-0.764108	-0.053183	-0.095208	-1.088938	-114.025618	-64.784051	-164.928073
47107		8.457385	-3.400430	-0.676662	-0.300152	-0.058374	-1.127162	-114.836387	-65.355675	-164.221630
47108		8.450087	-3.608823	-1.286087	-0.527019	-0.052661	-1.192015	-115.844167	-65.957648	-163.445035
47109		8.761865	-3.883582	-1.888215	-0.641148	-0.019952	-1.274621	-116.972517	-66.604133	-162.611836
47110		8.337939	-4.257773	-2.285270	-0.674855	-0.023816	-1.351401	-118.229716	-67.281604	-161.663849
47111		8.450393	-4.317757	-1.824643	-0.601561	-0.103741	-1.441514	-119.670203	-67.973006	-160.476890
47112		10.314917	-3.763435	-1.689834	-0.602796	-0.183886	-1.514673	-121.351270	-68.664820	-159.037678
47113		11.626950	-3.020985	-2.530169	-0.425681	-0.172842	-1.514252	-123.015457	-69.343820	-157.514477
47114		13.743736	-2.236899	-2.974305	-0.115979	-0.282448	-1.451441	-124.691481	-69.941921	-155.795856
47115		14.200752	-2.556118	-2.251422	-0.389042	-0.252309	-1.164226	-126.312421	-70.398505	-154.307795
47116		13.014390	-4.525932	-2.168858	-1.451682	-0.528742	-0.647182	-128.454618	-70.506774	-152.915366
47117		12.529197	-7.147926	-2.394137	-2.229880	-0.468932	-0.031943	-130.345714	-70.347878	-152.262350
47118		10.760343	-8.384263	-1.158689	-2.109156	-0.306603	0.318516	-131.588222	-70.092466	-152.224312
47119		10.215685	-7.456939	-1.118089	-1.132992	-0.288471	0.368462	-132.184439	-69.822335	-152.278704
47120		10.353980	-5.624356	-1.706583	0.163194	-0.255546	0.284787	-132.086305	-69.600666	-152.281780
47121		9.190766	-3.797143	-2.412788	0.981737	-0.198365	0.157828	-131.584834	-69.454785	-152.214645
47122		8.294723	-2.556677	-3.123219	1.232983	-0.242103	0.016585	-131.136605	-69.353550	-151.936931
47123		8.018556	-1.517014	-2.731670	0.949822	-0.271133	-0.141044	-131.039423	-69.309628	-151.457153
47124		8.160766	-0.329989	-1.651218	0.260452	-0.263796	-0.308820	-131.498398	-69.340486	-150.805220
47125		8.509291	-0.240206	-1.742151	-0.398398	-0.203273	-0.463766	-132.425594	-69.457523	-150.056549
47126		8.854203	-0.751362	-1.933851	-0.567092	-0.174796	-0.618206	-133.592618	-69.645790	-149.155956
47127		9.160071	-0.972042	-1.701335	-0.559271	-0.174669	-0.719003	-134.882518	-69.868552	-148.120697
47128		9.190571	-1.535163	-2.365100	-0.521123	-0.191917	-0.760161	-136.243310	-70.092557	-146.988327
47129		9.393321	-1.723975	-2.505006	-0.392361	-0.174580	-0.764171	-137.541523	-70.316252	-145.845542
47130		9.669300	-1.939755	-2.203116	-0.472684	-0.168835	-0.738821	-138.877990	-70.523828	-144.712655
47131		9.725502	-2.296660	-2.536549	-0.407662	-0.119946	-0.697342	-140.097431	-70.728705	-143.665655
47132		9.422765	-2.115174	-2.316921	-0.213248	-0.111317	-0.652486	-141.163590	-70.914158	-142.664365
47133		9.041426	-1.855047	-2.492006	-0.182176	-0.121071	-0.606592	-142.179102	-71.072899	-141.698744
47134		8.737797	-1.683927	-2.715183	-0.134402	-0.144302	-0.556786	-143.141644	-71.198298	-140.761102
47135		8.612848	-1.360251	-2.564147	-0.134110	-0.147394	-0.507787	-144.050391	-71.300645	-139.880623
47136		8.684779	-1.247785	-2.266614	-0.228337	-0.121476	-0.471816	-144.949233	-71.398622	-139.068203
47137		9.076945	-1.312290	-1.971968	-0.313409	-0.113101	-0.451786	-145.867473	-71.489932	-138.287087
47138		9.471316	-1.350052	-2.073341	-0.375528	-0.121621	-0.428922	-146.806532	-71.565837	-137.522029
47139		9.783624	-1.313034	-2.291746	-0.390194	-0.119611	-0.417949	-147.741101	-71.635413	-136.770783
47140		9.752402	-1.258653	-2.266769	-0.439506	-0.135256	-0.402010	-148.702510	-71.688542	-136.021394
47141		9.895732	-1.064210	-2.662986	-0.501930	-0.140091	-0.366846	-149.654282	-71.725142	-135.319919
47142		9.468299	-1.121808	-3.061945	-0.540983	-0.162408	-0.321193	-150.583451	-71.733878	-134.666001
47143		9.067105	-1.141291	-3.236730	-0.533886	-0.194200	-0.288442	-151.483976	-71.714451	-134.037852
47144		8.984736	-1.184549	-3.592466	-0.492954	-0.232913	-0.273953	-152.370042	-71.668332	-133.400205
47145		9.043316	-1.125448	-3.543537	-0.377873	-0.245856	-0.282206	-153.207529	-71.614896	-132.743999
47146		9.479393	-0.801821	-3.484330	-0.303178	-0.241434	-0.312612	-154.043117	-71.568327	-132.044587
47147		9.838266	-0.465965	-3.138410	-0.271112	-0.210930	-0.352697	-154.894905	-71.544294	-131.308504
47148		10.094431	-0.285118	-2.954232	-0.323415	-0.167103	-0.400893	-155.820436	-71.550871	-130.526318
47149		10.221444	-0.218409	-2.981373	-0.315326	-0.121096	-0.452400	-156.790501	-71.589491	-129.692335
47150		10.123182	0.083063	-2.938119	-0.285193	-0.078773	-0.504042	-157.802977	-71.657187	-128.795800
47151		10.075750	0.144558	-3.087100	-0.298084	-0.034844	-0.550379	-158.875868	-71.753102	-127.843775
47152		9.815375	0.080743	-3.238828	-0.251358	0.005704	-0.597878	-159.987051	-71.874430	-126.823924
47153		9.502076	0.099078	-3.267252	-0.152296	0.024366	-0.641724	-161.116655	-72.008168	-125.725691
47154		9.222161	0.277602	-3.039432	-0.111287	0.038379	-0.685703	-162.306671	-72.150305	-124.540180
47155		9.100244	0.334634	-3.168397	-0.126081	0.025219	-0.712817	-163.576122	-72.282154	-123.281026
47156		9.028320	0.418109	-3.355965	-0.106651	0.015191	-0.727746	-164.884092	-72.401886	-121.970685
47157		9.029646	0.473544	-3.077069	-0.138258	0.017032	-0.728576	-166.227461	-72.513757	-120.643029
47158		8.966525	0.384871	-3.067030	-0.251743	0.020249	-0.715172	-167.627673	-72.615843	-119.324749
47159		8.921035	0.270208	-3.086902	-0.282369	0.019103	-0.692404	-169.019580	-72.705221	-118.034229
47160		8.891514	0.199081	-2.959256	-0.297452	0.006658	-0.667616	-170.392215	-72.775508	-116.773512
47161		8.859675	0.084021	-2.960645	-0.298296	-0.004014	-0.635248	-171.718622	-72.828266	-115.562107
47162		8.802660	0.096187	-2.868801	-0.292370	-0.015515	-0.601222	-172.988768	-72.863544	-114.406321
47163		8.883257	0.032298	-3.020342	-0.337442	-0.030352	-0.570896	-174.235761	-72.881162	-113.301951
47164		8.893856	-0.118046	-3.122439	-0.306402	-0.040493	-0.530159	-175.392880	-72.883838	-112.273068
47165		8.921038	-0.239026	-3.185563	-0.300777	-0.049872	-0.489893	-176.473062	-72.873808	-111.321304
47166		9.024867	-0.399788	-3.277557	-0.259437	-0.042654	-0.444922	-177.444001	-72.861322	-110.459004
47167		9.093059	-0.356596	-3.203236	-0.140485	-0.029078	-0.402530	-178.265862	-72.851912	-109.681346
47168		8.837142	-0.230091	-2.967342	-0.072458	-0.026828	-0.360098	-178.968933	-72.839971	-108.987164
47169		9.080698	-0.093690	-3.270665	0.014393	-0.027791	-0.326479	-179.558872	-72.825089	-108.359264
47170		9.061412	0.192379	-3.156090	0.093442	-0.050169	-0.295741	179.954561	-72.795416	-107.792078
47171		8.998365	0.324490	-3.183422	0.090244	-0.053965	-0.277388	179.501967	-72.762395	-107.262288
47172		8.883676	0.343688	-3.191117	0.079611	-0.067742	-0.275491	179.049136	-72.720107	-106.738517
47173		8.908133	0.387816	-3.297926	0.089117	-0.071666	-0.277440	178.600690	-72.674457	-106.213516
47174		9.032868	0.435491	-3.370472	0.103612	-0.068332	-0.274799	178.167815	-72.629431	-105.695989
47175		9.161704	0.380462	-3.476207	0.067729	-0.055604	-0.280160	177.706028	-72.590482	-105.169600
47176		9.351250	0.271174	-3.541628	0.049023	-0.051872	-0.284059	177.228452	-72.552179	-104.637776
47177		9.574400	0.125966	-3.558527	0.096592	-0.045594	-0.294130	176.761240	-72.515929	-104.088146
47178		9.649696	0.075073	-3.498615	0.189796	-0.028734	-0.299919	176.337176	-72.487765	-103.527656
47179		9.580320	0.145763	-3.342309	0.275840	-0.010295	-0.315306	175.933586	-72.468382	-102.936875
47180		9.487935	0.343998	-3.121709	0.323952	0.006667	-0.331272	175.527525	-72.456703	-102.314532
47181		9.379622	0.469834	-3.068636	0.316498	0.025740	-0.353490	175.074650	-72.453506	-101.647553
47182		9.346513	0.524123	-3.169972	0.309051	0.038739	-0.372057	174.582157	-72.455071	-100.943487
47183		9.391608	0.588509	-3.170929	0.286996	0.048591	-0.386961	174.048054	-72.459535	-100.209057
47184		9.278401	0.535269	-3.149747	0.227572	0.049303	-0.397068	173.461489	-72.461580	-99.455317
47185		9.275484	0.456112	-3.199081	0.185185	0.053752	-0.406760	172.831903	-72.463099	-98.681948
47186		9.227134	0.420495	-3.209616	0.154811	0.059205	-0.405089	172.186759	-72.465232	-97.910510
47187		9.137237	0.299767	-3.177104	0.183974	0.067645	-0.404895	171.556109	-72.469580	-97.136774
47188		9.075899	0.349990	-3.065927	0.273526	0.063627	-0.404832	170.978021	-72.469200	-96.364349
47189		9.119342	0.466950	-2.884265	0.319152	0.062946	-0.407595	170.421257	-72.465862	-95.586872
47190		9.080150	0.439208	-2.819566	0.317546	0.046879	-0.404173	169.875404	-72.451550	-94.821757
47191		9.196566	0.461151	-2.758675	0.308316	0.021180	-0.391578	169.356301	-72.421897	-94.090163
47192		9.310391	0.521504	-2.792423	0.270242	0.016652	-0.380844	168.838371	-72.388879	-93.382548
47193		9.187469	0.494878	-2.887416	0.242771	0.021211	-0.373530	168.318097	-72.357303	-92.688872
47194		9.168587	0.642083	-2.915426	0.240668	0.016005	-0.372612	167.802640	-72.321033	-92.001375
47195		9.131829	0.738663	-2.893658	0.242543	0.013550	-0.366549	167.302168	-72.282276	-91.328347
47196		9.188276	0.900489	-2.823283	0.213430	0.022073	-0.349759	166.813559	-72.248682	-90.685140
47197		9.192821	1.006656	-2.822769	0.198541	0.044062	-0.331444	166.340845	-72.228120	-90.067495
47198		9.252978	1.123374	-2.710988	0.176695	0.038795	-0.319507	165.880096	-72.204753	-89.475475
47199		9.308314	1.256967	-2.492703	0.110252	0.009802	-0.302401	165.425016	-72.166259	-88.929305
47200		9.432468	1.213662	-2.555737	-0.016668	-0.012011	-0.280091	164.948098	-72.117612	-88.436446
47201		9.315304	1.061966	-2.754563	-0.081107	-0.015535	-0.264835	164.464303	-72.068050	-87.975043
47202		9.345185	1.056001	-2.870248	-0.083930	-0.009889	-0.266510	163.976261	-72.020147	-87.510730
47203		9.352302	1.053440	-2.920460	-0.118570	-0.011437	-0.272747	163.460797	-71.969130	-87.038344
47204		9.417012	0.989653	-3.003069	-0.141871	-0.006659	-0.280774	162.919259	-71.918069	-86.552416
47205		9.387096	0.971715	-2.918910	-0.167090	-0.011996	-0.290368	162.352618	-71.860981	-86.055154
47206		9.265599	0.886113	-2.883567	-0.207271	-0.012548	-0.292316	161.763821	-71.801708	-85.558613
47207		9.276633	0.756219	-2.947623	-0.212246	-0.013756	-0.294329	161.172674	-71.739805	-85.062451
47208		9.224901	0.645118	-2.906384	-0.210607	-0.001461	-0.299440	160.571137	-71.682003	-84.554162
47209		9.155998	0.549523	-2.889977	-0.218510	-0.001343	-0.299351	159.968303	-71.622593	-84.049127
47210		9.145720	0.510577	-3.001354	-0.217070	-0.016215	-0.304475	159.370973	-71.552528	-83.548813
47211		9.124484	0.500943	-3.063202	-0.173224	-0.020860	-0.298128	158.815598	-71.479676	-83.066055
47212		9.163670	0.546037	-3.086699	-0.143882	-0.026495	-0.293119	158.292812	-71.403444	-82.599712
47213		9.209427	0.575209	-3.053371	-0.152969	-0.032523	-0.288855	157.779246	-71.323571	-82.148392
47214		9.317004	0.595537	-3.071407	-0.164407	-0.024545	-0.284041	157.265705	-71.247701	-81.703799
47215		9.300783	0.575448	-3.022616	-0.175573	-0.023391	-0.283316	156.749909	-71.171312	-81.263386
47216		9.027214	0.432544	-3.100753	-0.197741	-0.022562	-0.296038	156.205325	-71.091151	-80.805761
47217		9.679201	0.715432	-2.855799	-0.086936	-0.061827	-0.283476	155.774258	-70.992106	-80.400789
47218		8.905705	0.230355	-3.115195	-0.129482	-0.068444	-0.300308	155.302419	-70.884588	-79.978223
47219		9.219469	0.694092	-3.058374	-0.028608	0.006756	-0.294976	154.848712	-70.816329	-79.513433
47220		9.063393	0.810690	-2.908646	-0.071111	0.012316	-0.287575	154.380798	-70.751533	-79.059211
47221		9.270025	0.878953	-2.870360	-0.065709	0.014488	-0.276325	153.934270	-70.689493	-78.624173
47222		9.340670	0.928980	-2.934586	-0.087356	0.003130	-0.268610	153.497451	-70.622451	-78.212415
47223		9.477002	0.989256	-3.140041	-0.116351	0.012667	-0.261547	153.050478	-70.561092	-77.807322
47224		9.109475	0.787292	-3.269720	-0.116176	0.000294	-0.271509	152.600873	-70.489736	-77.399187
47225		8.990048	1.003356	-3.087587	-0.059600	-0.030756	-0.289019	152.185539	-70.396975	-76.992784
47226		9.103245	1.087239	-3.266987	-0.053480	-0.026132	-0.300620	151.757291	-70.302395	-76.568739
47227		9.142656	1.289189	-3.121284	-0.014052	-0.015292	-0.301245	151.346957	-70.212096	-76.139442
47228		9.151244	1.424235	-2.969267	-0.030963	-0.023245	-0.298219	150.940599	-70.117579	-75.724460
47229		9.149879	1.469723	-3.060123	-0.059423	-0.016163	-0.297449	150.517910	-70.025834	-75.309168
47230		9.190266	1.533732	-2.952037	-0.083551	-0.004844	-0.294930	150.079301	-69.939342	-74.891450
47231		9.182318	1.546718	-2.860764	-0.139469	0.002036	-0.287929	149.616909	-69.857186	-74.482256
47232		9.245380	1.614733	-2.815040	-0.211422	0.000656	-0.281227	149.126421	-69.775104	-74.086879
47233		9.221274	1.534929	-2.767372	-0.288457	-0.007621	-0.267857	148.620319	-69.691782	-73.721655
47234		9.107694	1.594970	-2.780846	-0.351076	0.008731	-0.246047	148.096687	-69.621813	-73.375861
47235		9.127696	1.603442	-2.858492	-0.488561	-0.011204	-0.248517	147.511097	-69.540320	-73.047797
47236		9.071056	1.471512	-2.913734	-0.523999	0.014701	-0.232379	146.907436	-69.475071	-72.722004
47237		8.945789	1.333358	-2.718657	-0.555703	0.023826	-0.229801	146.284696	-69.413846	-72.395053
47238		9.039984	1.219865	-2.757928	-0.557708	0.036033	-0.227762	145.655157	-69.357756	-72.061987
47239		9.147435	1.133382	-2.863821	-0.551852	0.068032	-0.221350	145.012424	-69.317620	-71.711077
47240		9.133111	1.100274	-2.934075	-0.527551	0.085429	-0.225552	144.364410	-69.282747	-71.339602
47241		9.091850	1.101710	-3.084055	-0.490694	0.097015	-0.236695	143.715994	-69.248123	-70.944972
47242		9.180501	1.062883	-3.192630	-0.460441	0.095382	-0.254726	143.065610	-69.204896	-70.529657
47243		9.115020	1.089762	-3.258127	-0.428333	0.099017	-0.273581	142.410822	-69.155235	-70.089749
47244		9.101424	1.153918	-3.191779	-0.431817	0.093402	-0.288692	141.743165	-69.095786	-69.638118
47245		9.152575	1.217160	-3.230753	-0.455047	0.102372	-0.305653	141.038211	-69.032507	-69.160532
47246		8.919480	1.244364	-3.335603	-0.459769	0.126625	-0.324695	140.288211	-68.970751	-68.637480
47247		9.475181	1.239312	-3.385403	-0.443496	0.123107	-0.350729	139.526316	-68.895534	-68.091349
47248		9.791463	1.086617	-3.464188	-0.391258	0.137362	-0.361704	138.771724	-68.819631	-67.520780
47249		9.618360	1.158423	-3.414754	-0.278500	0.116273	-0.414608	138.050418	-68.712106	-66.916138
47250		9.221463	1.313658	-3.252337	-0.186054	0.096768	-0.471302	137.345645	-68.571549	-66.271983
47251		9.170396	1.388706	-3.310326	-0.052062	0.110066	-0.507044	136.676689	-68.420008	-65.583029
47252		9.185778	1.576631	-2.940272	0.043058	0.134567	-0.508184	136.044407	-68.275103	-64.874326
47253		9.169492	1.816409	-2.813109	0.050217	0.149310	-0.503139	135.416980	-68.135637	-64.165581
47254		9.029923	2.001759	-2.921739	0.080594	0.157962	-0.486315	134.821919	-68.003442	-63.472442
47255		9.124917	2.351372	-2.867192	0.094194	0.148122	-0.448392	134.291147	-67.880502	-62.839477
47256		9.169897	2.516765	-3.039208	0.022350	0.188745	-0.395423	133.734257	-67.793041	-62.222447
47257		9.472018	2.637432	-2.620528	-0.049860	0.165259	-0.337081	133.222068	-67.718682	-61.697886
47258		9.405250	2.449088	-3.269756	-0.059527	0.178937	-0.296158	132.730846	-67.664807	-61.201904
47259		9.841105	2.725921	-2.832524	-0.015138	0.168469	-0.249596	132.323426	-67.625346	-60.768694
47260		9.977361	2.585299	-3.083841	-0.102240	0.193182	-0.202059	131.884497	-67.614083	-60.355475
47261		9.891268	2.387296	-3.051362	-0.123508	0.218213	-0.162966	131.445426	-67.628180	-59.955104
47262		9.983141	2.444313	-2.802659	-0.155134	0.186945	-0.128389	131.050506	-67.643948	-59.622293
47263		9.952983	2.198803	-3.017437	-0.235271	0.200818	-0.075185	130.644626	-67.687410	-59.327157
47264		9.848711	2.191904	-2.738669	-0.234624	0.187375	-0.024383	130.296355	-67.746952	-59.094172
47265		9.854809	2.072555	-2.920697	-0.306347	0.188691	0.047300	129.970633	-67.838210	-58.929865
47266		9.825818	2.004328	-2.733029	-0.282746	0.209574	0.131046	129.707632	-67.973303	-58.818977
47267		9.766970	2.028123	-2.427342	-0.328992	0.214922	0.232597	129.504197	-68.155389	-58.800796
47268		9.439457	1.977376	-2.518398	-0.387004	0.193060	0.336660	129.383322	-68.375156	-58.907499
47269		9.577844	1.868763	-2.252080	-0.484953	0.141188	0.418036	129.342193	-68.612592	-59.159869
47270		9.364543	1.542029	-2.219615	-0.444128	0.135039	0.480918	129.391125	-68.875227	-59.483543
47271		9.444060	1.663073	-1.394939	-0.308546	0.089521	0.508096	129.603941	-69.133473	-59.898782
47272		9.191450	1.269314	-1.583856	-0.167261	0.147220	0.527238	129.855056	-69.420233	-60.267863
47273		8.627006	1.992892	-1.550502	0.129081	0.212571	0.563881	130.247631	-69.746927	-60.605789
47274		9.114371	2.703898	0.506417	0.077078	0.243850	0.583628	130.602316	-70.092578	-60.934550
47275		8.974145	2.124978	-2.399788	0.238848	0.313514	0.537719	130.931495	-70.444244	-61.136868
47276		8.442450	3.954462	-0.939877	0.372910	0.320841	0.528328	131.326117	-70.793630	-61.326848
47277		8.538727	3.451459	-2.364259	0.116604	0.304747	0.492079	131.565397	-71.121523	-61.507321
47278		8.539264	3.519409	-2.543514	0.261836	0.351980	0.455980	131.792463	-71.451191	-61.586823
47279		8.801201	3.904881	-1.537533	0.028598	0.340372	0.454700	131.905988	-71.776263	-61.687222
47280		8.891253	3.137036	-2.306418	-0.146444	0.349388	0.457325	131.911076	-72.105408	-61.778992
