// Start Time: Unknown
// Update Rate: 100.0Hz
// Filter Profile: human (46.1)
// Firmware Version: 4.6.0
PacketCounter	Acc_X	Acc_Y	Acc_Z	Gyr_X	Gyr_Y	Gyr_Z	Roll	Pitch	Yaw
21849	9.836959	0.167425	0.544246	0.012416	0.012805	0.018924	17.203944	-86.689016	129.318367
21850	9.830922	0.199748	0.549328	-0.007993	0.018523	0.011755	20.068492	-86.601205	126.933069
21851	9.765813	0.074364	0.453836	-0.026965	0.014218	0.000861	18.690656	-86.640340	128.075169
21852	9.743856	-0.012875	0.410177	-0.023908	0.017050	-0.003197	18.653277	-86.630499	128.098891
21853	9.685402	-0.033999	0.349578	-0.000960	0.018132	-0.003250	18.601299	-86.619694	128.150993
21854	9.636877	0.099767	0.341198	0.018252	0.015075	-0.002054	18.584053	-86.611132	128.178745
21855	9.677236	0.223093	0.415555	0.020583	0.014117	-0.006126	18.604244	-86.603023	128.170316
21856	9.703160	0.373160	0.379550	0.015289	0.017210	-0.003587	18.592866	-86.593022	128.190489
21857	9.688906	0.536758	0.481940	0.017862	0.021827	-0.002801	18.570351	-86.581799	128.223329
21858	9.752706	0.641344	0.436029	0.008830	0.020782	0.000985	18.503195	-86.570689	128.295673
21859	9.810974	0.662086	0.500409	0.006306	0.021694	0.014095	18.368561	-86.562289	128.434385
21860	9.829050	0.685773	0.458017	0.000865	0.027226	0.022877	18.081042	-86.551572	128.722921
21861	9.769830	0.651207	0.498374	0.003345	0.026872	0.029250	17.863368	-86.542309	128.943401
21862	9.747060	0.550075	0.555712	0.002424	0.023033	0.038274	17.453016	-86.536385	129.355893
21863	9.757610	0.457626	0.578347	0.009372	0.020712	0.045550	17.178743	-86.532166	129.636811
21864	9.710251	0.353313	0.610803	0.005707	0.016875	0.052014	16.665125	-86.531590	130.154647
21865	9.739263	0.295690	0.660532	0.014575	0.012633	0.048598	16.425998	-86.530963	130.403491
21866	9.749235	0.192219	0.609679	0.020627	0.011133	0.054090	15.917319	-86.533467	130.924943
21867	9.736146	0.107546	0.506916	0.034479	0.010838	0.052615	15.663288	-86.533158	131.200171
21868	9.705157	0.007861	0.521450	0.046828	0.010366	0.051769	15.191922	-86.535323	131.699280
21869	9.738524	0.012553	0.488010	0.053079	0.008903	0.048221	14.964982	-86.536453	131.957928
21870	9.813110	0.024048	0.461469	0.053229	0.006455	0.041975	14.595548	-86.539013	132.358591
21871	9.837575	0.022320	0.486331	0.043150	0.005652	0.033527	14.470806	-86.541721	132.508831
21872	9.822794	0.045840	0.549004	0.034093	0.006811	0.029288	14.205300	-86.542099	132.794391
21873	9.704271	0.097072	0.518078	0.021316	0.008506	0.015493	14.192300	-86.541656	132.820625
21874	9.905136	0.055155	0.564565	0.016323	0.004560	0.013559	14.066417	-86.541012	132.956107
21875	9.798211	0.039654	0.526917	0.005384	0.012310	0.009194	14.072824	-86.538630	132.953266
21876	9.733524	-0.064801	0.575736	0.024553	0.001471	0.004557	14.041675	-86.538438	132.998566
21877	9.886382	0.017776	0.538247	0.040896	-0.004437	0.000802	14.139701	-86.545822	132.923382
21878	9.777262	0.089210	0.520258	0.029958	0.003312	-0.003567	14.182050	-86.543490	132.898151
21879	9.829747	0.144994	0.586291	0.042651	0.003474	-0.003009	14.249935	-86.547135	132.854178
21880	9.736935	0.211005	0.479054	0.031795	0.006296	-0.010816	14.352917	-86.542155	132.769259
21881	9.715962	0.262060	0.472145	0.014052	-0.000293	-0.010505	14.512167	-86.545574	132.618340
21882	9.783172	0.291989	0.476201	0.001944	0.007943	-0.012845	14.612551	-86.539356	132.518882
21883	9.782398	0.399423	0.469766	-0.010747	0.007777	-0.013406	14.814280	-86.539590	132.311031
21884	9.725956	0.410357	0.453280	-0.035944	0.012710	-0.014910	14.899878	-86.530409	132.204628
21885	9.692392	0.402463	0.488865	-0.050879	0.008585	-0.014848	15.183493	-86.529616	131.892463
21886	9.707433	0.387481	0.500489	-0.059521	0.010704	-0.012472	15.237723	-86.521862	131.803936
21887	9.666148	0.381813	0.494644	-0.065202	0.010677	-0.008557	15.556132	-86.521430	131.449192
21888	9.704081	0.347125	0.558413	-0.071095	0.012781	-0.003626	15.518652	-86.513849	131.445864
21889	9.726876	0.328225	0.611546	-0.062837	0.007520	-0.004618	15.862738	-86.515200	131.066213
21890	9.772255	0.279911	0.643730	-0.059190	0.006673	-0.000280	15.817505	-86.511485	131.077468
21891	9.752304	0.233514	0.716679	-0.047241	0.003060	0.000278	16.147696	-86.513355	130.721008
21892	9.777218	0.118406	0.675428	-0.034955	0.000101	0.002241	16.111103	-86.513639	130.737499
21893	9.757009	0.061842	0.675161	-0.017541	-0.001342	-0.000093	16.277437	-86.513323	130.565297
21894	9.704639	0.006857	0.608913	0.003782	-0.003275	-0.001897	16.310242	-86.514839	130.534474
21895	9.749353	0.065102	0.632722	0.005872	-0.011990	-0.002797	16.557134	-86.523603	130.287981
21896	9.709835	0.080140	0.596586	-0.001034	-0.017059	-0.010734	16.704549	-86.531296	130.139579
21897	9.715775	0.047567	0.591261	0.005421	-0.020646	-0.015293	16.936196	-86.532770	129.917030
21898	9.761030	-0.008872	0.547778	0.012147	-0.023882	-0.023668	17.226747	-86.541885	129.632845
21899	9.753764	0.006643	0.576382	0.027447	-0.026496	-0.022968	17.547614	-86.549436	129.333129
21900	9.792346	0.090750	0.528950	0.046875	-0.031735	-0.022768	17.876062	-86.562770	129.030910
21901	9.771452	0.143198	0.518820	0.071908	-0.032027	-0.023050	18.277762	-86.573826	128.672266
21902	9.785862	0.235865	0.518964	0.077287	-0.034842	-0.020370	18.615979	-86.588993	128.377730
21903	9.759055	0.321750	0.511840	0.089506	-0.032882	-0.014988	18.757327	-86.610920	128.290008
21904	9.721421	0.369139	0.518241	0.096543	-0.037979	-0.019183	19.108844	-86.628030	127.993279
21905	9.747561	0.393828	0.510451	0.095781	-0.044267	-0.016404	19.503176	-86.654854	127.654147
21906	9.772729	0.280851	0.465022	0.106901	-0.039345	-0.011807	19.804526	-86.674020	127.413638
21907	9.802769	0.239767	0.409336	0.122376	-0.039194	-0.008735	20.125840	-86.696394	127.164234
21908	9.783684	0.194461	0.305180	0.156208	-0.041340	-0.006274	20.415639	-86.717650	126.963651
21909	9.753350	0.227136	0.279897	0.179686	-0.039403	0.000212	20.728565	-86.750064	126.754916
21910	9.773547	0.283938	0.275203	0.186477	-0.037489	0.000421	20.965263	-86.770686	126.624922
21911	9.793745	0.340551	0.270407	0.176933	-0.037057	0.003801	21.426860	-86.798843	126.263755
21912	9.799726	0.307177	0.263297	0.151519	-0.035314	-0.005293	21.698006	-86.817034	126.079168
21913	9.809853	0.337560	0.345520	0.131726	-0.030737	-0.006872	22.043579	-86.858839	125.808839
21914	9.812353	0.252979	0.322765	0.106913	-0.030103	-0.010324	22.324170	-86.873453	125.589246
21915	9.842911	0.222875	0.341047	0.094639	-0.024696	-0.015074	23.049720	-86.907019	124.910475
21916	9.804168	0.132453	0.312735	0.083868	-0.019125	-0.020459	23.379770	-86.913537	124.628115
21917	9.751161	0.196043	0.309892	0.077925	-0.014864	-0.023547	24.294276	-86.936512	123.754734
21918	9.712037	0.223953	0.346148	0.065975	-0.008785	-0.026893	24.641075	-86.935906	123.445237
21919	9.711226	0.215107	0.272901	0.065079	-0.007980	-0.028688	25.350614	-86.956805	122.767020
21920	9.737118	0.240558	0.268188	0.051225	-0.005182	-0.029967	25.706314	-86.953490	122.440116
21921	9.699238	0.289231	0.276897	0.049855	-0.007861	-0.035550	26.294054	-86.973014	121.870298
21922	9.695284	0.358380	0.323111	0.040354	-0.004523	-0.029708	26.637961	-86.969369	121.549009
21923	9.718510	0.469798	0.337277	0.030257	-0.007489	-0.030048	26.850191	-86.985094	121.344772
21924	9.795615	0.531999	0.424925	0.010343	-0.005327	-0.028756	27.168646	-86.982183	121.031866
21925	9.843472	0.519388	0.500554	-0.000237	-0.006444	-0.024268	27.564612	-86.998338	120.628734
21926	9.882524	0.496565	0.462487	-0.008099	-0.005461	-0.025281	27.838882	-86.996428	120.349553
21927	9.903742	0.449056	0.470166	-0.015755	-0.001290	-0.018679	28.589628	-87.015043	119.581257
21928	9.843845	0.407688	0.436586	-0.006036	-0.001444	-0.016915	28.766735	-87.013369	119.400531
21929	9.825170	0.372958	0.409623	-0.003616	-0.002095	-0.015769	29.043284	-87.026744	119.112238
21930	9.801745	0.391967	0.357533	-0.003715	0.002874	-0.012372	29.153864	-87.024356	118.999526
21931	9.792391	0.374836	0.344398	-0.011273	0.002073	-0.009166	29.448180	-87.024156	118.699915
21932	9.777020	0.391443	0.334146	-0.017845	0.005362	-0.009818	29.511255	-87.021215	118.626690
21933	9.789014	0.324590	0.329283	-0.021776	0.005851	-0.010325	29.693134	-87.017631	118.438546
21934	9.788971	0.325255	0.329914	-0.017762	0.005728	-0.004600	29.703067	-87.016018	118.418610
21935	9.773108	0.333300	0.420272	-0.019576	0.007349	-0.008177	30.003972	-87.018627	118.113937
21936	9.767021	0.367681	0.423883	-0.014617	0.008867	-0.003486	29.988909	-87.015903	118.120829
21937	9.759683	0.381905	0.455410	-0.011149	0.004890	-0.006772	30.215832	-87.021342	117.893895
21938	9.751605	0.384271	0.414556	-0.010121	0.006898	-0.002586	30.205859	-87.020006	117.898284
21939	9.748324	0.332333	0.399016	-0.010724	0.005925	-0.000157	30.384919	-87.026079	117.714472
21940	9.746306	0.300476	0.355423	-0.011631	0.006736	-0.001946	30.368296	-87.025114	117.724681
21941	9.773681	0.217160	0.361127	-0.004113	0.005090	-0.002327	30.543257	-87.021830	117.571549
21942	9.782940	0.235451	0.375149	-0.000406	0.006751	-0.000817	30.524169	-87.021260	117.590636
21943	9.764334	0.199328	0.349246	0.006141	0.013336	-0.002407	30.590784	-87.020410	117.534934
21944	9.741658	0.229317	0.370399	0.018640	0.007877	-0.006713	30.631232	-87.017636	117.505363
21945	9.749624	0.228067	0.412620	0.013199	0.008203	-0.006581	31.086224	-87.041815	117.061670
21946	9.742259	0.242794	0.444079	0.019127	0.006029	-0.011541	31.186137	-87.038846	116.972819
21947	9.774114	0.232708	0.438008	0.020075	0.007669	-0.012575	31.642204	-87.044316	116.541295
21948	9.756776	0.217898	0.383824	0.024612	0.008152	-0.014497	31.763146	-87.039520	116.434497
21949	9.782571	0.242080	0.380506	0.033305	0.005996	-0.016913	32.407315	-87.037445	115.812611
21950	9.767181	0.259415	0.370353	0.037922	0.006846	-0.013617	32.536466	-87.033459	115.705171
21951	9.780812	0.351396	0.372513	0.040990	0.009614	-0.017725	33.018551	-87.041144	115.247660
21952	9.767317	0.400763	0.406390	0.037772	0.001571	-0.013191	33.176830	-87.039917	115.110952
21953	9.770421	0.454395	0.422435	0.031648	0.000552	-0.015850	33.473674	-87.037529	114.842332
21954	9.750811	0.537581	0.458833	0.015813	0.007470	-0.014492	33.595051	-87.033034	114.729978
21955	9.751964	0.559058	0.431224	0.000835	0.003338	-0.014303	33.802998	-87.031801	114.521005
21956	9.757972	0.526523	0.428860	-0.009489	0.002510	-0.013644	33.930610	-87.029927	114.387923
21957	9.736293	0.439013	0.386301	-0.012438	0.002562	-0.007142	34.031928	-87.031171	114.283975
21958	9.776179	0.426451	0.421361	-0.013385	0.000922	-0.006106	34.096844	-87.032500	114.211474
21959	9.790861	0.399299	0.360050	-0.008165	0.002747	-0.005239	34.224564	-87.021521	114.078450
21960	9.743561	0.426565	0.356242	-0.004498	0.001964	-0.000904	34.238723	-87.023901	114.061893
21961	9.742311	0.406716	0.384104	-0.006622	-0.006959	-0.003622	34.644585	-87.036773	113.652032
21962	9.768148	0.429430	0.379740	0.000566	-0.001479	0.000395	34.672940	-87.041288	113.624162
21963	9.783501	0.413663	0.390328	-0.006391	-0.001316	0.001168	34.916293	-87.039666	113.389607
21964	9.727000	0.422347	0.372589	-0.005600	-0.004945	0.000563	34.962947	-87.045822	113.339853
21965	9.777431	0.447168	0.392471	-0.017885	-0.001638	0.003862	34.976080	-87.057921	113.325233
21966	9.747405	0.490247	0.442993	-0.023559	-0.006957	-0.000797	35.037159	-87.064693	113.250778
21967	9.797839	0.515252	0.462751	-0.040455	-0.004510	-0.000798	35.451647	-87.074706	112.813647
21968	9.854814	0.376426	0.344737	-0.040336	-0.001693	0.001596	35.449966	-87.079853	112.792389
21969	9.797489	0.234976	0.220473	-0.036922	0.009538	0.004679	35.505219	-87.087218	112.716723
21970	9.770407	0.191663	0.253279	-0.020632	0.006119	0.007108	35.412856	-87.090661	112.797600
21971	9.753814	0.186453	0.271284	-0.002111	0.006653	0.008866	35.585403	-87.089963	112.628623
21972	9.735512	0.287346	0.280159	0.006015	0.005985	0.006060	35.519622	-87.093097	112.698150
21973	9.774359	0.391455	0.378690	-0.007063	0.005129	0.004169	35.596348	-87.099913	112.637676
21974	9.751661	0.420676	0.399180	-0.020257	0.001453	-0.000119	35.602803	-87.103183	112.619803
21975	9.770760	0.468812	0.498519	-0.043991	-0.000910	-0.002754	35.681315	-87.111345	112.525549
21976	9.817373	0.430271	0.430696	-0.058377	0.005787	-0.007257	35.702395	-87.110292	112.471196
21977	9.845501	0.355468	0.336450	-0.064866	0.009424	-0.002698	35.961120	-87.108448	112.171882
21978	9.830550	0.245200	0.364236	-0.061297	0.018135	-0.005829	35.885885	-87.102137	112.212280
21979	9.752376	0.166152	0.305454	-0.050635	0.019636	-0.005085	35.969970	-87.096328	112.105483
21980	9.711140	0.159700	0.300605	-0.025513	0.019353	-0.005477	35.904298	-87.089605	112.156838
21981	9.682810	0.235067	0.397774	-0.019847	0.016886	-0.006609	36.196669	-87.085752	111.860502
21982	9.711669	0.310167	0.411966	-0.011992	0.015920	-0.005585	36.164008	-87.080622	111.886529
21983	9.714692	0.362657	0.429826	-0.013277	0.013608	-0.005952	36.208200	-87.072073	111.833957
21984	9.771102	0.354362	0.448708	-0.022980	0.013739	-0.007739	36.202204	-87.067189	111.826995
21985	9.785837	0.327666	0.388242	-0.013996	0.009816	-0.005928	36.648994	-87.062725	111.371018
21986	9.802399	0.332605	0.371966	-0.013656	0.010483	-0.004532	36.643155	-87.060408	111.369190
21987	9.817672	0.317209	0.383830	-0.010519	0.013626	-0.003404	36.810365	-87.050599	111.206801
21988	9.805346	0.385352	0.391106	-0.010476	0.016081	-0.006224	36.785095	-87.045082	111.226224
21989	9.765396	0.399189	0.358109	-0.010926	0.020372	-0.004213	36.948789	-87.028445	111.064566
21990	9.771433	0.365843	0.357223	-0.008241	0.020035	-0.006886	36.905636	-87.020802	111.103135
21991	9.744213	0.323356	0.390963	-0.006321	0.021223	-0.000904	37.188861	-87.021124	110.808255
21992	9.746741	0.364030	0.337284	-0.006276	0.023678	-0.003723	37.096617	-87.012979	110.897075
21993	9.754523	0.362208	0.380962	-0.005146	0.020720	-0.002940	37.117426	-86.999409	110.882226
21994	9.754439	0.362423	0.382881	-0.009454	0.018077	-0.002036	37.046412	-86.994344	110.947953
21995	9.740759	0.409946	0.418490	-0.007265	0.019575	0.000123	37.087750	-86.987190	110.902028
21996	9.781452	0.405247	0.354992	-0.004851	0.018929	0.001276	36.985536	-86.982860	111.001635
21997	9.781757	0.416454	0.429154	-0.005460	0.017950	0.003702	36.970266	-86.973936	111.032888
21998	9.797010	0.400238	0.441595	-0.001197	0.018136	0.005618	36.838924	-86.971412	111.163742
21999	9.787770	0.381646	0.429961	-0.000811	0.021257	0.004197	36.726358	-86.962671	111.273651
22000	9.761552	0.347040	0.363258	0.004579	0.018486	0.006899	36.584711	-86.960362	111.418155
22001	9.761509	0.346450	0.364972	0.000881	0.016821	0.005373	36.612586	-86.956798	111.407205
22002	9.775398	0.309767	0.405321	0.003406	0.018985	0.008932	36.450860	-86.954937	111.571124
22003	9.749499	0.286495	0.410910	0.007043	0.020293	0.005234	36.529672	-86.946126	111.502249
22004	9.748050	0.265822	0.440701	0.007269	0.018147	0.004229	36.418003	-86.943000	111.618224
22005	9.773570	0.276620	0.366351	0.016294	0.016683	0.003238	36.465303	-86.933529	111.584209
22006	9.790441	0.292368	0.423137	0.019095	0.019157	0.002972	36.365886	-86.929448	111.694680
22007	9.769194	0.353225	0.489326	0.027509	0.016714	0.004408	36.480000	-86.921786	111.590738
22008	9.715726	0.413900	0.489812	0.023411	0.021792	0.002068	36.375473	-86.916134	111.708775
22009	9.720079	0.486165	0.479927	0.013439	0.013847	-0.001723	36.418688	-86.913311	111.680475
22010	9.745867	0.508663	0.477599	0.001111	0.014674	0.004357	36.327130	-86.911726	111.772729
22011	9.776192	0.465223	0.428084	-0.009539	0.013164	0.003576	36.220064	-86.901354	111.876881
22012	9.767004	0.446631	0.415865	-0.018003	0.013151	0.004955	36.121387	-86.900587	111.965309
22013	9.747242	0.389607	0.418000	-0.014077	0.012668	0.005478	36.379969	-86.892791	111.685674
22014	9.761046	0.353042	0.457993	-0.010713	0.013664	0.005607	36.279163	-86.891956	111.780354
22015	9.761009	0.352326	0.459318	-0.011327	0.012687	0.008033	36.174727	-86.891193	111.877344
22016	9.757944	0.299559	0.444196	-0.006451	0.013847	0.007529	36.058193	-86.890902	111.990239
22017	9.757899	0.298916	0.445613	-0.005836	0.014822	0.005103	36.045666	-86.883307	112.004444
22018	9.751627	0.320580	0.377389	-0.001403	0.010408	0.008842	35.942630	-86.884995	112.106706
22019	9.792843	0.338156	0.458062	-0.000061	0.015170	0.006392	35.892308	-86.878586	112.151775
22020	9.762290	0.369110	0.437887	-0.001124	0.010718	0.005018	35.819878	-86.878796	112.223546
22021	9.739423	0.398102	0.459049	-0.009308	0.011017	0.002568	35.888350	-86.875636	112.147071
22022	9.777466	0.352666	0.450899	-0.015305	0.012812	0.002280	35.818787	-86.873941	112.207822
22023	9.745435	0.363691	0.458697	-0.013791	0.012976	0.001646	35.860449	-86.863650	112.157136
22024	9.752970	0.349820	0.429240	-0.011941	0.013806	0.002411	35.786204	-86.861470	112.224489
22025	9.742233	0.299900	0.372411	-0.008465	0.009849	-0.000862	35.790195	-86.864962	112.228984
22026	9.737636	0.365327	0.420682	-0.008745	0.009537	0.002961	35.739181	-86.865001	112.274916
22027	9.771084	0.374037	0.387070	-0.006446	0.006081	0.001718	35.790280	-86.861087	112.225536
22028	9.790925	0.303845	0.423582	-0.006334	0.008889	0.004120	35.735025	-86.861780	112.277089
22029	9.768046	0.332977	0.444616	-0.002691	0.010196	0.000431	35.753839	-86.856626	112.256693
22030	9.749729	0.296811	0.418360	-0.003027	0.009530	-0.000968	35.739594	-86.855289	112.269071
22031	9.758830	0.314794	0.432845	0.006051	0.008418	0.003279	35.774537	-86.849121	112.231135
22032	9.758797	0.314570	0.433756	0.003082	0.010543	0.001724	35.734913	-86.848163	112.272428
22033	9.751146	0.328171	0.465407	0.001121	0.006905	-0.001444	35.830577	-86.847320	112.172733
22034	9.767859	0.332717	0.448889	0.005380	0.007087	0.000483	35.823973	-86.847554	112.182271
22035	9.758695	0.314654	0.435983	0.002971	0.007735	-0.000678	36.046293	-86.851733	111.931557
22036	9.776927	0.350932	0.463751	0.007678	0.003632	-0.000758	36.073642	-86.853193	111.908392
22037	9.784516	0.337450	0.433535	0.007847	0.008894	-0.001176	36.187316	-86.845632	111.794768
22038	9.763138	0.387223	0.426328	0.007119	0.005109	-0.001153	36.209136	-86.846226	111.776800
22039	9.772242	0.405410	0.440375	0.009528	0.004461	0.000008	36.246500	-86.846076	111.756301
22040	9.741743	0.436882	0.419594	0.003082	0.010542	0.001722	36.208506	-86.845126	111.795922
22041	9.759964	0.472934	0.447642	-0.004932	0.006245	0.001081	36.271538	-86.840531	111.727075
22042	9.767584	0.459035	0.417386	-0.010427	0.004109	0.004003	36.246419	-86.843289	111.746040
22043	9.749293	0.433808	0.463216	-0.018721	0.009359	0.004950	36.234398	-86.843861	111.749872
22044	9.770644	0.372233	0.399697	-0.019055	0.008693	0.003551	36.180071	-86.844353	111.793137
22045	9.737106	0.362602	0.435058	-0.019562	0.010522	0.008376	36.160898	-86.844180	111.790282
22046	9.714230	0.391157	0.456078	-0.021185	0.007549	0.006605	36.086820	-86.846225	111.852103
22047	9.746193	0.379233	0.450715	-0.025271	0.012628	0.004258	36.009807	-86.843289	111.925566
22048	9.761391	0.362882	0.462446	-0.024880	0.005888	0.005068	35.956454	-86.845571	111.964513
22049	9.767546	0.317203	0.387752	-0.020115	0.004241	0.002170	36.057067	-86.849287	111.845512
22050	9.775107	0.314491	0.430009	-0.021740	0.009021	0.006208	35.977222	-86.850524	111.912787
22051	9.775092	0.313789	0.430862	-0.015745	0.007226	0.006502	35.869507	-86.845712	112.049487
22052	9.784121	0.342606	0.517574	-0.016415	0.005898	0.003704	35.832751	-86.847503	112.076661
22053	9.793304	0.348860	0.459708	-0.022631	0.009832	0.004413	35.795301	-86.842929	112.098547
22054	9.768938	0.345985	0.436460	-0.024367	0.011806	0.006047	35.698215	-86.842724	112.181577
22055	9.759681	0.338696	0.496311	-0.018089	0.010327	0.002520	35.650370	-86.836129	112.215476
22056	9.777998	0.362994	0.452317	-0.014452	0.009527	0.006875	35.565539	-86.837210	112.291924
22057	9.735305	0.335206	0.473696	-0.017031	0.004914	0.006123	35.633909	-86.832367	112.206175
22058	9.768753	0.354791	0.512283	-0.013110	0.004430	0.006656	35.583160	-86.835697	112.249237
22059	9.703193	0.356350	0.553597	-0.010307	0.006902	0.006402	35.537585	-86.831824	112.299864
22060	9.739805	0.278920	0.500001	-0.000569	-0.000637	0.007644	35.516103	-86.837805	112.320805
22061	9.779482	0.253198	0.462620	0.010012	-0.001589	0.011273	35.529675	-86.843537	112.319893
22062	9.755194	0.249984	0.437950	0.031744	-0.002861	0.010887	35.512881	-86.851628	112.354674
22063	9.808648	0.314429	0.402840	0.028162	-0.001716	0.011752	35.524664	-86.856957	112.363104
22064	9.778307	0.344908	0.381045	0.045694	-0.002828	0.014651	35.483628	-86.866272	112.430163
22065	9.766247	0.411515	0.386400	0.045028	-0.004158	0.011851	35.528560	-86.870094	112.413286
22066	9.810621	0.457602	0.337277	0.046597	-0.003650	0.016438	35.477773	-86.880354	112.490617
22067	9.797102	0.492248	0.298372	0.037421	0.002414	0.015584	35.380601	-86.880912	112.619593
22068	9.814052	0.483837	0.209232	0.025215	0.008153	0.015991	35.248567	-86.885450	112.766021
22069	9.795723	0.457459	0.255062	0.011654	0.009134	0.018845	35.044219	-86.881508	113.001588
22070	9.807845	0.387961	0.250207	-0.003474	0.009603	0.017109	34.876609	-86.885623	113.167178
22071	9.803022	0.325689	0.334999	-0.017982	0.011051	0.012948	34.950389	-86.889833	113.048985
22072	9.764674	0.243375	0.381986	-0.028788	0.014154	0.010322	34.800182	-86.889589	113.182599
22073	9.770523	0.219874	0.453051	-0.026872	0.017434	0.008271	34.714075	-86.878935	113.251618
22074	9.748897	0.142504	0.483127	-0.025807	0.014129	0.003840	34.622497	-86.876509	113.328213
22075	9.738050	0.103795	0.498681	-0.009839	0.012493	0.002155	34.672874	-86.868854	113.260638
22076	9.767225	0.166852	0.440703	0.000758	0.013639	-0.002251	34.652671	-86.864637	113.280976
22077	9.777952	0.205423	0.427786	0.006193	0.013315	-0.002346	34.732449	-86.860952	113.175329
22078	9.791796	0.296069	0.431397	0.008886	0.012979	-0.005003	34.744541	-86.856152	113.167984
22079	9.813309	0.373122	0.404203	0.006194	0.013314	-0.002346	34.813116	-86.851387	113.100645
22080	9.778544	0.459347	0.359141	-0.001581	0.016744	-0.006236	34.807716	-86.844408	113.104801
22081	9.769330	0.441834	0.347027	-0.011336	0.014436	-0.005260	34.928294	-86.841771	112.955763
22082	9.775283	0.408442	0.345684	-0.017326	0.016235	-0.005563	34.911526	-86.835274	112.962258
22083	9.767501	0.422427	0.378338	-0.025051	0.020010	-0.004236	34.956636	-86.825806	112.885622
22084	9.758291	0.404684	0.366600	-0.027856	0.017540	-0.003984	34.913160	-86.819205	112.912813
22085	9.762301	0.361958	0.465856	-0.036536	0.019671	-0.001635	34.904435	-86.807663	112.892760
22086	9.719409	0.335298	0.488417	-0.032037	0.019817	-0.008741	34.885715	-86.798401	112.892747
22087	9.740481	0.285904	0.498384	-0.027957	0.022473	-0.000581	34.863653	-86.787462	112.896822
22088	9.753824	0.249771	0.539217	-0.021342	0.021654	-0.002698	34.790373	-86.779294	112.957581
22089	9.772242	0.274793	0.496396	-0.010476	0.021012	-0.002874	34.793909	-86.769367	112.945388
22090	9.746184	0.252563	0.501760	-0.001459	0.019544	-0.003821	34.754336	-86.761809	112.983790
22091	9.755178	0.270788	0.517397	0.007046	0.019895	0.000058	34.712228	-86.753238	113.032564
22092	9.752454	0.345489	0.466454	0.015729	0.017766	-0.002287	34.680366	-86.747000	113.073105
22093	9.752758	0.334465	0.395674	0.013257	0.015958	-0.000638	34.688419	-86.742566	113.087668
22094	9.735827	0.330306	0.414241	0.011702	0.015449	-0.005233	34.692359	-86.736463	113.090032
22095	9.793702	0.341834	0.406039	0.009896	0.014965	-0.000786	34.667388	-86.734510	113.134099
22096	9.825630	0.330806	0.401255	0.000838	0.016088	-0.005064	34.660099	-86.728175	113.141482
22097	9.769335	0.340330	0.384532	0.005645	0.014788	-0.002727	34.670529	-86.722584	113.129444
22098	9.782661	0.304473	0.424793	0.006383	0.018567	-0.002747	34.633286	-86.715831	113.170014
22099	9.751844	0.347958	0.477240	0.005051	0.015919	-0.008344	34.654909	-86.706016	113.155777
22100	9.735330	0.333070	0.423614	0.003942	0.018871	-0.009137	34.666828	-86.697020	113.145706
22101	9.740801	0.311298	0.494844	0.004831	0.018056	-0.007342	34.754351	-86.692813	113.059139
22102	9.755820	0.296216	0.507394	0.004831	0.018055	-0.007343	34.756976	-86.684811	113.058880
22103	9.740582	0.312927	0.498104	0.012226	0.013623	-0.010056	34.876861	-86.677151	112.931683
22104	9.741711	0.345582	0.543879	0.004946	0.013115	-0.010749	34.934828	-86.670349	112.876048
22105	9.745122	0.387275	0.489209	0.016924	0.009524	-0.010118	35.011213	-86.670279	112.832671
22106	9.764896	0.444716	0.489555	0.008683	0.007374	-0.009789	35.095650	-86.666507	112.752674
22107	9.796846	0.434279	0.483923	0.004692	0.005403	-0.007515	35.217913	-86.661930	112.627365
22108	9.824465	0.478028	0.453312	0.001403	0.006865	-0.010482	35.306354	-86.658135	112.539172
22109	9.800211	0.476544	0.429622	-0.006622	0.010316	-0.005351	35.412456	-86.654250	112.405598
22110	9.782046	0.441107	0.403400	-0.014384	0.013736	-0.009262	35.442968	-86.647639	112.366363
22111	9.765071	0.437079	0.421919	-0.020966	0.014897	-0.001938	35.400564	-86.645337	112.403372
22112	9.754214	0.398826	0.437299	-0.022993	0.008813	-0.002296	35.398340	-86.643353	112.391996
22113	9.705225	0.405791	0.461818	-0.030645	0.015032	-0.003807	35.415463	-86.636688	112.353631
22114	9.713022	0.392509	0.432331	-0.032671	0.008947	-0.004168	35.421909	-86.634014	112.328012
22115	9.747558	0.306906	0.479935	-0.027460	0.010766	-0.003243	35.455287	-86.625211	112.277282
22116	9.764404	0.311551	0.463979	-0.021141	0.009635	-0.001525	35.443568	-86.623061	112.276471
22117	9.780631	0.327481	0.520190	-0.014300	0.006686	-0.004630	35.513089	-86.619403	112.204686
22118	9.797488	0.332244	0.503903	-0.009721	0.007527	-0.001282	35.517978	-86.618308	112.193791
22119	9.799214	0.352903	0.476865	-0.007907	0.008013	-0.005727	35.553870	-86.612465	112.174967
22120	9.776147	0.382603	0.497622	-0.001259	0.007544	-0.002606	35.573877	-86.610902	112.153784
22121	9.777869	0.403216	0.470737	-0.013231	0.011125	-0.003248	35.550670	-86.604315	112.183899
22122	9.750766	0.349282	0.430439	-0.011790	0.008834	-0.001055	35.544973	-86.602649	112.182425
22123	9.744604	0.383357	0.434351	-0.016921	0.009468	-0.004802	35.654172	-86.599516	112.044160
22124	9.724739	0.327207	0.435587	-0.014190	0.009481	-0.002229	35.652990	-86.597160	112.036778
22125	9.757839	0.347715	0.474771	-0.008865	0.006369	-0.004708	35.737200	-86.596291	111.946788
22126	9.748783	0.330060	0.461698	-0.012449	0.007511	-0.003858	35.760929	-86.594312	111.915449
22127	9.742624	0.364241	0.465291	-0.004394	0.004413	-0.003763	35.835996	-86.594324	111.835858
22128	9.751596	0.382642	0.479491	-0.006239	0.003585	-0.004540	35.890723	-86.593938	111.777029
22129	9.759464	0.369547	0.449315	-0.009088	0.008505	-0.003704	35.954168	-86.587565	111.702801
22130	9.792551	0.390077	0.488389	-0.009824	0.004726	-0.003690	35.993820	-86.586909	111.657012
22131	9.789630	0.338493	0.472278	-0.010603	0.008337	-0.003081	36.009818	-86.583551	111.636486
22132	9.771578	0.302762	0.445565	-0.013002	0.008984	-0.004255	36.027826	-86.580723	111.610558
22133	9.739475	0.314481	0.452692	-0.008456	0.009486	-0.006125	36.080706	-86.575579	111.566207
22134	9.780457	0.321678	0.461297	-0.002366	0.010494	-0.003395	36.089620	-86.572332	111.555492
22135	9.722420	0.310938	0.471759	-0.002948	0.011631	-0.009013	36.156601	-86.564269	111.491008
22136	9.729521	0.309584	0.514488	0.001269	0.011473	-0.012283	36.230390	-86.557548	111.417386
22137	9.733022	0.351408	0.460231	-0.007641	0.015719	-0.008957	36.210247	-86.543704	111.449345
22138	9.755999	0.323199	0.441500	-0.003934	0.009648	-0.013218	36.297614	-86.537469	111.359135
22139	9.776701	0.412265	0.486880	-0.008480	0.009143	-0.011351	36.360441	-86.530222	111.313527
22140	9.767630	0.395401	0.474035	-0.009363	0.009957	-0.013149	36.441770	-86.523843	111.226251
22141	9.796247	0.471140	0.488635	-0.014566	0.008131	-0.014085	36.650271	-86.516621	110.991902
22142	9.767437	0.397931	0.475881	-0.018150	0.009268	-0.013237	36.730805	-86.510496	110.900364
22143	9.794251	0.452975	0.518107	-0.015274	0.004689	-0.008850	36.887034	-86.507336	110.723989
22144	9.752163	0.415630	0.466427	-0.012797	0.006501	-0.010491	36.965391	-86.503399	110.637696
22145	9.757430	0.393629	0.536814	-0.011960	0.013073	-0.008096	37.038070	-86.499253	110.556344
22146	9.764356	0.349386	0.462447	-0.002140	0.008356	-0.004399	37.066418	-86.496570	110.526269
22147	9.756318	0.363155	0.494080	0.003617	0.008709	-0.003065	37.075680	-86.491622	110.532159
22148	9.741136	0.379207	0.484109	0.007859	0.008892	-0.001110	37.082038	-86.489816	110.529857
22149	9.749072	0.366135	0.454162	0.008164	0.009215	-0.004931	37.109245	-86.483682	110.521807
22150	9.791836	0.394044	0.434990	0.010314	0.010367	-0.007973	37.159610	-86.478813	110.476826
22151	9.768645	0.423922	0.455775	0.005360	0.006742	-0.004694	37.192279	-86.473961	110.453033
22152	9.759645	0.406252	0.442825	0.006751	0.011840	-0.001903	37.187071	-86.470505	110.461685
22153	9.757760	0.386452	0.471544	0.004785	0.007878	-0.010314	37.300475	-86.466522	110.362960
22154	9.809479	0.432353	0.465897	0.001368	0.004760	-0.002433	37.335977	-86.466113	110.327736
22155	9.745276	0.455070	0.478836	-0.007568	0.008660	-0.004337	37.396616	-86.466358	110.257611
22156	9.769271	0.457703	0.504520	-0.008677	0.011608	-0.005131	37.407720	-86.461907	110.241067
22157	9.734377	0.417435	0.494918	-0.015067	0.010271	-0.004048	37.440626	-86.456330	110.205189
22158	9.749440	0.401891	0.506808	-0.009310	0.010625	-0.002711	37.439143	-86.453159	110.200890
22159	9.765435	0.375126	0.446281	-0.009617	0.010301	0.001110	37.460846	-86.451122	110.168893
22160	9.763544	0.354728	0.475333	-0.005215	0.015400	-0.002564	37.433997	-86.445830	110.192358
22161	9.778598	0.338985	0.487573	0.001977	0.013466	0.000969	37.384664	-86.443415	110.255633
22162	9.748285	0.370561	0.467275	0.006852	0.014634	0.000508	37.346562	-86.439542	110.297307
22163	9.767031	0.395628	0.423790	0.007634	0.011026	-0.000100	37.393364	-86.435579	110.245344
22164	9.792872	0.418309	0.421706	0.004275	0.010027	-0.000261	37.385431	-86.433530	110.255305
22165	9.787282	0.357097	0.506035	0.009150	0.011194	-0.000721	37.451447	-86.428500	110.199799
22166	9.772110	0.372972	0.496179	0.008189	0.009551	0.000296	37.444730	-86.426851	110.210782
22167	9.784688	0.431890	0.455300	0.002987	0.007723	-0.000646	37.503769	-86.427960	110.146514
22168	9.773872	0.393522	0.470154	0.003722	0.011500	-0.000660	37.490725	-86.425105	110.161272
22169	9.773828	0.393584	0.471007	0.003541	0.006249	-0.000249	37.547446	-86.423002	110.096642
22170	9.757819	0.378075	0.416380	-0.002034	0.011145	-0.002000	37.542951	-86.419833	110.099527
22171	9.739776	0.384684	0.506628	-0.001252	0.007537	-0.002607	37.610097	-86.420570	110.034581
22172	9.739725	0.385000	0.507378	0.001781	0.007875	-0.003848	37.639581	-86.418252	110.005612
22173	9.736963	0.333614	0.491371	0.004260	0.009687	-0.005486	37.695741	-86.413169	109.951132
22174	9.739596	0.386092	0.509019	0.009918	0.007247	-0.006551	37.752870	-86.410179	109.899134
22175	9.762729	0.357531	0.489765	0.008401	0.007078	-0.005931	37.840138	-86.407219	109.807208
22176	9.754579	0.371501	0.521453	0.012823	0.012513	-0.004381	37.853737	-86.402602	109.800491
22177	9.741266	0.408255	0.483734	0.015675	0.007600	-0.005210	37.933702	-86.399693	109.737009
22178	9.790286	0.402233	0.461573	0.011535	0.010209	-0.004766	37.962217	-86.395981	109.714607
22179	9.743018	0.429745	0.457454	0.012870	0.005128	-0.004974	38.031640	-86.396555	109.670055
22180	9.775864	0.450491	0.496655	0.005142	0.008871	-0.003690	38.056195	-86.393834	109.647957
22181	9.749930	0.428245	0.500464	0.003853	0.006568	-0.004073	38.148620	-86.392081	109.562562
22182	9.751755	0.449046	0.473323	-0.001577	0.006874	-0.004014	38.182982	-86.390143	109.526779
22183	9.725837	0.426642	0.476994	0.001699	0.005418	-0.001033	38.217593	-86.388088	109.504505
22184	9.733896	0.413428	0.447011	-0.002359	0.010480	-0.003409	38.226918	-86.384731	109.493360
22185	9.732742	0.424794	0.520178	-0.002540	0.005231	-0.002996	38.306532	-86.382812	109.403548
22186	9.759683	0.436596	0.445413	-0.004839	0.008669	-0.001772	38.313022	-86.380845	109.393818
22187	9.766629	0.434434	0.487953	-0.007235	0.009312	-0.002953	38.332984	-86.377704	109.382493
22188	9.750711	0.418895	0.433261	-0.001889	0.006553	-0.000192	38.341835	-86.377248	109.372092
22189	9.772012	0.369388	0.441974	0.000038	0.009837	-0.002229	38.320287	-86.372729	109.406914
22190	9.763841	0.383010	0.473618	0.000592	0.008364	-0.001830	38.331842	-86.370870	109.395231
22191	9.744895	0.358087	0.519306	0.005566	0.012326	0.000119	38.344126	-86.368292	109.389597
22192	9.772606	0.401062	0.489677	0.004374	0.012818	0.002140	38.304924	-86.365844	109.430945
22193	9.731574	0.394244	0.482798	0.004181	0.007228	-0.002670	38.369210	-86.366879	109.374122
22194	9.770598	0.380924	0.519375	0.008602	0.012663	-0.001120	38.356476	-86.363356	109.391381
22195	9.783212	0.439833	0.478808	0.009480	0.011851	0.000681	38.345162	-86.359793	109.415868
22196	9.768048	0.455702	0.469101	0.004689	0.013136	-0.001684	38.331599	-86.355852	109.431712
22197	9.778759	0.494262	0.456412	0.001655	0.012798	-0.000446	38.311277	-86.351990	109.452523
22198	9.752815	0.471628	0.460830	-0.002486	0.015405	-0.000008	38.269196	-86.347621	109.492825
22199	9.752759	0.471495	0.462157	-0.000502	0.011648	0.002592	38.252272	-86.343465	109.516112
22200	9.776660	0.473618	0.488204	-0.005845	0.014406	-0.000173	38.215213	-86.339475	109.549452
22201	9.748794	0.430164	0.520533	-0.005187	0.016068	0.007854	38.126006	-86.339670	109.643077
22202	9.758837	0.436630	0.463540	-0.007037	0.014897	0.001846	38.071509	-86.336177	109.693212
22203	9.741758	0.431634	0.481860	-0.001923	0.014272	0.005614	37.965177	-86.331655	109.821972
22204	9.771894	0.399408	0.504998	-0.004405	0.012461	0.007250	37.887592	-86.331146	109.896757
22205	9.774477	0.450565	0.523169	-0.001597	0.014931	0.007016	37.820273	-86.326749	109.962764
22206	9.780659	0.416056	0.521672	-0.008869	0.014407	0.006283	37.736503	-86.324996	110.041182
22207	9.718344	0.458106	0.507130	-0.005922	0.012291	0.007867	37.624271	-86.325470	110.159011
22208	9.750432	0.445989	0.502566	-0.011255	0.015389	0.010321	37.505158	-86.324667	110.271479
22209	9.750408	0.445109	0.503808	-0.009053	0.009159	0.006696	37.457940	-86.325283	110.319827
22210	9.773655	0.414972	0.485138	-0.019491	0.013223	0.010603	37.343883	-86.325543	110.422503
22211	9.773632	0.413992	0.486422	-0.014709	0.011596	0.007748	37.274702	-86.324495	110.485622
22212	9.747712	0.390374	0.490571	-0.013508	0.011443	0.010951	37.171216	-86.325665	110.581141
22213	9.747698	0.389173	0.491813	-0.009823	0.013099	0.012521	37.108324	-86.325972	110.639305
22214	9.797495	0.412752	0.515099	-0.007014	0.015568	0.012290	36.977004	-86.325696	110.766444
22215	9.782418	0.427430	0.505527	-0.006559	0.011303	0.010284	36.942212	-86.325912	110.795250
22216	9.756487	0.403650	0.509741	-0.006461	0.014094	0.012689	36.816483	-86.326424	110.917104
22217	9.773544	0.406884	0.494145	-0.008395	0.010811	0.014720	36.708215	-86.327182	111.020191
22218	9.758500	0.421450	0.484239	-0.000577	0.009522	0.010635	36.624872	-86.329056	111.102949
22219	9.739408	0.395166	0.529816	-0.002965	0.010502	0.014672	36.446854	-86.332921	111.312240
22220	9.738768	0.362414	0.486135	-0.005130	0.009015	0.012483	36.349740	-86.335637	111.406191
22221	9.747629	0.379261	0.500841	-0.003386	0.007052	0.010864	36.255946	-86.340054	111.523371
22222	9.762669	0.362282	0.512494	-0.003061	0.007710	0.012266	36.168061	-86.343288	111.609268
22223	9.762674	0.361069	0.513258	-0.003061	0.007710	0.012266	36.144181	-86.345070	111.621854
22224	9.779744	0.364509	0.497412	-0.004710	0.012127	0.011067	36.040740	-86.345837	111.722391
22225	9.773563	0.397342	0.501479	0.002463	0.009854	0.009403	36.012656	-86.344835	111.743068
22226	9.740800	0.376386	0.463709	-0.005682	0.010152	0.006859	35.949763	-86.345081	111.802413
22227	9.773522	0.395773	0.503509	-0.005357	0.010810	0.008261	35.877716	-86.345706	111.876254
22228	9.767357	0.428759	0.507322	-0.005551	0.005565	0.008673	35.825742	-86.348684	111.924736
22229	9.743474	0.425594	0.483455	-0.012203	0.013740	0.011324	35.685195	-86.346379	112.054936
22230	9.754401	0.462986	0.470850	-0.015662	0.009956	0.008747	35.603613	-86.347316	112.127280
22231	9.774920	0.380888	0.435273	-0.022831	0.012228	0.010407	35.543169	-86.348644	112.173778
22232	9.717481	0.399761	0.489862	-0.014463	0.009797	0.011950	35.439746	-86.350714	112.268698
22233	9.760544	0.425624	0.471207	-0.022925	0.009770	0.013221	35.392711	-86.351320	112.293729
22234	9.758448	0.403960	0.499931	-0.020536	0.008791	0.009186	35.311421	-86.352923	112.362983
22235	9.771334	0.366465	0.539642	-0.021952	0.011408	0.012205	35.276064	-86.353236	112.374479
22236	9.764558	0.367783	0.499161	-0.011971	0.011601	0.010321	35.176994	-86.353885	112.466465
22237	9.796634	0.355358	0.494599	-0.010352	0.014556	0.012112	35.072527	-86.354489	112.571436
22238	9.753512	0.326867	0.515835	-0.008733	0.017509	0.013903	34.918457	-86.353523	112.720397
22239	9.766600	0.384429	0.475974	-0.004600	0.014899	0.013473	34.796555	-86.354600	112.853493
22240	9.734484	0.394479	0.483205	-0.010125	0.012424	0.011106	34.688489	-86.355077	112.955560
22241	9.734467	0.393333	0.484480	-0.015550	0.012736	0.011144	34.617032	-86.355653	113.017840
22242	9.775427	0.398830	0.493605	-0.010324	0.007179	0.011513	34.532667	-86.358719	113.096047
22243	9.805985	0.397301	0.560946	-0.016944	0.007652	0.008346	34.512608	-86.361472	113.101419
22244	9.808130	0.416974	0.534026	-0.024535	0.006483	0.006191	34.463146	-86.363137	113.136496
22245	9.802025	0.450029	0.537793	-0.022144	0.005833	0.007379	34.438137	-86.364797	113.149304
22246	9.768703	0.397967	0.455052	-0.025301	0.010083	0.006794	34.365418	-86.364951	113.207245
22247	9.766525	0.376526	0.483783	-0.018681	0.009607	0.009962	34.292827	-86.365096	113.269352
22248	9.717287	0.382317	0.507324	-0.021170	0.007472	0.006364	34.238962	-86.366334	113.310774
22249	9.748235	0.476291	0.494792	-0.032663	0.007108	0.008849	34.216626	-86.368750	113.307780
22250	9.763790	0.490856	0.551288	-0.047191	0.005761	0.002116	34.188376	-86.369430	113.308598
22251	9.776532	0.454088	0.590722	-0.068877	0.006681	-0.002968	34.189261	-86.368838	113.280933
22252	9.814070	0.377614	0.537887	-0.081227	0.007124	-0.002295	34.167537	-86.367456	113.255676
22253	9.779146	0.336959	0.527675	-0.071141	0.010093	-0.001761	34.123624	-86.363979	113.259419
22254	9.753085	0.314015	0.531657	-0.064740	0.011734	0.002412	34.052833	-86.361921	113.292794
22255	9.755201	0.334230	0.505648	-0.061819	0.016659	-0.000616	34.022947	-86.351797	113.275987
22256	9.742368	0.370407	0.468985	-0.052814	0.015525	0.003743	33.930366	-86.348342	113.338041
22257	9.740657	0.380618	0.543202	-0.063641	0.015513	-0.006643	33.921380	-86.341522	113.314314
22258	9.757702	0.385344	0.528381	-0.067758	0.018417	-0.000997	33.841336	-86.335171	113.355229
22259	9.755368	0.364532	0.558324	-0.083468	0.024913	-0.005123	33.753518	-86.322421	113.392571
22260	9.728659	0.311056	0.518860	-0.093535	0.029279	-0.005071	33.635788	-86.309584	113.456450
22261	9.726271	0.290405	0.549428	-0.095677	0.027788	-0.007288	33.541174	-86.293548	113.500254
22262	9.684657	0.253164	0.498929	-0.094568	0.024824	-0.006515	33.456335	-86.282357	113.530582
22263	9.753702	0.303434	0.479642	-0.085116	0.019137	-0.009402	33.443394	-86.270887	113.486235
22264	9.777356	0.305771	0.506556	-0.077407	0.015403	-0.010665	33.444755	-86.262881	113.440034
22265	9.809362	0.295086	0.502428	-0.071341	0.016388	-0.007880	33.472401	-86.252019	113.350233
22266	9.762214	0.322691	0.499182	-0.057042	0.012184	-0.005953	33.466469	-86.247027	113.323030
22267	9.786333	0.355490	0.570838	-0.056929	0.014655	-0.008755	33.511376	-86.240125	113.240393
22268	9.809539	0.326993	0.552111	-0.053455	0.011051	-0.006785	33.518980	-86.235411	113.201685
22269	9.754009	0.367453	0.579745	-0.047516	0.016639	-0.005769	33.463980	-86.225882	113.232861
22270	9.712097	0.300110	0.482812	-0.039617	0.018167	-0.007394	33.449640	-86.217569	113.224088
22271	9.731239	0.260452	0.564158	-0.032895	0.012802	-0.007652	33.470088	-86.206792	113.180484
22272	9.739123	0.217384	0.489479	-0.021340	0.016265	-0.002442	33.439554	-86.200934	113.198433
22273	9.747839	0.235473	0.505234	-0.014834	0.012738	-0.006902	33.479839	-86.193352	113.140518
22274	9.791335	0.294105	0.532818	-0.007591	0.013266	-0.006115	33.497834	-86.187759	113.117724
22275	9.776699	0.341360	0.568608	-0.002503	0.012326	-0.007541	33.534747	-86.178509	113.077720
22276	9.787643	0.380680	0.557025	-0.006843	0.017035	-0.006092	33.534995	-86.171110	113.073140
22277	9.774858	0.418228	0.520690	-0.005008	0.017857	-0.005288	33.528455	-86.160042	113.077657
22278	9.753673	0.468431	0.515160	-0.008464	0.014376	-0.002694	33.516129	-86.154975	113.084745
22279	9.770791	0.473668	0.499895	-0.005210	0.012614	-0.004923	33.550698	-86.148103	113.037623
22280	9.761930	0.456135	0.487055	-0.009882	0.016959	0.000339	33.503996	-86.142756	113.078351
22281	9.776794	0.439834	0.499288	-0.009447	0.013005	0.003524	33.416325	-86.138174	113.177022
22282	9.776735	0.439463	0.500774	-0.015940	0.016244	0.002755	33.352516	-86.133915	113.231418
22283	9.780541	0.384282	0.525948	-0.007069	0.012354	0.004719	33.272794	-86.127100	113.324117
22284	9.772054	0.396518	0.558048	-0.000800	0.011232	0.006507	33.214551	-86.126395	113.381626
22285	9.733409	0.410394	0.523258	0.000939	0.009293	0.004883	33.188734	-86.122567	113.407368
22286	9.774295	0.416566	0.532462	0.004735	0.006059	0.003047	33.182180	-86.123240	113.416247
22287	9.786881	0.379010	0.571366	0.004926	0.011583	0.007905	33.119560	-86.120479	113.479535
22288	9.771942	0.394353	0.561537	0.009585	0.007520	0.007869	33.074887	-86.121951	113.529403
22289	9.782722	0.401597	0.503722	0.017801	0.002622	0.012239	33.040068	-86.125983	113.568057
22290	9.789207	0.397194	0.545731	0.008279	0.005506	0.012676	32.969706	-86.129914	113.642922
22291	9.771994	0.391247	0.562811	0.010991	0.005216	0.010058	32.958754	-86.131302	113.649789
22292	9.739880	0.401481	0.568936	0.008726	0.001270	0.010638	32.922611	-86.136623	113.690613
22293	9.752490	0.363549	0.607113	0.004516	0.001098	0.008635	32.920284	-86.140622	113.696370
22294	9.767094	0.316090	0.572682	0.008408	0.000625	0.009228	32.896912	-86.145810	113.724212
22295	9.749564	0.279857	0.543968	0.008631	-0.001493	0.008209	32.878206	-86.151724	113.752748
22296	9.743463	0.313099	0.547500	0.011773	0.001340	0.004206	32.889205	-86.155004	113.748075
22297	9.758371	0.296763	0.558251	0.013511	-0.000601	0.002584	32.961937	-86.156631	113.670467
22298	9.757267	0.402900	0.552107	0.019142	-0.003016	0.001555	33.016596	-86.161171	113.626265
22299	9.766081	0.420475	0.565989	0.011246	-0.004546	0.003165	33.041063	-86.166813	113.621230
22300	9.762338	0.474959	0.541650	0.007896	-0.005545	0.002964	33.091108	-86.173003	113.575196
22301	9.771169	0.492387	0.555402	0.000973	-0.005425	0.003579	33.196842	-86.177556	113.456387
22302	9.779656	0.479011	0.524156	-0.002502	-0.001542	0.006822	33.194962	-86.183024	113.456425
22303	9.768576	0.439798	0.536990	-0.011900	-0.003533	0.003815	33.224791	-86.186248	113.425820
22304	9.736144	0.419998	0.497138	-0.012651	-0.007302	0.003792	33.266142	-86.193516	113.376704
22305	9.751091	0.403321	0.507427	-0.016125	-0.003420	0.007036	33.287426	-86.199328	113.341958
22306	9.763710	0.365475	0.545176	-0.017097	-0.005071	0.008030	33.285381	-86.206857	113.333781
22307	9.772543	0.382499	0.559275	-0.028661	-0.001167	0.003458	33.312769	-86.209236	113.296916
22308	9.761077	0.312813	0.526924	-0.029953	-0.003464	0.003042	33.331945	-86.214418	113.260092
22309	9.752302	0.294606	0.512497	-0.026823	-0.000349	0.004261	33.326297	-86.217109	113.253890
22310	9.741190	0.255378	0.525484	-0.017524	-0.001122	0.004842	33.328452	-86.221732	113.241261
22311	9.769930	0.329059	0.541113	-0.004544	-0.000533	0.001811	33.397964	-86.221163	113.154576
22312	9.731726	0.373683	0.550593	-0.014174	-0.000124	0.005043	33.396035	-86.225358	113.147961
22313	9.772669	0.379892	0.558844	-0.011341	-0.005291	-0.001023	33.462044	-86.224837	113.086430
22314	9.763893	0.362207	0.544078	-0.022152	-0.004697	-0.001000	33.521362	-86.229288	113.013849
22315	9.772340	0.349422	0.512721	-0.023986	-0.005519	-0.001807	33.574903	-86.230112	112.945441
22316	9.776118	0.294877	0.536048	-0.029599	-0.003385	-0.005999	33.660004	-86.232328	112.842741
22317	9.700754	0.279115	0.560432	-0.027861	-0.005325	-0.007625	33.770223	-86.234747	112.722151
22318	9.784930	0.313662	0.549583	-0.031207	-0.006326	-0.007829	33.882153	-86.237755	112.591643
22319	9.752420	0.295196	0.509907	-0.032179	-0.000897	-0.011400	33.997868	-86.237849	112.459969
22320	9.763506	0.334760	0.497004	-0.027967	-0.000730	-0.009399	34.095910	-86.237665	112.345242
22321	9.733302	0.337490	0.430064	-0.016714	-0.005552	-0.011465	34.257838	-86.238186	112.170448
22322	9.765790	0.357479	0.469093	-0.018781	-0.003984	-0.006028	34.352940	-86.240595	112.063942
22323	9.756984	0.340605	0.454385	-0.017254	-0.004079	-0.011855	34.481664	-86.238450	111.930922
22324	9.754651	0.320595	0.481488	-0.018018	-0.000490	-0.011221	34.597287	-86.237485	111.804286
22325	9.735110	0.295610	0.525190	-0.010016	-0.003551	-0.011060	34.735761	-86.232593	111.643605
22326	9.737751	0.348222	0.542986	-0.011197	-0.003362	-0.014270	34.891072	-86.231924	111.481102
22327	9.810774	0.344904	0.545128	-0.012487	-0.005659	-0.014690	35.057114	-86.231478	111.324489
22328	9.806540	0.370650	0.475912	-0.000294	-0.001187	-0.011859	35.190511	-86.230523	111.190210
22329	9.800357	0.405592	0.479578	0.011802	0.000527	-0.011462	35.319139	-86.227553	111.068985
22330	9.824390	0.474637	0.381087	0.021625	-0.001436	-0.005269	35.419464	-86.228858	110.980434
22331	9.807155	0.470299	0.397552	0.024430	0.001040	-0.005454	35.473501	-86.226200	110.954502
22332	9.792552	0.517194	0.432397	0.017929	0.004551	-0.000996	35.511157	-86.226112	110.926629
22333	9.789893	0.465859	0.414814	0.012302	0.006958	0.000038	35.512707	-86.225981	110.943246
22334	9.750529	0.383423	0.457822	0.007761	0.006418	0.001848	35.514945	-86.225970	110.945032
22335	9.771557	0.333692	0.465635	0.013383	0.011094	-0.003746	35.558533	-86.219444	110.898804
22336	9.754298	0.329034	0.482953	0.025169	0.005081	-0.000200	35.591992	-86.219366	110.879292
22337	9.786758	0.348226	0.522671	0.029270	0.002768	0.004594	35.612234	-86.221609	110.872601
22338	9.780593	0.381963	0.526668	0.030034	0.006259	-0.000602	35.645373	-86.220845	110.856205
22339	9.791630	0.420900	0.514153	0.032093	0.004963	-0.000818	35.697050	-86.218271	110.820207
22340	9.800042	0.408270	0.483726	0.028299	0.008193	0.001019	35.707988	-86.217140	110.825060
22341	9.776637	0.437191	0.504666	0.024410	0.008663	0.000425	35.739623	-86.217573	110.806725
22342	9.782420	0.372898	0.456673	0.020615	0.011895	0.002262	35.718724	-86.215141	110.839078
22343	9.750240	0.384004	0.463453	0.022898	0.008482	0.001028	35.736168	-86.213653	110.830012
22344	9.756355	0.350138	0.460590	0.027109	0.008654	0.003030	35.730017	-86.212984	110.851313
22345	9.771238	0.333757	0.472226	0.034447	0.011943	0.006253	35.652568	-86.213781	110.970870
22346	9.745196	0.310903	0.475633	0.034242	0.013775	0.002046	35.631478	-86.210402	111.011244
22347	9.751584	0.307650	0.518462	0.048952	0.012710	0.002616	35.618234	-86.207045	111.054824
22348	9.777521	0.330289	0.517279	0.050473	0.012883	0.002009	35.611262	-86.204065	111.090368
22349	9.762554	0.346374	0.507632	0.052313	0.013701	0.002810	35.589887	-86.201203	111.149008
22350	9.758677	0.401219	0.484932	0.051139	0.013877	-0.000404	35.595268	-86.196954	111.172554
22351	9.741654	0.427263	0.547682	0.043468	0.010225	0.000187	35.654171	-86.194799	111.133375
22352	9.782201	0.403555	0.512208	0.023892	0.017183	-0.004567	35.656570	-86.187623	111.144268
22353	9.756109	0.381653	0.515758	0.028459	0.010352	-0.007020	35.695732	-86.182027	111.137205
22354	9.762420	0.379354	0.558629	0.009085	0.015483	-0.007569	35.718943	-86.174636	111.118738
22355	9.794206	0.338360	0.509211	0.013635	0.016011	-0.009381	35.761407	-86.167111	111.095846
22356	9.770682	0.368271	0.530809	0.015471	0.016833	-0.008577	35.788327	-86.158754	111.077331
22357	9.744345	0.315838	0.489605	0.017308	0.017655	-0.007773	35.804311	-86.149893	111.073070
22358	9.740865	0.432764	0.557317	0.025864	0.013117	-0.007203	35.846002	-86.143721	111.045718
22359	9.760355	0.459554	0.514626	0.010627	0.015360	-0.013402	35.923433	-86.134281	110.974518
22360	9.777491	0.465575	0.499315	0.018303	0.011942	-0.009409	35.981478	-86.127906	110.926433
22361	9.775017	0.445819	0.527949	0.002726	0.013830	-0.011795	35.999932	-86.119408	110.928155
22362	9.766192	0.428854	0.514933	0.012870	0.012532	-0.004179	36.015824	-86.114517	110.919197
22363	9.751388	0.476198	0.550121	0.018733	0.007997	-0.006213	36.026983	-86.109562	110.924311
22364	9.783641	0.496492	0.590260	0.009427	0.008765	-0.006803	36.077210	-86.105525	110.878954
22365	9.763617	0.410046	0.544665	0.014090	0.004701	-0.006824	36.110308	-86.104203	110.874629
22366	9.789538	0.433233	0.542939	0.001840	0.007885	-0.003788	36.139791	-86.101590	110.845707
22367	9.746080	0.375643	0.517370	0.007819	0.005820	-0.008622	36.263627	-86.097946	110.714645
22368	9.778189	0.365256	0.512231	0.006618	0.006292	-0.006610	36.322837	-86.095104	110.658675
22369	9.745815	0.346448	0.473477	0.007277	0.007291	-0.009018	36.375366	-86.090724	110.618249
22370	9.795336	0.371647	0.496880	0.014409	0.005349	-0.005416	36.435422	-86.088714	110.565902
22371	9.739654	0.412494	0.522719	0.016921	-0.000186	-0.007648	36.535720	-86.088926	110.489390
22372	9.774165	0.423031	0.489389	0.017148	-0.002306	-0.008661	36.657298	-86.089318	110.376954
22373	9.780476	0.420965	0.530792	0.017149	-0.002307	-0.008661	36.757603	-86.089475	110.292782
22374	9.763187	0.416807	0.547232	0.021769	0.001288	-0.002829	36.824596	-86.090192	110.237709
22375	9.776583	0.476699	0.506535	0.026867	0.000342	-0.004244	36.905611	-86.090166	110.170044
22376	9.791482	0.461055	0.517310	0.025009	-0.000183	0.000175	36.961759	-86.092579	110.127701
22377	9.726995	0.452816	0.483577	0.023290	0.001460	-0.003435	37.016765	-86.092931	110.091402
22378	9.770329	0.511532	0.509685	0.018420	0.000284	-0.003032	37.088282	-86.094017	110.029869
22379	9.723108	0.508005	0.459486	0.015474	0.002703	0.000593	37.142615	-86.096315	109.992164
22380	9.772667	0.532530	0.482369	0.008768	0.000703	0.000193	37.185021	-86.098320	109.954272
22381	9.750565	0.455063	0.509014	0.001267	0.002599	0.005630	37.189007	-86.101308	109.953114
22382	9.744343	0.488598	0.512741	-0.005209	0.005534	-0.000381	37.202774	-86.100908	109.935903
22383	9.771665	0.404867	0.517341	-0.000885	0.001124	0.003419	37.241626	-86.103618	109.893576
22384	9.760607	0.365860	0.530878	-0.003172	0.004541	0.004636	37.228076	-86.105408	109.904918
22385	9.784085	0.336354	0.511376	0.004620	0.003598	0.005830	37.194343	-86.109345	109.960447
22386	9.763078	0.416647	0.549285	0.007773	0.006414	0.001817	37.196322	-86.109306	109.962513
22387	9.795247	0.405204	0.543954	0.010261	0.001180	0.004814	37.231630	-86.112712	109.933352
22388	9.780341	0.420657	0.533508	0.010559	0.009187	0.006842	37.187372	-86.113149	109.983365
22389	9.735630	0.467961	0.501509	0.009267	0.006891	0.006436	37.195504	-86.113703	109.968078
22390	9.724546	0.428888	0.515377	0.010469	0.006416	0.004425	37.181647	-86.114564	109.987571
22391	9.715726	0.379717	0.456754	0.010786	0.007065	0.005832	37.159020	-86.115790	110.022092
22392	9.722012	0.376560	0.499169	0.010270	0.008232	0.000211	37.164113	-86.114363	110.022478
22393	9.745580	0.378329	0.524773	0.009403	0.002000	0.003009	37.201981	-86.116060	109.984467
22394	9.762859	0.382919	0.508399	0.007025	0.002646	0.001807	37.223019	-86.117732	109.967010
22395	9.754168	0.364845	0.494275	0.013843	0.000056	0.004005	37.239041	-86.122136	109.973403
22396	9.777864	0.397372	0.564588	0.012216	0.004468	0.002810	37.246986	-86.123327	109.972053
22397	9.776442	0.472542	0.513122	0.019377	0.002222	0.001192	37.312924	-86.124473	109.908312
22398	9.759157	0.467757	0.529736	0.012668	0.000226	0.000792	37.356573	-86.126893	109.871437
22399	9.776452	0.472259	0.513184	0.015997	0.001529	0.006214	37.383304	-86.131031	109.856864
22400	9.770276	0.505547	0.516620	0.010039	0.003299	0.005821	37.375911	-86.133800	109.869643
22401	9.729318	0.467450	0.463153	0.002035	-0.000990	0.005018	37.437170	-86.138344	109.807318
22402	9.776406	0.439677	0.468465	0.006024	0.001307	0.008031	37.422983	-86.142789	109.824609
22403	9.756744	0.413428	0.512763	0.007318	0.003602	0.008435	37.429243	-86.147260	109.828031
22404	9.761570	0.454158	0.457909	0.005707	0.000657	0.006624	37.427792	-86.151514	109.832383
22405	9.727025	0.444031	0.491049	0.002352	-0.000340	0.006424	37.500079	-86.157790	109.764573
22406	9.724645	0.422723	0.518597	0.001810	0.001131	0.006025	37.498228	-86.161624	109.767102
22407	9.780304	0.381603	0.493336	-0.000277	0.002735	0.011452	37.461071	-86.167848	109.816999
22408	9.777800	0.328987	0.476055	-0.002747	0.000611	0.007836	37.446972	-86.172552	109.829192
22409	9.719776	0.347977	0.529122	0.006368	0.001649	0.004214	37.434732	-86.175168	109.848296
22410	9.730765	0.355342	0.471134	0.009842	0.005109	0.001606	37.446694	-86.175654	109.841596
22411	9.728339	0.334420	0.499047	0.014599	0.003814	0.004009	37.452583	-86.179126	109.861748
22412	9.750582	0.411300	0.472607	0.016343	0.001865	0.002398	37.479812	-86.181367	109.843486
22413	9.782876	0.430845	0.511983	0.015366	0.000221	0.003400	37.499812	-86.185320	109.841929
22414	9.776716	0.464432	0.515298	0.005510	0.002469	0.002408	37.517614	-86.187291	109.826896
22415	9.774297	0.443601	0.542933	-0.001519	-0.000172	0.000604	37.571367	-86.190210	109.777270
22416	9.733427	0.436798	0.534453	0.003990	0.002297	0.003012	37.585166	-86.192470	109.765380
22417	9.733303	0.405609	0.489723	0.007029	0.002642	0.001804	37.623748	-86.193849	109.729488
22418	9.748178	0.389370	0.500837	0.010267	0.001173	0.004812	37.634846	-86.197247	109.723913
22419	9.739482	0.371057	0.486764	0.012104	0.001996	0.005614	37.637279	-86.201460	109.740583
22420	9.748198	0.388600	0.501039	0.012989	0.000866	0.002198	37.669438	-86.204083	109.715467
22421	9.756905	0.406352	0.515357	0.008550	0.002813	0.001200	37.704779	-86.207087	109.703556
22422	9.771640	0.359267	0.481700	0.004969	0.003940	0.002007	37.717479	-86.208253	109.693344
22423	9.750592	0.409011	0.474378	0.001732	0.005407	-0.001001	37.749975	-86.207542	109.661027
22424	9.776578	0.431797	0.472200	0.008140	-0.000611	-0.002619	37.820237	-86.209144	109.594948
22425	9.791557	0.446987	0.528122	-0.002061	0.001299	0.000204	37.851733	-86.211536	109.571863
22426	9.785272	0.449648	0.486671	-0.001969	0.004071	0.002616	37.855638	-86.212856	109.566485
22427	9.744386	0.442839	0.478535	-0.002827	0.004891	0.000810	37.861032	-86.212788	109.557179
22428	9.776535	0.431458	0.473394	-0.000449	0.004243	0.002012	37.868995	-86.213816	109.548606
22429	9.744360	0.442393	0.479470	0.001705	0.005717	0.004221	37.846717	-86.215409	109.579855
22430	9.759107	0.394956	0.446057	-0.001334	0.005373	0.005428	37.824760	-86.217128	109.600759
22431	9.733073	0.372043	0.449283	0.002579	0.011944	0.001414	37.801890	-86.215208	109.635394
22432	9.733150	0.402824	0.495026	-0.000131	0.004894	0.003418	37.796905	-86.216439	109.639985
22433	9.747996	0.386598	0.506494	0.002908	0.005238	0.002211	37.825682	-86.217363	109.615697
22434	9.756577	0.373350	0.476223	0.004111	0.004759	0.000202	37.845924	-86.217526	109.597446
22435	9.747957	0.386434	0.507363	-0.002285	0.003420	0.001209	37.857766	-86.217819	109.575562
22436	9.788812	0.392960	0.516316	-0.000765	0.003592	0.000606	37.878633	-86.218648	109.553881
22437	9.759078	0.424834	0.494735	-0.004663	0.004069	0.000006	37.975542	-86.220094	109.461703
22438	9.791209	0.413691	0.489764	-0.006604	0.007830	-0.002600	37.992582	-86.217878	109.440521
22439	9.750300	0.407193	0.481887	-0.014520	0.006319	-0.000991	38.006294	-86.217716	109.429213
22440	9.724345	0.415684	0.529802	-0.010939	0.005192	-0.001797	38.029414	-86.216975	109.399453
22441	9.762623	0.370695	0.521810	-0.013765	0.010082	-0.000988	38.053671	-86.214431	109.368390
22442	9.739098	0.399965	0.542442	-0.015693	0.006488	-0.004205	38.083595	-86.212254	109.329088
22443	9.735271	0.423872	0.473819	-0.012112	0.005361	-0.005011	38.121226	-86.211186	109.296085
22444	9.767406	0.412968	0.468665	-0.014069	0.002075	-0.003006	38.167413	-86.211420	109.241419
22445	9.761215	0.447100	0.472198	-0.014926	0.002895	-0.004812	38.237667	-86.210381	109.158571
22446	9.778507	0.452089	0.455908	-0.020463	0.000734	-0.002003	38.280594	-86.211566	109.103502
22447	9.787167	0.470263	0.470448	-0.021199	0.004017	-0.006618	38.322948	-86.209048	109.043252
22448	9.766030	0.489621	0.418284	-0.019362	0.004839	-0.005814	38.370261	-86.207026	108.984416
22449	9.787069	0.471092	0.471658	-0.029560	0.006741	-0.002999	38.382173	-86.204283	108.946411
22450	9.752328	0.431026	0.460463	-0.021736	0.005486	-0.007019	38.432686	-86.201536	108.883001
22451	9.760963	0.449244	0.475374	-0.024142	0.006437	-0.003002	38.460999	-86.199906	108.843468
22452	9.764621	0.394969	0.500433	-0.025538	0.008728	-0.005208	38.479606	-86.196346	108.809855
22453	9.738559	0.372749	0.503633	-0.028891	0.007730	-0.005412	38.491979	-86.193104	108.783043
22454	9.695183	0.345728	0.523273	-0.024994	0.007254	-0.004811	38.515990	-86.190344	108.744324
22455	9.744622	0.339846	0.501948	-0.019232	0.007301	-0.008626	38.587808	-86.185523	108.652615
22456	9.808895	0.287181	0.446606	-0.011350	0.009121	-0.005004	38.610813	-86.181853	108.622739
22457	9.781592	0.340597	0.397995	-0.004823	0.005580	-0.009428	38.711677	-86.178196	108.518630
22458	9.807531	0.364027	0.396357	0.011510	0.007451	-0.007006	38.769988	-86.174549	108.466500
22459	9.809959	0.416285	0.414493	0.012908	0.005159	-0.004802	38.845272	-86.173341	108.405228
22460	9.818578	0.465386	0.474506	0.010397	0.010693	-0.002581	38.855897	-86.169832	108.400258
22461	9.788801	0.497680	0.453561	0.008563	0.009869	-0.003388	38.899037	-86.166408	108.361628
22462	9.771410	0.493030	0.471232	0.005388	0.014408	0.001239	38.861455	-86.162616	108.402101
22463	9.754033	0.457325	0.444002	0.005614	0.012288	0.000230	38.849175	-86.159297	108.417072
22464	9.786138	0.477014	0.484828	0.006368	0.016052	0.000238	38.810152	-86.154409	108.459553
22465	9.751426	0.436334	0.474359	0.011750	0.016055	0.005464	38.760930	-86.151034	108.511473
22466	9.727861	0.434138	0.450728	0.008520	0.017522	0.002451	38.700874	-86.146276	108.576273
22467	9.766141	0.419654	0.488656	0.007631	0.018646	0.005866	38.603548	-86.142283	108.681877
22468	9.740071	0.396525	0.492809	0.010446	0.021112	0.005672	38.504548	-86.137053	108.786816
22469	9.787031	0.368793	0.500118	0.015423	0.017697	0.007077	38.404314	-86.134658	108.908666
22470	9.763464	0.366417	0.476890	0.018139	0.024746	0.005082	38.295004	-86.127562	109.028359
22471	9.769564	0.332037	0.475880	0.025266	0.022803	0.008701	38.203474	-86.122048	109.127200
22472	9.739831	0.363459	0.455757	0.032340	0.017785	0.004685	38.141999	-86.117921	109.207107
22473	9.789230	0.387585	0.480623	0.029518	0.022668	0.005489	38.049865	-86.111964	109.318883
22474	9.782791	0.482949	0.575517	0.029529	0.015315	0.004877	37.998672	-86.109004	109.386871
22475	9.793997	0.490304	0.518849	0.020661	0.019202	0.002858	37.939648	-86.104536	109.469814
22476	9.787731	0.523917	0.523785	0.015785	0.018033	0.003250	37.877565	-86.099768	109.540831
22477	9.746826	0.517034	0.516706	0.010369	0.018335	0.003241	37.827650	-86.094839	109.597021
22478	9.750483	0.431173	0.497891	0.012520	0.019806	0.005453	37.740335	-86.090031	109.691457
22479	9.726837	0.459847	0.519465	0.010146	0.020453	0.004244	37.665670	-86.084125	109.767558
22480	9.726778	0.459343	0.521008	0.015216	0.012458	0.007463	37.604541	-86.083336	109.837297
22481	9.770009	0.517101	0.548473	0.005051	0.014055	0.005034	37.543313	-86.080876	109.902122
22482	9.750117	0.460334	0.548777	-0.000455	0.011588	0.002612	37.509872	-86.078780	109.935109
22483	9.788438	0.415054	0.541291	-0.002290	0.010766	0.001805	37.512835	-86.078110	109.944178
22484	9.773588	0.430721	0.531361	-0.000141	0.012238	0.004018	37.467047	-86.076211	109.989731
22485	9.749967	0.459462	0.552158	-0.001976	0.011416	0.003211	37.455728	-86.075117	110.007018
22486	9.764863	0.412329	0.519461	0.000216	0.012578	0.000203	37.433818	-86.071732	110.028849
22487	9.767263	0.463688	0.537995	-0.004167	0.010252	0.006217	37.399122	-86.072741	110.075678
22488	9.758768	0.414460	0.479923	-0.010080	0.011717	0.000581	37.373272	-86.069881	110.095553
22489	9.773515	0.398150	0.492164	-0.004705	0.011721	0.005815	37.320419	-86.069269	110.152718
22490	9.715241	0.386365	0.501095	-0.013885	0.014960	0.002378	37.264177	-86.065553	110.200875
22491	9.741213	0.408633	0.500206	-0.001974	0.011414	0.003211	37.266421	-86.063682	110.195555
22492	9.755947	0.392382	0.512498	-0.006407	0.013358	0.002195	37.223938	-86.060631	110.234222
22493	9.726134	0.455000	0.536599	-0.004033	0.012710	0.003406	37.178332	-86.057163	110.264996
22494	9.752317	0.446242	0.490536	-0.004793	0.008950	0.003403	37.151013	-86.056536	110.289386
22495	9.773040	0.426924	0.544355	-0.009582	0.010553	0.006201	37.131819	-86.056743	110.308230
22496	9.752070	0.476042	0.537472	-0.009044	0.009084	0.006603	37.080268	-86.057160	110.354475
22497	9.728461	0.504580	0.557964	-0.009670	0.007785	0.003789	37.026158	-86.056598	110.400135
22498	9.760833	0.461913	0.508624	-0.010432	0.011372	0.004391	36.976977	-86.055198	110.443202
22499	9.751985	0.474414	0.540460	-0.016518	0.010683	0.006781	36.934026	-86.055518	110.483437
22500	9.758120	0.439774	0.538409	-0.016204	0.011332	0.008187	36.856594	-86.055439	110.551514
22501	9.758315	0.407928	0.494497	-0.019023	0.008869	0.008377	36.767951	-86.056328	110.630295
22502	9.723430	0.397635	0.528369	-0.016516	0.010681	0.006779	36.702882	-86.056051	110.685798
22503	9.764427	0.372503	0.493410	-0.018036	0.010508	0.007376	36.662603	-86.055427	110.707164
22504	9.732202	0.382764	0.500064	-0.014276	0.014914	0.011407	36.547058	-86.054774	110.814551
22505	9.723568	0.364074	0.486914	-0.012709	0.007437	0.004981	36.524809	-86.055797	110.834510
22506	9.772956	0.387846	0.511132	-0.011634	0.011844	0.006394	36.459475	-86.054837	110.893088
22507	9.784224	0.425771	0.499054	-0.011410	0.009726	0.005388	36.418411	-86.054538	110.929417
22508	9.783965	0.456036	0.545122	-0.014989	0.010850	0.006179	36.357536	-86.053955	110.981601
22509	9.755409	0.381210	0.530846	-0.017359	0.011499	0.004965	36.337408	-86.052965	110.993339
22510	9.758075	0.401216	0.504629	-0.018254	0.012620	0.008376	36.251371	-86.052304	111.068877
22511	9.746952	0.331191	0.474194	-0.017756	0.015430	0.001754	36.208056	-86.047858	111.099967
22512	9.741714	0.258353	0.485571	-0.008810	0.014300	0.006206	36.133882	-86.045675	111.169040
22513	9.732550	0.302035	0.562539	-0.010685	0.010417	-0.002240	36.116915	-86.043243	111.192537
22514	9.749936	0.306822	0.547416	-0.003883	0.015164	0.000605	36.078904	-86.038764	111.228191
22515	9.740986	0.319936	0.579607	-0.013812	0.014651	-0.002852	36.096975	-86.034451	111.211364
22516	9.732295	0.302515	0.566673	-0.007501	0.013225	-0.006240	36.112157	-86.028561	111.191630
22517	9.769588	0.364273	0.552686	-0.001865	0.010805	-0.007222	36.159501	-86.022712	111.136813
22518	9.823775	0.492553	0.612221	0.007440	0.010024	-0.006579	36.200911	-86.018184	111.099368
22519	9.799684	0.566509	0.536326	-0.002137	0.013219	-0.000997	36.166903	-86.014524	111.139949
22520	9.744374	0.545366	0.472516	-0.003296	0.013394	-0.004215	36.170017	-86.009238	111.134725
22521	9.782363	0.531167	0.510200	-0.010733	0.010712	0.002975	36.152054	-86.009282	111.165198
22522	9.774041	0.482208	0.452153	-0.005092	0.015635	0.002607	36.098150	-86.005267	111.216109
22523	9.730458	0.454545	0.471912	-0.008899	0.011531	0.003787	36.053600	-86.003052	111.249642
22524	9.716325	0.394824	0.513766	-0.022628	0.014256	0.002116	35.999714	-85.999504	111.290462
22525	9.754296	0.380146	0.551652	-0.017889	0.012956	0.004547	35.924543	-85.997745	111.363916
22526	9.754573	0.348936	0.507837	-0.013099	0.011359	0.001757	35.892514	-85.995415	111.388298
22527	9.775051	0.329578	0.561923	-0.002186	0.013514	0.004226	35.851996	-85.993268	111.432648
22528	9.789108	0.388510	0.522685	-0.001651	0.012044	0.004628	35.804298	-85.991581	111.479316
22529	9.767859	0.468788	0.561047	0.000095	0.010102	0.003028	35.797948	-85.989794	111.480156
22530	9.805254	0.529336	0.546840	0.001111	0.007461	0.009053	35.744472	-85.991715	111.534206
22531	9.776171	0.529839	0.480436	-0.002103	0.008933	0.006026	35.702070	-85.991629	111.571795
22532	9.755882	0.503525	0.525168	-0.015659	0.009840	0.008563	35.630819	-85.992271	111.634030
22533	9.747300	0.484904	0.511785	-0.010558	0.008890	0.007184	35.599402	-85.993237	111.661220
22534	9.777065	0.421128	0.489724	-0.012756	0.007720	0.010181	35.529125	-85.995399	111.724151
22535	9.788962	0.383281	0.529235	-0.014358	0.012126	0.008974	35.464537	-85.995842	111.787624
22536	9.754281	0.342204	0.517923	-0.005990	0.009408	0.005403	35.421934	-85.995621	111.826705
22537	9.736746	0.336758	0.535235	0.000044	0.010394	0.008250	35.375249	-85.995863	111.873038
22538	9.739530	0.356843	0.508783	0.005145	0.009444	0.006873	35.329073	-85.996108	111.922098
22539	9.771345	0.375773	0.549519	0.008189	0.009789	0.005686	35.340139	-85.995706	111.909993
22540	9.783068	0.382997	0.492433	0.007968	0.011903	0.006692	35.285261	-85.994738	111.969406
22541	9.744711	0.427605	0.502009	0.011235	0.010134	0.004500	35.279111	-85.992718	111.968981
22542	9.765112	0.408162	0.555820	0.011235	0.010133	0.004500	35.249201	-85.991847	112.005243
22543	9.767907	0.428546	0.529342	0.009713	0.009960	0.005092	35.215921	-85.991865	112.050358
22544	9.756092	0.420376	0.588350	0.007880	0.009142	0.004277	35.190263	-85.991383	112.080433
22545	9.732811	0.418147	0.563699	0.007202	0.008146	0.006680	35.199561	-85.992545	112.073916
22546	9.753138	0.443244	0.520941	0.002925	0.012558	0.002845	35.164642	-85.989990	112.110437
22547	9.741673	0.404243	0.535303	0.005382	0.014666	0.006476	35.142569	-85.986688	112.123056
22548	9.773826	0.392272	0.531525	0.005693	0.015311	0.007884	35.062848	-85.984497	112.206084
22549	9.750521	0.389881	0.507748	0.005619	0.019889	0.006081	35.016344	-85.979523	112.251044
22550	9.747587	0.368499	0.536943	0.006685	0.016951	0.006887	34.936501	-85.976222	112.334772
22551	9.765057	0.372837	0.522131	0.003919	0.014196	0.001847	34.906624	-85.972145	112.365634
22552	9.747458	0.367872	0.539702	0.006818	0.012076	0.003470	34.872559	-85.970006	112.403547
22553	9.735533	0.360004	0.599065	-0.000280	0.014029	-0.000189	34.843844	-85.966607	112.442109
22554	9.761986	0.351801	0.553287	0.003520	0.010790	-0.001974	34.850202	-85.963290	112.437608
22555	9.761482	0.382766	0.599472	0.001776	0.012732	-0.000378	34.802027	-85.959822	112.496540
22556	9.779390	0.356879	0.539306	0.002678	0.011613	-0.003786	34.816099	-85.955526	112.483817
22557	9.781760	0.408994	0.557916	0.002590	0.008853	-0.006198	34.858625	-85.951618	112.443786
22558	9.778787	0.388960	0.586245	0.003271	0.009847	-0.008602	34.913051	-85.946572	112.390950
22559	9.799141	0.415214	0.543525	-0.003354	0.010628	-0.006640	34.972465	-85.942155	112.330679
22560	9.775869	0.413918	0.518890	0.004275	0.007207	-0.002574	34.999636	-85.940322	112.305746
22561	9.777758	0.496817	0.582400	0.009305	0.010831	-0.005748	35.056956	-85.936775	112.259852
22562	9.748369	0.529314	0.560942	0.008164	0.006728	-0.001945	35.084398	-85.935374	112.236889
22563	9.783443	0.538851	0.528990	0.003904	0.006858	0.001237	35.111434	-85.935108	112.212698
22564	9.739754	0.511394	0.548014	0.000103	0.010096	0.003019	35.085932	-85.933762	112.238186
22565	9.754376	0.494967	0.560125	-0.004467	0.009581	0.004792	35.067144	-85.933212	112.254092
22566	9.784622	0.400757	0.493409	-0.000118	0.012210	0.004022	35.025183	-85.931203	112.295957
22567	9.725296	0.450673	0.591519	-0.008506	0.007597	0.006969	35.024439	-85.932807	112.290957
22568	9.734804	0.405954	0.516675	0.002407	0.009741	0.009459	34.959539	-85.933740	112.357277
22569	9.745749	0.474489	0.549671	-0.005370	0.010699	0.008198	34.901429	-85.933949	112.415283
22570	9.754776	0.460560	0.519880	-0.016433	0.006092	0.008514	34.848763	-85.936278	112.458519
22571	9.783328	0.533631	0.536351	-0.015813	0.007382	0.011329	34.797315	-85.938685	112.498106
22572	9.777974	0.459966	0.547075	-0.014200	0.010312	0.013150	34.695696	-85.940535	112.591704
22573	9.777481	0.489407	0.593234	-0.019610	0.010619	0.013108	34.577881	-85.941938	112.700885
22574	9.789471	0.495675	0.536252	-0.018768	0.009795	0.014919	34.464015	-85.944580	112.804135
22575	9.754348	0.484340	0.569812	-0.016465	0.009435	0.021359	34.327184	-85.949458	112.931362
22576	9.734342	0.425979	0.569439	-0.023025	0.009922	0.018096	34.188703	-85.953030	113.056846
22577	9.743410	0.410955	0.539758	-0.018296	0.008616	0.020539	34.063381	-85.956791	113.163399
22578	9.723380	0.352507	0.539228	-0.019817	0.008442	0.021128	33.912605	-85.961993	113.303051
22579	9.743594	0.331347	0.592969	-0.015026	0.006843	0.018353	33.824808	-85.967080	113.379382
22580	9.755635	0.337249	0.535638	-0.007781	0.007347	0.019215	33.698229	-85.972155	113.501694
22581	9.769790	0.350120	0.592433	-0.011228	0.003604	0.016571	33.633990	-85.976848	113.549991
22582	9.711955	0.306697	0.554581	-0.007961	0.001834	0.014387	33.564498	-85.982997	113.614972
22583	9.761317	0.329291	0.578361	-0.008425	-0.001275	0.015783	33.506261	-85.992452	113.676735
22584	9.772924	0.366464	0.565447	-0.005224	0.001533	0.011800	33.456939	-85.997920	113.723072
22585	9.764392	0.347535	0.551212	-0.010633	0.001845	0.011756	33.413805	-86.002898	113.760000
22586	9.749838	0.362429	0.540166	-0.008051	-0.000922	0.011973	33.372536	-86.009589	113.796642
22587	9.773499	0.332108	0.520684	-0.010632	0.001844	0.011755	33.348480	-86.012165	113.798671
22588	9.755925	0.326316	0.537129	-0.007896	0.001544	0.009168	33.315306	-86.016785	113.827288
22589	9.729785	0.302841	0.538981	-0.001118	-0.001065	0.011427	33.297413	-86.025549	113.851705
22590	9.723810	0.335761	0.542146	0.001307	-0.002009	0.007432	33.297463	-86.031326	113.852308
22591	9.717826	0.293177	0.596638	0.004820	-0.002849	0.011874	33.306845	-86.039026	113.841998
22592	9.744488	0.284177	0.549387	0.009140	-0.003266	0.003481	33.344542	-86.044162	113.809369
22593	9.758226	0.329266	0.650282	0.007835	-0.005549	0.003065	33.437785	-86.049339	113.710887
22594	9.779314	0.323828	0.561092	0.010664	-0.003095	0.002892	33.480000	-86.054200	113.674610
22595	9.799508	0.380067	0.562290	0.014394	-0.001757	-0.000688	33.544807	-86.055964	113.618435
22596	9.767329	0.391421	0.567383	0.009389	0.001955	0.003089	33.561880	-86.058469	113.606626
22597	9.772919	0.463726	0.557858	0.013648	0.001824	-0.000087	33.595334	-86.059976	113.587474
22598	9.775940	0.484335	0.530558	0.008707	0.000958	0.005490	33.599985	-86.063717	113.587724
22599	9.761365	0.500149	0.519556	-0.000218	0.002112	0.001004	33.640573	-86.065849	113.547080
22600	9.773373	0.432010	0.513225	-0.001491	0.002874	0.008219	33.611650	-86.069543	113.575129
22601	9.735594	0.370470	0.528319	-0.006839	0.002900	0.002958	33.605348	-86.070378	113.579938
22602	9.720971	0.310653	0.568892	-0.003636	0.001417	0.005992	33.597318	-86.074057	113.585812
22603	9.729570	0.327943	0.583312	0.003203	-0.001483	0.003034	33.677631	-86.077625	113.497181
22604	9.761777	0.316350	0.577828	0.003638	-0.005707	0.001025	33.741572	-86.083120	113.435098
22605	9.732169	0.303800	0.651712	0.001057	-0.002939	0.000807	33.805637	-86.086106	113.369656
22606	9.755829	0.350030	0.580466	-0.000995	-0.001640	0.000993	33.848480	-86.089643	113.326060
22607	9.773435	0.354778	0.564065	-0.002146	-0.001456	-0.002227	33.934710	-86.091194	113.233202
22608	9.779461	0.396720	0.509336	-0.012811	0.001641	-0.005118	33.998115	-86.091207	113.162213
22609	9.744659	0.357052	0.496988	-0.015173	0.002297	-0.006341	34.059863	-86.091064	113.095896
22610	9.720558	0.341925	0.613368	-0.018219	0.001955	-0.005163	34.118981	-86.090904	113.026100
22611	9.726525	0.308697	0.610247	-0.023038	0.000512	-0.010021	34.243407	-86.089579	112.883536
22612	9.729469	0.255082	0.634490	-0.030436	0.001836	-0.015097	34.364834	-86.086249	112.744272
22613	9.703700	0.203218	0.591217	-0.025801	-0.002231	-0.015068	34.530371	-86.084836	112.560757
22614	9.732863	0.172472	0.613193	-0.019490	-0.003659	-0.018431	34.706789	-86.082959	112.372662
22615	9.718706	0.159849	0.556659	-0.001897	-0.002599	-0.023099	34.900471	-86.078900	112.187918
22616	9.776991	0.248800	0.498253	0.012742	0.000873	-0.024175	35.112326	-86.072921	111.982810
22617	9.788416	0.365359	0.434243	0.018397	0.005782	-0.024520	35.324006	-86.064405	111.778939
22618	9.793785	0.440616	0.425127	0.007024	0.004829	-0.032646	35.569377	-86.053657	111.536950
22619	9.807646	0.533859	0.430502	-0.005005	0.005917	-0.030738	35.760839	-86.042024	111.355641
22620	9.859743	0.581573	0.427518	-0.005066	0.006203	-0.025521	35.942379	-86.032909	111.170684
22621	9.854026	0.586882	0.386254	-0.009478	0.003861	-0.019542	36.128117	-86.027193	110.971715
22622	9.823755	0.606699	0.506253	-0.009388	0.006615	-0.017127	36.248001	-86.020653	110.846081
22623	9.747719	0.591928	0.530057	-0.000532	0.005759	-0.007420	36.332210	-86.017105	110.760135
22624	9.782283	0.633107	0.543298	0.001365	0.006288	-0.011819	36.424134	-86.012490	110.668707
22625	9.744593	0.572542	0.558582	0.000551	0.005864	0.001020	36.440408	-86.012816	110.653564
22626	9.682724	0.571065	0.638437	-0.011038	0.002724	0.000915	36.458321	-86.014171	110.629204
22627	9.674440	0.402088	0.727423	-0.034791	0.009822	-0.000881	36.452442	-86.011613	110.615347
22628	9.727730	0.385572	0.634261	-0.032448	0.001835	-0.000278	36.470333	-86.012970	110.578714
22629	9.728915	0.248510	0.596037	-0.046131	0.011897	-0.001379	36.492598	-86.011072	110.519115
22630	9.753643	0.158214	0.487296	-0.025338	0.011500	-0.003005	36.485448	-86.007051	110.511678
22631	9.723785	0.221424	0.511432	-0.014147	0.011247	-0.006720	36.460158	-86.002472	110.547224
22632	9.715063	0.280494	0.446546	-0.018447	0.005295	-0.018821	36.591166	-85.995914	110.405243
22633	9.833476	0.387137	0.496437	-0.032854	0.003985	-0.025782	36.776853	-85.987680	110.200969
22634	9.781118	0.344662	0.500708	-0.050282	0.009654	-0.030947	36.946253	-85.974898	110.002215
22635	9.737055	0.396306	0.468541	-0.064609	0.008053	-0.043137	37.181023	-85.958638	109.736719
22636	9.732200	0.395339	0.684116	-0.107830	0.014735	-0.050559	37.415666	-85.936626	109.439494
22637	9.633979	0.200220	0.740288	-0.147155	0.017882	-0.065006	37.664282	-85.908506	109.120042
22638	9.626898	0.051485	0.687977	-0.173965	0.018753	-0.075751	37.993165	-85.875630	108.690320
22639	9.668042	-0.228692	0.646805	-0.183781	0.028086	-0.107987	38.445723	-85.826887	108.137024
22640	9.723567	-0.248197	0.367730	-0.110567	0.015897	-0.126221	39.115211	-85.776667	107.402151
22641	9.961260	-0.294698	0.018019	-0.046356	-0.003458	-0.129714	39.928868	-85.734055	106.563082
22642	10.116101	0.005448	-0.092899	0.042163	-0.012104	-0.104925	40.667811	-85.702556	105.846236
22643	10.000505	0.372864	0.151814	0.089834	0.007166	-0.084399	41.180287	-85.669658	105.389108
22644	9.805297	0.914373	0.108378	0.139356	0.021243	-0.078377	41.639424	-85.632859	105.008655
22645	9.839146	1.390219	0.256372	0.113478	0.012310	-0.078535	42.117529	-85.600321	104.598907
22646	9.860231	1.429606	0.327594	0.061744	0.017672	-0.064996	42.463479	-85.569756	104.287344
22647	9.885999	1.336741	0.474906	0.027079	0.031486	-0.046400	42.620414	-85.541829	104.153511
22648	9.873397	1.220286	0.427608	-0.001492	0.043006	-0.037805	42.651531	-85.510996	104.121379
22649	9.891322	0.949531	0.550277	-0.043341	0.038566	-0.029036	42.598340	-85.487357	104.167780
22650	9.821958	0.788900	0.464907	-0.036197	0.039400	-0.022926	42.547887	-85.463819	104.197521
22651	9.827514	0.674998	0.402058	-0.029979	0.041337	-0.013399	42.424201	-85.444803	104.319451
22652	9.792585	0.553460	0.329760	-0.019198	0.043829	-0.005624	42.271687	-85.426061	104.461349
22653	9.808913	0.589169	0.362971	-0.004582	0.035796	-0.000268	42.114435	-85.414665	104.631925
22654	9.843698	0.553616	0.430737	-0.017080	0.040994	0.003629	41.929775	-85.400618	104.807295
22655	9.825912	0.548044	0.451174	-0.000356	0.046055	0.004863	41.718228	-85.385050	105.017771
22656	9.745714	0.503294	0.391240	0.034002	0.050781	0.010942	41.480458	-85.369489	105.275794
22657	9.710767	0.537355	0.332154	0.049648	0.054465	0.018391	41.225495	-85.355541	105.563469
22658	9.702956	0.599634	0.385799	0.052391	0.049886	0.022821	40.942620	-85.344654	105.877334
22659	9.750305	0.689386	0.619695	0.040862	0.050954	0.015631	40.683510	-85.331887	106.172434
22660	9.745882	0.697668	0.696834	0.025826	0.048546	0.010993	40.457383	-85.316950	106.414104
22661	9.814939	0.626167	0.829786	-0.009934	0.049147	0.010309	40.237995	-85.301392	106.627290
22662	9.775842	0.512089	0.830821	-0.013881	0.054168	0.007857	39.983770	-85.282676	106.874342
22663	9.686578	0.404237	0.853301	-0.019483	0.060828	0.001767	39.744000	-85.258610	107.099840
22664	9.677569	0.304034	0.781373	-0.018821	0.064853	0.007014	39.448903	-85.234687	107.385084
22665	9.624861	0.333711	0.739504	-0.013304	0.064296	0.001859	39.216750	-85.209264	107.611883
22666	9.660085	0.425408	0.777055	-0.012233	0.061364	0.002662	38.968961	-85.185114	107.853468
22667	9.633333	0.478134	0.733655	-0.018689	0.064551	0.001765	38.709496	-85.160582	108.114685
22668	9.674506	0.530373	0.653699	-0.029373	0.064803	-0.003636	38.475638	-85.132467	108.332453
22669	9.719192	0.528131	0.597490	-0.038403	0.063412	-0.005402	38.260787	-85.104325	108.525580
22670	9.714138	0.537756	0.676366	-0.042561	0.063214	-0.007490	38.051155	-85.075423	108.711469
22671	9.749212	0.548252	0.651023	-0.040673	0.066773	-0.004234	37.848515	-85.045386	108.881871
22672	9.690464	0.536490	0.663470	-0.036022	0.062747	-0.004179	37.631921	-85.017740	109.078532
22673	9.690034	0.536550	0.669669	-0.031317	0.061466	-0.001696	37.478062	-84.991277	109.213519
22674	9.676726	0.527835	0.733381	-0.020686	0.058458	0.001290	37.263089	-84.967376	109.417405
22675	9.694132	0.532561	0.723110	-0.015458	0.055717	0.004184	37.052471	-84.945246	109.614806
22676	9.682312	0.574941	0.804469	-0.013160	0.052335	0.003001	36.860517	-84.924609	109.799926
22677	9.669030	0.560207	0.752902	-0.008464	0.051057	0.005492	36.693545	-84.904196	109.952188
22678	9.705917	0.545220	0.795164	-0.006641	0.051877	0.006331	36.492914	-84.884802	110.149787
22679	9.713612	0.562155	0.814731	0.002689	0.046587	0.008898	36.330322	-84.868766	110.314765
22680	9.763597	0.555412	0.798574	0.001220	0.041830	0.011259	36.149335	-84.855577	110.497178
22681	9.810364	0.603487	0.758649	0.009676	0.041931	0.010218	35.982406	-84.842554	110.676164
22682	9.777692	0.613383	0.767047	0.009731	0.037360	0.012008	35.820829	-84.831595	110.843993
22683	9.772771	0.615465	0.728843	0.007550	0.038905	0.017396	35.666244	-84.820105	110.991417
22684	9.693167	0.651698	0.730365	0.004209	0.037894	0.017121	35.474761	-84.810512	111.186111
22685	9.725463	0.638904	0.729351	-0.000557	0.034870	0.021634	35.333213	-84.804188	111.328348
22686	9.705955	0.580185	0.730197	-0.008482	0.033307	0.023070	35.121790	-84.798603	111.535784
22687	9.697824	0.560339	0.718541	-0.015749	0.030014	0.019687	34.991031	-84.793142	111.655392
22688	9.708876	0.520970	0.759901	-0.014642	0.029827	0.022924	34.790218	-84.789034	111.848647
22689	9.708769	0.518648	0.762846	-0.009241	0.029554	0.023035	34.649381	-84.784404	111.979995
22690	9.744182	0.450515	0.784813	-0.003841	0.029281	0.023148	34.456236	-84.780522	112.171781
22691	9.711644	0.459094	0.791988	0.006765	0.026268	0.026177	34.299526	-84.778282	112.330182
22692	9.727607	0.491893	0.824101	0.009109	0.025626	0.027430	34.104976	-84.777403	112.530839
22693	9.713042	0.505348	0.815206	0.012981	0.025167	0.028113	33.981006	-84.776898	112.658498
22694	9.700370	0.488729	0.760923	0.009542	0.025990	0.023617	33.805528	-84.774529	112.840269
22695	9.696849	0.465306	0.790150	0.008288	0.019142	0.024971	33.707010	-84.775446	112.939101
22696	9.703264	0.429327	0.788345	0.008233	0.016404	0.022547	33.569847	-84.777236	113.081658
22697	9.676187	0.428925	0.722027	0.010110	0.019958	0.025815	33.432567	-84.778228	113.228210
22698	9.692205	0.462004	0.753547	0.001795	0.019600	0.021608	33.285524	-84.778129	113.376991
22699	9.724580	0.448867	0.750954	0.002318	0.018138	0.022016	33.159447	-84.778676	113.507891
22700	9.714615	0.459417	0.783168	0.002551	0.016039	0.021008	33.028186	-84.780036	113.641264
22701	9.724239	0.526568	0.817803	0.003792	0.015582	0.019024	32.949200	-84.779921	113.720120
22702	9.726128	0.494341	0.773833	-0.000273	0.013575	0.021136	32.824009	-84.782460	113.845781
22703	9.706512	0.435997	0.772511	0.004546	0.012021	0.018426	32.794067	-84.783149	113.869043
22704	9.688526	0.429135	0.789393	0.008706	0.012195	0.020530	32.681885	-84.786133	113.986822
22705	9.674101	0.443342	0.779052	0.012806	0.009634	0.020213	32.608501	-84.789106	114.067626
22706	9.674126	0.441503	0.779779	0.008160	0.006356	0.019494	32.521037	-84.794555	114.160275
22707	9.718182	0.467368	0.763642	0.010210	0.005074	0.019335	32.520080	-84.801511	114.156455
22708	9.745950	0.539643	0.781440	0.010211	0.005073	0.019335	32.438805	-84.807520	114.244086
22709	9.762303	0.491203	0.748141	0.003116	0.010009	0.023204	32.344073	-84.812118	114.344553
22710	9.691211	0.544812	0.761205	0.006267	0.008539	0.026285	32.211385	-84.818546	114.481545
22711	9.687674	0.521556	0.789122	0.005597	0.009093	0.019238	32.140886	-84.821662	114.558725
22712	9.657230	0.500263	0.748641	0.011114	0.002414	0.025374	32.035975	-84.830744	114.670620
22713	9.694174	0.483427	0.786446	0.006437	0.003703	0.022858	32.015840	-84.836622	114.688260
22714	9.750869	0.522919	0.826618	0.003407	-0.001220	0.025789	31.916072	-84.847571	114.790571
22715	9.720481	0.501303	0.785527	0.001069	-0.000575	0.024531	31.839851	-84.858098	114.871715
22716	9.779070	0.510171	0.780281	0.001944	0.001333	0.028773	31.713717	-84.868675	114.999658
22717	9.771124	0.489691	0.765627	0.003766	0.002146	0.029619	31.635803	-84.878040	115.080199
22718	9.783004	0.443767	0.689944	0.010987	0.002670	0.030588	31.499650	-84.888464	115.223413
22719	9.750772	0.451717	0.694412	0.013710	0.000827	0.037473	31.396229	-84.901020	115.328150
22720	9.687003	0.446207	0.771993	0.019046	-0.002202	0.035176	31.254698	-84.915140	115.481407
22721	9.715072	0.435315	0.725598	0.024132	0.001430	0.032085	31.165115	-84.925102	115.589499
22722	9.703451	0.393555	0.737686	0.019276	-0.004305	0.034169	31.035020	-84.939899	115.731411
22723	9.709841	0.356639	0.733771	0.026208	-0.004426	0.033722	30.981644	-84.952125	115.804385
22724	9.738023	0.427624	0.750661	0.022838	-0.000854	0.031642	30.855028	-84.964438	115.944864
22725	9.804627	0.371793	0.696345	0.018182	-0.004120	0.030926	30.758469	-84.977938	116.054359
22726	9.797821	0.427095	0.630162	0.014832	-0.005110	0.030646	30.645799	-84.992010	116.176232
22727	9.800445	0.369799	0.653528	0.007431	-0.001967	0.021247	30.637878	-84.999628	116.190835
22728	9.784494	0.414194	0.687189	0.008535	-0.002159	0.024483	30.545854	-85.010423	116.288372
22729	9.788310	0.432862	0.659827	0.003137	-0.001859	0.024361	30.535301	-85.018607	116.294670
22730	9.746230	0.454698	0.694422	0.001021	-0.003307	0.022102	30.455881	-85.029257	116.375248
22731	9.738193	0.434965	0.679317	-0.004672	-0.003642	0.020567	30.425623	-85.038943	116.401452
22732	9.742758	0.429587	0.720863	-0.006495	-0.004453	0.019721	30.358823	-85.049456	116.465047
22733	9.769461	0.343846	0.725028	-0.004449	-0.005743	0.019564	30.336291	-85.059609	116.479973
22734	9.756930	0.327787	0.667954	-0.000890	-0.002293	0.017039	30.280464	-85.068268	116.535784
22735	9.738990	0.321185	0.683383	0.009190	-0.003904	0.019671	30.313641	-85.078443	116.479503
22736	9.745598	0.367326	0.743012	0.018755	-0.004053	0.021892	30.246950	-85.089373	116.557533
22737	9.795734	0.465291	0.716652	0.019917	-0.007250	0.017497	30.278441	-85.100481	116.523618
22738	9.804034	0.481329	0.730890	0.013267	-0.001919	0.017555	30.226191	-85.109099	116.584008
22739	9.769734	0.439435	0.716947	0.006929	-0.000516	0.020827	30.232984	-85.115936	116.565374
22740	9.733054	0.452300	0.679343	0.007649	0.000485	0.018435	30.164167	-85.123609	116.639177
22741	9.733150	0.450353	0.679267	0.007741	-0.001345	0.022649	30.126206	-85.133449	116.653391
22742	9.761814	0.415947	0.701921	0.005106	-0.001327	0.019981	30.052678	-85.142453	116.730466
22743	9.777805	0.367389	0.667800	0.003796	-0.003600	0.019547	30.020762	-85.153654	116.736590
22744	9.768783	0.354024	0.767094	0.003283	-0.002137	0.019136	29.953422	-85.162807	116.806409
22745	9.756185	0.338073	0.710284	0.001662	-0.000481	0.015489	29.926113	-85.170999	116.820385
22746	9.721790	0.296442	0.696431	0.002473	-0.001309	0.017311	29.865872	-85.179212	116.882617
22747	9.748083	0.317438	0.695369	0.009313	0.000381	0.012649	29.863714	-85.186372	116.840245
22748	9.729409	0.335776	0.641947	0.013698	-0.001567	0.013747	29.831608	-85.193695	116.880699
22749	9.695603	0.376473	0.691175	0.014430	-0.005132	0.013157	29.807724	-85.202788	116.920426
22750	9.760881	0.434450	0.745224	0.005378	-0.006435	0.011350	29.801370	-85.211846	116.930250
22751	9.797022	0.443089	0.713099	0.000400	-0.005757	0.007428	29.803107	-85.220297	116.927391
22752	9.758147	0.405573	0.656908	-0.000833	-0.005294	0.009408	29.800808	-85.228235	116.929573
22753	9.758920	0.380087	0.725579	0.005755	-0.003065	0.015173	29.752658	-85.237700	116.974552
22754	9.746281	0.364556	0.668727	0.009021	-0.000258	0.011234	29.727780	-85.243653	117.005055
22755	9.762808	0.398812	0.698020	0.013109	-0.002844	0.010920	29.762567	-85.250571	116.955484
22756	9.754629	0.380261	0.682945	0.007411	-0.003165	0.009390	29.757792	-85.257447	116.964897
22757	9.742659	0.340825	0.695164	0.010255	-0.000723	0.009253	29.780584	-85.262477	116.924031
22758	9.778748	0.349473	0.663596	0.008212	0.000570	0.009409	29.763370	-85.267500	116.946390
22759	9.750978	0.356955	0.709616	0.006520	-0.005073	0.005155	29.833435	-85.273228	116.895455
22760	9.747248	0.335434	0.736416	0.006601	-0.002337	0.007566	29.836504	-85.279171	116.896546
22761	9.747299	0.334911	0.735972	0.010094	-0.006196	0.004430	29.980175	-85.283428	116.749783
22762	9.733117	0.350808	0.723811	0.010311	-0.008296	0.003430	30.031369	-85.291139	116.704739
22763	9.765456	0.339130	0.718696	0.011328	-0.006661	0.002450	30.179648	-85.293355	116.616082
22764	9.789583	0.416015	0.692952	0.012653	-0.008955	0.004684	30.227536	-85.301733	116.575727
22765	9.771630	0.410952	0.707943	0.011626	-0.006026	0.003860	30.268272	-85.309126	116.532435
22766	9.761226	0.447672	0.668555	0.004192	-0.008979	0.005705	30.305523	-85.317807	116.497888
22767	9.769569	0.464782	0.682418	0.007550	-0.008002	0.005978	30.352419	-85.327199	116.425524
22768	9.718558	0.389205	0.638710	0.003071	-0.004223	0.000667	30.402954	-85.332067	116.377006
22769	9.747117	0.356370	0.660904	0.014062	-0.008513	0.009327	30.475638	-85.340773	116.305819
22770	9.755455	0.373387	0.674892	0.011925	-0.005392	0.005269	30.507876	-85.347547	116.280759
22771	9.761498	0.338999	0.671007	0.019968	-0.005733	0.008049	30.570546	-85.353896	116.230106
22772	9.765332	0.359290	0.643170	0.021500	-0.005563	0.007479	30.595742	-85.361392	116.217623
22773	9.723392	0.383255	0.677222	0.018059	-0.009278	0.004797	30.677892	-85.369328	116.130895
22774	9.800047	0.398302	0.655061	0.017127	-0.008175	0.008187	30.705976	-85.378316	116.113006
22775	9.747635	0.459418	0.650462	0.011331	-0.006667	0.002447	30.794744	-85.383549	116.063266
22776	9.758177	0.421987	0.688467	0.001636	-0.006219	0.005452	30.823862	-85.390766	116.035445
22777	9.759692	0.390919	0.642686	0.004697	-0.005881	0.004313	30.882719	-85.397374	115.958261
22778	9.751453	0.373081	0.627453	0.001243	-0.005031	-0.000173	30.941908	-85.402347	115.900048
22779	9.715467	0.363631	0.658512	0.002056	-0.005859	0.001649	31.047867	-85.407289	115.800486
22780	9.721475	0.329733	0.654655	0.003287	-0.006326	-0.000331	31.114370	-85.412835	115.736123
22781	9.768029	0.302036	0.661056	0.005630	-0.006985	0.000922	31.220509	-85.417356	115.660329
22782	9.735812	0.313583	0.664787	0.013580	-0.005502	-0.000518	31.291421	-85.422425	115.597472
22783	9.753864	0.318544	0.648205	0.015541	-0.009537	-0.003084	31.389050	-85.428913	115.484838
22784	9.758453	0.315778	0.689084	0.019117	-0.010664	-0.003812	31.502972	-85.435503	115.382014
22785	9.756291	0.371060	0.664009	0.016774	-0.010006	-0.005065	31.584215	-85.443440	115.295790
22786	9.796886	0.377900	0.673234	0.016476	-0.010644	-0.006476	31.713412	-85.449194	115.176117
22787	9.778938	0.373842	0.687938	0.019120	-0.010666	-0.003814	31.878597	-85.453378	115.053403
22788	9.750469	0.406656	0.664045	0.018905	-0.008564	-0.002818	31.979574	-85.459179	114.963449
22789	9.756483	0.373335	0.659899	0.021668	-0.008865	-0.005370	32.141269	-85.463135	114.825970
22790	9.724269	0.385530	0.663197	0.025759	-0.011458	-0.005687	32.275486	-85.469425	114.706621
22791	9.729451	0.376355	0.589749	0.016265	-0.008547	-0.005481	32.466494	-85.473148	114.516860
22792	9.738626	0.370545	0.672661	0.022785	-0.009056	-0.002140	32.568814	-85.479317	114.427814
22793	9.756675	0.375725	0.655693	0.020872	-0.012606	-0.005385	32.728319	-85.486323	114.279120
22794	9.782999	0.398925	0.653367	0.013323	-0.009169	-0.009553	32.871573	-85.490211	114.143581
22795	9.774728	0.382205	0.637806	0.006387	-0.009017	-0.009090	33.025724	-85.494179	113.966920
22796	9.758150	0.347836	0.607838	0.011778	-0.004776	-0.010794	33.158691	-85.495515	113.840815
22797	9.749369	0.444148	0.700511	0.020861	-0.008044	-0.007200	33.275805	-85.500840	113.705558
22798	9.762775	0.452874	0.641905	0.012811	-0.007707	-0.009968	33.416333	-85.503798	113.572457
22799	9.733319	0.403846	0.555234	0.033208	-0.008518	-0.007560	33.525828	-85.510086	113.456276
22800	9.748519	0.364837	0.635106	0.005059	-0.006733	-0.011326	33.666607	-85.512106	113.318462
22801	9.751323	0.304494	0.544142	0.037504	-0.008654	-0.010689	33.834571	-85.516087	113.147807
22802	9.754541	0.333296	0.630340	0.025243	-0.005440	-0.007925	33.961351	-85.518523	113.035634
22803	9.744872	0.347569	0.659916	0.026611	-0.010762	-0.013307	34.170438	-85.521788	112.815155
22804	9.743948	0.372970	0.589551	0.018558	-0.010428	-0.016072	34.363590	-85.523902	112.632568
22805	9.790518	0.347113	0.595590	0.016213	-0.009774	-0.017324	34.515183	-85.527164	112.468612
22806	9.762851	0.357530	0.641043	0.014066	-0.006664	-0.021386	34.722359	-85.525688	112.269368
22807	9.766483	0.380062	0.613046	0.018427	-0.005579	-0.012678	34.881319	-85.525915	112.150382
22808	9.754388	0.449612	0.618528	0.019178	-0.007627	-0.022692	35.103132	-85.524360	111.939397
22809	9.757966	0.472591	0.590583	0.013334	-0.003100	-0.020809	35.339733	-85.519199	111.735054
22810	9.751866	0.508241	0.593103	0.014771	-0.007200	-0.014351	35.507174	-85.520088	111.576085
22811	9.725598	0.487353	0.593734	0.010375	-0.005251	-0.015443	35.653743	-85.520395	111.455241
22812	9.757828	0.477639	0.588796	0.009261	-0.005072	-0.018676	35.834641	-85.518778	111.279604
22813	9.745885	0.440840	0.601067	0.004967	-0.004935	-0.015547	35.961412	-85.519083	111.158006
22814	9.778137	0.430945	0.596101	0.005485	-0.006400	-0.015132	36.124731	-85.519205	110.997826
22815	9.780556	0.377863	0.619958	0.009641	-0.001683	-0.014866	36.234654	-85.519305	110.869621
22816	9.761524	0.398483	0.566257	0.018632	-0.003126	-0.015497	36.393413	-85.517736	110.721562
22817	9.731361	0.462981	0.588058	0.020542	0.000433	-0.012261	36.454949	-85.518999	110.650347
22818	9.765778	0.504484	0.601006	0.014858	-0.004454	-0.011952	36.596342	-85.519212	110.517523
22819	9.769338	0.526406	0.573292	0.012588	-0.001054	-0.010801	36.721157	-85.517134	110.435500
22820	9.801577	0.516039	0.568906	0.008787	0.002178	-0.009076	36.813167	-85.515244	110.348726
22821	9.760971	0.510511	0.558970	0.003675	0.003135	-0.007769	36.913071	-85.513451	110.242542
22822	9.749069	0.472676	0.572155	0.005803	0.004590	-0.005526	36.971971	-85.511658	110.187266
22823	9.769101	0.529552	0.574429	0.003234	0.007347	-0.005784	37.023024	-85.507942	110.153896
22824	9.748947	0.473752	0.573335	0.000690	0.005547	-0.004220	37.067088	-85.506153	110.110565
22825	9.733073	0.521233	0.607447	-0.009418	0.007163	-0.006823	37.121336	-85.503995	110.033158
22826	9.733364	0.415747	0.614915	-0.020836	0.006504	-0.009846	37.181437	-85.499818	109.961368
22827	9.729679	0.395691	0.643176	-0.018928	0.010064	-0.006610	37.164946	-85.498236	109.955978
22828	9.739300	0.383242	0.613780	-0.016162	0.009759	-0.009167	37.209283	-85.492810	109.902676
22829	9.766871	0.375638	0.568607	-0.013320	0.012202	-0.009321	37.225398	-85.487269	109.872347
22830	9.783703	0.404851	0.484663	-0.009440	0.011720	-0.008644	37.261725	-85.481126	109.830938
22831	9.746197	0.427179	0.562497	-0.014628	0.009926	-0.009743	37.294788	-85.476377	109.801103
22832	9.719889	0.405711	0.565237	-0.024978	0.018201	-0.013177	37.319651	-85.465704	109.762259
22833	9.742315	0.408619	0.592913	-0.016776	0.013028	-0.013809	37.359785	-85.458314	109.713220
22834	9.774477	0.398599	0.590114	-0.016799	0.017585	-0.015629	37.405709	-85.447066	109.657946
22835	9.769714	0.402991	0.550007	-0.014969	0.018396	-0.014793	37.383518	-85.439532	109.650314
22836	9.769559	0.404381	0.551730	-0.010868	0.015810	-0.015109	37.437227	-85.429277	109.590624
22837	9.763249	0.439725	0.556434	-0.006272	0.016321	-0.016827	37.469364	-85.421000	109.528744
22838	9.793836	0.460616	0.598655	-0.006173	0.014509	-0.012605	37.516760	-85.412206	109.478074
22839	9.789522	0.547471	0.621068	-0.006788	0.017781	-0.017244	37.601596	-85.399581	109.415893
22840	9.779140	0.479450	0.590590	-0.005086	0.018887	-0.011190	37.622212	-85.389285	109.392721
22841	9.772799	0.514435	0.595436	0.002079	0.016646	-0.012648	37.637628	-85.380498	109.407203
22842	9.758278	0.531581	0.585717	0.003979	0.020205	-0.009406	37.647527	-85.370228	109.399989
22843	9.762315	0.447102	0.566841	0.009390	0.019898	-0.009297	37.641709	-85.361612	109.407783
22844	9.726195	0.438626	0.600343	0.007564	0.019084	-0.010136	37.662488	-85.351598	109.391708
22845	9.787078	0.396329	0.620869	0.007270	0.018440	-0.011546	37.643481	-85.345013	109.390526
22846	9.777077	0.410739	0.653037	0.004336	0.017802	-0.015621	37.698251	-85.333664	109.338479
22847	9.756082	0.379624	0.583774	0.000531	0.021025	-0.013902	37.714097	-85.321807	109.341025
22848	9.778394	0.383023	0.611906	-0.001164	0.019915	-0.019959	37.780181	-85.307973	109.274462
22849	9.784579	0.433711	0.673816	-0.005581	0.026406	-0.022882	37.790907	-85.291527	109.279213
22850	9.793341	0.446576	0.576663	-0.008125	0.024600	-0.021325	37.839842	-85.275089	109.225845
22851	9.728373	0.471386	0.587744	-0.012091	0.026881	-0.026237	37.897221	-85.257525	109.164264
22852	9.752333	0.444894	0.571613	-0.018308	0.027999	-0.028182	37.962384	-85.237129	109.088752
22853	9.758307	0.413841	0.571199	-0.018371	0.025250	-0.030588	38.009381	-85.219045	109.048277
22854	9.758047	0.416589	0.573635	-0.009804	0.023483	-0.027388	38.093009	-85.200956	108.959113
22855	9.777610	0.475541	0.578075	-0.006671	0.026572	-0.026125	38.183696	-85.180751	108.888740
22856	9.767395	0.491181	0.610947	-0.001324	0.023526	-0.028413	38.276124	-85.162254	108.795622
22857	9.794974	0.568251	0.629630	0.004542	0.019019	-0.030282	38.416247	-85.144750	108.665311
22858	9.796576	0.540582	0.586395	-0.001447	0.018028	-0.033226	38.555376	-85.126967	108.525251
22859	9.795140	0.550902	0.702188	0.001064	0.012534	-0.035367	38.751445	-85.111656	108.298893
22860	9.837248	0.530097	0.668607	-0.013082	0.007577	-0.034062	38.929976	-85.098164	108.112591
22861	9.794890	0.475091	0.641266	-0.011256	0.008392	-0.033222	39.045234	-85.087280	108.016703
22862	9.719916	0.513616	0.680408	-0.010539	-0.002472	-0.034385	39.267352	-85.078052	107.788099
22863	9.685689	0.476386	0.666772	-0.010767	-0.000372	-0.033392	39.498471	-85.068358	107.553091
22864	9.760362	0.444273	0.627816	0.002915	-0.003056	-0.031474	39.714231	-85.060298	107.338604
22865	9.697019	0.521301	0.653850	-0.000466	0.000502	-0.033569	39.941592	-85.049328	107.113857
22866	9.688832	0.506695	0.639312	-0.004050	0.001608	-0.032850	40.138930	-85.038574	106.913852
22867	9.709446	0.559428	0.527313	-0.001213	0.004061	-0.032995	40.285951	-85.029428	106.779714
22868	9.721628	0.577384	0.584482	-0.010727	0.006913	-0.032815	40.455057	-85.016276	106.604193
22869	9.727350	0.629072	0.644925	-0.019487	0.006201	-0.033212	40.643101	-85.005601	106.370805
22870	9.742028	0.533830	0.594617	-0.027700	0.011327	-0.032607	40.780863	-84.990523	106.216982
22871	9.761299	0.593567	0.597839	-0.027027	0.009570	-0.037415	40.931253	-84.976868	106.065432
22872	9.739428	0.571249	0.642133	-0.049173	0.012156	-0.038328	41.079445	-84.959215	105.888775
22873	9.734739	0.577881	0.601592	-0.049740	0.010862	-0.041159	41.270504	-84.942176	105.655256
22874	9.743869	0.493097	0.623956	-0.064130	0.012516	-0.040694	41.417694	-84.923383	105.470996
22875	9.760277	0.508073	0.724288	-0.066120	0.016530	-0.038140	41.524775	-84.905672	105.323681
22876	9.718156	0.453138	0.697909	-0.064374	0.019153	-0.041528	41.645299	-84.883651	105.166039
22877	9.677454	0.450000	0.689416	-0.057189	0.016948	-0.042975	41.781666	-84.863028	105.008093
22878	9.688043	0.416938	0.730170	-0.046406	0.020948	-0.044539	41.916661	-84.839027	104.846247
22879	9.645211	0.386594	0.634603	-0.018003	0.020050	-0.039244	42.051883	-84.817735	104.717520
22880	9.693658	0.490888	0.610961	-0.011668	0.023228	-0.044325	42.193460	-84.792779	104.569039
22881	9.738505	0.574409	0.614194	0.002279	0.013940	-0.041578	42.357729	-84.774684	104.422145
22882	9.752630	0.562565	0.627487	-0.009322	0.022585	-0.043069	42.494899	-84.750417	104.279428
22883	9.720968	0.629216	0.651788	-0.012709	0.018831	-0.045769	42.650919	-84.727793	104.142781
22884	9.727197	0.599821	0.650592	-0.022217	0.021641	-0.045602	42.793555	-84.702872	103.987143
22885	9.723270	0.583092	0.679857	-0.019633	0.018906	-0.045341	42.931029	-84.680482	103.855271
22886	9.711522	0.548899	0.694180	-0.023618	0.018418	-0.052686	43.115319	-84.654068	103.656977
22887	9.723230	0.568161	0.752733	-0.025064	0.016416	-0.047899	43.289501	-84.632687	103.471025
22888	9.700506	0.570838	0.728349	-0.015825	0.020261	-0.048880	43.450281	-84.606896	103.300815
22889	9.695792	0.578717	0.688462	-0.015819	0.020256	-0.048884	43.600499	-84.583477	103.150827
22890	9.721184	0.606315	0.689314	-0.015810	0.012956	-0.049494	43.791330	-84.560381	102.950424
22891	9.716506	0.614292	0.648876	-0.009639	0.016437	-0.049341	43.962142	-84.538416	102.794131
22892	9.759894	0.647260	0.633768	-0.015833	0.010205	-0.051920	44.171602	-84.515368	102.574983
22893	9.778291	0.633060	0.688512	-0.020466	0.014192	-0.052040	44.417077	-84.488229	102.344172
22894	9.746936	0.566851	0.630874	-0.024854	0.016080	-0.053162	44.598411	-84.462117	102.148085
22895	9.718992	0.555256	0.747792	-0.029349	0.017037	-0.060931	44.774951	-84.435742	101.967667
22896	9.752874	0.468493	0.681981	-0.031149	0.016198	-0.061791	44.984359	-84.405976	101.739722
22897	9.756702	0.471183	0.725792	-0.020662	0.019610	-0.064745	45.192242	-84.376762	101.523673
22898	9.762344	0.468208	0.655419	-0.016055	0.020170	-0.066444	45.408224	-84.343342	101.297788
22899	9.700099	0.517030	0.638729	-0.001701	0.023157	-0.068691	45.606943	-84.309962	101.120122
22900	9.743951	0.603663	0.642718	0.003157	0.021623	-0.071393	45.842561	-84.273770	100.885536
22901	9.706531	0.624549	0.606993	0.014975	0.022783	-0.072096	46.064867	-84.238534	100.689319
22902	9.721151	0.667476	0.638763	0.003360	0.021313	-0.076643	46.316550	-84.200108	100.438668
22903	9.745532	0.646618	0.622079	-0.001277	0.025279	-0.076771	46.538319	-84.162483	100.229418
22904	9.701256	0.625792	0.640968	-0.010075	0.026280	-0.081447	46.774138	-84.119901	99.986940
22905	9.744495	0.586452	0.678189	-0.011664	0.027883	-0.085126	47.001531	-84.076764	99.771767
22906	9.769333	0.618015	0.680407	-0.008107	0.031355	-0.087659	47.234358	-84.029399	99.533390
22907	9.753906	0.642292	0.672017	0.000648	0.032150	-0.087232	47.422781	-83.986663	99.361030
22908	9.775597	0.704535	0.719823	0.006269	0.034366	-0.089911	47.653089	-83.937009	99.133418
22909	9.737872	0.726958	0.685118	0.012218	0.032681	-0.089359	47.875943	-83.891839	98.933325
22910	9.729761	0.769323	0.691429	0.009431	0.030178	-0.089250	48.115089	-83.843886	98.698606
22911	9.735292	0.768938	0.622170	0.011192	0.035553	-0.090218	48.365001	-83.794018	98.474963
22912	9.716351	0.772509	0.640998	0.008873	0.033401	-0.093929	48.599989	-83.742623	98.244068
22913	9.704734	0.742562	0.656457	-0.004977	0.033410	-0.093122	48.821709	-83.693438	98.034344
22914	9.711179	0.718004	0.656562	-0.007557	0.036095	-0.093409	49.027765	-83.641064	97.823045
22915	9.721725	0.690484	0.698857	-0.013266	0.037436	-0.099236	49.241878	-83.588033	97.618690
22916	9.698661	0.697970	0.676333	-0.019239	0.040868	-0.104064	49.451098	-83.529079	97.397426
22917	9.704936	0.725926	0.695427	-0.022079	0.042895	-0.105779	49.668320	-83.470105	97.188849
22918	9.682010	0.682671	0.655242	-0.022172	0.046472	-0.114279	49.879504	-83.404427	96.963871
22919	9.680910	0.693706	0.659887	-0.033465	0.045535	-0.117462	50.083696	-83.340790	96.756379
22920	9.629278	0.658078	0.665960	-0.047949	0.050523	-0.125588	50.291739	-83.268468	96.519630
22921	9.658202	0.587755	0.675751	-0.053056	0.044892	-0.135879	50.533818	-83.196909	96.262893
22922	9.686705	0.569964	0.704047	-0.070183	0.054332	-0.148546	50.774415	-83.112813	95.980450
22923	9.698394	0.444801	0.711602	-0.084587	0.053781	-0.161566	51.046416	-83.024339	95.671652
22924	9.694108	0.439137	0.744283	-0.092318	0.055338	-0.173988	51.331268	-82.928213	95.331736
22925	9.777568	0.390847	0.708505	-0.082796	0.056239	-0.182645	51.621008	-82.829959	94.995763
22926	9.762282	0.399304	0.772069	-0.079030	0.063941	-0.192278	51.916925	-82.722139	94.652215
22927	9.712250	0.467880	0.702091	-0.056173	0.066416	-0.202121	52.240968	-82.609396	94.301820
22928	9.713478	0.535713	0.769244	-0.065589	0.064322	-0.217893	52.591904	-82.489330	93.910380
22929	9.640200	0.506483	0.749811	-0.067302	0.064229	-0.229779	52.955101	-82.364692	93.504699
22930	9.624906	0.492776	0.726097	-0.063060	0.062551	-0.241079	53.348228	-82.233965	93.071915
22931	9.628552	0.461454	0.756015	-0.065618	0.067763	-0.256646	53.734833	-82.095598	92.640566
22932	9.632286	0.431396	0.786309	-0.068110	0.071160	-0.267982	54.133489	-81.948729	92.198985
22933	9.643710	0.394642	0.744443	-0.087203	0.072635	-0.289459	54.545052	-81.792029	91.730865
22934	9.638343	0.328489	0.786833	-0.108323	0.075265	-0.310842	54.973328	-81.622879	91.235717
22935	9.658517	0.189698	0.749406	-0.120267	0.072228	-0.330959	55.424070	-81.445672	90.707422
22936	9.719340	0.062645	0.723277	-0.129784	0.077378	-0.358701	55.896987	-81.252095	90.154218
22937	9.736380	0.176542	0.709177	-0.092524	0.103835	-0.368349	56.300741	-81.046157	89.688152
22938	9.739500	0.522134	0.860659	-0.073756	0.115243	-0.384073	56.699534	-80.827287	89.241891
22939	9.664532	0.678420	0.761756	-0.058589	0.127614	-0.399130	57.071847	-80.598320	88.826269
22940	9.687717	1.051364	0.758580	-0.046324	0.112160	-0.410857	57.505273	-80.366547	88.360244
22941	9.698261	1.290772	0.800382	-0.073020	0.103469	-0.415752	57.927815	-80.136042	87.884509
22942	9.686649	1.501703	0.883716	-0.102960	0.093554	-0.421026	58.356336	-79.903826	87.389864
22943	9.659145	1.513079	0.936174	-0.137427	0.091557	-0.433610	58.763472	-79.667002	86.891624
22944	9.588833	1.518103	0.934902	-0.160645	0.088991	-0.438643	59.158723	-79.426286	86.396460
22945	9.587911	1.435505	0.933939	-0.192121	0.086654	-0.453884	59.539056	-79.179704	85.892879
22946	9.688494	1.331957	0.922344	-0.181076	0.087500	-0.459537	59.918458	-78.927899	85.401125
22947	9.871147	1.199155	1.071260	-0.175189	0.085402	-0.455422	60.275077	-78.679754	84.930676
22948	10.173707	1.053672	1.194846	-0.170458	0.089546	-0.448195	60.602687	-78.431887	84.497120
22949	10.565782	0.969156	1.374318	-0.175147	0.093381	-0.455944	60.906580	-78.180334	84.079369
22950	10.857871	0.889594	1.434918	-0.184573	0.099481	-0.484638	61.218864	-77.910520	83.652407
22951	11.042764	0.636981	1.471938	-0.180934	0.096448	-0.541694	61.588367	-77.614245	83.162673
22952	11.177233	0.368611	1.552352	-0.174015	0.093934	-0.599982	62.023377	-77.286561	82.615209
22953	11.254184	0.282884	1.412622	-0.179469	0.085640	-0.679339	62.532111	-76.922132	81.981273
22954	10.888294	0.101520	1.409767	-0.225804	0.081866	-0.747980	63.073155	-76.520166	81.292770
22955	10.799583	-0.087857	1.524583	-0.271674	0.076866	-0.784562	63.593030	-76.101997	80.589704
22956	10.519545	0.308564	1.589566	-0.238168	0.080280	-0.806777	64.118549	-75.667354	79.907443
22957	10.247322	0.864952	1.728440	-0.202977	0.053159	-0.809727	64.676318	-75.239506	79.201926
22958	9.782652	1.218660	1.688415	-0.183923	0.036922	-0.798564	65.238765	-74.816526	78.510950
22959	9.625598	1.612196	1.554971	-0.148529	-0.005544	-0.809339	65.867730	-74.399617	77.760380
22960	9.675022	1.969429	1.482766	-0.164470	-0.043960	-0.799546	66.522608	-73.991071	76.982146
22961	9.556600	2.404705	1.431133	-0.153699	-0.070331	-0.780104	67.172877	-73.599944	76.202951
22962	9.353482	2.686273	1.269372	-0.203843	-0.076402	-0.773159	67.774950	-73.207861	75.453138
22963	9.957702	2.226883	0.691466	-0.186452	-0.147634	-0.781613	68.477649	-72.827728	74.596423
22964	10.877528	2.215436	0.884106	-0.172798	-0.182320	-0.750398	69.200211	-72.464726	73.735967
22965	10.483243	2.373415	1.189063	-0.221744	-0.093159	-0.704242	69.679355	-72.109709	73.089003
22966	9.853752	2.420007	1.325881	-0.191716	-0.067004	-0.676878	70.101417	-71.758907	72.529795
22967	9.332059	2.508327	1.461079	-0.152722	-0.050256	-0.663915	70.486423	-71.414629	72.020855
22968	9.515075	3.072431	1.228940	-0.040859	-0.092959	-0.635240	70.977109	-71.088750	71.478222
22969	9.434749	3.533129	1.078079	-0.037205	-0.078347	-0.585213	71.397424	-70.789952	70.999977
22970	8.984598	3.907349	1.113508	-0.119756	-0.083070	-0.505569	71.730175	-70.530272	70.574866
22971	8.736449	3.807885	1.117523	-0.195959	-0.104039	-0.397044	71.982519	-70.336578	70.177387
22972	8.667094	3.664955	1.131016	-0.245896	-0.079126	-0.265093	72.103918	-70.206109	69.898992
22973	8.681116	3.685033	1.161236	-0.251565	-0.061392	-0.133660	72.124079	-70.147758	69.714364
22974	8.603163	3.667844	1.273261	-0.294173	-0.018401	0.009089	71.990233	-70.156006	69.677707
22975	8.452025	3.283839	1.277776	-0.317933	-0.004117	0.142709	71.750040	-70.238015	69.729877
22976	8.447637	3.138398	1.385987	-0.325877	-0.017706	0.285505	71.457366	-70.396520	69.842640
22977	8.452108	2.878222	1.421999	-0.346225	0.006204	0.440898	71.026393	-70.638084	70.080092
22978	8.583532	2.581170	1.499274	-0.320651	0.030570	0.591663	70.486172	-70.952512	70.457819
22979	8.749134	2.464413	1.472396	-0.224889	0.061127	0.736718	69.847964	-71.341263	70.986743
22980	8.837297	2.362848	1.501168	-0.169321	0.088628	0.872389	69.094592	-71.791800	71.678799
22981	8.905073	2.321365	1.601234	-0.126165	0.103903	1.000884	68.213228	-72.307942	72.519770
22982	9.001583	2.278297	1.615180	-0.088099	0.123769	1.120879	67.189212	-72.875610	73.540221
22983	9.120827	2.151076	1.559646	-0.068084	0.142013	1.220214	65.990400	-73.488691	74.742149
22984	9.148804	2.099344	1.540941	-0.040548	0.141849	1.325936	64.633118	-74.145588	76.131397
22985	9.203864	2.082778	1.541956	-0.057625	0.149082	1.417787	63.038638	-74.841011	77.741966
22986	9.192202	1.910615	1.568145	-0.064406	0.144454	1.502174	61.216555	-75.564001	79.588513
22987	9.196150	1.879425	1.546103	-0.070500	0.156730	1.575841	59.076548	-76.306546	81.743022
22988	9.265913	1.813525	1.500864	-0.066138	0.153063	1.645376	56.621836	-77.059266	84.226714
22989	9.241871	1.834202	1.565264	-0.087117	0.175083	1.709454	53.696124	-77.810199	87.163063
22990	9.323083	1.795095	1.515526	-0.111226	0.186742	1.758636	50.283469	-78.539983	90.584641
22991	9.200932	1.637622	1.431224	-0.131220	0.194216	1.802861	46.286570	-79.241590	94.571368
22992	9.286955	1.580830	1.425748	-0.172081	0.202055	1.852094	41.619326	-79.897259	99.216764
22993	9.311877	1.443269	1.340075	-0.203499	0.211734	1.884255	36.200379	-80.485730	104.588121
22994	9.341163	1.237967	1.314973	-0.247155	0.212386	1.910692	30.046405	-80.985311	110.679873
22995	9.249522	0.961554	1.223707	-0.268238	0.206678	1.930084	23.167607	-81.379396	117.476062
22996	9.317614	0.668365	1.221459	-0.279120	0.179123	1.952667	15.714064	-81.658794	124.850196
22997	9.282858	0.494689	1.315566	-0.289321	0.188867	1.969143	7.786133	-81.786570	132.684940
22998	9.207412	0.316483	1.223278	-0.229773	0.206896	1.979913	-0.219087	-81.746794	140.640358
22999	9.149584	0.131386	1.200388	-0.185436	0.207084	1.975301	-7.980649	-81.550180	148.368821
23000	8.997108	-0.044676	1.178479	-0.156677	0.204053	1.967596	-15.203939	-81.212434	155.583678
23001	8.935669	-0.337223	1.115857	-0.134562	0.197520	1.964665	-21.803818	-80.749510	162.179472
23002	9.101917	-0.274843	1.253742	-0.074572	0.183007	1.966034	-27.683507	-80.186007	168.098042
23003	9.295836	-0.513061	1.289277	-0.036719	0.190235	1.939767	-32.787935	-79.533304	173.253739
23004	9.457119	-0.931186	1.146484	0.052458	0.201103	1.890380	-37.065749	-78.822002	177.639553
23005	9.528162	-1.146023	1.116783	0.114902	0.192007	1.836358	-40.688782	-78.076868	-178.603405
23006	9.368547	-1.188283	1.273502	0.173038	0.183689	1.793544	-43.762138	-77.311615	-175.356321
23007	9.341140	-1.097437	1.428872	0.255180	0.163397	1.766255	-46.422245	-76.529487	-172.483124
23008	9.292470	-1.188774	1.372922	0.347991	0.149172	1.734203	-48.692636	-75.741790	-169.939232
23009	9.294868	-1.489726	1.321999	0.403217	0.149000	1.718382	-50.662583	-74.936501	-167.671651
23010	9.362688	-1.873977	1.334696	0.398963	0.191204	1.681666	-52.300362	-74.117565	-165.735079
23011	9.445889	-2.134981	1.448619	0.413065	0.224368	1.629455	-53.648755	-73.295321	-164.090891
23012	9.478181	-2.148290	1.506862	0.405467	0.252575	1.540362	-54.721383	-72.498060	-162.725532
23013	9.438084	-2.431935	1.485460	0.387450	0.250448	1.440476	-55.607127	-71.739151	-161.568586
23014	9.207490	-2.421934	1.670269	0.356088	0.237486	1.356256	-56.366043	-71.021960	-160.552420
23015	9.030463	-2.439324	1.748640	0.383466	0.215533	1.279631	-57.011113	-70.341877	-159.642916
23016	8.952961	-2.264947	1.830783	0.399429	0.186364	1.203632	-57.567505	-69.706910	-158.807357
23017	8.777736	-2.071794	1.830054	0.402936	0.152710	1.142647	-58.077153	-69.106656	-158.022907
23018	8.543110	-1.849955	1.991548	0.354834	0.102018	1.062148	-58.577483	-68.560990	-157.268325
23019	8.365188	-1.734234	1.819985	0.289859	0.081289	0.994259	-59.061518	-68.050104	-156.574726
23020	8.428618	-1.603872	1.793547	0.288098	0.035277	0.890777	-59.500174	-67.603927	-155.922750
23021	8.319414	-1.747865	1.608650	0.113044	0.010810	0.767210	-59.963413	-67.221982	-155.356182
23022	8.476010	-2.032290	1.592165	0.019165	-0.070642	0.660292	-60.486076	-66.916575	-154.776713
23023	8.709259	-2.358804	1.653047	-0.124898	-0.137702	0.572308	-61.099276	-66.669902	-154.191964
23024	8.667777	-3.082543	1.427074	-0.291868	-0.164851	0.474389	-61.764453	-66.479165	-153.649252
23025	8.596165	-3.521031	1.286976	-0.284633	-0.164619	0.380983	-62.360098	-66.331634	-153.181411
23026	8.482479	-3.513310	1.274282	-0.254736	-0.160022	0.259623	-62.853755	-66.244493	-152.801616
23027	8.275141	-3.374002	1.313639	-0.284932	-0.169129	0.130622	-63.297873	-66.222706	-152.498943
23028	8.075213	-3.170089	1.346373	-0.309038	-0.185078	0.005121	-63.700181	-66.270100	-152.252827
23029	8.049611	-2.975214	1.375235	-0.335563	-0.210166	-0.123607	-64.075810	-66.387725	-152.056799
23030	8.152732	-2.661341	1.444579	-0.302411	-0.224615	-0.245440	-64.381669	-66.572982	-151.912173
23031	8.165020	-2.225695	1.396657	-0.346670	-0.219018	-0.369304	-64.639819	-66.819083	-151.851290
23032	8.238929	-1.935249	1.244461	-0.330497	-0.239527	-0.499204	-64.841050	-67.138955	-151.838374
23033	8.376001	-1.564609	1.136190	-0.368615	-0.259040	-0.617790	-65.023115	-67.523803	-151.873206
23034	9.719031	-1.728141	0.796881	-0.389397	-0.365435	-0.601227	-65.364718	-67.926951	-151.745142
23035	11.855727	-2.332110	1.284440	-0.489118	-0.651484	-0.263103	-66.346115	-68.218909	-150.991502
23036	12.659024	-6.155262	4.055761	-1.355529	-0.524303	0.097197	-67.878607	-68.286947	-150.177746
23037	11.689741	-11.783428	2.284825	-1.069940	-0.239944	0.025786	-68.834924	-68.325526	-149.810350
23038	9.999119	-10.265315	0.426939	0.010287	-0.054970	-0.219847	-68.796235	-68.456772	-149.845612
23039	8.716209	-7.766843	0.941257	0.146699	-0.146349	-0.434761	-68.690896	-68.719349	-149.874492
23040	9.385527	-6.526130	1.866282	0.375411	-0.281558	-0.518061	-68.593117	-69.056964	-149.748730
23041	10.341495	-5.470569	1.747243	0.481928	-0.345916	-0.525933	-68.523648	-69.409075	-149.535875
23042	10.682161	-4.271121	1.679702	0.609079	-0.288656	-0.524124	-68.299427	-69.751592	-149.402756
23043	10.282721	-2.829456	2.170165	0.656428	-0.249916	-0.558559	-67.971976	-70.100873	-149.359727
23044	9.679655	-1.490158	2.337761	0.678865	-0.240244	-0.583708	-67.594462	-70.464992	-149.347577
23045	9.406360	-0.706336	2.378406	0.631786	-0.250533	-0.585952	-67.254073	-70.829347	-149.332760
23046	9.295166	-0.633073	2.228899	0.556355	-0.245614	-0.563464	-66.956056	-71.183998	-149.310833
23047	9.262350	-0.569482	2.023547	0.539736	-0.239035	-0.533599	-66.674187	-71.518747	-149.288693
23048	9.171034	-0.693059	1.789909	0.454992	-0.240718	-0.514306	-66.451000	-71.846490	-149.249212
23049	9.105452	-1.358057	1.578354	0.351964	-0.254235	-0.507138	-66.312678	-72.171384	-149.188114
23050	9.165993	-1.966237	1.450684	0.301997	-0.265083	-0.521269	-66.208315	-72.508458	-149.116079
23051	9.211217	-2.207030	1.361180	0.224198	-0.281448	-0.539678	-66.163575	-72.857006	-149.033277
23052	9.366079	-2.464499	1.167019	0.117355	-0.299552	-0.554703	-66.200380	-73.219609	-148.924536
23053	9.416081	-2.880135	1.076551	0.051977	-0.292356	-0.564293	-66.259083	-73.583640	-148.836894
23054	9.423043	-3.098474	1.000477	0.073799	-0.267427	-0.564378	-66.261960	-73.943862	-148.789897
23055	9.299343	-3.212990	0.787417	0.137558	-0.245567	-0.555458	-66.196875	-74.292373	-148.780514
23056	9.281776	-2.878863	0.922184	0.193743	-0.240192	-0.548954	-66.092074	-74.638225	-148.774116
23057	9.192659	-2.436286	1.087050	0.204580	-0.235800	-0.552470	-65.968660	-74.982786	-148.785738
23058	9.166654	-2.085476	1.094525	0.195238	-0.258324	-0.549067	-65.894155	-75.332936	-148.747138
23059	9.428564	-2.100005	0.874124	0.162203	-0.283817	-0.557071	-65.884392	-75.691148	-148.666401
23060	9.764952	-2.022869	0.589668	0.179031	-0.273747	-0.571295	-65.830705	-76.056545	-148.616038
23061	9.930409	-1.785999	0.285562	0.198137	-0.279966	-0.589457	-65.763262	-76.430883	-148.573583
23062	9.865725	-1.370858	0.248816	0.145689	-0.303974	-0.599818	-65.767267	-76.818308	-148.483722
23063	9.800348	-1.167201	0.367951	0.094963	-0.316426	-0.595874	-65.837886	-77.204756	-148.359924
23064	9.794689	-1.012295	0.563422	0.086425	-0.311694	-0.591465	-65.911522	-77.589579	-148.233790
23065	9.819589	-0.836584	0.561642	0.081514	-0.300265	-0.583722	-65.976173	-77.966082	-148.123729
23066	10.014351	-0.766905	0.496652	0.100615	-0.298653	-0.584223	-66.029411	-78.344012	-148.010495
23067	10.114114	-0.665382	0.510813	0.113187	-0.285816	-0.574392	-66.059765	-78.712519	-147.916499
23068	10.098500	-0.569281	0.616333	0.125917	-0.280544	-0.562042	-66.086393	-79.074595	-147.815908
23069	9.896012	-0.381833	0.729513	0.115281	-0.280340	-0.545083	-66.144835	-79.426764	-147.691576
23070	9.721988	-0.289844	0.717723	0.109239	-0.279881	-0.519485	-66.243742	-79.766334	-147.527449
23071	9.722513	-0.234852	0.648924	0.086349	-0.277916	-0.502274	-66.382049	-80.095723	-147.338320
23072	9.737629	-0.209756	0.519433	0.055395	-0.270724	-0.496065	-66.535339	-80.420756	-147.150655
23073	9.818302	0.021195	0.720071	-0.021126	-0.279086	-0.494403	-66.774362	-80.746388	-146.921434
23074	9.852461	-0.095372	0.600536	-0.116254	-0.292848	-0.484369	-67.146533	-81.069925	-146.612055
23075	9.841262	-0.339505	0.526992	-0.180714	-0.280920	-0.468147	-67.562929	-81.381933	-146.295466
23076	9.709542	-0.547163	0.425347	-0.189143	-0.271322	-0.449918	-68.004358	-81.681797	-145.958809
23077	9.590787	-0.814585	0.216871	-0.210203	-0.269054	-0.436748	-68.497094	-81.974006	-145.582119
23078	9.606529	-0.890951	0.303336	-0.196659	-0.263654	-0.426401	-69.010168	-82.258839	-145.177973
23079	9.645712	-0.975143	0.301176	-0.216655	-0.264101	-0.421230	-69.578365	-82.540813	-144.729149
23080	9.630567	-1.138235	0.223315	-0.206651	-0.257323	-0.415288	-70.161973	-82.817284	-144.260189
23081	9.676225	-1.064919	0.211076	-0.160599	-0.251124	-0.414878	-70.732383	-83.092128	-143.777245
23082	9.715007	-1.083789	0.103615	-0.141281	-0.243274	-0.416008	-71.297876	-83.365122	-143.289366
23083	9.751954	-1.033761	0.004924	-0.109156	-0.246353	-0.410934	-71.911536	-83.635726	-142.733735
23084	9.713951	-0.959944	-0.025057	-0.092882	-0.234247	-0.398656	-72.526539	-83.896406	-142.168676
23085	9.691431	-0.816299	-0.061248	-0.065795	-0.233817	-0.391297	-73.186641	-84.152728	-141.541873
23086	9.574837	-0.760966	-0.254229	-0.079642	-0.227365	-0.388854	-73.882534	-84.405429	-140.888424
23087	9.736262	-0.853097	0.103586	-0.111071	-0.221213	-0.392185	-74.617715	-84.658677	-140.212683
23088	9.833287	-0.471992	0.284378	-0.163449	-0.220618	-0.384409	-75.463536	-84.906122	-139.457449
23089	9.722561	-0.774195	0.147835	-0.202206	-0.201932	-0.366992	-76.317901	-85.140785	-138.714896
23090	9.717925	-0.752683	0.226380	-0.178748	-0.197899	-0.363092	-77.218475	-85.371179	-137.914059
23091	9.724720	-1.130664	0.167373	-0.142374	-0.178390	-0.367438	-78.036727	-85.601149	-137.173830
23092	9.856581	-1.052965	-0.105780	-0.023341	-0.183646	-0.368305	-78.910678	-85.830766	-136.310905
23093	9.820028	-0.928017	-0.149918	0.035610	-0.179672	-0.371811	-79.812442	-86.061387	-135.385369
23094	9.858195	-0.671333	-0.229526	0.079210	-0.179439	-0.372024	-80.799958	-86.290522	-134.350227
23095	9.751003	-0.415442	-0.247107	0.054607	-0.180738	-0.364686	-81.956235	-86.514738	-133.159316
23096	9.778921	-0.263255	-0.209976	0.012888	-0.168606	-0.362879	-83.179036	-86.734976	-131.927055
23097	9.774761	-0.248821	-0.199621	-0.018360	-0.164594	-0.370666	-84.546574	-86.958235	-130.566808
23098	9.790472	-0.346278	-0.119177	-0.063674	-0.146906	-0.379983	-85.942417	-87.183585	-129.205731
23099	9.876274	-0.267391	0.002715	-0.085597	-0.143987	-0.401226	-87.542757	-87.419680	-127.651405
23100	9.909630	-0.185898	-0.040395	-0.123249	-0.152751	-0.405730	-89.601530	-87.655463	-125.661474
23101	9.945930	-0.346604	-0.100445	-0.135438	-0.143752	-0.396038	-91.974634	-87.882915	-123.362808
23102	9.823179	-0.503686	-0.293082	-0.106810	-0.125997	-0.388407	-94.564846	-88.101888	-120.832300
23103	9.726326	-0.489341	-0.451247	-0.040784	-0.111577	-0.380794	-97.482060	-88.313490	-117.935643
23104	9.684139	-0.372888	-0.560948	0.009555	-0.124655	-0.371729	-101.425271	-88.512406	-113.985505
23105	9.733568	-0.291050	-0.617528	0.030189	-0.119384	-0.360227	-106.342575	-88.697201	-109.048095
23106	9.656908	-0.205709	-0.552859	0.047928	-0.116447	-0.348585	-112.584361	-88.863274	-102.777491
23107	9.656461	-0.221566	-0.468899	0.038590	-0.107001	-0.334747	-120.353043	-89.007706	-94.983987
23108	9.552378	-0.263922	-0.284378	0.033322	-0.100027	-0.335501	-130.295153	-89.130542	-85.021534
23109	9.638385	-0.244125	-0.136860	0.026247	-0.105361	-0.339952	-143.304115	-89.218681	-71.994858
23110	9.795697	-0.276093	-0.180007	0.032838	-0.097326	-0.331345	-158.067987	-89.260551	-57.210935
23111	9.853262	-0.279705	-0.389337	0.078006	-0.083348	-0.308960	-172.421047	-89.256000	-42.810757
23112	9.827654	-0.146444	-0.538285	0.132397	-0.074907	-0.284373	175.271234	-89.213104	-30.426134
23113	9.755580	0.253273	-0.518173	0.172449	-0.074003	-0.265916	165.336949	-89.141197	-20.390871
23114	9.809337	0.537110	-0.576981	0.183142	-0.075247	-0.237785	158.096063	-89.053371	-13.044195
23115	9.737767	0.587601	-0.612467	0.176960	-0.057516	-0.208695	152.699717	-88.969201	-7.544258
23116	9.577727	0.280823	-0.583663	0.175142	-0.025107	-0.181289	148.363581	-88.901669	-3.107055
23117	9.289678	-0.085181	-0.522274	0.249355	-0.032592	-0.172078	144.907281	-88.827477	0.494445
23118	9.369809	-0.376311	-0.385025	0.270806	-0.049053	-0.173894	142.139240	-88.741902	3.418258
23119	9.759394	0.047646	0.432870	0.313511	-0.087230	-0.210690	139.669860	-88.622762	6.069416
23120	10.265091	0.478747	0.549472	0.217672	-0.101275	-0.246625	137.202243	-88.481983	8.662531
23121	10.429255	0.611394	0.592664	0.119388	-0.083279	-0.270697	134.517204	-88.335642	11.418449
23122	10.132875	0.488310	0.175589	0.107545	-0.065593	-0.271409	132.030912	-88.193216	13.967484
23123	9.945746	0.395344	-0.226755	0.088533	-0.057837	-0.274596	129.763013	-88.048649	16.288874
23124	9.778503	0.518033	-0.655374	0.106072	-0.071553	-0.275917	127.987203	-87.896582	18.126565
23125	9.895101	0.586110	-0.708413	0.018091	-0.066880	-0.275727	126.348189	-87.743690	19.778783
23126	9.931071	0.527094	-0.384275	-0.077963	-0.061680	-0.272789	124.835978	-87.592906	21.247499
23127	9.943562	0.458961	-0.156236	-0.137835	-0.049993	-0.287421	123.233616	-87.436612	22.774126
23128	9.921329	0.441601	-0.088683	-0.171032	-0.038440	-0.311829	121.525049	-87.270951	24.386377
