// General information: 
//  MT Manager version: 2022.2.0 
//  XDA version: 2022.2.0 build 7381 rev 124627 built on 2023-07-19
// Device information: 
//  DeviceId: 00B4BB4E
//  ProductCode: MTW2-3A7G6
//  Firmware Version: 4.6.0
//  Hardware Version: 2.0.0
// Device settings: 
//  Filter Profile: human(46.1)
//  Option Flags: Orientation Smoother Disabled, Position/Velocity Smoother Disabled, Continuous Zero Rotation Update Disabled, AHS Disabled, ICC Disabled
// Coordinate system: ENU
PacketCounter	Acc_X	Acc_Y	Acc_Z	Gyr_X	Gyr_Y	Gyr_Z	Roll	Pitch	Yaw
33839	9.123037	-2.475198	2.647740	-1.510471	0.423753	1.910691	-54.301573	-79.932119	16.857561
33840	9.085818	-2.464688	2.845575	-1.560634	0.511044	1.891800	-57.179251	-78.869157	18.875997
33841	8.958870	-2.541624	2.503813	-1.749975	0.630033	1.865400	-59.426056	-77.767507	20.146779
33842	8.772022	-2.747550	2.114327	-1.875583	0.694753	1.823252	-61.266053	-76.660362	20.932167
33843	8.683062	-2.735767	2.167546	-1.916368	0.760829	1.760243	-62.732781	-75.562440	21.312346
33844	8.543482	-2.558152	2.582588	-2.006884	0.866662	1.675258	-63.847041	-74.479331	21.276098
33845	8.320640	-2.609815	2.679633	-2.165569	0.938874	1.588861	-64.782634	-73.422858	20.958892
33846	8.226046	-2.566114	2.633436	-2.353479	0.984392	1.502895	-65.647761	-72.402054	20.453881
33847	8.051010	-2.768063	2.320094	-2.549108	1.025518	1.405799	-66.471713	-71.424414	19.784566
33848	8.111574	-2.870501	2.342254	-2.585746	1.036854	1.302525	-67.227470	-70.501991	19.017453
33849	8.115532	-2.872696	2.309303	-2.722564	1.100810	1.211845	-67.916550	-69.616393	18.091433
33850	8.001002	-2.955963	1.986541	-2.859849	1.136340	1.113055	-68.591345	-68.780084	17.061104
33851	8.024419	-3.058589	2.088870	-2.882665	1.153740	1.013741	-69.219086	-67.997023	15.960136
33852	7.999867	-3.108091	2.279992	-2.932940	1.162311	0.926516	-69.840111	-67.263989	14.815162
33853	8.155439	-3.304610	2.072769	-3.040074	1.155471	0.852130	-70.513546	-66.576867	13.654166
33854	8.224534	-3.271514	1.641886	-3.127106	1.131712	0.788599	-71.253774	-65.934743	12.506124
33855	8.147767	-3.315280	1.421343	-3.145209	1.089462	0.718604	-72.037883	-65.344021	11.389030
33856	8.172685	-3.393946	1.433262	-3.129734	1.054966	0.651913	-72.838079	-64.802609	10.294690
33857	8.303611	-3.583561	1.346631	-3.047722	1.016204	0.588452	-73.620848	-64.308345	9.228118
33858	8.442172	-3.885801	1.205434	-2.961916	0.972002	0.522776	-74.389987	-63.863976	8.197155
33859	8.494491	-4.346298	1.006920	-2.750232	0.918280	0.472614	-75.087881	-63.460741	7.217972
33860	8.409998	-4.486173	0.931394	-2.544924	0.873821	0.424794	-75.709242	-63.095964	6.281833
33861	8.315023	-4.503913	1.045743	-2.339905	0.820077	0.372062	-76.262013	-62.771779	5.397402
33862	8.293025	-4.372576	1.325466	-2.128883	0.744211	0.330049	-76.769534	-62.485384	4.596063
33863	8.106424	-4.637740	1.365048	-2.023748	0.665265	0.300225	-77.296604	-62.228605	3.882477
33864	8.163362	-3.430900	0.778001	-1.836905	0.503385	0.244857	-77.876787	-62.026480	3.348907
33865	9.453273	-3.157384	-0.819676	-2.193556	0.512226	0.233035	-78.648602	-61.832391	2.799614
33866	8.526762	-3.967107	1.061766	-1.225014	0.423465	0.157657	-78.943096	-61.693480	2.337897
33867	8.035582	-2.582868	2.935008	-1.355556	0.453460	-0.012838	-79.246775	-61.647897	1.800927
33868	7.812692	-3.832283	-0.269120	-1.694000	0.429684	-0.236620	-79.725103	-61.733089	1.242490
33869	8.131339	-3.184479	0.275060	-0.793358	0.387176	-0.527590	-79.673268	-61.987185	0.668622
33870	8.033144	-1.341658	1.515579	-0.745727	0.301449	-0.770623	-79.631199	-62.387331	0.138679
33871	8.751173	-1.506948	0.307855	-1.007193	0.215685	-0.946816	-79.788863	-62.895419	-0.333112
33872	9.417249	-1.865522	-0.693326	-1.243349	0.139393	-0.902562	-80.171490	-63.387567	-0.702057
33873	10.162881	-2.736661	-4.017309	-1.958860	0.081369	-0.681301	-81.076252	-63.761564	-0.944537
33874	10.304373	-3.605398	-5.853266	-1.459131	-0.023051	-0.513013	-81.853035	-64.050954	-1.009813
33875	9.249654	-2.801089	-4.547948	-1.084652	-0.253343	-0.461389	-82.701698	-64.328899	-0.756957
33876	8.516807	-3.604197	-6.134313	-1.071474	-0.432623	-0.534470	-83.758922	-64.658910	-0.265093
33877	9.111898	-5.323909	-5.993175	-0.664337	-0.666215	-0.649498	-84.874006	-65.063494	0.546634
33878	10.485065	-5.952595	-3.383354	-0.002430	-0.633818	-0.672882	-85.594498	-65.474513	1.339020
33879	12.289278	-6.114667	2.329823	0.911987	-0.520182	-0.594253	-85.675367	-65.833097	2.001692
33880	11.296683	-3.097663	5.268084	0.986316	-0.135706	-0.404906	-85.245808	-66.067148	2.150811
33881	9.436478	-0.806403	2.826870	0.207312	-0.067733	-0.397104	-85.175388	-66.293540	2.204098
33882	8.797045	0.618908	6.085562	-0.739668	0.017610	-0.509784	-85.524955	-66.580479	2.123786
33883	7.060523	-1.107692	5.281579	-2.198819	0.135805	-0.605410	-86.551779	-66.917650	1.870727
33884	6.252010	-3.604885	1.657137	-2.746024	-0.106803	-0.694925	-88.229983	-67.314752	1.985193
33885	9.073192	-5.837415	2.444239	-2.662016	-0.306762	-0.720098	-90.168826	-67.726177	2.433400
33886	11.263183	-8.728140	0.409472	-2.406328	-0.143286	-0.719709	-91.769781	-68.133575	2.673859
33887	10.185821	-9.816048	-2.007931	-1.372720	-0.134199	-0.676166	-92.790743	-68.513887	2.926671
33888	8.823464	-9.888204	-1.322880	-0.205708	-0.334731	-0.674445	-93.456141	-68.885742	3.515009
33889	8.821931	-8.978967	-2.090723	0.846332	-0.461033	-0.633991	-93.721839	-69.227797	4.319086
33890	8.945859	-6.667275	-2.273428	1.653480	-0.544962	-0.557576	-93.659367	-69.522944	5.265244
33891	9.073736	-4.029195	-2.328825	1.997835	-0.543931	-0.510758	-93.404869	-69.791736	6.214895
33892	9.214802	-1.423426	-1.370482	2.051790	-0.526179	-0.492312	-93.099073	-70.052701	7.141623
33893	9.440792	0.770234	-0.333361	1.496875	-0.434793	-0.514584	-92.978338	-70.329844	7.925146
33894	9.770222	1.488176	-0.218857	0.781239	-0.344921	-0.515928	-93.134186	-70.610942	8.566101
33895	10.034463	1.349285	-0.057077	-0.024715	-0.256290	-0.479779	-93.617183	-70.872776	9.063096
33896	9.751244	-0.256997	-0.532892	-0.731233	-0.152380	-0.451877	-94.343835	-71.121426	9.389167
33897	9.610888	-1.579579	-1.052272	-1.129250	-0.075500	-0.422460	-95.179715	-71.355211	9.589092
33898	9.197252	-2.832301	-1.443244	-1.343372	-0.012786	-0.427274	-96.044996	-71.594528	9.690549
33899	9.002368	-3.878514	-1.407808	-1.175051	-0.053976	-0.448319	-96.901610	-71.842429	9.884128
33900	9.223199	-4.023516	-1.674699	-1.160424	0.049236	-0.473212	-97.587709	-72.111322	9.907095
33901	8.917660	-4.445802	-1.923297	-0.786590	0.049634	-0.482985	-98.070776	-72.385445	9.941543
33902	9.269393	-3.451929	-1.559718	-0.336653	-0.013982	-0.500168	-98.421446	-72.664264	10.107604
33903	9.535236	-2.396989	-1.519033	-0.249930	-0.010802	-0.490965	-98.722597	-72.937546	10.273363
33904	9.576427	-1.564814	-1.347382	-0.378655	-0.013531	-0.460477	-99.100930	-73.193341	10.442700
33905	9.520482	-1.296731	-1.056660	-0.614074	0.018766	-0.429424	-99.553201	-73.433930	10.547975
33906	9.452183	-1.553370	-0.866640	-0.823110	0.057861	-0.397906	-100.047473	-73.660563	10.572250
33907	9.461364	-2.025005	-0.523186	-0.968537	0.084590	-0.391045	-100.579162	-73.885758	10.548498
33908	9.349462	-2.512351	-0.389815	-1.082921	0.124775	-0.391547	-101.103635	-74.115861	10.449275
33909	9.120234	-3.028678	-0.452242	-1.067023	0.110462	-0.393812	-101.655575	-74.345637	10.387997
33910	9.215546	-3.316635	-0.595854	-1.119575	0.109228	-0.403183	-102.250448	-74.580905	10.340272
33911	9.419065	-3.529499	-0.945559	-1.012297	0.084268	-0.391839	-102.838874	-74.806592	10.349456
33912	9.437848	-3.374138	-1.074292	-1.089948	0.118752	-0.391101	-103.407589	-75.036569	10.292326
33913	9.308898	-3.547799	-1.363313	-0.983620	0.112416	-0.390243	-103.936751	-75.265057	10.257154
33914	9.274874	-3.077958	-1.413880	-1.025385	0.161571	-0.405056	-104.398996	-75.509024	10.128345
33915	9.029151	-2.988062	-1.367117	-0.996774	0.131253	-0.425239	-104.929107	-75.759729	10.086425
33916	9.272924	-2.612903	-1.161343	-1.004346	0.083586	-0.458067	-105.596529	-76.021811	10.181894
33917	9.369466	-2.554128	-1.038057	-1.127294	0.124072	-0.499173	-106.285924	-76.312267	10.227082
33918	9.741647	-2.093785	-1.112472	-1.241688	0.111989	-0.506536	-107.088783	-76.604963	10.321751
33919	10.008343	-1.906829	-1.313878	-1.212620	0.101961	-0.480263	-107.900012	-76.880875	10.441770
33920	9.964837	-1.984299	-0.920389	-1.200417	0.130668	-0.482618	-108.655842	-77.163188	10.512225
33921	9.492022	-2.718172	-0.755488	-1.246955	0.165346	-0.502276	-109.390716	-77.462038	10.533544
33922	9.442911	-3.383608	-0.746360	-1.091939	0.139085	-0.487553	-110.104347	-77.748143	10.624269
33923	9.442147	-3.373605	-0.518521	-0.863177	0.121835	-0.463715	-110.727080	-78.017359	10.755725
33924	9.298085	-2.880274	-0.582196	-0.751267	0.103813	-0.486687	-111.369813	-78.295228	10.973259
33925	9.331171	-2.817997	-0.848182	-0.655099	0.068460	-0.497939	-112.083884	-78.570600	11.319349
33926	9.413177	-2.584445	-0.608346	-0.568400	0.033530	-0.492414	-112.859463	-78.834916	11.778774
33927	9.245725	-2.778172	-0.841471	-0.529941	0.000350	-0.500903	-113.744479	-79.094369	12.371433
33928	9.223659	-2.818616	-0.938893	-0.389623	-0.073265	-0.498917	-114.783569	-79.333997	13.202581
33929	9.445144	-2.714470	-0.669735	-0.198773	-0.126118	-0.491036	-115.893376	-79.553097	14.215946
33930	9.465279	-2.187243	-0.449819	-0.045947	-0.158999	-0.473066	-117.025295	-79.751447	15.340441
33931	9.487784	-1.561184	-0.718442	0.008231	-0.197981	-0.450661	-118.247678	-79.923306	16.587386
33932	9.689199	-0.731300	-0.740741	0.000402	-0.195005	-0.427064	-119.468955	-80.079987	17.828353
33933	9.787230	0.004371	-1.008246	-0.175292	-0.127266	-0.423971	-120.632386	-80.249484	18.907507
33934	9.869850	0.120323	-1.166655	-0.285786	-0.015505	-0.416546	-121.561211	-80.445583	19.684198
33935	9.820455	-0.015862	-0.918407	-0.435149	0.004050	-0.393571	-122.513131	-80.633773	20.396821
33936	9.834406	-0.679701	-1.007025	-0.541407	0.054097	-0.360066	-123.345581	-80.820121	20.926606
33937	9.744217	-1.154602	-1.031579	-0.507627	0.096684	-0.348782	-124.037337	-81.012968	21.332967
33938	9.652874	-1.291748	-1.221690	-0.515895	0.114846	-0.337664	-124.677579	-81.206177	21.682437
33939	9.488086	-1.240799	-1.408920	-0.439073	0.085682	-0.322726	-125.354623	-81.381641	22.113233
33940	9.620238	-0.924886	-1.340687	-0.374802	0.072553	-0.311237	-126.030771	-81.547104	22.580424
33941	9.857199	-0.553183	-1.320392	-0.367503	0.079670	-0.292539	-126.660884	-81.705025	23.004861
33942	9.694202	-0.497545	-1.248146	-0.438406	0.115453	-0.276305	-127.197038	-81.867722	23.293401
33943	9.654819	-0.755799	-1.167816	-0.436799	0.106295	-0.272867	-127.772102	-82.024730	23.621811
33944	9.839804	-0.866453	-1.237119	-0.452672	0.146713	-0.251366	-128.184343	-82.186402	23.776773
33945	9.707528	-0.983980	-1.262662	-0.483926	0.177432	-0.238266	-128.491457	-82.352439	23.807274
33946	9.619656	-1.166644	-1.370242	-0.440563	0.158555	-0.228874	-128.817325	-82.508023	23.881985
33947	9.695531	-1.231726	-1.454915	-0.392481	0.157483	-0.222441	-129.111931	-82.659753	23.952682
33948	9.607263	-1.076104	-1.425129	-0.383650	0.174870	-0.215588	-129.325789	-82.815246	23.947297
33949	9.712152	-0.939574	-1.573984	-0.387441	0.171578	-0.213400	-129.554446	-82.968001	23.954389
33950	9.833319	-1.048835	-1.348677	-0.397773	0.191462	-0.227081	-129.760345	-83.134631	23.932838
33951	9.657469	-1.265336	-1.059807	-0.377670	0.200001	-0.241130	-129.974076	-83.309989	23.930527
33952	9.636843	-1.197847	-1.009857	-0.353422	0.199021	-0.229275	-130.141862	-83.480383	23.896205
33953	9.688992	-1.016194	-1.257713	-0.399708	0.213871	-0.220981	-130.257275	-83.652031	23.782239
33954	9.695684	-0.977390	-1.219982	-0.399621	0.210785	-0.228199	-130.406593	-83.826334	23.702732
33955	9.761117	-1.127365	-1.190685	-0.377926	0.248222	-0.236155	-130.421269	-84.017389	23.500081
33956	9.709142	-1.523633	-1.235967	-0.335184	0.270737	-0.250566	-130.356758	-84.223720	23.242787
33957	9.779869	-1.747502	-1.133283	-0.275821	0.289321	-0.275036	-130.258897	-84.446923	22.985972
33958	9.619118	-2.012827	-0.822038	-0.174764	0.289868	-0.301881	-130.186708	-84.682703	22.813490
33959	9.442019	-1.768591	-0.456547	-0.120566	0.281026	-0.322151	-130.203226	-84.923359	22.761020
33960	9.475214	-1.439538	-0.960326	-0.134795	0.277957	-0.318405	-130.221549	-85.161961	22.702508
33961	9.357621	-0.752387	-0.871301	-0.076377	0.248391	-0.330104	-130.422004	-85.393963	22.860023
33962	9.401704	-0.538707	-0.532151	-0.091599	0.236110	-0.362185	-130.872737	-85.636011	23.260113
33963	9.722904	-0.472860	-0.846777	-0.189450	0.259290	-0.368511	-131.330458	-85.888493	23.610532
33964	9.912248	-0.201530	-1.400047	-0.239298	0.303287	-0.342364	-131.438383	-86.147041	23.581895
33965	9.920901	-0.108545	-1.428175	-0.283379	0.312671	-0.326983	-131.427102	-86.401753	23.408174
33966	9.815718	-0.343518	-1.358152	-0.255212	0.342857	-0.323709	-131.134352	-86.667225	22.969012
33967	9.718955	-0.724974	-1.293982	-0.164188	0.357944	-0.314950	-130.548337	-86.933538	22.288157
33968	9.734574	-0.849981	-1.451986	-0.050212	0.389776	-0.301014	-129.372875	-87.205640	21.082968
33969	9.907183	-0.635229	-1.373543	-0.040666	0.455197	-0.295388	-127.225515	-87.495747	18.910271
33970	9.970553	-0.491660	-1.469400	-0.031492	0.507667	-0.310110	-123.975848	-87.806048	15.640441
33971	9.930204	-0.245340	-1.200313	-0.002468	0.524451	-0.316672	-119.476498	-88.114140	11.137110
33972	9.921067	-0.602539	-1.437412	-0.074248	0.563536	-0.323245	-112.604013	-88.419119	4.219565
33973	9.806270	-0.781077	-1.381591	0.012918	0.571875	-0.328138	-102.476292	-88.693813	-5.903664
33974	9.852397	-0.792319	-1.106057	0.034173	0.601829	-0.354435	-86.719679	-88.922446	-21.643414
33975	10.067117	-0.776330	-1.304693	0.049533	0.644010	-0.360083	-63.853185	-89.027198	-44.484840
33976	10.005567	-0.615924	-1.388261	0.096956	0.708489	-0.361856	-38.727944	-88.930949	-69.557760
33977	9.797564	-0.658750	-1.174301	0.160772	0.717819	-0.373472	-20.181457	-88.674974	-88.015827
33978	9.906652	-0.814041	-1.133524	0.272549	0.731437	-0.368520	-8.402840	-88.319607	-99.641583
33979	9.958650	-0.890551	-0.912157	0.461768	0.749908	-0.366129	-0.853718	-87.909662	-106.929825
33980	9.804490	-0.927514	-0.556541	0.619863	0.748932	-0.365927	4.298784	-87.475521	-111.730407
33981	9.741237	-0.871912	-0.302599	0.629424	0.694484	-0.372644	8.127739	-87.059669	-115.202483
33982	9.938743	-1.035564	-0.072274	0.737169	0.663693	-0.369250	11.131291	-86.651180	-117.786926
33983	10.004907	-0.721530	0.667106	0.918124	0.627717	-0.362411	13.631622	-86.258753	-119.764844
33984	9.854204	-0.499390	0.812565	0.859827	0.616478	-0.372197	15.774941	-85.865129	-121.418796
33985	9.679968	-0.596149	0.225108	0.735266	0.611358	-0.389167	17.643742	-85.469197	-122.870339
33986	9.591568	-0.598664	-0.245449	0.689649	0.569796	-0.411682	19.454659	-85.087012	-124.290311
33987	9.552203	-0.647137	-0.024923	0.654089	0.533107	-0.437637	21.240925	-84.717356	-125.707312
33988	9.588357	-0.937639	0.242570	0.654780	0.506266	-0.459972	22.998443	-84.351938	-127.095354
33989	10.024617	-1.121223	0.421026	0.754282	0.446823	-0.451830	24.711474	-84.017263	-128.382766
33990	10.456542	-0.883581	0.537106	0.917379	0.393482	-0.408057	26.274707	-83.715846	-129.425728
33991	10.296349	-0.459240	0.839149	1.091240	0.351445	-0.371581	27.749571	-83.444138	-130.280688
33992	9.880160	0.328708	0.922880	1.223969	0.243698	-0.309611	29.196305	-83.239674	-131.030580
33993	9.782435	1.519625	0.778787	1.185579	0.113114	-0.236810	30.568763	-83.120423	-131.728675
33994	10.478411	2.677045	0.459121	0.834561	0.000536	-0.110721	31.476856	-83.090420	-132.161111
33995	11.626891	2.961483	0.614081	0.268917	0.076973	0.125562	30.915419	-83.094545	-131.440300
33996	11.391883	2.552021	1.166678	-0.461745	0.264336	0.403757	28.355556	-83.080190	-129.127576
33997	10.772518	1.151675	0.560506	-1.267024	0.288198	0.648387	24.255813	-83.101153	-125.729006
33998	10.545183	-0.159065	-1.049325	-1.868597	0.346737	0.877442	18.693600	-83.102860	-121.204093
33999	9.863073	-1.208464	-2.682338	-2.285382	0.446607	1.068431	11.947536	-83.021573	-115.727349
34000	9.106767	-2.187008	-2.686891	-2.088974	0.289216	1.203265	4.977284	-82.960896	-109.909996
34001	9.032044	-2.148300	-0.187732	-1.743063	0.116451	1.292835	-2.049266	-82.916225	-103.836208
34002	8.977817	-1.910346	1.311837	-2.086485	0.181504	1.360699	-9.356971	-82.736011	-97.675245
34003	8.479847	-2.477380	0.570401	-2.520143	0.210094	1.418608	-16.717782	-82.437057	-91.708774
34004	8.273071	-2.892175	-0.330812	-2.429586	0.054897	1.475474	-23.903709	-82.113760	-85.861361
34005	8.331495	-2.784785	-0.387588	-2.247508	-0.072087	1.520749	-30.824051	-81.750363	-80.172871
34006	8.422224	-2.723437	-0.309784	-2.153565	-0.129885	1.557642	-37.328071	-81.310662	-74.844172
34007	8.563614	-2.479435	-0.471888	-2.101489	-0.168408	1.592712	-43.381402	-80.792529	-69.935732
34008	8.532981	-2.328860	-0.709162	-2.134934	-0.164349	1.618876	-48.867969	-80.187175	-65.612503
34009	8.321004	-2.711276	-0.451099	-2.080259	-0.240717	1.620146	-53.934081	-79.546106	-61.677592
34010	8.288997	-3.111874	0.045048	-2.077250	-0.298147	1.630006	-58.604897	-78.861792	-58.133741
34011	7.973623	-3.814423	0.108455	-2.131919	-0.328627	1.624303	-62.895090	-78.139450	-55.003000
34012	7.755029	-4.547175	-0.303098	-2.149970	-0.407278	1.592634	-66.900964	-77.409321	-52.164080
34013	7.923784	-5.260888	-0.513993	-1.884919	-0.501286	1.550695	-70.567319	-76.682498	-49.511115
34014	8.261911	-5.279244	-0.145347	-1.514205	-0.542359	1.501679	-73.742487	-75.955666	-47.135594
34015	8.416875	-5.257114	-0.068640	-1.321135	-0.544317	1.429123	-76.510346	-75.240754	-45.060546
34016	8.551818	-5.096962	-0.018684	-1.052520	-0.563820	1.345209	-78.898268	-74.553272	-43.211236
34017	8.572788	-4.948696	0.398481	-0.871090	-0.568889	1.255744	-80.994187	-73.897708	-41.553142
34018	8.755351	-4.914074	0.780667	-0.651999	-0.578895	1.183921	-82.812230	-73.269531	-40.046672
34019	8.877510	-4.460875	0.943159	-0.572567	-0.542458	1.135060	-84.398514	-72.653464	-38.731988
34020	8.885182	-4.394578	0.953586	-0.554656	-0.569602	1.080668	-85.907851	-72.060677	-37.481015
34021	8.985877	-4.032347	1.372085	-0.439120	-0.616497	1.024575	-87.347592	-71.490755	-36.231482
34022	8.960062	-3.519908	1.662743	-0.516774	-0.596453	0.950478	-88.707126	-70.954790	-35.107629
34023	9.002368	-3.319898	1.673314	-0.661029	-0.586544	0.865732	-90.071648	-70.457489	-34.064542
34024	9.472648	-3.498429	1.746685	-0.685593	-0.571820	0.795299	-91.362872	-69.994227	-33.109200
34025	9.680778	-3.871393	1.668017	-0.614744	-0.542123	0.767125	-92.526269	-69.539386	-32.245997
34026	9.008640	-4.085080	1.482926	-0.641356	-0.468156	0.729117	-93.547257	-69.104444	-31.546832
34027	8.819741	-4.720234	1.407453	-0.544493	-0.503633	0.679176	-94.542264	-68.690770	-30.815983
34028	9.133509	-4.866524	1.831613	-0.291347	-0.524437	0.654351	-95.388427	-68.287651	-30.085245
34029	9.472438	-4.965925	2.128453	-0.106789	-0.486669	0.629876	-96.057333	-67.895454	-29.431474
34030	9.243678	-4.783456	1.538654	-0.076897	-0.278062	0.517601	-96.411337	-67.579724	-29.095903
34031	9.275860	-3.708687	0.162673	-0.234099	-0.158035	0.313874	-96.719427	-67.385330	-28.908784
34032	9.104643	-4.115131	0.148762	-0.025045	-0.192095	0.191882	-96.965549	-67.259432	-28.656928
34033	8.360885	-2.395782	1.411622	0.708148	-0.312139	0.052804	-96.980322	-67.202271	-28.202055
34034	8.434336	-1.120054	0.866791	0.637388	-0.129206	-0.175237	-96.820689	-67.289423	-27.978478
34035	8.533117	-1.652799	2.288901	1.008370	-0.200440	-0.454718	-96.596401	-67.529421	-27.596712
34036	9.408609	0.175281	6.755151	1.303840	-0.155839	-0.753526	-96.185209	-67.944916	-27.233143
34037	6.467663	0.010568	2.382976	0.833261	-0.325085	-1.240351	-96.373622	-68.625791	-26.517259
34038	11.039605	-0.065616	-1.006710	1.721851	-0.647263	-1.802651	-96.661933	-69.606294	-25.152128
34039	16.756665	1.820361	3.550397	1.584091	-0.248508	-1.580121	-96.434293	-70.484464	-24.429361
34040	14.356880	4.333179	3.917734	0.756892	-0.181818	-0.774244	-96.440269	-70.909978	-23.962883
34041	11.703702	5.625229	1.739270	-0.571742	-0.006843	-0.384582	-96.859049	-71.123845	-23.866742
34042	9.790926	2.645306	0.497979	-1.969631	0.261139	-0.643498	-97.688790	-71.504879	-24.181498
34043	9.681554	-2.670177	-0.634681	-1.979939	0.183317	-0.925993	-98.743362	-72.040880	-24.265656
34044	10.189503	-6.196143	-2.844486	-1.803730	0.261415	-0.833217	-99.553305	-72.532351	-24.499660
34045	8.137752	-7.978476	-3.069757	-0.820236	0.261068	-0.705754	-99.772963	-72.951881	-24.761892
34046	7.259604	-6.726077	-1.212690	0.119421	-0.126645	-0.698276	-100.170749	-73.329684	-24.274108
34047	8.359584	-5.770866	-1.399921	0.312246	-0.167689	-0.674372	-100.552025	-73.687947	-23.690156
34048	8.098022	-5.030694	-1.607674	0.721190	-0.163351	-0.625455	-100.686396	-74.019244	-23.119451
34049	7.966478	-3.042108	-0.970350	1.011525	-0.234267	-0.619598	-100.812291	-74.338215	-22.386546
34050	8.126583	-1.365656	-0.521540	0.929016	-0.284587	-0.647779	-101.113690	-74.667904	-21.520774
34051	9.036392	-0.631793	-0.065636	0.671319	-0.296904	-0.672838	-101.631577	-75.007482	-20.586015
34052	10.381894	0.125771	0.390749	0.280471	-0.219399	-0.678687	-102.241488	-75.358246	-19.788269
34053	10.365859	-0.631042	0.076160	-0.268134	-0.078723	-0.693904	-102.908158	-75.731740	-19.258687
34054	9.904121	-2.059827	0.041289	-0.503815	-0.024478	-0.672945	-103.605070	-76.100112	-18.837160
34055	9.505911	-3.561757	-1.177260	-0.550111	-0.023823	-0.680962	-104.367275	-76.470725	-18.377197
34056	9.362301	-3.937887	-1.986658	-0.205482	-0.143540	-0.675397	-105.237529	-76.820131	-17.603137
34057	9.708480	-3.773454	-1.375838	0.055463	-0.224002	-0.707915	-106.223107	-77.170918	-16.559211
34058	9.651467	-3.002098	-1.124324	0.368532	-0.244346	-0.670310	-107.099323	-77.494996	-15.444093
34059	9.955258	-1.502117	-1.458250	0.542793	-0.277833	-0.605720	-107.963521	-77.772994	-14.241208
34060	10.233639	0.280639	-1.121978	0.584962	-0.249257	-0.555671	-108.728322	-78.026509	-13.115632
34061	10.410147	1.607870	-1.080990	0.320243	-0.190401	-0.511463	-109.498895	-78.262711	-12.140968
34062	10.388592	2.030454	-1.321304	0.008411	-0.120959	-0.444368	-110.230820	-78.474877	-11.388154
34063	10.228519	1.624565	-1.327998	-0.260155	-0.074790	-0.377412	-110.960450	-78.657433	-10.795941
34064	10.171029	0.732248	-1.592279	-0.420915	-0.000304	-0.313545	-111.528702	-78.821066	-10.461811
34065	10.050441	-0.288234	-1.493022	-0.454838	0.027090	-0.267366	-112.011806	-78.964444	-10.235126
34066	9.982744	-1.341664	-1.221795	-0.464400	0.040342	-0.232609	-112.426482	-79.092820	-10.083142
34067	9.768591	-2.308891	-1.346099	-0.345666	0.045385	-0.207170	-112.743880	-79.207795	-9.961678
34068	9.608668	-2.597204	-1.388358	-0.153189	0.018584	-0.179206	-112.988978	-79.302798	-9.800920
34069	9.581531	-2.367251	-1.210855	0.024505	-0.009682	-0.166691	-113.208003	-79.383789	-9.563842
34070	9.666966	-1.840262	-1.011004	0.099479	-0.017059	-0.160567	-113.392554	-79.460677	-9.317496
34071	9.696817	-1.406103	-0.961410	0.089925	-0.009514	-0.155557	-113.566417	-79.535517	-9.088358
34072	9.634901	-1.205457	-0.874815	0.067796	-0.002720	-0.140081	-113.708629	-79.604678	-8.903637
34073	9.603535	-1.154152	-0.906109	0.001639	0.005311	-0.134728	-113.869718	-79.671805	-8.739006
34074	9.601562	-1.222237	-1.037414	-0.085586	0.006704	-0.126568	-114.059925	-79.735893	-8.594904
34075	9.556381	-1.418475	-1.035048	-0.098696	0.005396	-0.120383	-114.264302	-79.795363	-8.444762
34076	9.563339	-1.632651	-1.033445	-0.107482	-0.001851	-0.111538	-114.476340	-79.849399	-8.291279
34077	9.407998	-1.818995	-1.127817	-0.064848	-0.004755	-0.096792	-114.663588	-79.893959	-8.138891
34078	9.418645	-1.816464	-1.052683	0.027360	-0.014436	-0.096585	-114.818414	-79.937019	-7.965092
34079	9.487014	-1.779563	-1.090252	0.057466	-0.021311	-0.109154	-115.004001	-79.983812	-7.743271
34080	9.634139	-1.640283	-0.956701	0.074820	-0.024700	-0.111738	-115.185886	-80.032052	-7.514435
34081	9.727942	-1.558500	-0.931377	0.002260	-0.012395	-0.109866	-115.381746	-80.081117	-7.314370
34082	9.744335	-1.716920	-1.245426	-0.051395	-0.000531	-0.114250	-115.571986	-80.136347	-7.150528
34083	9.715398	-1.800322	-1.195509	-0.007258	0.008710	-0.119484	-115.728371	-80.195370	-6.996134
34084	9.665364	-1.737028	-1.152484	0.021433	0.011404	-0.124361	-115.859538	-80.258635	-6.849953
34085	9.654983	-1.764003	-1.090032	0.047402	0.015337	-0.135796	-115.992374	-80.327560	-6.687745
34086	9.697726	-1.697732	-1.103375	0.072951	0.013078	-0.134510	-116.107707	-80.396360	-6.527744
34087	9.624076	-1.348999	-1.125582	0.077262	0.015074	-0.129490	-116.218921	-80.461827	-6.370186
34088	9.588886	-1.055823	-1.087930	0.037654	0.006924	-0.135515	-116.378926	-80.529463	-6.185459
34089	9.586629	-0.978340	-0.800020	0.010218	0.012586	-0.133866	-116.547492	-80.596399	-6.008763
34090	9.595184	-1.052846	-0.853645	-0.081760	0.023067	-0.131007	-116.723875	-80.665692	-5.876854
34091	9.591927	-1.022357	-1.107428	-0.136169	0.034851	-0.123433	-116.895579	-80.732891	-5.782030
34092	9.688225	-0.890194	-1.215249	-0.170004	0.047386	-0.123403	-117.038392	-80.804494	-5.735405
34093	9.757856	-0.841535	-1.224449	-0.242626	0.063924	-0.117794	-117.173969	-80.876343	-5.738993
34094	9.799617	-0.958042	-1.267263	-0.274965	0.080613	-0.100874	-117.236794	-80.945138	-5.834296
34095	9.845920	-1.098803	-1.304377	-0.290212	0.092584	-0.089609	-117.262619	-81.010170	-5.976615
34096	9.691119	-1.299632	-1.214183	-0.264199	0.102454	-0.078738	-117.210708	-81.073424	-6.181792
34097	9.591655	-1.507858	-1.076540	-0.226145	0.105604	-0.068687	-117.120215	-81.131164	-6.404648
34098	9.664952	-1.606030	-1.276196	-0.219474	0.101535	-0.060917	-117.011903	-81.184990	-6.640905
34099	9.592152	-1.509022	-1.385047	-0.163246	0.092970	-0.052455	-116.896006	-81.231005	-6.852950
34100	9.618541	-1.341919	-1.114581	-0.099416	0.086949	-0.046707	-116.739437	-81.273636	-7.068374
34101	9.567920	-1.353514	-0.900422	-0.089547	0.086762	-0.045988	-116.587879	-81.314553	-7.273740
34102	9.485963	-1.545919	-0.795325	-0.087208	0.091933	-0.040090	-116.392798	-81.354878	-7.520998
34103	9.514148	-1.566368	-0.809359	-0.075019	0.085470	-0.038791	-116.221788	-81.391561	-7.737582
34104	9.658432	-1.360301	-1.054267	-0.094197	0.084382	-0.033613	-116.041790	-81.426414	-7.973586
34105	9.703675	-1.102098	-1.204666	-0.103195	0.078827	-0.027267	-115.887431	-81.455280	-8.189627
34106	9.736882	-0.952496	-1.131073	-0.118434	0.079233	-0.021318	-115.715591	-81.482303	-8.431388
34107	9.724458	-1.183865	-1.148435	-0.164683	0.094903	-0.021283	-115.528780	-81.511872	-8.715835
34108	9.737871	-1.556450	-1.136717	-0.143883	0.111884	-0.021584	-115.255451	-81.546798	-9.074908
34109	9.640023	-1.734173	-1.184211	-0.094542	0.120835	-0.017677	-114.928036	-81.580389	-9.460833
34110	9.569835	-1.894532	-1.161554	0.021719	0.104275	-0.010164	-114.562684	-81.606948	-9.816957
34111	9.626671	-1.813327	-0.921046	0.119976	0.088201	-0.004213	-114.201284	-81.625032	-10.112966
34112	9.553269	-1.641991	-0.868155	0.163749	0.078806	-0.004718	-113.832577	-81.642138	-10.390191
34113	9.525775	-1.429347	-0.777148	0.205533	0.070435	-0.004156	-113.482945	-81.655510	-10.624750
34114	9.566137	-1.137290	-0.607934	0.200102	0.059211	-0.002837	-113.158522	-81.666689	-10.836147
34115	9.590920	-0.872375	-0.683471	0.100694	0.072496	-0.003210	-112.858447	-81.679623	-11.081318
34116	9.629625	-0.672595	-0.721123	0.033912	0.071409	-0.000966	-112.580871	-81.692191	-11.341587
34117	9.750688	-0.714817	-0.535342	-0.021453	0.073173	-0.001583	-112.344530	-81.704105	-11.593052
34118	9.760873	-0.906822	-0.487086	-0.129776	0.084266	0.004983	-112.103594	-81.715977	-11.911057
34119	9.653428	-1.390532	-0.646092	-0.181843	0.096100	0.004243	-111.865548	-81.729452	-12.257083
34120	9.567865	-1.792383	-0.675564	-0.141113	0.078284	0.009203	-111.645285	-81.737433	-12.560741
34121	9.525814	-2.012661	-0.722392	-0.113422	0.067144	0.005162	-111.471629	-81.743930	-12.802082
34122	9.378249	-2.100194	-0.893255	-0.017504	0.052822	0.009254	-111.273319	-81.746275	-13.011985
34123	9.373999	-1.927524	-0.900399	0.118300	0.019507	0.007623	-111.138410	-81.741302	-13.080034
34124	9.504780	-1.597150	-0.747941	0.170160	-0.000459	0.003809	-111.036569	-81.735424	-13.083809
34125	9.600200	-1.343904	-0.578581	0.156112	0.005231	-0.013809	-110.963133	-81.738893	-13.067865
34126	9.642238	-1.033616	-0.344561	0.049564	0.015409	-0.028110	-110.917009	-81.753344	-13.085160
34127	9.599611	-1.149595	-0.514146	-0.058317	0.044630	-0.046557	-110.866941	-81.782403	-13.169738
34128	9.617293	-1.344556	-0.392606	-0.080229	0.058736	-0.060476	-110.779549	-81.823006	-13.303857
34129	9.567044	-1.317313	-0.365049	-0.129059	0.074667	-0.066203	-110.684145	-81.868659	-13.475158
34130	9.487318	-1.465527	-0.799447	-0.189542	0.055149	-0.067945	-110.681328	-81.912493	-13.587082
34131	9.534967	-1.459702	-0.848607	-0.179235	0.045213	-0.067226	-110.725590	-81.952710	-13.646320
34132	9.612082	-1.622160	-0.886676	-0.178908	0.087860	-0.097735	-110.633596	-82.019130	-13.842122
34133	9.512488	-1.816857	-1.060037	-0.050699	0.051063	-0.119231	-110.656018	-82.088376	-13.849043
34134	9.625666	-1.546095	-0.615646	0.084431	0.014215	-0.094040	-110.689512	-82.137915	-13.765775
34135	9.841989	-1.094769	-0.363055	0.027444	0.033281	-0.060721	-110.650733	-82.172150	-13.789288
34136	9.714915	-0.833227	-0.856081	-0.061311	0.069335	-0.057710	-110.498968	-82.213320	-13.977312
34137	9.566385	-0.828600	-1.220024	0.010412	0.040606	-0.049027	-110.423014	-82.242752	-14.048184
34138	9.654819	-0.975683	-1.038155	0.088095	0.029772	-0.030309	-110.299122	-82.261220	-14.121661
34139	9.694685	-1.191383	-0.640728	0.113628	0.032950	-0.010592	-110.137534	-82.268431	-14.219274
34140	9.651610	-0.850246	-0.408084	0.104562	0.018680	0.028122	-109.962859	-82.253218	-14.334477
34141	9.747534	-0.570433	-0.467918	0.040003	0.032955	0.042436	-109.767693	-82.231784	-14.508553
34142	9.672392	-0.500388	-0.652090	-0.004323	0.044064	0.040222	-109.539371	-82.214825	-14.740878
34143	9.707865	-0.634288	-0.820733	-0.084178	0.057675	0.039713	-109.323775	-82.199452	-15.007394
34144	9.633919	-0.980940	-0.940903	-0.122781	0.064364	0.053036	-109.067657	-82.179134	-15.336301
34145	9.684917	-1.219814	-0.763644	-0.066332	0.062778	0.063803	-108.792010	-82.151367	-15.653145
34146	9.605158	-1.443191	-0.635994	-0.063669	0.061501	0.070397	-108.493924	-82.120668	-15.990270
34147	9.566602	-1.703428	-0.727095	-0.043725	0.054325	0.068471	-108.236993	-82.088402	-16.275198
34148	9.510643	-1.816184	-0.699614	0.010913	0.031817	0.068382	-108.019582	-82.053096	-16.487778
34149	9.546225	-1.734740	-0.666706	0.044794	0.009631	0.078549	-107.877668	-82.007111	-16.605425
34150	9.574819	-1.495421	-0.717789	0.081965	-0.004861	0.086772	-107.742469	-81.955183	-16.693916
34151	9.677232	-1.234984	-0.726508	0.093979	-0.007001	0.087792	-107.628125	-81.901143	-16.755299
34152	9.699985	-1.035910	-0.596168	0.032623	-0.010290	0.085208	-107.546438	-81.849081	-16.818316
34153	9.707130	-0.994392	-0.731638	-0.067544	0.012723	0.084116	-107.456192	-81.800428	-16.948873
34154	9.651388	-1.156061	-0.821488	-0.098738	0.025596	0.075909	-107.326933	-81.759566	-17.136018
34155	9.685007	-1.394250	-0.871896	-0.108621	0.045691	0.067559	-107.158393	-81.725506	-17.369505
34156	9.564721	-1.661442	-0.685925	-0.094566	0.060057	0.058155	-106.920852	-81.699992	-17.663689
34157	9.530103	-1.933191	-0.725268	-0.079967	0.064661	0.048645	-106.689594	-81.679173	-17.944014
34158	9.551045	-1.952933	-0.817190	-0.021197	0.064590	0.042973	-106.412918	-81.662377	-18.235297
34159	9.509085	-1.876142	-0.877034	0.026938	0.047612	0.040339	-106.196026	-81.642970	-18.439242
34160	9.610789	-1.728576	-0.831325	0.089026	0.033128	0.040424	-105.978974	-81.622240	-18.606455
34161	9.674386	-1.529283	-0.870412	0.097186	0.033018	0.043517	-105.775194	-81.598519	-18.756503
34162	9.657191	-1.391082	-0.770443	0.076762	0.030538	0.035502	-105.581856	-81.579931	-18.906867
34163	9.680231	-1.342577	-0.653200	0.058426	0.032970	0.031296	-105.415081	-81.562783	-19.041985
34164	9.659361	-1.378205	-0.666541	0.035987	0.042953	0.029671	-105.206235	-81.549154	-19.231659
34165	9.681464	-1.392360	-0.735001	0.025842	0.044094	0.027593	-105.021876	-81.535578	-19.403445
34166	9.702147	-1.362852	-0.712272	0.023346	0.053703	0.027750	-104.783443	-81.524399	-19.630366
34167	9.652096	-1.388797	-0.775729	0.012650	0.053007	0.040014	-104.562924	-81.505030	-19.846377
34168	9.598605	-1.386854	-0.820420	0.028911	0.048026	0.042364	-104.329938	-81.484666	-20.064589
34169	9.581159	-1.393816	-0.689301	0.042912	0.055267	0.048949	-104.077724	-81.460381	-20.295152
34170	9.612824	-1.442239	-0.674850	0.040650	0.059400	0.048567	-103.792644	-81.437849	-20.559267
34171	9.638822	-1.482342	-0.736719	0.048933	0.057138	0.051896	-103.530438	-81.411843	-20.796485
34172	9.637855	-1.493301	-0.754142	0.093126	0.054949	0.059952	-103.224782	-81.381993	-21.051038
34173	9.663577	-1.476073	-0.653296	0.093578	0.054464	0.065429	-102.938881	-81.347713	-21.286403
34174	9.643271	-1.505069	-0.616549	0.091378	0.054070	0.063330	-102.638588	-81.315475	-21.536587
34175	9.597236	-1.553035	-0.649924	0.101297	0.056232	0.066172	-102.345485	-81.280620	-21.774816
34176	9.591808	-1.546446	-0.695133	0.096156	0.068307	0.060637	-101.996835	-81.251205	-22.071199
34177	9.580169	-1.611780	-0.598964	0.123418	0.067964	0.057980	-101.659113	-81.221885	-22.341803
34178	9.593295	-1.533463	-0.559352	0.127673	0.064202	0.060470	-101.311726	-81.191559	-22.618683
34179	9.578505	-1.435404	-0.524235	0.104613	0.060798	0.065599	-101.009545	-81.156661	-22.864281
34180	9.547149	-1.388059	-0.478704	0.102930	0.050639	0.063451	-100.727438	-81.122738	-23.089490
34181	9.570006	-1.330782	-0.312318	0.103578	0.043503	0.067471	-100.491031	-81.084596	-23.269168
34182	9.628220	-1.406455	-0.317460	0.059939	0.052262	0.068370	-100.228301	-81.047761	-23.499743
34183	9.559362	-1.318110	-0.406742	0.012488	0.053836	0.065754	-100.011829	-81.011399	-23.712111
34184	9.626581	-1.300676	-0.458347	-0.040693	0.051666	0.062547	-99.816163	-80.977514	-23.933209
34185	9.623500	-1.338240	-0.596852	-0.084020	0.058573	0.065789	-99.641479	-80.941385	-24.159299
34186	9.616272	-1.475981	-0.613088	-0.103857	0.062643	0.066760	-99.443785	-80.905939	-24.419143
34187	9.559477	-1.636128	-0.698542	-0.096557	0.066041	0.063002	-99.255046	-80.871859	-24.666798
34188	9.549552	-1.734415	-0.648261	-0.066725	0.064322	0.067057	-99.033531	-80.836113	-24.929271
34189	9.531876	-1.790929	-0.631789	-0.045446	0.064407	0.063445	-98.824666	-80.801334	-25.167714
34190	9.528288	-1.762630	-0.583949	-0.023761	0.058060	0.060524	-98.607521	-80.768433	-25.400872
34191	9.637977	-1.675300	-0.575515	-0.006050	0.058343	0.061311	-98.401813	-80.734043	-25.613310
34192	9.651508	-1.596448	-0.538563	-0.010276	0.059968	0.059022	-98.174281	-80.701873	-25.849208
34193	9.624173	-1.566400	-0.465191	-0.026170	0.066735	0.061791	-97.954149	-80.667614	-26.087996
34194	9.609920	-1.646100	-0.443138	-0.052224	0.066389	0.055669	-97.733282	-80.637556	-26.341542
34195	9.591531	-1.712020	-0.474320	-0.062201	0.065470	0.053726	-97.545119	-80.607494	-26.568904
34196	9.546642	-1.736927	-0.414053	-0.062492	0.070941	0.054233	-97.318095	-80.578293	-26.834699
34197	9.572585	-1.782383	-0.499789	-0.051117	0.068885	0.047769	-97.117319	-80.551579	-27.068456
34198	9.576324	-1.794783	-0.417584	-0.037501	0.063868	0.042682	-96.907752	-80.528135	-27.302078
34199	9.555096	-1.825608	-0.406097	-0.035711	0.064951	0.041454	-96.716575	-80.504457	-27.517199
34200	9.548005	-1.776965	-0.386753	-0.021921	0.061358	0.039486	-96.509998	-80.482400	-27.738770
34201	9.516603	-1.736248	-0.390887	-0.033894	0.053187	0.031787	-96.363390	-80.463219	-27.907680
34202	9.519221	-1.773075	-0.429078	-0.027892	0.053818	0.033823	-96.189583	-80.443699	-28.099515
34203	9.543441	-1.762574	-0.377893	-0.025855	0.047049	0.030159	-96.061113	-80.424905	-28.245389
34204	9.643010	-1.780964	-0.396056	-0.020258	0.050539	0.028641	-95.897175	-80.407978	-28.422800
34205	9.615404	-1.757879	-0.371221	-0.009456	0.060382	0.022052	-95.718362	-80.394428	-28.610225
34206	9.539677	-1.735787	-0.320494	-0.015370	0.056420	0.019267	-95.536065	-80.382995	-28.803431
34207	9.560080	-1.720634	-0.368949	-0.015663	0.057138	0.015931	-95.374712	-80.372557	-28.976772
34208	9.605017	-1.692046	-0.370414	-0.017497	0.057240	0.018112	-95.192078	-80.361632	-29.171568
34209	9.553271	-1.676187	-0.368674	-0.017937	0.055348	0.010702	-95.040437	-80.353908	-29.336396
34210	9.590817	-1.768552	-0.344670	-0.029711	0.054562	0.010895	-94.876601	-80.346785	-29.519233
34211	9.542222	-1.786120	-0.386362	-0.033383	0.051202	0.012366	-94.747847	-80.337757	-29.669834
34212	9.614772	-1.777385	-0.384381	-0.023603	0.049478	0.010281	-94.598245	-80.330595	-29.834692
34213	9.514824	-1.762274	-0.358275	-0.023762	0.045680	0.005240	-94.484967	-80.325254	-29.964016
34214	9.508397	-1.705275	-0.316540	-0.035670	0.047039	0.005200	-94.352142	-80.320763	-30.118873
34215	9.508280	-1.720592	-0.385067	-0.046931	0.034122	0.003372	-94.291653	-80.315898	-30.208120
34216	9.622668	-1.657241	-0.396193	-0.040928	0.032370	0.003504	-94.211595	-80.311679	-30.312508
34217	9.650280	-1.672886	-0.365485	-0.051012	0.037189	0.004172	-94.143270	-80.306444	-30.412086
34218	9.601906	-1.684705	-0.385249	-0.048797	0.036593	0.007476	-94.052823	-80.300079	-30.531590
34219	9.581005	-1.712282	-0.377042	-0.040562	0.033058	0.009951	-93.991297	-80.291329	-30.618204
34220	9.560029	-1.749974	-0.416608	-0.030758	0.034895	0.010776	-93.895724	-80.282958	-30.732428
34221	9.563318	-1.774369	-0.408833	-0.023182	0.034956	0.006366	-93.819132	-80.276281	-30.824237
34222	9.590825	-1.790415	-0.377837	-0.021093	0.032943	0.006557	-93.725771	-80.270190	-30.930603
34223	9.566637	-1.799275	-0.397865	-0.007490	0.039554	0.009047	-93.624664	-80.262086	-31.038173
34224	9.569907	-1.823810	-0.389440	-0.009327	0.037281	0.009292	-93.509838	-80.254522	-31.159483
34225	9.573198	-1.843117	-0.357125	0.002052	0.037373	0.002685	-93.412261	-80.249896	-31.257937
34226	9.494168	-1.805555	-0.361337	0.009769	0.037664	0.000432	-93.287233	-80.247333	-31.378501
34227	9.515174	-1.773751	-0.339270	0.017751	0.034854	-0.000417	-93.189903	-80.244316	-31.467587
34228	9.560464	-1.748575	-0.365754	0.025733	0.032045	-0.001264	-93.074855	-80.242471	-31.568746
34229	9.532974	-1.713183	-0.294590	0.029382	0.036589	-0.001752	-92.965537	-80.240199	-31.663240
34230	9.560779	-1.748436	-0.358114	0.031473	0.033390	-0.002523	-92.843021	-80.239044	-31.768640
34231	9.557549	-1.719918	-0.335360	0.037741	0.033282	0.002889	-92.739351	-80.233949	-31.852550
34232	9.578586	-1.693207	-0.336751	0.048973	0.037884	-0.001995	-92.591880	-80.232538	-31.973100
34233	9.582083	-1.721975	-0.351269	0.053143	0.036231	0.000327	-92.470244	-80.228911	-32.066291
34234	9.578549	-1.678337	-0.256714	0.039549	0.029619	-0.002182	-92.355773	-80.227317	-32.158837
34235	9.578766	-1.683197	-0.277469	0.022034	0.025121	-0.002718	-92.289500	-80.225110	-32.213940
34236	9.551398	-1.662682	-0.279141	0.014310	0.026021	0.000487	-92.201167	-80.221861	-32.294638
34237	9.527372	-1.671046	-0.299989	0.020597	0.019984	0.001086	-92.152445	-80.217338	-32.332771
34238	9.596719	-1.637985	-0.304475	0.012879	0.019697	0.003325	-92.085691	-80.212300	-32.392404
34239	9.648234	-1.650663	-0.274336	0.000826	0.026765	0.005903	-92.025411	-80.205144	-32.453766
34240	9.644993	-1.627338	-0.276731	-0.005446	0.028053	0.001446	-91.941804	-80.201323	-32.541160
34241	9.599867	-1.657814	-0.267987	-0.007164	0.029576	0.006730	-91.876949	-80.193725	-32.611813
34242	9.482245	-1.703156	-0.282014	-0.026493	0.022809	0.006425	-91.822404	-80.186921	-32.681954
34243	9.506343	-1.700739	-0.281064	-0.013935	0.015482	0.011488	-91.807833	-80.176322	-32.705519
34244	9.551208	-1.666568	-0.261939	-0.020081	0.017003	0.009179	-91.768695	-80.167825	-32.756300
34245	9.575502	-1.668944	-0.284956	-0.036434	0.021931	0.004378	-91.746610	-80.161406	-32.800579
34246	9.627399	-1.696835	-0.327330	-0.020096	0.018188	0.010143	-91.703606	-80.152367	-32.855294
34247	9.612614	-1.767075	-0.286606	-0.008063	0.015866	0.011429	-91.684795	-80.141801	-32.879758
34248	9.563699	-1.764744	-0.235851	0.013344	0.024174	0.014842	-91.602660	-80.130155	-32.954747
34249	9.560417	-1.747635	-0.262350	0.037553	0.016197	0.016676	-91.556390	-80.116570	-32.980560
34250	9.532379	-1.718888	-0.216695	0.033471	0.020455	0.018421	-91.474980	-80.102790	-33.043113
34251	9.525843	-1.678427	-0.248243	0.021831	0.018728	0.019724	-91.429458	-80.087478	-33.077316
34252	9.567525	-1.626642	-0.257577	-0.005346	0.012647	0.020442	-91.396028	-80.072410	-33.113746
34253	9.674033	-1.696903	-0.291167	-0.011360	0.013217	0.019313	-91.387836	-80.057253	-33.129362
34254	9.634768	-1.771000	-0.250305	-0.015406	0.012729	0.017202	-91.360320	-80.044039	-33.165641
34255	9.568280	-1.829449	-0.238133	-0.017225	0.009272	0.016480	-91.368732	-80.030448	-33.167817
34256	9.540372	-1.805679	-0.218100	-0.003122	0.008487	0.020869	-91.347831	-80.015073	-33.190237
34257	9.492218	-1.828818	-0.288172	0.000693	0.006136	0.016754	-91.356217	-80.001270	-33.182019
34258	9.582167	-1.765516	-0.275714	0.014955	-0.000355	0.018475	-91.353915	-79.987147	-33.175037
34259	9.605522	-1.748873	-0.204054	0.000443	0.006861	0.013417	-91.360397	-79.975253	-33.168902
34260	9.653885	-1.748975	-0.228428	-0.019048	0.005823	0.015754	-91.357760	-79.962771	-33.182046
34261	9.605443	-1.761562	-0.250934	-0.019570	0.010831	0.011974	-91.362995	-79.951756	-33.188822
34262	9.456836	-1.757799	-0.253119	-0.034713	0.000061	0.012046	-91.388245	-79.941320	-33.182761
34263	9.453458	-1.735135	-0.258955	-0.034439	-0.005410	0.011525	-91.454455	-79.930328	-33.136266
34264	9.520294	-1.699457	-0.366622	-0.032649	0.001604	0.015142	-91.473191	-79.918139	-33.135619
34265	9.571277	-1.707945	-0.315473	-0.046615	-0.002114	0.009042	-91.535875	-79.908608	-33.099791
34266	9.623216	-1.741294	-0.384009	-0.046400	0.000716	0.015271	-91.565229	-79.896332	-33.096362
34267	9.580400	-1.786638	-0.326169	-0.028106	-0.002932	0.021030	-91.618807	-79.879915	-33.059013
34268	9.549516	-1.744267	-0.336264	-0.006373	-0.004874	0.020083	-91.642604	-79.864790	-33.037933
34269	9.551688	-1.755223	-0.260406	-0.017782	-0.007314	0.024713	-91.703795	-79.846178	-32.986843
34270	9.548441	-1.743880	-0.313974	-0.007857	-0.005273	0.027735	-91.728783	-79.826658	-32.965413
34271	9.593090	-1.711486	-0.296346	-0.002350	-0.002025	0.024126	-91.764067	-79.808460	-32.931660
34272	9.571293	-1.736216	-0.267566	0.004666	-0.009080	0.035697	-91.793003	-79.784309	-32.898925
34273	9.552357	-1.780035	-0.210240	-0.003563	-0.007893	0.031252	-91.846670	-79.761917	-32.847198
34274	9.548808	-1.764401	-0.240280	-0.024790	-0.012134	0.035011	-91.901856	-79.738092	-32.804934
34275	9.554724	-1.824809	-0.279973	-0.036826	-0.012150	0.031788	-91.987490	-79.715288	-32.740082
34276	9.581611	-1.853141	-0.301434	-0.030916	-0.016520	0.027868	-92.060279	-79.695444	-32.683488
34277	9.545002	-1.956564	-0.282789	-0.033401	-0.010442	0.025082	-92.138811	-79.676477	-32.623856
34278	9.526674	-2.013830	-0.298154	-0.021956	-0.013937	0.015619	-92.199338	-79.663677	-32.574500
34279	9.487742	-2.112072	-0.379834	-0.022214	-0.010836	0.014218	-92.273660	-79.650872	-32.512634
34280	9.463111	-2.111177	-0.356749	0.024988	-0.017357	0.006026	-92.318950	-79.643466	-32.451422
34281	9.450348	-2.007017	-0.329512	0.044646	-0.019681	0.002933	-92.383957	-79.636848	-32.360088
34282	9.467895	-1.942067	-0.269181	0.054603	-0.024765	0.000154	-92.436082	-79.632603	-32.274676
34283	9.503313	-1.816406	-0.172029	0.044920	-0.032264	-0.003390	-92.541027	-79.629223	-32.142582
34284	9.564073	-1.726624	-0.267039	0.010395	-0.022182	-0.010809	-92.611839	-79.631274	-32.063922
34285	9.582136	-1.670080	-0.255644	-0.007399	-0.023517	-0.012774	-92.720720	-79.633422	-31.958298
34286	9.612843	-1.718017	-0.272159	-0.025977	-0.010812	-0.015086	-92.777511	-79.638191	-31.915078
34287	9.549903	-1.801276	-0.281738	-0.047935	-0.016408	-0.024203	-92.889296	-79.647035	-31.830112
34288	9.529196	-1.830959	-0.303088	-0.060827	-0.022795	-0.014804	-93.003695	-79.651263	-31.748631
34289	9.502265	-1.818573	-0.358671	-0.044736	-0.028234	-0.014321	-93.149366	-79.654022	-31.627356
34290	9.465609	-1.720531	-0.357550	-0.046077	-0.035521	-0.010316	-93.294556	-79.655202	-31.505987
34291	9.435248	-1.680118	-0.395043	-0.051485	-0.039729	-0.005519	-93.478645	-79.652420	-31.349592
34292	9.459326	-1.676695	-0.400291	-0.048913	-0.042033	0.002307	-93.643363	-79.646020	-31.210021
34293	9.528527	-1.639141	-0.387757	-0.064420	-0.041396	0.007752	-93.837161	-79.635425	-31.051285
34294	9.643167	-1.581483	-0.428758	-0.077014	-0.031650	0.004663	-93.984581	-79.627932	-30.945658
34295	9.676550	-1.654795	-0.443041	-0.082829	-0.028252	0.009784	-94.146942	-79.616569	-30.829596
34296	9.588602	-1.729758	-0.382346	-0.076589	-0.022483	0.020039	-94.261587	-79.600577	-30.757037
34297	9.579456	-1.853529	-0.361549	-0.058137	-0.027136	0.026915	-94.401736	-79.579393	-30.649164
34298	9.624149	-1.831121	-0.395101	-0.041771	-0.030955	0.032631	-94.518990	-79.555772	-30.553657
34299	9.681203	-1.894276	-0.361507	-0.026529	-0.026120	0.027719	-94.636775	-79.534087	-30.450099
34300	9.611037	-1.924913	-0.333872	-0.020879	-0.022645	0.026256	-94.717124	-79.514430	-30.379936
34301	9.565114	-1.966686	-0.378791	-0.020509	-0.030259	0.025916	-94.843880	-79.493498	-30.263736
34302	9.558291	-1.931141	-0.439490	-0.002409	-0.035587	0.026327	-94.952742	-79.473118	-30.153801
34303	9.599954	-1.861094	-0.357643	-0.010547	-0.030608	0.026975	-95.073703	-79.451460	-30.037679
34304	9.626701	-1.893392	-0.404389	-0.033352	-0.022109	0.017599	-95.160584	-79.436673	-29.968123
34305	9.571706	-1.848760	-0.391338	-0.015374	-0.025299	0.017791	-95.269892	-79.420450	-29.866658
34306	9.522746	-1.866056	-0.440521	-0.007368	-0.023411	0.020811	-95.344475	-79.403719	-29.794461
34307	9.519187	-1.844254	-0.447510	-0.001460	-0.023046	0.020733	-95.437559	-79.385875	-29.701383
34308	9.536801	-1.791129	-0.435968	-0.003062	-0.026057	0.024298	-95.516194	-79.366971	-29.622544
34309	9.560703	-1.771436	-0.343333	-0.005163	-0.025216	0.023144	-95.616711	-79.347577	-29.524055
34310	9.560079	-1.783078	-0.393946	-0.022909	-0.026306	0.023381	-95.707139	-79.329135	-29.444777
34311	9.541687	-1.821376	-0.314709	-0.019464	-0.021031	0.019580	-95.803620	-79.311957	-29.358721
34312	9.502503	-1.871568	-0.158535	-0.067546	-0.022874	0.009262	-95.913066	-79.301713	-29.286109
34313	9.541467	-2.006838	-0.235520	-0.075471	-0.028082	0.005483	-96.066720	-79.292084	-29.174513
34314	9.608245	-1.931815	-0.155119	-0.075749	-0.027336	0.002152	-96.196222	-79.285553	-29.086267
34315	9.559694	-1.739664	-0.171406	-0.114261	-0.018375	-0.003841	-96.345480	-79.281732	-29.001755
34316	9.610821	-1.783687	-0.316137	-0.153242	-0.019495	-0.024064	-96.504472	-79.290546	-28.928684
34317	9.662777	-2.009408	-0.376007	-0.193135	-0.002058	-0.042788	-96.663276	-79.309901	-28.880442
34318	9.549342	-2.255211	-0.306728	-0.206920	0.010739	-0.059100	-96.774721	-79.340608	-28.887063
34319	9.538419	-2.373667	-0.435857	-0.195754	0.009449	-0.068853	-96.910362	-79.375518	-28.863921
34320	9.573268	-2.456579	-0.547233	-0.190134	0.004895	-0.075004	-97.036534	-79.414869	-28.845772
34321	9.623889	-2.436968	-0.528173	-0.139808	0.002953	-0.095845	-97.171268	-79.464590	-28.790954
34322	9.598720	-2.423405	-0.630223	-0.075002	0.003919	-0.107277	-97.248024	-79.522201	-28.755978
34323	9.494928	-2.353903	-0.641884	-0.000542	-0.010719	-0.106509	-97.350874	-79.576886	-28.652466
34324	9.504301	-2.011073	-0.604013	0.066148	-0.018580	-0.097609	-97.413860	-79.627327	-28.549279
34325	9.557788	-1.652371	-0.643714	0.094631	-0.020265	-0.088987	-97.486631	-79.671243	-28.420945
34326	9.586291	-1.297830	-0.682969	0.096960	-0.014827	-0.078646	-97.513913	-79.711154	-28.336134
34327	9.619351	-1.157141	-0.658631	0.049920	-0.013599	-0.066461	-97.583628	-79.742758	-28.236968
34328	9.560440	-1.260793	-0.663672	0.010584	-0.006392	-0.053792	-97.624406	-79.769166	-28.188752
34329	9.632291	-1.420986	-0.658996	0.021952	-0.014048	-0.039060	-97.700996	-79.785197	-28.098894
34330	9.676533	-1.566520	-0.681393	0.035980	0.002366	-0.024386	-97.687480	-79.795567	-28.091065
34331	9.599780	-1.725287	-0.675408	0.077042	-0.004484	-0.011041	-97.690790	-79.796436	-28.043600
34332	9.620125	-1.840877	-0.503727	0.105391	-0.006309	-0.004578	-97.656434	-79.794895	-28.016538
34333	9.578005	-1.917910	-0.611611	0.155315	-0.006895	-0.000574	-97.618140	-79.789627	-27.965781
34334	9.499082	-1.858656	-0.496166	0.201726	-0.012795	0.007205	-97.544073	-79.780912	-27.922983
34335	9.392370	-1.788481	-0.433042	0.216566	-0.025298	0.013686	-97.522686	-79.766142	-27.819387
34336	9.369452	-1.592112	-0.296747	0.181674	-0.033456	0.021260	-97.519156	-79.747901	-27.716582
34337	9.434222	-1.574853	-0.501008	0.112398	-0.040615	0.018185	-97.603180	-79.729401	-27.566501
34338	9.561293	-1.608339	-0.497747	0.082508	-0.041830	0.015300	-97.684622	-79.713867	-27.435071
34339	9.647233	-1.671638	-0.363586	0.051628	-0.023524	0.012700	-97.751656	-79.699731	-27.337631
34340	9.524155	-1.886619	-0.470939	0.018923	-0.009853	0.008399	-97.772107	-79.690541	-27.305209
34341	9.558263	-1.945908	-0.410641	0.051061	-0.023225	0.005068	-97.841457	-79.680729	-27.205738
34342	9.675706	-1.911231	-0.443838	0.037920	-0.009658	-0.002664	-97.855041	-79.677824	-27.169231
34343	9.580478	-1.740433	-0.402935	0.056025	-0.013741	-0.001346	-97.894566	-79.672353	-27.097181
34344	9.622157	-1.691310	-0.437729	0.055233	-0.003244	-0.004549	-97.879030	-79.671018	-27.080190
34345	9.578077	-1.557048	-0.488943	0.045918	-0.006553	0.001300	-97.900753	-79.664610	-27.032116
34346	9.574470	-1.543193	-0.541564	0.024001	-0.004876	0.000255	-97.906097	-79.660419	-27.012090
34347	9.629508	-1.579843	-0.509634	0.016288	-0.000438	0.006408	-97.923566	-79.651611	-26.985594
34348	9.545811	-1.688245	-0.487068	-0.003764	0.007065	0.008028	-97.904332	-79.643950	-27.006723
34349	9.465225	-1.825252	-0.483803	0.004618	-0.000992	0.008749	-97.929199	-79.633784	-26.979503
34350	9.516598	-1.848146	-0.504829	0.012728	-0.008313	0.006139	-97.949039	-79.625980	-26.951304
34351	9.537006	-1.831750	-0.559087	0.025313	-0.016850	0.010128	-98.010477	-79.613754	-26.874848
34352	9.545348	-1.682239	-0.441343	0.035539	-0.020268	0.012542	-98.051307	-79.601352	-26.812021
34353	9.556044	-1.585997	-0.462410	0.018141	-0.013879	0.022943	-98.101770	-79.582069	-26.750896
34354	9.604205	-1.576894	-0.440733	-0.016324	-0.000103	0.020821	-98.106226	-79.566585	-26.755259
34355	9.634321	-1.632602	-0.480192	-0.054223	0.004844	0.019615	-98.141718	-79.550721	-26.751510
34356	9.650155	-1.757777	-0.481245	-0.067499	-0.002265	0.022626	-98.181273	-79.534038	-26.749998
34357	9.644807	-1.914756	-0.501199	-0.065676	0.000005	0.022381	-98.236835	-79.516225	-26.732511
34358	9.581721	-1.992472	-0.461912	-0.047852	-0.002170	0.021333	-98.265269	-79.500282	-26.730861
34359	9.550403	-1.954898	-0.495587	-0.015842	-0.007517	0.022630	-98.314963	-79.481689	-26.690302
34360	9.539738	-1.900104	-0.581868	0.007289	0.002593	0.021404	-98.297151	-79.466099	-26.703556
34361	9.554638	-1.803899	-0.476881	0.019339	-0.003295	0.019692	-98.315006	-79.449501	-26.674880
34362	9.571834	-1.760051	-0.510902	0.007279	0.001412	0.020434	-98.301262	-79.434364	-26.684002
34363	9.604924	-1.844392	-0.568530	0.002592	0.014022	0.019236	-98.276264	-79.419458	-26.708677
34364	9.553532	-1.814282	-0.498527	0.002446	0.012618	0.016116	-98.233290	-79.407690	-26.750353
34365	9.538303	-1.904508	-0.553960	-0.011707	0.019346	0.016677	-98.201670	-79.394662	-26.790107
34366	9.517400	-1.923401	-0.499011	0.008356	0.014179	0.016991	-98.150389	-79.382514	-26.836793
34367	9.510869	-1.872750	-0.483285	-0.001375	0.010220	0.016390	-98.140763	-79.368886	-26.848147
34368	9.489490	-1.905860	-0.500621	0.012273	0.010883	0.014019	-98.098649	-79.358148	-26.883227
34369	9.489747	-1.892833	-0.427281	-0.000040	0.018703	0.013365	-98.064076	-79.346907	-26.919194
34370	9.483504	-1.836786	-0.387351	-0.016073	0.016069	0.008345	-98.025126	-79.339796	-26.967582
34371	9.534752	-1.864480	-0.430944	-0.026058	0.015218	0.006350	-98.019010	-79.332245	-26.989763
34372	9.558777	-1.866543	-0.454818	-0.028043	0.012727	0.004440	-97.998723	-79.327076	-27.026141
34373	9.531621	-1.836619	-0.410515	-0.041719	0.008518	0.003894	-98.022799	-79.320382	-27.026720
34374	9.558511	-1.876175	-0.502185	-0.050256	0.012825	-0.001883	-98.017653	-79.318810	-27.060644
34375	9.589288	-1.919841	-0.492729	-0.041309	0.022554	-0.008351	-98.004437	-79.320185	-27.098937
34376	9.571954	-1.960131	-0.433508	-0.028983	0.017096	-0.005756	-97.975887	-79.321147	-27.144273
34377	9.578695	-2.002032	-0.399042	-0.019401	0.017289	-0.010207	-97.966725	-79.323143	-27.165662
34378	9.499818	-1.967651	-0.429066	-0.007071	0.010650	-0.008582	-97.946194	-79.325192	-27.190062
34379	9.490415	-1.895628	-0.442352	0.013141	0.003336	-0.008045	-97.959415	-79.324836	-27.169701
34380	9.553706	-1.809578	-0.433987	0.009072	0.005228	-0.008194	-97.945792	-79.326236	-27.177658
34381	9.574739	-1.786761	-0.463020	0.001568	-0.000530	-0.006481	-97.976600	-79.324682	-27.146145
34382	9.550488	-1.794321	-0.486067	-0.006160	0.005091	0.000643	-97.968397	-79.321056	-27.157469
34383	9.553819	-1.813327	-0.457124	-0.006164	0.003909	-0.000328	-97.987662	-79.316367	-27.142202
34384	9.529820	-1.807148	-0.408162	-0.001954	0.004599	0.003914	-97.977153	-79.310846	-27.153421
34385	9.553860	-1.809065	-0.432736	-0.013660	0.000514	0.003327	-98.009319	-79.303815	-27.129398
34386	9.557018	-1.833067	-0.427944	-0.004055	0.005436	0.002764	-97.997990	-79.299014	-27.142677
34387	9.535854	-1.865013	-0.446177	-0.005767	0.003383	0.005152	-98.016194	-79.291177	-27.128259
34388	9.505379	-1.811631	-0.406923	-0.005521	-0.002087	0.004596	-98.027500	-79.284736	-27.119356
34389	9.535899	-1.856299	-0.398895	-0.027342	-0.003696	0.002768	-98.080193	-79.277683	-27.082410
34390	9.511815	-1.850317	-0.351082	-0.021166	-0.004062	0.006009	-98.105722	-79.270279	-27.068155
34391	9.484300	-1.830024	-0.356321	-0.042749	-0.011140	0.003624	-98.188980	-79.262125	-27.009083
34392	9.504652	-1.822550	-0.459637	-0.043818	-0.016831	0.012875	-98.262567	-79.249775	-26.959121
34393	9.543605	-1.731634	-0.405389	-0.054474	-0.012861	0.004979	-98.356799	-79.240684	-26.895707
34394	9.546824	-1.750694	-0.379219	-0.076594	-0.013719	-0.000177	-98.445352	-79.235964	-26.849624
34395	9.525803	-1.777106	-0.376299	-0.089098	-0.006116	-0.002971	-98.542593	-79.231931	-26.803326
34396	9.535446	-1.847661	-0.364694	-0.099391	-0.002676	-0.005384	-98.613545	-79.231078	-26.788455
34397	9.535307	-1.855924	-0.414481	-0.111787	0.005141	-0.006022	-98.691495	-79.229735	-26.775019
34398	9.611073	-1.878136	-0.461489	-0.124477	0.011353	-0.011933	-98.738025	-79.233802	-26.799638
34399	9.599176	-2.006229	-0.611798	-0.135074	0.017904	-0.015721	-98.795743	-79.239064	-26.820385
34400	9.602249	-2.050265	-0.728046	-0.115361	0.019170	-0.016012	-98.815644	-79.246133	-26.866792
34401	9.515365	-2.136569	-0.736391	-0.081116	0.014137	-0.012578	-98.852333	-79.249277	-26.877480
34402	9.485189	-2.086016	-0.720876	-0.028907	0.003405	-0.013106	-98.868361	-79.253318	-26.877408
34403	9.479240	-2.028317	-0.681584	0.023083	0.000498	-0.011095	-98.885417	-79.254386	-26.847298
34404	9.512361	-1.875531	-0.560861	0.047728	-0.010633	-0.008100	-98.897085	-79.254350	-26.806973
34405	9.548238	-1.760530	-0.508032	0.052217	-0.009547	0.000449	-98.922067	-79.247968	-26.751823
34406	9.611359	-1.671041	-0.475426	0.034150	-0.005231	0.001285	-98.920991	-79.243096	-26.732387
34407	9.614189	-1.708810	-0.542502	0.015982	0.005939	0.005830	-98.918007	-79.235055	-26.726825
34408	9.569149	-1.730453	-0.487970	-0.005909	0.006679	0.005944	-98.902242	-79.228603	-26.745704
34409	9.530364	-1.804402	-0.448676	-0.037540	0.012875	0.013234	-98.905862	-79.217001	-26.764638
34410	9.581015	-1.858867	-0.636614	-0.040163	0.022296	0.011295	-98.860887	-79.208900	-26.833233
34411	9.580734	-1.868937	-0.682725	0.015636	0.021783	0.013059	-98.807797	-79.198181	-26.878883
34412	9.584722	-1.853432	-0.459740	0.003114	0.028215	0.009306	-98.721577	-79.191697	-26.964228
34413	9.563362	-1.894923	-0.524125	0.021688	0.018842	0.012199	-98.674361	-79.181190	-27.000369
34414	9.608580	-1.857418	-0.479370	0.047672	0.020911	0.016146	-98.581409	-79.170165	-27.066580
34415	9.547238	-1.766150	-0.468841	0.064012	0.021584	0.023557	-98.496982	-79.153428	-27.115925
34416	9.489361	-1.676629	-0.334164	0.078730	0.012162	0.028666	-98.406966	-79.134532	-27.161036
34417	9.389326	-1.641085	-0.190080	0.059445	0.005850	0.032661	-98.367953	-79.111311	-27.166799
34418	9.399855	-1.569345	-0.328580	0.031686	-0.018791	0.043879	-98.389702	-79.081196	-27.125546
34419	9.517338	-1.515959	-0.242716	-0.019481	-0.029879	0.042063	-98.496392	-79.049666	-27.028963
34420	9.713255	-1.532266	-0.318730	-0.108138	-0.015745	0.033834	-98.593087	-79.025480	-26.992967
34421	9.921463	-1.660931	-0.472422	-0.171162	0.004733	0.029158	-98.690308	-79.004230	-26.994532
34422	9.830926	-1.938361	-0.545619	-0.189498	0.040957	0.022678	-98.672966	-78.991250	-27.122190
34423	9.569277	-2.379049	-0.438478	-0.186481	0.038783	0.008728	-98.688894	-78.984555	-27.215506
34424	9.324375	-2.601416	-0.521608	-0.130599	0.031332	0.006808	-98.673034	-78.979730	-27.307281
34425	9.272889	-2.583422	-0.524997	-0.048607	0.011825	-0.002886	-98.693510	-78.977217	-27.315512
34426	9.369652	-2.350382	-0.418573	-0.001035	0.000733	-0.015256	-98.702235	-78.982243	-27.306612
34427	9.456858	-2.066696	-0.445379	-0.003423	-0.004693	-0.025607	-98.754916	-78.991092	-27.255633
34428	9.511402	-1.903051	-0.425609	-0.029981	0.000685	-0.031328	-98.787635	-79.005213	-27.239184
34429	9.520787	-1.764229	-0.376139	-0.070825	0.009270	-0.039407	-98.844611	-79.023078	-27.223191
34430	9.545613	-1.773717	-0.473348	-0.123889	0.016688	-0.051641	-98.893814	-79.050106	-27.244761
34431	9.510683	-1.886652	-0.551958	-0.124231	0.015110	-0.056932	-98.972591	-79.078423	-27.237728
34432	9.497394	-1.929816	-0.395576	-0.133856	0.012718	-0.052320	-99.039704	-79.105489	-27.246871
34433	9.528753	-1.998292	-0.557937	-0.147742	0.006155	-0.054918	-99.157781	-79.131874	-27.213481
34434	9.599142	-1.975832	-0.661951	-0.103942	0.006830	-0.055269	-99.226945	-79.160074	-27.203082
34435	9.548836	-1.931492	-0.545857	-0.090067	0.007729	-0.055440	-99.308217	-79.186856	-27.173581
34436	9.559502	-2.017978	-0.654589	-0.064235	0.007073	-0.057721	-99.355517	-79.216461	-27.162281
34437	9.596289	-1.881615	-0.503755	-0.012098	0.008701	-0.053848	-99.388850	-79.242419	-27.136079
34438	9.569836	-1.864211	-0.554446	-0.010248	0.015655	-0.050113	-99.376101	-79.268522	-27.154417
34439	9.588512	-1.804469	-0.537756	-0.008133	0.017148	-0.046998	-99.378714	-79.291393	-27.157174
34440	9.637885	-1.785101	-0.489027	0.003533	0.019892	-0.049474	-99.344939	-79.317528	-27.188872
34441	9.597123	-1.854992	-0.597424	-0.013617	0.035807	-0.052904	-99.297436	-79.345484	-27.245795
34442	9.532305	-1.890711	-0.488035	0.000302	0.035567	-0.054049	-99.220154	-79.375640	-27.323638
34443	9.546778	-1.984921	-0.492384	0.006259	0.032457	-0.057074	-99.172734	-79.405627	-27.368856
34444	9.541499	-1.940086	-0.545393	0.018185	0.032090	-0.058193	-99.096952	-79.437780	-27.434735
34445	9.494403	-1.936988	-0.516929	0.022149	0.030018	-0.060208	-99.048744	-79.469272	-27.471511
34446	9.533963	-1.849266	-0.503075	0.030501	0.026460	-0.057775	-98.982110	-79.500658	-27.520894
34447	9.555950	-1.812519	-0.480399	0.024094	0.031318	-0.059249	-98.927773	-79.531689	-27.562786
34448	9.588213	-1.855159	-0.493477	0.025937	0.026578	-0.065365	-98.866380	-79.567364	-27.609490
34449	9.607037	-1.802361	-0.522668	0.045512	0.035746	-0.062987	-98.787209	-79.600896	-27.664103
34450	9.583931	-1.787241	-0.445745	0.039236	0.037281	-0.065267	-98.684198	-79.637421	-27.745360
34451	9.585223	-1.781325	-0.441633	0.037638	0.034217	-0.061740	-98.612701	-79.670082	-27.796673
34452	9.610755	-1.776364	-0.462286	0.031647	0.033798	-0.061683	-98.522073	-79.704237	-27.869746
34453	9.591285	-1.797766	-0.453780	0.039577	0.033182	-0.062747	-98.452301	-79.737348	-27.918271
34454	9.586270	-1.765808	-0.578189	0.071897	0.033865	-0.056408	-98.334918	-79.768479	-27.995082
34455	9.607408	-1.712526	-0.458142	0.066029	0.034810	-0.053217	-98.239545	-79.796286	-28.054155
34456	9.639769	-1.755984	-0.469781	0.059900	0.034186	-0.055317	-98.126447	-79.826773	-28.133582
34457	9.596032	-1.781819	-0.460255	0.066102	0.033834	-0.052050	-98.032675	-79.853803	-28.190989
34458	9.568913	-1.744042	-0.387451	0.078117	0.033710	-0.050990	-97.907650	-79.881745	-28.271915
34459	9.542034	-1.715019	-0.363006	0.084767	0.025758	-0.048132	-97.826212	-79.905866	-28.305901
34460	9.580491	-1.628131	-0.349261	0.063207	0.021071	-0.046575	-97.747249	-79.930274	-28.348708
34461	9.649899	-1.580757	-0.303349	0.056334	0.031156	-0.049638	-97.664863	-79.955663	-28.400201
34462	9.598057	-1.542098	-0.207214	0.022747	0.028918	-0.047189	-97.583545	-79.980996	-28.468933
34463	9.559441	-1.626785	-0.386762	-0.007744	0.033954	-0.050838	-97.528593	-80.007278	-28.529791
34464	9.567522	-1.669423	-0.374929	-0.003795	0.034242	-0.050873	-97.446147	-80.035072	-28.615099
34465	9.550805	-1.702356	-0.290671	-0.040244	0.038827	-0.054483	-97.394804	-80.063776	-28.691179
34466	9.564330	-1.798812	-0.443098	-0.039673	0.033772	-0.050773	-97.333571	-80.091446	-28.775806
34467	9.548695	-1.849212	-0.455632	-0.021523	0.029624	-0.051512	-97.299463	-80.117760	-28.823511
34468	9.553336	-1.868218	-0.448867	0.015070	0.022921	-0.047695	-97.240312	-80.142871	-28.874174
34469	9.598421	-1.824224	-0.403323	0.041295	0.019575	-0.046336	-97.200471	-80.165488	-28.891149
34470	9.564585	-1.756808	-0.437271	0.063534	0.017112	-0.043964	-97.130578	-80.188046	-28.924525
34471	9.577771	-1.665031	-0.376008	0.073882	0.012594	-0.042480	-97.093058	-80.207954	-28.920197
34472	9.639978	-1.579289	-0.387727	0.068023	0.014701	-0.038324	-97.025862	-80.227124	-28.948223
34473	9.640945	-1.580256	-0.409127	0.055782	0.019268	-0.037647	-96.974420	-80.244755	-28.968557
34474	9.648921	-1.624457	-0.397467	0.051766	0.022494	-0.034681	-96.888915	-80.262382	-29.024609
34475	9.612941	-1.708654	-0.428425	0.051585	0.024635	-0.034878	-96.820543	-80.278812	-29.064472
34476	9.572385	-1.756023	-0.391381	0.069510	0.026187	-0.032856	-96.711382	-80.295623	-29.134203
34477	9.552249	-1.776261	-0.358927	0.087910	0.021313	-0.030241	-96.631016	-80.309158	-29.165165
34478	9.608168	-1.809270	-0.322973	0.109795	0.019640	-0.031181	-96.519425	-80.324546	-29.213940
34479	9.576259	-1.749302	-0.256118	0.120153	0.010429	-0.033590	-96.457778	-80.339248	-29.207162
34480	9.513467	-1.654440	-0.246363	0.117948	0.012415	-0.033782	-96.366268	-80.355630	-29.230825
34481	9.506603	-1.604208	-0.253122	0.099122	-0.000771	-0.031454	-96.353097	-80.368398	-29.187085
34482	9.579843	-1.594817	-0.276889	0.075248	-0.001622	-0.032462	-96.332513	-80.383136	-29.163623
34483	9.621535	-1.541519	-0.309746	0.046967	0.002469	-0.035026	-96.339633	-80.398149	-29.129617
34484	9.650664	-1.567376	-0.352337	0.024591	0.009369	-0.035684	-96.312296	-80.415417	-29.142442
34485	9.586389	-1.622487	-0.340724	0.020334	0.010989	-0.038014	-96.307025	-80.432684	-29.136459
34486	9.611510	-1.619910	-0.363500	0.020282	0.014526	-0.035092	-96.264373	-80.449937	-29.167315
34487	9.547324	-1.674993	-0.351523	0.023958	0.013217	-0.040403	-96.250236	-80.468711	-29.168215
34488	9.523889	-1.675218	-0.349468	0.034251	0.012274	-0.035962	-96.207331	-80.486313	-29.191210
34489	9.541100	-1.620774	-0.357523	0.040506	0.007270	-0.036568	-96.202351	-80.502530	-29.173212
34490	9.582020	-1.557845	-0.341951	0.034074	0.013233	-0.037145	-96.156543	-80.520862	-29.199250
34491	9.586435	-1.578028	-0.335656	0.012214	0.013680	-0.037198	-96.146024	-80.537840	-29.203291
34492	9.631117	-1.538539	-0.315376	-0.002099	0.019023	-0.037721	-96.101133	-80.556850	-29.249408
34493	9.592731	-1.608493	-0.399344	-0.010192	0.022905	-0.035927	-96.071168	-80.573676	-29.286168
34494	9.593024	-1.600191	-0.373307	0.003490	0.021411	-0.040123	-96.015405	-80.594188	-29.340055
34495	9.597109	-1.615629	-0.342675	-0.001998	0.020421	-0.034596	-95.988489	-80.610103	-29.368962
34496	9.618002	-1.584927	-0.345545	0.011929	0.021730	-0.032535	-95.923674	-80.626296	-29.427118
34497	9.566543	-1.565843	-0.347397	0.016053	0.018720	-0.033328	-95.891516	-80.641385	-29.450841
34498	9.570938	-1.586524	-0.340923	0.008633	0.015212	-0.029735	-95.849815	-80.655587	-29.487480
34499	9.588287	-1.537280	-0.373003	0.000886	0.014805	-0.027531	-95.837643	-80.667146	-29.499750
34500	9.612428	-1.526169	-0.347711	0.004630	0.018439	-0.026791	-95.785806	-80.679850	-29.548982
34501	9.648122	-1.586125	-0.308199	-0.003291	0.020171	-0.024796	-95.756249	-80.690167	-29.581292
34502	9.632674	-1.639536	-0.320225	0.006030	0.027380	-0.025480	-95.671787	-80.702620	-29.662769
34503	9.612929	-1.664653	-0.312977	0.016772	0.016284	-0.025474	-95.644224	-80.713099	-29.681387
34504	9.587891	-1.652287	-0.238877	0.022815	0.016977	-0.023356	-95.585386	-80.723735	-29.727150
34505	9.580995	-1.607678	-0.270188	0.021117	0.017259	-0.019037	-95.549495	-80.730589	-29.751686
34506	9.578445	-1.591402	-0.320944	0.019043	0.014519	-0.023125	-95.501147	-80.740946	-29.789008
34507	9.595164	-1.538105	-0.329211	0.005588	0.010308	-0.021656	-95.499178	-80.748908	-29.788186
34508	9.599441	-1.559591	-0.323362	-0.008713	0.014438	-0.023176	-95.466911	-80.759285	-29.825325
34509	9.604206	-1.585773	-0.341553	-0.006252	0.010537	-0.020616	-95.470492	-80.766677	-29.825742
34510	9.608437	-1.607671	-0.335658	0.003671	0.015095	-0.015599	-95.426185	-80.772764	-29.867888
34511	9.584195	-1.605190	-0.309785	0.013080	0.016409	-0.021144	-95.398135	-80.780776	-29.889130
34512	9.607626	-1.590238	-0.260338	0.011523	0.016913	-0.014671	-95.342518	-80.786423	-29.938176
34513	9.604531	-1.569725	-0.287048	0.011044	0.019791	-0.018216	-95.302577	-80.792941	-29.972635
34514	9.621651	-1.521445	-0.318671	0.017147	0.016949	-0.019011	-95.244890	-80.801052	-30.020512
34515	9.620418	-1.505819	-0.244811	0.015271	0.019372	-0.014902	-95.202739	-80.805656	-30.054752
34516	9.624609	-1.528065	-0.237955	-0.002831	0.023392	-0.014258	-95.132108	-80.811372	-30.127335
34517	9.625389	-1.531477	-0.259860	-0.008422	0.020993	-0.011865	-95.096651	-80.814328	-30.168537
34518	9.602058	-1.538963	-0.281914	-0.010032	0.016552	-0.011437	-95.053289	-80.818069	-30.217675
34519	9.589438	-1.607948	-0.242258	-0.020038	0.016708	-0.012571	-95.039701	-80.821215	-30.243459
34520	9.542571	-1.623986	-0.288717	-0.017528	0.010449	-0.011953	-95.022302	-80.824938	-30.270647
34521	9.538834	-1.599340	-0.292737	-0.009175	0.008213	-0.008444	-95.031110	-80.825302	-30.267437
34522	9.558054	-1.561592	-0.249177	-0.007025	0.006234	-0.008245	-95.021425	-80.826696	-30.280715
34523	9.586763	-1.585128	-0.268303	-0.008813	0.003933	-0.008027	-95.044931	-80.826609	-30.262402
34524	9.609884	-1.571087	-0.220358	-0.012774	0.004791	-0.007036	-95.043263	-80.827242	-30.270895
34525	9.642479	-1.618564	-0.234935	-0.008379	0.003415	-0.002536	-95.066519	-80.824000	-30.252573
34526	9.641996	-1.613503	-0.210952	-0.008312	-0.000126	-0.005455	-95.079178	-80.823482	-30.243965
34527	9.670107	-1.632662	-0.206450	-0.006548	0.003355	-0.004700	-95.102136	-80.821471	-30.224881
34528	9.654524	-1.688110	-0.220819	-0.006184	-0.000925	-0.004282	-95.116021	-80.820242	-30.213796
34529	9.626606	-1.667779	-0.225609	-0.002315	-0.004364	-0.009373	-95.165133	-80.820497	-30.165744
34530	9.603754	-1.680241	-0.273682	-0.004330	-0.002165	-0.007419	-95.183328	-80.820992	-30.149217
34531	9.576422	-1.664349	-0.302351	-0.004628	-0.001425	-0.010755	-95.223739	-80.822174	-30.111328
34532	9.578859	-1.681685	-0.397983	0.006365	0.005523	-0.015742	-95.211342	-80.827816	-30.119582
34533	9.554544	-1.679325	-0.373108	0.025987	0.003378	-0.020903	-95.220495	-80.835029	-30.095581
34534	9.585228	-1.706740	-0.291466	0.030287	-0.000578	-0.020504	-95.217507	-80.843070	-30.080421
34535	9.530604	-1.674969	-0.347520	0.037767	0.005530	-0.019985	-95.211970	-80.849861	-30.064458
34536	9.533835	-1.687272	-0.293844	0.039635	0.003108	-0.024094	-95.191729	-80.860142	-30.061349
34537	9.557809	-1.676156	-0.269326	0.039555	-0.000658	-0.029166	-95.210047	-80.871838	-30.020196
34538	9.605926	-1.660611	-0.244999	0.032951	0.005050	-0.031926	-95.189273	-80.886689	-30.021506
34539	9.578988	-1.642612	-0.272412	0.026716	0.006477	-0.034265	-95.191191	-80.901659	-30.004390
34540	9.585298	-1.676975	-0.338502	0.020505	0.006721	-0.037575	-95.173382	-80.919820	-30.009919
34541	9.584801	-1.664029	-0.289695	0.022650	0.004745	-0.037374	-95.184780	-80.936466	-29.985550
34542	9.562000	-1.668917	-0.312534	0.025994	0.005358	-0.045039	-95.171100	-80.958816	-29.983712
34543	9.570841	-1.711756	-0.302122	0.027832	0.004115	-0.048174	-95.185341	-80.981583	-29.953452
34544	9.547613	-1.711216	-0.301270	0.026087	-0.000554	-0.049897	-95.194520	-81.006399	-29.928417
34545	9.587388	-1.641392	-0.263083	0.027805	-0.003204	-0.056158	-95.238034	-81.033321	-29.868556
34546	9.560779	-1.621215	-0.291314	0.029426	-0.001126	-0.058536	-95.250545	-81.063031	-29.838214
34547	9.581744	-1.587789	-0.296024	0.025194	-0.001912	-0.062829	-95.293546	-81.093811	-29.780376
34548	9.598012	-1.525795	-0.281963	0.017693	-0.006860	-0.062367	-95.335435	-81.125397	-29.727109
34549	9.651779	-1.539839	-0.301711	0.017128	-0.001627	-0.063980	-95.383035	-81.156835	-29.669296
34550	9.619292	-1.481061	-0.262897	0.016585	0.002422	-0.066563	-95.393565	-81.191303	-29.648413
34551	9.625031	-1.502953	-0.281641	-0.003442	0.003826	-0.067870	-95.434772	-81.225253	-29.609010
34552	9.638499	-1.567261	-0.266935	0.004735	0.002591	-0.065541	-95.451483	-81.259144	-29.588748
34553	9.647882	-1.608017	-0.257010	0.014590	0.001074	-0.067530	-95.492880	-81.292747	-29.538681
34554	9.603836	-1.624045	-0.203624	0.024780	-0.002350	-0.067150	-95.517521	-81.327280	-29.498781
34555	9.604913	-1.617675	-0.203530	0.034969	-0.005772	-0.066770	-95.573156	-81.360052	-29.422507
34556	9.594565	-1.550139	-0.266053	0.035190	-0.010279	-0.068498	-95.622827	-81.394901	-29.351266
34557	9.578678	-1.449292	-0.286057	0.027386	-0.014523	-0.071372	-95.718519	-81.429769	-29.238875
34558	9.628368	-1.438634	-0.311425	0.023090	-0.012963	-0.073725	-95.788519	-81.467415	-29.154101
34559	9.649721	-1.408824	-0.341352	0.025498	-0.013287	-0.068243	-95.880906	-81.500528	-29.046158
34560	9.635193	-1.453687	-0.332152	0.015067	-0.007749	-0.068842	-95.935021	-81.535664	-28.982107
34561	9.668781	-1.489924	-0.323280	0.025232	-0.009965	-0.067494	-96.015883	-81.568517	-28.885980
34562	9.648190	-1.496992	-0.246842	0.041083	-0.009512	-0.066394	-96.061943	-81.602130	-28.815016
34563	9.586377	-1.555759	-0.260639	0.047319	-0.012075	-0.065026	-96.138428	-81.633415	-28.710528
34564	9.570547	-1.460521	-0.304615	0.051767	-0.015767	-0.062461	-96.202055	-81.664379	-28.615634
34565	9.630948	-1.375937	-0.344757	0.045984	-0.014886	-0.059307	-96.289005	-81.692188	-28.501350
34566	9.631760	-1.370099	-0.345314	0.047035	-0.009949	-0.065253	-96.335026	-81.725074	-28.427002
34567	9.628149	-1.340940	-0.350718	0.040161	-0.012822	-0.055186	-96.416621	-81.750637	-28.321510
34568	9.615527	-1.401756	-0.412909	0.043704	-0.010562	-0.057585	-96.464576	-81.779094	-28.247147
34569	9.639010	-1.382471	-0.365829	0.060250	-0.013880	-0.051746	-96.538329	-81.802603	-28.137958
34570	9.639643	-1.377950	-0.366212	0.078363	-0.013924	-0.047327	-96.575911	-81.824979	-28.054020
34571	9.686977	-1.355057	-0.319409	0.088861	-0.018011	-0.043608	-96.646762	-81.843557	-27.931208
34572	9.677334	-1.294551	-0.281993	0.087125	-0.015347	-0.037358	-96.681036	-81.860143	-27.845549
34573	9.692232	-1.234766	-0.268517	0.076667	-0.008661	-0.036998	-96.719159	-81.875566	-27.762860
34574	9.616180	-1.221635	-0.272646	0.065420	-0.011413	-0.032390	-96.748301	-81.889574	-27.694953
34575	9.645012	-1.237759	-0.268000	0.053182	-0.004670	-0.029865	-96.780846	-81.901215	-27.631487
34576	9.669967	-1.235502	-0.292140	0.041437	-0.005766	-0.029785	-96.800200	-81.914114	-27.587350
34577	9.626804	-1.265528	-0.286370	0.027803	-0.002049	-0.023678	-96.833977	-81.922425	-27.537324
34578	9.632196	-1.291909	-0.305098	0.022091	-0.002357	-0.021483	-96.846934	-81.930828	-27.510847
34579	9.637570	-1.318463	-0.324011	0.022476	-0.005441	-0.020068	-96.895691	-81.936862	-27.448771
34580	9.646200	-1.358683	-0.290187	0.024741	-0.004774	-0.015773	-96.914168	-81.941847	-27.415185
34581	9.632195	-1.282202	-0.281688	0.045369	-0.008622	-0.008772	-96.957088	-81.941234	-27.345753
34582	9.650511	-1.243497	-0.239931	0.034211	-0.013753	-0.006081	-97.001488	-81.940075	-27.280507
34583	9.670582	-1.220421	-0.270076	0.032701	-0.012018	0.001359	-97.060111	-81.933464	-27.202540
34584	9.698427	-1.234472	-0.242480	0.019231	-0.015437	0.001687	-97.115879	-81.927752	-27.134478
34585	9.645885	-1.220319	-0.247951	-0.000945	-0.009673	0.002115	-97.183674	-81.920878	-27.066711
34586	9.606272	-1.271671	-0.214171	-0.014325	-0.009279	0.007489	-97.230883	-81.912290	-27.026711
34587	9.607309	-1.282691	-0.263285	-0.033338	-0.012761	0.012172	-97.324050	-81.899476	-26.952055
34588	9.602587	-1.260466	-0.270008	-0.039071	-0.011879	0.015334	-97.391490	-81.886226	-26.905939
34589	9.627518	-1.267381	-0.319856	-0.046896	-0.012612	0.015393	-97.489546	-81.871584	-26.834184
34590	9.655739	-1.288032	-0.316540	-0.039071	-0.004504	0.023271	-97.523120	-81.854360	-26.822275
34591	9.664434	-1.337005	-0.307453	-0.049036	-0.004471	0.022155	-97.586010	-81.836490	-26.787274
34592	9.621803	-1.381516	-0.350379	-0.043387	-0.001788	0.021884	-97.611805	-81.820257	-26.785722
34593	9.624766	-1.397345	-0.298526	-0.030392	-0.007330	0.030120	-97.670659	-81.797650	-26.744002
34594	9.620961	-1.386816	-0.352555	-0.022010	-0.010635	0.032663	-97.713087	-81.774618	-26.713269
34595	9.638828	-1.352126	-0.311334	-0.019949	-0.007837	0.036732	-97.763835	-81.748217	-26.673687
34596	9.653360	-1.304130	-0.323134	-0.031264	-0.014388	0.036302	-97.823818	-81.722819	-26.630570
34597	9.636618	-1.349116	-0.267141	-0.046365	-0.019873	0.039021	-97.934562	-81.694175	-26.545646
34598	9.632655	-1.339453	-0.322444	-0.051960	-0.018752	0.044339	-98.018116	-81.663850	-26.490684
34599	9.609065	-1.358085	-0.372401	-0.051644	-0.019466	0.047680	-98.124190	-81.630303	-26.413524
34600	9.702714	-1.330071	-0.304718	-0.047435	-0.018633	0.051956	-98.199389	-81.595643	-26.364377
34601	9.620057	-1.291411	-0.267903	-0.063748	-0.012473	0.052380	-98.281636	-81.559988	-26.318300
34602	9.600273	-1.329130	-0.288396	-0.075954	-0.008090	0.052996	-98.331397	-81.525593	-26.311382
34603	9.595696	-1.457084	-0.389740	-0.073694	-0.008630	0.056318	-98.401542	-81.488036	-26.283294
34604	9.628137	-1.509692	-0.406097	-0.041923	-0.012430	0.054572	-98.446793	-81.452381	-26.261218
34605	9.624714	-1.490363	-0.288399	-0.041922	-0.013617	0.053601	-98.518230	-81.415938	-26.213410
34606	9.637433	-1.570881	-0.299968	-0.057258	-0.018127	0.055126	-98.592567	-81.379476	-26.170798
34607	9.656725	-1.552716	-0.331786	-0.059734	-0.017819	0.049644	-98.690931	-81.344895	-26.106066
34608	9.582818	-1.560896	-0.285308	-0.051599	-0.016653	0.053888	-98.756207	-81.309243	-26.069333
34609	9.567556	-1.626697	-0.325744	-0.063691	-0.019357	0.048701	-98.861767	-81.275033	-25.999600
34610	9.591692	-1.636327	-0.377010	-0.051685	-0.023999	0.045910	-98.957703	-81.243228	-25.931890
34611	9.581330	-1.583718	-0.341797	-0.038097	-0.024190	0.042673	-99.068427	-81.211952	-25.842080
34612	9.608005	-1.597212	-0.292161	-0.038847	-0.018005	0.039875	-99.137477	-81.184070	-25.794122
34613	9.581289	-1.605489	-0.418486	-0.043156	-0.015262	0.038508	-99.219752	-81.155923	-25.736023
34614	9.575479	-1.575637	-0.377343	-0.037951	-0.012104	0.032752	-99.270341	-81.132594	-25.706223
34615	9.584327	-1.635386	-0.417608	-0.021494	-0.018088	0.034442	-99.352017	-81.106461	-25.636150
34616	9.635156	-1.644027	-0.367879	-0.013605	-0.019762	0.032434	-99.415946	-81.082586	-25.578724
34617	9.582667	-1.636661	-0.398151	-0.021420	-0.024005	0.029586	-99.520848	-81.058603	-25.485086
34618	9.630614	-1.635505	-0.425514	0.002228	-0.026665	0.025499	-99.603885	-81.037961	-25.399125
34619	9.576084	-1.603909	-0.336186	-0.011743	-0.024551	0.026377	-99.706131	-81.015682	-25.302569
34620	9.556619	-1.643513	-0.381887	-0.021322	-0.032284	0.022789	-99.823501	-80.995976	-25.195499
34621	9.615085	-1.557622	-0.376966	-0.014916	-0.034638	0.026284	-99.962331	-80.972695	-25.063672
34622	9.585923	-1.535759	-0.360710	-0.025630	-0.029532	0.021430	-100.072206	-80.953957	-24.966678
34623	9.582777	-1.533226	-0.464190	-0.017820	-0.025298	0.024272	-100.179650	-80.932668	-24.868332
34624	9.641340	-1.447356	-0.458762	-0.025319	-0.030263	0.024766	-100.288915	-80.911917	-24.771763
34625	9.596594	-1.477083	-0.432255	-0.013386	-0.027829	0.027780	-100.399487	-80.888341	-24.667691
34626	9.619758	-1.470800	-0.411234	-0.024001	-0.017761	0.028978	-100.460484	-80.866462	-24.619232
34627	9.563104	-1.439381	-0.445816	-0.027928	-0.019285	0.028043	-100.548347	-80.843598	-24.546619
34628	9.615219	-1.462072	-0.468446	-0.027253	-0.023116	0.032769	-100.626803	-80.818998	-24.482356
34629	9.638318	-1.456368	-0.447477	-0.023185	-0.021370	0.035856	-100.713177	-80.791505	-24.408374
34630	9.657190	-1.427496	-0.431027	-0.010890	-0.022044	0.040256	-100.772827	-80.762778	-24.353655
34631	9.583676	-1.434700	-0.383858	-0.010601	-0.020415	0.045536	-100.841432	-80.729925	-24.290403
34632	9.631277	-1.435957	-0.411152	-0.009284	-0.025717	0.056931	-100.900996	-80.691398	-24.234829
34633	9.693867	-1.377209	-0.400858	-0.034747	-0.026503	0.060318	-100.993425	-80.649571	-24.161462
34634	9.654293	-1.457282	-0.489146	-0.030882	-0.021442	0.064167	-101.044902	-80.607420	-24.126613
34635	9.655904	-1.463659	-0.366992	-0.031110	-0.016941	0.065904	-101.097921	-80.563490	-24.091121
34636	9.595900	-1.566997	-0.425410	-0.053347	-0.011174	0.066479	-101.125353	-80.521165	-24.093689
34637	9.563050	-1.675891	-0.407850	-0.051074	-0.012930	0.068816	-101.173585	-80.476044	-24.074641
34638	9.538038	-1.690961	-0.433640	-0.040709	-0.019709	0.068355	-101.220708	-80.431715	-24.049900
34639	9.549544	-1.777376	-0.470356	-0.046814	-0.019245	0.067235	-101.287668	-80.386778	-24.009151
34640	9.548535	-1.788146	-0.496807	-0.023166	-0.019639	0.065033	-101.325980	-80.344315	-23.983144
34641	9.599495	-1.809623	-0.495775	-0.019191	-0.025215	0.060116	-101.400760	-80.302660	-23.918728
34642	9.561895	-1.743740	-0.487586	-0.005573	-0.023116	0.058787	-101.443812	-80.263302	-23.877680
34643	9.564336	-1.763539	-0.437435	-0.009839	-0.023880	0.054521	-101.511433	-80.224925	-23.814972
34644	9.587376	-1.764587	-0.440497	-0.009998	-0.025280	0.051391	-101.568184	-80.189456	-23.762585
34645	9.558528	-1.754263	-0.470944	-0.012480	-0.021379	0.048849	-101.631863	-80.154527	-23.705253
34646	9.581698	-1.754640	-0.473941	-0.008666	-0.025996	0.042751	-101.695115	-80.123805	-23.645482
34647	9.580790	-1.758950	-0.476328	-0.002632	-0.021758	0.047761	-101.754341	-80.089419	-23.587091
34648	9.583512	-1.777454	-0.425919	0.002509	-0.022370	0.036925	-101.802723	-80.062368	-23.535905
34649	9.555082	-1.770482	-0.480104	0.000698	-0.024672	0.037151	-101.875564	-80.033556	-23.461709
34650	9.578260	-1.765307	-0.458941	0.002188	-0.022807	0.032616	-101.927807	-80.008850	-23.406781
34651	9.593958	-1.721915	-0.494539	0.003972	-0.018148	0.034339	-101.979234	-79.982357	-23.352482
34652	9.597222	-1.748822	-0.491646	-0.000139	-0.017503	0.033206	-102.015092	-79.957935	-23.315539
34653	9.596094	-1.737950	-0.421783	-0.008001	-0.024037	0.028426	-102.095355	-79.934044	-23.238841
34654	9.564031	-1.711039	-0.504418	-0.006373	-0.018415	0.028970	-102.140064	-79.911873	-23.196531
34655	9.583476	-1.681587	-0.487573	-0.010317	-0.019911	0.028042	-102.208269	-79.888665	-23.133524
34656	9.582958	-1.684011	-0.489380	-0.003067	-0.015433	0.023232	-102.245208	-79.870055	-23.097176
34657	9.562285	-1.713825	-0.485759	-0.012946	-0.013860	0.025303	-102.297207	-79.849117	-23.051973
34658	9.561768	-1.716299	-0.487197	-0.004905	-0.013015	0.027358	-102.324536	-79.828483	-23.026453
34659	9.585309	-1.715118	-0.489379	-0.004423	-0.018262	0.028942	-102.382419	-79.804971	-22.970219
34660	9.576935	-1.670627	-0.500198	-0.004438	-0.015903	0.030892	-102.415752	-79.781997	-22.938323
34661	9.600201	-1.660540	-0.454501	-0.008390	-0.016216	0.030941	-102.467594	-79.757600	-22.890509
34662	9.579671	-1.699867	-0.498825	-0.027111	-0.009484	0.026049	-102.497051	-79.738122	-22.875749
34663	9.631574	-1.732210	-0.568570	-0.003124	-0.008363	0.029078	-102.522722	-79.715744	-22.851692
34664	9.631136	-1.739710	-0.592924	0.018410	-0.002154	0.030550	-102.500335	-79.694657	-22.863114
34665	9.585970	-1.760131	-0.514500	0.037343	0.006568	0.026358	-102.458528	-79.675625	-22.883941
34666	9.569221	-1.818684	-0.527470	0.047516	0.004236	0.027612	-102.402050	-79.656967	-22.913066
34667	9.556952	-1.741518	-0.492178	0.050105	-0.000641	0.031324	-102.371879	-79.634261	-22.914568
34668	9.576833	-1.721712	-0.520356	0.037470	0.005605	0.027531	-102.317293	-79.615808	-22.947625
34669	9.572421	-1.696393	-0.499876	0.033824	0.004553	0.030913	-102.281095	-79.593999	-22.964861
34670	9.592220	-1.671978	-0.504250	0.029881	0.001885	0.029015	-102.241484	-79.574253	-22.987118
34671	9.567368	-1.669616	-0.455245	0.012587	-0.000017	0.034727	-102.228830	-79.549777	-22.992511
34672	9.587362	-1.659710	-0.532366	0.003183	-0.002486	0.039364	-102.211151	-79.523703	-23.008024
34673	9.594367	-1.715567	-0.547428	0.005461	-0.005438	0.040722	-102.215153	-79.495203	-23.000851
34674	9.593325	-1.705716	-0.475814	0.011514	-0.003584	0.043771	-102.193258	-79.466527	-23.015800
34675	9.572216	-1.737365	-0.470746	0.009534	-0.003736	0.043796	-102.187803	-79.436536	-23.015813
34676	9.575289	-1.769971	-0.490222	-0.010511	0.001399	0.045587	-102.162570	-79.407444	-23.046997
34677	9.594968	-1.751461	-0.519416	-0.004753	0.001631	0.043357	-102.149536	-79.378338	-23.063065
34678	9.573837	-1.783009	-0.513925	-0.002949	0.005104	0.044099	-102.110166	-79.350521	-23.104231
34679	9.548730	-1.781851	-0.464849	-0.002665	0.006721	0.049377	-102.077259	-79.318651	-23.139464
34680	9.564649	-1.740286	-0.497754	0.013091	0.010275	0.051120	-102.009376	-79.287507	-23.200304
34681	9.539789	-1.753291	-0.520340	-0.000704	0.003330	0.046429	-101.987642	-79.256888	-23.222971
34682	9.570565	-1.806376	-0.535171	0.011406	0.005836	0.051555	-101.934135	-79.224957	-23.270172
34683	9.545360	-1.805587	-0.486217	-0.000274	0.000445	0.049964	-101.918720	-79.192015	-23.286124
34684	9.600159	-1.855154	-0.502134	0.001687	0.000591	0.049938	-101.887615	-79.160361	-23.316198
34685	9.578558	-1.873163	-0.424570	0.005018	0.007094	0.047118	-101.851655	-79.129807	-23.349990
34686	9.546273	-1.833819	-0.432617	-0.014857	0.006592	0.046190	-101.815189	-79.100954	-23.395182
34687	9.573401	-1.867610	-0.475890	-0.011229	0.012349	0.046701	-101.773959	-79.071239	-23.443934
34688	9.544820	-1.851803	-0.479255	-0.020942	0.007117	0.045083	-101.740564	-79.043056	-23.489558
34689	9.540634	-1.846238	-0.555598	-0.022775	0.004828	0.045313	-101.728903	-79.013191	-23.515063
34690	9.595164	-1.881520	-0.499507	-0.016871	0.006441	0.046211	-101.694810	-78.984289	-23.559031
34691	9.521781	-1.886974	-0.449324	-0.029452	0.011570	0.041440	-101.670000	-78.957404	-23.601672
34692	9.525033	-1.937620	-0.564076	-0.031436	0.011426	0.041463	-101.633121	-78.931735	-23.656989
34693	9.524225	-1.936774	-0.539396	-0.009737	0.011822	0.040221	-101.597132	-78.905580	-23.699365
34694	9.502789	-1.958378	-0.485357	-0.013978	0.012283	0.036938	-101.550879	-78.882535	-23.754051
34695	9.498646	-1.937740	-0.489031	-0.014552	0.012598	0.029303	-101.522251	-78.862574	-23.791927
34696	9.539269	-1.881479	-0.474150	-0.014860	0.019243	0.030844	-101.460572	-78.843731	-23.862859
34697	9.542415	-1.912457	-0.492711	-0.024275	0.006205	0.026702	-101.457338	-78.824489	-23.880399
34698	9.541777	-1.905569	-0.444744	-0.032317	0.005422	0.024643	-101.448782	-78.807546	-23.907383
34699	9.544919	-1.936235	-0.464249	-0.036137	0.006532	0.027817	-101.450821	-78.787719	-23.926539
34700	9.516794	-1.923179	-0.492264	-0.027960	0.005168	0.030077	-101.437481	-78.767694	-23.955860
34701	9.564711	-1.928226	-0.541511	-0.015681	0.000763	0.031519	-101.441980	-78.745148	-23.960511
34702	9.564107	-1.926319	-0.517150	-0.014867	0.013336	0.025977	-101.400588	-78.728350	-24.010790
34703	9.504888	-1.869304	-0.552589	-0.002455	0.011498	0.031522	-101.367393	-78.707016	-24.046201
34704	9.531986	-1.887763	-0.523333	-0.005148	0.017361	0.026634	-101.309042	-78.690288	-24.108103
34705	9.555851	-1.891322	-0.546274	-0.013341	0.019909	0.025346	-101.262134	-78.673375	-24.163778
34706	9.527706	-1.868929	-0.524785	-0.010942	0.015974	0.027879	-101.210631	-78.655771	-24.222089
34707	9.516950	-1.970018	-0.504880	-0.010665	0.014044	0.030233	-101.176204	-78.635438	-24.263518
34708	9.568015	-1.980620	-0.452350	-0.010670	0.014043	0.030232	-101.128973	-78.616281	-24.317320
34709	9.567426	-1.978654	-0.427264	-0.027043	0.016793	0.025701	-101.098911	-78.598799	-24.363804
34710	9.564016	-1.975266	-0.526575	-0.019417	0.016922	0.021308	-101.053825	-78.584962	-24.420537
34711	9.563118	-1.954528	-0.405426	-0.017306	0.016095	0.022463	-101.022124	-78.569204	-24.463078
34712	9.511333	-1.953160	-0.479606	-0.021542	0.017749	0.020153	-100.976818	-78.556093	-24.521283
34713	9.504162	-1.907515	-0.487278	-0.007568	0.016572	0.020203	-100.939603	-78.541650	-24.563810
34714	9.520939	-1.849463	-0.447351	-0.015626	0.019342	0.021063	-100.886244	-78.528181	-24.626779
34715	9.565550	-1.820898	-0.451583	-0.019295	0.014778	0.021506	-100.860167	-78.512804	-24.664783
34716	9.575418	-1.894341	-0.437042	-0.034997	0.017422	0.026753	-100.820457	-78.495911	-24.725157
34717	9.554468	-1.932955	-0.478971	-0.035012	0.018598	0.027728	-100.789659	-78.477448	-24.777123
34718	9.488020	-1.984016	-0.419474	-0.038977	0.018324	0.027768	-100.749498	-78.460065	-24.840291
34719	9.536010	-1.984359	-0.443658	-0.032628	0.013478	0.029281	-100.730823	-78.440180	-24.878510
34720	9.583825	-1.980415	-0.443962	-0.030527	0.013824	0.031413	-100.696594	-78.420253	-24.930691
34721	9.628158	-1.948143	-0.424569	-0.028964	0.015685	0.026889	-100.671150	-78.401947	-24.973639
34722	9.579496	-1.961713	-0.446541	-0.023172	0.017059	0.025654	-100.627078	-78.385594	-25.031573
34723	9.510012	-2.002382	-0.463501	-0.013005	0.014626	0.026930	-100.595539	-78.367150	-25.071412
34724	9.481867	-1.979892	-0.442482	-0.006918	0.010535	0.025116	-100.560540	-78.350399	-25.110582
34725	9.481808	-1.995861	-0.513753	-0.010476	0.008537	0.029657	-100.542934	-78.329778	-25.134717
34726	9.487995	-2.045834	-0.504524	-0.008601	0.002583	0.022598	-100.532029	-78.313607	-25.150272
34727	9.470181	-2.103383	-0.518500	0.000848	0.013217	0.024842	-100.497737	-78.296179	-25.184834
34728	9.451974	-2.147279	-0.460008	0.008526	0.008634	0.016551	-100.463731	-78.284042	-25.213961
34729	9.475808	-2.145752	-0.459448	0.012747	0.008142	0.019841	-100.439058	-78.268879	-25.231800
34730	9.478972	-2.175583	-0.477944	0.030320	0.004228	0.011458	-100.407182	-78.259149	-25.246001
34731	9.464859	-2.063807	-0.398785	0.034414	0.002351	0.011619	-100.389905	-78.248012	-25.243562
34732	9.461197	-2.036617	-0.378346	0.030188	0.002842	0.008328	-100.363472	-78.239901	-25.252282
34733	9.496169	-1.935769	-0.396661	0.018470	-0.002458	0.006686	-100.370684	-78.231040	-25.234123
34734	9.572700	-1.972714	-0.513441	0.006197	-0.000357	0.003272	-100.369168	-78.225448	-25.231432
34735	9.551325	-1.986553	-0.436175	0.013833	0.003288	0.001821	-100.365820	-78.219921	-25.226746
34736	9.530592	-2.018324	-0.454431	0.013550	0.007577	0.001422	-100.339572	-78.216189	-25.245016
34737	9.503249	-2.002532	-0.481609	0.021747	0.002646	0.000770	-100.333909	-78.211203	-25.238105
34738	9.503058	-1.998327	-0.457041	0.028087	-0.001032	0.003265	-100.321692	-78.205546	-25.233533
34739	9.496048	-1.942277	-0.417514	0.026095	0.001188	0.005236	-100.315206	-78.197896	-25.224886
34740	9.520273	-1.944190	-0.441569	0.020436	-0.002323	0.006669	-100.309185	-78.190189	-25.218463
34741	9.541048	-1.917737	-0.446281	0.012118	0.001221	0.004191	-100.311088	-78.183135	-25.209457
34742	9.499026	-1.967853	-0.411999	-0.001739	0.003821	0.007250	-100.300937	-78.175729	-25.220234
34743	9.502193	-1.992254	-0.407571	-0.013313	-0.002444	0.006789	-100.325911	-78.166851	-25.202507
34744	9.529873	-2.022291	-0.451863	-0.009629	-0.000244	0.004399	-100.332611	-78.160636	-25.200686
34745	9.536281	-2.065544	-0.418581	-0.002411	0.008653	0.001369	-100.324099	-78.155950	-25.210835
34746	9.505537	-2.021213	-0.426428	0.001427	0.006355	-0.002773	-100.310242	-78.154455	-25.223545
34747	9.457548	-2.036558	-0.473011	-0.002386	0.003944	-0.002535	-100.316177	-78.151490	-25.218877
34748	9.526556	-1.993732	-0.430579	0.001702	0.003244	-0.001396	-100.309853	-78.148899	-25.223730
34749	9.502906	-2.010388	-0.501656	-0.002527	0.006088	-0.002735	-100.310165	-78.146264	-25.224885
34750	9.527186	-2.006721	-0.501953	-0.002226	-0.001731	-0.005262	-100.321344	-78.145342	-25.214153
34751	9.530406	-2.025596	-0.473446	0.001708	0.002067	-0.002371	-100.329751	-78.142098	-25.204483
34752	9.506079	-2.024246	-0.448984	0.000141	-0.002144	0.000201	-100.338002	-78.138054	-25.195358
34753	9.558123	-2.050300	-0.493447	-0.004351	0.001457	-0.004468	-100.352551	-78.135931	-25.183037
34754	9.533892	-2.048588	-0.468613	0.017262	0.003889	-0.005849	-100.337760	-78.135917	-25.187433
34755	9.533880	-2.043557	-0.443725	0.015001	0.008044	-0.006231	-100.324353	-78.135458	-25.192370
34756	9.506868	-2.031671	-0.494653	0.033072	0.004956	-0.005996	-100.297714	-78.135636	-25.199616
34757	9.496749	-1.950932	-0.459083	0.031084	0.006000	-0.005003	-100.280000	-78.134279	-25.199601
34758	9.496542	-1.941419	-0.410222	0.013302	0.003621	-0.005812	-100.268181	-78.134216	-25.203278
34759	9.521186	-1.946704	-0.458403	0.005686	-0.002378	-0.006310	-100.287994	-78.132748	-25.179658
34760	9.524772	-1.974529	-0.477731	0.007507	0.002255	-0.004580	-100.282561	-78.131850	-25.180202
34761	9.527995	-1.993391	-0.449045	0.003831	-0.001122	-0.003164	-100.298478	-78.128739	-25.161660
34762	9.524520	-1.965041	-0.429626	0.018201	-0.004051	0.001415	-100.300904	-78.123816	-25.147913
34763	9.521360	-1.945917	-0.458118	0.007910	-0.000644	-0.001049	-100.312111	-78.119572	-25.131816
34764	9.497156	-1.949299	-0.457602	0.008172	-0.001397	0.002280	-100.312736	-78.114432	-25.125781
34765	9.545152	-1.933832	-0.410499	0.002104	0.000346	0.002134	-100.322989	-78.108503	-25.114015
34766	9.545279	-1.938646	-0.434252	0.001955	0.003668	0.002906	-100.313308	-78.103530	-25.122152
34767	9.548560	-1.962610	-0.429453	-0.012010	0.003699	0.001859	-100.322746	-78.098120	-25.119529
34768	9.555697	-2.023830	-0.492062	-0.008328	0.005897	-0.000533	-100.314674	-78.095315	-25.132043
34769	9.503660	-1.997644	-0.447413	-0.007931	0.004178	0.003974	-100.319411	-78.088757	-25.131779
34770	9.486406	-2.057659	-0.485974	-0.013825	-0.002112	-0.000847	-100.336050	-78.085306	-25.122258
34771	9.507123	-2.025926	-0.467381	-0.007897	-0.001712	-0.000902	-100.358850	-78.080890	-25.103553
34772	9.510427	-2.049645	-0.463138	-0.013840	0.000243	0.001104	-100.368241	-78.076581	-25.101448
34773	9.510287	-2.044893	-0.439438	-0.010137	-0.001091	-0.004213	-100.392148	-78.074101	-25.082883
34774	9.510340	-2.044600	-0.439655	-0.008040	0.000432	-0.001103	-100.398780	-78.071056	-25.080201
34775	9.458687	-2.027237	-0.443353	-0.000128	-0.000211	-0.002152	-100.413557	-78.067500	-25.065076
34776	9.479457	-1.995341	-0.424351	0.001721	-0.000289	-0.004323	-100.418090	-78.066194	-25.058822
34777	9.528086	-1.992904	-0.449285	-0.002232	-0.000556	-0.004286	-100.436005	-78.063805	-25.041795
34778	9.500324	-1.962946	-0.405431	-0.010286	0.002230	-0.003439	-100.440265	-78.062261	-25.042853
34779	9.500912	-1.976187	-0.477486	-0.018193	0.001695	-0.003366	-100.460747	-78.059597	-25.032462
34780	9.507618	-2.023305	-0.468650	-0.018194	0.001695	-0.003366	-100.470924	-78.057957	-25.032103
34781	9.511365	-2.055697	-0.512271	-0.010282	0.001053	-0.004414	-100.489075	-78.055829	-25.019509
34782	9.511136	-2.046094	-0.464285	-0.012536	0.004029	-0.005774	-100.490978	-78.055789	-25.024294
34783	9.487255	-2.053297	-0.487852	-0.004338	-0.000900	-0.006421	-100.511845	-78.054580	-25.005413
34784	9.514563	-2.063974	-0.436023	-0.006443	-0.001245	-0.008555	-100.525675	-78.055555	-24.994437
34785	9.507718	-2.006652	-0.397348	-0.010269	-0.001302	-0.006366	-100.550878	-78.054265	-24.974500
34786	9.532569	-2.016200	-0.470004	-0.014502	0.001540	-0.007707	-100.561494	-78.055053	-24.971530
34787	9.553607	-1.988287	-0.474972	-0.008707	0.002909	-0.008938	-100.575923	-78.055662	-24.961891
34788	9.549951	-1.950035	-0.407367	-0.022834	0.006257	-0.009212	-100.579504	-78.057794	-24.970991
34789	9.505654	-1.992927	-0.473929	-0.038801	0.007325	-0.009268	-100.599535	-78.059067	-24.973239
34790	9.505862	-1.991942	-0.473894	-0.026804	0.007164	-0.008200	-100.602471	-78.060725	-24.985324
34791	9.505890	-1.986482	-0.449732	-0.028921	0.007997	-0.009358	-100.615041	-78.062115	-24.989352
34792	9.509633	-2.013717	-0.469074	-0.028925	0.007996	-0.009358	-100.617552	-78.064515	-25.003112
34793	9.492377	-2.063389	-0.459662	-0.033007	0.006341	-0.012453	-100.638372	-78.067500	-25.001191
34794	9.513864	-2.044006	-0.512639	-0.034863	0.006414	-0.010283	-100.648965	-78.070254	-25.010168
34795	9.493496	-2.074291	-0.531630	-0.031327	0.010764	-0.012867	-100.657210	-78.073939	-25.020061
34796	9.496965	-2.092251	-0.502779	-0.021291	0.009296	-0.012756	-100.653579	-78.078392	-25.035627
34797	9.521229	-2.083296	-0.478810	-0.010980	0.005893	-0.010293	-100.661806	-78.080089	-25.033491
34798	9.517802	-2.049267	-0.434709	-0.009676	0.009694	-0.017164	-100.652663	-78.087065	-25.047889
34799	9.560215	-2.002445	-0.491795	-0.007288	0.006925	-0.013656	-100.657628	-78.090775	-25.046932
34800	9.560112	-1.992204	-0.443321	-0.011248	0.006653	-0.013622	-100.655715	-78.095435	-25.054861
34801	9.536011	-1.989894	-0.418121	-0.003502	0.012868	-0.010953	-100.641226	-78.098267	-25.071604
34802	9.508971	-1.972735	-0.445082	-0.009570	0.012252	-0.013056	-100.623090	-78.103199	-25.095130
34803	9.536787	-1.992049	-0.440189	-0.007181	0.009483	-0.009547	-100.618955	-78.104886	-25.103341
34804	9.509689	-1.975114	-0.467512	-0.011142	0.009210	-0.009515	-100.608061	-78.107501	-25.120385
34805	9.537014	-1.985764	-0.414862	-0.011006	0.008241	-0.008340	-100.608875	-78.108359	-25.125845
34806	9.537853	-1.998350	-0.486301	-0.002812	0.006850	-0.006055	-100.597782	-78.108776	-25.138216
34807	9.510013	-1.968449	-0.441794	0.003282	0.003941	-0.006885	-100.601110	-78.108389	-25.132815
34808	9.537471	-1.983809	-0.413700	-0.002218	-0.002901	-0.006246	-100.615851	-78.107885	-25.118438
34809	9.555241	-1.936824	-0.446848	0.005390	0.004285	-0.004748	-100.615943	-78.106338	-25.115130
34810	9.513514	-1.986203	-0.412824	-0.004509	0.003601	-0.004668	-100.613819	-78.105631	-25.119329
34811	9.541394	-2.010548	-0.432886	-0.010147	-0.002273	-0.005204	-100.640498	-78.103662	-25.097956
34812	9.517138	-2.008741	-0.408650	-0.016794	0.004510	-0.009074	-100.645195	-78.105534	-25.102378
34813	9.496995	-2.043799	-0.451745	-0.014815	0.004647	-0.009090	-100.657944	-78.106471	-25.097924
34814	9.542455	-2.016603	-0.480595	-0.017357	0.009560	-0.012795	-100.651333	-78.110973	-25.114232
34815	9.522213	-2.046741	-0.499438	-0.011243	0.004302	-0.015582	-100.666185	-78.115527	-25.105536
34816	9.525726	-2.064511	-0.470677	-0.021590	0.010046	-0.016091	-100.662346	-78.121937	-25.121488
34817	9.478159	-2.078769	-0.517405	-0.003076	0.006440	-0.010359	-100.664214	-78.123775	-25.121338
34818	9.498264	-2.032791	-0.425817	-0.003038	0.001740	-0.014274	-100.671066	-78.128281	-25.115503
34819	9.519547	-2.008846	-0.454459	0.003170	0.001390	-0.010993	-100.683067	-78.129949	-25.101262
34820	9.509594	-1.936448	-0.467370	0.006992	0.002635	-0.012198	-100.680734	-78.133381	-25.098942
34821	9.509323	-1.926636	-0.419125	-0.002644	0.001182	-0.008793	-100.695437	-78.133810	-25.085279
34822	9.537073	-1.946113	-0.415353	-0.014369	-0.002966	-0.009484	-100.718983	-78.135117	-25.069021
34823	9.545038	-2.010349	-0.502731	-0.008884	0.005055	-0.009138	-100.727086	-78.136136	-25.065899
34824	9.544802	-2.000424	-0.454372	-0.005182	0.004920	-0.013476	-100.726264	-78.140530	-25.069160
34825	9.527965	-2.054589	-0.468766	-0.011155	0.008029	-0.010493	-100.728345	-78.142654	-25.073577
34826	9.552665	-2.054499	-0.492282	0.002421	0.012112	-0.011970	-100.703110	-78.146966	-25.097333
34827	9.525110	-2.028634	-0.471336	0.006830	0.005958	-0.011414	-100.700750	-78.149380	-25.095481
34828	9.525118	-2.023189	-0.446511	0.014751	0.006513	-0.011474	-100.683203	-78.152816	-25.104162
34829	9.518504	-1.974742	-0.454611	0.013198	0.002292	-0.008914	-100.685784	-78.153402	-25.093609
34830	9.487674	-1.929849	-0.462520	0.005115	0.005055	-0.008071	-100.675944	-78.154767	-25.100057
34831	9.491303	-1.952722	-0.457629	0.003015	0.003535	-0.011189	-100.682128	-78.156811	-25.091911
34832	9.518825	-1.967810	-0.429394	-0.006478	0.001108	-0.006611	-100.688788	-78.156935	-25.088287
34833	9.519209	-1.971723	-0.452950	0.009182	0.007890	-0.003991	-100.676105	-78.155382	-25.095755
34834	9.550382	-2.015327	-0.443641	0.000992	0.008095	-0.007259	-100.660051	-78.156612	-25.110966
34835	9.529556	-2.037442	-0.413965	-0.003131	0.011135	-0.006447	-100.646764	-78.156795	-25.126112
34836	9.571762	-1.991210	-0.470521	0.012883	0.007757	-0.008326	-100.625339	-78.158588	-25.139850
34837	9.547493	-1.989611	-0.445219	0.003099	0.008441	-0.005121	-100.615056	-78.157741	-25.148360
34838	9.524275	-2.005880	-0.515836	0.012988	0.010314	-0.004215	-100.584632	-78.157487	-25.171230
34839	9.596366	-1.986474	-0.467581	0.012976	0.011489	-0.003237	-100.559739	-78.155925	-25.189239
34840	9.543914	-1.955894	-0.397725	0.004473	0.017154	-0.005922	-100.516675	-78.157344	-25.230010
34841	9.523906	-1.991397	-0.439684	-0.004974	0.010025	-0.005261	-100.506699	-78.156736	-25.242810
34842	9.448451	-1.981551	-0.466251	-0.009331	0.010301	-0.010715	-100.492335	-78.160133	-25.262337
34843	9.524072	-1.985167	-0.414024	-0.011324	0.011336	-0.009723	-100.484778	-78.162161	-25.276502
34844	9.500699	-1.996578	-0.460913	-0.009065	0.009539	-0.007387	-100.470642	-78.163603	-25.295640
34845	9.549537	-1.993369	-0.484589	-0.003430	0.014246	-0.007821	-100.449794	-78.164854	-25.318803
34846	9.531610	-2.030177	-0.402205	-0.005527	0.012724	-0.010939	-100.426814	-78.168625	-25.344907
34847	9.511460	-2.060690	-0.420559	-0.007344	0.009265	-0.011708	-100.423297	-78.171576	-25.352422
34848	9.536236	-2.060428	-0.444042	0.002428	0.009761	-0.013929	-100.405189	-78.176722	-25.368889
34849	9.508615	-2.034498	-0.423199	0.004688	0.007964	-0.011592	-100.398144	-78.179514	-25.373082
34850	9.506061	-2.018495	-0.474519	0.016414	0.010950	-0.011868	-100.367777	-78.183620	-25.393887
34851	9.522966	-1.957730	-0.434302	0.014560	0.011016	-0.009702	-100.345979	-78.185625	-25.407466
34852	9.526698	-1.980402	-0.428726	0.002423	0.009758	-0.013931	-100.327828	-78.190768	-25.423979
34853	9.489419	-2.061521	-0.437834	-0.005920	0.012099	-0.017404	-100.318545	-78.197242	-25.436709
34854	9.489505	-2.055462	-0.412683	0.010070	0.011084	-0.017310	-100.294062	-78.204424	-25.455214
34855	9.507429	-2.007451	-0.444678	0.006378	0.010040	-0.013956	-100.281386	-78.208714	-25.463897
34856	9.531954	-2.002497	-0.443948	0.012214	0.007907	-0.018105	-100.264609	-78.216017	-25.473275
34857	9.532056	-1.996242	-0.418882	0.013922	0.008809	-0.021446	-100.254673	-78.224465	-25.475305
34858	9.542983	-2.065401	-0.404430	0.009676	0.010461	-0.023772	-100.235179	-78.235223	-25.488944
34859	9.584521	-2.004318	-0.388722	0.011794	0.009635	-0.022609	-100.224615	-78.244362	-25.492475
34860	9.526913	-1.946749	-0.448342	0.011805	0.008460	-0.023588	-100.209189	-78.254811	-25.500712
34861	9.534451	-1.991772	-0.438559	-0.000471	0.008157	-0.028997	-100.212932	-78.267423	-25.497178
34862	9.421272	-2.054095	-0.427076	0.013207	0.012474	-0.028302	-100.188069	-78.280938	-25.514231
34863	9.439002	-2.000653	-0.435049	0.013788	0.007428	-0.024578	-100.183265	-78.290958	-25.510724
34864	9.488627	-1.999916	-0.482528	0.011104	0.010946	-0.031423	-100.165226	-78.306077	-25.522036
34865	9.447357	-2.042414	-0.423931	0.000948	0.009812	-0.035671	-100.166830	-78.322637	-25.520039
34866	9.524472	-2.056667	-0.443496	0.009174	0.006101	-0.035323	-100.164997	-78.339464	-25.515933
34867	9.525620	-2.057692	-0.466558	0.014815	0.008467	-0.037711	-100.163177	-78.356992	-25.508787
34868	9.545920	-2.013626	-0.397943	0.024669	0.011541	-0.035815	-100.137796	-78.374646	-25.519659
34869	9.567337	-1.982719	-0.401260	0.010411	0.011075	-0.041217	-100.133018	-78.394440	-25.518263
34870	9.519151	-1.976968	-0.351536	0.018505	0.007160	-0.043021	-100.126681	-78.415716	-25.513298
34871	9.516815	-1.953736	-0.379106	0.018802	0.004050	-0.041646	-100.136235	-78.435044	-25.491660
34872	9.517270	-1.945348	-0.354207	0.014516	0.008043	-0.042022	-100.129279	-78.455845	-25.489659
34873	9.542668	-1.942201	-0.377318	0.012221	0.011004	-0.043387	-100.124384	-78.476857	-25.487087
34874	9.543979	-1.942376	-0.400230	0.006182	0.008000	-0.047462	-100.125006	-78.500723	-25.482228
34875	9.520787	-1.941519	-0.399019	-0.001916	0.010729	-0.046640	-100.130822	-78.523535	-25.477302
34876	9.526574	-1.974179	-0.465545	0.002045	0.009847	-0.047641	-100.128796	-78.547688	-25.477563
34877	9.583519	-2.014282	-0.479993	0.023963	0.008159	-0.048541	-100.127971	-78.571325	-25.464538
34878	9.538633	-2.027497	-0.401869	0.022419	0.005112	-0.045000	-100.126172	-78.593511	-25.452657
34879	9.564953	-2.033085	-0.472965	0.042189	0.005426	-0.046088	-100.121418	-78.615502	-25.433294
34880	9.588423	-2.006997	-0.375807	0.049811	0.005600	-0.050442	-100.105300	-78.640807	-25.420013
34881	9.510094	-1.970716	-0.406247	0.051698	0.010457	-0.046549	-100.080875	-78.663590	-25.414764
34882	9.506518	-1.933642	-0.361168	0.040029	0.005056	-0.048235	-100.070765	-78.687598	-25.401075
34883	9.560746	-1.958914	-0.427808	0.041704	0.005956	-0.051580	-100.067183	-78.712708	-25.379906
34884	9.536349	-1.944306	-0.354118	0.043642	0.007284	-0.050617	-100.049916	-78.738283	-25.371405
34885	9.534123	-1.920276	-0.380895	0.046965	0.011441	-0.055355	-100.029529	-78.766083	-25.364342
34886	9.573174	-1.845553	-0.441259	0.034816	0.011273	-0.058623	-100.009952	-78.796574	-25.363355
34887	9.549756	-1.839158	-0.415410	0.038796	0.008042	-0.061572	-100.007463	-78.827587	-25.343699
34888	9.554179	-1.852816	-0.385376	0.027171	0.009908	-0.055251	-99.994424	-78.856040	-25.340512
34889	9.556169	-1.856806	-0.431598	0.032729	0.014651	-0.055694	-99.973062	-78.884403	-25.342931
34890	9.604532	-1.834902	-0.382520	0.033383	0.007264	-0.053901	-99.963320	-78.911832	-25.332758
34891	9.589521	-1.885666	-0.395190	0.030663	0.018030	-0.052765	-99.931699	-78.938896	-25.346809
34892	9.494097	-1.896309	-0.391893	0.041124	0.014959	-0.048100	-99.892258	-78.963812	-25.362378
34893	9.495085	-1.891805	-0.389727	0.059079	0.010682	-0.050912	-99.864437	-78.989137	-25.356070
34894	9.518673	-1.869752	-0.315998	0.081681	0.005455	-0.044920	-99.827541	-79.011323	-25.345371
34895	9.600525	-1.755823	-0.333864	0.080144	0.002414	-0.041370	-99.806627	-79.030397	-25.319327
34896	9.585342	-1.652918	-0.326834	0.071843	0.008424	-0.039803	-99.764055	-79.049985	-25.320154
34897	9.574401	-1.578497	-0.339491	0.044748	0.002157	-0.037082	-99.762013	-79.066608	-25.295623
34898	9.551818	-1.588795	-0.386264	0.037409	0.002413	-0.028425	-99.750977	-79.079188	-25.284423
34899	9.541303	-1.675134	-0.443070	0.005715	0.003204	-0.027492	-99.763772	-79.090613	-25.268472
34900	9.556810	-1.762424	-0.399710	0.009627	0.004701	-0.026542	-99.761027	-79.102352	-25.265041
34901	9.587258	-1.798743	-0.490190	0.001630	0.011155	-0.020670	-99.749350	-79.110629	-25.275983
34902	9.595899	-1.849142	-0.503646	0.038374	0.002800	-0.014318	-99.729538	-79.115280	-25.273160
34903	9.566710	-1.813912	-0.435019	0.041649	0.008133	-0.018098	-99.702311	-79.121832	-25.276354
34904	9.546301	-1.835537	-0.404512	0.056179	0.005636	-0.011289	-99.662420	-79.125047	-25.283588
34905	9.578574	-1.727745	-0.398480	0.060215	0.007359	-0.008187	-99.622011	-79.125903	-25.289705
34906	9.590591	-1.647830	-0.387204	0.058150	0.011928	-0.004296	-99.558983	-79.125766	-25.319351
34907	9.650739	-1.560315	-0.376541	0.026625	0.012928	-0.001216	-99.518205	-79.123291	-25.345967
34908	9.702342	-1.571465	-0.346823	0.011171	0.012106	0.003175	-99.477911	-79.118940	-25.379872
34909	9.661901	-1.627193	-0.335265	-0.014531	0.018316	0.010100	-99.439025	-79.110538	-25.427965
34910	9.522114	-1.685156	-0.375519	-0.017696	0.014395	0.017009	-99.401890	-79.098573	-25.475498
34911	9.529621	-1.734125	-0.365147	-0.020979	0.009066	0.020793	-99.388890	-79.083252	-25.500920
34912	9.572510	-1.695246	-0.321944	-0.022857	0.011497	0.024897	-99.359566	-79.066550	-25.543514
34913	9.592868	-1.674806	-0.350305	-0.036648	0.011569	0.025935	-99.345577	-79.048633	-25.579130
34914	9.572192	-1.704960	-0.344997	-0.041951	0.008445	0.031666	-99.333048	-79.027815	-25.615766
34915	9.534008	-1.777047	-0.282142	-0.040174	0.010742	0.031444	-99.320833	-79.006684	-25.651195
34916	9.473814	-1.871916	-0.314890	-0.056104	0.011619	0.031305	-99.307542	-78.986362	-25.696873
34917	9.461274	-1.954002	-0.324638	-0.068021	0.008087	0.027262	-99.321327	-78.967329	-25.722306
34918	9.493123	-2.004347	-0.339757	-0.050437	0.008097	0.024054	-99.318589	-78.950781	-25.753930
34919	9.572069	-2.037630	-0.307669	-0.061620	0.002135	0.027862	-99.345703	-78.930815	-25.762039
34920	9.552382	-2.076593	-0.351698	-0.042123	-0.001462	0.019576	-99.367986	-78.915912	-25.763317
34921	9.503764	-2.085984	-0.352348	-0.024006	-0.006695	0.017971	-99.403598	-78.900759	-25.741161
34922	9.550571	-2.070347	-0.305934	-0.014405	-0.007533	0.012647	-99.430716	-78.889204	-25.721328
34923	9.519135	-2.032416	-0.339928	-0.002988	-0.007255	0.006132	-99.461343	-78.880683	-25.691805
34924	9.543123	-2.028997	-0.340910	0.000840	-0.008342	0.002988	-99.486596	-78.874507	-25.664970
34925	9.544074	-2.038679	-0.389460	0.014783	-0.008209	0.004107	-99.510481	-78.867000	-25.631599
34926	9.520982	-2.051949	-0.437426	0.040028	-0.009199	-0.004417	-99.519253	-78.864923	-25.598676
34927	9.531063	-1.953580	-0.331909	0.043938	-0.007707	-0.003464	-99.528740	-78.861718	-25.563255
34928	9.510311	-1.976130	-0.303077	0.046117	-0.012053	-0.005209	-99.542576	-78.859815	-25.521615
34929	9.532239	-1.962221	-0.380165	0.047963	-0.013300	-0.008345	-99.567765	-78.858867	-25.467490
34930	9.498539	-1.899309	-0.294015	0.052085	-0.016310	-0.009126	-99.592276	-78.858765	-25.411485
34931	9.519988	-1.880395	-0.347479	0.035845	-0.013504	-0.011624	-99.626835	-78.859580	-25.355087
34932	9.548192	-1.898670	-0.343910	0.023535	-0.017698	-0.022121	-99.678048	-78.866670	-25.288539
34933	9.548535	-1.896723	-0.345120	0.017587	-0.015805	-0.020148	-99.733678	-78.872059	-25.220965
34934	9.501682	-1.911980	-0.393526	0.009206	-0.011193	-0.021713	-99.774360	-78.879528	-25.173520
34935	9.473632	-1.885229	-0.375240	0.009304	-0.017103	-0.026567	-99.842051	-78.888411	-25.099280
34936	9.538147	-1.819133	-0.363107	0.021455	-0.020441	-0.026209	-99.904706	-78.897491	-25.022292
34937	9.558291	-1.784407	-0.345911	0.001603	-0.019876	-0.026311	-99.984659	-78.905913	-24.939671
34938	9.595243	-1.703325	-0.362758	-0.002022	-0.022108	-0.023924	-100.064643	-78.913497	-24.858737
34939	9.571957	-1.709615	-0.388765	-0.025808	-0.021865	-0.023999	-100.164997	-78.920366	-24.771093
34940	9.571274	-1.698027	-0.343331	-0.017512	-0.021743	-0.018556	-100.250238	-78.924911	-24.693850
34941	9.623092	-1.707416	-0.317783	-0.029025	-0.023429	-0.015150	-100.352480	-78.926596	-24.606315
34942	9.631071	-1.753186	-0.310683	-0.053589	-0.011087	-0.013149	-100.424958	-78.929147	-24.563140
34943	9.596660	-1.849230	-0.394062	-0.073267	-0.013859	-0.014002	-100.524173	-78.931217	-24.504313
34944	9.510159	-1.929343	-0.481847	-0.055392	-0.014569	-0.013902	-100.608175	-78.933802	-24.450449
34945	9.493987	-1.979376	-0.474685	-0.024560	-0.022220	-0.006577	-100.699951	-78.930715	-24.371260
34946	9.546129	-1.994364	-0.473099	-0.008773	-0.023307	-0.008620	-100.779529	-78.929362	-24.294687
34947	9.565085	-1.951631	-0.408240	-0.005808	-0.016050	-0.014761	-100.846821	-78.931509	-24.228983
34948	9.579009	-1.889307	-0.496153	0.008188	-0.019436	-0.016586	-100.909952	-78.935021	-24.159267
34949	9.539778	-1.783424	-0.320005	0.018386	-0.022918	-0.016233	-100.984047	-78.937191	-24.072294
34950	9.583823	-1.745616	-0.303481	0.000518	-0.024579	-0.018270	-101.067396	-78.941052	-23.986456
34951	9.620416	-1.665259	-0.320524	-0.029290	-0.018934	-0.013417	-101.155687	-78.942048	-23.912733
34952	9.578492	-1.718846	-0.437083	-0.055504	-0.009873	-0.009977	-101.224200	-78.942835	-23.874718
34953	9.542724	-1.800846	-0.448665	-0.069399	-0.014759	-0.014958	-101.324547	-78.945132	-23.812520
34954	9.547323	-1.977718	-0.466544	-0.087497	-0.013105	-0.016226	-101.424331	-78.949041	-23.761322
34955	9.556733	-2.037039	-0.532108	-0.055291	-0.017918	-0.014646	-101.525546	-78.950747	-23.689920
34956	9.528896	-2.015779	-0.538721	-0.023774	-0.014164	-0.013890	-101.590577	-78.953191	-23.636931
34957	9.504219	-2.008902	-0.492142	-0.002181	-0.016149	-0.019118	-101.659238	-78.957469	-23.567665
34958	9.560497	-1.896045	-0.489287	0.014123	-0.021281	-0.018614	-101.725898	-78.961713	-23.490894
34959	9.572490	-1.814977	-0.481166	0.016218	-0.019722	-0.015500	-101.791531	-78.963661	-23.413624
34960	9.606930	-1.711392	-0.377468	-0.000202	-0.017171	-0.020105	-101.855573	-78.969191	-23.347886
34961	9.536122	-1.735526	-0.449920	-0.019857	-0.012672	-0.012934	-101.920353	-78.970512	-23.292909
34962	9.536229	-1.734530	-0.451489	-0.015302	-0.013834	-0.006295	-101.975128	-78.968669	-23.245426
34963	9.564715	-1.758241	-0.472893	-0.027006	-0.013409	-0.003079	-102.040076	-78.964392	-23.194712
34964	9.543755	-1.776514	-0.421997	-0.024212	-0.019234	0.001829	-102.110413	-78.957330	-23.136575
34965	9.548405	-1.809407	-0.467654	-0.038217	-0.017049	0.002703	-102.188698	-78.949238	-23.078434
34966	9.561010	-1.889515	-0.504291	-0.028151	-0.020738	0.000881	-102.266017	-78.942495	-23.015480
34967	9.580202	-1.852939	-0.463223	-0.014601	-0.011568	0.005448	-102.312995	-78.933592	-22.975596
34968	9.576074	-1.829752	-0.468937	-0.004915	-0.008616	0.005168	-102.339489	-78.925911	-22.950860
34969	9.555073	-1.848810	-0.416735	-0.005124	-0.004118	0.006916	-102.358735	-78.917109	-22.933862
34970	9.571807	-1.807265	-0.474796	-0.000986	-0.007114	0.006113	-102.378029	-78.909080	-22.914169
34971	9.550012	-1.817434	-0.374731	-0.002489	-0.008983	0.010640	-102.407441	-78.897526	-22.885138
34972	9.554132	-1.846686	-0.394948	-0.006628	-0.005987	0.011444	-102.423341	-78.886649	-22.872195
34973	9.574384	-1.824631	-0.424701	-0.012533	-0.007651	0.010515	-102.454598	-78.875351	-22.847276
34974	9.538481	-1.763363	-0.463030	-0.014038	-0.009521	0.015042	-102.482452	-78.862022	-22.826477
34975	9.614798	-1.780884	-0.484706	-0.044511	-0.002417	0.013287	-102.515169	-78.849855	-22.818859
34976	9.547363	-1.830978	-0.552190	-0.058485	-0.003763	0.011241	-102.554430	-78.839363	-22.812388
34977	9.522772	-1.981519	-0.525579	-0.054873	-0.001515	0.008852	-102.593265	-78.829781	-22.804563
34978	9.510365	-2.057172	-0.512698	-0.022773	-0.004182	0.010183	-102.613845	-78.819827	-22.796277
34979	9.554000	-2.021912	-0.494734	-0.010911	-0.004393	0.009113	-102.635183	-78.809629	-22.779490
34980	9.505618	-1.880117	-0.497968	0.002942	-0.005621	0.007050	-102.647031	-78.801245	-22.765085
34981	9.573412	-1.840725	-0.480197	-0.011059	-0.004607	0.006959	-102.670631	-78.792350	-22.747447
34982	9.553510	-1.873366	-0.499830	-0.021448	-0.000165	0.005458	-102.682030	-78.785540	-22.747744
34983	9.577534	-1.869590	-0.500785	-0.019577	-0.003751	0.000357	-102.712108	-78.780353	-22.727733
34984	9.577447	-1.869937	-0.501158	-0.011442	0.002030	0.008512	-102.709631	-78.772113	-22.736332
34985	9.548556	-1.841969	-0.457147	0.004376	0.002139	0.007410	-102.704841	-78.763792	-22.738267
34986	9.553103	-1.875323	-0.500259	-0.003877	0.005779	0.007072	-102.688420	-78.756829	-22.756665
34987	9.568839	-1.820215	-0.485049	0.004024	0.006422	0.007010	-102.672130	-78.749191	-22.770107
34988	9.524131	-1.848025	-0.455236	-0.013785	0.007331	0.009103	-102.655790	-78.741285	-22.794211
34989	9.553513	-1.886338	-0.546575	-0.006175	0.007547	0.004732	-102.643659	-78.735148	-22.809841
34990	9.556648	-1.901569	-0.493681	-0.005679	0.003477	0.007287	-102.634678	-78.727772	-22.821707
34991	9.552543	-1.878770	-0.498022	0.006831	-0.000594	0.010927	-102.633689	-78.717153	-22.817808
34992	9.527474	-1.875010	-0.449691	0.005321	-0.002470	0.015451	-102.629964	-78.704466	-22.817889
34993	9.523980	-1.861731	-0.502241	0.011101	-0.002203	0.013251	-102.629919	-78.692432	-22.811766
34994	9.514418	-1.797727	-0.415459	-0.008670	-0.002626	0.014381	-102.635315	-78.680325	-22.810720
34995	9.596093	-1.857003	-0.527841	-0.017083	0.001981	0.012865	-102.639815	-78.669014	-22.816085
34996	9.623186	-1.868808	-0.475956	-0.023158	0.001289	0.010756	-102.644850	-78.659424	-22.823873
34997	9.586930	-1.953141	-0.485711	-0.027666	0.009748	0.012142	-102.634088	-78.649462	-22.850537
34998	9.547135	-2.018174	-0.523612	-0.021871	0.008837	0.008964	-102.618512	-78.641819	-22.878596
34999	9.494543	-1.998510	-0.503098	-0.005669	0.002299	0.006310	-102.619508	-78.634195	-22.880318
35000	9.538012	-1.958461	-0.460315	0.002295	-0.001770	0.002339	-102.623747	-78.628928	-22.874044
35001	9.510323	-1.943385	-0.488314	0.003923	0.002673	0.001926	-102.620955	-78.623822	-22.874393
35002	9.574377	-1.880118	-0.474020	0.004068	0.002885	0.004080	-102.610159	-78.618164	-22.882418
35003	9.526142	-1.888286	-0.472790	0.003734	0.005991	0.002704	-102.597785	-78.613044	-22.892676
35004	9.526144	-1.888461	-0.472061	-0.008632	0.010283	0.001218	-102.575523	-78.609910	-22.919821
35005	9.505623	-1.911639	-0.442366	-0.012760	0.012106	0.001048	-102.556985	-78.606339	-22.945840
35006	9.518509	-1.995996	-0.500344	-0.014518	0.006274	-0.001672	-102.551029	-78.604318	-22.959792
35007	9.518165	-1.991497	-0.475979	-0.000205	0.004495	0.001757	-102.545637	-78.599439	-22.964521
35008	9.466498	-1.979948	-0.503119	0.000990	0.008302	-0.005120	-102.527307	-78.599598	-22.982031
35009	9.539309	-1.972093	-0.527631	0.009291	0.001126	-0.007713	-102.531820	-78.599573	-22.971557
35010	9.538011	-1.953351	-0.431267	0.004859	0.003702	-0.011215	-102.527791	-78.602569	-22.972217
35011	9.542999	-1.984587	-0.474050	0.005877	0.009650	-0.018290	-102.516983	-78.609476	-22.978732
35012	9.522511	-2.001335	-0.420288	0.007737	0.007244	-0.022415	-102.508366	-78.619176	-22.982390
35013	9.527652	-2.031966	-0.463079	0.006079	0.005154	-0.020047	-102.511043	-78.626576	-22.975664
35014	9.523847	-2.001587	-0.442798	0.015363	0.006283	-0.027759	-102.504020	-78.639146	-22.973240
35015	9.496429	-1.979054	-0.446434	0.013637	-0.001905	-0.032434	-102.529574	-78.652622	-22.938707
35016	9.513993	-1.933911	-0.503634	0.013922	-0.001480	-0.028125	-102.545287	-78.664431	-22.913936
35017	9.563151	-1.927629	-0.528100	0.019393	-0.000459	-0.033655	-102.564574	-78.678713	-22.882609
35018	9.555489	-1.872754	-0.512424	0.033022	0.003988	-0.032978	-102.557167	-78.693915	-22.870258
35019	9.555756	-1.865125	-0.487553	0.016889	0.004622	-0.035220	-102.564007	-78.709818	-22.852642
35020	9.532369	-1.865707	-0.486536	0.010811	0.003922	-0.037332	-102.572278	-78.727447	-22.837282
35021	9.561137	-1.881940	-0.481848	-0.001077	0.005303	-0.035293	-102.588337	-78.743462	-22.821825
35022	9.522024	-1.938590	-0.495355	0.022925	0.006505	-0.032132	-102.579210	-78.758503	-22.817129
35023	9.542038	-1.898581	-0.450909	0.025906	0.011432	-0.040205	-102.565121	-78.778002	-22.815452
35024	9.550920	-1.941949	-0.440233	0.023448	0.012980	-0.044703	-102.545302	-78.800881	-22.821350
35025	9.528142	-1.946509	-0.462262	0.027877	0.010417	-0.041197	-102.533628	-78.820829	-22.816573
35026	9.504927	-1.946569	-0.460917	0.020400	0.000766	-0.044645	-102.550069	-78.842155	-22.787292
35027	9.573968	-1.906745	-0.465745	0.032197	0.004109	-0.042777	-102.554875	-78.862247	-22.763444
35028	9.562701	-1.831638	-0.478258	0.027579	0.007627	-0.047465	-102.549609	-78.886004	-22.752097
35029	9.564025	-1.831780	-0.501160	0.023803	0.005154	-0.047235	-102.559141	-78.908778	-22.728831
35030	9.564468	-1.822952	-0.476108	0.033804	0.006199	-0.045151	-102.552970	-78.931063	-22.714775
35031	9.548573	-1.860926	-0.417397	0.019450	0.010277	-0.046641	-102.549939	-78.954059	-22.706185
35032	9.531686	-1.907196	-0.531172	0.039898	0.003381	-0.045966	-102.548924	-78.976450	-22.683321
35033	9.583033	-1.900200	-0.430137	0.053851	0.003588	-0.044885	-102.544312	-78.997710	-22.656849
35034	9.527523	-1.857221	-0.437475	0.058311	-0.001320	-0.043326	-102.544670	-79.018040	-22.621842
35035	9.597257	-1.826575	-0.490113	0.054330	-0.000478	-0.042325	-102.549756	-79.037261	-22.584078
35036	9.568941	-1.794087	-0.445429	0.060220	0.000025	-0.042370	-102.544650	-79.057223	-22.553527
35037	9.573844	-1.813926	-0.439679	0.050145	0.002500	-0.041533	-102.543603	-79.076425	-22.525839
35038	9.527402	-1.827736	-0.485989	0.044425	-0.001329	-0.042258	-102.551512	-79.096156	-22.491253
35039	9.575365	-1.806311	-0.437907	0.046173	0.002160	-0.041508	-102.553949	-79.115363	-22.462803
35040	9.581683	-1.840114	-0.503821	0.049718	0.006777	-0.041955	-102.535152	-79.135934	-22.452329
35041	9.558014	-1.835721	-0.477781	0.059219	0.008361	-0.045365	-102.514433	-79.157973	-22.439103
35042	9.557470	-1.817651	-0.404256	0.053653	0.004750	-0.043933	-102.500563	-79.179400	-22.421318
35043	9.617621	-1.880632	-0.537288	0.070766	0.012704	-0.044695	-102.459981	-79.201661	-22.421721
35044	9.564843	-1.847284	-0.466719	0.082210	0.014460	-0.048123	-102.403869	-79.226635	-22.430284
35045	9.565337	-1.838217	-0.439887	0.082020	0.014230	-0.050281	-102.355503	-79.252154	-22.431563
35046	9.542314	-1.837871	-0.436633	0.069658	0.017245	-0.052777	-102.301083	-79.280070	-22.445722
35047	9.563114	-1.805418	-0.439095	0.078230	0.010560	-0.051015	-102.266059	-79.305629	-22.436073
35048	9.545392	-1.837868	-0.479224	0.077197	0.013919	-0.060065	-102.221602	-79.337218	-22.435696
35049	9.557218	-1.753045	-0.467256	0.089413	0.014461	-0.054662	-102.170624	-79.365267	-22.435536
35050	9.517777	-1.794010	-0.406123	0.077095	0.015089	-0.059104	-102.121825	-79.396460	-22.439636
35051	9.557318	-1.723246	-0.366122	0.073349	0.011413	-0.059832	-102.092040	-79.427024	-22.426773
35052	9.539735	-1.755323	-0.406368	0.049197	0.015724	-0.060313	-102.057863	-79.458969	-22.432259
35053	9.602415	-1.816411	-0.414319	0.049627	0.007889	-0.062785	-102.054315	-79.490734	-22.406758
35054	9.623314	-1.782550	-0.417432	0.048461	0.018341	-0.066035	-102.016176	-79.526197	-22.416700
35055	9.548700	-1.770867	-0.442811	0.042773	0.014485	-0.066743	-101.998796	-79.561161	-22.409786
35056	9.590846	-1.723729	-0.523047	0.043101	0.012580	-0.064372	-101.979988	-79.595004	-22.403194
35057	9.589280	-1.693024	-0.401460	0.048619	0.013826	-0.067759	-101.961898	-79.630377	-22.393088
35058	9.585515	-1.658307	-0.380352	0.036618	0.016076	-0.066930	-101.937654	-79.666071	-22.395800
35059	9.587785	-1.662078	-0.426167	0.035171	0.013044	-0.063356	-101.926839	-79.698914	-22.386643
35060	9.612307	-1.646869	-0.400581	0.029006	0.018201	-0.060638	-101.896141	-79.731331	-22.400346
35061	9.564806	-1.645069	-0.373827	0.020977	0.018427	-0.061772	-101.875788	-79.763878	-22.409113
35062	9.567019	-1.649371	-0.419767	0.015808	0.014085	-0.056980	-101.862843	-79.793758	-22.412458
35063	9.581243	-1.577920	-0.356766	0.018245	0.013792	-0.051497	-101.851524	-79.819921	-22.412912
35064	9.612403	-1.606754	-0.422221	0.000053	0.016187	-0.053977	-101.838971	-79.848363	-22.425028
35065	9.583650	-1.572623	-0.377559	-0.006012	0.016588	-0.055127	-101.835330	-79.876970	-22.432588
35066	9.623265	-1.643387	-0.409105	-0.015751	0.020660	-0.049043	-101.814394	-79.903170	-22.462416
35067	9.628678	-1.661974	-0.402557	-0.019627	0.017916	-0.050951	-101.811197	-79.929615	-22.477097
35068	9.611395	-1.695020	-0.443271	-0.006200	0.023715	-0.049331	-101.775078	-79.956332	-22.516782
35069	9.587051	-1.685059	-0.393106	0.000234	0.020233	-0.046771	-101.750272	-79.980649	-22.541650
35070	9.612573	-1.680836	-0.415047	0.009430	0.025191	-0.049433	-101.700188	-80.007586	-22.586415
35071	9.645937	-1.713566	-0.378682	0.021131	0.027489	-0.048541	-101.640964	-80.033707	-22.633821
35072	9.613115	-1.661595	-0.361634	0.017257	0.024741	-0.050451	-101.587965	-80.061149	-22.676986
