// General information: 
//  MT Manager version: 2022.2.0 
//  XDA version: 2022.2.0 build 7381 rev 124627 built on 2023-07-19
// Device information: 
//  DeviceId: 00B4BB4F
//  ProductCode: MTW2-3A7G6
//  Firmware Version: 4.6.0
//  Hardware Version: 2.0.0
// Device settings: 
//  Filter Profile: human(46.1)
//  Option Flags: Orientation Smoother Disabled, Position/Velocity Smoother Disabled, Continuous Zero Rotation Update Disabled, AHS Disabled, ICC Disabled
// Coordinate system: ENU
PacketCounter	Acc_X	Acc_Y	Acc_Z	Gyr_X	Gyr_Y	Gyr_Z	Roll	Pitch	Yaw
33839	10.106618	-0.544593	3.713620	-1.493356	-0.041067	0.161147	-8.779818	-84.311449	8.214128
33840	10.222936	0.053175	3.687250	-1.635690	-0.037288	0.130419	-10.486017	-84.320654	8.987261
33841	10.074229	0.468924	3.614176	-1.788860	-0.009142	0.137377	-12.297226	-84.310492	9.778079
33842	9.680435	0.787841	3.549715	-1.955498	0.039255	0.186826	-14.400288	-84.264581	10.765944
33843	9.352544	1.142190	3.317097	-2.117393	0.069825	0.261738	-16.934954	-84.185758	12.094780
33844	9.133754	1.346329	2.981793	-2.277866	0.065199	0.321621	-19.823181	-84.092938	13.686517
33845	9.124349	1.587385	2.708809	-2.449927	0.051921	0.361993	-22.973357	-83.989731	15.443013
33846	9.032684	1.776172	2.336807	-2.601835	0.021224	0.380239	-26.276794	-83.888687	17.266210
33847	9.062369	1.974029	2.109014	-2.756388	-0.028886	0.379386	-29.708025	-83.801445	19.129359
33848	8.954548	2.156082	1.958313	-2.919068	-0.067502	0.353835	-33.144847	-83.729585	20.904489
33849	8.800022	2.147078	1.726647	-3.073894	-0.120425	0.349118	-36.749136	-83.671766	22.759179
33850	8.740144	2.000142	1.404592	-3.223302	-0.189296	0.341268	-40.575118	-83.635189	24.750861
33851	8.854658	1.904734	0.926191	-3.343721	-0.277292	0.303399	-44.601774	-83.634782	26.875163
33852	8.928690	1.689615	0.499283	-3.454398	-0.411199	0.234269	-48.954586	-83.699247	29.263633
33853	9.204606	1.194762	0.361024	-3.538835	-0.521015	0.172505	-53.675870	-83.809032	31.973728
33854	9.141973	0.522753	0.378274	-3.584596	-0.530416	0.190451	-58.635558	-83.888613	34.896725
33855	8.762678	0.049961	0.318528	-3.581618	-0.536194	0.264704	-63.889547	-83.903711	38.117169
33856	8.669610	-0.345983	0.255854	-3.535036	-0.580799	0.369994	-69.544634	-83.841407	41.767979
33857	8.667033	-0.458232	0.228457	-3.460825	-0.622116	0.483658	-75.403498	-83.684771	45.667317
33858	8.631088	-0.384803	0.096647	-3.396113	-0.660575	0.598187	-81.248241	-83.426431	49.591298
33859	8.688613	-0.389268	-0.089504	-3.346760	-0.678820	0.724902	-86.796959	-83.054000	53.248171
33860	8.648714	-0.533071	-0.428877	-3.293087	-0.702059	0.848597	-91.920971	-82.572926	56.511270
33861	8.668192	-0.534338	-0.793558	-3.224299	-0.762926	0.953487	-96.685960	-81.995456	59.455808
33862	12.043466	-0.884054	-0.619553	-3.110406	-0.835474	0.915037	-101.156519	-81.403826	62.172944
33863	20.162358	9.657588	5.333401	-2.560130	0.531524	-0.237576	-100.799298	-81.595692	60.328981
33864	5.662721	-6.527834	-2.706140	-3.937724	0.726188	0.137686	-100.193308	-81.594585	57.436089
33865	11.012957	4.629850	2.147980	-2.126112	-0.016235	-0.250940	-101.662724	-81.734314	57.690309
33866	8.996569	2.768883	0.765183	-2.476803	0.480244	-0.327995	-101.466013	-81.974256	56.058347
33867	9.296458	5.114953	-0.195740	-2.162380	0.443082	-0.517557	-101.328904	-82.315608	54.669480
33868	9.705068	6.765662	-0.897301	-2.060969	0.595742	-0.776909	-100.594659	-82.818249	52.738488
33869	9.680415	8.077636	-2.326761	-2.284810	0.904056	-1.040318	-98.473754	-83.492861	49.284118
33870	11.007785	-0.213629	-2.444257	-2.732520	1.272867	-1.114156	-93.954105	-84.208119	43.164096
33871	14.318066	-1.804386	-2.405810	-1.706490	1.009167	-1.095872	-89.070333	-84.852800	37.276130
33872	10.528153	-1.742935	-2.767979	-2.072190	1.697044	-0.950897	-78.339192	-85.290916	25.314173
33873	9.836499	-2.999019	-3.047431	-1.108515	1.485762	-1.033586	-66.517946	-85.601342	12.818994
33874	9.999068	-2.270478	-3.502417	-0.754045	1.458748	-0.957383	-53.856899	-85.663090	-0.311586
33875	10.177711	-3.179007	-2.848924	0.152895	1.138888	-0.795211	-43.431223	-85.574618	-10.679390
33876	11.749123	-1.031236	-1.446256	0.972913	1.253858	-0.714122	-33.288340	-85.265022	-20.295039
33877	11.839895	0.473810	0.326603	0.737039	1.812788	-0.537214	-24.256982	-84.501602	-28.937746
33878	6.803307	-2.023540	3.146502	0.449195	1.571534	-0.389725	-18.765834	-83.745755	-34.198696
33879	9.309582	0.141167	1.510320	1.242201	0.522394	-0.382796	-15.381250	-83.524850	-36.887670
33880	9.427096	2.017222	2.033033	0.497687	0.742422	-0.237164	-13.068434	-83.146544	-38.928795
33881	8.797238	1.173986	2.346268	0.192401	0.489163	-0.227199	-11.426897	-82.901063	-40.471080
33882	8.782732	-1.055471	1.570829	0.061796	0.300138	-0.233638	-10.085447	-82.757750	-41.787100
33883	9.306521	-0.017168	1.629159	0.222843	0.103704	-0.267766	-8.687356	-82.724902	-43.067365
33884	8.654597	-0.120762	1.734905	0.135515	-0.038559	-0.139111	-8.009990	-82.758964	-43.671613
33885	10.169435	0.004602	1.221555	0.234627	-0.286472	-0.126753	-7.472172	-82.932106	-44.077771
33886	9.498529	-0.141408	1.130448	0.014190	-0.129064	-0.045448	-7.325873	-83.009410	-44.216669
33887	9.939110	-0.233404	0.913625	0.187053	-0.215251	-0.033851	-7.182033	-83.134916	-44.253210
33888	9.910783	-0.127368	0.928665	0.063947	-0.098830	0.005308	-7.223624	-83.191329	-44.174102
33889	9.825427	-0.240549	0.983353	0.117174	-0.112662	0.016476	-7.297337	-83.254891	-44.031862
33890	9.916208	-0.205264	0.918366	0.084731	-0.078584	0.024532	-7.409689	-83.298365	-43.869531
33891	9.937897	-0.257668	0.870668	0.082472	-0.047653	0.021557	-7.490422	-83.324568	-43.740262
33892	9.832095	-0.262700	0.876090	0.069665	-0.013709	0.013607	-7.519085	-83.331957	-43.670899
33893	9.768198	-0.283463	0.983518	0.068594	0.006158	0.000601	-7.472162	-83.329154	-43.678160
33894	9.733696	-0.202994	1.011762	0.065386	-0.005349	-0.000597	-7.428921	-83.332856	-43.683660
33895	9.782880	-0.210867	0.989442	0.043982	0.001165	0.003223	-7.412063	-83.332698	-43.674846
33896	9.814468	-0.244626	1.018713	0.032562	0.003759	0.003715	-7.402805	-83.330907	-43.665066
33897	9.819433	-0.263593	0.929464	0.021338	-0.005428	0.003091	-7.402474	-83.334509	-43.652671
33898	9.893797	-0.225851	0.892676	0.017903	0.013805	-0.000410	-7.375243	-83.327314	-43.669444
33899	9.721564	-0.277014	1.042910	0.005432	0.025297	-0.003741	-7.331622	-83.313967	-43.709806
33900	9.859729	-0.218564	0.900150	0.016224	0.017384	-0.001006	-7.300370	-83.304779	-43.731595
33901	9.893159	-0.225460	0.899820	-0.006661	0.044013	0.006931	-7.303961	-83.280018	-43.731396
33902	9.879981	-0.227713	0.957717	-0.001491	0.053881	0.005368	-7.291210	-83.249623	-43.744779
33903	9.809828	-0.242462	1.002362	-0.025666	0.060519	0.010471	-7.312547	-83.215232	-43.737668
33904	9.794541	-0.314522	1.002503	-0.031407	0.060675	-0.005467	-7.261347	-83.181764	-43.807037
33905	9.757501	-0.303863	0.977842	-0.033599	0.070184	-0.015471	-7.158875	-83.143750	-43.929195
33906	9.663625	-0.292501	1.097915	-0.049011	0.085571	-0.022181	-7.026129	-83.097281	-44.090872
33907	9.642444	-0.312648	1.121970	-0.044455	0.067317	-0.030975	-6.861839	-83.061908	-44.281587
33908	9.646670	-0.286148	1.130139	-0.044671	0.064242	-0.034527	-6.684719	-83.028301	-44.485487
33909	9.677200	-0.286840	1.098462	-0.044045	0.058572	-0.028541	-6.539748	-82.997613	-44.656530
33910	9.642612	-0.247495	1.040316	-0.041445	0.051293	-0.025309	-6.413414	-82.970655	-44.807426
33911	9.703684	-0.209766	1.061781	-0.054808	0.056851	-0.018609	-6.323758	-82.940231	-44.928964
33912	9.709057	-0.257757	1.044336	-0.050189	0.054827	-0.019237	-6.230526	-82.910816	-45.051571
33913	9.708713	-0.286909	1.116490	-0.064093	0.064938	-0.025424	-6.112987	-82.876158	-45.206583
33914	9.747605	-0.309817	1.030291	-0.053461	0.066333	-0.031919	-5.960565	-82.840888	-45.390750
33915	9.738553	-0.284970	1.092821	-0.062331	0.091488	-0.040791	-5.763407	-82.791899	-45.625018
33916	9.724309	-0.252543	1.088544	-0.053640	0.101341	-0.045620	-5.538270	-82.737287	-45.882624
33917	9.730370	-0.197542	1.069131	-0.058628	0.120239	-0.044999	-5.314630	-82.671909	-46.141507
33918	9.692954	-0.215055	1.116091	-0.065219	0.125166	-0.038127	-5.127241	-82.603071	-46.367815
33919	9.772586	-0.192209	1.003913	-0.057806	0.146031	-0.032899	-4.954449	-82.522149	-46.575023
33920	9.743043	-0.294260	1.132528	-0.067213	0.182243	-0.033743	-4.774409	-82.420334	-46.795155
33921	9.540190	-0.287213	1.267752	-0.054117	0.180164	-0.041616	-4.559691	-82.320160	-47.042618
33922	9.536565	-0.210789	1.308441	-0.049663	0.147970	-0.044872	-4.344851	-82.238213	-47.287821
33923	9.620980	-0.193867	1.264965	-0.038210	0.118308	-0.044354	-4.139455	-82.173257	-47.516774
33924	9.578495	-0.235247	1.308216	-0.047704	0.106886	-0.041053	-3.959777	-82.114407	-47.725427
33925	9.559461	-0.226578	1.301100	-0.037479	0.076247	-0.046812	-3.761929	-82.073386	-47.946399
33926	9.608393	-0.230065	1.286534	-0.039241	0.063364	-0.052239	-3.548166	-82.039635	-48.184616
33927	9.621035	-0.254323	1.305487	-0.037587	0.051586	-0.054063	-3.330900	-82.012747	-48.425294
33928	9.580204	-0.193669	1.334819	-0.038300	0.025759	-0.066210	-3.071650	-82.000696	-48.708929
33929	9.570917	-0.235521	1.331300	-0.035447	-0.001402	-0.066614	-2.815559	-82.004210	-48.987590
33930	9.510283	-0.196639	1.371060	-0.032313	-0.041642	-0.071714	-2.543705	-82.030523	-49.280482
33931	9.651726	-0.160297	1.291038	-0.029138	-0.070950	-0.067403	-2.290876	-82.073512	-49.552166
33932	9.716323	-0.159593	1.210342	-0.031916	-0.068152	-0.059134	-2.070336	-82.114374	-49.792967
33933	9.787753	-0.108123	1.100934	-0.026460	-0.050858	-0.049920	-1.880469	-82.145225	-49.999490
33934	9.765311	-0.154313	1.145213	-0.026563	-0.026539	-0.039217	-1.730408	-82.161679	-50.166014
33935	9.681633	-0.168689	1.233496	-0.027932	-0.011449	-0.037212	-1.587370	-82.169601	-50.326094
33936	9.672955	-0.113039	1.221137	-0.019567	-0.014449	-0.029497	-1.471443	-82.178872	-50.454109
33937	9.711521	-0.093250	1.219574	-0.017375	-0.008897	-0.018182	-1.400947	-82.184978	-50.534853
33938	9.680060	-0.158543	1.195874	-0.015512	-0.009413	-0.014020	-1.346402	-82.191104	-50.598563
33939	9.702681	-0.138423	1.213295	-0.019069	-0.003984	-0.015271	-1.288386	-82.194340	-50.667686
33940	9.675552	-0.110890	1.252102	-0.017990	-0.007363	-0.016073	-1.226325	-82.199300	-50.740413
33941	9.707569	-0.180941	1.154661	-0.021083	-0.003775	-0.016018	-1.166226	-82.202408	-50.812800
33942	9.664504	-0.152236	1.212498	-0.022472	0.003109	-0.016439	-1.104213	-82.201353	-50.888069
33943	9.648682	-0.149685	1.230783	-0.018611	-0.007195	-0.017461	-1.036888	-82.206420	-50.966317
33944	9.718966	-0.133003	1.192198	-0.018918	-0.016013	-0.013070	-0.988287	-82.216264	-51.025993
33945	9.653531	-0.123693	1.230760	-0.020457	-0.009433	-0.010075	-0.952961	-82.222528	-51.073009
33946	9.687568	-0.129186	1.226682	-0.016431	-0.016703	-0.007523	-0.926050	-82.232703	-51.109353
33947	9.699137	-0.153818	1.204125	-0.018593	-0.016797	-0.004856	-0.911964	-82.243136	-51.133850
33948	9.746928	-0.156801	1.146894	-0.015040	-0.016745	-0.008163	-0.881413	-82.253338	-51.173061
33949	9.717692	-0.126147	1.151122	-0.019837	-0.002763	-0.009740	-0.846486	-82.255776	-51.219307
33950	9.710853	-0.177178	1.180510	-0.021531	0.002148	-0.006824	-0.824014	-82.255137	-51.254119
33951	9.638396	-0.119529	1.243898	-0.023545	0.002357	-0.007571	-0.800066	-82.254624	-51.291426
33952	9.715365	-0.152371	1.182944	-0.017356	-0.004817	-0.007691	-0.771953	-82.257979	-51.329515
33953	9.699543	-0.151010	1.201210	-0.021212	-0.000002	-0.002106	-0.769852	-82.258777	-51.343425
33954	9.647691	-0.140049	1.188097	-0.015481	-0.003972	-0.000034	-0.772867	-82.261587	-51.349016
33955	9.733654	-0.125813	1.131866	-0.016562	-0.000597	0.000774	-0.780309	-82.262708	-51.350603
33956	9.704037	-0.127980	1.203560	-0.017168	0.009146	0.005330	-0.806147	-82.257961	-51.334137
33957	9.746757	-0.087383	1.206674	-0.013590	0.013289	0.012515	-0.860537	-82.251036	-51.286623
33958	9.617756	-0.145182	1.261836	-0.015899	0.012883	0.018596	-0.941133	-82.244024	-51.214160
33959	9.671920	-0.130524	1.243251	-0.013584	-0.005894	0.019163	-1.024717	-82.248010	-51.137177
33960	9.676685	-0.177394	1.184851	-0.011113	-0.009309	0.017714	-1.100475	-82.253693	-51.066829
33961	9.590791	-0.193127	1.240106	-0.010980	-0.004874	0.006256	-1.128316	-82.257219	-51.044597
33962	9.618019	-0.151182	1.259128	-0.001548	-0.027662	0.008248	-1.160409	-82.273510	-51.012787
33963	9.717810	-0.166437	1.213481	-0.002017	-0.032670	0.007995	-1.193036	-82.292939	-50.980545
33964	9.718334	-0.135440	1.144626	-0.006043	-0.025401	0.005456	-1.215942	-82.307963	-50.960606
33965	9.745547	-0.193683	1.169154	-0.008365	-0.014830	0.002445	-1.227313	-82.317242	-50.953484
33966	9.682543	-0.158046	1.175669	-0.005418	-0.018727	0.005793	-1.250809	-82.328438	-50.932590
33967	9.705314	-0.139495	1.191925	-0.005283	-0.019779	-0.001118	-1.245808	-82.340602	-50.940203
33968	9.703338	-0.136040	1.155864	0.000014	-0.017831	0.010140	-1.284737	-82.351229	-50.900598
33969	9.773503	-0.121653	1.117173	-0.006470	-0.005784	0.012553	-1.337495	-82.355204	-50.850618
33970	9.741818	-0.121078	1.154341	-0.007521	0.007162	0.019313	-1.417503	-82.351378	-50.773922
33971	9.734795	-0.174744	1.184626	-0.013862	0.012669	0.019361	-1.501588	-82.344675	-50.696603
33972	9.766236	-0.179033	1.149068	-0.016640	0.019594	0.019597	-1.586379	-82.333695	-50.620351
33973	9.718422	-0.177863	1.206938	-0.022824	0.026768	0.019730	-1.675140	-82.318886	-50.543489
33974	9.785972	-0.160505	1.137900	-0.027319	0.029034	0.016939	-1.753052	-82.302515	-50.480347
33975	9.735841	-0.155159	1.162706	-0.041087	0.042063	0.014347	-1.826871	-82.279022	-50.429116
33976	9.710364	-0.203318	1.180321	-0.040794	0.042680	0.007522	-1.870291	-82.254991	-50.408567
33977	9.791204	-0.145395	1.186353	-0.052248	0.045129	0.007933	-1.922519	-82.229858	-50.385572
33978	9.745459	-0.115696	1.214751	-0.066182	0.049630	0.006296	-1.973920	-82.201865	-50.371646
33979	9.692777	-0.206089	1.212110	-0.068827	0.048651	0.000665	-2.004374	-82.174861	-50.380213
33980	9.773583	-0.147684	1.218634	-0.071780	0.045689	-0.001643	-2.026203	-82.149283	-50.399374
33981	9.838628	-0.156773	1.183682	-0.089422	0.055288	-0.001098	-2.060085	-82.118521	-50.416391
33982	9.894486	-0.212601	1.144805	-0.089268	0.070728	-0.021603	-2.006014	-82.079012	-50.522300
33983	9.759583	-0.222541	1.264081	-0.127497	0.102104	-0.039920	-1.896552	-82.022205	-50.706078
33984	9.677605	-0.346376	1.209662	-0.087882	0.083203	-0.064853	-1.666441	-81.976259	-50.988981
33985	9.812417	-0.163155	1.197887	-0.106296	0.109218	-0.094389	-1.329247	-81.915999	-51.390539
33986	9.861103	-0.361374	1.197793	-0.126878	0.122864	-0.134258	-0.847746	-81.847615	-51.950027
33987	9.703487	-0.277952	1.295114	-0.106369	0.094377	-0.185119	-0.162949	-81.795360	-52.702922
33988	9.800094	-0.200294	1.286618	-0.127159	0.051371	-0.232158	0.689787	-81.765834	-53.637803
33989	10.036938	-0.147830	1.106355	-0.147150	0.020779	-0.286749	1.742342	-81.751314	-54.786020
33990	10.529424	-0.329254	0.897816	-0.193633	0.038849	-0.358198	3.042629	-81.720996	-56.211739
33991	12.745855	0.156362	0.002482	-0.311353	0.049390	-0.381237	4.350693	-81.679535	-57.713403
33992	13.285642	-1.942512	-1.034540	-0.571544	0.481744	-0.440696	5.558467	-81.383169	-59.265247
33993	10.623641	-6.300463	-1.394726	-0.795874	0.872040	-0.363541	6.108642	-80.865877	-60.283029
33994	9.171615	-7.304662	-0.956421	-1.068414	0.867998	-0.169751	5.775518	-80.361597	-60.565530
33995	9.941973	-7.839637	-0.713375	-1.299292	0.797901	-0.120373	5.177230	-79.901052	-60.713285
33996	10.809769	-6.929960	-0.361448	-1.551761	0.803843	-0.276883	4.936825	-79.428744	-61.372352
33997	11.017703	-5.703754	-0.122839	-1.828740	0.886223	-0.480927	5.091759	-78.900079	-62.596326
33998	9.893005	-4.830514	0.031553	-2.193370	0.965299	-0.602744	5.297974	-78.318421	-64.088314
33999	9.221815	-4.894917	-0.215545	-2.461353	0.886056	-0.706768	5.564598	-77.776072	-65.801778
34000	8.883578	-5.242464	-0.039663	-2.666768	0.773507	-0.740637	5.753295	-77.293604	-67.559534
34001	8.552444	-5.275460	0.189473	-2.803129	0.658435	-0.717508	5.764902	-76.878564	-69.218646
34002	8.237161	-5.451969	0.280531	-2.868711	0.490064	-0.658423	5.597811	-76.562240	-70.735447
34003	8.066146	-5.401811	0.411761	-2.850231	0.254919	-0.555558	5.223087	-76.388578	-72.029175
34004	7.712042	-5.239794	0.632373	-2.822394	0.053680	-0.424246	4.597015	-76.337585	-73.048641
34005	7.717961	-5.066204	0.851854	-2.739646	-0.175799	-0.260331	3.668713	-76.429211	-73.708142
34006	7.724238	-4.890436	1.234598	-2.625124	-0.380362	-0.079505	2.406520	-76.644899	-73.956548
34007	7.785988	-4.805096	1.438134	-2.447938	-0.572979	0.101220	0.791805	-76.976687	-73.738269
34008	8.264475	-4.602040	1.811641	-2.206145	-0.789022	0.256725	-1.121831	-77.428862	-73.071804
34009	9.339875	-4.030624	2.201244	-1.968584	-0.923045	0.346512	-3.257028	-77.951803	-72.040525
34010	10.147797	-3.360836	2.392076	-1.739152	-0.959160	0.357472	-5.428373	-78.484876	-70.840059
34011	10.451882	-2.788096	2.578355	-1.553066	-0.906537	0.328009	-7.557811	-78.981708	-69.575860
34012	10.296816	-2.361478	2.571740	-1.367708	-0.839799	0.287409	-9.567661	-79.433650	-68.327266
34013	9.844001	-1.952550	2.564314	-1.203458	-0.805331	0.273989	-11.574553	-79.860358	-66.987888
34014	9.477804	-1.596318	2.601192	-1.044116	-0.809180	0.311485	-13.743471	-80.274320	-65.393001
34015	9.486259	-1.109065	2.579383	-0.913164	-0.803779	0.370057	-16.206870	-80.666229	-63.425472
34016	9.778069	-0.612730	2.563429	-0.816142	-0.773649	0.417384	-18.914587	-81.017485	-61.156148
34017	9.894078	-0.251607	2.494219	-0.725019	-0.759449	0.407322	-21.728017	-81.346115	-58.729268
34018	9.896915	0.086754	2.374013	-0.651526	-0.781849	0.332434	-24.449932	-81.684356	-56.354362
34019	9.925821	0.213286	2.350924	-0.576533	-0.823649	0.258344	-27.164812	-82.046198	-53.945395
34020	9.784324	0.266375	2.409803	-0.527754	-0.833783	0.221932	-29.954986	-82.405911	-51.434229
34021	9.468795	0.371088	2.545357	-0.487632	-0.803585	0.255943	-33.052937	-82.723070	-48.591574
34022	9.282579	0.446103	2.725868	-0.474727	-0.753267	0.334162	-36.537338	-82.969200	-45.353672
34023	9.415381	0.565594	2.773579	-0.466921	-0.694914	0.409273	-40.362654	-83.136137	-41.769367
34024	9.430295	0.691116	2.934677	-0.476521	-0.647641	0.473120	-44.401224	-83.228464	-37.976712
34025	9.517365	0.620681	3.038181	-0.483210	-0.601777	0.502803	-48.481910	-83.257847	-34.146084
34026	9.505061	0.378859	3.113104	-0.477061	-0.582559	0.523208	-52.541299	-83.239668	-30.333298
34027	9.303057	0.068768	3.266431	-0.465068	-0.570566	0.557895	-56.616658	-83.168835	-26.497272
34028	8.939547	-0.402625	3.445946	-0.422900	-0.558311	0.626402	-60.660066	-83.029702	-22.668139
34029	18.787046	-0.706633	5.976276	0.059620	-0.396233	0.224752	-62.776022	-83.023796	-20.501832
34030	8.513338	4.392523	6.939113	-0.729045	1.184492	0.297310	-59.158991	-82.546123	-24.568403
34031	12.816587	0.634296	7.397596	0.270816	1.172298	0.178058	-55.238285	-82.096349	-28.367859
34032	11.237171	4.548187	7.357128	-0.119828	2.123666	0.098688	-48.959335	-81.303962	-34.782045
34033	10.679691	6.135105	5.749731	0.119418	2.323000	-0.136696	-42.621134	-80.431054	-41.131965
34034	2.901795	11.332320	1.794960	0.480624	2.132429	-0.395903	-36.902107	-79.636909	-46.658424
34035	-3.143973	3.479488	-6.450750	0.842455	-0.231966	-0.684399	-35.093605	-79.975665	-48.005382
34036	15.083621	21.610191	1.550216	3.058489	-1.345854	-1.454982	-31.711906	-81.079278	-49.656762
34037	21.298604	9.186855	4.357957	0.278579	0.548953	-0.898634	-27.714224	-81.062547	-53.541440
34038	8.281990	3.559315	3.912557	-0.239968	1.016610	-0.200935	-25.592774	-80.594333	-55.829289
34039	5.088708	-4.958783	2.433506	0.346573	0.052447	-0.488908	-23.771858	-80.685343	-57.472975
34040	12.419998	2.919087	1.439563	0.284870	-0.214888	-0.571544	-22.037494	-80.927011	-59.064242
34041	9.201302	-1.425479	1.289660	-0.026274	0.044996	-0.276621	-21.065722	-80.962530	-60.062992
34042	10.493657	0.564698	1.512229	0.119670	-0.129630	-0.119855	-20.755566	-81.057182	-60.307268
34043	9.203029	-1.474815	1.305860	0.010801	-0.093370	-0.105420	-20.506310	-81.129808	-60.552769
34044	10.020055	-0.395519	1.175646	0.068294	-0.183752	-0.141393	-20.209545	-81.257453	-60.813159
34045	9.965512	-1.011084	0.827554	0.036252	-0.084573	-0.121460	-19.867679	-81.328097	-61.137469
34046	9.679881	-0.803411	1.144974	0.088317	-0.035147	-0.162462	-19.280762	-81.379006	-61.679631
34047	9.362500	-0.860479	1.298270	0.089601	-0.041956	-0.224026	-18.474093	-81.444565	-62.442999
34048	9.607661	-0.720684	1.190298	0.125148	-0.068399	-0.264388	-17.516629	-81.529373	-63.338307
34049	9.595492	-0.771799	1.130744	0.120668	-0.052072	-0.297399	-16.403726	-81.608890	-64.392948
34050	9.566359	-0.756444	1.159887	0.141834	-0.045999	-0.337354	-15.099614	-81.687443	-65.628583
34051	9.675819	0.108804	1.388706	0.197423	-0.124771	-0.238619	-14.196796	-81.792446	-66.426037
34052	9.440865	-0.678361	1.317865	0.075417	-0.091829	-0.229219	-13.347297	-81.875504	-67.240266
34053	9.538819	-0.271109	1.372738	0.153223	-0.211002	-0.234777	-12.520414	-82.024694	-67.986186
34054	9.625190	-0.284976	1.341120	0.084436	-0.223304	-0.213022	-11.801448	-82.176152	-68.662879
34055	10.808636	0.114948	0.658936	0.099237	-0.286538	-0.124609	-11.469803	-82.352591	-68.939661
34056	9.850509	-0.480833	1.000848	-0.056773	-0.059399	-0.092259	-11.159860	-82.396997	-69.284871
34057	9.790227	-0.314139	1.083965	0.088384	-0.129485	-0.103147	-10.774486	-82.482339	-69.621998
34058	9.720029	-0.318766	1.070088	0.006810	-0.085244	-0.092830	-10.435921	-82.540789	-69.959223
34059	9.728459	-0.269440	1.087121	0.049721	-0.119015	-0.089689	-10.108499	-82.618320	-70.260139
34060	9.729083	-0.300501	1.091201	0.006304	-0.106298	-0.078404	-9.838093	-82.686731	-70.528824
34061	9.777481	-0.267684	1.030053	0.022297	-0.119562	-0.072952	-9.588949	-82.762579	-70.766567
34062	9.799487	-0.304067	0.945359	0.000548	-0.104974	-0.068021	-9.357203	-82.828960	-70.999524
34063	9.792053	-0.265916	0.979373	0.005944	-0.090591	-0.062219	-9.135252	-82.887203	-71.219230
34064	9.836211	-0.255081	0.907777	0.003238	-0.069925	-0.050303	-8.949436	-82.931935	-71.404292
34065	9.870872	-0.253092	0.897105	-0.003097	-0.041458	-0.041071	-8.788550	-82.960329	-71.567642
34066	9.728250	-0.306217	1.016943	-0.012619	-0.017362	-0.035317	-8.640042	-82.973859	-71.724243
34067	9.728621	-0.303074	1.014327	-0.002005	-0.035968	-0.030838	-8.519808	-82.998181	-71.845989
34068	9.729072	-0.300084	1.010887	-0.009737	-0.034388	-0.031838	-8.395984	-83.020981	-71.976043
34069	9.729505	-0.297252	1.007553	-0.006130	-0.033658	-0.028023	-8.288035	-83.043708	-72.087781
34070	9.729945	-0.294434	1.004122	-0.011331	-0.036334	-0.031715	-8.165389	-83.067537	-72.217556
34071	9.726873	-0.311510	0.987341	-0.010297	-0.032381	-0.032663	-8.035828	-83.089866	-72.353458
34072	9.715281	-0.296921	1.014433	-0.015221	-0.031294	-0.031646	-7.910711	-83.110761	-72.487955
34073	9.712717	-0.274368	0.982555	-0.005220	-0.040382	-0.034330	-7.773927	-83.137698	-72.628189
34074	9.759182	-0.285080	0.943565	-0.015126	-0.030198	-0.034885	-7.630995	-83.158143	-72.780561
34075	9.716602	-0.287188	1.004537	-0.012893	-0.029182	-0.037427	-7.474912	-83.178879	-72.944645
34076	9.706966	-0.304190	0.946220	-0.011172	-0.034668	-0.041929	-7.297054	-83.202282	-73.129897
34077	9.710886	-0.279929	0.956577	-0.006322	-0.027753	-0.045545	-7.095513	-83.222676	-73.335955
34078	9.742566	-0.219022	0.905377	-0.003259	-0.024992	-0.042557	-6.901968	-83.240472	-73.532421
34079	9.730473	-0.243117	0.948898	-0.015577	-0.008937	-0.039910	-6.719916	-83.249628	-73.724177
34080	9.702931	-0.275800	1.009618	-0.001977	-0.017785	-0.042527	-6.520039	-83.263166	-73.926270
34081	9.712392	-0.224374	0.934181	-0.007254	-0.021068	-0.039244	-6.341854	-83.279047	-74.109320
34082	9.737890	-0.231160	0.985342	-0.011596	-0.021495	-0.033668	-6.190707	-83.293997	-74.267883
34083	9.750164	-0.239490	0.952772	-0.013308	-0.025067	-0.034033	-6.041803	-83.311731	-74.424931
34084	9.735311	-0.205417	0.952462	-0.016523	-0.020423	-0.032643	-5.896495	-83.325913	-74.580448
34085	9.735586	-0.202763	0.950219	-0.019755	-0.024900	-0.025423	-5.791796	-83.342975	-74.696697
34086	9.751067	-0.231546	0.945469	-0.027415	-0.031360	-0.023815	-5.700024	-83.362814	-74.804587
34087	9.744697	-0.230399	0.901003	-0.030347	-0.022946	-0.017709	-5.637263	-83.378296	-74.884717
34088	9.702203	-0.234640	0.962764	-0.031712	-0.022156	-0.020332	-5.559668	-83.392660	-74.980806
34089	9.699223	-0.213566	0.932199	-0.032490	-0.022874	-0.018406	-5.494049	-83.408129	-75.065044
34090	9.733509	-0.214330	0.924381	-0.031938	-0.024903	-0.017587	-5.430707	-83.423884	-75.146910
34091	9.767784	-0.215161	0.916606	-0.031689	-0.021653	-0.016604	-5.372359	-83.438551	-75.223361
34092	9.727251	-0.212287	0.878348	-0.032768	-0.017093	-0.014511	-5.320506	-83.449668	-75.294137
34093	9.749492	-0.201927	0.901930	-0.035642	-0.008085	-0.015364	-5.263910	-83.456526	-75.371100
34094	9.753022	-0.180781	0.914752	-0.042453	-0.003683	-0.014039	-5.213500	-83.459952	-75.446006
34095	9.764824	-0.231052	0.898918	-0.043624	-0.000238	-0.008706	-5.190933	-83.461987	-75.493317
34096	9.703527	-0.225701	0.951491	-0.040716	0.000394	-0.009940	-5.158019	-83.462864	-75.549611
34097	9.718907	-0.216703	0.934588	-0.035724	0.000347	-0.003512	-5.156574	-83.464306	-75.571106
34098	9.780192	-0.221478	0.882298	-0.040057	0.009034	-0.003740	-5.150276	-83.459932	-75.600229
34099	9.749332	-0.238908	0.917296	-0.042809	0.019665	-0.004088	-5.141477	-83.450393	-75.633213
34100	9.730490	-0.227918	0.907951	-0.036737	0.024191	-0.005564	-5.117560	-83.437461	-75.678157
34101	9.668911	-0.222981	0.963045	-0.033577	0.028079	-0.005806	-5.091499	-83.423220	-75.723193
34102	9.656742	-0.211185	0.995657	-0.022773	0.019759	-0.010469	-5.037567	-83.413059	-75.790301
34103	9.699340	-0.204179	0.933087	-0.022035	0.010829	-0.010326	-4.990438	-83.408891	-75.849891
34104	9.763898	-0.227675	0.909774	-0.024050	0.012531	-0.010526	-4.940335	-83.402846	-75.913883
34105	9.751809	-0.215522	0.941601	-0.023586	0.018525	-0.012274	-4.881479	-83.394381	-75.986174
34106	9.744965	-0.214949	0.901921	-0.027366	0.025181	-0.011680	-4.822579	-83.381155	-76.060936
34107	9.698719	-0.200734	0.940259	-0.023524	0.028672	-0.010608	-4.768190	-83.366814	-76.128699
34108	9.766528	-0.204206	0.932362	-0.023278	0.031920	-0.009615	-4.714888	-83.349626	-76.195471
34109	9.716785	-0.210059	0.957877	-0.028552	0.037743	-0.012139	-4.652915	-83.330175	-76.273774
34110	9.716458	-0.209395	0.961329	-0.023812	0.034441	-0.006698	-4.613802	-83.311398	-76.326574
34111	9.712767	-0.229069	0.950999	-0.024591	0.033716	-0.004774	-4.587709	-83.293907	-76.366472
34112	9.727862	-0.219724	0.937646	-0.026422	0.037652	-0.011445	-4.526332	-83.273504	-76.443198
34113	9.684832	-0.185651	0.990097	-0.024996	0.028327	-0.010001	-4.477794	-83.259332	-76.505934
34114	9.711948	-0.227024	0.959812	-0.022111	0.019327	-0.009170	-4.432468	-83.249279	-76.564015
34115	9.764569	-0.199479	0.953660	-0.026364	0.029118	-0.012623	-4.372288	-83.234770	-76.639267
34116	9.692833	-0.214238	0.953827	-0.027921	0.036807	-0.014564	-4.298412	-83.214950	-76.729456
34117	9.717710	-0.223788	1.009931	-0.024597	0.024160	-0.013422	-4.235893	-83.203300	-76.806049
34118	9.698997	-0.172147	0.986616	-0.024793	0.031051	-0.012739	-4.171769	-83.186669	-76.884617
34119	9.633666	-0.226772	1.042267	-0.028512	0.020039	-0.007542	-4.141591	-83.177123	-76.930903
34120	9.686406	-0.199555	1.034799	-0.015776	-0.000698	-0.006710	-4.112429	-83.178374	-76.969060
34121	9.726095	-0.212308	0.957475	-0.023314	0.003572	-0.010434	-4.071281	-83.178360	-77.023397
34122	9.695323	-0.189415	0.976918	-0.020837	0.007865	-0.011969	-4.016998	-83.174923	-77.089773
34123	9.744653	-0.221129	0.969963	-0.017508	0.004364	-0.016613	-3.942858	-83.174703	-77.173988
34124	9.713847	-0.197731	0.989768	-0.025340	0.014402	-0.016415	-3.867925	-83.167683	-77.263761
34125	9.682995	-0.174278	1.009933	-0.022667	0.011801	-0.018637	-3.784913	-83.163275	-77.359890
34126	9.660992	-0.182028	0.985878	-0.012067	0.010306	-0.011902	-3.725460	-83.158399	-77.426415
34127	9.686109	-0.152208	1.025711	-0.015520	0.012178	-0.007758	-3.690339	-83.153360	-77.470188
34128	9.679468	-0.192028	0.998851	-0.005152	-0.001700	0.003754	-3.705286	-83.154763	-77.457789
34129	9.744416	-0.176710	0.960196	-0.007051	0.001621	0.004054	-3.724904	-83.155333	-77.441543
34130	9.735409	-0.185626	1.018910	-0.008317	0.003542	-0.001802	-3.713589	-83.153945	-77.457422
34131	9.645458	-0.151127	0.990229	0.000947	0.003347	0.006046	-3.737645	-83.153466	-77.432091
34132	9.698203	-0.126039	0.982344	0.009530	0.004426	0.030750	-3.870771	-83.150338	-77.292192
34133	9.648339	-0.215407	1.033294	0.009750	-0.001969	0.033792	-4.023598	-83.151805	-77.132084
34134	9.697857	-0.211829	1.010645	0.015342	-0.013060	0.036125	-4.184887	-83.158362	-76.960467
34135	9.744293	-0.188491	0.959209	0.020153	-0.015737	0.034603	-4.340943	-83.167565	-76.791111
34136	9.759569	-0.222649	0.956275	0.008532	0.000946	0.035400	-4.498113	-83.166041	-76.627576
34137	9.679244	-0.210533	0.997291	0.015701	0.000938	0.031846	-4.637798	-83.165754	-76.477279
34138	9.694634	-0.204919	0.980625	0.019100	-0.001066	0.038401	-4.803901	-83.165134	-76.298648
34139	9.771423	-0.243438	0.926299	0.018859	0.004824	0.031622	-4.939159	-83.162556	-76.150988
34140	9.682083	-0.239434	1.026146	0.015236	0.004076	0.027799	-5.054737	-83.159428	-76.025472
34141	9.709811	-0.204593	0.965039	0.017372	0.003996	0.028499	-5.176237	-83.157421	-75.892527
34142	9.712844	-0.226875	0.993351	0.011266	-0.001042	0.026211	-5.288592	-83.157235	-75.772548
34143	9.746814	-0.231508	0.988363	0.016813	0.006014	0.027686	-5.405611	-83.154068	-75.644439
34144	9.724731	-0.242969	0.964018	0.017715	0.008356	0.026263	-5.510136	-83.148462	-75.528622
34145	9.724544	-0.245241	0.965327	0.012016	0.017830	0.023421	-5.603995	-83.138751	-75.426607
34146	9.727703	-0.227437	0.980648	0.014029	0.016125	0.023623	-5.694042	-83.128819	-75.327495
34147	9.653414	-0.253466	1.079208	0.008045	0.012716	0.021834	-5.784667	-83.122088	-75.231026
34148	9.718365	-0.239956	1.041043	0.016817	-0.003513	0.019042	-5.860524	-83.123580	-75.144597
34149	9.708519	-0.261759	0.985324	0.010403	-0.003272	0.016939	-5.934393	-83.126224	-75.063647
34150	9.727425	-0.234362	0.981776	0.012270	-0.007099	0.012911	-5.985732	-83.130100	-75.004538
34151	9.693412	-0.233212	0.986364	0.005857	-0.006857	0.010808	-6.035214	-83.135148	-74.950778
34152	9.742999	-0.227711	0.963836	0.008118	-0.005316	0.012007	-6.083886	-83.138050	-74.896752
34153	9.739579	-0.248894	0.950079	-0.000591	0.002401	0.013617	-6.145864	-83.137654	-74.834128
34154	9.727416	-0.238837	0.980793	0.001095	0.005466	0.010270	-6.184869	-83.134509	-74.793891
34155	9.723914	-0.259940	0.967826	0.000563	0.007990	0.013188	-6.241320	-83.130957	-74.736169
34156	9.715087	-0.230097	1.012793	0.000936	0.012857	0.014683	-6.297331	-83.123318	-74.678895
34157	9.674093	-0.269237	0.991601	0.003805	0.003858	0.015516	-6.365022	-83.121970	-74.607979
34158	9.745513	-0.255031	0.995368	0.001343	0.008709	0.011266	-6.406675	-83.116896	-74.564932
34159	9.692821	-0.242775	0.989860	0.006150	0.006021	0.009750	-6.444686	-83.114683	-74.522559
34160	9.738905	-0.257244	0.954757	-0.001951	0.003202	0.010992	-6.489786	-83.112755	-74.477940
34161	9.723310	-0.266961	0.971977	-0.001597	0.007570	0.008754	-6.526749	-83.109731	-74.441094
34162	9.726620	-0.247762	0.986449	-0.002828	0.009996	0.006629	-6.548076	-83.104213	-74.420927
34163	9.710983	-0.257231	1.004092	-0.002150	0.009594	0.007941	-6.580450	-83.100100	-74.389023
34164	9.723370	-0.229720	0.960275	-0.000546	0.012034	0.011560	-6.622462	-83.093095	-74.346702
34165	9.710692	-0.259394	1.006351	-0.005479	0.013099	0.012577	-6.676571	-83.086685	-74.294825
34166	9.744610	-0.262995	1.002123	-0.004500	0.007428	0.013706	-6.733278	-83.082149	-74.239983
34167	9.706988	-0.282132	0.994732	-0.006138	0.013998	0.014997	-6.798505	-83.075063	-74.177287
34168	9.741301	-0.245909	0.976443	-0.005926	0.016245	0.008529	-6.826683	-83.065850	-74.152004
34169	9.713003	-0.283870	1.039676	-0.005694	0.018990	0.005794	-6.845703	-83.056555	-74.135600
34170	9.718989	-0.256302	0.954744	-0.006604	0.016646	0.007217	-6.867794	-83.047201	-74.116841
34171	9.725174	-0.256964	0.998286	-0.005678	0.019486	0.009525	-6.903903	-83.037379	-74.083212
34172	9.722010	-0.238172	0.971922	-0.005804	0.017863	0.009027	-6.933137	-83.027206	-74.056793
34173	9.709178	-0.267659	1.018714	-0.005430	0.022726	0.010522	-6.971785	-83.015480	-74.020463
34174	9.708936	-0.268712	1.020747	-0.003544	0.019398	0.010228	-7.004237	-83.004346	-73.989496
34175	9.727206	-0.280626	1.034162	-0.007033	0.020287	0.006900	-7.028290	-82.994267	-73.968797
34176	9.705576	-0.250580	0.996287	-0.003011	0.016875	0.007310	-7.048214	-82.984769	-73.950143
34177	9.692719	-0.279867	1.042876	-0.006359	0.019881	0.008211	-7.078132	-82.974837	-73.923146
34178	9.704670	-0.291871	1.014345	-0.005148	0.016957	0.006606	-7.095871	-82.965340	-73.907927
34179	9.723450	-0.263775	1.013191	-0.004790	0.021323	0.004370	-7.106343	-82.954869	-73.899617
34180	9.723206	-0.264310	1.015393	-0.008139	0.024329	0.005270	-7.115354	-82.941274	-73.894920
34181	9.692311	-0.242716	1.036235	-0.005027	0.018575	0.007104	-7.140104	-82.932183	-73.872362
34182	9.694993	-0.263202	1.066104	-0.005152	0.016953	0.006605	-7.157670	-82.922686	-73.857318
34183	9.688560	-0.264198	1.025449	-0.003075	0.007237	0.009362	-7.198134	-82.919884	-73.817799
34184	9.706960	-0.276088	1.037433	-0.005584	0.002460	0.007160	-7.226778	-82.918584	-73.791841
34185	9.710285	-0.256845	1.051670	-0.008572	0.009833	0.005825	-7.252741	-82.914567	-73.770111
34186	9.716076	-0.268935	0.980571	-0.006312	0.011368	0.007029	-7.275976	-82.908210	-73.750023
34187	9.737818	-0.260704	1.006871	-0.009123	0.011856	0.005011	-7.297378	-82.903114	-73.733208
34188	9.722044	-0.270069	1.024959	-0.007165	0.018654	0.006400	-7.313896	-82.892660	-73.720381
34189	9.715587	-0.270765	0.984907	-0.005041	0.018075	0.003373	-7.321883	-82.884160	-73.714728
34190	9.706000	-0.279678	1.045425	-0.011627	0.025212	0.001939	-7.316785	-82.870305	-73.726261
34191	9.702919	-0.260296	1.019413	-0.006380	0.019373	0.004479	-7.329867	-82.860998	-73.716247
34192	9.724567	-0.251797	1.046449	-0.005717	0.018475	0.002060	-7.325879	-82.850963	-73.723250
34193	9.686863	-0.269735	1.039932	-0.007358	0.025037	0.003351	-7.331154	-82.838532	-73.721669
34194	9.724073	-0.252703	1.050814	-0.009060	0.021971	0.006690	-7.347975	-82.826171	-73.709630
34195	9.704801	-0.281994	1.055879	-0.010408	0.022777	0.004063	-7.359554	-82.814982	-73.703458
34196	9.707946	-0.262686	1.071627	-0.007050	0.020263	0.006898	-7.377065	-82.803576	-73.689562
34197	9.682481	-0.292152	1.034839	-0.008150	0.024308	0.005270	-7.391897	-82.791438	-73.678810
34198	9.701281	-0.264086	1.033924	-0.009435	0.017108	0.005190	-7.404857	-82.781949	-73.670878
34199	9.701073	-0.264831	1.035680	-0.009978	0.019621	0.008108	-7.436191	-82.772274	-73.644549
34200	9.719284	-0.276556	1.049117	-0.010658	0.019533	0.003062	-7.438839	-82.761565	-73.647718
34201	9.687778	-0.294556	1.083934	-0.005290	0.015315	0.006106	-7.461025	-82.754495	-73.627902
34202	9.684837	-0.275307	1.057202	-0.006086	0.014100	0.004293	-7.469694	-82.746781	-73.622362
34203	9.722129	-0.258268	1.067317	-0.007426	0.015399	0.005397	-7.489909	-82.739724	-73.605768
34204	9.684507	-0.276365	1.059943	-0.006210	0.012481	0.003792	-7.497329	-82.732967	-73.601558
34205	9.703410	-0.248251	1.058225	-0.010600	0.011523	0.005606	-7.522583	-82.728105	-73.581719
34206	9.702633	-0.288503	1.073895	-0.006760	0.014502	0.002979	-7.525477	-82.720261	-73.582389
34207	9.718187	-0.280128	1.058295	-0.006032	0.005602	0.003105	-7.540505	-82.718960	-73.570222
34208	9.705792	-0.269408	1.089321	-0.003527	0.010370	0.005315	-7.554337	-82.713286	-73.557997
34209	9.705667	-0.270037	1.090283	-0.006454	0.009732	0.006524	-7.582409	-82.709390	-73.532925
34210	9.702179	-0.290693	1.077401	-0.005905	0.007709	0.007337	-7.608099	-82.705073	-73.510119
34211	9.721138	-0.262829	1.075200	-0.007492	0.005771	0.007440	-7.643209	-82.703362	-73.478553
34212	9.699265	-0.272414	1.050542	-0.008041	0.007794	0.006627	-7.666872	-82.699048	-73.459025
34213	9.689609	-0.281719	1.109447	-0.004812	0.003173	0.005231	-7.692245	-82.698989	-73.435728
34214	9.683461	-0.282473	1.067859	-0.003469	0.002362	0.007859	-7.721965	-82.697662	-73.407452
34215	9.739270	-0.276608	1.088569	-0.006033	0.005601	0.003104	-7.737226	-82.696393	-73.395057
34216	9.699039	-0.274874	1.051981	-0.003593	0.000744	0.007358	-7.765758	-82.696021	-73.368049
34217	9.733081	-0.278031	1.047225	-0.009080	0.003833	0.007543	-7.803558	-82.695419	-73.334693
34218	9.689338	-0.285153	1.110935	-0.005482	0.004065	0.007650	-7.832434	-82.693135	-73.308429
34219	9.695497	-0.297220	1.039107	-0.004934	0.002042	0.008462	-7.873080	-82.693483	-73.269810
34220	9.742392	-0.260620	1.103626	-0.002799	0.001955	0.009172	-7.908427	-82.692272	-73.235473
34221	9.683077	-0.287888	1.069892	-0.004687	0.005277	0.009464	-7.951440	-82.690708	-73.194327
34222	9.701397	-0.299887	1.081912	-0.005482	0.004065	0.007649	-7.980254	-82.688415	-73.168125
34223	9.717033	-0.291929	1.065675	-0.005606	0.002447	0.007148	-8.015363	-82.688644	-73.135481
34224	9.720373	-0.272782	1.079625	-0.005606	0.002447	0.007148	-8.043017	-82.687306	-73.110520
34225	9.704639	-0.282196	1.096337	-0.000667	0.001380	0.006150	-8.071624	-82.688225	-73.081579
34226	9.682809	-0.291581	1.071317	-0.004690	0.004788	0.005732	-8.091011	-82.685670	-73.064425
34227	9.713465	-0.314428	1.052848	-0.002926	-0.000151	0.004939	-8.116598	-82.687560	-73.039835
34228	9.667048	-0.301427	1.088118	-0.000667	0.001379	0.006150	-8.137667	-82.686903	-73.018662
34229	9.680060	-0.273246	1.043323	-0.000369	-0.004366	0.002229	-8.152585	-82.691410	-73.003354
34230	9.716857	-0.295646	1.066256	-0.001464	-0.000319	0.000603	-8.150666	-82.692166	-73.005817
34231	9.704564	-0.284651	1.096370	-0.000246	-0.002748	0.002730	-8.166797	-82.695725	-72.989217
34232	9.682803	-0.293570	1.070828	-0.001588	-0.001936	0.000102	-8.163758	-82.697439	-72.992880
34233	9.704598	-0.284924	1.095992	-0.004392	-0.000956	0.001810	-8.177149	-82.700064	-72.981439
34234	9.763292	-0.309822	1.030432	0.000671	-0.000406	0.001314	-8.177208	-82.700811	-72.980674
34235	9.698527	-0.285266	1.053940	-0.000917	-0.002342	0.001416	-8.187836	-82.704264	-72.970012
34236	9.701219	-0.305322	1.081981	-0.000669	0.000892	0.002418	-8.192730	-82.704184	-72.965147
34237	9.686221	-0.274550	1.084123	-0.002257	-0.001044	0.002521	-8.208284	-82.706819	-72.950295
34238	9.698526	-0.286007	1.053747	-0.000122	-0.001131	0.003231	-8.217762	-82.707820	-72.940493
34239	9.716908	-0.297550	1.065259	-0.002926	-0.000151	0.004939	-8.243934	-82.709758	-72.915324
34240	9.720292	-0.278091	1.079005	0.000002	0.000486	0.003732	-8.254532	-82.709800	-72.904321
34241	9.692388	-0.287287	1.012036	-0.005484	0.003577	0.003918	-8.275327	-82.709715	-72.886053
34242	9.701110	-0.307642	1.082304	-0.002678	0.003083	0.005942	-8.295575	-82.708101	-72.866870
34243	9.679282	-0.316909	1.057238	0.000126	0.002103	0.004233	-8.315587	-82.708834	-72.846152
34244	9.714041	-0.280046	1.038173	0.000921	0.003314	0.006048	-8.334086	-82.707079	-72.826652
34245	9.717409	-0.260645	1.052093	0.002137	0.000398	0.004442	-8.355064	-82.708770	-72.803800
34246	9.713213	-0.320685	1.053291	-0.002730	0.011090	0.003402	-8.358864	-82.702826	-72.801229
34247	9.732229	-0.292592	1.051175	0.001591	0.002907	0.007362	-8.391514	-82.702859	-72.766925
34248	9.679695	-0.279738	1.044986	-0.002430	0.006317	0.006944	-8.413896	-82.699324	-72.745446
34249	9.684955	-0.320035	1.101788	0.001838	0.005655	0.004633	-8.432580	-82.698035	-72.725084
34250	9.685625	-0.280776	1.087851	0.000920	0.003313	0.006048	-8.451025	-82.696276	-72.705639
34251	9.694474	-0.312417	1.044175	0.000920	0.003313	0.006048	-8.478100	-82.696197	-72.677346
34252	9.697834	-0.293016	1.058175	0.000125	0.002102	0.004233	-8.489761	-82.695275	-72.665200
34253	9.722963	-0.264793	1.097614	0.001838	0.005654	0.004633	-8.508577	-82.694000	-72.644708
34254	9.716063	-0.305290	1.070763	-0.000966	0.007120	0.010072	-8.543325	-82.689738	-72.609915
34255	9.678463	-0.323766	1.062649	0.001169	0.007031	0.010783	-8.588805	-82.687161	-72.562928
34256	9.685189	-0.285038	1.090614	-0.002009	0.003161	0.010986	-8.630757	-82.685057	-72.521476
34257	9.697432	-0.297227	1.060690	0.000920	0.003796	0.009780	-8.674148	-82.684396	-72.476739
34258	9.731438	-0.300653	1.056209	0.003179	0.005324	0.010993	-8.711653	-82.681058	-72.436772
34259	9.715608	-0.310341	1.073436	-0.001512	0.009142	0.009259	-8.750555	-82.677417	-72.397969
34260	9.718886	-0.291546	1.088080	-0.001513	0.009626	0.012991	-8.796545	-82.671461	-72.352158
34261	9.681243	-0.310301	1.080177	-0.002978	0.009308	0.013594	-8.855228	-82.667345	-72.294255
34262	9.662774	-0.300452	1.069218	-0.004817	0.004140	0.012692	-8.905428	-82.664510	-72.246106
34263	9.696794	-0.304093	1.064563	-0.000002	0.001452	0.011196	-8.957260	-82.665047	-72.193399
34264	9.696736	-0.305059	1.064821	-0.003351	0.003973	0.008358	-8.987633	-82.662684	-72.164394
34265	9.715007	-0.317107	1.076889	0.002507	0.005727	0.009679	-9.028446	-82.660938	-72.121345
34266	9.696558	-0.306827	1.065934	-0.001637	0.007523	0.008758	-9.057069	-82.656526	-72.093113
34267	9.712179	-0.298859	1.050280	-0.001387	0.010272	0.006028	-9.080921	-82.652539	-72.069419
34268	9.718061	-0.299651	1.093231	-0.001264	0.012371	0.010261	-9.112452	-82.645245	-72.038039
34269	9.677787	-0.298219	1.057475	0.000870	0.012280	0.010973	-9.155252	-82.639677	-71.993933
34270	9.680227	-0.318919	1.086758	-0.003397	0.011977	0.005817	-9.168714	-82.633006	-71.982004
34271	9.695853	-0.310724	1.071201	0.003427	0.007582	0.004533	-9.185174	-82.630687	-71.962983
34272	9.717501	-0.302617	1.097388	-0.002184	0.009545	0.007944	-9.208914	-82.625196	-71.939988
34273	9.683302	-0.300900	1.103039	-0.000300	0.006222	0.007653	-9.242137	-82.623367	-71.906219
34274	9.729611	-0.315338	1.068684	0.001415	0.009771	0.008054	-9.264072	-82.617735	-71.882966
34275	9.698817	-0.293765	1.088249	-0.000051	0.009453	0.008656	-9.299235	-82.613985	-71.847099
34276	9.695254	-0.314537	1.075498	0.002208	0.010978	0.009870	-9.327692	-82.607500	-71.816811
34277	9.713451	-0.326647	1.088015	0.000492	0.007429	0.009469	-9.367510	-82.604823	-71.775943
34278	9.710733	-0.307745	1.061034	0.000448	0.015915	0.010661	-9.396765	-82.595468	-71.745865
34279	9.682446	-0.306234	1.109072	0.004341	0.010885	0.010583	-9.436718	-82.590735	-71.702627
34280	9.678895	-0.326687	1.096270	0.002090	0.008395	0.001905	-9.432305	-82.586449	-71.705552
34281	9.678777	-0.326956	1.097228	0.003008	0.011218	0.004222	-9.445150	-82.582125	-71.690431
34282	9.660369	-0.315850	1.086373	0.006112	0.004497	-0.001403	-9.426888	-82.580353	-71.704998
34283	9.712741	-0.329192	1.093578	0.008250	0.003923	-0.004421	-9.404548	-82.580971	-71.722320
34284	9.679509	-0.286383	1.084381	0.008126	0.002307	-0.004923	-9.371438	-82.580765	-71.750697
34285	9.712685	-0.328250	1.094358	0.007702	0.006429	-0.001503	-9.360330	-82.579699	-71.757022
34286	9.728405	-0.319319	1.078440	0.007577	0.004813	-0.002004	-9.338419	-82.577801	-71.774423
34287	9.675933	-0.305373	1.072301	0.005693	0.008136	-0.001716	-9.326404	-82.575799	-71.782833
34288	9.678409	-0.325033	1.101042	0.002512	0.004272	-0.001515	-9.309919	-82.574161	-71.797688
34289	9.662625	-0.333351	1.117690	0.008544	-0.001333	-0.004609	-9.290515	-82.577781	-71.811897
34290	9.706570	-0.326522	1.054444	0.008674	-0.000202	-0.007840	-9.246218	-82.579255	-71.851239
34291	9.678487	-0.322897	1.100984	0.008430	-0.003917	-0.012573	-9.194156	-82.585075	-71.898445
34292	9.712682	-0.323904	1.095681	0.010443	-0.006109	-0.016092	-9.117034	-82.590632	-71.969866
34293	9.746875	-0.324744	1.090430	0.008558	-0.002788	-0.015804	-9.049956	-82.596098	-72.032122
34294	9.744328	-0.303311	1.062718	0.006081	0.011043	-0.015143	-8.967456	-82.591839	-72.111484
34295	9.712734	-0.319180	1.096602	0.005035	0.007087	-0.014228	-8.902444	-82.591560	-72.173712
34296	9.685391	-0.275699	1.129604	0.005698	0.007165	-0.009181	-8.848867	-82.588946	-72.224131
34297	9.710090	-0.297071	1.069921	0.004362	0.007979	-0.011811	-8.794237	-82.587934	-72.276294
34298	9.734298	-0.307132	1.124269	0.007954	0.008690	-0.007967	-8.743692	-82.584339	-72.322351
34299	9.713341	-0.275377	1.085382	0.005147	0.009673	-0.006265	-8.711736	-82.581874	-72.351165
34300	9.700875	-0.263501	1.116449	0.003559	0.007740	-0.006164	-8.672259	-82.578653	-72.388601
34301	9.694031	-0.303040	1.089734	0.005557	0.007006	0.001513	-8.675777	-82.577046	-72.381396
34302	9.693968	-0.302899	1.090329	0.003306	0.004994	-0.003433	-8.650169	-82.575142	-72.404992
34303	9.694760	-0.262888	1.076358	0.002509	0.004271	-0.001517	-8.644143	-82.575340	-72.409155
34304	9.681468	-0.291272	1.121571	0.002755	0.007502	-0.000517	-8.629884	-82.571762	-72.421625
34305	9.693806	-0.302604	1.091855	-0.000551	0.002509	0.002916	-8.646020	-82.572602	-72.405300
34306	9.712098	-0.313884	1.103737	0.001588	0.001932	-0.000101	-8.637915	-82.572144	-72.412238
34307	9.712906	-0.274142	1.089577	0.001712	0.003548	0.000399	-8.641139	-82.572605	-72.407653
34308	9.677937	-0.311348	1.109115	0.000921	0.002339	-0.001416	-8.627435	-82.572030	-72.420623
34309	9.709455	-0.293851	1.076552	0.002632	0.005886	-0.001017	-8.622674	-82.571299	-72.423410
34310	9.681181	-0.291100	1.124089	-0.000467	0.011636	-0.002862	-8.597383	-82.565580	-72.448868
34311	9.711833	-0.313374	1.106216	0.005854	0.001752	0.001328	-8.603574	-82.566971	-72.438845
34312	9.712593	-0.273677	1.092481	0.000991	0.012438	0.000269	-8.590534	-82.560529	-72.451106
34313	9.633572	-0.317267	1.175681	0.001704	0.004034	0.004131	-8.609760	-82.560399	-72.430392
34314	9.730796	-0.285432	1.105003	0.002547	-0.003241	0.004762	-8.625619	-82.562453	-72.412610
34315	9.709955	-0.255062	1.064986	0.004128	-0.000822	0.008392	-8.665363	-82.564723	-72.369706
34316	9.711604	-0.315769	1.107542	0.000516	-0.000075	0.015741	-8.727960	-82.564031	-72.305962
34317	9.712376	-0.277711	1.093393	0.001676	0.005980	0.019056	-8.810863	-82.561500	-72.220887
34318	9.646576	-0.294686	1.131646	0.005012	0.003945	0.025633	-8.910991	-82.557634	-72.116695
34319	9.665722	-0.268678	1.128540	0.005893	-0.011330	0.028811	-9.045711	-82.564010	-71.976867
34320	9.693932	-0.274090	1.081016	0.008395	-0.006577	0.031025	-9.174533	-82.565550	-71.841784
34321	9.680660	-0.305757	1.124683	0.006293	-0.014001	0.036589	-9.344869	-82.572621	-71.666012
34322	9.714809	-0.311786	1.118451	0.010430	-0.015805	0.037517	-9.507593	-82.578671	-71.495567
34323	9.661561	-0.341226	1.124493	0.009636	-0.017017	0.035702	-9.675093	-82.587412	-71.320697
34324	9.677474	-0.335809	1.106012	0.012606	-0.024878	0.033316	-9.825761	-82.598868	-71.161160
34325	9.727512	-0.332848	1.082391	0.010595	-0.023173	0.033101	-9.986816	-82.611195	-70.992480
34326	9.709385	-0.324574	1.068326	0.014612	-0.027082	0.029798	-10.123718	-82.624137	-70.845674
34327	9.736678	-0.369609	1.034055	0.010566	-0.015664	0.026820	-10.252885	-82.632782	-70.708878
34328	9.743645	-0.332183	1.060340	0.012668	-0.007759	0.024982	-10.355343	-82.635243	-70.597932
34329	9.721850	-0.343322	1.034496	0.013713	-0.003323	0.027794	-10.477299	-82.636747	-70.466775
34330	9.746020	-0.356902	1.088018	0.010627	0.002435	0.025948	-10.576966	-82.633309	-70.359822
34331	9.740923	-0.319649	1.032051	0.011551	0.004770	0.024529	-10.679529	-82.630507	-70.249331
34332	9.711622	-0.358973	1.094144	0.006456	0.012726	0.026199	-10.773971	-82.621201	-70.150054
34333	9.699094	-0.349800	1.125533	0.007134	0.011345	0.020052	-10.853599	-82.615201	-70.065696
34334	9.655399	-0.369090	1.075589	0.004358	0.003848	0.020577	-10.931882	-82.611461	-69.983922
34335	9.661289	-0.370354	1.117596	0.002656	-0.001151	0.008990	-10.976727	-82.613654	-69.936922
34336	9.689436	-0.373622	1.070503	0.008682	-0.007260	0.002174	-10.981999	-82.618155	-69.926273
34337	9.692981	-0.353786	1.083764	0.004136	-0.001810	0.000928	-10.991758	-82.621607	-69.913597
34338	9.727068	-0.356423	1.078873	0.005063	0.000527	-0.000491	-10.980977	-82.622019	-69.921225
34339	9.724602	-0.336485	1.050788	0.010127	0.001053	-0.000981	-10.976813	-82.624069	-69.919071
34340	9.734030	-0.316187	1.106719	0.005580	0.006503	-0.002228	-10.953157	-82.621308	-69.939383
34341	9.678113	-0.321905	1.086880	0.007046	0.006815	-0.002830	-10.937634	-82.620315	-69.950763
34342	9.732877	-0.355404	1.122347	0.003725	0.001830	0.000610	-10.931305	-82.619873	-69.954675
34343	9.680475	-0.341680	1.115899	0.001176	0.006053	0.003308	-10.946682	-82.618643	-69.938012
34344	9.726805	-0.356095	1.081352	0.000248	0.003717	0.004726	-10.958634	-82.616692	-69.925499
34345	9.711999	-0.325443	1.083528	0.002790	-0.000020	0.005759	-10.988814	-82.618637	-69.893072
34346	9.692655	-0.354448	1.086460	0.000786	0.001692	0.005543	-11.005703	-82.617734	-69.875271
34347	9.726681	-0.357711	1.081933	-0.002556	0.004709	0.006428	-11.037860	-82.616921	-69.843973
34348	9.692515	-0.355675	1.087311	-0.000963	0.006636	0.006324	-11.054939	-82.613150	-69.826990
34349	9.674158	-0.344950	1.076306	-0.002294	0.007454	0.003694	-11.072807	-82.611119	-69.809976
34350	9.695828	-0.336700	1.102356	-0.001629	0.007045	0.005009	-11.084190	-82.607262	-69.799121
34351	9.673991	-0.345825	1.077520	-0.004015	0.003911	0.003299	-11.104440	-82.607255	-69.780613
34352	9.688703	-0.377143	1.075889	-0.000410	0.003640	-0.000319	-11.094920	-82.605900	-69.790133
34353	9.707982	-0.348563	1.073504	-0.005210	0.005859	-0.002563	-11.088891	-82.605431	-69.798720
34354	9.729675	-0.339653	1.099529	-0.000020	0.008000	-0.002554	-11.065775	-82.601870	-69.821723
34355	9.726069	-0.359432	1.086851	-0.001103	0.012534	-0.000458	-11.060699	-82.597405	-69.827270
34356	9.748736	-0.311176	1.099035	0.000481	0.014945	0.003169	-11.056223	-82.589307	-69.831189
34357	9.729199	-0.340315	1.103525	-0.003545	0.019340	0.010197	-11.093045	-82.579877	-69.795676
34358	9.675516	-0.367133	1.113171	-0.007553	0.022764	0.009765	-11.114963	-82.566656	-69.777619
34359	9.698093	-0.319707	1.125901	-0.005932	0.016206	0.008486	-11.148089	-82.559168	-69.747392
34360	9.694379	-0.340559	1.113848	-0.003674	0.017722	0.009699	-11.171635	-82.548787	-69.725451
34361	9.672417	-0.350251	1.090148	-0.005142	0.017409	0.010299	-11.211176	-82.540438	-69.688096
34362	9.706289	-0.353938	1.086976	-0.003803	0.016105	0.009200	-11.233893	-82.531018	-69.667065
34363	9.724306	-0.366216	1.100279	-0.006610	0.017096	0.010899	-11.276957	-82.522760	-69.627038
34364	9.709338	-0.336091	1.103930	-0.005808	0.017816	0.008983	-11.298302	-82.512400	-69.608549
34365	9.709073	-0.337158	1.105937	-0.006767	0.023960	0.011577	-11.338349	-82.500222	-69.571564
34366	9.689440	-0.366802	1.110762	-0.006486	0.018707	0.011397	-11.369465	-82.489086	-69.543611
34367	9.674449	-0.336523	1.114713	-0.006080	0.022581	0.005433	-11.383808	-82.478329	-69.532585
34368	9.673071	-0.376898	1.131014	-0.001001	0.015107	0.007502	-11.398175	-82.469654	-69.518354
34369	9.672853	-0.377360	1.132722	-0.006194	0.020483	0.001203	-11.396399	-82.460586	-69.523536
34370	9.688537	-0.368952	1.117909	-0.002442	0.013829	0.000641	-11.383551	-82.453404	-69.537590
34371	9.691861	-0.349076	1.132959	-0.003105	0.014238	-0.000675	-11.377855	-82.448073	-69.544389
34372	9.688243	-0.368844	1.120489	-0.004022	0.011421	-0.002989	-11.352634	-82.442653	-69.571838
34373	9.688125	-0.368720	1.121543	-0.002696	0.010600	-0.000356	-11.350839	-82.439359	-69.575047
34374	9.703896	-0.360033	1.106167	-0.000425	0.011632	-0.002870	-11.323930	-82.433805	-69.602120
34375	9.707232	-0.339879	1.121156	-0.002302	0.014958	-0.002590	-11.309099	-82.428254	-69.617800
34376	9.707066	-0.339969	1.122570	-0.004590	0.014407	0.003654	-11.309858	-82.420406	-69.619371
34377	9.705767	-0.380056	1.138097	-0.004433	0.007543	0.002974	-11.325702	-82.418404	-69.605775
34378	9.672757	-0.337823	1.128911	-0.003881	0.005038	0.000061	-11.318799	-82.416225	-69.614665
34379	9.675012	-0.357588	1.157524	-0.001073	0.004047	-0.001635	-11.316570	-82.416688	-69.617035
34380	9.703310	-0.360233	1.111234	-0.004797	0.002221	-0.002253	-11.302806	-82.416351	-69.633375
34381	9.690841	-0.348631	1.141789	-0.002272	0.006480	-0.003768	-11.290167	-82.415725	-69.646932
34382	9.687355	-0.368354	1.128294	-0.003724	-0.001826	-0.000619	-11.286097	-82.417477	-69.652873
34383	9.703257	-0.359612	1.111899	-0.003992	0.002942	-0.004168	-11.275585	-82.418869	-69.665737
34384	9.669158	-0.356544	1.116700	0.000016	-0.000482	-0.003730	-11.255097	-82.420214	-69.686079
34385	9.693115	-0.367190	1.170600	-0.002256	0.005998	-0.007498	-11.227208	-82.420263	-69.715072
34386	9.706698	-0.338248	1.126268	0.001484	-0.000170	-0.004328	-11.203080	-82.421498	-69.738238
34387	9.724908	-0.349048	1.138083	-0.002651	0.001640	-0.005266	-11.188470	-82.423772	-69.754091
34388	9.666839	-0.334655	1.089300	-0.001183	0.001951	-0.005864	-11.157595	-82.423982	-69.785604
34389	9.674939	-0.353959	1.159248	-0.003171	-0.004332	-0.003532	-11.155666	-82.429383	-69.788859
34390	9.653366	-0.361959	1.133233	0.000996	-0.007106	-0.010056	-11.113311	-82.435146	-69.830693
34391	9.669397	-0.352344	1.115961	-0.001386	-0.010235	-0.011772	-11.080374	-82.444820	-69.864076
34392	9.691250	-0.342600	1.140148	-0.002569	-0.015797	-0.011355	-11.041602	-82.455606	-69.904355
34393	9.687999	-0.361424	1.125008	0.004752	-0.013756	-0.010618	-11.012844	-82.467112	-69.929888
34394	9.704068	-0.351729	1.107331	-0.001514	-0.011851	-0.012272	-10.966092	-82.475772	-69.977605
34395	9.711172	-0.310725	1.133440	0.000364	-0.015176	-0.012553	-10.932447	-82.488284	-70.010848
34396	9.673839	-0.326710	1.122894	0.000237	-0.016791	-0.013052	-10.885188	-82.499798	-70.058060
34397	9.654743	-0.354020	1.123974	-0.000567	-0.017513	-0.011137	-10.859674	-82.513407	-70.083930
34398	9.696036	-0.315735	1.144576	0.003064	-0.025778	-0.012200	-10.821549	-82.529880	-70.120294
34399	9.755242	-0.339976	1.077302	-0.001498	-0.019852	-0.009721	-10.804583	-82.544713	-70.137732
34400	9.743058	-0.327766	1.105764	-0.003252	-0.014914	-0.008940	-10.774946	-82.554717	-70.169184
34401	9.723936	-0.355403	1.107071	0.000346	-0.014699	-0.008823	-10.756461	-82.566598	-70.186972
34402	9.721696	-0.334760	1.077882	-0.001821	-0.006122	-0.008359	-10.721165	-82.571587	-70.223302
34403	9.702470	-0.362323	1.080171	-0.001557	-0.003377	-0.011091	-10.684506	-82.577209	-70.261115
34404	9.697049	-0.310158	1.137502	-0.001431	-0.001763	-0.010592	-10.635689	-82.579974	-70.310853
34405	9.690196	-0.348860	1.109947	-0.000629	-0.001042	-0.012507	-10.590333	-82.584461	-70.356811
34406	9.709551	-0.319196	1.107071	-0.002096	-0.001355	-0.011908	-10.535788	-82.587124	-70.412709
34407	9.709612	-0.317965	1.106889	0.000711	-0.002344	-0.013607	-10.486124	-82.592432	-70.461787
34408	9.693865	-0.325138	1.122894	-0.001797	-0.007092	-0.015821	-10.418919	-82.598720	-70.530278
34409	9.709830	-0.315027	1.105815	-0.003804	-0.005383	-0.016037	-10.363583	-82.605984	-70.587567
34410	9.706509	-0.333395	1.091493	-0.003930	-0.006998	-0.016537	-10.294183	-82.612274	-70.659501
34411	9.726915	-0.263607	1.073758	-0.002213	-0.003456	-0.016138	-10.235733	-82.618517	-70.719047
34412	9.710118	-0.310404	1.104596	-0.002503	0.001795	-0.015956	-10.160953	-82.619768	-70.795581
34413	9.706707	-0.328850	1.091114	-0.003845	0.003096	-0.014856	-10.103688	-82.622121	-70.854893
34414	9.697774	-0.296216	1.135036	-0.005687	-0.002063	-0.015755	-10.034521	-82.625506	-70.927605
34415	9.725072	-0.337297	1.102751	-0.006238	0.000444	-0.012841	-9.989493	-82.629152	-70.975959
34416	9.676217	-0.302287	1.109160	-0.008994	-0.007536	-0.016054	-9.924972	-82.635637	-71.045895
34417	9.642287	-0.297828	1.112970	-0.011356	-0.011642	-0.025232	-9.837530	-82.647273	-71.140236
34418	9.657407	-0.326564	1.109301	-0.009307	-0.021834	-0.026199	-9.739194	-82.662793	-71.244445
34419	9.695278	-0.306897	1.115806	-0.007685	-0.027906	-0.023753	-9.668132	-82.683404	-71.319547
34420	9.758842	-0.270415	1.047679	-0.009081	-0.017641	-0.017738	-9.602973	-82.695707	-71.390168
34421	9.762410	-0.249466	1.060234	-0.007561	-0.005775	-0.005460	-9.595080	-82.702096	-71.402209
34422	9.708180	-0.315094	1.082032	-0.008414	0.002470	0.001371	-9.598649	-82.701207	-71.403153
34423	9.695736	-0.304209	1.112562	-0.008964	0.004977	0.004287	-9.626324	-82.700612	-71.380328
34424	9.676491	-0.332937	1.115445	-0.010120	-0.001559	-0.002760	-9.615660	-82.702395	-71.396608
34425	9.714038	-0.315343	1.124132	-0.010911	-0.002767	-0.004576	-9.611272	-82.706976	-71.407018
34426	9.676591	-0.332197	1.114794	-0.008895	-0.004959	-0.008092	-9.578875	-82.711188	-71.444500
34427	9.695921	-0.302890	1.111309	-0.009269	-0.009804	-0.009594	-9.556632	-82.720218	-71.472075
34428	9.690163	-0.301890	1.068452	-0.007795	-0.009973	-0.013925	-9.501400	-82.727810	-71.531941
34429	9.708590	-0.311897	1.079268	-0.009013	-0.007059	-0.012324	-9.464834	-82.735559	-71.573473
34430	9.693823	-0.279799	1.080526	-0.004205	-0.009267	-0.010080	-9.423870	-82.742380	-71.616880
34431	9.693030	-0.318640	1.094174	-0.006090	-0.005945	-0.009794	-9.396001	-82.749297	-71.647816
34432	9.715743	-0.269133	1.104537	-0.009682	-0.006654	-0.013639	-9.340290	-82.754965	-71.709250
34433	9.696676	-0.296480	1.106442	-0.005665	-0.010068	-0.013212	-9.299304	-82.764518	-71.754014
34434	9.739903	-0.328836	1.056691	-0.004199	-0.009753	-0.013813	-9.241719	-82.771941	-71.814169
34435	9.696946	-0.294160	1.104688	-0.003958	-0.006039	-0.009079	-9.215445	-82.778849	-71.842432
34436	9.706904	-0.284588	1.045685	-0.004750	-0.007247	-0.010895	-9.169200	-82.784578	-71.891471
34437	9.700531	-0.272354	1.117310	-0.005046	-0.001994	-0.010707	-9.133371	-82.789298	-71.929908
34438	9.691272	-0.291485	1.061261	-0.002623	-0.006855	-0.006450	-9.105384	-82.794393	-71.959314
34439	9.682353	-0.259818	1.104790	-0.006518	-0.001827	-0.006375	-9.089655	-82.798676	-71.978190
34440	9.713087	-0.281620	1.086052	0.000680	-0.001375	-0.006148	-9.057143	-82.800640	-72.010251
34441	9.697350	-0.289600	1.102341	-0.002246	-0.002492	-0.008678	-9.028823	-82.805476	-72.039753
34442	9.694842	-0.268942	1.074127	-0.004132	0.000829	-0.008390	-8.987406	-82.806390	-72.083568
34443	9.713176	-0.279487	1.085802	-0.000662	-0.000076	-0.005047	-8.972602	-82.809479	-72.098833
34444	9.700816	-0.267786	1.115937	-0.000786	-0.001692	-0.005548	-8.943771	-82.811561	-72.128030
34445	9.691521	-0.286991	1.060215	-0.002790	-0.000470	-0.009492	-8.910675	-82.815297	-72.162566
34446	9.679158	-0.275076	1.090424	0.000803	0.000241	-0.005647	-8.879088	-82.816290	-72.193622
34447	9.716656	-0.256953	1.099400	-0.002667	0.001145	-0.008991	-8.847177	-82.819066	-72.226497
34448	9.697506	-0.284628	1.102272	0.000264	0.001779	-0.010193	-8.794374	-82.819582	-72.279248
34449	9.700881	-0.263926	1.116293	-0.001752	0.003968	-0.006674	-8.770228	-82.820557	-72.303818
34450	9.707331	-0.274462	1.044426	-0.001999	0.000737	-0.007676	-8.730739	-82.821436	-72.344455
34451	9.691563	-0.282528	1.061029	-0.001208	0.001945	-0.005860	-8.710925	-82.823475	-72.365557
34452	9.679165	-0.270848	1.091418	-0.000539	0.001538	-0.004545	-8.684113	-82.823624	-72.392576
34453	9.713260	-0.272867	1.086735	-0.000539	0.001538	-0.004545	-8.670673	-82.825753	-72.405460
34454	9.694931	-0.261406	1.075183	-0.002802	0.000496	-0.002029	-8.657186	-82.826273	-72.420354
34455	9.713247	-0.272348	1.086983	0.000252	0.002747	-0.002729	-8.650437	-82.827579	-72.426382
34456	9.709823	-0.292094	1.073706	-0.004443	0.007048	-0.000738	-8.639217	-82.824276	-72.439939
34457	9.681605	-0.289612	1.120816	-0.002011	0.001705	-0.000213	-8.645914	-82.825912	-72.433740
34458	9.709751	-0.292167	1.074341	-0.001219	0.002913	0.001603	-8.646213	-82.824750	-72.433825
34459	9.697295	-0.281143	1.105017	-0.001642	0.006551	0.001291	-8.656234	-82.823514	-72.424000
34460	9.715554	-0.292521	1.117182	-0.002562	0.004211	0.002705	-8.661368	-82.821521	-72.419987
34461	9.694620	-0.261923	1.077855	-0.001103	0.005013	0.005837	-8.692392	-82.820777	-72.388806
34462	9.694578	-0.262369	1.078122	-0.002140	0.000573	0.003017	-8.701179	-82.820818	-72.380867
34463	9.712868	-0.274039	1.089940	0.001576	0.002900	0.007365	-8.738853	-82.821140	-72.341763
34464	9.731149	-0.285930	1.101764	-0.003612	0.000739	0.007350	-8.767847	-82.820707	-72.314308
34465	9.675348	-0.292765	1.081060	0.000415	-0.003154	0.004044	-8.795399	-82.824724	-72.286162
34466	9.710300	-0.255888	1.061631	-0.003061	-0.001767	0.004431	-8.812711	-82.825963	-72.270164
34467	9.709458	-0.296016	1.075933	-0.004274	0.000663	0.002303	-8.832506	-82.827952	-72.252614
34468	9.694513	-0.265146	1.078030	-0.005065	-0.000545	0.000487	-8.832374	-82.828846	-72.255355
34469	9.678738	-0.274016	1.094413	-0.004397	-0.000953	0.001801	-8.851076	-82.831861	-72.238857
34470	9.712871	-0.276653	1.089251	-0.002633	-0.005888	0.001011	-8.855662	-82.835734	-72.235438
34471	9.694592	-0.265559	1.077219	-0.001589	-0.001933	0.000099	-8.866029	-82.839459	-72.225271
34472	9.712972	-0.276782	1.088321	-0.000746	-0.009209	0.000722	-8.870580	-82.845237	-72.220798
34473	9.691320	-0.285743	1.062385	-0.005194	-0.001678	0.003717	-8.899381	-82.848454	-72.193818
34474	9.713040	-0.277313	1.087580	-0.000921	-0.002340	0.001414	-8.902329	-82.850282	-72.191061
34475	9.710519	-0.257652	1.059203	-0.003852	-0.002976	0.002615	-8.925911	-82.854296	-72.169740
34476	9.678979	-0.275292	1.091960	-0.002931	-0.000635	0.001201	-8.927851	-82.855177	-72.169160
34477	9.709683	-0.297617	1.073455	-0.001213	0.002430	-0.002128	-8.924815	-82.856564	-72.172665
34478	9.694749	-0.266573	1.075555	-0.002387	-0.002658	0.002014	-8.931552	-82.858518	-72.166936
34479	9.663229	-0.284146	1.108156	-0.006778	-0.004094	0.000084	-8.946360	-82.863404	-72.155623
34480	9.713147	-0.278028	1.086436	-0.002510	-0.004274	0.001512	-8.952061	-82.866317	-72.151009
34481	9.700819	-0.266851	1.116141	-0.000494	-0.006461	-0.002007	-8.955415	-82.872748	-72.147748
34482	9.709894	-0.297688	1.071523	-0.002628	-0.006372	-0.002721	-8.943517	-82.877225	-72.160938
34483	9.716748	-0.257751	1.098398	-0.001960	-0.006779	-0.001407	-8.950879	-82.883774	-72.153946
34484	9.713437	-0.277493	1.083975	-0.004094	-0.006690	-0.002120	-8.942751	-82.888378	-72.164184
34485	9.698569	-0.246300	1.085522	-0.003970	-0.005074	-0.001619	-8.949021	-82.893978	-72.159741
34486	9.713585	-0.277314	1.082694	-0.002881	-0.009121	0.000007	-8.951586	-82.899769	-72.158502
34487	9.713628	-0.277465	1.082273	-0.004273	0.000662	0.002305	-8.971615	-82.901748	-72.140662
34488	9.673611	-0.274969	1.044986	-0.001163	-0.006054	-0.003322	-8.955874	-82.906101	-72.156879
34489	9.697957	-0.285936	1.097948	-0.000371	-0.004847	-0.001506	-8.960530	-82.911554	-72.151715
34490	9.692049	-0.285742	1.055710	-0.000916	-0.002823	-0.002318	-8.946874	-82.913987	-72.165688
34491	9.728746	-0.307819	1.078702	-0.001585	-0.002416	-0.003633	-8.940772	-82.918217	-72.172353
34492	9.698080	-0.285268	1.097041	-0.000247	-0.003231	-0.001004	-8.932996	-82.920764	-72.180013
34493	9.698127	-0.285052	1.096684	0.000426	-0.004121	-0.003422	-8.927713	-82.925976	-72.184954
34494	9.711350	-0.256261	1.051890	-0.005734	-0.000139	-0.000826	-8.921668	-82.926756	-72.194039
34495	9.713939	-0.276039	1.079839	-0.000916	-0.002824	-0.002319	-8.921362	-82.931131	-72.194377
34496	9.679861	-0.273297	1.084613	-0.002006	0.001223	-0.003943	-8.897967	-82.931417	-72.218792
34497	9.717364	-0.255585	1.093439	-0.000916	-0.002824	-0.002319	-8.897638	-82.935757	-72.219326
34498	9.694841	-0.303871	1.082271	-0.002803	0.000497	-0.002028	-8.883953	-82.936283	-72.234417
34499	9.698240	-0.283827	1.095996	-0.000792	-0.001208	-0.001817	-8.884609	-82.939704	-72.233845
34500	9.729754	-0.266321	1.063139	-0.001887	0.003321	0.000291	-8.878973	-82.938426	-72.240297
34501	9.713976	-0.275143	1.079740	-0.002931	-0.000636	0.001202	-8.894369	-82.941234	-72.225910
34502	9.694816	-0.303660	1.082552	-0.001883	0.002838	-0.003441	-8.872012	-82.940560	-72.249207
34503	9.695605	-0.263836	1.068493	0.000916	0.002824	0.002319	-8.887747	-82.941296	-72.232586
34504	9.716490	-0.294957	1.108370	-0.000669	0.000408	-0.001314	-8.876154	-82.941810	-72.244338
34505	9.710531	-0.294911	1.066507	-0.001466	-0.000318	0.000601	-8.887562	-82.944472	-72.233570
34506	9.698169	-0.283870	1.096617	-0.000920	-0.002341	0.001413	-8.890551	-82.946300	-72.230772
34507	9.698180	-0.283944	1.096502	0.000000	0.000000	0.000000	-8.898294	-82.948846	-72.222505
34508	9.717332	-0.255404	1.093773	0.000669	-0.000408	0.001314	-8.898539	-82.949588	-72.221554
34509	9.695609	-0.264104	1.068386	-0.000669	0.000408	-0.001314	-8.900098	-82.952024	-72.220476
34510	9.710543	-0.294938	1.066394	-0.001883	0.002838	-0.003441	-8.877707	-82.951350	-72.243807
34511	9.717309	-0.255090	1.094044	0.000669	-0.000408	0.001314	-8.891348	-82.953972	-72.229322
34512	9.694779	-0.303566	1.082907	0.001342	-0.001297	-0.001103	-8.880772	-82.955431	-72.238887
34513	9.695596	-0.263730	1.068595	-0.002011	0.001705	-0.000211	-8.887330	-82.956995	-72.233385
34514	9.729675	-0.266218	1.063883	-0.003476	0.001387	0.000390	-8.884428	-82.956803	-72.237998
34515	9.676422	-0.292420	1.071491	-0.003600	-0.000229	-0.000113	-8.893928	-82.959459	-72.229962
34516	9.698955	-0.244117	1.082562	-0.002139	0.000571	0.003019	-8.902894	-82.959496	-72.221846
34517	9.711325	-0.255520	1.052307	-0.000797	-0.000726	0.001915	-8.920389	-82.962234	-72.204340
34518	9.698144	-0.284357	1.096709	-0.002386	-0.002660	0.002014	-8.927222	-82.964188	-72.198516
34519	9.695587	-0.264577	1.068465	-0.003600	-0.000229	-0.000112	-8.936503	-82.966833	-72.191237
34520	9.698132	-0.284559	1.096764	-0.005363	0.004707	0.000681	-8.933619	-82.964736	-72.196922
34521	9.695538	-0.264752	1.068874	-0.001466	-0.000318	0.000601	-8.945012	-82.967401	-72.186178
34522	9.710472	-0.295803	1.066802	-0.000545	0.002023	-0.000812	-8.934452	-82.966956	-72.196815
34523	9.717237	-0.255805	1.094517	-0.000541	0.001542	-0.004544	-8.920502	-82.969004	-72.210679
34524	9.695504	-0.264184	1.069316	-0.001214	0.002431	-0.002127	-8.903999	-82.968445	-72.227690
34525	9.698892	-0.244206	1.083111	-0.003724	-0.001845	-0.000615	-8.912232	-82.972003	-72.221508
34526	9.713846	-0.275089	1.080918	0.000128	0.001134	-0.003230	-8.890820	-82.972275	-72.242691
34527	9.698083	-0.283676	1.097429	-0.003600	-0.000229	-0.000113	-8.900199	-82.974925	-72.234863
34528	9.733003	-0.246686	1.078117	-0.003856	-0.002497	0.006347	-8.927670	-82.976403	-72.209093
34529	9.679795	-0.273462	1.085163	-0.005693	-0.007662	0.005440	-8.968975	-82.982711	-72.171015
34530	9.699026	-0.245450	1.081628	-0.003682	-0.009368	0.005651	-8.998193	-82.988135	-72.143384
34531	9.711491	-0.257213	1.050363	-0.003138	-0.011391	0.006463	-9.045665	-82.996493	-72.097187
34532	9.714972	-0.237969	1.063203	-0.005693	-0.007663	0.005440	-9.073925	-83.000967	-72.071684
34533	9.726567	-0.289405	1.046614	-0.004773	-0.005321	0.004028	-9.106815	-83.006096	-72.040926
34534	9.695944	-0.267438	1.064510	-0.001545	-0.009939	0.002632	-9.121497	-83.012110	-72.026709
34535	9.707548	-0.318534	1.047868	-0.006780	-0.004097	0.000085	-9.136487	-83.016914	-72.015253
34536	9.696068	-0.267815	1.063285	-0.003431	-0.006619	0.002924	-9.151177	-83.021023	-72.002117
34537	9.711894	-0.259138	1.046153	-0.006232	-0.006602	-0.002836	-9.154411	-83.027501	-72.001702
34538	9.707745	-0.318565	1.046030	-0.002631	-0.006373	-0.002724	-9.142351	-83.031985	-72.015054
34539	9.727804	-0.249883	1.028343	-0.001290	-0.007670	-0.003828	-9.138838	-83.039152	-72.018793
34540	9.714739	-0.278075	1.072096	-0.004219	-0.008788	-0.006358	-9.112604	-83.045332	-72.047340
34541	9.693095	-0.286164	1.045951	-0.002629	-0.006854	-0.006456	-9.096948	-83.052251	-72.064434
34542	9.696582	-0.265777	1.059105	-0.007571	-0.005787	-0.005463	-9.074474	-83.056649	-72.091126
34543	9.678319	-0.254090	1.046886	-0.000494	-0.006943	-0.005744	-9.060787	-83.063545	-72.105300
34544	9.693341	-0.284588	1.044100	-0.002505	-0.005238	-0.005954	-9.032656	-83.067674	-72.134767
34545	9.718557	-0.255536	1.082804	-0.005982	-0.003853	-0.005561	-9.020694	-83.072832	-72.149918
34546	9.681126	-0.272226	1.073538	-0.003049	-0.003695	-0.010497	-8.970499	-83.076492	-72.201925
34547	9.712684	-0.253748	1.040121	-0.001038	-0.005400	-0.010288	-8.934625	-83.082915	-72.238636
34548	9.712758	-0.252760	1.039674	-0.003049	-0.003696	-0.010497	-8.884309	-83.086566	-72.290762
34549	9.731166	-0.262939	1.050989	-0.001460	-0.001761	-0.010596	-8.844569	-83.090950	-72.331322
34550	9.697116	-0.259753	1.055704	-0.004393	-0.001919	-0.005660	-8.816242	-83.093161	-72.362074
34551	9.709497	-0.270186	1.025225	0.001345	-0.002258	-0.008570	-8.784696	-83.097665	-72.392327
34552	9.734699	-0.240940	1.064014	-0.002505	-0.005240	-0.005954	-8.756256	-83.101779	-72.422103
34553	9.709607	-0.268898	1.024522	-0.005063	-0.001512	-0.006974	-8.735013	-83.105676	-72.446426
34554	9.697320	-0.257244	1.054441	-0.003971	-0.005560	-0.005352	-8.710399	-83.109916	-72.473194
34555	9.681671	-0.265503	1.070301	-0.004095	-0.007176	-0.005856	-8.697866	-83.116951	-72.487969
34556	9.700876	-0.236479	1.066937	-0.004766	-0.006288	-0.003437	-8.683156	-83.121435	-72.505219
34557	9.697577	-0.255972	1.052387	-0.003549	-0.009201	-0.005045	-8.675514	-83.129545	-72.514717
34558	9.713414	-0.246829	1.034960	-0.006479	-0.009841	-0.003842	-8.662382	-83.136076	-72.531366
34559	9.728488	-0.277504	1.031883	-0.003425	-0.007585	-0.004542	-8.655785	-83.143226	-72.539836
34560	9.729300	-0.237468	1.017064	-0.003849	-0.003465	-0.001116	-8.649371	-83.145909	-72.548201
34561	9.679536	-0.243595	1.038095	-0.007449	-0.004177	-0.004959	-8.640491	-83.151115	-72.561774
34562	9.694575	-0.274124	1.035403	-0.004643	-0.005153	-0.006666	-8.609536	-83.155231	-72.595314
34563	9.682330	-0.262515	1.065062	-0.005561	-0.007498	-0.005254	-8.600646	-83.162377	-72.607353
34564	9.713868	-0.244530	1.031238	-0.007151	-0.009435	-0.005156	-8.581245	-83.168787	-72.630703
34565	9.698262	-0.252903	1.046797	-0.005015	-0.009523	-0.004444	-8.577488	-83.177006	-72.636677
34566	9.729065	-0.274541	1.027218	-0.001962	-0.007746	-0.008878	-8.536194	-83.182775	-72.679080
34567	9.714184	-0.242650	1.028699	-0.004098	-0.007659	-0.009589	-8.505859	-83.190344	-72.711904
34568	9.710869	-0.261663	1.014386	-0.005863	-0.002723	-0.008789	-8.463532	-83.193252	-72.757597
34569	9.732688	-0.252229	1.039456	-0.001591	-0.002897	-0.007367	-8.439033	-83.197909	-72.782647
34570	9.698648	-0.249004	1.044153	-0.005069	-0.001995	-0.010705	-8.386554	-83.200558	-72.838105
34571	9.698687	-0.248126	1.044005	-0.002139	-0.000874	-0.008177	-8.356805	-83.204176	-72.869034
34572	9.717092	-0.258617	1.055511	-0.004945	0.000101	-0.006468	-8.322877	-83.205277	-72.905738
34573	9.714445	-0.238001	1.027320	-0.003727	-0.002811	-0.008078	-8.296064	-83.209965	-72.933853
34574	9.698809	-0.246121	1.043340	-0.002632	-0.006860	-0.006460	-8.265626	-83.215007	-72.965708
34575	9.698871	-0.245714	1.042866	-0.000918	-0.002825	-0.002321	-8.264418	-83.219204	-72.966935
34576	9.680528	-0.234290	1.030964	-0.003178	-0.004356	-0.003536	-8.246447	-83.222584	-72.986549
34577	9.698961	-0.245285	1.042123	-0.001712	-0.003554	-0.000406	-8.255179	-83.227059	-72.978413
34578	9.713994	-0.276167	1.039651	0.000670	-0.000888	-0.002420	-8.237910	-83.228380	-72.995100
34579	9.699003	-0.244829	1.041842	-0.002138	-0.000394	-0.004444	-8.225337	-83.231376	-73.008931
34580	9.699001	-0.244564	1.041919	-0.002684	0.002110	-0.001520	-8.212206	-83.230923	-73.023386
34581	9.720764	-0.235910	1.067332	-0.000793	-0.000729	0.001916	-8.229597	-83.233581	-73.006074
34582	9.714692	-0.235744	1.025503	0.000122	0.001136	-0.003229	-8.207358	-83.233820	-73.028082
34583	9.698985	-0.244519	1.042083	-0.004271	0.000653	0.002312	-8.227572	-83.235635	-73.010071
34584	9.698969	-0.244640	1.042205	0.001588	0.001938	-0.000098	-8.218901	-83.235164	-73.017570
34585	9.714631	-0.235924	1.026038	0.002507	0.004763	0.002223	-8.232266	-83.234675	-73.001532
34586	9.677128	-0.253688	1.017441	0.000002	0.000480	0.003733	-8.243827	-83.234715	-72.989573
34587	9.714582	-0.236526	1.026359	0.001466	0.000801	0.003131	-8.264536	-83.236404	-72.967593
34588	9.698874	-0.245467	1.042897	-0.000000	0.000000	-0.000000	-8.258587	-83.237023	-72.973267
34589	9.696180	-0.225630	1.014894	-0.000670	0.000888	0.002420	-8.277133	-83.238712	-72.954532
34590	9.714534	-0.237045	1.026702	0.001042	0.004442	0.002825	-8.281008	-83.236580	-72.949712
34591	9.698776	-0.246053	1.043665	0.006108	0.004997	0.002331	-8.292587	-83.235940	-72.933338
34592	9.698722	-0.246363	1.044095	0.000248	0.003713	0.004741	-8.306572	-83.234063	-72.918795
34593	9.726680	-0.249146	0.997835	0.006233	0.007094	0.006569	-8.336557	-83.231856	-72.884759
34594	9.682854	-0.256156	1.061845	0.003425	0.007588	0.004544	-8.345048	-83.227798	-72.873917
34595	9.714180	-0.239018	1.029584	0.001960	0.007266	0.005146	-8.370502	-83.225620	-72.846887
34596	9.680004	-0.237204	1.035209	0.004767	0.006772	0.007171	-8.391295	-83.221804	-72.822881
34597	9.732403	-0.251445	1.042309	0.003726	0.002810	0.008079	-8.432911	-83.221889	-72.778404
34598	9.713947	-0.240926	1.031339	0.007820	0.009029	0.006470	-8.446970	-83.216850	-72.759417
34599	9.701509	-0.230451	1.062490	0.002754	0.008474	0.006963	-8.479339	-83.213821	-72.725785
34600	9.694644	-0.270880	1.035609	0.001836	0.006129	0.008375	-8.507896	-83.210261	-72.695651
34601	9.732032	-0.254075	1.045136	0.004095	0.007178	0.005857	-8.535480	-83.208022	-72.665153
34602	9.697833	-0.252317	1.050904	0.005013	0.010002	0.008178	-8.558455	-83.202281	-72.638806
34603	9.714181	-0.204481	1.021056	0.007024	0.008298	0.008386	-8.595242	-83.199238	-72.597729
34604	9.715975	-0.264982	1.064186	0.003423	0.008065	0.008276	-8.620902	-83.194583	-72.569595
34605	9.694859	-0.234717	1.025403	0.004217	0.009273	0.010093	-8.666462	-83.190808	-72.521852
34606	9.713063	-0.246848	1.038238	0.007642	0.016376	0.010904	-8.696051	-83.181214	-72.487327
34607	9.700550	-0.236858	1.069814	0.005680	0.010072	0.013224	-8.755285	-83.176688	-72.423764
34608	9.675311	-0.266329	1.031396	0.006775	0.005063	0.007380	-8.776777	-83.173801	-72.397893
34609	9.690969	-0.258335	1.015464	0.006103	0.005951	0.009798	-8.822352	-83.171910	-72.348063
34610	9.718639	-0.250475	1.083251	0.004640	0.005151	0.006667	-8.841590	-83.169033	-72.325693
34611	9.693441	-0.279588	1.044518	0.004516	0.003535	0.006164	-8.872291	-83.168831	-72.292642
34612	9.712513	-0.251585	1.042242	0.003174	0.004831	0.007269	-8.895415	-83.166080	-72.267205
34613	9.712452	-0.252137	1.042677	0.003846	0.003942	0.004850	-8.920092	-83.165804	-72.240115
34614	9.694020	-0.241371	1.031763	0.010749	0.009659	0.005268	-8.925820	-83.160496	-72.227827
34615	9.714867	-0.272959	1.072250	0.000492	0.006943	0.005745	-8.954400	-83.158387	-72.198796
34616	9.662354	-0.259699	1.066125	0.006107	0.004988	0.002333	-8.952385	-83.155983	-72.196985
34617	9.696344	-0.262488	1.062100	0.003795	0.012428	0.006051	-8.976260	-83.150717	-72.171221
34618	9.692822	-0.282789	1.049392	0.002877	0.009605	0.003731	-8.979231	-83.145576	-72.166252
34619	9.696101	-0.263281	1.064114	0.005012	0.009515	0.004444	-8.997345	-83.142091	-72.144346
34620	9.705363	-0.243892	1.120598	0.005557	0.007491	0.005255	-9.007501	-83.138008	-72.130593
34621	9.729989	-0.266492	1.060944	0.004343	0.009923	0.003129	-9.019230	-83.134400	-72.116269
34622	9.711576	-0.255448	1.049999	0.001713	0.003550	0.000405	-9.011715	-83.132983	-72.122533
34623	9.711526	-0.255466	1.050458	0.009037	0.005624	0.001132	-9.014526	-83.131989	-72.114534
34624	9.711431	-0.255603	1.051310	0.002331	0.011627	0.002918	-9.012450	-83.125775	-72.114964
34625	9.698942	-0.244717	1.082550	0.009953	0.008447	0.003452	-9.023673	-83.122987	-72.097291
34626	9.698825	-0.244982	1.083537	0.004465	0.011537	0.003631	-9.023776	-83.116760	-72.094294
34627	9.713653	-0.276289	1.082352	0.004218	0.008306	0.002626	-9.034492	-83.114110	-72.080304
34628	9.714369	-0.236568	1.069008	0.008070	0.011284	0.000012	-9.015761	-83.108352	-72.094198
34629	9.710856	-0.256391	1.056410	0.004593	0.012670	0.000401	-9.012278	-83.103412	-72.095295
34630	9.679195	-0.273995	1.090366	0.008485	0.008126	0.004054	-9.014586	-83.099078	-72.087755
34631	9.679928	-0.234327	1.076898	0.000746	0.009210	-0.000718	-9.010572	-83.096211	-72.091751
34632	9.713930	-0.236869	1.072920	0.006351	0.008215	0.003340	-9.010697	-83.091891	-72.087644
34633	9.728767	-0.268179	1.071674	0.004340	0.009920	0.003128	-9.021921	-83.088243	-72.074484
34634	9.676222	-0.254823	1.065916	0.004463	0.011534	0.003630	-9.022010	-83.082018	-72.071502
34635	9.710209	-0.257621	1.062046	0.007018	0.007807	0.004655	-9.040434	-83.079481	-72.049174
34636	9.695159	-0.226981	1.065096	0.001530	0.010898	0.004830	-9.048244	-83.073508	-72.040107
34637	9.696701	-0.287143	1.108678	0.007387	0.012651	0.006162	-9.070043	-83.068059	-72.013387
34638	9.728149	-0.270189	1.076761	0.005551	0.007487	0.005255	-9.080022	-83.063976	-71.999814
34639	9.706364	-0.279190	1.052126	0.002082	0.008393	0.001910	-9.087887	-83.061278	-71.991392
34640	9.715534	-0.259547	1.108666	0.004338	0.009917	0.003128	-9.086844	-83.056013	-71.989622
34641	9.675449	-0.257184	1.072351	0.003301	0.005480	0.000306	-9.089216	-83.055156	-71.984171
34642	9.727792	-0.270911	1.079804	0.004092	0.006687	0.002123	-9.086051	-83.051809	-71.984682
34643	9.693611	-0.268605	1.085262	0.004092	0.006687	0.002123	-9.095434	-83.050065	-71.971838
34644	9.677755	-0.277371	1.102234	0.003178	0.003865	-0.000196	-9.084125	-83.048525	-71.981080
34645	9.705922	-0.279759	1.056045	0.004767	0.005797	-0.000294	-9.082327	-83.047447	-71.979992
34646	9.712628	-0.239972	1.083959	0.003722	0.001842	0.000618	-9.075984	-83.046978	-71.983917
34647	9.696792	-0.248800	1.100722	-0.001097	0.004527	0.002105	-9.089528	-83.046467	-71.970722
34648	9.709178	-0.259990	1.070855	0.004521	0.002567	-0.001297	-9.073309	-83.045760	-71.984136
34649	9.706632	-0.240048	1.043127	0.001835	0.005162	0.000906	-9.079337	-83.044967	-71.976091
34650	9.690804	-0.248754	1.059846	0.001466	0.000318	-0.000600	-9.069773	-83.045470	-71.984563
34651	9.690784	-0.248765	1.060020	0.000246	0.003230	0.001004	-9.078356	-83.045796	-71.975516
34652	9.724859	-0.251173	1.055524	0.002388	0.002657	-0.002013	-9.059977	-83.045103	-71.992337
34653	9.687343	-0.268470	1.046946	0.003301	0.005479	0.000306	-9.061768	-83.044190	-71.988767
34654	9.712340	-0.240089	1.086511	0.000114	0.002097	0.004234	-9.074077	-83.043249	-71.975985
34655	9.690634	-0.249223	1.061283	0.002247	0.002007	0.004949	-9.100721	-83.043882	-71.947259
34656	9.687226	-0.269246	1.047830	0.002511	0.004272	-0.001511	-9.083404	-83.042230	-71.962938
34657	9.712222	-0.240866	1.087396	0.000904	0.003304	0.006051	-9.114584	-83.042016	-71.931801
34658	9.689622	-0.289753	1.076694	0.001036	0.004436	0.002820	-9.118064	-83.039879	-71.927382
34659	9.727041	-0.272634	1.086112	0.003169	0.004346	0.003536	-9.135339	-83.039296	-71.909400
34660	9.690401	-0.250691	1.063070	0.000781	0.001689	0.005549	-9.153645	-83.038465	-71.890192
34661	9.708652	-0.262075	1.075113	0.002634	0.005886	-0.001009	-9.149305	-83.037385	-71.893222
34662	9.690309	-0.251155	1.063794	0.001447	0.001282	0.006864	-9.173619	-83.036663	-71.867576
34663	9.690266	-0.251634	1.064072	0.003169	0.004346	0.003536	-9.191034	-83.036099	-71.848706
34664	9.696062	-0.252259	1.106350	0.000894	0.003786	0.009782	-9.227281	-83.033691	-71.811357
34665	9.705057	-0.283986	1.062847	-0.000308	0.005733	0.003921	-9.247764	-83.032267	-71.790215
34666	9.711733	-0.244690	1.090905	0.002492	0.005235	0.005953	-9.264249	-83.029388	-71.771852
34667	9.705821	-0.245253	1.049444	0.000903	0.003303	0.006050	-9.295614	-83.029146	-71.739350
34668	9.695806	-0.254563	1.108071	-0.000564	0.002986	0.006650	-9.318749	-83.027473	-71.716051
34669	9.695754	-0.255140	1.108393	0.002369	0.003620	0.005451	-9.346044	-83.027091	-71.687229
34670	9.708134	-0.266906	1.078595	-0.002574	0.004692	0.006435	-9.368020	-83.024471	-71.666259
34671	9.704687	-0.287509	1.065277	0.003825	0.004418	0.008584	-9.407994	-83.023331	-71.624943
34672	9.689708	-0.256987	1.067872	0.001159	0.006050	0.003322	-9.412384	-83.020232	-71.619536
34673	9.711289	-0.248849	1.093909	0.001815	0.006123	0.008369	-9.451481	-83.018125	-71.579050
34674	9.691998	-0.278211	1.097184	0.001814	0.006123	0.008369	-9.478696	-83.014509	-71.550269
34675	9.711134	-0.250485	1.094914	0.000768	0.002170	0.009280	-9.525485	-83.014564	-71.502996
34676	9.673572	-0.268853	1.086334	-0.000329	0.006696	0.011384	-9.567326	-83.010333	-71.460716
34677	9.707593	-0.272428	1.082076	-0.000576	0.003467	0.010381	-9.618967	-83.009531	-71.409038
34678	9.707504	-0.273161	1.082695	0.003538	0.009185	0.005041	-9.627359	-83.004495	-71.398224
34679	9.729052	-0.265225	1.108937	0.001136	0.007011	0.010785	-9.677064	-83.001642	-71.347318
34680	9.685640	-0.283494	1.058677	0.001813	0.006121	0.008369	-9.704098	-82.998013	-71.318719
34681	9.691362	-0.284406	1.101201	0.001136	0.007010	0.010784	-9.753691	-82.995139	-71.267948
34682	9.692203	-0.245605	1.087635	0.002060	0.009348	0.009371	-9.782567	-82.989586	-71.237349
34683	9.706956	-0.277676	1.086445	0.001258	0.008624	0.011286	-9.832955	-82.985742	-71.185843
34684	9.691958	-0.247668	1.089349	0.001258	0.008623	0.011286	-9.871542	-82.980406	-71.145924
34685	9.675989	-0.257416	1.106614	0.001258	0.008623	0.011286	-9.921611	-82.976543	-71.095295
34686	9.688341	-0.269660	1.077109	0.001010	0.005395	0.010283	-9.958224	-82.973120	-71.057506
34687	9.709895	-0.262006	1.103175	0.001134	0.007008	0.010784	-10.007216	-82.970233	-71.008205
34688	9.691538	-0.252017	1.092083	-0.000471	0.005559	0.014612	-10.064267	-82.966277	-70.950677
34689	9.706283	-0.284330	1.090732	0.002724	0.008936	0.010687	-10.110484	-82.962306	-70.902317
34690	9.693689	-0.274372	1.121778	-0.000224	0.008785	0.015615	-10.169206	-82.956416	-70.842963
34691	9.690146	-0.295631	1.108921	0.002045	0.009824	0.013102	-10.225944	-82.951671	-70.784358
34692	9.687617	-0.276914	1.081771	-0.000752	0.010326	0.011069	-10.262798	-82.945363	-70.747341
34693	9.689850	-0.297779	1.110934	0.000050	0.011050	0.009154	-10.301470	-82.940271	-70.708023
34694	9.705589	-0.290186	1.095359	0.000328	0.006280	0.012698	-10.348347	-82.936069	-70.660283
34695	9.687224	-0.280011	1.084486	0.000050	0.011049	0.009154	-10.386926	-82.931000	-70.620985
34696	9.705331	-0.291890	1.097189	0.001408	0.009270	0.004324	-10.392548	-82.925972	-70.614191
34697	9.686986	-0.281434	1.086245	0.001794	0.006594	0.012100	-10.447082	-82.923085	-70.557935
34698	9.692629	-0.282434	1.128916	-0.000075	0.009435	0.008653	-10.472997	-82.917513	-70.531549
34699	9.720869	-0.285781	1.083111	0.001144	0.006523	0.007052	-10.505078	-82.915203	-70.497851
34700	9.674185	-0.272681	1.118664	-0.000199	0.007821	0.008151	-10.530078	-82.910589	-70.472458
34701	9.692322	-0.284666	1.130988	-0.000448	0.004595	0.007149	-10.564868	-82.909333	-70.437601
34702	9.686511	-0.285454	1.089422	0.000756	0.002162	0.009280	-10.599159	-82.907784	-70.402294
34703	9.692192	-0.286450	1.131651	-0.004063	0.004854	0.010759	-10.652170	-82.906007	-70.350793
34704	9.723893	-0.269951	1.099252	0.000232	0.003705	0.004734	-10.664848	-82.904065	-70.337568
34705	9.688638	-0.307674	1.118778	-0.002455	0.006302	0.006931	-10.698094	-82.901828	-70.305819
34706	9.701033	-0.319514	1.089170	0.000356	0.005318	0.005235	-10.711568	-82.898924	-70.291720
34707	9.707770	-0.280356	1.117277	0.001144	0.006521	0.007053	-10.743242	-82.896563	-70.258802
34708	9.691765	-0.289587	1.134508	0.000065	0.010566	0.005423	-10.753201	-82.890684	-70.248412
34709	9.692723	-0.250609	1.121075	-0.000881	0.008707	0.010566	-10.799623	-82.886636	-70.202774
34710	9.691501	-0.291303	1.136318	-0.000077	0.009431	0.008652	-10.825133	-82.881047	-70.176795
34711	9.685657	-0.292180	1.095221	-0.003137	0.007189	0.009345	-10.868599	-82.878033	-70.135186
34712	9.725408	-0.295643	1.132946	0.001557	0.002884	0.007366	-10.892971	-82.876262	-70.109409
34713	9.687813	-0.313618	1.124264	-0.003925	0.005986	0.007527	-10.929940	-82.874140	-70.073855
34714	9.701332	-0.285915	1.080211	-0.003386	0.003964	0.008342	-10.960564	-82.871652	-70.044632
34715	9.706971	-0.286826	1.122561	-0.001131	0.005480	0.009563	-11.005381	-82.869587	-69.999831
34716	9.688662	-0.276600	1.111475	-0.005950	0.008172	0.011040	-11.045861	-82.864432	-69.962156
34717	9.687432	-0.317433	1.126467	-0.002600	0.005165	0.010160	-11.094296	-82.862453	-69.914880
34718	9.700945	-0.289921	1.082619	-0.003014	0.008800	0.009846	-11.127084	-82.857070	-69.883261
34719	9.690622	-0.299652	1.141634	-0.001813	0.006366	0.011978	-11.182400	-82.854185	-69.827027
34720	9.722353	-0.283596	1.109395	0.000193	0.004657	0.012196	-11.227459	-82.850862	-69.781189
34721	9.690416	-0.302088	1.142742	-0.006757	0.007447	0.012952	-11.288497	-82.847268	-69.723664
34722	9.702786	-0.314789	1.113248	-0.005433	0.006625	0.015585	-11.350081	-82.842447	-69.664418
34723	9.684485	-0.305077	1.102049	-0.003427	0.004915	0.015803	-11.424077	-82.839881	-69.591886
34724	9.706008	-0.298085	1.127941	-0.005021	0.002988	0.015898	-11.489973	-82.837049	-69.528056
34725	9.700219	-0.299788	1.086434	-0.005579	0.005487	0.018814	-11.577751	-82.833788	-69.443728
34726	9.668223	-0.318682	1.119953	-0.004378	0.010570	0.014675	-11.630745	-82.826821	-69.392530
34727	9.686245	-0.331545	1.132592	-0.003180	0.008135	0.016806	-11.705553	-82.822286	-69.319841
34728	9.717973	-0.315684	1.100652	-0.000884	0.008697	0.010566	-11.739789	-82.816835	-69.285529
34729	9.685962	-0.333905	1.134320	-0.005020	0.010504	0.009627	-11.781634	-82.811828	-69.246043
34730	9.683606	-0.314828	1.107016	0.001142	0.006510	0.007054	-11.801026	-82.808010	-69.225522
34731	9.671033	-0.304234	1.137629	-0.000578	0.002974	0.006647	-11.833551	-82.807574	-69.194605
34732	9.667546	-0.324618	1.124090	0.000104	0.002087	0.004233	-11.845086	-82.806566	-69.182603
34733	9.720991	-0.299242	1.117187	-0.000432	0.004110	0.003418	-11.862360	-82.805847	-69.165918
34734	9.699347	-0.308236	1.091836	-0.000829	-0.000250	0.005643	-11.882873	-82.805982	-69.145407
34735	9.704960	-0.308918	1.134030	-0.002458	0.006295	0.006930	-11.915201	-82.803596	-69.113193
34736	9.704856	-0.309544	1.134748	-0.001525	0.008631	0.005519	-11.927227	-82.798764	-69.101637
34737	9.708215	-0.290233	1.149111	-0.001240	0.003385	0.005330	-11.954305	-82.798202	-69.074376
34738	9.685314	-0.339151	1.138290	-0.000454	0.004584	0.007149	-11.976711	-82.795444	-69.051738
34739	9.698976	-0.311283	1.094267	-0.001115	0.004996	0.005832	-12.004172	-82.793867	-69.024598
34740	9.686387	-0.300589	1.124992	0.000480	0.006920	0.005738	-12.017559	-82.789966	-69.010512
34741	9.698809	-0.312352	1.095439	-0.001776	0.005408	0.004515	-12.039234	-82.788353	-68.989255
34742	9.666839	-0.330092	1.128564	-0.000580	0.002972	0.006647	-12.060953	-82.786554	-68.967382
34743	9.684947	-0.341843	1.140604	0.000912	0.002810	0.002320	-12.073337	-82.786628	-68.955610
34744	9.707736	-0.293929	1.152211	0.002484	0.005209	0.005957	-12.088117	-82.783658	-68.938962
34745	9.698579	-0.314322	1.096917	-0.000580	0.002972	0.006647	-12.120517	-82.783175	-68.907349
34746	9.704159	-0.315034	1.139191	-0.002585	0.004683	0.006427	-12.140751	-82.780440	-68.888131
34747	9.682504	-0.324070	1.113967	-0.002027	0.002185	0.003511	-12.160968	-82.780702	-68.868562
34748	9.700628	-0.335756	1.125855	-0.000023	0.000474	0.003731	-12.171807	-82.780649	-68.857334
34749	9.685900	-0.304967	1.128004	0.000103	0.002085	0.004233	-12.194122	-82.780904	-68.834510
34750	9.719964	-0.308114	1.123692	-0.001902	0.003796	0.004013	-12.204110	-82.778955	-68.825225
34751	9.698310	-0.317072	1.098502	0.000228	0.003696	0.004734	-12.226889	-82.778201	-68.801993
34752	9.706064	-0.337432	1.169006	0.001163	0.006032	0.003324	-12.229925	-82.775084	-68.797946
34753	9.698159	-0.317899	1.099590	-0.003120	0.006705	0.005612	-12.255442	-82.772579	-68.774613
34754	9.703706	-0.318506	1.142078	0.000354	0.005307	0.005236	-12.268061	-82.769635	-68.761374
34755	9.682054	-0.327519	1.116863	-0.001367	0.001772	0.004828	-12.294058	-82.769963	-68.735361
34756	9.685461	-0.308176	1.130898	-0.001242	0.003383	0.005330	-12.309834	-82.768083	-68.719861
34757	9.681973	-0.328387	1.117313	-0.002814	0.000986	0.001692	-12.323387	-82.769281	-68.708150
34758	9.719510	-0.311591	1.126664	0.000102	0.002085	0.004233	-12.334798	-82.768261	-68.696273
34759	9.665920	-0.337825	1.134131	-0.000456	0.004581	0.007148	-12.367507	-82.766742	-68.663994
34760	9.721589	-0.332548	1.155275	-0.002279	-0.001037	0.002507	-12.375684	-82.767680	-68.656753
34761	9.683994	-0.349870	1.146245	0.002507	0.004732	0.002228	-12.385163	-82.766647	-68.644626
34762	9.701204	-0.301823	1.115901	0.000102	0.002084	0.004233	-12.396562	-82.765625	-68.632762
34763	9.687360	-0.330572	1.160629	0.000251	0.003222	0.001004	-12.403184	-82.765591	-68.625526
34764	9.701130	-0.302364	1.116399	-0.001368	0.001772	0.004828	-12.418347	-82.764671	-68.610717
34765	9.699791	-0.342538	1.131010	-0.000433	0.004108	0.003418	-12.435000	-82.763830	-68.594257
34766	9.724823	-0.314583	1.170393	-0.001085	-0.003473	0.004639	-12.454265	-82.765867	-68.575150
34767	9.697596	-0.323479	1.102928	0.000228	0.003695	0.004734	-12.476616	-82.765075	-68.552664
34768	9.703169	-0.324035	1.145087	-0.004968	0.001560	0.004701	-12.493479	-82.764286	-68.538221
34769	9.681541	-0.333060	1.119672	0.000762	0.001671	0.005549	-12.521154	-82.764523	-68.509755
34770	9.719054	-0.316474	1.129232	-0.001776	0.005406	0.004515	-12.531598	-82.761605	-68.499938
34771	9.681418	-0.334010	1.120451	0.000227	0.003694	0.004735	-12.553903	-82.760837	-68.477644
34772	9.702952	-0.325942	1.146378	-0.001902	0.003795	0.004012	-12.563772	-82.758882	-68.468480
34773	9.677815	-0.354610	1.107668	-0.001374	0.009764	0.002290	-12.570524	-82.754957	-68.461148
34774	9.684666	-0.315244	1.135748	0.002105	0.000372	0.004453	-12.583382	-82.754860	-68.446656
34775	9.699306	-0.346745	1.133889	0.000912	0.002808	0.002321	-12.595489	-82.754869	-68.434218
34776	9.700581	-0.307196	1.119839	0.000911	0.002808	0.002321	-12.597258	-82.753676	-68.431593
34777	9.715219	-0.338337	1.118095	-0.001853	0.002849	-0.003449	-12.585631	-82.754387	-68.444110
34778	9.702694	-0.326849	1.148305	0.001344	-0.001299	-0.001097	-12.576154	-82.755917	-68.452571
34779	9.684566	-0.315526	1.136527	0.000786	0.001198	0.001819	-12.587771	-82.756869	-68.440096
34780	9.717342	-0.358110	1.146444	-0.000534	0.002023	-0.000815	-12.577346	-82.756507	-68.450598
34781	9.702631	-0.326796	1.148848	0.000528	0.005969	-0.001723	-12.568585	-82.755244	-68.459897
34782	9.696991	-0.326718	1.107284	0.000785	0.001198	0.001819	-12.569805	-82.755015	-68.457900
34783	9.699102	-0.346588	1.135677	-0.001727	0.004460	-0.002947	-12.558697	-82.754720	-68.469442
34784	9.684403	-0.315326	1.137966	-0.001344	0.001298	0.001097	-12.557861	-82.754524	-68.470746
34785	9.684390	-0.315178	1.138115	0.005221	0.001661	-0.003695	-12.542265	-82.755828	-68.482326
34786	9.699057	-0.346062	1.136227	0.000810	0.000725	-0.001912	-12.527519	-82.756327	-68.496407
34787	9.718495	-0.317410	1.133772	0.002281	0.001037	-0.002506	-12.519391	-82.757904	-68.502446
34788	9.684380	-0.314409	1.138420	0.000810	0.000725	-0.001912	-12.504640	-82.758402	-68.516532
34789	9.696920	-0.325620	1.108227	0.000534	-0.002023	0.000815	-12.514917	-82.761280	-68.505743
34790	9.696948	-0.325452	1.108028	-0.000101	-0.002084	-0.004232	-12.493200	-82.763637	-68.527377
34791	9.680980	-0.333688	1.124321	0.002280	0.001037	-0.002506	-12.484959	-82.765206	-68.533681
34792	9.684429	-0.313453	1.138260	0.000961	0.001862	-0.005140	-12.454768	-82.765467	-68.563243
34793	9.711645	-0.355513	1.106167	-0.001445	-0.000785	-0.003136	-12.447592	-82.768102	-68.570347
34794	9.684455	-0.312767	1.138231	-0.001445	-0.000785	-0.003136	-12.430178	-82.769594	-68.588420
34795	9.700454	-0.303755	1.121879	0.004435	0.000463	-0.005514	-12.407461	-82.771845	-68.609864
34796	9.720723	-0.334484	1.161983	0.001086	0.003472	-0.004639	-12.377823	-82.771137	-68.638796
34797	9.696993	-0.322556	1.108486	0.004435	0.000463	-0.005514	-12.355374	-82.773383	-68.658910
34798	9.715126	-0.333247	1.120427	0.001771	0.002586	-0.007052	-12.315544	-82.773464	-68.697721
34799	9.700436	-0.301457	1.122655	0.000961	0.001862	-0.005141	-12.295360	-82.774860	-68.717276
34800	9.702581	-0.320934	1.150928	-0.001979	0.001237	-0.003951	-12.272660	-82.775313	-68.740985
34801	9.684456	-0.309226	1.139193	0.003625	-0.000262	-0.003603	-12.259629	-82.777674	-68.751937
34802	9.718576	-0.311745	1.134648	0.001470	0.000312	-0.000595	-12.250661	-82.778235	-68.759812
34803	9.699160	-0.340077	1.137155	0.001345	-0.001298	-0.001096	-12.250751	-82.780884	-68.760032
34804	9.702631	-0.320059	1.150746	-0.000910	-0.002809	-0.002321	-12.238505	-82.783403	-68.772586
34805	9.700497	-0.299846	1.122556	0.001620	0.001449	-0.003823	-12.224273	-82.784873	-68.784983
34806	9.697083	-0.319491	1.108586	0.000284	-0.005244	-0.000188	-12.223098	-82.788496	-68.785689
34807	9.700551	-0.299375	1.122213	0.000960	0.001861	-0.005141	-12.202640	-82.789851	-68.805776
34808	9.718673	-0.310390	1.134188	-0.002664	0.002123	-0.001538	-12.190117	-82.789512	-68.819623
34809	9.684539	-0.307690	1.138901	0.002915	0.001098	0.002541	-12.203079	-82.790393	-68.805598
34810	9.718634	-0.310605	1.134464	-0.001345	0.001298	0.001096	-12.202249	-82.790196	-68.806896
34811	9.686665	-0.328000	1.167134	-0.003750	-0.001349	0.003101	-12.223967	-82.792353	-68.787148
34812	9.684508	-0.308441	1.138961	-0.000025	0.000474	0.003731	-12.234836	-82.792299	-68.775893
34813	9.700483	-0.300236	1.122571	-0.001620	-0.001449	0.003823	-12.258730	-82.794401	-68.752169
34814	9.716471	-0.292082	1.106068	-0.003090	-0.001761	0.004418	-12.276555	-82.795513	-68.735672
34815	9.684493	-0.309656	1.138761	-0.002029	0.002184	0.003510	-12.295888	-82.795644	-68.716450
34816	9.733248	-0.343957	1.132481	-0.004034	0.003895	0.003289	-12.303799	-82.793727	-68.710490
34817	9.662846	-0.318871	1.113597	-0.000151	-0.001137	0.003229	-12.323703	-82.795779	-68.691061
34818	9.715082	-0.333241	1.120811	-0.000685	0.000886	0.002414	-12.328724	-82.795653	-68.686081
34819	9.696926	-0.322147	1.109191	-0.002689	0.002597	0.002193	-12.342033	-82.795701	-68.673765
34820	9.664930	-0.339488	1.142050	-0.001345	0.001298	0.001096	-12.341200	-82.795505	-68.675066
34821	9.682206	-0.291145	1.111464	-0.000660	0.000413	-0.001317	-12.339506	-82.797171	-68.678294
34822	9.715018	-0.333690	1.121236	0.002789	-0.000513	0.002040	-12.342238	-82.797873	-68.673615
34823	9.700335	-0.302649	1.123206	0.000660	-0.000413	0.001317	-12.352699	-82.799709	-68.661948
34824	9.696898	-0.322375	1.109371	0.000025	-0.000473	-0.003731	-12.331411	-82.801095	-68.683076
34825	9.731002	-0.325133	1.104896	-0.002030	0.002184	0.003510	-12.350291	-82.801199	-68.665432
34826	9.680856	-0.331207	1.126125	0.000376	0.004832	0.001506	-12.346858	-82.798975	-68.668360
34827	9.696803	-0.322820	1.110065	-0.000685	0.000886	0.002413	-12.361348	-82.799910	-68.654428
34828	9.718370	-0.314567	1.135631	-0.002280	-0.001037	0.002506	-12.369564	-82.800848	-68.647149
34829	9.662665	-0.320556	1.114688	0.000910	0.002808	0.002321	-12.381310	-82.800761	-68.633413
34830	9.698900	-0.343378	1.138378	-0.001470	-0.000312	0.000594	-12.379891	-82.801528	-68.635378
34831	9.678613	-0.311951	1.098702	0.001212	0.005083	-0.004136	-12.360465	-82.800918	-68.653116
34832	9.700152	-0.303103	1.124664	0.000276	0.002748	-0.002727	-12.340358	-82.800380	-68.672909
34833	9.700148	-0.302834	1.124771	0.004285	-0.000674	-0.002285	-12.332577	-82.802802	-68.678970
34834	9.700144	-0.302626	1.124860	0.000936	0.002335	-0.001410	-12.318326	-82.802332	-68.692479
34835	9.700122	-0.302478	1.125089	0.000936	0.002335	-0.001410	-12.313753	-82.802900	-68.695323
34836	9.696677	-0.322192	1.111350	0.001345	-0.001298	-0.001096	-12.304172	-82.804425	-68.703888
34837	9.700139	-0.302320	1.124985	0.000534	-0.002023	0.000815	-12.313788	-82.807191	-68.693081
34838	9.734234	-0.305125	1.120594	-0.000284	0.005244	0.000188	-12.304504	-82.804897	-68.702287
34839	9.721650	-0.293927	1.151038	-0.001345	0.001298	0.001096	-12.312681	-82.805826	-68.696518
34840	9.680601	-0.331080	1.128352	0.001161	0.006029	0.003325	-12.315715	-82.802709	-68.692475
34841	9.699968	-0.303088	1.126252	-0.004845	0.003170	0.005200	-12.342841	-82.801984	-68.666543
34842	9.680469	-0.331924	1.129232	-0.000969	0.006129	0.002602	-12.343781	-82.798900	-68.665840
34843	9.717969	-0.315055	1.138920	-0.001220	0.002909	0.001598	-12.353053	-82.798829	-68.656417
34844	9.676921	-0.352215	1.116208	-0.002565	0.004207	0.002694	-12.357176	-82.796809	-68.653427
34845	9.698428	-0.343925	1.142229	0.000376	0.004831	0.001506	-12.363267	-82.795664	-68.646175
34846	9.717827	-0.315851	1.139917	-0.000837	-0.000252	0.005642	-12.383777	-82.795778	-68.625670
34847	9.717790	-0.316238	1.140121	-0.001094	0.004519	0.002100	-12.393224	-82.794651	-68.617250
34848	9.681513	-0.293723	1.116814	-0.001345	0.001298	0.001096	-12.392393	-82.794455	-68.618550
34849	9.683610	-0.313921	1.145082	-0.003501	0.001872	0.004103	-12.414476	-82.794567	-68.599468
34850	9.690573	-0.325503	1.073131	-0.005756	0.000362	0.002878	-12.424971	-82.794675	-68.591899
34851	9.715557	-0.297573	1.112613	-0.001372	0.001771	0.004827	-12.449304	-82.794763	-68.568275
34852	9.714188	-0.337921	1.127144	-0.004187	0.002757	0.006517	-12.472659	-82.793081	-68.546838
34853	9.665348	-0.304481	1.133994	-0.004035	0.003894	0.003288	-12.489635	-82.792171	-68.532257
34854	9.665332	-0.304699	1.134079	0.000534	-0.002023	0.000815	-12.489737	-82.793868	-68.531531
34855	9.751681	-0.321887	1.136697	-0.002967	-0.000152	0.004919	-12.517497	-82.794998	-68.504278
34856	9.715435	-0.299504	1.113161	-0.001345	0.001298	0.001096	-12.516664	-82.794803	-68.505580
34857	9.695969	-0.328042	1.115806	-0.001345	0.001298	0.001096	-12.524796	-82.795603	-68.498301
34858	9.720962	-0.299930	1.155288	-0.002156	0.000573	0.003007	-12.533596	-82.795575	-68.490362
34859	9.733483	-0.311913	1.125239	-0.003680	0.001205	0.011062	-12.587740	-82.795152	-68.435726
34860	9.699282	-0.310215	1.130213	-0.010226	0.008361	0.009584	-12.622537	-82.789946	-68.406242
34861	9.686656	-0.299663	1.160766	0.005702	0.000581	0.004584	-12.642828	-82.790733	-68.382395
34862	9.663731	-0.348453	1.149467	-0.003780	-0.000877	0.006829	-12.670884	-82.791034	-68.355983
34863	9.697833	-0.351922	1.144841	-0.005909	-0.000776	0.006106	-12.706082	-82.792358	-68.323162
34864	9.685304	-0.340804	1.174739	0.004035	-0.003894	-0.003288	-12.687952	-82.795618	-68.338792
34865	9.679772	-0.340370	1.132693	0.000153	0.001138	-0.003228	-12.676191	-82.797051	-68.350673
34866	9.699237	-0.311621	1.130209	0.000027	-0.000472	-0.003731	-12.654976	-82.798451	-68.371727
34867	9.661705	-0.328191	1.120768	0.002717	-0.003068	-0.005923	-12.634010	-82.802591	-68.391858
34868	9.699318	-0.310667	1.129779	-0.001569	-0.002394	-0.003639	-12.615996	-82.805052	-68.410607
34869	9.697253	-0.290327	1.101382	0.003376	-0.003481	-0.004606	-12.600711	-82.809258	-68.424995
34870	9.683410	-0.318460	1.145521	-0.003040	-0.002706	-0.003045	-12.586453	-82.811819	-68.440806
34871	9.679999	-0.338181	1.131406	0.000408	-0.003633	0.000313	-12.594835	-82.815427	-68.432662
34872	9.699497	-0.309477	1.128565	0.002716	-0.003068	-0.005923	-12.564849	-82.818548	-68.461002
34873	9.683545	-0.317621	1.144611	-0.003040	-0.002706	-0.003045	-12.559633	-82.822033	-68.466599
34874	9.665487	-0.305969	1.132409	0.002439	-0.005816	-0.003197	-12.544593	-82.826351	-68.480035
34875	9.703138	-0.288521	1.141041	0.000183	-0.007326	-0.004422	-12.535945	-82.832647	-68.487853
34876	9.701888	-0.327906	1.154798	0.000434	-0.004105	-0.003418	-12.519346	-82.836034	-68.504017
34877	9.696388	-0.327359	1.112363	0.003124	-0.006702	-0.005611	-12.503064	-82.842173	-68.517710
34878	9.702053	-0.326980	1.153667	-0.003291	-0.005927	-0.004049	-12.487550	-82.846657	-68.534932
34879	9.681881	-0.295490	1.113145	0.000157	-0.006854	-0.000692	-12.494950	-82.852256	-68.526426
34880	9.712630	-0.317909	1.094087	0.000842	-0.007739	-0.003105	-12.483040	-82.857637	-68.537629
34881	9.684189	-0.314845	1.139922	0.001778	-0.005404	-0.004515	-12.470647	-82.862794	-68.548736
34882	9.696801	-0.325685	1.109251	0.000308	-0.005716	-0.003920	-12.453367	-82.867142	-68.565659
34883	9.682202	-0.294054	1.110739	-0.000352	-0.005304	-0.005237	-12.439208	-82.872408	-68.579474
34884	9.699096	-0.344785	1.136276	0.000968	-0.006129	-0.002603	-12.427812	-82.876824	-68.590085
34885	9.716485	-0.296160	1.104860	-0.000754	-0.009663	-0.003013	-12.428085	-82.884187	-68.588815
34886	9.650503	-0.310097	1.141409	0.002588	-0.004679	-0.006427	-12.397159	-82.888262	-68.618173
34887	9.697210	-0.323756	1.106230	-0.001847	-0.005144	-0.000912	-12.402574	-82.892985	-68.614652
34888	9.722346	-0.295179	1.144819	0.000590	-0.010962	-0.004110	-12.389342	-82.900290	-68.627331
34889	9.700847	-0.303451	1.118558	0.001879	-0.003322	-0.000282	-12.393595	-82.903796	-68.622798
34890	9.713419	-0.314710	1.087986	-0.001187	-0.005557	0.000405	-12.396326	-82.907521	-68.620417
34891	9.700955	-0.303371	1.117639	0.001093	-0.004520	-0.002101	-12.394286	-82.911871	-68.620685
34892	9.666901	-0.300338	1.121799	0.000433	-0.004107	-0.003418	-12.377442	-82.915254	-68.637094
34893	9.701077	-0.302758	1.116746	0.002437	-0.005818	-0.003199	-12.370661	-82.920501	-68.643025
34894	9.685198	-0.310802	1.132435	0.002335	-0.007902	-0.007431	-12.338343	-82.926499	-68.673929
34895	9.663728	-0.318731	1.105964	0.000590	-0.010963	-0.004110	-12.333883	-82.934725	-68.676999
34896	9.697960	-0.321051	1.100431	0.005785	-0.008828	-0.004076	-12.315575	-82.940829	-68.691793
34897	9.701510	-0.300943	1.113475	0.000157	-0.006856	-0.000692	-12.323080	-82.946310	-68.681404
34898	9.703755	-0.320686	1.141057	0.002562	-0.004208	-0.002697	-12.308268	-82.949659	-68.694534
34899	9.714140	-0.311671	1.082413	0.001902	-0.003795	-0.004013	-12.295880	-82.953905	-68.706720
34900	9.698249	-0.319861	1.098229	0.002310	-0.007430	-0.003701	-12.279813	-82.959179	-68.721261
34901	9.717741	-0.291054	1.095127	0.004032	-0.003895	-0.003292	-12.270076	-82.963388	-68.727388
34902	9.707435	-0.299375	1.153344	-0.001856	0.002848	-0.003448	-12.247379	-82.962876	-68.751014
34903	9.714289	-0.310269	1.081476	0.002279	0.001038	-0.002507	-12.237157	-82.964201	-68.759342
34904	9.701779	-0.298816	1.111697	-0.000661	0.000412	-0.001317	-12.225839	-82.964793	-68.770812
34905	9.689259	-0.287386	1.141996	0.002404	0.002649	-0.002005	-12.216688	-82.965147	-68.775278
34906	9.719902	-0.309851	1.123758	0.003600	0.000213	0.000126	-12.209671	-82.965676	-68.779955
34907	9.719872	-0.310006	1.123973	-0.000432	0.004108	0.003418	-12.224376	-82.964636	-68.766704
34908	9.701660	-0.299095	1.112667	0.000354	0.005307	0.005237	-12.237396	-82.961692	-68.753066
34909	9.698132	-0.319460	1.099375	-0.003246	0.005094	0.005110	-12.261028	-82.959758	-68.728727
34910	9.699348	-0.280359	1.085401	-0.003521	0.002345	0.007837	-12.290949	-82.958154	-68.700296
34911	9.698008	-0.320753	1.100093	-0.001776	0.005406	0.004515	-12.310455	-82.956209	-68.681374
34912	9.707011	-0.301637	1.156322	-0.005399	0.005667	0.008119	-12.339415	-82.952708	-68.654996
34913	9.738850	-0.285292	1.124269	-0.000204	0.007802	0.008153	-12.371853	-82.948898	-68.621779
34914	9.679587	-0.311570	1.090193	-0.003120	0.006704	0.005612	-12.387083	-82.945122	-68.607919
34915	9.685118	-0.312363	1.132690	-0.005400	0.005666	0.008119	-12.424495	-82.942455	-68.572491
34916	9.695385	-0.304471	1.074999	-0.002461	0.006291	0.006929	-12.445666	-82.938745	-68.552263
34917	9.668954	-0.322305	1.150254	0.001949	0.007227	0.005144	-12.463995	-82.935629	-68.531220
34918	9.697394	-0.325502	1.104108	-0.000834	-0.000253	0.005642	-12.484926	-82.935738	-68.510295
34919	9.684849	-0.314699	1.134339	-0.002028	0.002184	0.003511	-12.503012	-82.935618	-68.492572
34920	9.663213	-0.323676	1.109016	-0.002713	0.003069	0.005925	-12.522965	-82.933832	-68.473718
34921	9.700750	-0.307125	1.118393	-0.001495	0.000160	0.004325	-12.546420	-82.934748	-68.449661
34922	9.697272	-0.327304	1.104641	-0.000684	0.000885	0.002414	-12.551553	-82.934619	-68.444568
34923	9.702856	-0.327815	1.146660	-0.000709	0.001357	0.006144	-12.581071	-82.934670	-68.416638
34924	9.663111	-0.325592	1.109350	-0.000175	-0.000666	0.006959	-12.607982	-82.934841	-68.389307
34925	9.738256	-0.292096	1.127665	-0.002431	-0.002176	0.005735	-12.640355	-82.936846	-68.358467
34926	9.700664	-0.309580	1.118464	0.003042	0.002707	0.003043	-12.644350	-82.935619	-68.352370
34927	9.684661	-0.318345	1.134923	0.000660	-0.000413	0.001317	-12.653255	-82.937245	-68.343483
34928	9.684633	-0.318633	1.135083	0.000228	0.003693	0.004735	-12.665492	-82.935254	-68.330706
34929	9.682463	-0.298955	1.107147	0.002130	-0.000101	0.000722	-12.670127	-82.936653	-68.325800
34930	9.688082	-0.299224	1.148923	0.001853	-0.002850	0.003448	-12.682265	-82.938480	-68.312184
34931	9.716583	-0.302122	1.102381	0.002256	0.001509	0.001224	-12.688107	-82.939053	-68.304600
34932	9.697119	-0.330604	1.105000	0.002130	-0.000101	0.000722	-12.684997	-82.939687	-68.306189
34933	9.684601	-0.319284	1.135174	0.002940	0.000624	-0.001189	-12.680421	-82.941027	-68.308804
34934	9.700593	-0.310722	1.118766	0.004793	-0.002226	0.002259	-12.684882	-82.942656	-68.301227
34935	9.697144	-0.330659	1.104773	-0.001596	-0.001922	0.000093	-12.691083	-82.945301	-68.295775
34936	9.684637	-0.319267	1.134871	0.002281	0.001037	-0.002506	-12.672145	-82.945705	-68.313225
34937	9.698486	-0.290601	1.090403	0.003474	-0.001400	-0.000375	-12.672655	-82.948035	-68.310993
34938	9.716609	-0.301928	1.102207	0.003726	0.001821	0.000629	-12.666256	-82.947606	-68.314975
34939	9.713110	-0.321851	1.088661	0.002382	0.003120	0.001726	-12.672551	-82.947213	-68.306936
34940	9.688017	-0.299528	1.149387	0.001164	0.006029	0.003325	-12.675522	-82.944093	-68.302954
34941	9.682344	-0.299771	1.107966	-0.000432	0.004107	0.003418	-12.690202	-82.942920	-68.286727
34942	9.700398	-0.311397	1.120268	0.006234	0.006551	0.002858	-12.687621	-82.939567	-68.285413
34943	9.698205	-0.291809	1.092574	0.002231	0.001981	0.004955	-12.709064	-82.939321	-68.264333
34944	9.682160	-0.300876	1.109271	0.002483	0.005202	0.005959	-12.723980	-82.936331	-68.247554
34945	9.718322	-0.324041	1.133380	0.003294	0.005927	0.004047	-12.736991	-82.934097	-68.233465
34946	9.694519	-0.312990	1.080348	0.003420	0.007537	0.004549	-12.742615	-82.929979	-68.225510
34947	9.715999	-0.304930	1.106744	0.003546	0.009147	0.005051	-12.756870	-82.925664	-68.207477
34948	9.699858	-0.314048	1.124199	0.002454	0.013666	0.007150	-12.768482	-82.917791	-68.194044
34949	9.715671	-0.306181	1.109275	0.002580	0.015276	0.007652	-12.788494	-82.909747	-68.172778
34950	9.670936	-0.312679	1.173575	0.004049	0.015586	0.007058	-12.796754	-82.900812	-68.161801
34951	9.668683	-0.293477	1.146506	0.001795	0.006086	0.008372	-12.829749	-82.897786	-68.127258
34952	9.729866	-0.339623	1.110525	0.004050	0.007594	0.009597	-12.857476	-82.892992	-68.096663
34953	9.699097	-0.317793	1.129699	0.001388	0.009719	0.008058	-12.885806	-82.888049	-68.066052
34954	9.698950	-0.318546	1.130741	0.002985	0.011640	0.007965	-12.902622	-82.881200	-68.047067
34955	9.696729	-0.299362	1.103577	0.001262	0.008108	0.007556	-12.930396	-82.877201	-68.016823
34956	9.700767	-0.339793	1.160759	0.003670	0.010753	0.005552	-12.936885	-82.871155	-68.007849
34957	9.686019	-0.309104	1.163606	0.000477	0.006912	0.005737	-12.958817	-82.868127	-67.981223
34958	9.698478	-0.320785	1.134155	0.006233	0.006545	0.002860	-12.956118	-82.864776	-67.980028
34959	9.682346	-0.329632	1.151335	-0.000588	0.010958	0.004105	-12.965916	-82.859499	-67.970490
34960	9.698258	-0.321373	1.135872	0.004104	0.006647	0.002136	-12.961103	-82.856184	-67.972656
34961	9.678716	-0.349983	1.138773	0.001442	0.000783	0.003137	-12.975611	-82.856794	-67.958774
34962	9.716268	-0.333134	1.148253	-0.001876	0.003322	0.000279	-12.969358	-82.855575	-67.965845
34963	9.660575	-0.338673	1.127369	0.002284	0.001035	-0.002505	-12.957990	-82.856751	-67.977077
34964	9.694697	-0.341270	1.122873	0.002815	-0.000989	-0.001689	-12.944700	-82.858190	-67.988529
34965	9.680079	-0.309763	1.124877	0.001626	0.001448	-0.003822	-12.928266	-82.859441	-68.002758
34966	9.698167	-0.320899	1.136782	0.001471	0.000311	-0.000594	-12.919291	-82.860014	-68.010638
34967	9.701630	-0.301000	1.150603	0.003599	0.000208	0.000130	-12.919680	-82.861304	-68.008988
34968	9.714186	-0.311993	1.120606	-0.003290	0.002067	-0.006588	-12.884903	-82.861663	-68.045621
34969	9.660580	-0.337121	1.127791	0.002283	0.001035	-0.002505	-12.873367	-82.862897	-68.057647
34970	9.701620	-0.300055	1.150935	-0.000658	0.000413	-0.001318	-12.862268	-82.863504	-68.068898
34971	9.698156	-0.319782	1.137185	-0.000658	0.000413	-0.001318	-12.858921	-82.864957	-68.072686
34972	9.682163	-0.328193	1.153290	-0.000378	-0.004829	-0.001504	-12.852162	-82.868516	-68.079401
34973	9.698274	-0.319365	1.136300	0.002186	-0.009038	-0.004196	-12.843552	-82.875638	-68.088407
34974	9.682361	-0.327513	1.151816	-0.001288	-0.007636	-0.003825	-12.829779	-82.881061	-68.102716
34975	9.733972	-0.281824	1.115928	0.000154	-0.006853	-0.000688	-12.835907	-82.886400	-68.095631
34976	9.720073	-0.310252	1.160038	-0.003599	-0.000208	-0.000130	-12.832403	-82.887202	-68.100925
34977	9.698512	-0.318655	1.134461	0.000812	0.000724	-0.001911	-12.825111	-82.888461	-68.106089
34978	9.648400	-0.324154	1.155200	-0.003039	-0.002704	-0.003044	-12.810774	-82.891028	-68.121977
34979	9.698571	-0.318190	1.134088	-0.000910	-0.002807	-0.002321	-12.806972	-82.894350	-68.123091
34980	9.695146	-0.337665	1.120080	-0.000756	-0.001669	-0.005549	-12.779024	-82.896656	-68.151377
34981	9.698646	-0.317205	1.133725	-0.003543	-0.001154	-0.007591	-12.749756	-82.899751	-68.186177
34982	9.693146	-0.316592	1.091561	0.001905	-0.003795	-0.004010	-12.729307	-82.903047	-68.205369
34983	9.668087	-0.293681	1.151470	-0.000910	-0.002807	-0.002321	-12.724914	-82.906410	-68.208921
34984	9.714783	-0.307575	1.116643	-0.002913	-0.001095	-0.002543	-12.711053	-82.908011	-68.224256
34985	9.714820	-0.307263	1.116404	0.001905	-0.003795	-0.004010	-12.697919	-82.912081	-68.236127
34986	9.696774	-0.295569	1.104201	-0.001036	-0.004417	-0.002822	-12.685069	-82.915573	-68.249359
34987	9.680811	-0.303821	1.120194	-0.001569	-0.002394	-0.003638	-12.674851	-82.918818	-68.257917
34988	9.713596	-0.346047	1.129776	-0.001569	-0.002394	-0.003638	-12.656565	-82.921281	-68.276934
34989	9.686431	-0.303296	1.161700	-0.000784	-0.001197	-0.001819	-12.652011	-82.923678	-68.283648
34990	9.677436	-0.322796	1.105911	-0.002102	-0.000371	-0.004454	-12.628292	-82.925112	-68.308448
34991	9.733123	-0.316840	1.126976	-0.000659	0.000413	-0.001317	-12.624432	-82.926394	-68.312177
34992	9.680922	-0.302397	1.119617	-0.002227	-0.001981	-0.004955	-12.600131	-82.928789	-68.337635
34993	9.699064	-0.313222	1.131256	0.000713	-0.001359	-0.006143	-12.574453	-82.931728	-68.367040
34994	9.699099	-0.312738	1.131088	0.002031	-0.002185	-0.003509	-12.554408	-82.934054	-68.385751
34995	9.702562	-0.292611	1.144891	-0.001192	0.002436	-0.002133	-12.544488	-82.934398	-68.398597
34996	9.702540	-0.292441	1.145122	0.000937	0.002334	-0.001410	-12.529992	-82.933934	-68.412348
34997	9.702528	-0.292307	1.145256	-0.000659	0.000413	-0.001317	-12.525728	-82.935290	-68.418106
34998	9.702528	-0.292164	1.145296	-0.002788	0.000515	-0.002041	-12.512340	-82.935923	-68.432892
34999	9.680957	-0.300638	1.119785	-0.001345	0.001299	0.001096	-12.518072	-82.936456	-68.430571
35000	9.699075	-0.311943	1.131511	-0.000910	-0.002807	-0.002321	-12.505667	-82.938980	-68.443281
35001	9.699087	-0.311910	1.131418	-0.004944	0.001089	0.000966	-12.513194	-82.939584	-68.439629
35002	9.696980	-0.292111	1.103318	-0.001470	-0.000311	0.000594	-12.511769	-82.940351	-68.441600
35003	9.686537	-0.300651	1.161505	0.000686	-0.000886	-0.002413	-12.502428	-82.942486	-68.453110
35004	9.715105	-0.303198	1.115037	-0.000659	0.000413	-0.001317	-12.491173	-82.943084	-68.464518
35005	9.699088	-0.311638	1.131482	-0.002662	0.002125	-0.001539	-12.486188	-82.943559	-68.469116
35006	9.677547	-0.319942	1.105771	-0.001036	-0.004417	-0.002823	-12.473172	-82.947046	-68.482515
35007	9.718615	-0.282680	1.128515	-0.002228	-0.001981	-0.004956	-12.456012	-82.950195	-68.501226
35008	9.715188	-0.301996	1.114638	-0.001290	0.000353	-0.006365	-12.422321	-82.951449	-68.535605
35009	9.681107	-0.298666	1.119016	0.003376	-0.003483	-0.004604	-12.405271	-82.955397	-68.549358
35010	9.681130	-0.298110	1.118963	0.000305	0.002274	-0.006457	-12.368306	-82.955583	-68.586114
35011	9.677696	-0.317319	1.105219	-0.001416	-0.001258	-0.006867	-12.341810	-82.958560	-68.611095
35012	9.697180	-0.288158	1.102594	-0.000605	-0.000533	-0.008778	-12.297604	-82.960596	-68.655672
35013	9.681212	-0.296076	1.118795	-0.002228	-0.001982	-0.004956	-12.280051	-82.963728	-68.675264
35014	9.699383	-0.306821	1.130275	-0.001667	-0.004478	-0.007871	-12.244408	-82.967857	-68.711826
35015	9.699477	-0.306052	1.129678	0.000211	-0.007800	-0.008151	-12.216628	-82.974592	-68.739842
35016	9.703045	-0.285485	1.142600	-0.000725	-0.010135	-0.006741	-12.191043	-82.981747	-68.765725
35017	9.697607	-0.284723	1.099729	0.004344	-0.009612	-0.007206	-12.166915	-82.989406	-68.787491
35018	9.699855	-0.303866	1.127017	0.000210	-0.007801	-0.008151	-12.131973	-82.995421	-68.822260
35019	9.719384	-0.274830	1.123821	-0.001820	-0.005617	-0.004642	-12.118876	-83.000289	-68.834095
35020	9.684017	-0.311328	1.142343	-0.002888	-0.001571	-0.006273	-12.088100	-83.002584	-68.866455
35021	9.697943	-0.282154	1.097425	0.000210	-0.007801	-0.008151	-12.059614	-83.009334	-68.896883
35022	9.712720	-0.312568	1.094824	-0.001669	-0.004480	-0.007870	-12.023606	-83.013446	-68.933811
35023	9.703668	-0.280654	1.138497	-0.000609	-0.000535	-0.008778	-11.985596	-83.016115	-68.973242
35024	9.682161	-0.288474	1.112555	-0.000475	-0.006916	-0.005738	-11.960950	-83.021333	-68.998033
35025	9.685662	-0.267988	1.125966	0.000051	-0.000948	-0.007461	-11.929337	-83.024063	-69.028552
35026	9.682267	-0.287225	1.111951	-0.002355	-0.003595	-0.005457	-11.903776	-83.027383	-69.055348
35027	9.684484	-0.306456	1.139696	-0.002330	-0.004069	-0.009188	-11.867912	-83.032114	-69.094977
35028	9.692782	-0.277232	1.052939	-0.000225	-0.003695	-0.004734	-11.844484	-83.035402	-69.118395
35029	9.682458	-0.285283	1.110795	-0.001670	-0.004482	-0.007871	-11.814287	-83.040194	-69.152729
35030	9.702830	-0.315898	1.150222	-0.000350	-0.005306	-0.005236	-11.790116	-83.044442	-69.176968
35031	9.700753	-0.295456	1.121506	-0.000475	-0.006917	-0.005738	-11.772248	-83.050226	-69.192655
35032	9.716803	-0.286361	1.104648	-0.000225	-0.003696	-0.004735	-11.748714	-83.053509	-69.216180
35033	9.698733	-0.274437	1.092389	0.000334	-0.006193	-0.007650	-11.720656	-83.059125	-69.242367
35034	9.686276	-0.262592	1.121950	-0.001820	-0.005619	-0.004642	-11.700246	-83.063475	-69.263665
35035	9.717032	-0.284725	1.103056	0.001779	-0.005406	-0.004514	-11.685257	-83.068324	-69.275766
35036	9.698960	-0.273022	1.090726	-0.001160	-0.006032	-0.003325	-11.670894	-83.072751	-69.290591
35037	9.683068	-0.281368	1.106465	-0.000500	-0.006444	-0.002008	-11.669358	-83.077956	-69.292390
35038	9.717227	-0.283717	1.101593	0.000833	0.000250	-0.005643	-11.637116	-83.079125	-69.324074
35039	9.699132	-0.271966	1.089458	0.000845	-0.007742	-0.003104	-11.630312	-83.085243	-69.333592
35040	9.701399	-0.291495	1.116945	0.001779	-0.005406	-0.004514	-11.608089	-83.089455	-69.354639
35041	9.715232	-0.262625	1.072079	-0.003040	-0.002711	-0.003043	-11.599969	-83.092730	-69.363578
35042	9.683361	-0.279438	1.104384	-0.000351	-0.005308	-0.005237	-11.575484	-83.096967	-69.388131
35043	9.717530	-0.281794	1.099409	-0.000910	-0.002810	-0.002321	-11.569370	-83.100190	-69.394449
35044	9.699415	-0.270241	1.087366	-0.003041	-0.002712	-0.003043	-11.554102	-83.102717	-69.411270
35045	9.721037	-0.261465	1.112653	-0.000910	-0.002810	-0.002321	-11.548548	-83.105825	-69.412793
35046	9.699500	-0.269884	1.086701	0.000286	-0.005245	-0.000189	-11.547011	-83.109447	-69.413863
35047	9.683608	-0.278320	1.102506	-0.001160	-0.006033	-0.003325	-11.539401	-83.114586	-69.421619
35048	9.730322	-0.292045	1.067151	-0.004099	-0.006659	-0.002134	-11.532664	-83.119224	-69.430457
35049	9.705341	-0.269178	1.126951	-0.000888	-0.003285	-0.006052	-11.509999	-83.122951	-69.449082
35050	9.678180	-0.277148	1.059051	-0.001822	-0.005621	-0.004642	-11.489263	-83.127292	-69.470705
35051	9.703264	-0.248314	1.097943	-0.000227	-0.003697	-0.004735	-11.472730	-83.131211	-69.483953
35052	9.699885	-0.267732	1.083790	0.001903	-0.003796	-0.004013	-11.451015	-83.134454	-69.504412
35053	9.718109	-0.278681	1.095075	-0.001161	-0.006033	-0.003325	-11.444217	-83.139534	-69.506143
35054	9.721586	-0.258470	1.108551	-0.002108	-0.000376	-0.004452	-11.419490	-83.140905	-69.531950
35055	9.700057	-0.266606	1.082527	-0.001410	-0.009256	-0.004329	-11.409636	-83.147781	-69.541965
35056	9.700158	-0.266127	1.081740	-0.000478	-0.006920	-0.005739	-11.384080	-83.152971	-69.567665
35057	9.718395	-0.276846	1.093002	-0.003020	-0.003188	-0.006773	-11.358360	-83.156818	-69.594712
35058	9.721870	-0.256514	1.106516	-0.001572	-0.002400	-0.003638	-11.338958	-83.159228	-69.614845
35059	9.684365	-0.273396	1.097072	-0.000911	-0.002811	-0.002321	-11.332780	-83.162354	-69.618452
35060	9.706009	-0.264552	1.122285	-0.001697	-0.004011	-0.004140	-11.312583	-83.165726	-69.639459
35061	9.700417	-0.263981	1.079942	-0.001014	-0.004898	-0.006554	-11.288623	-83.170547	-69.660604
35062	9.702701	-0.283576	1.107643	-0.001719	-0.003537	-0.000409	-11.285459	-83.173232	-69.664466
35063	9.688006	-0.252183	1.109331	-0.000228	-0.003698	-0.004735	-11.268844	-83.177150	-69.677188
35064	9.738100	-0.245677	1.088117	-0.003557	-0.001166	-0.007587	-11.230780	-83.179305	-69.717261
35065	9.706264	-0.262393	1.120581	0.000433	-0.004109	-0.003419	-11.219405	-83.183343	-69.727753
35066	9.700646	-0.261915	1.078393	0.001365	-0.001773	-0.004829	-11.192007	-83.185529	-69.754243
35067	9.704097	-0.241715	1.092044	-0.002917	-0.001103	-0.002540	-11.183542	-83.187681	-69.763658
35068	9.716634	-0.252634	1.061729	-0.000104	-0.002086	-0.004233	-11.160053	-83.189975	-69.787059
35069	9.690439	-0.269558	1.136317	-0.001985	0.001234	-0.003950	-11.142595	-83.191008	-69.803811
35070	9.702959	-0.280523	1.106158	-0.000786	-0.001200	-0.001819	-11.130023	-83.192535	-69.816611
35071	9.685994	-0.229262	1.079896	-0.000911	-0.002812	-0.002321	-11.122869	-83.195614	-69.825408
35072	9.716694	-0.251816	1.061376	-0.004282	0.000670	0.002289	-11.129915	-83.195635	-69.820469
35073	9.700779	-0.260501	1.077531	-0.000374	-0.004835	-0.001507	-11.128304	-83.199858	-69.823116
35074	9.722413	-0.252027	1.102768	-0.005876	-0.001256	0.002383	-11.138495	-83.200951	-69.815929
35075	9.706504	-0.260886	1.118853	-0.002526	-0.004263	0.001503	-11.152634	-83.204559	-69.799141
35076	9.688352	-0.249866	1.106827	-0.001614	-0.001451	0.003825	-11.167375	-83.205601	-69.784913
35077	9.719052	-0.272735	1.088188	-0.003870	-0.002965	0.002602	-11.185520	-83.208245	-69.767789
35078	9.672482	-0.259236	1.122462	-0.004265	-0.007325	0.004826	-11.212012	-83.212476	-69.743256
35079	9.697536	-0.282148	1.061608	-0.003208	-0.003377	0.003918	-11.236637	-83.215155	-69.717296
35080	9.716935	-0.254045	1.058628	-0.005464	-0.004891	0.002695	-11.251516	-83.218254	-69.705150
35081	9.682850	-0.251679	1.062955	-0.000145	-0.001137	0.003229	-11.268475	-83.219662	-69.688364
35082	9.690787	-0.271939	1.132778	-0.004532	-0.002554	0.001285	-11.273974	-83.221604	-69.685127
35083	9.685143	-0.272124	1.090499	-0.003334	-0.004989	0.003415	-11.298025	-83.225164	-69.658853
35084	9.688615	-0.252671	1.103885	-0.003209	-0.003377	0.003918	-11.316010	-83.227273	-69.642277
35085	9.719321	-0.275398	1.085111	-0.001719	-0.003537	-0.000409	-11.319741	-83.230551	-69.636450
35086	9.701183	-0.264187	1.072990	-0.000396	-0.004361	0.002223	-11.329046	-83.233402	-69.626992
35087	9.703481	-0.284197	1.100627	-0.001845	-0.005149	-0.000912	-11.332068	-83.237548	-69.621487
35088	9.683111	-0.252884	1.060290	-0.001845	-0.005149	-0.000912	-11.328107	-83.241195	-69.626223
35089	9.703609	-0.284037	1.099539	-0.001970	-0.006761	-0.001414	-11.330063	-83.246305	-69.623047
35090	9.701413	-0.263936	1.070971	-0.000913	-0.002811	-0.002321	-11.316649	-83.248797	-69.636764
35091	9.704880	-0.243902	1.084576	-0.000787	-0.001200	-0.001819	-11.310615	-83.250932	-69.641917
35092	9.701460	-0.263710	1.070602	-0.003063	-0.002240	0.000690	-11.312175	-83.252764	-69.641796
35093	9.701488	-0.263592	1.070371	-0.001575	-0.002400	-0.003638	-11.299391	-83.255861	-69.652840
35094	9.723149	-0.255002	1.095570	-0.000395	-0.004361	0.002223	-11.308724	-83.258713	-69.643353
35095	9.703805	-0.283641	1.097907	0.000662	-0.000412	0.001316	-11.315687	-83.260080	-69.634433
