// Start Time: Unknown
// Update Rate: 100.0Hz
// Filter Profile: human (46.1)
// Firmware Version: 4.6.0
PacketCounter	Acc_X	Acc_Y	Acc_Z	Gyr_X	Gyr_Y	Gyr_Z	Roll	Pitch	Yaw
19027	7.478357	5.182396	-3.346963	-0.025573	0.006248	0.021246	122.860860	-50.473179	-68.181381
19028	7.510013	5.150434	-3.378251	-0.028130	0.004240	0.024925	123.266024	-50.635692	-68.464486
19029	7.534308	5.144964	-3.369266	-0.031992	0.001753	0.026296	123.059025	-50.561795	-68.350361
19030	7.520308	5.121937	-3.415059	-0.032835	-0.000420	0.030236	123.051949	-50.576184	-68.365557
19031	7.506016	5.034279	-3.418804	-0.027285	-0.005023	0.028826	123.052295	-50.588912	-68.384801
19032	7.534323	5.061470	-3.402215	-0.020822	-0.001582	0.032070	123.053488	-50.603819	-68.401785
19033	7.539893	5.092807	-3.393205	-0.014249	-0.006436	0.034278	123.062612	-50.618465	-68.423906
19034	7.537611	5.122194	-3.443604	-0.018844	-0.004482	0.030867	123.066195	-50.631885	-68.442508
19035	7.516557	5.171637	-3.421539	-0.024709	-0.007523	0.033289	123.070187	-50.645866	-68.465431
19036	7.551955	5.107608	-3.403052	-0.028149	-0.007185	0.032766	123.070762	-50.659352	-68.487030
19037	7.541926	5.135398	-3.512207	-0.028850	-0.007266	0.036125	123.073901	-50.674815	-68.511614
19038	7.532176	5.126898	-3.479378	-0.027271	-0.006064	0.037119	123.076003	-50.690741	-68.534527
19039	7.511446	5.176097	-3.457104	-0.021842	-0.005843	0.036591	123.084263	-50.706638	-68.559628
19040	7.535634	5.123051	-3.477558	-0.023250	0.001979	0.035325	123.083287	-50.724216	-68.575577
19041	7.530071	5.147700	-3.436165	-0.019289	-0.003832	0.032914	123.091920	-50.738557	-68.598498
19042	7.512398	5.137448	-3.462683	-0.024447	-0.003320	0.032130	123.092164	-50.752942	-68.616902
19043	7.529625	5.157462	-3.414195	-0.021713	-0.003743	0.036011	123.101997	-50.768391	-68.642417
19044	7.508513	5.160164	-3.420551	-0.025871	-0.006945	0.038692	123.106091	-50.784788	-68.666836
19045	7.556030	5.130473	-3.334489	-0.024159	-0.007114	0.038953	123.118431	-50.800101	-68.696988
19046	7.515203	5.078027	-3.397053	-0.024863	-0.007195	0.042312	123.124668	-50.818152	-68.723416
19047	7.521252	5.108811	-3.388029	-0.021454	-0.010999	0.042677	123.142748	-50.834418	-68.758740
19048	7.549578	5.088112	-3.401014	-0.017158	-0.013692	0.047395	123.159219	-50.852863	-68.792659
19049	7.562901	5.092018	-3.432891	-0.018162	-0.009970	0.043933	123.180329	-50.870239	-68.828840
19050	7.553493	5.100608	-3.471800	-0.011685	-0.006556	0.047180	123.195695	-50.890806	-68.857277
19051	7.570701	5.090997	-3.523662	-0.015544	-0.005564	0.048706	123.219578	-50.911750	-68.894044
19052	7.576551	5.074865	-3.543184	-0.023988	-0.002597	0.046828	123.225469	-50.933379	-68.919338
19053	7.597349	5.034356	-3.543403	-0.028865	-0.001344	0.044736	123.242164	-50.953261	-68.954510
19054	7.598871	4.967369	-3.499670	-0.030122	0.005116	0.042748	123.238435	-50.975353	-68.971934
19055	7.608272	4.939010	-3.537908	-0.030518	0.013754	0.036826	123.248205	-50.997093	-68.996224
19056	7.591845	4.938614	-3.392429	-0.016230	0.014872	0.027997	123.240964	-51.015181	-68.998877
19057	7.620871	4.983846	-3.445618	-0.017536	0.014408	0.025689	123.257791	-51.033460	-69.020615
19058	7.581117	5.007259	-3.378399	-0.019571	0.014930	0.018451	123.244904	-51.046995	-69.018470
19059	7.582393	5.006721	-3.376333	-0.022336	0.011907	0.014410	123.259030	-51.060030	-69.039483
19060	7.586973	4.993331	-3.394564	-0.025518	0.009526	0.012416	123.243601	-51.068984	-69.038468
19061	7.580747	5.019645	-3.352192	-0.021379	0.009258	0.009579	123.255425	-51.079843	-69.056879
19062	7.604297	5.014810	-3.343329	-0.023129	0.005973	0.009156	123.242196	-51.086119	-69.056943
19063	7.581977	5.019813	-3.349157	-0.017010	0.002792	0.005106	123.258716	-51.095366	-69.076953
19064	7.586656	5.053083	-3.339594	-0.013444	0.001070	0.004891	123.252255	-51.098044	-69.078581
19065	7.567597	5.044985	-3.366239	-0.014746	0.000607	0.002582	123.270006	-51.105970	-69.098479
19066	7.559957	5.043698	-3.424840	-0.011596	-0.000475	0.004414	123.265335	-51.107929	-69.101033
19067	7.594257	5.027159	-3.378351	-0.005893	-0.003016	0.002412	123.298602	-51.114796	-69.132093
19068	7.579300	5.052144	-3.397024	-0.007195	-0.003479	0.000103	123.296530	-51.113745	-69.134781
19069	7.548313	5.037329	-3.392742	-0.003082	-0.007209	-0.002898	123.327068	-51.116918	-69.161339
19070	7.552269	5.070768	-3.384538	-0.003241	-0.009304	-0.002325	123.329775	-51.112870	-69.167253
19071	7.566781	5.046070	-3.366447	-0.000090	-0.010386	-0.000493	123.356513	-51.115052	-69.189272
19072	7.559261	5.091105	-3.397633	-0.003143	-0.014133	-0.003226	123.361814	-51.109048	-69.198403
19073	7.569962	5.079711	-3.359686	-0.003462	-0.018322	-0.002080	123.401116	-51.106977	-69.238608
19074	7.564878	5.046773	-3.369666	-0.000024	-0.018677	-0.001559	123.411541	-51.100346	-69.252078
19075	7.567602	5.033820	-3.391434	0.004405	-0.018218	-0.005708	123.444527	-51.097096	-69.279715
19076	7.543908	5.038829	-3.400304	0.015326	-0.014366	-0.006606	123.459178	-51.089398	-69.287322
19077	7.570173	5.067029	-3.386681	0.020868	-0.019000	-0.008038	123.499839	-51.083098	-69.315730
19078	7.604345	5.133549	-3.455725	0.020194	-0.015624	-0.004516	123.518800	-51.075996	-69.325334
19079	7.555137	5.202387	-3.423305	0.025893	-0.018163	-0.006522	123.558584	-51.070374	-69.349156
19080	7.641248	5.366332	-3.340611	0.000703	-0.019665	0.003378	123.571781	-51.065737	-69.365741
19081	7.582920	5.124866	-3.488288	-0.034831	-0.019029	0.003437	123.582025	-51.064649	-69.393242
19082	7.522727	4.971310	-3.486450	-0.023243	-0.018551	-0.000989	123.579118	-51.058265	-69.406733
19083	7.549369	4.981659	-3.400378	-0.013215	-0.020341	0.001875	123.600268	-51.053220	-69.436910
19084	7.584062	5.029793	-3.397280	0.000031	-0.016291	0.006894	123.612412	-51.051308	-69.452644
19085	7.583841	5.029236	-3.398597	0.003756	-0.015918	0.006101	123.642102	-51.050326	-69.481594
19086	7.583480	5.047322	-3.470655	-0.003123	-0.015208	0.005067	123.651079	-51.047884	-69.495601
19087	7.518298	5.029935	-3.442412	-0.005576	-0.018578	0.008004	123.680514	-51.048422	-69.527791
19088	7.522404	5.062637	-3.435017	-0.009783	-0.025231	0.010519	123.693690	-51.045377	-69.552115
19089	7.566981	5.006043	-3.450986	-0.012171	-0.021679	0.013785	123.727171	-51.047122	-69.596002
19090	7.559950	5.031710	-3.411573	-0.010327	-0.023223	0.013305	123.740017	-51.046062	-69.620312
19091	7.548182	5.042896	-3.451886	-0.011672	-0.027144	0.010835	123.766041	-51.043003	-69.659110
19092	7.523982	5.001124	-3.489313	-0.009507	-0.024501	0.009208	123.778382	-51.039556	-69.682254
19093	7.562356	5.017246	-3.436102	-0.007664	-0.026045	0.008727	123.811805	-51.037599	-69.720209
19094	7.576672	5.010661	-3.489647	-0.008777	-0.020951	0.006013	123.821191	-51.033743	-69.739008
19095	7.580740	5.043527	-3.482139	-0.007470	-0.020489	0.008319	123.850860	-51.033545	-69.769943
19096	7.556537	5.001901	-3.519274	-0.010787	-0.021499	0.007068	123.859827	-51.029995	-69.789644
19097	7.583409	5.030109	-3.504478	-0.011775	-0.017772	0.003617	123.879106	-51.027531	-69.807307
19098	7.568034	5.055018	-3.523930	-0.004572	-0.014298	0.003496	123.885931	-51.024531	-69.819592
19099	7.582737	5.030075	-3.505982	-0.008137	-0.012574	0.003723	123.897444	-51.021069	-69.836200
19100	7.548365	5.028160	-3.481575	-0.007976	-0.010480	0.003150	123.899750	-51.019073	-69.845260
19101	7.567666	5.036351	-3.454610	-0.008387	-0.009841	0.005200	123.934320	-51.022332	-69.874487
19102	7.548126	5.027995	-3.482331	-0.004661	-0.009471	0.004400	123.938552	-51.021265	-69.883468
19103	7.570942	5.022902	-3.475661	-0.004623	-0.006011	0.004566	123.951605	-51.020730	-69.899862
19104	7.555864	5.047676	-3.494652	-0.002369	-0.008195	0.002034	123.955309	-51.018911	-69.906564
19105	7.540710	5.072579	-3.513618	-0.009823	-0.008934	0.003634	123.968934	-51.017452	-69.925764
19106	7.555620	5.047821	-3.494970	-0.011219	-0.004568	0.002234	123.965347	-51.016850	-69.929704
19107	7.517024	5.012939	-3.478542	-0.013513	-0.005843	0.004601	123.974453	-51.016185	-69.940182
19108	7.559085	5.034930	-3.514798	-0.011916	-0.004656	0.005595	123.971731	-51.017105	-69.945745
19109	7.543446	4.994916	-3.491456	-0.006183	-0.003739	0.003739	123.994042	-51.018649	-69.965218
19110	7.560382	5.081011	-3.485511	-0.006430	-0.001006	0.005217	123.992205	-51.020559	-69.967840
19111	7.533324	5.052569	-3.501016	-0.007003	-0.002461	0.007838	124.004420	-51.022111	-69.978986
19112	7.553135	5.060466	-3.473377	-0.010568	-0.000736	0.008067	124.001121	-51.025433	-69.982763
19113	7.571728	5.040623	-3.545429	-0.006064	0.002096	0.012361	124.019185	-51.032112	-70.009418
19114	7.562252	5.079172	-3.484135	-0.002623	0.001737	0.012871	124.020871	-51.038529	-70.013857
19115	7.625630	5.154516	-3.463929	-0.003157	0.003742	0.015660	124.037142	-51.045971	-70.028671
19116	7.560611	5.090388	-3.462795	-0.012048	0.003914	0.015695	124.033207	-51.054407	-70.032847
19117	7.572770	5.096560	-3.493792	-0.013647	0.002728	0.014701	124.041812	-51.060612	-70.046177
19118	7.565802	5.076040	-3.480992	-0.020778	0.006182	0.015159	124.031302	-51.069508	-70.048326
19119	7.565764	5.029280	-3.508513	-0.017585	0.008553	0.017149	124.033809	-51.078172	-70.055091
19120	7.562383	4.995655	-3.515586	-0.016561	0.012831	0.012647	124.020739	-51.087980	-70.050838
19121	7.579534	5.016299	-3.466460	-0.008122	0.009834	0.014494	124.029598	-51.096279	-70.056816
19122	7.580583	5.015590	-3.465191	-0.007383	0.013384	0.011303	124.020892	-51.105605	-70.051390
19123	7.558809	5.020000	-3.470674	-0.007056	0.017573	0.010163	124.027942	-51.116818	-70.067944
19124	7.556463	5.032764	-3.448554	-0.011808	0.017479	0.007346	124.012721	-51.125616	-70.057533
19125	7.565391	5.052418	-3.458387	-0.011117	0.013020	0.012102	124.020917	-51.135257	-70.064894
19126	7.601675	5.100210	-3.452408	-0.019600	0.012561	0.010082	124.005259	-51.143784	-70.059617
19127	7.552447	5.077099	-3.473078	-0.024889	0.014472	0.010055	124.004882	-51.153912	-70.073496
19128	7.555870	4.999191	-3.449426	-0.032559	0.008189	0.012049	123.985274	-51.162018	-70.072683
19129	7.556728	4.999335	-3.447338	-0.025100	0.008920	0.010454	123.980074	-51.168167	-70.078128
19130	7.576976	5.007465	-3.418116	-0.025267	0.006826	0.011023	123.965019	-51.175340	-70.077792
19131	7.574224	5.039492	-3.466606	-0.028837	0.008558	0.011252	123.971864	-51.185395	-70.095558
19132	7.575066	5.039621	-3.464580	-0.029005	0.006464	0.011820	123.955322	-51.192868	-70.096024
19133	7.572532	5.052722	-3.442277	-0.027410	0.007648	0.012818	123.953396	-51.201730	-70.114427
19134	7.591704	5.014480	-3.442376	-0.020401	0.005552	0.013101	123.942841	-51.209545	-70.116325
19135	7.582349	5.072026	-3.450706	-0.016064	0.006276	0.017972	123.948036	-51.220913	-70.143039
19136	7.603032	5.079237	-3.421761	-0.019881	0.010739	0.019685	123.937293	-51.233548	-70.144477
19137	7.584932	5.070384	-3.447441	-0.026128	0.003547	0.023235	123.938234	-51.246862	-70.179487
19138	7.544120	5.066573	-3.479942	-0.025880	0.012564	0.023019	123.924227	-51.261705	-70.181375
19139	7.578825	5.002586	-3.460999	-0.029786	0.010108	0.024381	123.930947	-51.279721	-70.215388
19140	7.615800	5.049755	-3.454268	-0.027901	0.012021	0.024072	123.916573	-51.294944	-70.218413
19141	7.567218	5.025927	-3.474940	-0.028196	0.011293	0.025380	123.916606	-51.311322	-70.240600
19142	7.562208	5.050927	-3.431833	-0.028739	0.013294	0.028174	123.902636	-51.328927	-70.244831
19143	7.582254	5.011668	-3.431354	-0.030802	0.009291	0.029048	123.901858	-51.344798	-70.261070
19144	7.575895	4.990655	-3.417719	-0.033882	0.005569	0.026305	123.888815	-51.359051	-70.270241
19145	7.588924	4.996749	-3.447274	-0.030352	0.012120	0.027177	123.890615	-51.377057	-70.291100
19146	7.598538	5.015942	-3.456393	-0.033309	0.007035	0.023689	123.876114	-51.390579	-70.297968
19147	7.611437	5.022219	-3.486024	-0.032007	0.007484	0.025998	123.876440	-51.405694	-70.318765
19148	7.632485	5.029329	-3.456126	-0.037135	0.011507	0.025408	123.857845	-51.421491	-70.323196
19149	7.606658	5.000860	-3.469416	-0.038741	0.010331	0.024406	123.855544	-51.439932	-70.358191
19150	7.580780	4.972606	-3.482546	-0.037821	0.015987	0.020667	123.832097	-51.454983	-70.357040
19151	7.598580	4.992852	-3.431615	-0.033614	0.018057	0.026287	123.822631	-51.472009	-70.362454
19152	7.605066	5.025130	-3.419612	-0.028874	0.019244	0.020829	123.802453	-51.488177	-70.358888
19153	7.633099	5.006255	-3.429967	-0.027819	0.022419	0.024629	123.802418	-51.509723	-70.377804
19154	7.612297	5.010616	-3.433767	-0.032996	0.022987	0.023857	123.778914	-51.528563	-70.373044
19155	7.606200	4.989879	-3.419034	-0.027070	0.025983	0.021456	123.781538	-51.552395	-70.396770
19156	7.608200	4.989146	-3.415652	-0.027199	0.027349	0.022202	123.758253	-51.571921	-70.388098
19157	7.626265	5.009080	-3.364214	-0.027034	0.029447	0.021642	123.743517	-51.592810	-70.395313
19158	7.620406	5.007775	-3.419899	-0.024724	0.030724	0.019288	123.718473	-51.612059	-70.382677
19159	7.614329	4.986985	-3.405136	-0.019557	0.030156	0.020064	123.704188	-51.634125	-70.401890
19160	7.596608	4.959026	-3.358939	-0.019189	0.026065	0.017825	123.684460	-51.651247	-70.392252
19161	7.614588	4.998279	-3.378879	-0.014192	0.023399	0.019161	123.686204	-51.672258	-70.415492
19162	7.598367	5.035495	-3.374160	-0.013975	0.028958	0.018790	123.668176	-51.690826	-70.404345
19163	7.610103	4.976335	-3.362150	-0.013902	0.024134	0.017855	123.657020	-51.706325	-70.405422
19164	7.628141	5.015495	-3.382157	-0.012133	0.027405	0.018303	123.640736	-51.724172	-70.395227
19165	7.605927	4.973818	-3.416196	-0.006494	0.029663	0.017219	123.640297	-51.746293	-70.412477
19166	7.635266	5.000456	-3.397391	-0.004475	0.030205	0.016174	123.625908	-51.764079	-70.399254
19167	7.621179	4.978800	-3.442888	-0.002456	0.030748	0.015129	123.636305	-51.787956	-70.419775
19168	7.638990	4.998169	-3.392379	-0.001285	0.032553	0.018189	123.623310	-51.807540	-70.406077
19169	7.618149	5.002273	-3.396912	-0.001992	0.033580	0.013265	123.627037	-51.828268	-70.407105
19170	7.650405	4.996595	-3.327772	-0.004018	0.033041	0.014309	123.610766	-51.846211	-70.391217
19171	7.636315	4.975088	-3.373153	0.002047	0.034664	0.011178	123.619922	-51.868853	-70.401318
19172	7.641473	4.961259	-3.391068	0.004067	0.035206	0.010135	123.605476	-51.885576	-70.381890
19173	7.621709	5.011552	-3.366073	0.000615	0.035592	0.009611	123.627526	-51.912515	-70.404231
19174	7.626750	4.997944	-3.383959	0.002888	0.033405	0.007075	123.612628	-51.927343	-70.385072
19175	7.616601	4.990155	-3.349797	0.002758	0.034771	0.007822	123.623413	-51.950728	-70.402888
19176	7.614589	5.002489	-3.326911	0.009426	0.037858	0.002086	123.607762	-51.964704	-70.378100
19177	7.633935	4.963790	-3.326476	0.015366	0.040846	-0.000291	123.620009	-51.984181	-70.376349
19178	7.685410	4.985695	-3.300697	0.015015	0.036652	0.000825	123.608018	-51.997254	-70.352111
19179	7.668692	5.023272	-3.296782	0.016433	0.035729	0.002394	123.620049	-52.016419	-70.360922
19180	7.659107	5.034789	-3.333740	0.013675	0.035091	0.006791	123.610837	-52.031927	-70.341242
19181	7.649644	5.046251	-3.370563	0.010225	0.035477	0.006262	123.616697	-52.054152	-70.362709
19182	7.657437	5.000092	-3.338480	0.004148	0.033859	0.009382	123.603963	-52.070609	-70.345673
19183	7.673516	4.974064	-3.317344	0.003068	0.038981	0.006695	123.610533	-52.092240	-70.344562
19184	7.667684	4.972920	-3.373927	0.001297	0.035712	0.006242	123.593964	-52.107856	-70.324695
19185	7.646659	4.977346	-3.378633	0.009218	0.038115	0.011115	123.609000	-52.133450	-70.336947
19186	7.655683	4.976936	-3.316956	0.010206	0.035484	0.006267	123.597924	-52.149101	-70.317586
19187	7.652429	4.943241	-3.323810	0.008782	0.036410	0.004696	123.609478	-52.171928	-70.340131
19188	7.673132	4.950016	-3.293839	0.009161	0.034656	0.010928	123.600404	-52.189641	-70.324164
19189	7.705711	4.963744	-3.295564	0.003947	0.031772	0.009940	123.610953	-52.212410	-70.340691
19190	7.646334	4.979388	-3.256024	0.002612	0.027867	0.007435	123.601078	-52.226400	-70.328528
19191	7.678602	4.993403	-3.258023	0.000109	0.024499	0.010335	123.625661	-52.248731	-70.349451
19192	7.676278	5.005597	-3.235840	-0.001657	0.021228	0.009881	123.618754	-52.261881	-70.344071
19193	7.631886	5.015727	-3.248872	-0.003974	0.017613	0.003753	123.638847	-52.276397	-70.353900
19194	7.676786	4.959238	-3.262162	-0.013105	0.012284	0.004088	123.628810	-52.284015	-70.352730
19195	7.670112	4.958881	-3.319916	-0.014394	0.011843	0.001769	123.627985	-52.291445	-70.362606
19196	7.678945	4.979137	-3.329580	-0.011081	0.012823	0.003052	123.618439	-52.298769	-70.360579
19197	7.718763	5.014127	-3.343134	-0.014396	0.011844	0.001769	123.637770	-52.312714	-70.388405
19198	7.646514	4.997520	-3.372460	-0.019392	0.014523	0.000405	123.621628	-52.319406	-70.383997
19199	7.664964	4.959907	-3.372232	-0.017367	0.015063	-0.000630	123.616421	-52.326683	-70.391360
19200	7.694319	4.909731	-3.332976	-0.012422	0.020680	0.001858	123.601145	-52.336047	-70.382995
19201	7.636456	4.991722	-3.334699	-0.000870	0.022450	-0.001744	123.590227	-52.341008	-70.366522
19202	7.659714	4.986717	-3.325563	-0.006080	0.019566	-0.002740	123.577368	-52.347810	-70.356594
19203	7.671056	4.974706	-3.284627	-0.004146	0.024938	-0.002839	123.586947	-52.361446	-70.364693
19204	7.699099	5.002667	-3.266049	-0.008547	0.019661	0.000344	123.574116	-52.369819	-70.356533
19205	7.689015	5.015515	-3.302833	-0.017163	0.020630	-0.001005	123.575008	-52.381602	-70.364630
19206	7.646769	4.994272	-3.264869	-0.019325	0.021458	0.000776	123.555254	-52.390806	-70.355485
19207	7.646408	4.948860	-3.292124	-0.012302	0.019318	0.001109	123.548084	-52.401277	-70.375389
19208	7.651691	4.982260	-3.280870	-0.013457	0.017513	-0.001958	123.533045	-52.407963	-70.368047
19209	7.678469	4.964571	-3.291977	-0.010011	0.017126	-0.001417	123.529417	-52.416125	-70.376144
19210	7.671748	4.990746	-3.249323	-0.010451	0.017759	0.000633	123.517095	-52.424162	-70.370085
19211	7.684298	4.998186	-3.279086	-0.006395	0.018838	-0.001432	123.527077	-52.436074	-70.385051
19212	7.653856	4.983663	-3.273682	-0.005150	0.015812	0.000698	123.519224	-52.443586	-70.380765
19213	7.685459	4.998486	-3.275908	-0.007313	0.016638	0.002477	123.518809	-52.453295	-70.390938
19214	7.686087	4.998498	-3.274417	-0.007657	0.012439	0.003589	123.512885	-52.461155	-70.390919
19215	7.667767	4.990959	-3.300549	-0.012924	0.017854	0.003714	123.501438	-52.469459	-70.392430
19216	7.663678	4.958198	-3.308126	-0.006914	0.012541	0.000237	123.494508	-52.475762	-70.390641
19217	7.671025	4.958960	-3.247416	-0.008198	0.012103	-0.002085	123.505612	-52.483929	-70.403020
19218	7.679747	4.979338	-3.257184	-0.006744	0.014641	-0.000319	123.497424	-52.490677	-70.399460
19219	7.684828	5.012563	-3.246559	-0.008505	0.011370	-0.000782	123.495853	-52.495658	-70.405032
19220	7.680399	4.980127	-3.254439	-0.015437	0.008681	-0.002061	123.485730	-52.499705	-70.405309
19221	7.688942	5.000868	-3.264077	-0.019191	0.008336	-0.001301	123.466497	-52.499401	-70.401535
19222	7.653496	4.953900	-3.267984	-0.017297	0.010242	-0.001585	123.454463	-52.504151	-70.400772
19223	7.665698	4.961776	-3.298065	-0.015305	0.007316	-0.002808	123.458294	-52.508982	-70.413425
19224	7.683734	4.924210	-3.298753	-0.011724	0.005562	-0.003012	123.451905	-52.511604	-70.415717
19225	7.684752	4.970696	-3.267985	-0.009217	0.008937	-0.005900	123.458404	-52.514109	-70.409151
19226	7.670492	4.996801	-3.285341	-0.013278	0.007857	-0.003839	123.449499	-52.517080	-70.409284
19227	7.670555	4.997634	-3.283928	-0.014525	0.010887	-0.005967	123.450977	-52.521742	-70.418725
19228	7.701564	5.013325	-3.286171	-0.016593	0.006880	-0.005131	123.440377	-52.523821	-70.419084
19229	7.715940	4.988893	-3.265987	-0.020447	0.011367	-0.003431	123.423635	-52.523573	-70.403208
19230	7.685109	4.975055	-3.260506	-0.018589	0.009807	-0.003907	123.410557	-52.527141	-70.401832
19231	7.685197	4.976013	-3.258837	-0.016254	0.011084	-0.006238	123.405031	-52.530057	-70.408275
19232	7.693583	4.996971	-3.268511	-0.015178	0.005953	-0.003558	123.396523	-52.532596	-70.410185
19233	7.655109	5.008738	-3.222894	-0.016803	0.001315	-0.004774	123.405999	-52.533989	-70.418493
19234	7.651309	5.022318	-3.201560	-0.011901	0.003463	-0.002459	123.401522	-52.536290	-70.423019
19235	7.639060	5.015812	-3.169357	-0.014980	-0.003710	-0.005447	123.406048	-52.534403	-70.437105
19236	7.662757	5.031166	-3.232007	-0.017182	-0.006352	-0.003865	123.404161	-52.532951	-70.448679
19237	7.697159	5.033955	-3.255469	-0.021039	-0.001867	-0.002162	123.396919	-52.530376	-70.450077
19238	7.688626	5.014666	-3.243589	-0.019486	-0.004163	-0.001337	123.393393	-52.530818	-70.461221
19239	7.668504	4.962127	-3.300680	-0.015731	-0.003815	-0.002095	123.395230	-52.529408	-70.473392
19240	7.691145	4.957129	-3.292793	-0.006058	0.001841	0.003286	123.397591	-52.533960	-70.482239
19241	7.673364	4.995451	-3.290210	-0.012959	0.002621	0.002197	123.404697	-52.535987	-70.477246
19242	7.692522	5.003055	-3.261693	-0.006058	0.001841	0.003286	123.407155	-52.540536	-70.486094
19243	7.674810	5.041201	-3.259212	-0.012153	0.000217	0.006373	123.416773	-52.546287	-70.508784
19244	7.688452	4.970139	-3.269705	-0.019054	0.000997	0.005285	123.413224	-52.551547	-70.519428
19245	7.685030	4.983184	-3.248254	-0.020952	-0.000909	0.005564	123.400204	-52.550838	-70.518586
19246	7.688872	4.970692	-3.267877	-0.018650	-0.003096	0.003035	123.398456	-52.553711	-70.531207
19247	7.691263	4.938209	-3.217171	-0.011543	0.001691	0.003771	123.403063	-52.556835	-70.540506
19248	7.666611	4.976353	-3.273891	-0.015472	-0.000757	0.005079	123.402571	-52.561428	-70.552377
19249	7.690291	5.016935	-3.236123	-0.014931	-0.006215	0.002078	123.406755	-52.561951	-70.576617
19250	7.689197	4.971682	-3.265604	-0.014148	-0.002639	-0.001074	123.405693	-52.563019	-70.586832
19251	7.682160	4.972177	-3.324327	-0.017429	-0.000146	-0.002168	123.417989	-52.567610	-70.619654
19252	7.657930	4.958238	-3.260586	-0.013843	-0.001901	-0.002375	123.416250	-52.568331	-70.628782
19253	7.719747	4.988400	-3.267327	-0.009914	0.000547	-0.003682	123.412518	-52.566322	-70.633871
19254	7.674415	4.999569	-3.281491	-0.012524	0.001996	0.000149	123.410136	-52.569477	-70.641239
19255	7.693323	5.007666	-3.252716	-0.018852	0.000788	-0.003741	123.412402	-52.570369	-70.655793
19256	7.665811	4.981121	-3.268511	-0.022170	-0.000184	-0.005036	123.403794	-52.570373	-70.662255
19257	7.669352	4.969389	-3.287762	-0.020545	0.004451	-0.003811	123.396938	-52.570806	-70.668150
19258	7.707035	4.985252	-3.230975	-0.014519	-0.000854	-0.007301	123.392232	-52.569521	-70.673992
19259	7.673446	5.004267	-3.276592	-0.010725	0.002958	-0.007855	123.377128	-52.564439	-70.669601
19260	7.706416	4.987150	-3.229523	-0.011031	0.002220	-0.006555	123.372739	-52.564464	-70.673354
19261	7.695600	5.000681	-3.267663	-0.011168	0.003585	-0.005803	123.371033	-52.564590	-70.686295
19262	7.672721	5.006834	-3.274368	-0.011203	0.000119	-0.006006	123.368117	-52.564227	-70.692043
19263	7.664211	4.987380	-3.262712	-0.008157	0.003819	-0.003208	123.367386	-52.565312	-70.705454
19264	7.656595	5.013507	-3.221289	-0.005581	-0.001093	-0.007243	123.367960	-52.563986	-70.711560
19265	7.686341	4.983288	-3.254620	-0.008362	-0.001749	-0.002863	123.359619	-52.559025	-70.706018
19266	7.725492	5.018685	-3.268937	-0.006466	0.000157	-0.003139	123.360536	-52.560035	-70.713192
19267	7.649116	5.015046	-3.279616	-0.012088	0.001369	-0.001902	123.357877	-52.559305	-70.717024
19268	7.701778	4.979394	-3.305100	-0.012395	0.000631	-0.000602	123.356158	-52.561676	-70.725141
19269	7.701780	4.979796	-3.304489	-0.006738	0.002885	-0.001635	123.374918	-52.567490	-70.754788
19270	7.689779	4.972693	-3.272453	-0.003114	0.004596	-0.001639	123.375754	-52.570650	-70.759401
19271	7.671844	5.011150	-3.269817	-0.000910	0.007242	-0.003215	123.361935	-52.568168	-70.750581
19272	7.690800	5.018805	-3.241496	0.000782	0.003580	-0.003148	123.364929	-52.570264	-70.755135
19273	7.654673	5.095747	-3.236754	-0.008968	0.006232	-0.007379	123.376437	-52.573049	-70.770305
19274	7.684609	5.065820	-3.269258	-0.016795	0.004798	-0.004567	123.368143	-52.574877	-70.773280
19275	7.683675	5.021085	-3.297949	-0.018966	0.005618	-0.002787	123.356577	-52.576809	-70.790991
19276	7.698008	4.996459	-3.278191	-0.016934	0.006162	-0.003815	123.347654	-52.579438	-70.793334
19277	7.705535	4.971830	-3.317715	-0.015004	0.011535	-0.003884	123.334275	-52.579224	-70.778889
19278	7.644611	4.988644	-3.278953	-0.010632	0.013363	-0.007239	123.323041	-52.582466	-70.773736
19279	7.687817	5.011633	-3.312493	-0.009654	0.013052	-0.003615	123.306258	-52.580793	-70.747831
19280	7.658068	5.042928	-3.277309	-0.005997	0.018230	-0.003411	123.296161	-52.587368	-70.740723
19281	7.669061	5.030499	-3.236899	-0.006950	0.012545	0.000281	123.287757	-52.590540	-70.736934
19282	7.692174	5.025440	-3.227928	-0.010373	0.016403	-0.000057	123.277662	-52.598139	-70.732985
19283	7.692676	5.025799	-3.226170	-0.012271	0.014496	0.000216	123.260661	-52.601068	-70.725581
19284	7.684759	5.006130	-3.213425	-0.015590	0.013525	-0.001082	123.248917	-52.607260	-70.723335
19285	7.676754	4.986550	-3.200748	-0.013726	0.011966	-0.001562	123.220363	-52.609114	-70.733268
19286	7.653619	4.946662	-3.236834	-0.005226	0.012350	0.000556	123.215851	-52.615717	-70.732782
19287	7.648781	5.038138	-3.235163	0.001596	0.010634	-0.006081	123.199921	-52.612329	-70.715469
19288	7.685721	5.007822	-3.208485	-0.005791	0.008574	-0.005329	123.194956	-52.614901	-70.714837
19289	7.682740	4.995836	-3.287309	-0.005454	0.012781	-0.006420	123.186871	-52.613645	-70.694287
19290	7.652612	5.027332	-3.252540	-0.006906	0.010250	-0.008200	123.179043	-52.615350	-70.690799
19291	7.683556	5.042987	-3.254858	-0.007045	0.011614	-0.007447	123.162730	-52.615436	-70.695902
19292	7.701581	5.005648	-3.255703	-0.006739	0.012355	-0.008745	123.153411	-52.617539	-70.690486
19293	7.683629	5.044568	-3.252235	-0.003699	0.016053	-0.005938	123.131322	-52.615194	-70.662997
19294	7.648175	4.997515	-3.257062	0.000647	0.014417	-0.009495	123.124555	-52.617552	-70.655463
19295	7.684013	5.045669	-3.249619	-0.000799	0.021115	-0.002377	123.115187	-52.620598	-70.630666
19296	7.684463	5.045880	-3.248226	0.003072	0.016635	-0.004089	123.110631	-52.626226	-70.624113
19297	7.653817	5.031253	-3.243627	0.003071	0.016635	-0.004089	123.103070	-52.625316	-70.591132
19298	7.654226	5.031427	-3.242392	-0.001138	0.016908	-0.001287	123.097064	-52.632345	-70.585713
19299	7.690384	5.079083	-3.234919	-0.000303	0.017958	0.003092	123.075281	-52.634451	-70.561275
19300	7.672397	5.071469	-3.261277	-0.010311	0.017336	0.007666	123.067309	-52.645880	-70.560015
19301	7.668900	5.038295	-3.268825	-0.014662	0.018973	0.011221	123.053908	-52.655785	-70.555135
19302	7.666243	5.050668	-3.246128	-0.016252	0.017806	0.010192	123.043251	-52.668566	-70.554777
19303	7.666772	5.004641	-3.273908	-0.015700	0.021582	0.016079	123.039853	-52.684312	-70.560976
19304	7.672818	5.036798	-3.261930	-0.015563	0.020220	0.015325	123.030217	-52.700320	-70.561393
19305	7.670642	5.048481	-3.239130	-0.011725	0.021499	0.022307	123.025812	-52.717374	-70.565938
19306	7.699634	5.074730	-3.219712	-0.013148	0.022438	0.020734	123.018388	-52.736671	-70.567390
19307	7.699699	5.052972	-3.147161	-0.010929	0.019081	0.026478	123.023223	-52.756809	-70.585260
19308	7.686667	5.031302	-3.193600	-0.010763	0.021187	0.025934	123.020141	-52.778223	-70.590445
19309	7.712073	5.069678	-3.153908	-0.007620	0.020053	0.027784	123.010401	-52.794707	-70.585900
19310	7.687696	5.085941	-3.138822	-0.012807	0.020647	0.026955	123.006857	-52.816426	-70.591982
19311	7.742597	5.048025	-3.162601	-0.019714	0.015432	0.033159	123.008597	-52.836142	-70.600071
19312	7.709019	4.998600	-3.166699	-0.018959	0.015552	0.029810	123.005970	-52.857636	-70.611682
19313	7.683686	4.969396	-3.182059	-0.013668	0.010127	0.029674	123.010102	-52.872723	-70.613996
19314	7.704315	4.974732	-3.152552	-0.008146	0.013742	0.029418	123.014684	-52.893449	-70.626822
19315	7.695796	4.985649	-3.190205	-0.004102	0.011359	0.027165	123.021245	-52.907383	-70.624973
19316	7.671102	5.001652	-3.176396	0.002948	0.009200	0.027518	123.034307	-52.925760	-70.640409
19317	7.689710	5.039725	-3.197629	0.000734	0.006555	0.029082	123.039385	-52.939262	-70.652541
19318	7.700940	4.979014	-3.188153	-0.003455	0.010305	0.032089	123.049946	-52.960162	-70.669445
19319	7.692476	4.989567	-3.226354	-0.001624	0.005275	0.031400	123.071822	-52.976000	-70.683257
19320	7.677333	4.946779	-3.204088	-0.000490	0.007062	0.034484	123.087227	-52.997025	-70.704028
19321	7.732832	4.953351	-3.199524	0.003241	0.003935	0.033529	123.093682	-53.010703	-70.711726
19322	7.730760	4.963397	-3.178929	0.009671	0.006296	0.029171	123.113158	-53.028912	-70.730306
19323	7.736088	4.948292	-3.199480	0.008533	0.004511	0.026088	123.140324	-53.042283	-70.742407
19324	7.733676	4.958793	-3.179022	0.007255	0.004089	0.023759	123.157659	-53.057192	-70.759975
19325	7.712321	4.962448	-3.186470	-0.001105	0.002368	0.020863	123.164661	-53.067286	-70.777775
19326	7.735797	4.955697	-3.178688	-0.007146	-0.001542	0.015438	123.173863	-53.076431	-70.795515
19327	7.744119	4.929307	-3.219450	-0.011543	-0.003358	0.018776	123.175715	-53.083585	-70.819831
19328	7.732428	4.921166	-3.187642	-0.008895	0.001199	0.007641	123.178888	-53.089846	-70.831318
19329	7.767667	4.922566	-3.211439	-0.000783	-0.006123	0.010657	123.187323	-53.089467	-70.830702
19330	7.723863	4.978381	-3.196588	-0.003749	-0.002875	0.008262	123.196286	-53.094725	-70.845705
19331	7.696804	4.950513	-3.214003	0.001885	-0.004105	0.007042	123.220734	-53.098229	-70.873596
19332	7.754575	4.946198	-3.230655	0.004924	-0.000417	0.009860	123.233849	-53.105026	-70.887540
19333	7.723957	4.930638	-3.227604	0.008868	0.002023	0.008574	123.251281	-53.108515	-70.893407
19334	7.722859	4.962670	-3.277519	0.008452	0.006116	0.010838	123.262697	-53.117822	-70.902652
19335	7.724370	4.882812	-3.257906	0.011139	0.005596	0.014742	123.261472	-53.123074	-70.902116
19336	7.713963	4.919386	-3.196503	0.013179	0.006133	0.013722	123.276721	-53.133747	-70.912794
19337	7.749885	4.919767	-3.220168	0.011073	0.013898	0.015918	123.280920	-53.142948	-70.905533
19338	7.724574	4.936501	-3.207035	0.011588	0.004972	0.012691	123.295553	-53.152745	-70.916563
19339	7.731867	4.934858	-3.147765	0.013175	0.006134	0.013723	123.318715	-53.159667	-70.918355
19340	7.722507	4.946380	-3.186785	0.009721	0.006540	0.013167	123.331539	-53.170172	-70.928389
19341	7.749592	4.926961	-3.199720	0.006543	0.004217	0.011104	123.326012	-53.174837	-70.931971
19342	7.736155	4.951851	-3.217976	-0.001184	0.003981	0.005611	123.330970	-53.180907	-70.940047
19343	7.758124	4.900285	-3.240242	-0.002129	0.001763	0.009504	123.327088	-53.183860	-70.948184
19344	7.736963	4.950971	-3.217388	-0.002003	0.002933	0.001230	123.330353	-53.187491	-70.954761
19345	7.739876	4.892761	-3.267544	-0.001650	0.007140	0.000142	123.311030	-53.186843	-70.946572
19346	7.728684	4.931066	-3.205494	0.001299	0.006425	-0.004981	123.311245	-53.188584	-70.947034
19347	7.751222	4.925791	-3.197572	0.006656	0.007920	-0.004690	123.320857	-53.188296	-70.946757
19348	7.724956	4.944046	-3.184470	0.009793	0.006775	-0.002836	123.326659	-53.191171	-70.948081
19349	7.747601	4.938415	-3.176836	0.011696	0.008676	-0.003102	123.335683	-53.191399	-70.944603
19350	7.711193	4.969386	-3.202849	0.015463	0.009010	-0.003843	123.342906	-53.194489	-70.943613
19351	7.717712	4.968875	-3.143661	0.014479	0.003325	-0.000159	123.331695	-53.191915	-70.940787
19352	7.748789	4.983168	-3.147541	0.017428	0.002609	-0.005281	123.343422	-53.192283	-70.944081
19353	7.729986	4.975654	-3.176179	0.018422	0.005763	-0.001445	123.347042	-53.191165	-70.940900
19354	7.725229	4.942276	-3.186554	0.021659	-0.000214	-0.000551	123.364954	-53.192894	-70.948903
19355	7.733789	4.961675	-3.198564	0.021342	-0.000952	0.000747	123.370202	-53.190022	-70.949587
19356	7.702664	4.946320	-3.196451	0.025108	-0.000618	0.000006	123.390522	-53.191873	-70.958155
19357	7.737487	4.947355	-3.221689	0.029011	-0.001649	-0.001488	123.402265	-53.191283	-70.979504
19358	7.763798	4.928034	-3.236256	0.035319	-0.000464	0.002430	123.429313	-53.194342	-70.989248
19359	7.737517	4.945002	-3.225227	0.033552	-0.003729	0.001946	123.449620	-53.190399	-70.981602
19360	7.732823	4.910776	-3.236641	0.036583	-0.000035	0.004760	123.478073	-53.194683	-70.992176
19361	7.706632	4.927688	-3.225508	0.035938	0.001015	-0.000167	123.501453	-53.191735	-70.977039
19362	7.737755	4.941097	-3.230635	0.035758	-0.001087	0.000380	123.528253	-53.193572	-70.986101
19363	7.736716	4.894348	-3.262342	0.036245	0.001755	-0.001466	123.544264	-53.192237	-70.989577
19364	7.736680	4.893260	-3.264057	0.036065	-0.000347	-0.000918	123.570184	-53.193678	-70.997352
19365	7.729089	4.917742	-3.224928	0.034022	-0.000880	0.000103	123.601068	-53.192399	-71.000362
19366	7.722654	4.916546	-3.286128	0.037958	0.001558	-0.001187	123.626777	-53.194306	-71.006486
19367	7.737510	4.935758	-3.239371	0.035413	0.000700	-0.005845	123.654713	-53.192617	-71.025071
19368	7.722399	4.914671	-3.289530	0.035912	0.001027	-0.000167	123.680054	-53.194842	-71.032205
19369	7.702462	4.931975	-3.219023	0.038085	0.000196	-0.001937	123.700572	-53.192462	-71.038957
19370	7.723318	4.958176	-3.263205	0.028344	-0.003108	0.001117	123.724735	-53.193973	-71.050050
19371	7.747437	4.919107	-3.207047	0.027109	-0.000068	-0.001012	123.736355	-53.188530	-71.030235
19372	7.736107	4.885357	-3.277228	0.025837	-0.000499	-0.003341	123.755485	-53.188719	-71.036806
19373	7.753094	4.924740	-3.300641	0.027243	-0.001434	-0.001761	123.767080	-53.185424	-71.043988
19374	7.740664	4.916728	-3.270654	0.032762	0.002171	-0.002026	123.788998	-53.187078	-71.049109
19375	7.714211	4.934378	-3.259168	0.024422	0.000438	-0.004920	123.788171	-53.181834	-71.039998
19376	7.744160	4.902651	-3.293544	0.029625	0.003308	-0.003886	123.806696	-53.182949	-71.043172
19377	7.722606	4.953076	-3.272622	0.030892	0.003742	-0.001557	123.815095	-53.180353	-71.035901
19378	7.722595	4.952304	-3.273815	0.023649	0.000339	-0.001570	123.833020	-53.181608	-71.042620
19379	7.736563	4.926226	-3.256101	0.021962	0.004009	-0.001654	123.843072	-53.178886	-71.038883
19380	7.731242	4.971048	-3.286602	0.019610	0.002741	0.000668	123.858093	-53.181955	-71.044848
19381	7.736857	4.924890	-3.257423	0.011639	0.002707	0.004200	123.881672	-53.186145	-71.071403
19382	7.695792	4.922235	-3.293461	0.016025	0.004509	0.000857	123.893659	-53.189872	-71.076131
19383	7.706110	4.909102	-3.254960	0.015988	0.001039	0.000663	123.899865	-53.186749	-71.069777
19384	7.747594	4.910335	-3.220085	0.020561	0.002444	0.004298	123.917201	-53.191433	-71.077931
19385	7.711288	4.940271	-3.247353	0.020837	-0.000292	0.002803	123.923047	-53.189783	-71.079646
19386	7.723811	4.946477	-3.279749	0.018975	0.001276	0.003271	123.939726	-53.193591	-71.088138
19387	7.707867	4.951448	-3.228762	0.015041	-0.001159	0.004567	123.963611	-53.195416	-71.106417
19388	7.752102	4.893970	-3.243962	0.011422	-0.002861	0.004562	123.979185	-53.198509	-71.118920
19389	7.738214	4.918818	-3.263369	0.006396	-0.003632	0.002975	123.984073	-53.196705	-71.127808
19390	7.719535	4.910866	-3.291879	0.004221	-0.002797	0.004744	123.995530	-53.199893	-71.140339
19391	7.723564	4.897328	-3.312581	0.007563	0.001643	0.006242	124.000077	-53.197674	-71.123018
19392	7.737904	4.871162	-3.294072	0.005526	0.001110	0.007264	124.010856	-53.203284	-71.133724
19393	7.765696	4.897765	-3.277391	0.012763	0.004515	0.007273	124.015890	-53.206915	-71.145715
19394	7.747366	4.889321	-3.305797	0.008792	-0.001390	0.008378	124.030580	-53.212244	-71.158998
19395	7.695185	4.924995	-3.280868	0.011957	0.000949	0.010431	124.044480	-53.214999	-71.162949
19396	7.714513	4.931280	-3.253356	0.009921	0.000417	0.011453	124.059990	-53.222352	-71.176435
19397	7.749937	4.931852	-3.277490	0.003174	-0.000154	0.009587	124.062140	-53.221525	-71.164936
19398	7.723090	4.903415	-3.294648	0.004265	-0.001818	0.012470	124.076233	-53.228618	-71.180672
19399	7.727334	4.889707	-3.315046	-0.003395	0.001378	0.007166	124.094214	-53.229918	-71.181716
19400	7.754142	4.870740	-3.327454	-0.002266	0.003184	0.010240	124.100497	-53.237544	-71.192304
19401	7.751010	4.882857	-3.306809	0.003074	0.004685	0.010524	124.109865	-53.241324	-71.193556
19402	7.747838	4.895000	-3.286220	-0.002129	0.001816	0.009493	124.116788	-53.248142	-71.204818
19403	7.752254	4.881216	-3.306314	-0.001315	0.002889	0.013869	124.128123	-53.254053	-71.220546
19404	7.749275	4.893217	-3.285488	-0.004580	0.005391	0.012754	124.132796	-53.263558	-71.230737
19405	7.749984	4.892550	-3.284810	-0.009467	0.003255	0.010421	124.146003	-53.267984	-71.243545
19406	7.710874	4.857522	-3.269572	-0.005848	0.004955	0.010426	124.149283	-53.276237	-71.252857
19407	7.760219	4.833186	-3.274113	-0.000868	0.004744	0.004287	124.155953	-53.278383	-71.260571
19408	7.755295	4.878291	-3.303500	-0.002905	0.004213	0.005309	124.159204	-53.283964	-71.267730
19409	7.755732	4.877885	-3.303073	-0.003536	0.002749	0.007912	124.177460	-53.288981	-71.291844
19410	7.756246	4.877401	-3.302581	-0.005396	0.004319	0.008378	124.180609	-53.296050	-71.300628
19411	7.765479	4.896891	-3.312936	-0.005356	0.007789	0.008569	124.179385	-53.301565	-71.316367
19412	7.716304	4.874396	-3.336605	-0.005811	0.008426	0.010617	124.180648	-53.311014	-71.323108
19413	7.727190	4.861350	-3.296533	-0.009115	0.007459	0.009310	124.180102	-53.316640	-71.338256
19414	7.740372	4.867842	-3.326946	-0.005950	0.009795	0.011364	124.180744	-53.326878	-71.344324
19415	7.711450	4.820430	-3.272248	-0.004230	0.012087	0.004111	124.182877	-53.332437	-71.358447
19416	7.743192	4.834743	-3.274534	-0.008168	0.009657	0.005406	124.179788	-53.339805	-71.361444
19417	7.733658	4.847259	-3.312293	-0.007178	0.015324	0.001694	124.171154	-53.345580	-71.373679
19418	7.761534	4.874825	-3.293947	-0.004865	0.013117	-0.000820	124.165060	-53.351110	-71.370595
19419	7.793098	4.889560	-3.296021	-0.008624	0.012788	-0.000080	124.158666	-53.354090	-71.372065
19420	7.762336	4.875418	-3.291179	-0.008308	0.013521	-0.001381	124.150105	-53.359479	-71.368366
19421	7.731473	4.861373	-3.286441	-0.008031	0.010783	-0.002875	124.150960	-53.361442	-71.375144
19422	7.727918	4.874936	-3.264574	-0.010801	0.016122	-0.005847	124.137416	-53.365549	-71.367005
19423	7.732990	4.908549	-3.253664	-0.011475	0.011186	-0.003438	124.134529	-53.365931	-71.360280
19424	7.773262	4.865447	-3.246247	-0.012602	0.009383	-0.006514	124.123993	-53.367547	-71.357148
19425	7.738193	4.864857	-3.221296	-0.014224	0.004745	-0.007736	124.101043	-53.361890	-71.352333
19426	7.754235	4.860052	-3.272007	-0.008388	0.009077	-0.009300	124.091859	-53.362070	-71.347899
19427	7.745004	4.919439	-3.280345	-0.008250	0.007709	-0.010047	124.084276	-53.357469	-71.337014
19428	7.732288	4.913351	-3.248080	-0.004668	0.005937	-0.010231	124.078833	-53.356189	-71.334570
19429	7.762124	4.883024	-3.280386	-0.004491	0.008040	-0.010784	124.052739	-53.349504	-71.317058
19430	7.751748	4.896610	-3.318696	-0.004352	0.006671	-0.011532	124.046375	-53.347824	-71.313272
19431	7.752585	4.943225	-3.288176	-0.003684	0.009110	-0.006406	124.053404	-53.345596	-71.308123
19432	7.735176	4.903940	-3.265381	-0.003264	0.005004	-0.008649	124.050023	-53.344742	-71.307228
19433	7.731165	4.917501	-3.244472	-0.002000	0.005438	-0.006319	124.054331	-53.342349	-71.310845
19434	7.730019	4.872237	-3.273748	0.001760	0.005769	-0.007056	124.054055	-53.342492	-71.310217
19435	7.744721	4.893021	-3.225027	0.001583	0.003667	-0.006503	124.045797	-53.337508	-71.302348
19436	7.734460	4.906008	-3.263970	0.003305	0.003466	-0.006221	124.048201	-53.337296	-71.303970
19437	7.713206	4.879245	-3.221436	0.002988	0.002733	-0.004920	124.047474	-53.334042	-71.308541
19438	7.744166	4.893935	-3.224973	0.006078	-0.001873	-0.003250	124.056139	-53.333520	-71.315999
19439	7.733745	4.906793	-3.264486	-0.000388	-0.005176	-0.006620	124.051949	-53.322204	-71.289829
19440	7.765885	4.889176	-3.218123	0.002915	-0.004209	-0.005309	124.059365	-53.319929	-71.297960
19441	7.746738	4.882183	-3.246607	-0.004324	-0.007610	-0.005330	124.067149	-53.311077	-71.292656
19442	7.758645	4.889809	-3.278508	0.001474	-0.006745	-0.007086	124.074597	-53.307128	-71.301822
19443	7.758115	4.890323	-3.278997	-0.000388	-0.005176	-0.006620	124.057880	-53.297963	-71.292528
19444	7.735065	4.896365	-3.287070	0.001965	-0.003909	-0.008939	124.062920	-53.294028	-71.298377
19445	7.738318	4.884198	-3.307696	0.000735	-0.000873	-0.011075	124.050806	-53.285859	-71.296682
19446	7.760311	4.879544	-3.300061	0.000595	0.000496	-0.010328	124.051609	-53.282668	-71.298256
19447	7.724840	4.878701	-3.276344	-0.001303	-0.001406	-0.010056	124.037358	-53.272448	-71.273647
19448	7.777872	4.888806	-3.271984	-0.003975	-0.000907	-0.013968	124.034815	-53.267060	-71.274320
19449	7.727413	4.867978	-3.296444	-0.004256	0.001830	-0.012473	124.034591	-53.258194	-71.262055
19450	7.762770	4.916532	-3.290117	-0.004257	0.001831	-0.012473	124.030803	-53.254380	-71.261344
19451	7.765975	4.904875	-3.310126	-0.009457	-0.001040	-0.013513	124.024449	-53.243977	-71.256147
19452	7.752791	4.899215	-3.278316	-0.006790	0.000962	-0.017133	124.017762	-53.237658	-71.253610
19453	7.729550	4.906187	-3.285397	-0.010832	0.003365	-0.014901	123.990332	-53.225610	-71.220304
19454	7.724157	4.874742	-3.294080	-0.009285	0.001063	-0.014066	123.983406	-53.220756	-71.219254
19455	7.728263	4.909117	-3.284049	-0.006585	0.006537	-0.017490	123.982386	-53.210581	-71.191447
19456	7.713816	4.935986	-3.301830	-0.009535	0.007271	-0.012376	123.972135	-53.208503	-71.186371
19457	7.754678	4.939120	-3.265219	-0.008617	0.003500	-0.008941	123.952838	-53.199629	-71.163101
19458	7.723233	4.925544	-3.261131	-0.010340	0.003699	-0.009222	123.945697	-53.197883	-71.162478
19459	7.719009	4.939492	-3.240007	-0.010200	0.002332	-0.009970	123.938488	-53.188879	-71.131740
19460	7.696055	4.946034	-3.247003	-0.014134	-0.000107	-0.008682	123.931822	-53.186155	-71.134390
19461	7.714259	4.954626	-3.218298	-0.013993	-0.001475	-0.009430	123.917557	-53.176410	-71.112144
19462	7.721447	4.930118	-3.258449	-0.015717	-0.001275	-0.009712	123.910258	-53.172805	-71.115125
19463	7.702394	4.923656	-3.285940	-0.015710	-0.003782	-0.002181	123.897698	-53.165884	-71.110950
19464	7.733271	4.939011	-3.288691	-0.015223	-0.000943	-0.004033	123.892859	-53.165069	-71.116647
19465	7.702021	4.924956	-3.284866	-0.013037	-0.004282	0.001730	123.886476	-53.158695	-71.096013
19466	7.733090	4.939917	-3.287755	-0.014587	-0.001980	0.000897	123.884735	-53.159873	-71.105100
19467	7.732303	4.894457	-3.316946	-0.013462	-0.000179	0.003976	123.880178	-53.156617	-71.104550
19468	7.724813	4.920265	-3.275470	-0.011566	0.001725	0.003707	123.879001	-53.160296	-71.112154
19469	7.730413	4.874850	-3.245134	-0.009528	0.002261	0.002689	123.871700	-53.156257	-71.084504
19470	7.734269	4.862371	-3.264985	-0.007845	0.001101	-0.004757	123.869421	-53.155690	-71.088038
19471	7.724075	4.875431	-3.303643	-0.007208	0.000062	0.000173	123.850057	-53.149659	-71.065816
19472	7.742154	4.961559	-3.295193	-0.006373	0.007108	-0.002778	123.845577	-53.151928	-71.065550
19473	7.756130	4.936568	-3.275745	-0.012063	0.001396	-0.001972	123.829237	-53.144111	-71.015110
19474	7.732574	4.897080	-3.312441	-0.014425	0.002636	-0.007183	123.821063	-53.142831	-71.015964
19475	7.754902	4.892671	-3.303723	-0.014394	0.006107	-0.006984	123.806430	-53.133463	-70.978129
19476	7.744719	4.906263	-3.341605	-0.008878	0.009715	-0.007239	123.796901	-53.134384	-70.973264
19477	7.718387	4.925308	-3.327571	-0.005227	0.014891	-0.007026	123.766123	-53.128289	-70.927651
19478	7.718707	4.925776	-3.326137	-0.002836	0.017122	-0.001615	123.757667	-53.134218	-70.919786
19479	7.699004	4.944452	-3.252420	-0.004560	0.017322	-0.001897	123.744908	-53.134727	-70.900306
19480	7.734412	4.946573	-3.274610	-0.004419	0.015955	-0.002646	123.735834	-53.139776	-70.892790
19481	7.722492	4.939526	-3.241681	-0.003438	0.019121	0.001184	123.706488	-53.139913	-70.849621
19482	7.714515	4.919616	-3.229053	-0.008640	0.016249	0.000136	123.695910	-53.146356	-70.843246
19483	7.709683	4.965356	-3.257126	-0.003155	0.016387	-0.000315	123.680766	-53.146229	-70.808046
19484	7.691588	4.958052	-3.283839	-0.003471	0.015651	0.000984	123.673859	-53.152866	-70.802543
19485	7.694356	4.970986	-3.202801	-0.000054	0.011781	0.001350	123.642402	-53.152331	-70.757691
19486	7.715164	4.952465	-3.273887	-0.004103	0.014178	0.003582	123.637062	-53.159720	-70.754630
19487	7.734431	4.959539	-3.244715	-0.003356	0.008298	0.007562	123.634715	-53.158930	-70.734600
19488	7.739118	4.946232	-3.263988	-0.011312	0.011726	0.011276	123.630053	-53.169187	-70.737505
19489	7.717430	4.951322	-3.270273	-0.016370	0.007487	0.009476	123.613089	-53.172461	-70.732675
19490	7.731365	4.879691	-3.280217	-0.010079	0.008686	0.013408	123.611933	-53.182759	-70.739084
19491	7.728452	4.891729	-3.258632	-0.008499	0.009854	0.014441	123.601674	-53.188311	-70.730016
19492	7.710849	4.883539	-3.285617	-0.006460	0.010390	0.013426	123.601478	-53.199144	-70.735032
19493	7.712704	4.928298	-3.254648	-0.007094	0.008917	0.016023	123.605589	-53.202478	-70.717556
19494	7.751019	4.942019	-3.197255	-0.010859	0.008582	0.016755	123.605450	-53.214301	-70.725737
19495	7.741237	4.908330	-3.264867	-0.013358	0.011194	0.012292	123.587315	-53.218438	-70.691850
19496	7.742303	4.907755	-3.263202	-0.015686	0.013394	0.014807	123.580464	-53.230840	-70.695097
19497	7.743304	4.907227	-3.261621	-0.015115	0.007925	0.011806	123.570598	-53.233956	-70.669264
19498	7.756715	4.914101	-3.291454	-0.014769	0.012134	0.010710	123.563317	-53.243987	-70.671302
19499	7.749861	4.939301	-3.248960	-0.015087	0.011398	0.012008	123.552751	-53.248428	-70.662245
19500	7.755544	4.971906	-3.237566	-0.023709	0.012406	0.010588	123.540105	-53.258470	-70.663961
19501	7.760804	4.880635	-3.235888	-0.023568	0.011040	0.009837	123.520271	-53.261451	-70.621928
19502	7.731367	4.911570	-3.200874	-0.020439	0.009899	0.011704	123.511542	-53.271217	-70.626180
19503	7.748695	4.905932	-3.250747	-0.019631	0.013480	0.008561	123.497844	-53.276010	-70.611105
19504	7.732946	4.911494	-3.197175	-0.021101	0.007476	0.006570	123.488102	-53.282546	-70.614556
19505	7.746139	4.918767	-3.226999	-0.016391	0.007500	0.009472	123.459684	-53.281863	-70.539456
19506	7.709794	4.903997	-3.281746	-0.018548	0.011804	0.011442	123.450612	-53.292071	-70.541904
19507	7.737864	4.931126	-3.262792	-0.018118	0.007703	0.009188	123.435131	-53.293812	-70.532220
19508	7.733870	4.898206	-3.270689	-0.019813	0.011378	0.009109	123.424585	-53.302753	-70.533721
19509	7.778435	4.920072	-3.303149	-0.021365	0.013687	0.008279	123.393422	-53.307017	-70.501328
19510	7.780590	4.887213	-3.250983	-0.021336	0.017160	0.008485	123.377959	-53.317470	-70.497796
19511	7.763083	4.879952	-3.276690	-0.017682	0.022332	0.008717	123.365915	-53.324104	-70.479992
19512	7.764125	4.879857	-3.274363	-0.013803	0.017825	0.007030	123.353731	-53.334054	-70.475141
19513	7.739867	4.865158	-3.209582	-0.015354	0.020135	0.006200	123.331849	-53.341230	-70.479277
19514	7.749555	4.885129	-3.218164	-0.008106	0.023532	0.006253	123.318894	-53.352596	-70.469413
19515	7.751330	4.930545	-3.186048	-0.007675	0.019432	0.003996	123.299366	-53.358335	-70.483156
19516	7.756065	4.917856	-3.204465	-0.012851	0.020044	0.003139	123.284581	-53.367101	-70.474416
19517	7.752142	4.885118	-3.211942	-0.013492	0.018567	0.005732	123.266791	-53.371382	-70.489313
19518	7.761736	4.905142	-3.220691	-0.013814	0.017829	0.007029	123.254502	-53.381299	-70.484363
19519	7.772402	4.892266	-3.179589	-0.013030	0.017940	0.003683	123.229841	-53.384770	-70.459151
19520	7.777111	4.879574	-3.198115	-0.005636	0.019970	0.002988	123.219101	-53.393407	-70.450299
19521	7.755487	4.885034	-3.203987	-0.007828	0.020802	0.004751	123.205123	-53.396316	-70.405518
19522	7.757169	4.930473	-3.171918	-0.009729	0.018901	0.005008	123.193564	-53.405565	-70.398541
19523	7.765846	4.904957	-3.211049	-0.007715	0.015964	0.003789	123.166648	-53.410289	-70.372062
19524	7.766621	4.904832	-3.209365	-0.010228	0.016057	0.006847	123.157349	-53.419520	-70.368287
19525	7.763493	4.917396	-3.187138	-0.009908	0.016796	0.005551	123.154738	-53.424117	-70.387497
19526	7.754514	4.930104	-3.224585	-0.006634	0.014282	0.006669	123.148591	-53.432695	-70.385064
19527	7.750536	4.897138	-3.232614	-0.009589	0.017537	0.004255	123.136157	-53.434869	-70.389643
19528	7.787339	4.944252	-3.224188	-0.006928	0.017016	0.008175	123.128698	-53.445009	-70.385765
19529	7.775601	4.936604	-3.191042	-0.011930	0.019737	0.006770	123.118244	-53.452837	-70.394682
19530	7.770033	4.891044	-3.278697	-0.008802	0.018589	0.008641	123.108890	-53.463687	-70.389790
19531	7.785640	4.910504	-3.227917	-0.010822	0.021528	0.009860	123.085589	-53.470341	-70.357724
19532	7.752445	4.953711	-3.172251	-0.007373	0.021119	0.010436	123.076124	-53.482827	-70.351672
19533	7.766626	4.881917	-3.181679	-0.007668	0.023853	0.011943	123.067920	-53.493798	-70.343600
19534	7.759113	4.939541	-3.188432	-0.004689	0.024071	0.014569	123.059822	-53.509184	-70.337337
19535	7.760492	4.938672	-3.186422	-0.008023	0.019642	0.013027	123.051207	-53.518028	-70.354323
19536	7.775458	4.912292	-3.165768	-0.005626	0.024390	0.010936	123.040815	-53.531756	-70.345871
19537	7.736072	4.909783	-3.199790	-0.009760	0.020787	0.020469	123.044054	-53.545666	-70.368260
19538	7.782457	4.897491	-3.182098	-0.010723	0.017632	0.016624	123.037565	-53.560008	-70.368281
19539	7.765429	4.889372	-3.208540	-0.007099	0.019327	0.016661	123.031883	-53.570542	-70.341789
19540	7.754970	4.926253	-3.145312	-0.008219	0.018476	0.021300	123.028253	-53.587384	-70.343573
19541	7.774131	4.886568	-3.145418	-0.007603	0.016483	0.018498	123.013330	-53.597563	-70.307282
19542	7.779422	4.872864	-3.164248	-0.012338	0.013002	0.015368	123.008353	-53.609834	-70.310330
19543	7.776756	4.884433	-3.142243	-0.006529	0.014797	0.021379	123.002194	-53.621617	-70.308814
19544	7.805321	4.910463	-3.123074	-0.018343	0.010039	0.017629	122.996648	-53.634041	-70.315431
19545	7.796038	4.877369	-3.190518	-0.021147	0.011933	0.014459	122.984119	-53.643448	-70.317391
19546	7.761026	4.829601	-3.195725	-0.019955	0.005406	0.016372	122.980132	-53.653821	-70.327106
19547	7.811563	4.850465	-3.169014	-0.013984	0.004896	0.013898	122.975159	-53.658680	-70.351941
19548	7.798851	4.875505	-3.186492	-0.010178	0.008696	0.013397	122.973354	-53.668639	-70.357409
19549	7.791747	4.900142	-3.144478	-0.008307	0.007121	0.012933	122.962716	-53.674915	-70.353300
19550	7.800603	4.874177	-3.184234	-0.017260	0.007422	0.012777	122.957389	-53.684173	-70.359452
19551	7.801478	4.873787	-3.182686	-0.018810	0.009738	0.011947	122.948138	-53.691010	-70.364261
19552	7.811173	4.893572	-3.191742	-0.024670	0.005409	0.013450	122.940164	-53.699960	-70.372404
19553	7.798272	4.840626	-3.189080	-0.021466	0.010270	0.008023	122.926992	-53.703299	-70.370159
19554	7.825407	4.822347	-3.199817	-0.023519	0.009739	0.009027	122.914959	-53.711462	-70.372440
19555	7.799617	4.840939	-3.185315	-0.020018	0.011867	0.002091	122.902059	-53.712507	-70.318544
19556	7.796144	4.853929	-3.163025	-0.014989	0.012607	0.003718	122.890782	-53.718998	-70.315688
19557	7.800690	4.841547	-3.181762	-0.014338	0.014089	0.001130	122.884084	-53.720543	-70.338874
19558	7.801947	4.887395	-3.149730	-0.011813	0.013995	-0.001922	122.871342	-53.724742	-70.331929
19559	7.815211	4.895327	-3.179140	-0.014014	0.014831	-0.000164	122.863307	-53.726193	-70.324121
19560	7.806816	4.875703	-3.166623	-0.017972	0.012401	0.001087	122.849369	-53.731334	-70.320060
19561	7.788886	4.869345	-3.192968	-0.016964	0.018100	-0.002577	122.838498	-53.733382	-70.311176
19562	7.776472	4.862385	-3.159924	-0.012796	0.011774	0.001960	122.828327	-53.738742	-70.308101
19563	7.804192	4.889640	-3.140672	-0.009166	0.013463	0.002004	122.819041	-53.742603	-70.299177
19564	7.799834	4.857136	-3.148973	-0.012471	0.012516	0.000666	122.808017	-53.747566	-70.294827
19565	7.787550	4.928588	-3.135616	-0.012799	0.011775	0.001959	122.793545	-53.750739	-70.307112
19566	7.796823	4.870284	-3.125149	-0.018931	0.013654	0.005184	122.779968	-53.758226	-70.304202
19567	7.806229	4.890602	-3.134103	-0.016937	0.007237	0.003744	122.766690	-53.761094	-70.327428
19568	7.824323	4.852262	-3.134599	-0.013931	0.010917	0.006596	122.758356	-53.768409	-70.327489
19569	7.732219	4.932766	-3.114022	-0.007025	0.010078	0.007763	122.763929	-53.771530	-70.323869
19570	7.794503	4.916047	-3.148740	-0.007800	0.009039	0.003372	122.759004	-53.776699	-70.323779
19571	7.813317	4.922886	-3.119304	-0.010361	0.005657	0.006203	122.759559	-53.777491	-70.335828
19572	7.795472	4.915757	-3.146791	-0.010689	0.004915	0.007496	122.757447	-53.783357	-70.341260
19573	7.790632	4.916148	-3.205169	-0.016168	0.008279	0.008133	122.754263	-53.787569	-70.352093
19574	7.791892	4.882644	-3.154168	-0.012715	0.007859	0.008717	122.749583	-53.794931	-70.355779
19575	7.827837	4.884136	-3.176257	-0.006880	0.008712	0.007008	122.748181	-53.797858	-70.365525
19576	7.797154	4.869428	-3.172597	-0.006731	0.007346	0.006251	122.746226	-53.803863	-70.368333
19577	7.802631	4.901666	-3.161886	-0.000122	0.009236	0.008934	122.752818	-53.808712	-70.368204
19578	7.791151	4.938870	-3.099737	-0.003785	0.004074	0.008664	122.755745	-53.814859	-70.374966
19579	7.782851	4.918213	-3.088514	-0.005661	0.005651	0.009128	122.757820	-53.817635	-70.394888
19580	7.809911	4.899245	-3.100507	-0.006497	0.002059	0.012250	122.762046	-53.824876	-70.405178
19581	7.831576	4.880957	-3.171925	-0.011171	0.005543	0.009544	122.747808	-53.829118	-70.409300
19582	7.778577	4.871858	-3.176233	-0.009445	0.005332	0.009837	122.747131	-53.836206	-70.415630
19583	7.813659	4.827890	-3.229068	-0.007241	0.004497	0.008079	122.750740	-53.838748	-70.413140
19584	7.819570	4.826782	-3.168970	0.004286	0.007565	0.005421	122.754596	-53.844393	-70.415336
19585	7.798508	4.877338	-3.146015	0.006850	0.010947	0.002593	122.761686	-53.847349	-70.432946
19586	7.808453	4.863633	-3.106414	0.002409	0.009143	0.005886	122.763640	-53.853702	-70.434122
19587	7.786515	4.868954	-3.113897	0.003186	0.005786	0.002322	122.767839	-53.852844	-70.440896
19588	7.805065	4.875702	-3.085094	0.000210	0.005584	-0.000314	122.768252	-53.855097	-70.441713
19589	7.805160	4.875704	-3.084852	-0.002056	-0.000531	0.001000	122.769195	-53.851681	-70.446991
19590	7.853886	4.851966	-3.089127	-0.013666	0.000325	-0.003099	122.763935	-53.850950	-70.450624
19591	7.835435	4.845642	-3.117034	-0.008486	-0.000309	-0.002221	122.760590	-53.847816	-70.461380
19592	7.790390	4.857808	-3.132563	-0.012741	-0.004398	-0.007421	122.757136	-53.843534	-70.466603
19593	7.802818	4.866321	-3.163425	-0.014648	-0.006295	-0.007179	122.744927	-53.835766	-70.465995
19594	7.846089	4.810866	-3.177646	-0.018695	-0.004799	-0.012691	122.736066	-53.828814	-70.468763
19595	7.809499	4.844233	-3.203199	-0.029211	-0.002163	-0.013689	122.728068	-53.819113	-70.470595
19596	7.835650	4.794729	-3.164836	-0.033919	-0.002151	-0.016616	122.707105	-53.811084	-70.469168
19597	7.824519	4.765237	-3.232799	-0.034994	-0.000451	-0.019492	122.687762	-53.798969	-70.476152
19598	7.816081	4.838532	-3.159646	-0.031330	0.000325	-0.027176	122.662210	-53.786606	-70.467196
19599	7.846022	4.856037	-3.160829	-0.027551	0.000649	-0.027883	122.643781	-53.770539	-70.455269
19600	7.844705	4.859300	-3.159081	-0.038076	0.003283	-0.028878	122.611736	-53.758256	-70.443042
19601	7.784827	4.821506	-3.172352	-0.039034	0.000145	-0.032739	122.584391	-53.739625	-70.425576
19602	7.827918	4.814045	-3.154632	-0.037908	0.001018	-0.037372	122.550406	-53.722528	-70.410810
19603	7.808572	4.856472	-3.150678	-0.036515	0.000065	-0.035788	122.530895	-53.701793	-70.428038
19604	7.806793	4.860609	-3.148707	-0.037094	0.004625	-0.040485	122.493772	-53.684285	-70.408770
19605	7.800274	4.910873	-3.175629	-0.031914	0.003998	-0.039608	122.457853	-53.664537	-70.379681
19606	7.785540	4.907417	-3.142440	-0.036936	0.006742	-0.041014	122.419253	-53.647405	-70.358469
19607	7.770233	4.937422	-3.158703	-0.028445	0.007060	-0.038793	122.372953	-53.628808	-70.328509
19608	7.778035	5.006737	-3.136362	-0.036178	0.007772	-0.036620	122.335959	-53.614095	-70.308766
19609	7.771838	4.977830	-3.144133	-0.029566	0.009665	-0.033929	122.304274	-53.596910	-70.281705
19610	7.792888	4.975710	-3.133948	-0.029724	0.011031	-0.033168	122.270315	-53.584843	-70.261119
19611	7.809945	4.985897	-3.103103	-0.026573	0.013342	-0.031060	122.237855	-53.571237	-70.248308
19612	7.768270	4.987727	-3.137258	-0.016324	0.016928	-0.028311	122.209745	-53.563305	-70.225443
19613	7.771638	4.977776	-3.155781	-0.011764	0.018282	-0.024621	122.182574	-53.552140	-70.198208
19614	7.767443	5.037457	-3.102499	-0.006880	0.020383	-0.022220	122.160136	-53.548191	-70.175645
19615	7.757720	5.052620	-3.139319	-0.010203	0.023801	-0.015596	122.133688	-53.544936	-70.141726
19616	7.736002	5.026017	-3.095473	-0.012912	0.021765	-0.012020	122.111093	-53.546338	-70.123265
19617	7.785095	5.003459	-3.097996	-0.008198	0.021755	-0.009089	122.095833	-53.545231	-70.115378
19618	7.772106	4.951183	-3.095598	0.001743	0.028070	-0.004810	122.080468	-53.552037	-70.095458
19619	7.755521	4.955943	-3.042377	0.012268	0.021983	-0.004044	122.082471	-53.554642	-70.099029
19620	7.764845	4.975844	-3.052021	0.020273	0.019445	0.000005	122.085390	-53.561155	-70.088642
19621	7.787821	4.969637	-3.043518	0.018539	0.019654	-0.000289	122.083383	-53.563269	-70.085352
19622	7.756563	4.988103	-3.090036	0.020252	0.015971	-0.000228	122.088467	-53.568602	-70.077666
19623	7.779504	4.981767	-3.081829	0.015487	0.013394	0.004342	122.087996	-53.570636	-70.064008
19624	7.766173	4.961723	-3.130480	0.005854	0.012190	0.006738	122.090173	-53.578189	-70.062956
19625	7.789319	4.955350	-3.121804	0.009656	0.015998	0.006270	122.088522	-53.583364	-70.047508
19626	7.786026	4.966786	-3.100602	0.014041	0.015242	0.010495	122.094922	-53.593663	-70.045880
19627	7.764296	4.925886	-3.138789	0.019247	0.018094	0.011612	122.112704	-53.601997	-70.050882
19628	7.757021	4.949321	-3.097229	0.021301	0.018635	0.010617	122.121111	-53.613382	-70.046569
19629	7.789398	4.962311	-3.099297	0.020490	0.018505	0.013957	122.139438	-53.624227	-70.076295
19630	7.781859	4.940328	-3.088430	0.020161	0.017758	0.015247	122.149716	-53.637589	-70.075121
19631	7.818912	4.985980	-3.080305	0.015450	0.017767	0.012310	122.159689	-53.645572	-70.094555
19632	7.766424	4.975799	-3.085100	0.006783	0.015333	0.010601	122.161988	-53.655932	-70.092983
19633	7.775869	4.949648	-3.125524	0.007687	0.011518	0.014007	122.168853	-53.664063	-70.100318
19634	7.786329	4.934964	-3.085740	0.005816	0.016568	0.014701	122.171486	-53.676784	-70.099856
19635	7.831329	4.910724	-3.149056	0.005627	0.010980	0.015001	122.186525	-53.685049	-70.111956
19636	7.810112	4.915007	-3.156351	0.005642	0.014458	0.015231	122.190699	-53.697377	-70.113525
19637	7.798183	4.906043	-3.124470	0.004394	0.014049	0.012885	122.200149	-53.705131	-70.117261
19638	7.795100	4.917324	-3.103007	0.003909	0.014668	0.014934	122.203091	-53.717373	-70.118524
19639	7.805122	4.936396	-3.112347	-0.000953	0.016042	0.012754	122.212837	-53.725137	-70.143926
19640	7.828310	4.963316	-3.152279	0.001135	0.023535	0.012221	122.207234	-53.738764	-70.136542
19641	7.811106	4.910306	-3.209666	-0.004884	0.020557	0.014440	122.209435	-53.750036	-70.157018
19642	7.795137	4.914311	-3.156023	-0.009574	0.024045	0.011728	122.197167	-53.763575	-70.148981
19643	7.809948	4.887894	-3.135052	-0.011134	0.026368	0.010901	122.178543	-53.773373	-70.136008
19644	7.837965	4.869201	-3.144780	-0.009219	0.031749	0.010899	122.161007	-53.788848	-70.121187
19645	7.817532	4.919551	-3.119260	-0.010796	0.030595	0.009842	122.157996	-53.799741	-70.110339
19646	7.815183	4.976835	-3.064949	-0.020435	0.029405	0.012220	122.136157	-53.815131	-70.098127
19647	7.807670	4.956561	-3.051091	-0.026714	0.028264	0.008217	122.121807	-53.825737	-70.100048
19648	7.782346	4.974858	-3.035174	-0.035143	0.020527	0.012477	122.097549	-53.838539	-70.095279
19649	7.800863	4.891502	-3.064460	-0.036706	0.022852	0.011650	122.076689	-53.849185	-70.095085
19650	7.797906	4.903996	-3.040546	-0.034084	0.018825	0.015353	122.055367	-53.862859	-70.093204
19651	7.821463	4.898093	-3.029622	-0.030486	0.013562	0.014957	122.048144	-53.871514	-70.104382
19652	7.773667	4.921805	-3.022620	-0.029829	0.015059	0.012380	122.030541	-53.882594	-70.104075
19653	7.819144	4.943894	-3.053488	-0.026718	0.010412	0.014033	122.021019	-53.890162	-70.124315
19654	7.788938	4.929129	-3.048951	-0.028609	0.011989	0.014495	122.007040	-53.901331	-70.127633
19655	7.812322	4.923054	-3.038704	-0.025324	0.009454	0.015620	121.995776	-53.908672	-70.139615
19656	7.817711	4.910129	-3.057177	-0.029609	0.009747	0.018360	121.984322	-53.921032	-70.146762
19657	7.827887	4.896167	-3.016114	-0.033106	0.003217	0.017288	121.979971	-53.928509	-70.162731
19658	7.851089	4.923748	-3.055410	-0.025491	0.010822	0.016384	121.969349	-53.940232	-70.167992
19659	7.802875	4.902027	-3.079921	-0.024111	0.006383	0.017734	121.970761	-53.948641	-70.184732
19660	7.817772	4.920429	-3.028926	-0.024272	0.007749	0.018497	121.963792	-53.960454	-70.193643
19661	7.836462	4.915011	-3.078653	-0.023033	0.008152	0.020847	121.965391	-53.970928	-70.215162
19662	7.851028	4.888188	-3.058429	-0.022372	0.009652	0.018272	121.958167	-53.983205	-70.222409
19663	7.829904	4.893116	-3.064842	-0.019087	0.007111	0.019396	121.963034	-53.993046	-70.256470
19664	7.822168	4.871968	-3.052820	-0.018897	0.012704	0.019111	121.956135	-54.006653	-70.261659
19665	7.823827	4.916152	-3.020222	-0.016361	0.009148	0.015833	121.954011	-54.015066	-70.265870
19666	7.829158	4.902970	-3.039323	-0.016696	0.008399	0.017121	121.950431	-54.026397	-70.273608
19667	7.821231	4.915743	-3.076815	-0.014791	0.010299	0.016897	121.945146	-54.035814	-70.285848
19668	7.835703	4.888904	-3.056732	-0.018414	0.012094	0.017061	121.938080	-54.048232	-70.290509
19669	7.841143	4.875791	-3.075468	-0.018082	0.012844	0.015774	121.931013	-54.058161	-70.298936
19670	7.842390	4.874953	-3.073615	-0.017179	0.012495	0.019412	121.925371	-54.071841	-70.304496
19671	7.861572	4.880678	-3.043302	-0.016215	0.007788	0.015069	121.918012	-54.079616	-70.314574
19672	7.813821	4.870022	-2.988070	-0.010650	0.014849	0.015167	121.912745	-54.091941	-70.315996
19673	7.855269	4.903763	-2.999034	-0.012913	0.008723	0.016433	121.919139	-54.100283	-70.327532
19674	7.820832	4.900764	-2.974893	-0.013408	0.009338	0.018484	121.917407	-54.112547	-70.335262
19675	7.848442	4.881520	-2.986290	-0.009472	0.004813	0.016792	121.921854	-54.120428	-70.360626
19676	7.840484	4.894090	-3.024402	-0.005991	0.007859	0.017636	121.925022	-54.131827	-70.369170
19677	7.814976	4.911093	-3.011196	-0.006189	0.002267	0.017915	121.936139	-54.139072	-70.390954
19678	7.829202	4.883772	-2.992289	-0.002371	0.006062	0.017472	121.942541	-54.149842	-70.400931
19679	7.852640	4.910299	-3.033092	0.003883	0.003695	0.021247	121.961245	-54.158498	-70.418462
19680	7.849489	4.921064	-3.012232	-0.002887	0.003200	0.019280	121.970064	-54.169270	-70.431773
19681	7.845789	4.886859	-3.022335	0.007858	0.006125	0.020041	121.993185	-54.178979	-70.460342
19682	7.837851	4.864839	-3.012076	0.005768	0.002115	0.020784	122.008368	-54.190144	-70.475383
19683	7.852306	4.870744	-3.043088	0.010982	0.004941	0.021929	122.028117	-54.199881	-70.497371
19684	7.866873	4.876440	-3.074139	0.018599	0.009049	0.020802	122.046016	-54.213151	-70.506693
19685	7.854811	4.866406	-3.043561	0.020485	0.007468	0.020338	122.070290	-54.223227	-70.520009
19686	7.847104	4.877924	-3.082842	0.018931	0.009800	0.019515	122.087361	-54.236093	-70.528077
19687	7.848370	4.875904	-3.082815	0.015646	0.012351	0.018390	122.108024	-54.246464	-70.548075
19688	7.876092	4.855878	-3.094937	0.008879	0.011859	0.016422	122.116674	-54.258448	-70.552856
19689	7.850550	4.838749	-3.032732	0.013013	0.012921	0.014451	122.127487	-54.267545	-70.562772
19690	7.864944	4.845029	-3.063284	0.013169	0.011556	0.013688	122.137654	-54.278105	-70.566406
19691	7.861720	4.855983	-3.042371	0.015415	0.014201	0.012180	122.152409	-54.286228	-70.568945
19692	7.862696	4.854660	-3.041959	0.012110	0.013273	0.010813	122.159614	-54.295912	-70.569679
19693	7.849847	4.834524	-3.090851	0.010199	0.011378	0.011034	122.169674	-54.301927	-70.574828
19694	7.868786	4.839895	-3.061531	0.008490	0.015077	0.010972	122.173666	-54.312233	-70.574153
19695	7.891903	4.832997	-3.052728	0.007232	0.011198	0.008380	122.180210	-54.317473	-70.584710
19696	7.874418	4.791755	-3.031613	0.011210	0.013623	0.007174	122.185135	-54.325489	-70.583271
19697	7.831172	4.847754	-3.016721	0.013750	0.010056	0.003901	122.200805	-54.328485	-70.596730
19698	7.876172	4.835238	-3.000222	0.005635	0.006573	0.007075	122.207280	-54.334296	-70.601133
19699	7.858920	4.839373	-2.948655	0.006784	0.003971	0.002212	122.227236	-54.334615	-70.623614
19700	7.872483	4.846803	-2.979551	0.005212	0.002824	0.001147	122.233513	-54.336402	-70.628067
19701	7.854568	4.840004	-3.008537	0.008987	-0.000345	0.000226	122.246110	-54.334280	-70.640755
19702	7.885316	4.808928	-3.042038	0.006738	-0.002988	0.001735	122.257443	-54.334570	-70.650361
19703	7.858751	4.826883	-3.030401	0.014491	-0.003733	-0.000392	122.273282	-54.331140	-70.685922
19704	7.822974	4.824726	-3.008608	0.013099	-0.002767	-0.001981	122.286528	-54.329690	-70.693408
19705	7.885236	4.841567	-3.094073	0.023836	0.000150	-0.001215	122.307292	-54.326981	-70.706913
19706	7.845209	4.851730	-3.051893	0.014984	-0.004351	-0.002441	122.322496	-54.324817	-70.715483
19707	7.858233	4.825306	-3.034253	0.014353	0.001114	0.000609	122.344630	-54.323433	-70.728277
19708	7.844994	4.851037	-3.053548	0.011344	-0.006028	-0.002521	122.358865	-54.320709	-70.738218
19709	7.862346	4.823826	-2.976489	0.012177	-0.005899	-0.005857	122.378325	-54.313988	-70.760870
19710	7.857806	4.870176	-3.006466	0.012492	-0.008632	-0.007381	122.392906	-54.308105	-70.770430
19711	7.878847	4.819477	-3.030229	0.008875	-0.006829	-0.007224	122.412017	-54.300419	-70.786162
19712	7.851025	4.793214	-3.049718	0.010023	-0.009434	-0.012085	122.423723	-54.292008	-70.793922
19713	7.855004	4.826418	-3.040840	0.011571	-0.011765	-0.011257	122.438296	-54.280871	-70.805998
19714	7.894029	4.816248	-3.085533	0.017297	-0.006077	-0.011927	122.451971	-54.273562	-70.811060
19715	7.862042	4.836197	-3.134072	0.018128	-0.005949	-0.015264	122.470645	-54.261948	-70.819820
19716	7.847829	4.829032	-3.104532	0.019360	-0.005546	-0.012913	122.484730	-54.254320	-70.823924
19717	7.865221	4.869829	-3.126498	0.015901	-0.005111	-0.013517	122.499258	-54.244242	-70.834842
19718	7.855348	4.850214	-3.117265	0.015742	-0.003744	-0.012756	122.510129	-54.237239	-70.837548
19719	7.841546	4.876879	-3.136359	0.004896	0.001656	-0.012285	122.515016	-54.229428	-70.837193
19720	7.867469	4.859393	-3.148917	0.005053	0.000290	-0.013046	122.516940	-54.223522	-70.836416
19721	7.870983	4.814200	-3.119982	0.003861	0.006846	-0.014929	122.512865	-54.215968	-70.829931
19722	7.830599	4.825900	-3.076368	0.005925	0.007377	-0.015914	122.509315	-54.210853	-70.821790
19723	7.870520	4.861414	-3.088569	0.005766	0.008743	-0.015153	122.514765	-54.203929	-70.821938
19724	7.865706	4.874963	-3.067731	0.006081	0.006011	-0.016675	122.511920	-54.198022	-70.814545
19725	7.834285	4.906942	-3.034501	0.000558	0.005912	-0.016295	122.513054	-54.189694	-70.820227
19726	7.806615	4.881394	-3.052389	-0.005480	0.002953	-0.014099	122.506752	-54.184085	-70.816735
19727	7.850369	4.871205	-3.035684	-0.008305	-0.002081	-0.017748	122.514370	-54.172898	-70.826049
19728	7.840521	4.852507	-3.024990	-0.003417	0.003485	-0.015084	122.508507	-54.166974	-70.821633
19729	7.862332	4.881506	-3.065974	-0.002538	-0.000337	-0.011679	122.513238	-54.159132	-70.832861
19730	7.857339	4.895171	-3.045350	-0.007250	-0.003790	-0.014870	122.510153	-54.151067	-70.834580
19731	7.834321	4.902175	-3.053545	-0.004622	-0.004348	-0.010928	122.509118	-54.141789	-70.831279
19732	7.833622	4.903123	-3.053818	-0.001006	-0.006145	-0.011085	122.512793	-54.134823	-70.836920
19733	7.828193	4.871366	-3.064282	-0.003053	-0.003197	-0.009865	122.515582	-54.126668	-70.842864
19734	7.845563	4.878757	-3.035980	-0.002189	-0.010500	-0.006695	122.523359	-54.120476	-70.854402
19735	7.831241	4.860224	-3.085879	0.001957	-0.005955	-0.008431	122.536982	-54.112203	-70.862377
19736	7.839814	4.880916	-3.096621	0.001481	-0.001857	-0.006147	122.541335	-54.108932	-70.867085
19737	7.817030	4.887261	-3.105226	0.002116	-0.007321	-0.009192	122.548362	-54.099654	-70.869525
19738	7.838595	4.882092	-3.097855	0.007973	-0.006470	-0.010862	122.557503	-54.092678	-70.875547
19739	7.855560	4.877914	-3.150012	0.003862	-0.004056	-0.008655	122.565083	-54.084352	-70.865786
19740	7.841757	4.870677	-3.119577	0.007338	-0.001005	-0.007817	122.571511	-54.080525	-70.868891
19741	7.828056	4.863405	-3.088948	0.003720	0.000790	-0.007660	122.573039	-54.074742	-70.877356
19742	7.836712	4.884163	-3.099354	-0.001644	-0.000680	-0.008039	122.574006	-54.070903	-70.880076
19743	7.827434	4.864442	-3.088889	0.002909	0.004141	-0.004089	122.581687	-54.067875	-70.890980
19744	7.845207	4.871460	-3.060203	0.001480	-0.001856	-0.006147	122.586045	-54.064583	-70.895674
19745	7.818260	4.890245	-3.047956	-0.003884	-0.003327	-0.006526	122.590776	-54.057895	-70.897795
19746	7.857772	4.880365	-3.091140	-0.005596	0.000367	-0.006594	122.589414	-54.055068	-70.900425
19747	7.848443	4.860844	-3.080501	-0.009900	-0.002813	-0.004096	122.594781	-54.049760	-70.907230
19748	7.857139	4.881757	-3.090552	-0.013200	-0.003751	-0.005461	122.592298	-54.046204	-70.913848
19749	7.816407	4.848053	-3.077627	-0.012866	-0.003003	-0.006749	122.590942	-54.039787	-70.927819
19750	7.833611	4.844164	-3.128769	-0.011472	-0.003964	-0.005159	122.589723	-54.036307	-70.934780
19751	7.833655	4.890100	-3.097720	-0.006834	-0.000036	-0.008945	122.592207	-54.029519	-70.931615
19752	7.833209	4.891026	-3.097387	-0.010804	-0.002469	-0.007735	122.589291	-54.025253	-70.935997
19753	7.832857	4.891891	-3.096909	-0.009217	0.002163	-0.006436	122.597849	-54.020510	-70.949810
19754	7.828327	4.905136	-3.075698	-0.015251	-0.000805	-0.004240	122.592793	-54.018440	-70.954687
19755	7.828090	4.905975	-3.074962	-0.016981	-0.000590	-0.004542	122.585163	-54.013642	-70.953466
19756	7.814157	4.887711	-3.123498	-0.015252	-0.000804	-0.004240	122.580104	-54.011568	-70.958338
19757	7.800657	4.880668	-3.091958	-0.015921	-0.002300	-0.001665	122.577420	-54.007834	-70.973028
19758	7.818417	4.888024	-3.062716	-0.013364	-0.002383	-0.004700	122.574298	-54.005047	-70.978961
19759	7.822473	4.876220	-3.082883	-0.010397	-0.002194	-0.002047	122.573275	-54.001082	-70.987899
19760	7.844609	4.870836	-3.074480	-0.009002	-0.003157	-0.000458	122.574967	-54.000101	-70.996695
19761	7.813645	4.901924	-3.041022	-0.020052	-0.003369	0.000307	122.574193	-53.996754	-71.014366
19762	7.804501	4.882224	-3.030220	-0.012638	-0.004842	-0.000536	122.574894	-53.995210	-71.024509
19763	7.817586	4.890438	-3.060982	-0.014720	-0.008855	0.000212	122.578966	-53.990234	-71.039556
19764	7.808397	4.870507	-3.050673	-0.013817	-0.009202	0.003850	122.583754	-53.989457	-71.055582
19765	7.808240	4.870739	-3.050704	-0.015056	-0.009603	0.001499	122.595380	-53.985077	-71.088263
19766	7.821289	4.878901	-3.081644	-0.016963	-0.011502	0.001722	122.599005	-53.982558	-71.105082
19767	7.825301	4.866843	-3.102353	-0.015233	-0.011716	0.002023	122.602097	-53.977652	-71.130661
19768	7.842941	4.873909	-3.073865	-0.016314	-0.013481	-0.001091	122.606206	-53.973158	-71.147624
19769	7.837838	4.875491	-3.133817	-0.009708	-0.011610	0.001639	122.609598	-53.968232	-71.167971
19770	7.820045	4.880371	-3.082474	-0.018857	-0.009921	0.002186	122.611265	-53.966414	-71.183728
19771	7.810766	4.894488	-3.121368	-0.022338	-0.012969	0.001345	122.605509	-53.960741	-71.198857
19772	7.823793	4.868967	-3.102822	-0.020925	-0.010454	0.003172	122.606747	-53.959231	-71.215554
19773	7.841657	4.875877	-3.074021	-0.017464	-0.010884	0.003773	122.620929	-53.955501	-71.240946
19774	7.823449	4.869660	-3.102601	-0.020594	-0.009703	0.001886	122.621331	-53.953596	-71.256373
19775	7.823687	4.881135	-3.022518	-0.015595	-0.015941	0.003068	122.627307	-53.947881	-71.276960
19776	7.849931	4.897019	-3.084716	-0.013846	-0.012677	0.003609	122.634272	-53.945883	-71.295725
19777	7.818375	4.882786	-3.082886	-0.017663	-0.016474	0.004055	122.644381	-53.940492	-71.315914
19778	7.853654	4.884956	-3.106176	-0.014359	-0.015540	0.005418	122.653719	-53.938474	-71.337977
19779	7.840119	4.911106	-3.124982	-0.015758	-0.014574	0.003832	122.659122	-53.933504	-71.351392
19780	7.812924	4.884357	-3.143691	-0.012767	-0.010913	0.006725	122.666855	-53.933540	-71.370340
19781	7.794796	4.911520	-3.221996	-0.003263	-0.008377	0.005126	122.672419	-53.931106	-71.375139
19782	7.812978	4.883856	-3.144334	-0.003067	-0.002785	0.004847	122.679518	-53.932744	-71.386429
19783	7.817451	4.871141	-3.164912	0.000593	0.002375	0.005166	122.678768	-53.933788	-71.390331
19784	7.845009	4.897239	-3.146317	0.002918	0.004534	0.010632	122.686897	-53.940475	-71.398657
19785	7.845554	4.896672	-3.145844	-0.004583	0.006501	0.004512	122.685579	-53.942503	-71.412119
19786	7.792423	4.853999	-3.101673	-0.006316	0.006717	0.004212	122.684244	-53.946767	-71.415289
19787	7.819246	4.835823	-3.113465	-0.005333	0.005490	0.000110	122.675592	-53.946192	-71.410780
19788	7.850762	4.816417	-3.065784	-0.003601	0.005274	0.000409	122.675138	-53.948171	-71.413118
19789	7.837619	4.842473	-3.083782	0.003818	0.003796	-0.000444	122.669228	-53.947054	-71.411221
19790	7.859943	4.870652	-3.124668	-0.001044	0.005195	-0.002629	122.668980	-53.947539	-71.412014
19791	7.815495	4.882381	-3.140368	-0.002204	0.004308	0.001995	122.664280	-53.947421	-71.407269
19792	7.806652	4.862112	-3.129735	-0.003956	0.001046	0.001452	122.666836	-53.948587	-71.413591
19793	7.811039	4.850010	-3.149597	-0.012086	0.008469	-0.001610	122.661547	-53.948017	-71.418105
19794	7.824618	4.824199	-3.130111	-0.005807	0.009582	0.002404	122.657797	-53.952278	-71.417936
19795	7.838156	4.832260	-3.160023	-0.004489	0.009106	-0.002984	122.648576	-53.951213	-71.403185
19796	7.820901	4.836958	-3.107537	0.000569	0.013299	-0.001077	122.644526	-53.954940	-71.398126
19797	7.821207	4.837059	-3.106611	0.002793	0.012470	-0.002828	122.648807	-53.954767	-71.394407
19798	7.817239	4.849497	-3.085140	0.000391	0.011185	-0.000555	122.646293	-53.958087	-71.391363
19799	7.795686	4.900534	-3.061256	-0.003979	0.011971	-0.004793	122.633752	-53.956925	-71.366080
19800	7.835574	4.890904	-3.103425	-0.004709	0.014439	-0.008952	122.622583	-53.957193	-71.355936
19801	7.813364	4.897465	-3.110174	-0.003470	0.014837	-0.006600	122.609631	-53.956557	-71.345526
19802	7.813458	4.898092	-3.108951	-0.005555	0.010824	-0.005858	122.601682	-53.957196	-71.339971
19803	7.853838	4.899438	-3.070900	-0.007446	0.012404	-0.005394	122.596419	-53.955988	-71.341461
19804	7.804588	4.879219	-3.096176	-0.006954	0.011791	-0.007445	122.586364	-53.956155	-71.334290
19805	7.827354	4.919084	-3.055834	-0.007289	0.011041	-0.006159	122.578889	-53.954247	-71.333657
19806	7.826963	4.874695	-3.085786	-0.002427	0.009642	-0.003971	122.574330	-53.955424	-71.330076
19807	7.840847	4.893840	-3.035571	-0.001189	0.010039	-0.001619	122.566999	-53.955554	-71.322562
19808	7.809752	4.913589	-3.081901	-0.002938	0.006776	-0.002164	122.564806	-53.956715	-71.322272
19809	7.827314	4.875699	-3.083309	-0.005065	0.010213	-0.007909	122.559433	-53.953920	-71.321486
19810	7.814065	4.902381	-3.100654	-0.004161	0.009858	-0.004272	122.553608	-53.955010	-71.317575
19811	7.822708	4.878087	-3.141134	-0.002780	0.005413	-0.002929	122.556041	-53.953051	-71.327241
19812	7.805168	4.882913	-3.088883	-0.004162	0.009859	-0.004271	122.550225	-53.954137	-71.323343
19813	7.836523	4.897794	-3.090134	-0.002270	0.008279	-0.004735	122.550767	-53.952151	-71.325408
19814	7.845517	4.884435	-3.050495	0.001195	0.007848	-0.004133	122.549422	-53.952681	-71.323246
19815	7.809610	4.871658	-3.107432	0.005169	0.010283	-0.005336	122.542343	-53.951124	-71.312087
19816	7.840843	4.886432	-3.109162	0.005647	0.006192	-0.007632	122.543157	-53.949449	-71.309441
19817	7.827524	4.878692	-3.078038	0.005897	0.007814	-0.001178	122.544003	-53.948878	-71.296882
19818	7.823468	4.890859	-3.057061	0.009376	0.010862	-0.000330	122.546943	-53.952166	-71.294219
19819	7.805766	4.884142	-3.085425	0.003829	0.007278	-0.000194	122.555109	-53.951940	-71.302860
19820	7.806001	4.884057	-3.084966	0.004004	0.009393	-0.000714	122.555795	-53.954586	-71.301215
19821	7.837158	4.853450	-3.117573	0.005736	0.009178	-0.000412	122.556575	-53.955192	-71.300867
19822	7.842131	4.885895	-3.106755	0.005735	0.009178	-0.000412	122.558524	-53.957914	-71.299562
19823	7.837723	4.853058	-3.116764	0.011106	0.010647	-0.000027	122.567599	-53.958593	-71.297984
19824	7.842677	4.885512	-3.105979	0.002430	0.008245	-0.001782	122.567703	-53.960362	-71.296731
19825	7.816224	4.903746	-3.093046	0.006564	0.009317	-0.003749	122.560247	-53.959515	-71.286907
19826	7.833945	4.865417	-3.094772	0.000363	0.007710	-0.000798	122.559923	-53.961590	-71.286597
19827	7.825283	4.879091	-3.133150	-0.000133	0.008323	0.001252	122.556074	-53.962518	-71.279839
19828	7.839182	4.897987	-3.083077	0.000537	0.009825	-0.001319	122.554217	-53.964990	-71.277509
19829	7.812511	4.871249	-3.100774	-0.001691	0.010654	0.000428	122.557194	-53.965635	-71.262679
19830	7.835454	4.910500	-3.060677	-0.001022	0.012156	-0.002143	122.552559	-53.968424	-71.258002
19831	7.848749	4.873672	-3.121390	-0.006888	0.011300	-0.000480	122.540969	-53.969690	-71.256352
19832	7.813766	4.916804	-3.066559	-0.006728	0.009936	-0.001245	122.534910	-53.972224	-71.253962
19833	7.831630	4.878668	-3.067613	-0.002916	0.013737	-0.001680	122.525063	-53.973238	-71.233032
19834	7.818753	4.904870	-3.084860	-0.005493	0.010334	0.001109	122.520437	-53.977027	-71.231532
19835	7.845731	4.886801	-3.096223	-0.005493	0.010334	0.001109	122.513513	-53.978485	-71.224039
19836	7.810501	4.884800	-3.072373	-0.007387	0.011914	0.001570	122.506942	-53.982980	-71.221474
19837	7.842176	4.899392	-3.073214	-0.009132	0.008650	0.001023	122.495939	-53.983922	-71.200496
19838	7.815540	4.872850	-3.090606	-0.010865	0.008866	0.000719	122.489028	-53.987064	-71.199972
19839	7.847233	4.887500	-3.091309	-0.007215	0.014030	0.001051	122.478266	-53.989859	-71.199969
19840	7.847678	4.887668	-3.089913	-0.007054	0.012667	0.000286	122.470822	-53.993957	-71.196091
19841	7.808038	4.887083	-3.125375	-0.011514	0.014323	0.003779	122.454160	-53.998234	-71.189956
19842	7.844126	4.855237	-3.097201	-0.007714	0.014644	0.003101	122.446198	-54.004296	-71.185908
19843	7.827200	4.893604	-3.093396	-0.007877	0.016008	0.003867	122.430809	-54.009075	-71.167858
19844	7.787857	4.903709	-3.048619	-0.008388	0.013141	0.005671	122.424532	-54.015915	-71.166371
19845	7.846496	4.899743	-3.061605	-0.006818	0.014290	0.006741	122.414787	-54.021708	-71.154870
19846	7.811535	4.897330	-3.037671	-0.006831	0.010810	0.006495	122.411294	-54.028228	-71.155729
19847	7.821024	4.883301	-2.997410	-0.006657	0.012926	0.005976	122.404670	-54.032986	-71.155493
19848	7.799246	4.888938	-3.004688	-0.004288	0.003773	0.002972	122.405831	-54.035637	-71.160305
19849	7.835180	4.890937	-3.026790	-0.004288	0.003773	0.002972	122.404020	-54.036227	-71.165852
19850	7.844189	4.866191	-3.067486	-0.010333	0.000802	0.005148	122.404614	-54.039016	-71.174247
19851	7.844674	4.900168	-3.116115	-0.007928	0.002090	0.002883	122.398290	-54.038667	-71.161830
19852	7.875907	4.869689	-3.148543	-0.008090	0.003454	0.003648	122.397754	-54.041541	-71.167233
19853	7.867152	4.849419	-3.137617	-0.007916	0.005570	0.003129	122.388514	-54.042493	-71.157256
19854	7.818668	4.873361	-3.132520	-0.004103	0.009370	0.002701	122.385903	-54.046721	-71.157266
19855	7.827976	4.859454	-3.092472	-0.004428	0.012098	0.004232	122.381464	-54.050103	-71.143232
19856	7.855536	4.885893	-3.072704	-0.001126	0.013029	0.005607	122.379345	-54.056856	-71.141739
19857	7.856155	4.885522	-3.071713	0.001105	0.012201	0.003862	122.379354	-54.060333	-71.148909
19858	7.812030	4.862897	-3.037756	-0.010464	0.012609	0.006652	122.372609	-54.067459	-71.148316
19859	7.839627	4.889454	-3.017656	-0.010302	0.011245	0.005886	122.370926	-54.071330	-71.147501
19860	7.831134	4.869114	-3.006111	-0.011873	0.010098	0.004815	122.364281	-54.076793	-71.148025
19861	7.849158	4.830654	-3.007171	-0.010152	0.006401	0.004873	122.363932	-54.078884	-71.159294
19862	7.840786	4.844383	-3.045237	-0.006013	0.007472	0.002914	122.361600	-54.082619	-71.161001
19863	7.845803	4.876862	-3.034085	-0.000314	0.006209	0.001780	122.357903	-54.083480	-71.153171
19864	7.832573	4.858064	-3.083002	-0.003617	0.005279	0.000403	122.357336	-54.085325	-71.155365
19865	7.815127	4.851452	-3.111073	0.003010	0.014100	0.003652	122.350217	-54.089408	-71.141072
19866	7.851709	4.897989	-3.101792	0.000417	0.007215	0.006186	122.353105	-54.094642	-71.144677
19867	7.834017	4.857170	-3.080739	-0.000129	0.011807	0.001509	122.347823	-54.096890	-71.143432
19868	7.843666	4.877128	-3.089941	0.000601	0.012813	0.005916	122.346955	-54.103706	-71.142271
19869	7.853090	4.862850	-3.049960	0.000601	0.012813	0.005916	122.346936	-54.108315	-71.143179
19870	7.840509	4.888696	-3.067342	-0.001863	0.012025	0.001204	122.343189	-54.112605	-71.140208
19871	7.840948	4.888691	-3.066227	-0.005667	0.011707	0.001876	122.329761	-54.115256	-71.129687
19872	7.868074	4.870451	-3.077456	-0.002365	0.012637	0.003254	122.326168	-54.120723	-71.127264
19873	7.828504	4.880540	-3.033074	-0.003924	0.014971	0.002430	122.323951	-54.123635	-71.115446
19874	7.829010	4.880492	-3.031844	-0.007913	0.009056	0.003371	122.319634	-54.128057	-71.116039
19875	7.842965	4.888442	-3.061462	-0.005668	0.011708	0.001876	122.317247	-54.130024	-71.110631
19876	7.834556	4.913151	-3.019002	-0.013287	0.007592	0.002969	122.310666	-54.133799	-71.112224
19877	7.834679	4.868399	-3.048883	-0.009648	0.009274	0.003065	122.304612	-54.135611	-71.111915
19878	7.817386	4.861958	-3.076445	-0.009976	0.012003	0.004597	122.297661	-54.141522	-71.110703
19879	7.875802	4.858168	-3.089571	-0.007926	0.005576	0.003122	122.300407	-54.142062	-71.111145
19880	7.845077	4.888687	-3.055654	-0.007414	0.008446	0.001321	122.295929	-54.145293	-71.111165
19881	7.814121	4.874372	-3.052702	-0.003599	0.012244	0.000900	122.288645	-54.147592	-71.103853
19882	7.868091	4.882912	-3.045198	-0.007917	0.009057	0.003371	122.284333	-54.152000	-71.104438
19883	7.819647	4.906965	-3.040002	-0.005507	0.010346	0.001111	122.284443	-54.153096	-71.100425
19884	7.846629	4.888970	-3.051213	-0.006902	0.011317	-0.000480	122.277575	-54.156326	-71.097133
19885	7.846911	4.889183	-3.050146	-0.007251	0.007082	0.000554	122.272057	-54.156753	-71.087193
19886	7.838048	4.869192	-3.038939	-0.010543	0.009636	-0.000577	122.264184	-54.159419	-71.085237
19887	7.860535	4.863574	-3.029556	-0.005345	0.008982	0.000345	122.259615	-54.160304	-71.088282
19888	7.843295	4.902143	-3.026341	-0.009324	0.006548	0.001530	122.255404	-54.163043	-71.089984
19889	7.807568	4.855207	-3.034252	-0.002392	0.005675	0.002760	122.256805	-54.163822	-71.093400
19890	7.830004	4.849311	-3.025438	-0.001549	0.005817	-0.000574	122.256649	-54.165315	-71.094606
19891	7.874630	4.837550	-3.008380	-0.000320	0.006210	0.001784	122.261078	-54.165705	-71.105812
19892	7.839533	4.869482	-3.034642	0.000009	0.003482	0.000250	122.263738	-54.166880	-71.109389
19893	7.857687	4.865131	-3.085672	-0.000156	0.004846	0.001017	122.266729	-54.166588	-71.114531
19894	7.875528	4.871692	-3.056354	-0.002614	0.004061	-0.003698	122.265828	-54.166023	-71.115567
19895	7.866459	4.851581	-3.045860	0.001916	0.005381	0.000041	122.273054	-54.164986	-71.116943
19896	7.871081	4.839229	-3.066126	-0.000156	0.004846	0.001017	122.275041	-54.166941	-71.119795
19897	7.849213	4.890059	-3.042810	-0.000707	0.005960	-0.003907	122.269602	-54.164819	-71.106745
19898	7.853223	4.843875	-3.013835	0.000522	0.006353	-0.001549	122.269872	-54.165989	-71.106994
19899	7.844831	4.902672	-3.021499	0.004484	0.001824	-0.003234	122.278154	-54.162326	-71.109379
19900	7.849001	4.845621	-3.073258	0.006225	0.005088	-0.002676	122.282070	-54.162559	-71.110084
19901	7.844538	4.857992	-3.052544	0.004657	0.003942	-0.003751	122.282574	-54.160164	-71.111746
19902	7.858047	4.866122	-3.083190	0.004657	0.003942	-0.003751	122.285901	-54.159523	-71.112836
19903	7.862463	4.854138	-3.103419	-0.000194	0.008831	-0.005708	122.278628	-54.157538	-71.102305
19904	7.853628	4.879041	-3.061487	0.005012	0.011659	-0.004534	122.276644	-54.158876	-71.096593
19905	7.871660	4.875109	-3.112233	-0.001936	0.005567	-0.006266	122.277060	-54.155224	-71.108003
19906	7.826775	4.853095	-3.079062	0.002939	0.011124	-0.003558	122.274667	-54.156868	-71.103250
19907	7.831600	4.885914	-3.067717	-0.000527	0.011560	-0.004175	122.267625	-54.156035	-71.083836
19908	7.866991	4.854301	-3.040148	-0.000362	0.010196	-0.004941	122.263374	-54.156721	-71.079113
19909	7.840450	4.872811	-3.026921	-0.002600	0.011025	-0.003200	122.257808	-54.156513	-71.071613
19910	7.845221	4.905742	-3.015496	-0.004340	0.007761	-0.003759	122.253411	-54.157024	-71.069524
19911	7.840734	4.873469	-3.025123	-0.005351	0.008982	0.000341	122.250349	-54.157891	-71.061372
19912	7.863120	4.867759	-3.016099	-0.007438	0.001482	0.000815	122.250328	-54.158696	-71.066871
19913	7.818885	4.879707	-3.031911	-0.006746	0.009954	-0.001251	122.240253	-54.159299	-71.056502
19914	7.827932	4.855466	-3.072377	0.001364	0.006497	-0.004882	122.239492	-54.158874	-71.054868
19915	7.854623	4.837634	-3.084161	-0.000875	0.007326	-0.003141	122.236007	-54.157838	-71.049997
19916	7.841059	4.829906	-3.052940	0.001024	0.005744	-0.003599	122.236098	-54.157802	-71.049659
19917	7.864020	4.903204	-3.062109	0.002763	0.009008	-0.003039	122.231228	-54.157505	-71.030083
19918	7.850381	4.850433	-3.062122	0.003984	0.005919	-0.000931	122.234020	-54.158813	-71.030989
19919	7.859163	4.881516	-2.991728	0.002924	0.004162	-0.004056	122.231548	-54.156442	-71.038139
19920	7.850026	4.861428	-2.981365	0.004662	0.007427	-0.003497	122.232623	-54.156966	-71.036453
19921	7.805634	4.873176	-2.997928	0.005878	0.000855	-0.001638	122.235745	-54.154534	-71.032880
19922	7.849958	4.861540	-2.981363	0.000679	0.001507	-0.002566	122.238896	-54.153697	-71.036569
19923	7.854252	4.849481	-3.002117	0.002912	-0.002804	-0.004556	122.245560	-54.148351	-71.039291
19924	7.840339	4.841622	-2.971999	0.011916	-0.003137	-0.004293	122.257533	-54.145253	-71.045914
19925	7.840520	4.875635	-3.022186	0.015375	-0.007054	-0.003925	122.271277	-54.139386	-71.064152
19926	7.844046	4.829073	-2.995077	0.021251	-0.006199	-0.005564	122.290104	-54.134732	-71.072636
19927	7.852476	4.849305	-3.007043	0.022249	-0.014385	-0.010160	122.313061	-54.123268	-71.078487
19928	7.869779	4.844917	-3.060479	0.027117	-0.008824	-0.007453	122.336197	-54.116888	-71.088140
19929	7.847008	4.895513	-3.039727	0.023982	-0.011118	-0.009602	122.357304	-54.106710	-71.096663
19930	7.877790	4.899280	-3.123765	0.021020	-0.011296	-0.012269	122.376546	-54.097233	-71.105818
19931	7.818968	4.903280	-3.111269	0.014984	-0.007304	-0.009615	122.391652	-54.088146	-71.112297
19932	7.863083	4.881058	-3.176028	0.008943	-0.006796	-0.007209	122.403103	-54.082493	-71.120376
19933	7.862613	4.881343	-3.176753	0.007049	-0.001732	-0.006505	122.412228	-54.076494	-71.118855
19934	7.799699	4.852769	-3.173361	0.003251	0.001430	-0.005592	122.415611	-54.074145	-71.120994
19935	7.875341	4.855874	-3.158313	0.005165	0.010297	-0.005308	122.417182	-54.072358	-71.103258
19936	7.835418	4.855612	-3.194861	0.004447	0.012772	-0.009468	122.412042	-54.071614	-71.094020
19937	7.821741	4.848360	-3.163302	0.005122	0.014278	-0.012036	122.398657	-54.068521	-71.067487
19938	7.830385	4.880360	-3.092097	0.001660	0.018193	-0.012407	122.387047	-54.068015	-71.052228
19939	7.830252	4.836513	-3.121573	-0.003367	0.020958	-0.013853	122.365349	-54.066030	-71.028023
19940	7.870157	4.838434	-3.082440	-0.003199	0.023077	-0.014372	122.346856	-54.066063	-71.007701
19941	7.821216	4.863606	-3.076604	-0.003033	0.021713	-0.015137	122.329882	-54.062878	-70.992261
19942	7.807589	4.856896	-3.043955	-0.005273	0.022541	-0.013398	122.310974	-54.063207	-70.972884
19943	7.811979	4.890976	-3.031555	-0.011365	0.016579	-0.018464	122.286130	-54.057565	-70.940254
19944	7.824711	4.866616	-3.011311	-0.009972	0.015611	-0.016870	122.267691	-54.054081	-70.924780
19945	7.864780	4.902909	-3.021529	-0.010650	0.014105	-0.014303	122.252550	-54.049189	-70.929303
19946	7.820046	4.871036	-3.067810	-0.006679	0.013064	-0.015731	122.238189	-54.045470	-70.916532
19947	7.841821	4.911691	-3.026988	-0.013949	0.009688	-0.015937	122.223816	-54.038288	-70.915663
19948	7.850491	4.888656	-3.066746	-0.012725	0.010084	-0.013578	122.208899	-54.034696	-70.906479
19949	7.845529	4.902504	-3.044724	-0.009980	0.012132	-0.017117	122.197692	-54.027478	-70.900304
19950	7.822775	4.910082	-3.051605	-0.010871	0.012491	-0.020759	122.179225	-54.021132	-70.885411
19951	7.849051	4.893671	-3.062432	-0.007025	0.012314	-0.014446	122.157639	-54.016522	-70.876146
19952	7.853142	4.927795	-3.050531	-0.009648	0.012888	-0.018400	122.140596	-54.011433	-70.862150
19953	7.803578	4.953403	-3.045291	-0.009310	0.010160	-0.019931	122.126577	-54.002505	-70.844538
19954	7.842802	4.911178	-3.037763	-0.011045	0.010375	-0.020242	122.109653	-53.995749	-70.831670
19955	7.819993	4.918819	-3.044658	-0.015358	0.010659	-0.017533	122.090555	-53.988338	-70.812724
19956	7.846229	4.902596	-3.055381	-0.011556	0.010987	-0.018193	122.073797	-53.982756	-70.800417
19957	7.818870	4.922452	-3.041669	-0.017262	0.008755	-0.017328	122.052527	-53.975408	-70.785937
19958	7.818259	4.924353	-3.040162	-0.019163	0.006850	-0.017123	122.034625	-53.969081	-70.777610
19959	7.822167	4.914220	-3.059093	-0.023693	0.009004	-0.020622	122.014637	-53.959217	-70.763512
19960	7.808359	4.942505	-3.075643	-0.024541	0.008858	-0.017290	121.992260	-53.953411	-70.753449
19961	7.847672	4.900661	-3.067533	-0.025770	0.008465	-0.019651	121.970459	-53.944213	-70.747429
19962	7.838379	4.916937	-3.104566	-0.035112	0.004539	-0.018895	121.944255	-53.936310	-70.740121
19963	7.819975	4.957807	-3.099896	-0.037036	0.013085	-0.017935	121.908382	-53.929581	-70.716423
19964	7.832692	4.934188	-3.078673	-0.037714	0.011574	-0.015372	121.877463	-53.925514	-70.705120
19965	7.854771	4.886021	-3.098596	-0.039799	0.014517	-0.014148	121.838681	-53.921377	-70.675926
19966	7.823121	4.918688	-3.062233	-0.044518	0.021522	-0.016624	121.796700	-53.919695	-70.655759
19967	7.840555	4.927597	-3.029619	-0.044127	0.014798	-0.011442	121.749270	-53.917379	-70.621374
19968	7.836030	4.897548	-3.036529	-0.046105	0.023865	-0.017447	121.704458	-53.915981	-70.598829
19969	7.817528	4.904215	-2.981388	-0.050913	0.014295	-0.013460	121.655548	-53.912289	-70.566695
19970	7.840150	4.935240	-3.018207	-0.051778	0.017628	-0.009872	121.614773	-53.912689	-70.553166
19971	7.857666	4.944170	-2.985112	-0.056487	0.017671	-0.012858	121.571857	-53.909400	-70.533303
19972	7.781948	4.943570	-2.996341	-0.049550	0.016819	-0.011609	121.532190	-53.908694	-70.519560
19973	7.813399	4.915923	-3.025582	-0.051795	0.014155	-0.010131	121.491125	-53.905900	-70.503814
19974	7.795005	4.922055	-2.970658	-0.050241	0.015306	-0.009048	121.453125	-53.905980	-70.492618
19975	7.826135	4.938996	-2.968639	-0.043516	0.016347	-0.013999	121.415069	-53.901999	-70.474680
19976	7.808059	4.979472	-2.963171	-0.040871	0.008793	-0.010569	121.386184	-53.899379	-70.468116
19977	7.803465	4.949107	-2.971019	-0.037978	0.016470	-0.014339	121.345216	-53.895618	-70.435581
19978	7.807963	4.939112	-2.988720	-0.033106	0.015067	-0.012121	121.315930	-53.894101	-70.423009
19979	7.838696	5.000177	-2.956032	-0.027895	0.014425	-0.011183	121.289281	-53.890927	-70.392353
19980	7.821040	4.995583	-2.982619	-0.029798	0.012518	-0.010989	121.264065	-53.889196	-70.382468
19981	7.811881	4.976810	-2.970336	-0.030475	0.010995	-0.008432	121.239488	-53.886435	-70.378321
19982	7.820882	4.998829	-2.977592	-0.034307	0.014148	-0.007513	121.212011	-53.886884	-70.368836
19983	7.816603	4.967989	-2.985582	-0.036051	0.014365	-0.007826	121.178638	-53.885592	-70.341213
19984	7.843615	4.951753	-2.995002	-0.030852	0.017205	-0.006619	121.151442	-53.887377	-70.329620
19985	7.830081	4.944714	-2.961657	-0.033430	0.013773	-0.003871	121.124711	-53.887703	-70.314415
19986	7.808029	4.951886	-2.967336	-0.032584	0.013941	-0.007200	121.098477	-53.888228	-70.305242
19987	7.817146	4.973879	-2.974334	-0.034504	0.015518	-0.006740	121.074766	-53.886985	-70.295736
19988	7.808218	4.955032	-2.961580	-0.038149	0.013826	-0.006863	121.045563	-53.887634	-70.286831
19989	7.817324	4.977191	-2.968319	-0.041972	0.013495	-0.006213	121.008462	-53.887238	-70.265316
19990	7.831199	4.987421	-2.995575	-0.047873	0.012616	-0.004599	120.975407	-53.888634	-70.258543
19991	7.795304	4.986704	-2.969999	-0.054490	0.010762	-0.007403	120.933801	-53.886708	-70.237809
19992	7.827011	4.959035	-2.999521	-0.047392	0.015511	-0.006377	120.898344	-53.888075	-70.227723
19993	7.840283	4.934916	-2.977531	-0.051789	0.019817	-0.010373	120.854970	-53.886906	-70.202230
19994	7.809819	4.957202	-3.020859	-0.048990	0.017858	-0.007192	120.816683	-53.888550	-70.189774
19995	7.822612	4.977513	-2.966999	-0.049728	0.020375	-0.011334	120.770558	-53.887276	-70.155624
19996	7.831696	5.000393	-2.972559	-0.049578	0.022504	-0.011833	120.726924	-53.887983	-70.136962
19997	7.849738	4.964625	-2.970788	-0.055330	0.023749	-0.010724	120.680223	-53.887410	-70.097258
19998	7.773215	5.052575	-2.918323	-0.049578	0.019029	-0.012111	120.638826	-53.886944	-70.081354
19999	7.889371	4.970073	-2.924446	-0.061807	0.024033	-0.014033	120.589828	-53.884694	-70.046718
20000	7.822151	4.955290	-2.896496	-0.056571	0.019905	-0.013369	120.543337	-53.883844	-70.029465
20001	7.830611	5.022722	-2.869725	-0.056941	0.022625	-0.011813	120.491830	-53.883004	-70.039702
20002	7.844158	4.954847	-2.879358	-0.051893	0.016945	-0.017623	120.448328	-53.879175	-70.022834
20003	7.825915	4.995783	-2.872644	-0.054839	0.016217	-0.013337	120.399201	-53.875985	-69.998753
20004	7.813081	4.980575	-2.918784	-0.050506	0.015969	-0.016033	120.357788	-53.872641	-69.983487
20005	7.785747	5.000902	-2.902702	-0.050673	0.013846	-0.015538	120.311908	-53.867773	-69.955845
20006	7.843473	5.000867	-2.912637	-0.055894	0.011017	-0.016769	120.270473	-53.862618	-69.944378
20007	7.806989	5.000699	-2.887127	-0.048766	0.012280	-0.016001	120.237256	-53.855758	-69.923910
20008	7.816182	4.979795	-2.925384	-0.052760	0.009820	-0.014866	120.199200	-53.851189	-69.914395
20009	7.832345	5.032789	-2.860529	-0.051420	0.012909	-0.019957	120.158472	-53.843034	-69.885884
20010	7.828204	5.038664	-2.916608	-0.053670	0.010231	-0.018508	120.118196	-53.836768	-69.874259
20011	7.808929	5.044589	-2.861775	-0.055608	0.011809	-0.018042	120.069959	-53.830050	-69.846360
20012	7.831266	5.077082	-2.897699	-0.059475	0.014960	-0.017109	120.023707	-53.825822	-69.831453
20013	7.799697	5.065281	-2.892414	-0.061910	0.013637	-0.014880	119.973374	-53.821042	-69.814544
20014	7.834694	5.036093	-2.861722	-0.065262	0.016207	-0.016000	119.923400	-53.817704	-69.799140
20015	7.834948	4.995400	-2.889412	-0.063745	0.017953	-0.021868	119.873144	-53.809792	-69.783840
20016	7.825398	4.978310	-2.875338	-0.065846	0.017403	-0.020912	119.820127	-53.804336	-69.765076
20017	7.802668	4.987462	-2.879475	-0.059176	0.012279	-0.018675	119.772595	-53.796992	-69.755765
20018	7.837262	5.037897	-2.865154	-0.056244	0.013037	-0.022955	119.727269	-53.789258	-69.739716
20019	7.827555	5.020741	-2.851561	-0.063620	0.016623	-0.022649	119.674458	-53.781015	-69.698486
20020	7.831065	5.056477	-2.835590	-0.066734	0.013743	-0.017884	119.624629	-53.775986	-69.684300
20021	7.772331	5.062400	-2.817559	-0.070249	0.014186	-0.018516	119.571234	-53.769044	-69.669307
20022	7.807952	5.068923	-2.834751	-0.073550	0.012657	-0.012968	119.520149	-53.766142	-69.658400
20023	7.784666	5.042380	-2.790506	-0.074429	0.009602	-0.016912	119.468036	-53.758701	-69.650889
20024	7.780006	5.013444	-2.797743	-0.068855	0.009731	-0.017232	119.420003	-53.752834	-69.640434
20025	7.796728	5.022148	-2.764571	-0.060939	0.004955	-0.012634	119.378526	-53.746527	-69.616989
20026	7.827172	5.039937	-2.762165	-0.057297	0.003800	-0.019754	119.340200	-53.737724	-69.610355
20027	7.836071	5.020011	-2.801001	-0.055371	0.002234	-0.020225	119.307657	-53.725898	-69.627440
20028	7.798946	5.019806	-2.776451	-0.050985	-0.001475	-0.023227	119.275238	-53.713873	-69.623646
20029	7.819651	5.096843	-2.780731	-0.050169	0.002220	-0.026240	119.237631	-53.699885	-69.604349
20030	7.761771	5.015419	-2.830072	-0.046860	0.000293	-0.032094	119.203016	-53.683915	-69.594898
20031	7.794617	5.030606	-2.769051	-0.048590	-0.002966	-0.032721	119.167248	-53.665267	-69.579105
20032	7.805618	5.087567	-2.764756	-0.046071	-0.012066	-0.035877	119.140088	-53.643947	-69.578344
20033	7.798489	5.103309	-2.742079	-0.050523	-0.007710	-0.039833	119.107395	-53.620010	-69.567074
20034	7.774005	5.113553	-2.748710	-0.050986	-0.014101	-0.038404	119.077880	-53.596855	-69.566879
20035	7.807043	5.085591	-2.721450	-0.046783	-0.016449	-0.040622	119.052069	-53.570310	-69.546445
20036	7.792593	4.993433	-2.755896	-0.046759	-0.019926	-0.040938	119.028004	-53.544263	-69.550008
20037	7.807641	4.923921	-2.711169	-0.034862	-0.021579	-0.044431	119.001479	-53.515632	-69.530669
20038	7.813901	4.869742	-2.706124	-0.015429	-0.027493	-0.056005	118.994838	-53.479933	-69.533583
20039	7.854923	4.899236	-2.739204	0.008474	-0.028001	-0.070434	118.992777	-53.435844	-69.496573
20040	7.825212	4.834964	-2.795129	0.015931	-0.031595	-0.085478	118.995837	-53.384235	-69.489198
20041	7.828924	4.898540	-2.855600	0.029931	-0.029211	-0.104329	118.999295	-53.322168	-69.442626
20042	7.761001	4.911845	-2.905427	0.038180	-0.026262	-0.115102	119.000504	-53.257194	-69.417030
20043	7.748462	5.010953	-2.903412	0.038440	-0.028282	-0.123646	118.995548	-53.186659	-69.349362
20044	7.753605	5.036956	-2.856941	0.024892	-0.030603	-0.128523	118.987183	-53.113751	-69.321271
20045	7.752324	4.955517	-2.866170	0.012539	-0.029099	-0.130712	118.963249	-53.039766	-69.269207
20046	7.827652	4.799118	-2.844834	0.021798	-0.036994	-0.138797	118.953748	-52.959923	-69.241863
20047	7.858909	4.810546	-2.811339	0.025886	-0.038671	-0.162698	118.934321	-52.867173	-69.174113
20048	7.850570	4.851379	-2.944602	0.046719	-0.039844	-0.187593	118.923350	-52.762062	-69.126930
20049	7.846616	4.965864	-2.974659	0.072001	-0.029942	-0.215522	118.904678	-52.645547	-69.013293
20050	7.785285	4.967429	-2.928353	0.072941	-0.031686	-0.227389	118.889357	-52.522717	-68.941571
20051	7.721209	5.049484	-2.897248	0.063688	-0.034905	-0.242701	118.855161	-52.391976	-68.862225
20052	7.695179	5.169535	-2.875775	0.033428	-0.036394	-0.254781	118.811157	-52.254048	-68.782613
20053	7.727394	5.134647	-2.895663	0.009420	-0.033322	-0.262457	118.736874	-52.114156	-68.644959
20054	7.640990	5.209838	-3.030429	-0.002691	-0.026158	-0.273822	118.659898	-51.969362	-68.549473
20055	7.626751	5.195232	-2.984020	-0.007972	-0.021220	-0.275713	118.557324	-51.827467	-68.363757
20056	7.641163	5.268478	-3.034429	0.003737	-0.017654	-0.287160	118.475303	-51.678101	-68.256782
20057	7.530278	5.245293	-3.091577	0.002752	-0.000958	-0.284349	118.368802	-51.536765	-68.069270
20058	7.595267	5.372767	-3.101970	0.030074	-0.005411	-0.276854	118.299071	-51.395719	-67.958284
20059	7.590029	5.453876	-3.020796	0.028623	0.003409	-0.264373	118.216285	-51.264979	-67.767813
20060	7.623794	5.495407	-2.993566	0.022776	0.010199	-0.248705	118.143308	-51.142190	-67.657607
20061	7.577319	5.692823	-2.871265	0.003638	0.013701	-0.230920	118.042340	-51.032928	-67.420075
20062	7.451183	5.665601	-2.874800	-0.013675	0.015653	-0.228330	117.952976	-50.921699	-67.315307
20063	7.431395	5.585840	-2.907757	-0.010998	0.016585	-0.232618	117.849386	-50.810957	-67.142217
20064	7.395863	5.539449	-2.878170	-0.000100	0.015733	-0.225064	117.769885	-50.701193	-67.039802
20065	7.477194	5.637762	-2.868933	0.010320	0.016092	-0.207699	117.681954	-50.604386	-66.850245
20066	7.450061	5.871102	-2.704123	-0.019640	0.025272	-0.190690	117.597399	-50.514418	-66.755486
20067	7.483933	5.795586	-2.868984	-0.023520	0.020557	-0.174367	117.494902	-50.436710	-66.581936
20068	7.260648	5.734281	-2.826106	-0.028717	0.013971	-0.152181	117.425110	-50.363153	-66.512861
20069	7.327696	5.685278	-2.772645	-0.008471	0.002526	-0.136237	117.361717	-50.298661	-66.330746
20070	7.477911	5.555624	-2.770908	0.032878	0.007446	-0.125304	117.340116	-50.236985	-66.278299
20071	7.569170	5.594420	-2.877950	0.083490	0.017308	-0.107290	117.332615	-50.190142	-66.110225
20072	7.505783	5.774327	-2.849297	0.115141	0.012946	-0.093450	117.364966	-50.146128	-66.066576
20073	7.339373	5.959862	-2.824825	0.114947	0.017106	-0.085395	117.382188	-50.110628	-65.953320
20074	7.308612	6.011113	-2.805198	0.070680	0.010401	-0.076059	117.396124	-50.074815	-65.918822
20075	7.375264	5.816046	-2.882500	0.055342	0.014619	-0.042166	117.397592	-50.059618	-65.824821
20076	7.270614	5.864481	-2.795291	0.034799	0.005277	-0.016108	117.412968	-50.052957	-65.818994
20077	7.348745	5.897466	-2.849957	0.006203	-0.003691	-0.002690	117.418226	-50.050279	-65.793950
20078	7.424317	5.796915	-2.890119	0.002841	0.002234	0.011218	117.425742	-50.056714	-65.801752
20079	7.320341	5.661095	-2.960013	0.012298	0.005849	0.017504	117.439576	-50.065134	-65.810870
20080	7.435645	5.739085	-2.944146	0.011521	-0.002826	0.013751	117.455946	-50.071516	-65.823730
20081	7.347932	5.869076	-2.782603	-0.008218	-0.011777	0.012744	117.467443	-50.072617	-65.848031
20082	7.379055	5.600061	-2.857363	-0.015284	0.004353	0.010151	117.462963	-50.079060	-65.853730
20083	7.359120	5.595090	-2.945524	-0.002785	0.000442	0.019789	117.472456	-50.086986	-65.867706
20084	7.324499	5.696747	-2.867915	-0.006661	-0.002176	0.020921	117.480295	-50.097174	-65.883022
20085	7.387382	5.721113	-2.950496	-0.016806	-0.010985	0.025899	117.490781	-50.105153	-65.908927
20086	7.400104	5.670238	-2.863108	-0.037398	-0.014568	0.028033	117.490807	-50.115673	-65.937010
20087	7.383969	5.553833	-2.946946	-0.036787	-0.019250	0.017923	117.492368	-50.117327	-65.966891
20088	7.414182	5.529809	-3.039702	-0.027133	-0.017649	0.015671	117.496247	-50.120745	-65.992325
20089	7.408771	5.541133	-3.018176	-0.038436	-0.015477	0.008892	117.491659	-50.118850	-66.015001
20090	7.444190	5.615573	-3.075597	-0.039575	-0.011582	0.005556	117.481519	-50.118730	-66.031456
20091	7.398950	5.625273	-3.090257	-0.057227	-0.009982	0.002442	117.460845	-50.114948	-66.047378
20092	7.447622	5.575093	-3.102923	-0.076722	-0.002605	-0.001160	117.421837	-50.113788	-66.053951
20093	7.364872	5.479933	-3.068578	-0.083245	-0.008108	-0.004287	117.383007	-50.107100	-66.065593
20094	7.478855	5.493959	-3.012136	-0.078548	-0.018585	-0.007914	117.350552	-50.098298	-66.082072
20095	7.425179	5.484633	-3.015787	-0.085788	-0.007360	-0.017254	117.305778	-50.085192	-66.087880
20096	7.431125	5.510245	-3.020957	-0.084780	-0.006932	-0.029604	117.255861	-50.068418	-66.086252
20097	7.440741	5.532861	-2.966610	-0.079432	-0.005268	-0.029151	117.209732	-50.049770	-66.085567
20098	7.474165	5.611868	-3.020505	-0.075589	0.004469	-0.038673	117.155351	-50.031353	-66.071244
20099	7.400775	5.605461	-2.971576	-0.077193	0.010417	-0.048168	117.095088	-50.007200	-66.050361
20100	7.458223	5.645657	-2.968475	-0.081895	0.006903	-0.051475	117.031702	-49.982863	-66.028990
20101	7.464775	5.705717	-2.960551	-0.087724	0.007928	-0.050349	116.966272	-49.956894	-66.009251
20102	7.464171	5.744532	-2.942321	-0.101626	0.018408	-0.046976	116.886078	-49.937804	-65.980676
20103	7.456291	5.830245	-2.949380	-0.103081	0.029903	-0.041897	116.801322	-49.921656	-65.947237
20104	7.366799	5.817052	-2.926597	-0.097229	0.031665	-0.035741	116.719124	-49.911678	-65.912737
20105	7.345427	5.790617	-2.878889	-0.099824	0.039314	-0.033346	116.633154	-49.902287	-65.875237
20106	7.330049	5.752750	-2.852262	-0.090209	0.039415	-0.027359	116.552867	-49.898523	-65.837970
20107	7.277067	5.783584	-2.759172	-0.075586	0.045371	-0.027537	116.478914	-49.893603	-65.797971
20108	7.369158	5.802173	-2.706806	-0.054891	0.050191	-0.014116	116.416330	-49.899319	-65.757390
20109	7.284762	5.918288	-2.697064	-0.057628	0.044248	-0.001945	116.361121	-49.907193	-65.728444
20110	7.275316	5.862691	-2.833886	-0.041968	0.050350	0.009287	116.312880	-49.924912	-65.696944
20111	7.302167	5.851604	-2.900120	-0.029236	0.060532	0.016905	116.269655	-49.946564	-65.662399
20112	7.385954	5.886969	-2.807257	-0.010683	0.053237	0.040593	116.246951	-49.981071	-65.640863
20113	7.359653	5.974629	-2.744036	-0.038606	0.047198	0.057844	116.218808	-50.020256	-65.633090
20114	7.386305	5.895072	-2.834319	-0.031515	0.065408	0.072953	116.186385	-50.074461	-65.614473
20115	7.391225	5.926152	-2.874995	-0.019032	0.077512	0.089146	116.160185	-50.137341	-65.594673
20116	7.398814	5.958620	-2.775125	-0.030933	0.074323	0.108279	116.133168	-50.211951	-65.582694
20117	7.376391	5.793932	-2.836737	-0.030736	0.076344	0.122530	116.111028	-50.291631	-65.576959
20118	7.316044	5.736744	-2.738363	-0.031194	0.081775	0.131417	116.086144	-50.380015	-65.567973
20119	7.258573	5.671731	-2.721186	-0.015504	0.077201	0.150718	116.080667	-50.474469	-65.572435
20120	7.301603	5.709729	-2.703307	0.007840	0.088495	0.159831	116.082563	-50.579163	-65.569194
20121	7.399373	5.722438	-2.630428	0.006679	0.082421	0.172297	116.093238	-50.685905	-65.578205
20122	7.427139	5.751869	-2.642498	-0.002105	0.077568	0.185541	116.104268	-50.801070	-65.594128
20123	7.357196	5.709007	-2.644305	-0.001853	0.075548	0.191700	116.120517	-50.916127	-65.616520
20124	7.399869	5.604014	-2.696452	-0.011808	0.071909	0.194336	116.132490	-51.034382	-65.640761
20125	7.146165	5.531477	-2.931219	0.005190	0.076349	0.199480	116.155169	-51.153282	-65.666350
20126	8.058740	5.242848	-2.790474	-0.199092	-0.037851	0.165168	116.121056	-51.228822	-65.769082
20127	7.303856	5.880043	-2.647404	-0.000390	0.083006	0.206216	116.138352	-51.353043	-65.791711
20128	7.727646	5.253545	-2.667027	-0.041567	0.032883	0.202887	116.161493	-51.465827	-65.851908
20129	7.783625	5.007980	-2.841231	-0.081949	0.015355	0.209401	116.177332	-51.574515	-65.932251
20130	7.840952	5.608761	-2.459498	-0.069632	0.097616	0.170600	116.132433	-51.687035	-65.925990
20131	7.283475	5.339460	-2.583855	-0.009611	0.040237	0.139799	116.151370	-51.766503	-65.957154
20132	7.789081	5.057700	-2.642855	-0.118256	0.017052	0.130999	116.118498	-51.838317	-66.001663
20133	7.652537	5.246216	-2.635346	-0.048893	0.021240	0.119688	116.121132	-51.902399	-66.040871
20134	8.664637	5.184485	-2.702608	-0.045970	0.026896	0.136996	116.125299	-51.979783	-66.079736
20135	6.081259	5.241977	-2.517734	-0.051011	0.126494	0.175274	116.075635	-52.098964	-66.054053
20136	8.515278	5.221878	-2.564796	0.001822	-0.010617	0.065908	116.109112	-52.130325	-66.095268
20137	6.998554	4.986912	-2.934046	-0.076725	-0.046864	0.011639	116.106404	-52.121471	-66.147862
20138	8.318529	5.634477	-2.492504	-0.012621	0.012927	0.034692	116.105938	-52.142698	-66.156554
20139	7.904571	5.086994	-2.773116	0.050863	0.087090	0.081610	116.110474	-52.203433	-66.125901
20140	7.509229	5.289130	-2.643681	-0.003791	0.072247	0.063727	116.085146	-52.254547	-66.096728
20141	7.485195	5.299943	-2.768945	0.044680	0.022530	0.020275	116.109074	-52.267500	-66.094858
20142	7.805412	5.322635	-2.610606	-0.028105	0.001821	-0.006034	116.093894	-52.264965	-66.096146
20143	7.615124	5.239362	-2.787776	0.084736	0.061548	0.014713	116.113094	-52.285175	-66.058814
20144	7.651107	5.358785	-2.529383	-0.002316	0.007231	-0.020055	116.104523	-52.276786	-66.049778
20145	7.690194	5.209773	-2.581758	0.037994	0.041294	-0.012052	116.101534	-52.278250	-66.018456
20146	7.702782	5.297624	-2.763973	0.021042	0.040525	0.003481	116.091869	-52.290359	-65.991120
20147	8.599126	5.450606	-2.485841	0.068824	0.119185	-0.011844	116.054876	-52.311487	-65.894280
20148	6.593945	5.599783	-2.812203	-0.083983	0.120369	-0.030028	115.920849	-52.326348	-65.785854
20149	7.728662	5.335982	-2.640187	0.007119	0.051027	-0.050808	115.880894	-52.310290	-65.730087
20150	7.555884	5.554922	-2.684195	0.071577	0.070795	-0.014148	115.874198	-52.320809	-65.669927
20151	7.573180	5.447085	-2.654776	0.090039	-0.002882	0.002887	115.935051	-52.319171	-65.681331
20152	7.796042	5.615907	-2.573606	0.087810	0.048500	0.023953	115.964901	-52.343774	-65.655603
20153	7.557432	5.440296	-2.607518	0.067326	0.051009	0.031366	115.986273	-52.369700	-65.634165
20154	7.830737	5.367191	-2.582090	0.089621	0.077184	0.037129	116.002267	-52.408300	-65.589656
20155	7.501469	5.551241	-2.716010	0.098753	0.055219	0.031084	116.038934	-52.435195	-65.564425
20156	7.737304	5.287484	-2.574713	0.079651	0.029207	0.048468	116.085037	-52.467583	-65.565135
20157	7.668474	5.532176	-2.585255	0.073119	0.054138	0.044088	116.112489	-52.500562	-65.546899
20158	7.755913	5.330056	-2.570883	0.061261	0.071166	0.046248	116.119217	-52.542385	-65.511270
20159	7.562772	5.330089	-2.541764	0.081329	0.074848	0.061207	116.142328	-52.590042	-65.481442
20160	7.648418	5.317487	-2.545095	0.094839	0.043529	0.067104	116.193747	-52.635623	-65.477890
20161	7.971827	5.408609	-2.339078	0.114287	0.099935	0.089357	116.228518	-52.704037	-65.438965
20162	7.465588	5.226747	-2.502259	0.075232	0.069674	0.084042	116.256753	-52.764946	-65.420403
20163	7.811995	5.273306	-2.379659	0.106424	0.053332	0.078232	116.314790	-52.816049	-65.416141
20164	7.623605	5.300753	-2.484042	0.107844	0.019925	0.066798	116.389722	-52.855469	-65.432755
20165	7.835067	5.191841	-2.461129	0.101622	0.016027	0.055318	116.462357	-52.885283	-65.450772
20166	7.605541	5.183989	-2.559148	0.113027	-0.006759	0.047699	116.552064	-52.908057	-65.482174
20167	7.780694	5.066727	-2.659689	0.138404	-0.045214	0.050561	116.686084	-52.919525	-65.550671
20168	7.834231	5.260542	-2.678709	0.160779	-0.003447	0.054943	116.803541	-52.946777	-65.582548
20169	7.678943	5.219962	-2.713878	0.188615	0.025786	0.052891	116.919326	-52.977771	-65.591863
20170	7.756326	5.141318	-2.748597	0.141927	-0.020842	0.035455	117.031240	-52.990471	-65.630305
20171	7.741315	5.356522	-2.654949	0.164969	-0.005663	0.038082	117.149776	-53.005504	-65.660494
20172	7.697889	5.324429	-2.633755	0.147792	-0.006376	0.033115	117.254552	-53.020705	-65.685778
20173	7.765758	5.302498	-2.614815	0.146186	-0.001868	0.031808	117.357373	-53.033946	-65.709273
20174	7.631056	5.259504	-2.639933	0.130479	-0.004215	0.035415	117.451671	-53.050830	-65.733848
20175	7.732431	5.209805	-2.652539	0.120464	-0.014860	0.031710	117.549012	-53.060219	-65.769097
20176	7.733705	5.204094	-2.660025	0.113969	-0.020892	0.035464	117.645228	-53.072648	-65.807899
20177	7.756971	5.116623	-2.702034	0.113924	-0.020873	0.035463	117.744025	-53.081872	-65.850534
20178	7.725597	5.097880	-2.768730	0.112025	-0.017165	0.035411	117.836677	-53.095187	-65.886262
20179	7.756522	5.072714	-2.727757	0.127265	-0.009319	0.025884	117.932069	-53.102947	-65.914271
20180	7.734765	5.109538	-2.852661	0.149815	-0.008319	0.030588	118.038768	-53.116124	-65.940480
20181	7.730451	5.191498	-2.797326	0.144713	-0.014698	0.029004	118.148541	-53.124566	-65.973560
20182	7.768153	5.189279	-2.826293	0.125898	-0.010228	0.030465	118.242860	-53.137104	-66.001417
20183	7.828502	5.182446	-2.843507	0.092106	0.019468	0.032411	118.300724	-53.156150	-66.007871
20184	7.740614	5.204696	-2.743539	0.113441	0.020085	0.034727	118.369117	-53.179037	-66.012239
20185	7.863661	5.305655	-2.717280	0.103281	0.027083	0.038155	118.430202	-53.203352	-66.014529
20186	7.648849	5.038579	-2.803400	0.048236	-0.016076	0.012049	118.477382	-53.204936	-66.039060
20187	8.211290	5.309548	-2.630722	0.025803	0.084918	0.038323	118.454950	-53.244898	-65.993215
20188	7.177647	4.897920	-2.970823	0.006592	-0.022921	-0.010378	118.474715	-53.233310	-66.013297
20189	8.179067	4.949357	-2.752683	0.049353	0.005868	0.000085	118.504943	-53.232962	-66.015513
20190	7.458533	4.757661	-3.078694	0.099906	0.023404	0.002088	118.551509	-53.240311	-66.002312
20191	7.541287	5.053841	-2.860002	0.171385	-0.070925	-0.016258	118.697452	-53.210054	-66.062623
20192	8.304662	5.302103	-2.688351	0.142450	-0.027229	-0.019319	118.794563	-53.192724	-66.082099
20193	7.569654	5.254718	-2.900219	0.093363	0.078402	-0.010316	118.797509	-53.206787	-66.019381
20194	7.657087	5.233662	-2.867244	0.087306	-0.047166	-0.038482	118.869282	-53.174309	-66.046675
20195	7.940468	5.246249	-2.772450	0.078360	-0.004713	-0.006050	118.920903	-53.168121	-66.054700
20196	7.788085	5.279661	-2.776537	-0.016331	0.049265	-0.009255	118.879448	-53.176985	-66.014726
20197	7.618851	5.152711	-2.892346	0.002604	0.000550	-0.009946	118.883013	-53.170223	-66.016972
20198	7.805670	5.053698	-2.811774	0.031859	0.007274	0.003615	118.902056	-53.173913	-66.018085
20199	7.807374	5.165022	-2.818316	-0.006387	0.017063	-0.004166	118.891506	-53.174190	-66.009867
20200	7.440244	4.933826	-2.843145	0.007698	-0.007230	-0.015130	118.899494	-53.164458	-66.014462
20201	7.974974	4.984025	-2.812932	0.004611	-0.096999	-0.020794	118.964722	-53.125114	-66.092905
20202	7.815141	5.030252	-2.742280	-0.016098	-0.046985	-0.034392	118.978480	-53.094689	-66.121767
20203	7.519929	5.151034	-2.695707	0.061417	-0.083483	-0.036154	119.060859	-53.051603	-66.180908
20204	7.894246	5.092991	-2.737991	0.026964	-0.068237	-0.037772	119.112031	-53.013530	-66.225746
20205	7.862163	5.381122	-2.714585	-0.014893	-0.060238	-0.045672	119.131263	-52.972111	-66.260758
20206	7.739672	4.966271	-2.854479	-0.032965	-0.041184	-0.026100	119.134336	-52.947401	-66.288398
20207	7.960678	5.757427	-2.638496	-0.169742	-0.044681	-0.061895	119.048389	-52.902108	-66.302986
20208	7.451628	4.920273	-2.920667	-0.116256	-0.042656	-0.043149	118.998455	-52.868477	-66.324026
20209	7.888403	5.012402	-2.961077	-0.130657	-0.045839	-0.065250	118.934938	-52.821142	-66.338645
20210	7.631848	5.209685	-2.963390	-0.113871	-0.052156	-0.066565	118.884139	-52.773159	-66.356907
20211	7.760419	5.068216	-3.041330	-0.097019	-0.042162	-0.061630	118.838458	-52.729139	-66.369157
20212	7.717213	5.228269	-2.993735	-0.098077	-0.060780	-0.064076	118.803343	-52.680039	-66.395783
20213	7.868125	5.004551	-3.106559	-0.083472	-0.033140	-0.058128	118.760788	-52.640009	-66.402544
20214	7.704689	4.944970	-3.081481	-0.085661	-0.038170	-0.070903	118.715486	-52.593730	-66.407428
20215	7.609119	4.986041	-2.838963	-0.003910	-0.067474	-0.060445	118.740579	-52.543161	-66.441825
20216	7.803966	5.213245	-2.681951	-0.056045	-0.049264	-0.079176	118.716539	-52.489669	-66.452126
20217	7.713617	5.118575	-2.792051	-0.040582	-0.013496	-0.062540	118.684435	-52.452667	-66.441311
20218	7.626160	5.209517	-2.805999	-0.021163	-0.041686	-0.072957	118.677685	-52.404388	-66.448223
20219	7.682328	5.170391	-2.853369	0.009516	-0.050989	-0.078128	118.692991	-52.349781	-66.460340
20220	7.666086	5.045414	-2.902274	0.036836	-0.035865	-0.078398	118.713701	-52.300366	-66.459969
20221	7.628603	5.028905	-3.106793	0.048424	-0.049947	-0.073074	118.752375	-52.248369	-66.473797
20222	7.867022	5.322527	-2.892331	0.038521	-0.036030	-0.078068	118.774209	-52.199074	-66.473626
20223	7.646071	5.209430	-3.092510	0.073722	-0.027609	-0.073157	118.812529	-52.153168	-66.468621
20224	7.704547	4.970316	-3.320033	0.138164	-0.005540	-0.069001	118.874908	-52.116849	-66.447491
20225	7.618949	4.675269	-3.416585	0.271167	-0.005110	-0.060739	119.016538	-52.083528	-66.429857
20226	7.736617	4.793643	-3.062306	0.333478	0.020613	-0.071421	119.172995	-52.053340	-66.386104
20227	7.586616	5.184337	-2.971417	0.369248	0.011820	-0.076867	119.353454	-52.017135	-66.346025
20228	7.753559	5.455318	-2.870027	0.363244	0.031306	-0.084870	119.515145	-51.983406	-66.287230
20229	7.540140	5.593277	-2.825737	0.332378	0.015464	-0.071183	119.674235	-51.950848	-66.247243
20230	7.682881	5.795310	-2.832071	0.209146	0.027622	-0.067504	119.756168	-51.924890	-66.199236
20231	7.481297	5.646519	-2.953614	0.128518	0.020276	-0.057531	119.800174	-51.901136	-66.160625
20232	8.058250	5.598491	-2.819429	0.088503	0.116511	-0.064699	119.757634	-51.901901	-66.042259
20233	7.062682	5.022137	-3.162776	0.046765	0.055765	-0.067724	119.728550	-51.882636	-65.970853
20234	7.447933	5.180873	-3.118838	0.071879	-0.035446	-0.044882	119.780062	-51.850016	-65.984112
20235	7.786261	5.202920	-3.099736	0.111649	-0.030442	-0.051939	119.848384	-51.813993	-65.989479
20236	7.167633	5.180232	-3.123741	0.100774	-0.059092	-0.049892	119.929433	-51.772113	-66.019270
20237	7.606113	5.036382	-3.193893	0.197816	-0.281435	-0.072382	120.197712	-51.654096	-66.216478
20238	8.799946	6.975149	-2.226031	0.135856	0.648709	-0.113618	119.830597	-51.783417	-65.649770
20239	6.418962	4.054141	-4.227926	-0.467294	-0.351459	-0.285032	119.685940	-51.540359	-65.806672
20240	8.276042	4.739852	-3.304391	0.291115	0.099892	0.017226	119.800381	-51.577104	-65.739954
20241	7.371258	5.302670	-3.571855	0.277235	0.025955	0.049751	119.965420	-51.607696	-65.747619
20242	7.929706	5.488676	-3.212205	0.127105	0.042377	-0.026780	120.006115	-51.606307	-65.706749
20243	7.697354	5.378505	-3.152402	0.085560	0.137725	-0.073242	119.947197	-51.607879	-65.568666
20244	7.399853	5.495831	-3.154280	0.008451	0.099718	-0.094921	119.859434	-51.588987	-65.450625
20245	7.742001	4.866453	-3.162854	0.145069	0.153719	-0.045342	119.834931	-51.608323	-65.313258
20246	7.167023	5.978611	-2.948211	0.051567	0.065176	-0.068316	119.803130	-51.592705	-65.235104
20247	7.662092	5.289233	-2.900038	0.004857	0.144327	-0.078656	119.692371	-51.592645	-65.090322
20248	7.716042	5.150303	-3.023442	0.033149	0.093862	-0.077755	119.628717	-51.580326	-64.984970
20249	7.269729	5.328712	-2.904038	0.010393	0.073958	-0.078874	119.565303	-51.559967	-64.896476
20250	7.571095	5.543718	-2.758941	0.088892	0.135001	-0.073978	119.509206	-51.561007	-64.759957
20251	7.547944	5.506216	-2.914275	0.004181	0.026428	-0.063131	119.477824	-51.534991	-64.716930
20252	7.472571	5.724040	-2.770351	0.029360	0.059223	-0.037497	119.448243	-51.532763	-64.657789
20253	7.649347	5.503947	-2.900793	-0.041397	0.043678	-0.020930	119.394921	-51.532581	-64.620125
20254	7.478493	5.158768	-3.149378	0.012647	0.079849	-0.024099	119.347538	-51.542777	-64.550482
20255	7.481367	5.048312	-3.136519	0.055096	0.042835	-0.029780	119.346911	-51.537933	-64.509508
20256	7.488222	5.291587	-3.047520	0.110409	0.066093	-0.029345	119.362329	-51.541631	-64.448535
20257	7.638993	5.518793	-3.052577	0.070585	0.051882	-0.035057	119.363038	-51.536676	-64.397919
20258	8.095507	5.480348	-3.003199	0.076416	0.090437	-0.041731	119.339297	-51.541022	-64.311810
20259	7.094909	5.766937	-2.921170	-0.030384	0.142005	-0.027535	119.228060	-51.565064	-64.192139
20260	7.677015	5.352336	-3.064168	-0.105984	0.012248	-0.026880	119.154249	-51.554836	-64.175555
20261	7.600140	5.169835	-3.144723	-0.028618	0.073358	-0.018466	119.090412	-51.564009	-64.115121
20262	7.510423	5.167337	-2.927063	0.020707	0.084037	-0.021431	119.045814	-51.576470	-64.043169
20263	7.629151	5.313713	-2.886192	0.015428	0.047495	-0.024337	119.021451	-51.575461	-64.000913
20264	7.730902	5.419479	-2.825491	0.004343	0.055102	-0.031743	118.982117	-51.574664	-63.947654
20265	7.353654	5.568606	-2.823605	-0.020968	0.041180	-0.037309	118.936334	-51.565394	-63.904677
20266	7.129851	4.554127	-3.426271	-0.150269	-0.203594	0.019609	118.989684	-51.518539	-64.082882
20267	8.787907	6.014857	-2.593143	0.496593	0.329322	0.055251	119.090964	-51.635771	-63.849107
20268	6.663298	5.393947	-2.830897	0.101760	0.251670	-0.036653	118.981079	-51.687193	-63.634803
20269	8.205944	5.462432	-2.811041	-0.245957	-0.123223	-0.055485	118.904132	-51.623201	-63.716508
20270	7.690332	5.440520	-2.682799	0.017602	0.199524	-0.005174	118.789965	-51.675565	-63.558194
20271	7.056111	5.026911	-3.608467	0.039367	0.073007	-0.001401	118.770893	-51.693084	-63.505278
20272	7.085045	4.922310	-3.089728	0.203689	0.104790	0.010521	118.828758	-51.727097	-63.430436
20273	7.215652	6.663514	-2.620332	-0.042323	-0.133750	0.043036	118.910008	-51.709663	-63.564956
20274	8.725896	5.481320	-3.059396	-0.423302	-0.273328	-0.064150	118.822542	-51.601671	-63.762798
20275	7.293039	5.362266	-3.105161	-0.092204	0.121485	0.009898	118.701434	-51.638098	-63.675842
20276	7.745343	5.481938	-3.022973	-0.046997	0.061605	0.018839	118.646029	-51.664315	-63.639655
20277	7.447183	5.426174	-2.839905	-0.071891	0.074097	0.036155	118.575591	-51.700764	-63.602520
20278	7.518564	5.412779	-2.742997	-0.039186	0.067018	0.044019	118.529808	-51.741086	-63.572924
20279	7.485141	5.484068	-2.555589	-0.033347	0.077051	0.055083	118.485950	-51.787829	-63.541562
20280	7.601619	5.637892	-2.489607	-0.052410	0.065674	0.067047	118.441290	-51.839352	-63.523072
20281	7.498492	5.654589	-2.409215	-0.104660	0.056394	0.073461	118.375954	-51.889726	-63.516412
