// Start Time: Unknown
// Update Rate: 100.0Hz
// Filter Profile: human (46.1)
// Firmware Version: 4.6.0
PacketCounter	Acc_X	Acc_Y	Acc_Z	Gyr_X	Gyr_Y	Gyr_Z	Roll	Pitch	Yaw
40237	9.815456	-0.012038	0.178946	-0.002892	-0.003342	-0.008462	-3.976573	-88.952075	-132.858419
40238	9.799846	-0.031959	0.201286	-0.004510	-0.004804	-0.008796	-9.129763	-88.806837	-127.717320
40239	9.782999	-0.003813	0.187788	-0.005764	-0.006370	-0.010613	-6.550371	-88.883737	-130.298591
40240	9.798623	0.017745	0.164435	-0.005380	-0.006162	-0.005786	-6.404575	-88.887619	-130.447497
40241	9.804243	-0.005173	0.198345	-0.008820	-0.003237	-0.016278	-5.942417	-88.890256	-130.914507
40242	9.804253	-0.003942	0.197879	-0.006128	-0.006265	-0.009130	-5.695606	-88.894358	-131.164876
40243	9.744936	-0.013948	0.251225	-0.007989	-0.006369	-0.014333	-5.291192	-88.898760	-131.573942
40244	9.804284	-0.001440	0.196399	-0.006934	-0.011172	-0.013829	-4.912974	-88.905840	-131.956203
40245	9.815551	-0.003388	0.174027	-0.005540	-0.008039	-0.012054	-4.569092	-88.910811	-132.303321
40246	9.793071	0.004257	0.216121	-0.011448	-0.007623	-0.013559	-4.184882	-88.915759	-132.694160
40247	9.799998	-0.021625	0.195145	-0.005316	-0.009708	-0.013496	-3.788392	-88.921603	-133.093763
40248	9.804348	0.003865	0.193119	-0.007122	-0.005007	-0.017341	-3.274193	-88.925078	-133.612134
40249	9.815607	0.002059	0.170907	-0.009138	-0.010859	-0.011238	-2.941071	-88.931315	-133.950547
40250	9.783146	0.009649	0.179721	-0.005316	-0.009706	-0.013496	-2.543227	-88.937240	-134.351506
40251	9.836875	0.001325	0.180643	-0.007017	-0.007933	-0.012430	-2.152215	-88.941835	-134.746598
40252	9.804408	0.008886	0.189913	-0.003643	-0.003440	-0.011804	-1.791643	-88.944038	-135.109319
40253	9.797018	-0.040990	0.137747	-0.001298	-0.002183	-0.014438	-1.317452	-88.945233	-135.584325
40254	9.794410	0.011633	0.156617	-0.003834	0.002723	-0.015315	-0.841848	-88.943838	-136.062207
40255	9.735132	0.002090	0.210927	0.002192	0.003569	-0.020165	-0.194908	-88.942065	-136.707990
40256	9.697116	-0.010042	0.276056	0.013686	-0.013535	-0.027501	0.671034	-88.949755	-137.566236
40257	9.728234	0.034418	0.228890	0.008922	-0.021160	-0.029900	1.643369	-88.960733	-138.533608
40258	9.793246	0.024821	0.206578	0.013473	-0.032738	-0.032929	2.739311	-88.978756	-139.622005
40259	9.746511	0.010661	0.181900	0.004552	-0.024393	-0.038733	4.075662	-88.989890	-140.956020
40260	9.801872	0.080161	0.198738	0.010825	-0.024900	-0.038716	5.411006	-89.002272	-142.285368
40261	9.813104	0.080018	0.175537	0.001663	-0.010732	-0.022750	6.251655	-89.005276	-143.125117
40262	9.828577	0.102561	0.152279	0.003042	0.000747	-0.011912	6.641101	-89.004083	-143.512880
40263	9.813077	0.082330	0.175952	-0.004759	0.017738	-0.000483	6.717662	-88.992046	-143.592004
40264	9.760821	0.043534	0.211725	-0.006073	0.019714	0.005409	6.467006	-88.981174	-143.344785
40265	9.709772	0.001771	0.192169	0.006023	0.000853	-0.004852	6.791595	-88.978004	-143.665990
40266	9.677293	0.008764	0.201686	0.012698	-0.007794	-0.009074	7.119278	-88.981802	-143.986447
40267	9.749604	0.048364	0.232429	0.016756	-0.020834	-0.010575	7.658793	-88.990953	-144.516500
40268	9.793362	0.040065	0.198519	0.019475	-0.032204	-0.012493	8.221936	-89.008241	-145.068571
40269	9.783364	0.041260	0.162577	0.015092	-0.027098	-0.012262	8.898767	-89.019504	-145.737009
40270	9.831327	0.056929	0.127808	0.012372	-0.015726	-0.010344	9.333178	-89.027464	-146.164402
40271	9.822850	0.009932	0.129637	0.010289	-0.001325	-0.009998	9.817673	-89.024597	-146.642068
40272	9.798835	0.065319	0.137574	0.005887	0.016306	-0.011972	10.121018	-89.014197	-146.942070
40273	9.800382	0.018385	0.175184	0.008665	0.022577	-0.008428	10.368110	-89.000057	-147.184404
40274	9.783311	0.046569	0.164307	0.008002	0.019237	-0.013167	10.679104	-88.987869	-147.490853
40275	9.757776	0.026984	0.156097	0.006799	0.022471	-0.013628	11.094410	-88.973402	-147.904359
40276	9.746515	0.031766	0.179223	0.015182	0.012058	-0.018910	11.616704	-88.964571	-148.418076
40277	9.767757	0.030735	0.191510	0.016930	0.002252	-0.022724	12.317042	-88.960156	-149.105653
40278	9.787408	0.077867	0.167821	0.014384	0.007152	-0.023605	12.996648	-88.953284	-149.777109
40279	9.778949	0.032118	0.171528	0.014566	0.013522	-0.022296	13.699037	-88.942785	-150.473366
40280	9.797352	0.082424	0.203239	0.017658	0.014891	-0.021589	14.241899	-88.931654	-151.006228
40281	9.815589	0.054088	0.163192	0.013976	0.015296	-0.019373	14.837328	-88.918736	-151.594625
40282	9.794285	0.059283	0.153619	0.011222	0.026355	-0.023774	15.325682	-88.900759	-152.076679
40283	9.736264	0.047307	0.156121	0.010766	0.033874	-0.032161	15.982219	-88.877635	-152.725223
40284	9.812835	0.147297	0.352868	-0.004153	0.046139	-0.031779	16.482899	-88.847365	-153.228391
40285	9.856250	0.028004	0.089025	0.046197	-0.020480	-0.020542	17.302279	-88.852886	-154.019521
40286	9.779927	0.045837	0.130290	0.016016	0.025964	-0.024130	17.736507	-88.834751	-154.444634
40287	9.792726	0.075854	0.218465	0.025166	0.015668	-0.026052	18.349730	-88.821768	-155.041868
40288	9.813583	0.119514	0.141740	0.023651	0.024124	-0.017378	18.600559	-88.805735	-155.279147
40289	9.825116	0.073332	0.213718	0.015650	0.039232	-0.012251	18.622234	-88.780339	-155.287029
40290	9.812091	0.125498	0.203301	0.012234	0.042770	-0.010128	18.513222	-88.755467	-155.170853
40291	9.862997	0.089624	0.156175	0.016777	0.039559	-0.004080	18.454391	-88.727779	-155.099555
40292	9.789512	0.054302	0.183328	0.010042	0.060733	-0.002105	18.018787	-88.694467	-154.657906
40293	9.763718	0.112463	0.250480	0.009763	0.057286	-0.008322	17.836091	-88.663317	-154.467575
40294	9.770765	0.085978	0.235613	0.010067	0.047891	-0.006189	17.621047	-88.636266	-154.246504
40295	9.774807	0.110414	0.238607	0.006951	0.042031	-0.001940	17.425968	-88.615921	-154.047783
40296	9.781907	0.082949	0.223087	0.000486	0.049320	0.007118	16.913922	-88.590362	-153.535125
40297	9.807168	0.103213	0.237881	-0.002031	0.041684	0.008446	16.347076	-88.569061	-152.958731
40298	9.760529	0.084245	0.219770	0.006695	0.039537	0.010771	15.850842	-88.549248	-152.458181
40299	9.773315	0.032304	0.238157	0.002634	0.039727	0.008149	15.469695	-88.531315	-152.073822
40300	9.792953	0.076392	0.217647	0.010350	0.034332	0.007223	15.103746	-88.513728	-151.701486
40301	9.814055	0.072825	0.233182	0.002166	0.042756	0.004714	14.857339	-88.492808	-151.455569
40302	9.818123	0.096315	0.236150	0.002067	0.045999	0.006107	14.463658	-88.468529	-151.060261
40303	9.846444	0.065489	0.232341	0.001798	0.042865	0.006198	14.205719	-88.449540	-150.804773
40304	9.856060	0.065045	0.270566	-0.003360	0.060717	0.007142	13.736090	-88.417169	-150.336648
40305	9.776811	0.052575	0.263640	0.005967	0.056794	0.006563	13.298551	-88.390361	-149.892806
40306	9.829077	0.090494	0.235857	0.004527	0.061705	0.007529	12.854273	-88.357362	-149.445489
40307	9.809090	0.045101	0.266506	0.007695	0.072387	0.004639	12.645137	-88.326352	-149.247026
40308	9.740521	0.108266	0.311612	0.004949	0.083780	0.006524	12.162116	-88.280861	-148.760883
40309	9.789827	0.074404	0.323587	0.004951	0.083789	0.006527	11.598285	-88.235945	-148.184596
40310	9.698998	0.065219	0.339756	0.004410	0.077521	0.006708	11.181467	-88.193774	-147.764881
40311	9.643056	0.077537	0.398233	0.010551	0.057783	0.001381	11.053655	-88.165563	-147.637219
40312	9.737659	0.109944	0.392745	0.023470	0.026784	0.003123	10.905624	-88.151510	-147.475574
40313	9.809066	0.117493	0.320370	0.021158	0.017787	0.009312	10.673717	-88.141809	-147.226612
40314	9.856365	0.055530	0.273652	0.015575	0.031266	0.016679	10.277184	-88.126612	-146.820826
40315	9.804693	0.090303	0.328075	0.011875	0.049360	0.024297	9.641622	-88.105719	-146.176255
40316	9.735044	0.076272	0.352748	0.015278	0.046143	0.028509	9.017914	-88.083040	-145.543322
40317	9.778071	0.111775	0.290874	0.017027	0.049190	0.028808	8.427498	-88.058533	-144.941191
40318	9.800024	0.058090	0.344554	0.013119	0.068644	0.031548	7.730598	-88.022907	-144.236242
40319	9.771369	0.085015	0.359329	0.008565	0.072518	0.038085	7.064885	-87.983533	-143.566977
40320	9.711000	0.070239	0.419097	0.001982	0.065068	0.036757	6.335487	-87.949716	-142.835886
40321	9.775203	0.101697	0.370791	0.002667	0.060373	0.038763	5.571946	-87.922912	-142.071421
40322	9.803429	0.067306	0.368834	-0.000453	0.059334	0.044339	4.774836	-87.892171	-141.273964
40323	9.770562	0.069088	0.383834	-0.001585	0.059662	0.048780	3.879073	-87.869522	-140.384721
40324	9.814697	0.054571	0.359615	-0.014092	0.065497	0.049964	3.026338	-87.834733	-139.539457
40325	9.810181	0.025666	0.367478	-0.010625	0.066770	0.049225	2.104892	-87.808334	-138.628666
40326	9.765553	0.030338	0.404728	-0.015482	0.075255	0.052270	1.262948	-87.767195	-137.795015
40327	9.765276	0.025044	0.411720	-0.019887	0.067828	0.054669	0.304275	-87.737633	-136.849125
40328	9.784093	-0.010594	0.377503	-0.019176	0.070544	0.046796	-0.406617	-87.698378	-136.148748
40329	9.813469	0.029522	0.394383	-0.017093	0.081558	0.048366	-1.079524	-87.661990	-135.501242
40330	9.787806	0.004095	0.392392	-0.027076	0.097990	0.043310	-1.691141	-87.606576	-134.904848
40331	9.752100	0.009627	0.465622	-0.028502	0.102930	0.044271	-2.400451	-87.555711	-134.214081
40332	9.705409	-0.012066	0.452048	-0.025728	0.091199	0.036097	-2.868776	-87.503984	-133.760341
40333	9.665240	-0.029238	0.524233	-0.014256	0.064375	0.026238	-3.074438	-87.473801	-133.580504
40334	9.702094	-0.014378	0.518863	-0.012029	0.035672	0.026707	-3.429524	-87.454039	-133.232377
40335	9.762722	-0.005855	0.469023	-0.002469	0.017119	0.020676	-3.753997	-87.460389	-132.935928
40336	9.741743	-0.004662	0.458419	-0.005556	0.015756	0.019925	-4.030959	-87.452336	-132.662497
40337	9.781812	-0.040269	0.430834	-0.000706	0.007263	0.016889	-4.081311	-87.447744	-132.618080
40338	9.786185	-0.017923	0.430570	-0.001603	0.013655	0.016325	-4.308304	-87.441009	-132.392492
40339	9.790743	-0.043258	0.466900	-0.004915	0.021719	0.013448	-4.460886	-87.433646	-132.256554
40340	9.778800	-0.041101	0.490197	-0.006946	0.023285	0.009656	-4.594624	-87.421738	-132.127454
40341	9.753185	-0.014596	0.445529	-0.001840	0.020859	0.001622	-4.506281	-87.421234	-132.251239
40342	9.773976	-0.017924	0.459808	-0.006255	0.021172	0.000430	-4.523983	-87.411100	-132.238095
40343	9.724880	-0.031933	0.492923	-0.003917	0.017602	-0.003524	-4.397264	-87.415806	-132.408101
40344	9.773829	-0.017313	0.462930	0.000788	0.007534	-0.006518	-4.336504	-87.413956	-132.469696
40345	9.757524	-0.036984	0.485873	-0.003846	0.004377	-0.013938	-4.222461	-87.422437	-132.607667
40346	9.736637	-0.032199	0.473873	0.001821	0.000490	-0.018575	-4.015295	-87.425247	-132.815360
40347	9.761968	-0.009537	0.484393	0.007615	-0.009573	-0.019693	-3.971151	-87.449401	-132.895903
40348	9.787324	0.012996	0.494284	0.004701	-0.012290	-0.015572	-3.811910	-87.459598	-133.054135
40349	9.729354	0.000284	0.490918	0.001615	-0.013654	-0.016326	-3.540664	-87.470332	-133.340097
40350	9.747317	0.049887	0.519722	0.004883	-0.026540	-0.014801	-3.398944	-87.488644	-133.480751
40351	9.832169	0.007330	0.458688	-0.001938	-0.022333	-0.005727	-3.232924	-87.498554	-133.652058
40352	9.823190	0.007698	0.423593	-0.007878	-0.013845	-0.004567	-3.219501	-87.509227	-133.671619
40353	9.781700	-0.033205	0.433975	-0.006537	-0.007771	-0.007690	-3.250474	-87.522455	-133.670901
40354	9.774297	-0.004751	0.453263	-0.011545	-0.003073	-0.017190	-3.065478	-87.527483	-133.864365
40355	9.795210	-0.006158	0.465166	-0.010776	-0.003287	-0.020146	-2.566388	-87.531524	-134.396929
40356	9.783095	0.046844	0.450396	-0.010590	0.003109	-0.018833	-2.351588	-87.532972	-134.619784
40357	9.778670	0.024729	0.452304	-0.015906	0.009810	-0.020585	-1.889854	-87.528447	-135.120187
40358	9.741508	0.009174	0.463324	-0.012721	0.007926	-0.021229	-1.641214	-87.527068	-135.378205
40359	9.787661	0.028434	0.486907	-0.013882	0.000495	-0.013235	-1.266101	-87.522920	-135.787198
40360	9.778594	0.029393	0.453674	-0.019451	0.001124	-0.009990	-1.171456	-87.525138	-135.894936
40361	9.757991	-0.014366	0.477619	-0.017169	0.005631	-0.011194	-1.210296	-87.531106	-135.937093
40362	9.774180	0.007640	0.455738	-0.020572	0.004051	-0.016778	-1.027995	-87.531820	-136.133195
40363	9.725216	-0.005006	0.487273	-0.018473	0.002166	-0.019297	-0.881914	-87.536840	-136.360397
40364	9.762331	0.014419	0.476893	-0.018938	-0.007371	-0.020533	-0.651982	-87.544139	-136.603215
40365	9.737123	-0.004210	0.464872	-0.017965	-0.014079	-0.026285	-0.630198	-87.549495	-136.676923
40366	9.779022	-0.007793	0.487433	-0.015803	-0.024032	-0.031561	-0.253352	-87.566283	-137.064761
40367	9.778771	0.043009	0.448734	-0.006487	-0.035752	-0.028505	-0.089753	-87.587004	-137.292615
40368	9.811638	0.039387	0.436804	-0.010442	-0.025906	-0.028454	0.254460	-87.604703	-137.644557
40369	9.819205	0.014659	0.415124	-0.018456	-0.010723	-0.023400	0.406634	-87.615276	-137.890254
40370	9.758543	0.005699	0.466380	-0.016740	-0.012500	-0.024443	0.694533	-87.625234	-138.189368
40371	9.774745	0.028694	0.442584	-0.014600	-0.017315	-0.022053	0.486689	-87.648160	-138.148205
40372	9.749592	0.010119	0.429684	-0.012397	-0.022442	-0.025974	0.798262	-87.663920	-138.468379
40373	9.774924	0.033356	0.438296	-0.010115	-0.025684	-0.023625	0.722693	-87.686733	-138.611149
40374	9.754078	0.038617	0.424014	-0.010184	-0.017617	-0.020865	0.962257	-87.699738	-138.857743
40375	9.775094	0.037383	0.434158	-0.009652	-0.023901	-0.018833	1.039149	-87.716614	-139.111966
40376	9.738165	0.021504	0.441994	-0.004852	-0.024307	-0.019127	1.260437	-87.733363	-139.337012
40377	9.758630	0.068269	0.415986	-0.006080	-0.025879	-0.020961	1.086979	-87.756415	-139.384249
40378	9.742667	0.049470	0.435570	-0.001697	-0.031000	-0.021137	1.340489	-87.776992	-139.639531
40379	9.751980	0.051546	0.465373	-0.001056	-0.040529	-0.020506	1.110297	-87.807202	-139.633105
40380	9.791748	0.068074	0.396756	-0.002528	-0.040425	-0.020899	1.363273	-87.833170	-139.888088
40381	9.787630	0.045958	0.394104	-0.003153	-0.038646	-0.017980	1.218603	-87.855991	-139.884356
40382	9.824745	0.065244	0.380383	-0.003746	-0.032050	-0.013700	1.359453	-87.877132	-140.027551
40383	9.799610	0.045676	0.366988	-0.008914	-0.018972	-0.014109	1.252961	-87.890359	-140.046262
40384	9.813139	0.071239	0.397256	-0.008013	-0.017605	-0.017107	1.438710	-87.903159	-140.236703
40385	9.755252	0.058180	0.393702	-0.005067	-0.017805	-0.016321	1.180863	-87.921308	-140.241707
40386	9.781266	0.032938	0.438951	-0.010981	-0.009649	-0.021439	1.427451	-87.929481	-140.494515
40387	9.785548	0.059122	0.436476	-0.009295	-0.016238	-0.023847	1.365452	-87.947386	-140.710406
40388	9.755372	0.064519	0.389708	-0.014912	-0.012693	-0.025495	1.675449	-87.957224	-141.028776
40389	9.780615	0.087808	0.399291	-0.015430	-0.014162	-0.023977	1.297295	-87.969256	-140.833373
40390	9.760478	0.045108	0.421587	-0.015674	-0.012488	-0.022536	1.556337	-87.978993	-141.100952
40391	9.768950	0.095474	0.417724	-0.013468	-0.017604	-0.026464	1.436367	-87.985952	-140.986035
40392	9.748022	0.100886	0.403555	-0.011965	-0.025456	-0.022527	1.703692	-88.003033	-141.259605
40393	9.776641	0.072717	0.392882	-0.016217	-0.031338	-0.020196	1.507815	-88.021255	-141.159166
40394	9.753314	0.080993	0.432028	-0.010929	-0.035079	-0.023381	1.796978	-88.043782	-141.453823
40395	9.776879	0.077050	0.386076	-0.012673	-0.038119	-0.023694	1.698087	-88.059691	-141.304286
40396	9.784537	0.052396	0.362202	-0.016605	-0.041161	-0.027747	2.068087	-88.085520	-141.682921
40397	9.793004	0.103094	0.356107	-0.014589	-0.034973	-0.027510	2.232975	-88.105220	-141.903572
40398	9.732839	0.093992	0.405382	-0.008450	-0.037037	-0.027389	2.612221	-88.128597	-142.286717
40399	9.818417	0.129301	0.359128	-0.011517	-0.050973	-0.025952	2.946771	-88.151750	-142.573496
40400	9.789208	0.086367	0.345070	-0.012845	-0.039377	-0.017341	3.163685	-88.176603	-142.796680
40401	9.797636	0.135838	0.338636	-0.012910	-0.043887	-0.012396	3.338696	-88.198282	-142.963420
40402	9.812771	0.082431	0.294984	-0.015442	-0.029055	-0.004251	3.312493	-88.217624	-142.944824
40403	9.826374	0.106872	0.324839	-0.022114	-0.015896	-0.005021	3.452586	-88.223690	-143.103038
40404	9.826403	0.107390	0.323791	-0.028677	-0.005978	-0.007193	3.448769	-88.229715	-143.114413
40405	9.835794	0.108038	0.357036	-0.036958	0.005709	-0.008309	3.599952	-88.223188	-143.273215
40406	9.806407	0.063979	0.348713	-0.051586	0.020836	-0.014401	3.684952	-88.213608	-143.386575
40407	9.831501	0.086457	0.361743	-0.061012	0.022908	-0.020117	4.020873	-88.195917	-143.760329
40408	9.843036	0.085613	0.343575	-0.079682	0.038245	-0.028848	4.322838	-88.175726	-144.106849
40409	9.806040	0.070294	0.357680	-0.083857	0.036886	-0.031455	4.742902	-88.152113	-144.577250
40410	9.811137	0.049370	0.395243	-0.097878	0.028083	-0.041049	5.247899	-88.136961	-145.137333
40411	9.843740	0.047721	0.388543	-0.113438	0.022342	-0.055935	6.086812	-88.119180	-146.031427
40412	9.899724	0.042533	0.339752	-0.153254	0.035227	-0.087466	7.320106	-88.096321	-147.351950
40413	9.956875	-0.007007	0.328171	-0.200627	0.062355	-0.134227	9.278864	-88.049685	-149.435534
40414	10.091664	0.009675	0.298948	-0.260297	0.108716	-0.200793	11.951645	-87.970545	-152.257844
40415	10.223855	0.111549	0.350170	-0.333321	0.198453	-0.282006	15.275231	-87.820243	-155.774220
40416	10.434593	-0.138179	0.329119	-0.368415	0.248018	-0.392732	19.321917	-87.621212	-160.034029
40417	10.167011	0.201921	0.395369	-0.454576	0.227489	-0.593511	25.121221	-87.372280	-166.100563
40418	10.549851	0.056928	0.095216	-0.540001	0.202058	-0.773413	31.656505	-87.063444	-172.951960
40419	11.784824	-0.736680	0.468146	-0.435177	-0.009460	-0.930749	39.469259	-86.759017	178.977307
40420	11.910097	-0.373102	1.052312	-0.376913	0.098063	-1.235577	47.035686	-86.236555	171.181823
40421	10.711664	-0.595403	1.100784	-0.227496	-0.071756	-1.400434	54.470400	-85.643573	163.598857
40422	10.676729	0.197770	0.871823	-0.099336	-0.312663	-1.472052	61.744046	-85.025790	156.245447
40423	10.688058	0.475666	0.582062	-0.081644	-0.396218	-1.505006	67.814912	-84.345634	150.101829
40424	9.859070	0.912039	0.285847	-0.035248	-0.498597	-1.473613	73.056908	-83.649813	144.812118
40425	9.370082	1.149487	-0.570490	-0.064856	-0.736644	-1.411913	78.194828	-82.975532	139.601940
40426	9.983606	1.493004	-1.092608	-0.152074	-1.042269	-1.333301	83.630882	-82.319303	134.034477
40427	12.877375	1.174029	-1.211826	-0.250392	-0.975588	-1.325088	87.839582	-81.608779	129.640043
40428	11.444166	-0.820230	-0.889159	-0.578245	-0.590273	-1.399069	89.819533	-80.818343	127.302752
40429	9.393484	-6.714363	0.113954	-0.759608	-0.222136	-1.329746	90.159972	-80.065119	126.517266
40430	7.369335	-8.581182	0.420373	-0.548881	-0.288820	-1.031442	90.752306	-79.477016	125.597174
40431	6.633632	-11.752857	-0.109686	-0.455038	-0.280535	-0.571206	91.326573	-79.173026	124.746827
40432	6.647896	-11.089858	-0.461091	-0.010302	-0.663681	-0.093936	93.305694	-79.107978	122.726978
40433	8.449614	-10.305292	-0.567196	0.194580	-0.876756	0.336833	96.158224	-79.307991	119.934433
40434	11.875338	-7.568222	0.611946	0.296488	-0.795145	0.763492	99.095163	-79.685069	117.121601
40435	12.253236	-5.772705	1.184943	0.171946	-0.292432	0.976169	100.741300	-80.273745	115.547100
40436	11.979657	-4.422102	0.938606	-0.064863	0.247010	0.983307	100.513417	-80.857283	115.741764
40437	11.345202	-4.201144	0.243626	-0.235434	0.579704	0.951746	98.927250	-81.528197	117.205707
40438	10.546767	-4.081436	-0.414444	-0.326033	0.706107	0.936664	96.473203	-82.118251	119.497510
40439	10.115304	-3.861842	-0.793017	-0.351804	0.708334	0.926127	93.609548	-82.767757	122.176627
40440	10.051801	-3.701586	-0.917424	-0.344334	0.645649	0.915007	90.563570	-83.309519	125.047720
40441	10.224069	-3.484814	-0.792430	-0.292834	0.559570	0.906357	87.424281	-83.913947	128.030287
40442	10.455382	-3.209400	-0.501901	-0.232524	0.511675	0.942713	84.053853	-84.435524	131.285516
40443	10.468509	-2.955077	-0.213371	-0.181126	0.501202	1.019892	79.815253	-85.068033	135.429115
40444	10.343369	-2.573209	-0.053969	-0.121521	0.468062	1.122762	74.803247	-85.642033	140.388941
40445	10.606881	-1.944004	0.221940	-0.062651	0.419330	1.198876	67.972613	-86.309744	147.190700
40446	11.154244	-1.299845	0.366026	-0.034028	0.386692	1.203153	59.541334	-86.836519	155.618628
40447	11.656351	-0.687480	0.622916	-0.017523	0.441676	1.138743	46.801941	-87.287709	168.354086
40448	11.475504	-0.307156	0.768200	-0.031230	0.561547	1.093644	31.736933	-87.441228	-176.581867
40449	10.640851	-0.282626	0.537697	-0.028512	0.647114	1.112610	13.536434	-87.379627	-158.390646
40450	9.568468	-0.210256	0.384663	0.015572	0.599927	1.159586	-1.081431	-87.110626	-143.745984
40451	9.322177	0.045259	0.277816	0.105534	0.431448	1.185700	-14.681553	-86.756810	-130.077854
40452	9.503561	0.423423	0.358023	0.206886	0.230971	1.161524	-24.419425	-86.408787	-120.202867
40453	9.985261	0.842812	0.529267	0.293810	0.083192	1.111621	-33.485477	-86.014363	-110.959955
40454	10.275921	1.181365	0.463154	0.358521	0.009850	1.057237	-39.964950	-85.646099	-104.256263
40455	10.329635	1.341816	0.489266	0.392575	-0.002112	1.003669	-45.763473	-85.198445	-98.224368
40456	10.153671	1.589663	0.256741	0.427575	0.001483	0.964480	-49.803273	-84.786444	-93.922098
40457	9.912777	1.681746	0.025232	0.481050	-0.006216	0.963927	-53.622993	-84.294447	-89.817921
40458	9.874563	1.929122	-0.140367	0.537567	-0.022707	0.948542	-56.460337	-83.853817	-86.654611
40459	9.667898	2.344696	-0.150632	0.607598	-0.062568	0.902458	-59.170982	-83.376099	-83.585460
40460	9.574215	2.640933	-0.066577	0.691883	-0.138977	0.827995	-61.357901	-83.000622	-80.982696
40461	9.605465	2.814079	0.036183	0.794103	-0.203844	0.756788	-63.538889	-82.615285	-78.333201
40462	10.067183	2.879782	0.192812	0.903412	-0.211365	0.680844	-65.152431	-82.312759	-76.182420
40463	10.176191	2.893072	0.127566	1.019030	-0.163413	0.591444	-66.357562	-81.993084	-74.382529
40464	10.283142	2.809178	-0.031415	1.155740	-0.118935	0.499719	-66.954088	-81.753741	-73.109996
40465	10.374617	2.628825	-0.260239	1.301281	-0.078832	0.415271	-67.242542	-81.509733	-72.069642
40466	10.339335	2.461872	-0.469975	1.465821	-0.013783	0.339165	-66.976243	-81.330274	-71.488555
40467	10.104632	2.393135	-0.837077	1.648234	0.036601	0.291275	-66.438425	-81.133191	-71.081010
40468	9.959679	2.371899	-1.136725	1.840596	0.086554	0.267106	-65.515558	-80.969769	-70.946638
40469	9.509752	2.359196	-1.414402	2.046840	0.109791	0.257464	-64.473487	-80.780987	-70.817246
40470	9.165114	2.343804	-1.582573	2.268317	0.087882	0.266899	-63.331992	-80.618187	-70.655957
40471	8.914201	2.274305	-1.690630	2.492980	0.050801	0.285046	-62.291280	-80.437992	-70.265102
40472	8.843071	2.272879	-1.789506	2.716438	-0.038024	0.294789	-61.341356	-80.296223	-69.648926
40473	9.122011	2.296749	-1.709608	2.938534	-0.128373	0.275972	-60.572083	-80.178456	-68.722475
40474	9.368045	2.366727	-1.410305	3.139118	-0.198748	0.230695	-59.744305	-80.117400	-67.736120
40475	9.356263	2.432649	-1.147295	3.322926	-0.246743	0.172001	-58.918925	-80.095496	-66.641876
40476	8.997302	2.643569	-0.796512	3.473770	-0.258781	0.138768	-57.914533	-80.102480	-65.640020
40477	8.865267	2.943395	-0.616335	3.588372	-0.262797	0.141020	-56.924514	-80.111750	-64.557722
40478	8.937626	3.166715	-0.375839	3.625039	-0.228671	0.174085	-55.813932	-80.098485	-63.575695
40479	9.007998	3.284275	-0.236387	3.593651	-0.131699	0.269398	-54.690719	-80.016368	-62.624617
40480	5.654178	5.455108	-3.300146	3.452972	-0.192153	0.439747	-54.069044	-79.873054	-61.245695
40481	7.458378	5.582532	-7.358357	3.788113	-2.485330	-0.266161	-58.438744	-80.800438	-54.609891
40482	16.868681	11.670756	-1.432792	3.183606	-1.555377	-0.721931	-60.232567	-81.608127	-50.947991
40483	15.273528	13.738320	2.629907	1.490886	-0.132557	-1.049403	-57.765556	-82.183206	-52.573728
40484	12.181516	2.461143	3.133238	0.639153	0.356434	-0.940845	-53.920563	-82.512078	-56.082701
40485	9.348745	0.486807	3.408066	0.696035	0.054631	-0.817631	-51.134856	-82.893800	-58.484566
40486	10.733630	2.590481	2.691101	0.898572	-0.387033	-0.793267	-49.670517	-83.383142	-59.439854
40487	11.144425	3.299938	1.804227	0.328772	-0.266298	-0.640511	-48.356250	-83.788713	-60.568258
40488	9.722430	-0.280212	0.564096	-0.030765	-0.149550	-0.463655	-47.341324	-84.041174	-61.605606
40489	9.991041	0.205100	0.734121	0.281981	-0.396503	-0.359461	-47.416724	-84.375656	-61.362765
40490	10.345094	0.047481	0.524786	0.052608	-0.268346	-0.273692	-47.510570	-84.593202	-61.237138
40491	9.749811	-0.536932	0.364815	0.081965	-0.277665	-0.248649	-47.653474	-84.834593	-61.041894
40492	9.965897	-0.117597	0.431374	0.088847	-0.296099	-0.233741	-48.061329	-85.045770	-60.580266
40493	9.832087	-0.481616	0.175669	0.053690	-0.251193	-0.243921	-48.155595	-85.274326	-60.450336
40494	9.853393	-0.422237	0.210261	0.082280	-0.216138	-0.285907	-47.951311	-85.476989	-60.606908
40495	9.694452	-0.386607	0.223940	0.064069	-0.157578	-0.342520	-47.017938	-85.710531	-61.501816
40496	10.444698	0.217900	0.407828	0.100109	-0.200886	-0.344323	-46.318331	-85.931204	-62.144683
40497	10.630285	-0.149028	-0.339418	0.045946	-0.105299	-0.155005	-45.984432	-86.064474	-62.448611
40498	10.119297	0.125773	0.244773	0.026814	0.047199	-0.130027	-44.994791	-86.096950	-63.424069
40499	9.704616	-0.059046	0.423622	0.023213	0.040592	-0.100465	-44.078069	-86.148035	-64.325073
40500	9.600998	-0.004642	0.497355	0.023692	0.004662	-0.088237	-43.564594	-86.179584	-64.824981
40501	9.598064	0.065216	0.585123	0.030404	-0.049903	-0.076298	-43.297573	-86.257069	-65.070650
40502	9.698869	-0.000830	0.418610	0.048740	-0.116758	-0.065241	-43.635504	-86.329859	-64.702900
40503	9.908745	0.019423	0.285012	0.034084	-0.116090	-0.054629	-43.917989	-86.425706	-64.395882
40504	9.915462	0.013069	0.217247	0.024913	-0.073097	-0.041690	-44.173387	-86.470912	-64.124555
40505	9.837156	-0.073214	0.271298	0.011723	-0.041895	-0.039270	-44.110641	-86.529675	-64.176316
40506	9.847266	-0.029422	0.240630	0.015845	-0.034663	-0.047205	-44.088002	-86.561272	-64.188754
40507	9.757908	-0.078061	0.259005	0.012061	-0.017423	-0.055754	-43.745162	-86.616084	-64.520918
40508	9.855040	-0.105464	0.244126	0.016334	-0.010699	-0.070147	-43.394238	-86.646807	-64.861916
40509	9.824231	-0.117675	0.203686	0.017313	0.009825	-0.083451	-42.645576	-86.700302	-65.597537
40510	9.633373	-0.036027	0.374363	0.021316	0.020028	-0.102428	-41.825819	-86.729970	-66.405239
40511	9.567069	0.005229	0.483438	0.028915	-0.024506	-0.115292	-41.013680	-86.808640	-67.197695
40512	9.705029	0.087737	0.368280	0.033071	-0.064713	-0.115581	-40.613065	-86.878844	-67.578761
40513	9.834709	0.076756	0.288220	0.029011	-0.069909	-0.101642	-40.159273	-86.970971	-68.012210
40514	9.857455	0.058601	0.249022	0.023208	-0.056759	-0.097711	-39.818754	-87.030817	-68.338689
40515	9.820324	0.059098	0.261532	0.024239	-0.055651	-0.089450	-39.326113	-87.111536	-68.813726
40516	9.856037	0.107074	0.283081	0.025050	-0.050541	-0.074262	-39.115985	-87.159913	-69.008544
40517	9.847893	0.066072	0.205083	0.025395	-0.045494	-0.069191	-38.694504	-87.228201	-69.411632
40518	9.894869	0.098350	0.210997	0.032411	-0.041985	-0.058373	-38.545796	-87.266982	-69.540707
40519	9.883221	0.139835	0.168448	0.031528	-0.029995	-0.042649	-38.231659	-87.318409	-69.832780
40520	9.853039	0.078771	0.237197	0.025315	-0.007902	-0.036845	-38.025467	-87.334181	-70.023453
40521	9.783437	0.084322	0.259367	0.027974	-0.003713	-0.034166	-37.581759	-87.370331	-70.447248
40522	9.770108	0.154801	0.265040	0.030477	0.000987	-0.025033	-37.414613	-87.377864	-70.595854
40523	9.732921	0.148151	0.283686	0.019078	0.009728	-0.019543	-37.007934	-87.402307	-70.987672
40524	9.721502	0.163826	0.301511	0.001071	0.018515	-0.014279	-36.829881	-87.398062	-71.164048
40525	9.747213	0.187480	0.301772	-0.009186	0.021359	-0.001475	-36.528578	-87.410501	-71.466585
40526	9.767156	0.086201	0.295375	-0.018190	0.025753	0.001156	-36.464161	-87.397625	-71.540243
40527	9.762067	0.088453	0.255418	-0.017916	0.013791	0.005266	-36.292847	-87.410880	-71.717667
40528	9.815576	0.080665	0.264177	-0.015105	0.015450	-0.004501	-36.246864	-87.404689	-71.771092
40529	9.801112	0.044048	0.251097	-0.012451	0.019639	-0.001821	-35.956696	-87.417295	-72.064350
40530	9.831539	0.087076	0.238101	-0.016082	0.024877	-0.006287	-35.823440	-87.407333	-72.205686
40531	9.782920	0.092985	0.275436	-0.016054	0.031362	-0.011799	-35.346166	-87.417403	-72.688295
40532	9.794220	0.080069	0.261660	-0.009862	0.023291	-0.010653	-35.177867	-87.409579	-72.861131
40533	9.708391	0.077573	0.317240	-0.015633	0.037372	-0.018707	-34.584175	-87.418542	-73.460020
40534	9.643566	0.079128	0.385355	-0.030453	0.036827	-0.031093	-34.119054	-87.410822	-73.941778
40535	9.696748	0.097329	0.339281	-0.026331	0.003086	-0.041920	-33.523974	-87.442663	-74.548186
40536	9.685319	0.115126	0.354983	-0.025849	-0.019370	-0.039238	-33.362864	-87.464059	-74.722967
40537	9.819697	0.117843	0.265184	-0.018668	-0.036865	-0.036314	-33.089582	-87.512687	-75.002858
40538	9.799023	0.095723	0.304332	-0.013878	-0.052029	-0.036526	-33.180556	-87.548881	-74.918434
40539	9.898827	0.162202	0.204758	0.005405	-0.078160	-0.023923	-33.333265	-87.613153	-74.758145
40540	9.849618	0.065266	0.211069	0.013043	-0.072630	-0.026937	-33.686625	-87.656152	-74.395669
40541	9.963547	0.167965	0.125531	0.025481	-0.069741	-0.017697	-33.859514	-87.714181	-74.203696
40542	9.968200	0.188907	0.107233	0.017610	-0.025275	-0.004850	-34.115211	-87.727503	-73.936352
40543	9.873427	0.145137	0.185438	0.023143	-0.008373	0.006052	-34.091676	-87.748654	-73.942282
40544	9.899161	0.167130	0.183545	0.015929	0.004640	0.014637	-34.341968	-87.741503	-73.681304
40545	9.815734	0.107685	0.248216	0.003981	0.020822	0.022479	-34.291891	-87.743375	-73.724768
40546	9.811576	0.063770	0.318239	0.009786	0.000710	0.012546	-34.551511	-87.738742	-73.457965
40547	9.831741	0.110878	0.219118	0.009629	-0.002813	0.007016	-34.510149	-87.756534	-73.489475
40548	9.901330	0.108466	0.196189	0.006448	0.000464	0.006678	-34.704129	-87.753914	-73.290268
40549	9.935474	0.065286	0.146138	0.022354	-0.011892	0.020353	-34.896671	-87.771436	-73.080391
40550	10.557816	0.043381	-0.197551	-0.024094	0.083240	-0.021503	-34.083369	-87.738904	-73.906741
40551	8.914666	0.189313	0.427222	0.054274	-0.004088	0.055169	-34.611482	-87.741531	-73.342649
40552	10.536947	0.122729	-0.023606	0.030096	0.104744	0.065025	-34.626470	-87.670790	-73.308988
40553	9.306643	-0.070039	0.566437	0.000500	0.170579	0.021070	-33.413555	-87.601376	-74.518160
40554	9.709803	0.051848	0.282021	0.039915	0.074783	0.011231	-33.073549	-87.561963	-74.834164
40555	9.779187	0.049964	0.269818	-0.002810	0.136791	-0.010229	-31.846264	-87.516802	-76.059700
40556	9.667999	0.128906	0.357272	0.004135	0.129265	-0.017379	-30.878584	-87.458868	-77.024513
40557	9.712293	0.210237	0.369991	-0.007074	0.137517	-0.018377	-29.649743	-87.413502	-78.254097
40558	9.504422	0.141259	0.514533	-0.006966	0.105558	-0.009233	-29.005575	-87.363680	-78.901491
40559	9.567103	0.173951	0.501690	0.024241	0.030672	-0.006680	-28.585993	-87.367082	-79.303055
40560	9.676882	0.254821	0.439298	0.012475	0.007359	-0.002216	-28.611929	-87.364384	-79.268487
40561	9.617802	0.115435	0.479567	0.012388	-0.015604	0.013861	-28.699528	-87.385120	-79.169153
40562	9.734650	0.182882	0.354032	0.019021	-0.046153	0.017742	-29.267670	-87.403711	-78.588053
40563	9.883931	0.215955	0.279041	0.018694	-0.026079	0.037590	-29.687703	-87.422697	-78.152361
40564	9.885986	0.158085	0.288630	0.016804	0.003873	0.051975	-30.327265	-87.406202	-77.501038
40565	9.910976	0.093066	0.213088	0.003430	0.035541	0.065801	-30.673815	-87.386118	-77.147643
40566	9.850644	0.105674	0.268839	-0.004573	0.069534	0.067027	-31.048433	-87.332489	-76.773767
40567	9.803484	0.050937	0.321757	-0.012969	0.093479	0.063183	-30.999806	-87.284496	-76.825329
40568	9.721883	0.061111	0.369352	-0.012989	0.094971	0.057662	-31.108224	-87.221112	-76.722742
40569	9.737669	0.039201	0.403533	-0.016043	0.080731	0.049901	-31.008099	-87.183129	-76.827605
40570	9.763245	0.057386	0.409591	-0.017836	0.072086	0.043953	-31.116202	-87.135050	-76.728095
40571	9.751472	0.067054	0.432548	-0.014772	0.063792	0.044308	-31.064136	-87.106833	-76.784107
40572	9.756626	0.104689	0.369750	-0.018430	0.062561	0.045333	-31.237065	-87.063027	-76.620010
40573	9.750984	0.058112	0.444675	-0.030021	0.059295	0.044738	-31.224447	-87.036727	-76.645259
40574	9.669892	0.092425	0.432114	-0.018254	0.040044	0.042978	-31.497253	-87.004630	-76.381028
40575	9.765594	0.108346	0.413120	-0.029928	0.042312	0.048839	-31.617775	-86.985215	-76.272902
40576	9.846919	0.086459	0.379430	-0.030141	0.044864	0.061286	-32.028066	-86.945151	-75.877789
40577	9.822961	0.026336	0.340522	-0.027471	0.049065	0.063988	-32.240387	-86.917658	-75.676302
40578	9.781682	-0.061521	0.387615	-0.032706	0.062716	0.054503	-32.474574	-86.870861	-75.458985
40579	9.784349	-0.015399	0.424605	-0.021876	0.052343	0.039441	-32.443183	-86.849135	-75.498331
40580	9.722791	-0.081055	0.403001	-0.016275	0.040627	0.024977	-32.526640	-86.822094	-75.422523
40581	9.740026	0.004539	0.452616	-0.008665	0.023545	0.014586	-32.432746	-86.821765	-75.516877
40582	9.733489	0.036976	0.457405	-0.006624	0.016156	0.012665	-32.538366	-86.810360	-75.413321
40583	9.791846	0.047171	0.454075	-0.015438	0.022113	0.014761	-32.458705	-86.810509	-75.497309
40584	9.799013	0.033920	0.398287	-0.019404	0.028407	0.023177	-32.594087	-86.789963	-75.371264
40585	9.754156	-0.024234	0.345788	-0.017246	0.042502	0.005673	-32.326683	-86.782921	-75.644316
40586	9.745801	-0.035766	0.463740	-0.010481	0.045418	-0.000018	-32.165891	-86.761279	-75.809782
40587	9.722505	-0.007114	0.500198	-0.013824	0.034639	-0.012406	-31.787779	-86.763284	-76.191741
40588	9.710828	0.008484	0.518729	-0.011968	0.011682	-0.020831	-31.631889	-86.764287	-76.353140
40589	9.785941	0.027838	0.484166	-0.011914	-0.007358	-0.022749	-31.384706	-86.789542	-76.602868
40590	9.771569	-0.006925	0.467767	-0.016636	-0.017665	-0.018984	-31.402131	-86.804316	-76.593342
40591	9.771684	-0.005141	0.465383	-0.015293	-0.031104	-0.019073	-31.312571	-86.839902	-76.687142
40592	9.814475	0.025315	0.431376	-0.010779	-0.034334	-0.023347	-31.377849	-86.864154	-76.626320
40593	9.775681	0.071871	0.435122	-0.013943	-0.030490	-0.012197	-31.344872	-86.897256	-76.662679
40594	9.862394	0.075835	0.381912	-0.018279	-0.011697	-0.001412	-31.488936	-86.903904	-76.527251
40595	9.813325	0.080600	0.415217	-0.021586	0.002657	0.011170	-31.489387	-86.913736	-76.534511
40596	9.821987	0.014298	0.368199	-0.018436	0.013402	0.018503	-31.674496	-86.902156	-76.358058
40597	9.814627	0.023460	0.428022	-0.020823	0.017767	0.021348	-31.683438	-86.901476	-76.356361
40598	9.816773	-0.009808	0.384818	-0.018289	0.016936	0.024042	-31.896692	-86.886489	-76.151623
40599	9.788489	-0.004139	0.432532	-0.017527	0.017998	0.027250	-31.955993	-86.883806	-76.097590
40600	9.744439	0.018464	0.454062	-0.018148	0.006425	0.022606	-32.212418	-86.874321	-75.849523
40601	9.796454	0.061090	0.452122	-0.012804	-0.002225	0.032096	-32.425648	-86.879802	-75.638622
40602	9.823817	0.026249	0.460847	-0.017365	-0.010485	0.046909	-32.989717	-86.870819	-75.081991
40603	9.868740	0.018384	0.384263	-0.006342	-0.007744	0.060913	-33.484726	-86.869601	-74.585191
40604	9.938753	0.008808	0.362565	-0.000255	0.002217	0.081069	-34.254017	-86.843075	-73.813189
40605	10.094213	0.053357	0.280402	0.023099	0.013288	0.110915	-35.027627	-86.814939	-73.020437
40606	10.252970	0.068374	0.298428	0.015251	0.058045	0.153716	-36.026039	-86.736998	-72.009982
40607	10.190107	0.041776	0.271221	-0.013393	0.132159	0.202263	-36.799432	-86.621680	-71.238224
40608	10.142644	-0.005535	0.276682	-0.049381	0.197836	0.229762	-37.502562	-86.452028	-70.560433
40609	10.431869	-0.085555	0.113915	-0.073560	0.287919	0.265857	-37.799827	-86.242904	-70.299956
40610	11.818050	-0.310679	-0.500060	-0.039599	0.410489	0.393437	-38.358701	-85.918886	-69.760783
40611	10.972170	-0.017657	-0.051709	-0.107083	0.742216	0.547614	-38.155434	-85.405592	-70.021038
40612	10.541823	-1.274328	-0.578901	-0.176874	0.999199	0.570628	-37.244945	-84.752858	-71.034850
40613	11.082508	-3.605779	-0.615099	-0.096690	1.184666	0.636513	-36.120306	-84.005776	-72.215002
40614	9.554187	-8.769824	-5.343091	0.567908	0.877292	0.897993	-36.863914	-83.295977	-71.137663
40615	10.400892	-8.833144	-6.690215	1.989384	0.377600	1.001756	-38.376612	-82.789311	-68.459317
40616	10.623265	-7.583575	-5.965361	2.932631	0.333437	1.083170	-39.490987	-82.250709	-65.638925
40617	9.150808	-8.025380	-6.554455	3.726253	0.235070	1.106772	-40.265310	-81.756811	-62.693906
40618	8.723033	-6.918051	-6.651103	4.645402	0.011880	1.121739	-40.886254	-81.333510	-59.373490
40619	8.995368	-4.536552	-6.118490	5.403856	-0.140240	1.085809	-41.249987	-81.001983	-55.863932
40620	9.305246	-2.232836	-4.962555	5.831582	-0.159089	0.998934	-40.982997	-80.694270	-52.748214
40621	8.973596	-0.622417	-4.120154	6.081474	-0.206411	0.925626	-40.511763	-80.455447	-49.684726
40622	8.672731	0.690241	-3.149656	6.250808	-0.319591	0.829888	-39.792978	-80.288949	-46.779317
40623	7.814429	2.328956	-1.755082	6.278608	-0.468408	0.708088	-39.160424	-80.256987	-43.761591
40624	8.108021	5.142768	0.674237	6.129538	-0.595406	0.517439	-38.273282	-80.338077	-41.096803
40625	8.386893	7.710099	3.697283	5.612252	-0.573357	0.256809	-37.085347	-80.527378	-39.030946
40626	8.121955	10.115041	6.822006	4.770985	-0.466786	-0.041305	-35.218116	-80.757868	-38.151027
40627	7.585352	12.068687	9.561687	3.691465	-0.394600	-0.344576	-32.989650	-81.074686	-38.257622
40628	9.261588	12.893290	12.202801	2.515843	-0.495881	-0.732785	-30.209639	-81.537677	-39.609789
40629	9.770769	17.448328	13.123754	1.013336	-0.443375	-1.149487	-26.488808	-82.090714	-42.776803
40630	5.954429	-3.649374	1.317152	-0.410726	-0.916995	-1.014581	-24.500017	-82.816765	-45.018391
40631	10.877061	2.416269	1.882357	1.340232	-2.492856	-1.071204	-23.976011	-84.385023	-44.769426
40632	17.799951	-1.162227	-4.416448	0.292367	-1.478437	-0.459326	-25.093087	-85.266505	-43.477698
40633	12.876244	1.753474	-0.889822	0.114956	-0.167108	-0.177257	-24.401963	-85.411526	-44.101213
40634	8.712729	-0.573304	0.878906	-0.037309	0.158653	-0.054467	-23.662208	-85.342808	-44.862904
40635	9.711426	0.182047	0.890188	0.076347	-0.069306	-0.092499	-23.219808	-85.416331	-45.258959
40636	9.940460	0.004213	0.363520	0.099866	-0.078046	-0.117934	-22.648875	-85.485534	-45.772363
40637	10.080247	0.066935	0.307755	0.046060	0.034438	-0.104840	-21.823806	-85.505920	-46.569632
40638	9.897363	0.171332	0.529203	0.043038	0.081253	-0.086611	-21.046191	-85.482530	-47.322979
40639	9.682858	0.233121	0.732609	0.024824	0.075535	-0.061987	-20.414048	-85.470579	-47.938899
40640	9.820616	0.107773	0.605203	0.020209	0.032090	-0.034903	-20.133646	-85.462166	-48.206612
40641	10.045470	0.034616	0.410440	0.016304	0.051552	-0.015351	-19.884076	-85.453241	-48.443698
40642	9.937368	0.059642	0.449439	-0.000810	0.109804	-0.017236	-19.550210	-85.399305	-48.777132
40643	9.759144	0.075174	0.680459	-0.007607	0.125218	-0.017748	-19.130584	-85.350817	-49.198548
40644	9.667549	0.085242	0.695456	-0.008984	0.087865	-0.018736	-18.856571	-85.308727	-49.476665
40645	9.721007	0.118489	0.673565	-0.014293	0.056369	-0.009560	-18.660397	-85.295598	-49.677777
40646	9.704670	0.081535	0.689237	-0.020870	0.037460	-0.004824	-18.602269	-85.278199	-49.746117
40647	9.765617	0.154853	0.598537	-0.018239	0.022680	0.001843	-18.557895	-85.281108	-49.797209
40648	9.732321	0.044602	0.665084	-0.025255	0.024196	0.004265	-18.591448	-85.269262	-49.776067
40649	9.755289	0.036070	0.618270	-0.027960	0.015476	-0.003895	-18.529645	-85.277043	-49.850250
40650	9.711151	0.035592	0.660040	-0.023084	0.011788	-0.011407	-18.486172	-85.274803	-49.905139
40651	9.690197	0.027558	0.651814	-0.013058	-0.009873	-0.018964	-18.370845	-85.298984	-50.024464
40652	9.723366	0.052275	0.612870	-0.003689	-0.028453	-0.025159	-18.312993	-85.321108	-50.082618
40653	9.711453	0.128917	0.628783	-0.008533	-0.022284	-0.029757	-18.147165	-85.353855	-50.250006
40654	9.710492	0.096827	0.668501	-0.009280	-0.026148	-0.026929	-18.073555	-85.375031	-50.327171
40655	9.743667	0.121457	0.628607	-0.017078	-0.031477	-0.015256	-18.026317	-85.410072	-50.380504
40656	9.781804	0.117516	0.608026	-0.022175	-0.026598	-0.018908	-18.014065	-85.430074	-50.403510
40657	9.739033	0.065597	0.630977	-0.024259	-0.024803	-0.019043	-17.927702	-85.462062	-50.500232
40658	9.756225	0.052460	0.602123	-0.011673	-0.032078	-0.018975	-17.920258	-85.485073	-50.512368
40659	9.768386	0.067675	0.553961	-0.013218	-0.024236	-0.021723	-17.804886	-85.517123	-50.631844
40660	9.708645	0.031168	0.602999	-0.005281	-0.027525	-0.026461	-17.730189	-85.538968	-50.707753
40661	9.749598	0.105233	0.631555	0.004710	-0.036073	-0.030336	-17.566663	-85.578877	-50.865213
40662	9.761755	0.121270	0.582430	0.007032	-0.039551	-0.024727	-17.521687	-85.606980	-50.904222
40663	9.820804	0.127547	0.569685	-0.001240	-0.024958	-0.021025	-17.397964	-85.639092	-51.025183
40664	9.746164	0.087772	0.588043	-0.000729	-0.021888	-0.017221	-17.369873	-85.656256	-51.051705
40665	9.788179	0.108244	0.602208	0.000873	-0.026254	-0.015205	-17.286574	-85.687996	-51.130912
40666	9.832184	0.110904	0.559366	-0.008200	-0.019493	-0.013631	-17.282502	-85.703247	-51.137628
40667	9.806211	0.130648	0.530225	-0.006480	-0.012961	-0.008118	-17.222653	-85.726432	-51.197549
40668	9.750491	0.116424	0.615593	-0.011745	-0.001460	-0.000898	-17.272445	-85.729663	-51.152277
40669	9.773439	0.108173	0.566401	-0.008263	-0.005435	0.001459	-17.265424	-85.747036	-51.160255
40670	9.751364	0.150790	0.572985	-0.007968	-0.000187	0.005476	-17.357041	-85.748492	-51.070866
40671	9.777429	0.131367	0.600521	-0.006791	-0.000193	0.007915	-17.383944	-85.761829	-51.043990
40672	9.767525	0.099561	0.589036	-0.013315	0.003886	0.008468	-17.491331	-85.760542	-50.941850
40673	9.746576	0.089444	0.580913	-0.009390	-0.001470	0.003979	-17.493005	-85.775170	-50.941780
40674	9.767543	0.098255	0.588956	-0.014559	-0.003047	0.007488	-17.610167	-85.777835	-50.830547
40675	9.708770	0.093244	0.597034	-0.000050	-0.029451	0.011311	-17.726707	-85.806387	-50.709947
40676	9.800601	0.119358	0.548072	-0.004357	-0.013769	0.003388	-17.833903	-85.815598	-50.602841
40677	9.763862	0.071998	0.549759	-0.008295	-0.008901	0.002188	-17.838706	-85.834449	-50.599028
40678	9.735889	0.108181	0.578908	-0.007980	-0.000673	-0.000212	-17.889975	-85.837151	-50.550073
40679	9.746961	0.087088	0.574780	-0.004143	-0.013454	-0.008935	-17.819057	-85.860371	-50.619799
40680	9.821713	0.129290	0.553381	-0.009157	-0.000666	-0.002650	-17.852644	-85.863510	-50.589241
40681	9.815762	0.122673	0.576528	-0.014680	0.009056	-0.000170	-17.797808	-85.872848	-50.648901
40682	9.784830	0.082032	0.557674	-0.010410	0.012903	0.004320	-17.851604	-85.867375	-50.598791
40683	9.790673	0.088259	0.536612	-0.010798	0.020735	0.004019	-17.796859	-85.869542	-50.656133
40684	9.768493	0.130694	0.545558	-0.009618	0.020728	0.006457	-17.847029	-85.859437	-50.609195
40685	9.800351	0.117682	0.552883	-0.013958	0.030446	0.011375	-17.825205	-85.854969	-50.635342
40686	9.708469	0.089439	0.602488	-0.017031	0.027080	0.015011	-17.927905	-85.839904	-50.539983
40687	9.804037	0.138990	0.592735	-0.010718	0.025181	0.014671	-17.940729	-85.837659	-50.529535
40688	9.773018	0.096648	0.575662	-0.018796	0.034606	0.024592	-18.096490	-85.816789	-50.381977
40689	9.777734	0.152917	0.571380	-0.011082	0.031001	0.032169	-18.224203	-85.808181	-50.256550
40690	9.767639	0.118675	0.563313	-0.022638	0.043929	0.034043	-18.426305	-85.780492	-50.064717
40691	9.804406	0.074578	0.591688	-0.018641	0.043017	0.040207	-18.584838	-85.763787	-49.912727
40692	9.777226	0.054435	0.610196	-0.016539	0.041230	0.040336	-18.831336	-85.736324	-49.672852
40693	9.765989	0.072006	0.617812	-0.016026	0.043817	0.038454	-18.969750	-85.719365	-49.539530
40694	9.755801	0.037649	0.610040	-0.009065	0.038354	0.031062	-19.147346	-85.695098	-49.364433
40695	9.826573	0.051850	0.559466	-0.001898	0.047747	0.032149	-19.219455	-85.677076	-49.289484
40696	9.792195	0.078300	0.617097	-0.002856	0.062139	0.032495	-19.340989	-85.639635	-49.167023
40697	9.754849	0.028293	0.625579	-0.001927	0.060362	0.030185	-19.365458	-85.615102	-49.139856
40698	9.764451	0.056240	0.643231	-0.007550	0.059209	0.029141	-19.470291	-85.579872	-49.036823
40699	9.770199	0.060208	0.626258	-0.002408	0.057311	0.026374	-19.474249	-85.557638	-49.030505
40700	9.748896	0.048031	0.623799	-0.012586	0.064606	0.031176	-19.580347	-85.519100	-48.929080
40701	9.715316	0.022327	0.666578	-0.011058	0.056276	0.028224	-19.603061	-85.497009	-48.908914
40702	9.724949	0.050505	0.683514	-0.007657	0.048329	0.025622	-19.705547	-85.468318	-48.808262
40703	9.745594	0.057487	0.696185	-0.009449	0.038328	0.020816	-19.719144	-85.457252	-48.796325
40704	9.747740	0.037968	0.642278	-0.008905	0.028302	0.020897	-19.837366	-85.440268	-48.680591
40705	9.810384	0.063785	0.670016	-0.008110	0.019565	0.020039	-19.889494	-85.439388	-48.629239
40706	9.835928	0.035920	0.566735	-0.006949	0.032653	0.026213	-20.030371	-85.419004	-48.489642
40707	9.877618	-0.073986	0.868669	-0.022389	0.100004	0.007623	-19.811292	-85.377176	-48.718566
40708	9.781718	0.315064	0.541359	0.011699	-0.012736	0.026402	-20.050819	-85.381220	-48.469260
40709	9.687988	-0.115875	0.679826	-0.017701	0.046037	0.025950	-20.080730	-85.364807	-48.445719
40710	9.806387	-0.023650	0.637846	0.002934	0.007976	0.025047	-20.264888	-85.357906	-48.256985
40711	9.859708	0.058349	0.626032	0.009159	0.015188	0.023504	-20.337658	-85.358486	-48.174991
40712	9.764334	-0.046422	0.623716	0.015123	0.020622	0.017211	-20.431122	-85.346311	-48.070234
40713	9.726062	-0.041580	0.644034	0.010061	0.037173	0.000211	-20.295239	-85.339689	-48.197051
40714	9.807293	0.006984	0.606250	0.015581	0.055634	-0.012578	-20.107421	-85.314620	-48.374237
40715	9.662274	0.072970	0.618965	0.005380	0.096356	-0.024341	-19.674679	-85.280780	-48.801584
40716	9.644795	0.137714	0.880626	-0.024126	0.119998	-0.013064	-19.364370	-85.220887	-49.124523
40717	9.545179	0.105135	0.956673	-0.012455	0.045691	-0.000321	-19.222083	-85.209438	-49.270717
40718	9.657476	0.098684	0.830390	-0.013367	0.000468	0.009097	-19.324023	-85.209897	-49.173786
40719	9.647639	0.066384	0.817198	-0.019313	-0.026736	0.018573	-19.470918	-85.233843	-49.033804
40720	9.744094	0.020899	0.696133	-0.019325	-0.039356	0.020530	-19.742971	-85.253562	-48.769594
40721	9.820590	0.007720	0.658150	-0.022797	-0.026206	0.016923	-19.882405	-85.277364	-48.639143
40722	9.768864	-0.043556	0.627992	-0.023596	0.004793	0.020285	-20.053847	-85.273227	-48.478345
40723	9.755229	-0.006316	0.689841	-0.021359	0.022087	0.011338	-20.042382	-85.272059	-48.498468
40724	9.750442	0.020787	0.673235	-0.019524	0.031616	0.010464	-20.083374	-85.255406	-48.466215
40725	9.743914	0.012977	0.698840	-0.022825	0.029958	0.008598	-20.035860	-85.250489	-48.523347
40726	9.742718	0.064626	0.717927	-0.017792	0.046333	0.003397	-19.995316	-85.227311	-48.571908
40727	9.718778	0.071624	0.771187	-0.042078	0.049772	0.014378	-19.949405	-85.210523	-48.638505
40728	9.663968	0.037963	0.803201	-0.035364	0.034321	0.014875	-20.020881	-85.191574	-48.584749
40729	9.680996	0.021471	0.780227	-0.036667	0.027381	0.013867	-20.020051	-85.186840	-48.603026
40730	9.649925	-0.019785	0.761995	-0.037890	0.023441	0.006448	-20.063859	-85.175407	-48.578478
40731	9.659724	0.010522	0.776333	-0.040651	0.023895	-0.002986	-19.965272	-85.175756	-48.697166
40732	9.756806	0.008549	0.752388	-0.040079	0.017335	-0.003639	-19.960095	-85.169597	-48.723027
40733	9.783954	0.024280	0.740049	-0.040156	0.014334	0.002768	-19.919397	-85.173869	-48.783350
40734	9.773905	-0.007091	0.728942	-0.032154	0.005815	0.004268	-19.986587	-85.172378	-48.732021
40735	9.886551	0.079747	0.708557	-0.029197	0.003171	0.013483	-20.033257	-85.180500	-48.698369
40736	9.825657	-0.054155	0.652771	-0.027576	0.024518	0.017327	-20.137220	-85.166376	-48.607495
40737	9.735374	-0.005976	0.750774	-0.016409	0.031999	0.013302	-20.107802	-85.158991	-48.642837
40738	9.793277	0.048605	0.761020	-0.015873	0.034590	0.011433	-20.143526	-85.140615	-48.613707
40739	9.723989	0.012761	0.760435	-0.017460	0.026826	0.017038	-20.149790	-85.135206	-48.613853
40740	9.755630	-0.001641	0.767523	-0.014103	0.010174	0.021332	-20.303072	-85.128001	-48.465712
40741	9.789323	0.018835	0.731580	-0.014608	-0.001567	0.024408	-20.419785	-85.136301	-48.353382
40742	9.821132	0.004014	0.736466	-0.007702	-0.006593	0.022744	-20.617416	-85.137755	-48.157044
40743	9.883042	-0.012114	0.670877	-0.008735	0.010493	0.029041	-20.731345	-85.138550	-48.044141
40744	9.868524	-0.017299	0.640354	-0.000221	0.004549	0.028672	-20.935146	-85.132748	-47.837300
40745	9.828241	-0.049632	0.700595	-0.000256	0.022859	0.026258	-20.996470	-85.127446	-47.772294
40746	9.726333	-0.021317	0.709755	0.005736	0.028300	0.020006	-21.084222	-85.110672	-47.678486
40747	9.719646	-0.029770	0.735511	0.005283	0.037879	0.014261	-21.030572	-85.099763	-47.725674
40748	9.709177	0.031452	0.834623	-0.000524	0.038937	0.013394	-21.054514	-85.078671	-47.699498
40749	9.667106	0.011863	0.820606	-0.006503	0.033029	0.013953	-21.016977	-85.070338	-47.737308
40750	9.705104	0.004660	0.806025	-0.008902	0.020908	0.016664	-21.108541	-85.058222	-47.648068
40751	9.764056	0.006226	0.799476	-0.012031	0.017543	0.020255	-21.149345	-85.056776	-47.610451
40752	9.701204	-0.023155	0.775536	-0.016598	0.031222	0.019915	-21.239881	-85.038468	-47.526658
40753	9.724746	-0.033225	0.730734	-0.017673	0.044363	0.021235	-21.225077	-85.022414	-47.548114
40754	9.752340	0.021199	0.813492	-0.029022	0.048255	0.024248	-21.307575	-84.994112	-47.479523
40755	9.683571	-0.067850	0.798873	-0.031690	0.053161	0.025476	-21.305059	-84.972419	-47.496711
40756	9.672284	-0.048814	0.807506	-0.030682	0.054863	0.022457	-21.360804	-84.940966	-47.455917
40757	9.681894	-0.020421	0.824761	-0.029413	0.048700	0.019707	-21.332300	-84.922774	-47.497894
40758	9.713209	-0.035109	0.834698	-0.027169	0.044700	0.019630	-21.392168	-84.897342	-47.450928
40759	9.767734	-0.005744	0.811505	-0.033165	0.039268	0.025861	-21.424091	-84.882809	-47.434413
40760	9.788276	0.000130	0.824283	-0.037813	0.040785	0.033123	-21.578090	-84.856630	-47.299050
40761	9.719516	-0.089449	0.808215	-0.032254	0.037959	0.029244	-21.631152	-84.842007	-47.260799
40762	9.774124	-0.060768	0.784750	-0.028490	0.038713	0.029980	-21.763939	-84.817565	-47.141356
40763	9.773802	-0.063770	0.788511	-0.025434	0.038597	0.027110	-21.797932	-84.802983	-47.118323
40764	9.773469	-0.066281	0.792428	-0.019233	0.041847	0.020664	-21.862050	-84.778843	-47.062492
40765	9.707306	-0.078182	0.827218	-0.010435	0.045870	0.012506	-21.784953	-84.763453	-47.142375
40766	9.706953	-0.079103	0.831259	-0.011321	0.037563	0.004622	-21.761175	-84.745017	-47.170247
40767	9.710097	-0.055655	0.869081	-0.003043	0.024141	0.000003	-21.657915	-84.743759	-47.272158
40768	9.693244	-0.092754	0.880791	0.002653	0.009477	-0.008594	-21.614470	-84.743076	-47.311730
40769	9.713169	-0.071086	0.814047	0.003892	0.003302	-0.011347	-21.488672	-84.755195	-47.432303
40770	9.759008	-0.080098	0.851343	0.010262	0.004356	-0.018009	-21.397576	-84.759212	-47.515341
40771	9.727343	-0.065708	0.845986	0.006134	-0.001175	-0.017113	-21.245799	-84.774813	-47.660714
40772	9.751567	-0.071783	0.796619	0.007239	-0.020008	-0.017968	-21.211278	-84.791813	-47.688669
40773	9.780093	-0.065215	0.858116	0.016070	-0.006814	-0.027313	-21.004725	-84.812426	-47.883326
40774	9.737666	-0.028467	0.855355	0.012303	-0.007094	-0.022363	-20.910937	-84.823414	-47.967869
40775	9.758584	-0.017092	0.863558	0.012754	-0.007988	-0.023516	-20.728660	-84.843718	-48.140066
40776	9.710359	-0.039902	0.867016	0.017181	-0.015538	-0.017976	-20.675881	-84.858318	-48.180616
40777	9.744666	-0.015321	0.828880	0.010982	-0.028422	-0.016030	-20.582774	-84.887935	-48.264319
40778	9.742516	-0.048973	0.867409	0.015536	-0.032949	-0.016889	-20.575832	-84.911656	-48.259785
40779	9.787780	-0.046141	0.824176	0.014972	-0.044705	-0.013832	-20.528826	-84.949482	-48.294927
40780	9.811360	-0.000406	0.787268	0.009883	-0.042767	-0.011111	-20.582467	-84.977316	-48.232820
40781	9.795017	-0.036717	0.794181	0.009477	-0.023537	-0.012350	-20.498208	-85.003436	-48.308530
40782	9.784306	-0.013947	0.795972	0.006096	-0.009870	-0.010233	-20.483879	-85.013452	-48.316826
40783	9.777764	-0.019883	0.817891	0.008869	-0.001650	-0.007678	-20.377097	-85.026822	-48.415499
40784	9.732869	-0.020417	0.857575	-0.004262	0.005354	-0.005761	-20.360953	-85.027776	-48.431566
40785	9.701134	-0.007473	0.852456	0.000996	0.001697	-0.003016	-20.278826	-85.038325	-48.510037
40786	9.701146	-0.007300	0.852325	0.000353	-0.004382	-0.000444	-20.315024	-85.043460	-48.470903
40787	9.736098	-0.036805	0.799651	-0.003863	-0.013404	0.001171	-20.295503	-85.061202	-48.489356
40788	9.757039	-0.027668	0.807490	0.003305	-0.007987	-0.002604	-20.324882	-85.068711	-48.455363
40789	9.747098	-0.057963	0.794447	0.005903	-0.007210	-0.004321	-20.250712	-85.084153	-48.523062
40790	9.736294	-0.035725	0.797306	0.001095	-0.004449	-0.008219	-20.237947	-85.090885	-48.532634
40791	9.736311	-0.034819	0.797137	0.009415	0.000943	-0.009543	-20.109334	-85.102903	-48.652962
40792	9.739727	-0.009731	0.831991	0.009435	0.000476	-0.015233	-20.035939	-85.108369	-48.718581
40793	9.718886	-0.017324	0.823001	0.005140	-0.002868	-0.014106	-19.888390	-85.123226	-48.860384
40794	9.725499	-0.008983	0.800105	0.007644	-0.005577	-0.015113	-19.829880	-85.131917	-48.912085
40795	9.757278	-0.019981	0.804827	0.005675	-0.009440	-0.014770	-19.691040	-85.150337	-49.044849
40796	9.757363	-0.018645	0.803824	0.004682	-0.011137	-0.011754	-19.667455	-85.161373	-49.063195
40797	9.730016	-0.033504	0.816619	0.003876	-0.005861	-0.010158	-19.549267	-85.176881	-49.176277
40798	9.746618	0.005234	0.805730	0.007104	-0.008167	-0.013250	-19.507325	-85.186603	-49.211643
40799	9.757564	-0.015205	0.801459	0.003784	-0.009347	-0.009447	-19.400207	-85.203765	-49.313682
40800	9.740219	0.000674	0.826271	-0.000489	-0.013161	-0.014008	-19.368367	-85.216329	-49.343269
40801	9.741276	-0.050238	0.808854	0.009786	-0.022227	-0.013280	-19.260632	-85.241090	-49.442490
40802	9.768873	-0.033077	0.792882	0.006648	-0.025597	-0.009697	-19.280318	-85.259567	-49.416261
40803	9.758191	-0.010179	0.793864	0.008818	-0.024390	-0.015954	-19.158960	-85.285921	-49.529718
40804	9.758353	-0.008436	0.791889	0.009273	-0.016120	-0.018308	-19.098406	-85.300897	-49.582486
40805	9.779320	0.002466	0.799319	0.010520	-0.012657	-0.016568	-18.942959	-85.320914	-49.729177
40806	9.758582	-0.005143	0.789086	0.007383	-0.016028	-0.012984	-18.917369	-85.334842	-49.747942
40807	9.737874	-0.012668	0.778498	0.011518	-0.020119	-0.018385	-18.763975	-85.359138	-49.892010
40808	9.724996	-0.024574	0.821615	0.012946	-0.018845	-0.016866	-18.714672	-85.375311	-49.931358
40809	9.738192	-0.008976	0.774556	0.012159	-0.023200	-0.019759	-18.556054	-85.401416	-50.080311
40810	9.767797	0.044398	0.717422	0.010280	-0.014416	-0.021328	-18.466704	-85.415988	-50.161359
40811	9.759298	0.004082	0.780194	0.009811	-0.013052	-0.014484	-18.319422	-85.435528	-50.300288
40812	9.752896	-0.001168	0.801524	0.006600	-0.011218	-0.017080	-18.252455	-85.447578	-50.360986
40813	9.752993	0.000705	0.800336	0.011710	-0.013140	-0.019810	-18.065520	-85.468001	-50.538613
40814	9.738744	0.000394	0.767641	0.007693	-0.015193	-0.019607	-17.988094	-85.482649	-50.609165
40815	9.714532	-0.030384	0.723121	0.013328	-0.005363	-0.025410	-17.741300	-85.499672	-50.845917
40816	9.666806	-0.012235	0.819409	0.010466	-0.007439	-0.022755	-17.621468	-85.510607	-50.957403
40817	9.748816	0.038556	0.777747	0.009235	-0.002211	-0.031390	-17.325368	-85.526741	-51.245968
40818	9.755307	0.048214	0.754877	0.011009	-0.004844	-0.024622	-17.184607	-85.536514	-51.378123
40819	9.755293	0.050360	0.754910	0.000232	0.005561	-0.018500	-16.964184	-85.546005	-51.595959
40820	9.697592	0.036946	0.839802	-0.000655	-0.001811	-0.014986	-16.890020	-85.552455	-51.668010
40821	9.759790	0.025233	0.773613	0.005016	-0.010295	-0.018376	-16.699606	-85.570462	-51.853016
40822	9.724663	0.015472	0.732438	0.002874	-0.011972	-0.017807	-16.623942	-85.582932	-51.924534
40823	9.700825	0.025497	0.780192	0.005474	-0.002497	-0.026429	-16.356800	-85.597831	-52.186234
40824	9.705345	-0.000132	0.799040	0.006654	-0.002985	-0.029669	-16.173630	-85.607228	-52.363394
40825	9.793720	0.057693	0.734641	0.007649	-0.009975	-0.025790	-15.922078	-85.625909	-52.608221
40826	9.804728	0.038760	0.730619	0.005482	-0.002493	-0.026430	-15.759706	-85.634432	-52.765183
40827	9.769848	0.070256	0.782508	-0.000300	0.002972	-0.016634	-15.549501	-85.644382	-52.973106
40828	9.736112	0.048900	0.818729	0.003748	-0.004125	-0.015631	-15.468247	-85.652088	-53.049701
40829	9.787312	0.058829	0.755953	0.008599	-0.007333	-0.017430	-15.265833	-85.667690	-53.244720
40830	9.739242	0.035177	0.760474	0.007768	-0.002062	-0.015838	-15.175546	-85.674262	-53.328055
40831	9.769926	0.076667	0.780935	0.009032	-0.007755	-0.012892	-15.004784	-85.689290	-53.491090
40832	9.780975	0.056630	0.776744	0.010212	-0.008243	-0.016132	-14.922029	-85.699303	-53.565459
40833	9.732961	0.032738	0.780771	0.007081	-0.011622	-0.012540	-14.760419	-85.716299	-53.720453
40834	9.770121	0.080572	0.778095	0.006600	-0.010260	-0.005696	-14.759800	-85.725891	-53.714524
40835	9.760393	0.050290	0.764731	0.010007	-0.014273	-0.003321	-14.668521	-85.742914	-53.797329
40836	9.760508	0.050969	0.763221	0.012100	-0.016546	-0.008868	-14.652970	-85.756455	-53.803206
40837	9.771627	0.030426	0.758301	0.016120	-0.014481	-0.009076	-14.514213	-85.774345	-53.930124
40838	9.787962	0.068848	0.746640	0.012421	-0.011295	-0.004827	-14.517917	-85.784396	-53.916504
40839	9.722545	0.058666	0.776564	0.011965	-0.010402	-0.003674	-14.412926	-85.799170	-54.011964
40840	9.743455	0.068341	0.784221	0.011700	-0.011697	-0.002739	-14.433263	-85.809152	-53.982073
40841	9.778376	0.039290	0.731325	0.013387	-0.009124	-0.002159	-14.335446	-85.822913	-54.069547
40842	9.788264	0.070107	0.742544	0.005402	-0.009298	0.003237	-14.399994	-85.830720	-53.998941
40843	9.761087	0.053821	0.755573	0.005934	-0.006706	0.001367	-14.327982	-85.842581	-54.064834
40844	9.809182	0.078958	0.750145	0.006517	-0.000160	0.004471	-14.383513	-85.845146	-54.002624
40845	9.788340	0.069351	0.741619	0.000773	0.004358	0.002886	-14.304016	-85.850583	-54.079003
40846	9.805703	0.053953	0.716436	-0.000545	0.010992	0.011318	-14.393995	-85.845990	-53.986306
40847	9.781769	0.060617	0.766376	0.000306	0.018835	0.013487	-14.367340	-85.841836	-54.009979
40848	9.760828	0.050146	0.759168	-0.004485	0.012413	0.010812	-14.452447	-85.836523	-53.924423
40849	9.781563	0.057784	0.769221	-0.010351	0.014394	0.021324	-14.500144	-85.833642	-53.879689
40850	9.754218	0.039489	0.784280	-0.008549	0.011295	0.022403	-14.677342	-85.827261	-53.704124
40851	9.794287	0.066897	0.726260	-0.010767	0.006133	0.023691	-14.759361	-85.828522	-53.625238
40852	9.757096	0.017641	0.729098	-0.013316	0.017990	0.023485	-14.933141	-85.818221	-53.455833
40853	9.749383	0.060853	0.769170	-0.006882	0.023028	0.021770	-14.963977	-85.810340	-53.426038
40854	9.712076	0.012206	0.773060	-0.004256	0.023343	0.014355	-15.051494	-85.798399	-53.337912
40855	9.721780	0.041428	0.787184	-0.004869	0.017268	0.016939	-15.056040	-85.794347	-53.333337
40856	9.759920	0.034532	0.771606	-0.002779	0.014991	0.011394	-15.136654	-85.787462	-53.251277
40857	9.738984	0.024173	0.764209	-0.000715	0.013185	0.011539	-15.106366	-85.786401	-53.279266
40858	9.729033	-0.007268	0.753164	-0.001201	0.009650	0.002026	-15.126251	-85.783872	-53.257186
40859	9.711501	0.007411	0.780303	0.003625	0.015598	-0.000983	-14.994695	-85.783275	-53.384236
40860	9.645853	-0.002663	0.812154	0.010667	0.004434	-0.007826	-14.944157	-85.785098	-53.425946
40861	9.714810	0.033012	0.815940	0.011439	-0.004795	-0.014389	-14.747761	-85.797646	-53.613545
40862	9.710343	0.062512	0.796281	0.006939	-0.005490	-0.007340	-14.722256	-85.804889	-53.632290
40863	9.753203	0.029517	0.797229	0.012082	-0.016563	-0.008855	-14.589021	-85.823028	-53.756217
40864	9.734450	0.056262	0.745171	0.010906	-0.016070	-0.005615	-14.594728	-85.835888	-53.741382
40865	9.745517	0.035300	0.740567	0.012222	-0.009119	-0.004598	-14.477716	-85.849204	-53.848981
40866	9.776255	0.075808	0.760700	0.009703	-0.006419	-0.003592	-14.480062	-85.856426	-53.838201
40867	9.769831	0.069129	0.782822	0.007427	-0.001951	0.002171	-14.402643	-85.864729	-53.908870
40868	9.769824	0.068674	0.782952	0.004963	0.004707	0.008151	-14.475589	-85.864103	-53.830024
40869	9.769788	0.067495	0.783509	-0.002057	0.006713	0.016208	-14.493965	-85.865522	-53.810121
40870	9.800087	0.064508	0.713372	-0.008085	0.010417	0.021243	-14.663115	-85.859831	-53.642309
40871	9.793508	0.055105	0.737670	-0.012012	0.025433	0.030180	-14.756266	-85.848784	-53.553165
40872	9.765977	0.035912	0.754593	-0.015452	0.039084	0.032274	-14.954107	-85.825540	-53.360809
40873	9.807335	0.050699	0.776286	-0.014412	0.045220	0.039915	-15.080311	-85.802009	-53.239903
40874	9.775167	0.058926	0.776034	-0.021771	0.060305	0.041497	-15.303249	-85.765569	-53.025992
40875	9.720040	0.022477	0.809137	-0.019075	0.055896	0.045963	-15.451225	-85.735103	-52.885935
40876	9.730524	-0.003791	0.811228	-0.027466	0.056172	0.046803	-15.718182	-85.700022	-52.631130
40877	9.740006	0.022362	0.828478	-0.021786	0.047686	0.043423	-15.861120	-85.674322	-52.497689
40878	9.757077	0.003278	0.807498	-0.021404	0.052477	0.041773	-16.088958	-85.641945	-52.278608
40879	9.767562	-0.022275	0.809238	-0.021359	0.052012	0.036082	-16.165868	-85.614895	-52.211148
40880	9.714562	-0.022639	0.800103	-0.019370	0.055886	0.035735	-16.337089	-85.581534	-52.047661
40881	9.744878	0.013929	0.826403	-0.016641	0.050521	0.028822	-16.360662	-85.556387	-52.030988
40882	9.662136	-0.036727	0.872068	-0.013572	0.050411	0.025954	-16.467524	-85.527586	-51.928704
40883	9.771500	0.024567	0.822653	-0.016585	0.050061	0.023130	-16.451271	-85.503532	-51.951970
40884	9.720414	-0.038253	0.873668	-0.015247	0.047852	0.025364	-16.558327	-85.476223	-51.850442
40885	9.729950	-0.010107	0.890259	-0.016585	0.040903	0.024335	-16.568943	-85.456924	-51.846774
40886	9.678062	-0.061351	0.863540	-0.014975	0.030344	0.021153	-16.681037	-85.439903	-51.740025
40887	9.726132	-0.038259	0.861452	-0.008889	0.020939	0.016630	-16.674844	-85.432742	-51.748821
40888	9.677686	-0.064363	0.867529	0.003754	0.010398	0.005228	-16.707093	-85.429281	-51.711400
40889	9.698442	-0.055493	0.877109	0.005906	0.002428	0.000183	-16.617658	-85.434900	-51.795225
40890	9.721756	-0.010504	0.844351	0.006491	-0.005096	-0.011856	-16.562486	-85.442750	-51.843924
40891	9.746778	-0.028475	0.872313	0.009302	0.002661	-0.014993	-16.365422	-85.450608	-52.033790
40892	9.725959	-0.036124	0.863494	0.008749	0.000068	-0.013129	-16.288917	-85.455809	-52.102586
40893	9.715105	-0.013083	0.866566	0.007674	-0.005590	-0.015091	-16.107704	-85.468078	-52.277510
40894	9.716122	-0.063792	0.850357	0.008127	-0.006486	-0.016242	-16.022267	-85.477358	-52.355616
40895	9.731821	0.027954	0.855001	0.016018	-0.009831	-0.020886	-15.802728	-85.492729	-52.564210
40896	9.753695	-0.013204	0.847275	0.013139	-0.011905	-0.018241	-15.709872	-85.505277	-52.646870
40897	9.733010	-0.020412	0.836962	0.013493	-0.016289	-0.018679	-15.517501	-85.523725	-52.829680
40898	9.760626	-0.002804	0.821686	0.017568	-0.019442	-0.012684	-15.474626	-85.539556	-52.859654
40899	9.770675	0.028981	0.832254	0.009226	-0.015201	-0.006889	-15.364167	-85.555500	-52.962768
40900	9.764180	0.022685	0.852910	0.005971	-0.022061	-0.002595	-15.404119	-85.571241	-52.916324
40901	9.743554	0.013799	0.841878	0.005521	-0.021164	-0.001444	-15.345329	-85.589582	-52.969764
40902	9.782093	0.008103	0.822796	0.001914	-0.023639	0.003288	-15.433135	-85.605302	-52.877652
40903	9.806421	-0.000035	0.772587	0.002388	-0.015366	0.000925	-15.381429	-85.620020	-52.925811
40904	9.799851	-0.006833	0.794275	0.000452	-0.000896	-0.001151	-15.393220	-85.623853	-52.910776
40905	9.789884	-0.037508	0.782676	-0.002664	0.014069	0.000008	-15.279156	-85.622411	-53.024382
40906	9.722943	0.004486	0.830620	0.004865	0.024755	0.000276	-15.247940	-85.611855	-53.049940
40907	9.754438	-0.007865	0.838746	0.005419	0.027348	-0.001590	-15.092369	-85.603221	-53.200539
40908	9.677507	0.003485	0.874963	0.002717	0.023082	0.000839	-15.070041	-85.593502	-53.218412
40909	9.680630	0.027367	0.911119	0.003677	0.006439	0.000244	-14.969852	-85.596065	-53.314500
40910	9.715707	-0.002244	0.859893	0.001424	0.001275	0.001522	-14.995181	-85.598313	-53.285314
40911	9.736537	0.006627	0.868561	0.002826	-0.006619	0.004255	-14.949138	-85.607419	-53.327620
40912	9.757381	0.015298	0.877081	0.000144	-0.001717	0.005472	-15.009355	-85.610740	-53.264175
40913	9.746637	-0.004875	0.788300	0.002441	-0.001759	0.010381	-14.998194	-85.616165	-53.271741
40914	9.799130	-0.009171	0.803096	-0.003618	0.007170	0.009209	-15.070270	-85.614008	-53.198560
40915	9.722345	0.001138	0.837602	-0.002193	0.008446	0.010731	-15.044755	-85.613691	-53.223198
40916	9.753982	-0.012327	0.843972	-0.003617	0.007171	0.009209	-15.116598	-85.611531	-53.150246
40917	9.747268	-0.019954	0.867061	-0.002712	0.005378	0.006907	-15.069904	-85.613432	-53.196452
40918	9.753878	-0.013894	0.845151	-0.003164	0.006275	0.008058	-15.134756	-85.611938	-53.130247
40919	9.781294	0.001157	0.832284	-0.001738	0.007550	0.009580	-15.102666	-85.612144	-53.161264
40920	9.770350	0.021873	0.836279	-0.003163	0.006275	0.008058	-15.167322	-85.610648	-53.095251
40921	9.767010	-0.003095	0.802550	-0.005319	0.014247	0.013098	-15.149532	-85.606579	-53.113995
40922	9.781011	-0.002077	0.835598	-0.009144	0.019173	0.011860	-15.219462	-85.597378	-53.046124
40923	9.785044	-0.031696	0.856708	-0.006988	0.020849	0.011298	-15.176533	-85.589873	-53.091044
40924	9.743263	-0.050931	0.840627	-0.007785	0.016485	0.008406	-15.225738	-85.582675	-53.043174
40925	9.818936	-0.010947	0.823999	-0.012093	0.013138	0.009528	-15.188452	-85.579603	-53.085362
40926	9.839575	-0.002933	0.834948	-0.018937	0.027357	0.009942	-15.233583	-85.566164	-53.047982
40927	9.797683	-0.022458	0.820312	-0.026781	0.039884	0.013372	-15.180608	-85.547834	-53.114463
40928	9.820635	0.020229	0.792491	-0.030478	0.057956	0.015901	-15.215242	-85.516583	-53.094238
40929	9.700054	-0.075521	0.840730	-0.028355	0.079709	0.007459	-15.047548	-85.476934	-53.276625
40930	9.677231	0.007798	0.946906	-0.026522	0.076134	0.002853	-14.955951	-85.437564	-53.380748
40931	9.635054	-0.011088	0.935016	-0.023066	0.051560	0.007433	-14.841606	-85.413338	-53.506591
40932	9.634672	-0.012132	0.938922	-0.019065	0.029572	0.010149	-14.883382	-85.398662	-53.472630
40933	9.655279	-0.004363	0.949749	-0.021153	0.007348	0.012888	-14.886939	-85.398092	-53.479168
40934	9.697335	-0.028442	0.876040	-0.020752	-0.002726	0.012938	-15.007717	-85.400880	-53.366915
40935	9.729005	-0.042399	0.881510	-0.014673	-0.002494	0.012914	-15.027364	-85.405546	-53.353599
40936	9.718155	-0.022110	0.884618	-0.018141	-0.001947	0.011232	-15.133564	-85.408136	-53.254466
40937	9.767468	-0.050773	0.864297	-0.014951	-0.003791	0.013844	-15.160782	-85.413387	-53.233703
40938	9.735828	-0.039342	0.858429	-0.012642	0.000906	0.006890	-15.228630	-85.415036	-53.169883
40939	9.746612	-0.061764	0.855895	-0.011499	0.015747	0.007662	-15.174921	-85.410476	-53.228422
40940	9.708008	-0.056639	0.874498	-0.009808	0.023535	0.002080	-15.165551	-85.400336	-53.240435
40941	9.710935	-0.033228	0.911600	-0.004462	0.023364	0.004139	-15.070436	-85.391954	-53.336442
40942	9.731532	-0.024605	0.922642	-0.002080	0.017156	0.003852	-15.080677	-85.385077	-53.324335
40943	9.685790	-0.014734	0.886659	-0.008664	0.008644	0.006220	-15.029351	-85.384347	-53.378814
40944	9.721405	-0.056773	0.912288	-0.002911	0.008042	0.012819	-15.118156	-85.381176	-53.288360
40945	9.682895	-0.052097	0.929614	-0.006902	0.005527	0.007305	-15.079994	-85.382118	-53.328741
40946	9.707340	-0.060230	0.881645	0.002775	-0.001418	-0.001926	-15.081850	-85.386379	-53.322248
40947	9.710492	-0.036439	0.916180	-0.000397	-0.004791	0.001638	-15.018853	-85.393691	-53.383716
40948	9.759833	-0.063857	0.895661	0.000054	-0.005688	0.000487	-15.046557	-85.399955	-53.352852
40949	9.673041	-0.082861	0.916392	-0.000128	0.001727	-0.005469	-14.923729	-85.404679	-53.474285
40950	9.707442	-0.059250	0.880594	0.002124	-0.002756	-0.011225	-14.863869	-85.411051	-53.530073
40951	9.749013	-0.039889	0.898761	0.005128	0.002812	-0.014568	-14.672343	-85.416275	-53.717342
40952	9.738138	-0.016860	0.902310	0.004847	0.001514	-0.013638	-14.585880	-85.420608	-53.798250
40953	9.755814	-0.030518	0.876453	0.004861	-0.003705	-0.007461	-14.455263	-85.428296	-53.924575
40954	9.755864	-0.029782	0.875922	0.004748	-0.007198	-0.006752	-14.431704	-85.436457	-53.942430
40955	9.776699	-0.020188	0.884392	-0.000354	-0.005259	-0.004052	-14.332408	-85.444718	-54.040652
40956	9.755940	-0.028945	0.875097	0.002608	0.000777	-0.001705	-14.330662	-85.447733	-54.037853
40957	9.728383	-0.044707	0.888238	0.002663	-0.004910	-0.001217	-14.243309	-85.455068	-54.121993
40958	9.738365	-0.014238	0.899905	-0.003397	-0.010359	0.004983	-14.311397	-85.463320	-54.052587
40959	9.766997	-0.050887	0.869595	0.006075	-0.014638	0.001662	-14.265314	-85.475592	-54.093611
40960	9.787911	-0.042186	0.877184	-0.001464	-0.015670	0.005847	-14.348139	-85.486668	-54.008310
40961	9.794794	-0.035941	0.853658	-0.002140	-0.006892	0.006732	-14.322853	-85.494136	-54.033133
40962	9.791698	-0.060081	0.818304	-0.001988	-0.003868	0.000333	-14.346068	-85.499438	-54.007927
40963	9.735595	-0.039791	0.861045	-0.001126	0.009674	0.002036	-14.264823	-85.498023	-54.088419
40964	9.781117	-0.050385	0.899587	-0.001351	0.017556	0.001770	-14.259198	-85.491227	-54.091772
40965	9.734393	0.011930	0.879762	-0.000489	0.016232	0.005158	-14.180845	-85.486075	-54.168973
40966	9.789829	0.031391	0.930696	-0.004223	0.010263	0.010583	-14.251759	-85.482089	-54.097197
40967	9.755921	-0.033561	0.875143	-0.016808	0.005484	0.017955	-14.295518	-85.480555	-54.061132
40968	9.783491	-0.019589	0.861919	-0.008916	-0.003093	0.019506	-14.455517	-85.482695	-53.902688
40969	9.787529	-0.050400	0.881000	-0.017406	0.003359	0.025505	-14.559740	-85.481466	-53.806606
40970	9.753097	-0.075711	0.916957	-0.018378	0.001193	0.022826	-14.740568	-85.480689	-53.632703
40971	9.777545	-0.085640	0.868628	-0.019877	-0.004036	0.016314	-14.786215	-85.484503	-53.596338
40972	9.819124	-0.069193	0.886711	-0.022662	0.002605	0.012065	-14.891361	-85.484477	-53.500812
40973	9.777128	-0.076570	0.792621	-0.016433	0.005856	0.005646	-14.844600	-85.484919	-53.555676
40974	9.798610	-0.120260	0.788113	-0.023952	0.039791	0.000305	-14.798960	-85.466022	-53.612145
40975	9.695469	-0.036409	0.816101	-0.008224	0.103935	-0.016608	-14.421753	-85.414798	-53.993719
40976	9.625049	-0.039743	0.988873	-0.003968	0.088465	-0.021023	-14.135432	-85.371846	-54.280165
40977	9.539489	0.018261	1.068007	-0.027893	0.072738	-0.009066	-13.884577	-85.336548	-54.546113
40978	9.609060	0.000597	1.061998	-0.017939	0.026423	-0.009220	-13.798494	-85.326317	-54.639708
40979	9.588228	-0.008046	1.053499	-0.016938	-0.012550	-0.002234	-13.724071	-85.338064	-54.722511
40980	9.700862	-0.049058	0.967085	-0.014855	-0.025290	0.004576	-13.816882	-85.354720	-54.634843
40981	9.732570	-0.050626	0.894042	-0.015871	-0.026992	0.007584	-13.843646	-85.372831	-54.615873
40982	9.743608	-0.073137	0.888572	-0.012497	-0.016162	0.008310	-13.946178	-85.383879	-54.517098
40983	9.736896	-0.080825	0.909258	-0.009273	-0.018476	0.005234	-13.943831	-85.395975	-54.522564
40984	9.764662	-0.064950	0.894528	-0.001736	-0.012216	-0.005110	-13.941146	-85.406671	-54.523160
40985	9.726261	-0.059064	0.910365	-0.000119	-0.003495	0.000704	-13.874750	-85.411329	-54.587682
40986	9.733151	-0.051809	0.887621	-0.001214	-0.003926	-0.007446	-13.841065	-85.417731	-54.619073
40987	9.723255	-0.081747	0.874881	0.004241	-0.000611	-0.006084	-13.733749	-85.423064	-54.723908
40988	9.701741	-0.049400	0.958206	0.002200	0.006440	-0.012410	-13.645630	-85.424362	-54.807945
40989	9.701493	-0.036586	0.882407	0.002771	0.003811	-0.008095	-13.491831	-85.427008	-54.958826
40990	9.747006	-0.046510	0.919962	0.003342	0.001181	-0.003780	-13.471685	-85.430056	-54.974014
40991	9.694618	-0.042403	0.905062	0.004242	-0.000610	-0.006084	-13.348208	-85.434006	-55.093323
40992	9.753861	-0.038499	0.897613	0.005665	0.000659	-0.004553	-13.321957	-85.437441	-55.113296
40993	9.715384	-0.032434	0.914243	0.003058	-0.000118	-0.002852	-13.234654	-85.441700	-55.198509
40994	9.767794	-0.035947	0.928933	-0.000402	-0.004795	0.001632	-13.263965	-85.447362	-55.166230
40995	9.753913	-0.038249	0.897066	-0.002892	-0.002077	0.002629	-13.196210	-85.451665	-55.233885
40996	9.705573	-0.063353	0.900673	0.000214	-0.007886	0.000257	-13.220480	-85.459231	-55.206306
40997	9.771727	-0.052806	0.870155	0.006163	-0.005927	-0.005225	-13.103489	-85.465360	-55.317601
40998	9.719579	-0.060264	0.931321	0.007133	0.001467	-0.008714	-13.045071	-85.468869	-55.368988
40999	9.698821	-0.068182	0.922176	0.006612	-0.001594	-0.012548	-12.867376	-85.472808	-55.540061
41000	9.733336	-0.043860	0.886018	0.015957	-0.009371	-0.015158	-12.775353	-85.483167	-55.620080
41001	9.715688	-0.027477	0.911165	0.012446	-0.003129	-0.017326	-12.546319	-85.491959	-55.842183
41002	9.725643	0.004602	0.923041	0.012168	-0.009655	-0.010225	-12.490731	-85.501831	-55.887827
41003	9.747480	-0.037691	0.915329	0.008827	-0.010837	-0.006443	-12.399354	-85.509298	-55.971512
41004	9.733679	-0.038966	0.882472	0.011939	-0.016643	-0.008814	-12.364364	-85.522892	-55.996623
41005	9.750521	-0.000484	0.871262	0.011437	-0.010057	-0.008145	-12.229114	-85.534366	-56.125974
41006	9.765511	-0.049622	0.886204	0.011837	-0.005263	-0.009780	-12.168767	-85.541699	-56.176577
41007	9.733877	-0.036378	0.880403	0.008795	0.004502	-0.002425	-12.047705	-85.540874	-56.289774
41008	9.716142	-0.021099	0.906480	0.010884	0.002218	-0.007960	-11.989054	-85.543779	-56.339217
41009	9.671819	-0.073834	0.929955	0.006234	0.003260	-0.006414	-11.887139	-85.543803	-56.436278
41010	9.663986	-0.027456	0.968255	0.016890	-0.001509	-0.012961	-11.794476	-85.549369	-56.516384
41011	9.709326	-0.024729	0.928841	0.013480	-0.006650	-0.014162	-11.597885	-85.559487	-56.705909
41012	9.716239	-0.016357	0.905540	0.015410	-0.011963	-0.013299	-11.518237	-85.570930	-56.773809
41013	9.737121	-0.005958	0.913364	0.014846	-0.014560	-0.011440	-11.361904	-85.584135	-56.921477
41014	9.748175	-0.026420	0.908295	0.012295	-0.021027	-0.009252	-11.325680	-85.600194	-56.947611
41015	9.758216	0.005230	0.918899	0.011959	-0.016636	-0.008808	-11.209934	-85.611938	-57.054561
41016	9.777074	-0.060594	0.876004	0.007016	-0.011672	-0.012508	-11.138442	-85.623089	-57.119096
41017	9.724749	-0.056022	0.860178	0.013610	-0.008375	-0.008696	-11.021961	-85.629269	-57.225652
41018	9.682612	-0.032034	0.933459	0.015239	-0.004540	-0.019258	-10.885025	-85.637118	-57.351092
41019	9.723829	-0.000309	0.874702	0.015130	-0.008033	-0.018549	-10.644239	-85.646894	-57.582785
41020	9.713362	0.011542	0.953629	0.010478	-0.006994	-0.017001	-10.528779	-85.655824	-57.689416
41021	9.699506	0.010925	0.920985	0.009694	-0.016578	-0.013722	-10.388435	-85.666711	-57.822156
41022	9.731343	-0.000179	0.924957	0.009586	-0.020070	-0.013013	-10.319910	-85.682559	-57.882225
41023	9.787700	-0.019234	0.880335	0.003121	-0.025098	-0.011352	-10.161849	-85.700005	-58.037238
41024	9.767149	-0.027191	0.868951	0.010903	-0.022287	-0.010777	-10.110909	-85.716857	-58.078908
41025	9.788119	-0.016917	0.875712	0.009204	-0.024858	-0.011374	-10.000766	-85.735216	-58.184777
41026	9.788332	-0.015791	0.873343	0.010628	-0.023583	-0.009847	-9.957740	-85.752698	-58.218670
41027	9.750085	-0.009329	0.887896	0.011146	-0.020517	-0.006018	-9.805646	-85.765971	-58.361577
41028	9.767940	-0.023347	0.860136	0.011149	-0.020516	-0.006018	-9.786327	-85.781333	-58.371391
41029	9.771207	0.001030	0.893042	0.012119	-0.018346	-0.003341	-9.641056	-85.797125	-58.510616
41030	9.750606	-0.007631	0.882178	0.008371	-0.019102	-0.004091	-9.635416	-85.811503	-58.508307
41031	9.768423	-0.021736	0.854670	0.013136	-0.016643	-0.006355	-9.390499	-85.827466	-58.745675
41032	9.788755	-0.000237	0.785882	0.010226	-0.013505	-0.009897	-9.330213	-85.839223	-58.797086
41033	9.757701	0.001628	0.855726	0.008625	-0.002939	-0.006715	-9.196871	-85.842293	-58.922775
41034	9.764418	0.009244	0.833452	0.004458	0.006376	-0.007516	-9.132700	-85.842568	-58.981391
41035	9.771033	0.016916	0.812385	0.002098	0.021756	-0.008434	-8.943880	-85.834942	-59.170524
41036	9.723130	-0.018915	0.895318	0.005397	0.023411	-0.006533	-8.866078	-85.825469	-59.242269
41037	9.662627	0.030199	0.920870	0.001324	0.021824	-0.000661	-8.770213	-85.815547	-59.337753
41038	9.705140	-0.003920	0.924454	0.002843	0.002549	0.003052	-8.793465	-85.817035	-59.309644
41039	9.721760	0.033136	0.913916	0.001684	-0.011822	0.007981	-8.754511	-85.827584	-59.348774
41040	9.735394	0.045985	0.867487	0.001193	-0.020104	0.010336	-8.862555	-85.841259	-59.236598
41041	9.750657	-0.005401	0.881632	0.002225	-0.013971	0.017991	-8.898547	-85.848548	-59.195546
41042	9.723281	-0.022801	0.893589	-0.005231	-0.015955	0.010802	-9.009632	-85.859807	-59.084008
41043	9.757646	-0.000993	0.856358	0.000956	-0.012223	0.010063	-9.001295	-85.864768	-59.087345
41044	9.741119	-0.039469	0.865712	0.000994	-0.003045	0.008859	-9.077955	-85.868874	-59.006740
41045	9.719296	0.002975	0.872268	0.003708	0.001227	0.006439	-9.051187	-85.868744	-59.030376
41046	9.736950	-0.012104	0.846431	0.003645	-0.002735	0.001460	-9.067966	-85.873335	-59.008284
41047	9.719324	0.002465	0.871954	0.001317	-0.002217	0.002237	-8.938865	-85.878457	-59.136210
41048	9.709482	-0.028394	0.859375	0.003645	-0.002735	0.001460	-8.955300	-85.883050	-59.114461
41049	9.719358	0.002519	0.871576	0.001918	-0.000092	-0.005316	-8.804028	-85.882170	-59.259670
41050	9.732848	0.016510	0.826400	0.004272	-0.005824	0.000090	-8.812804	-85.888626	-59.245231
41051	9.757850	-0.002996	0.854022	0.000758	-0.004813	0.004100	-8.831093	-85.889548	-59.224526
41052	9.778649	0.005703	0.862781	0.000411	-0.000425	0.004539	-8.870654	-85.892546	-59.181439
41053	9.730373	-0.019868	0.867092	0.000132	-0.001723	0.005471	-8.791160	-85.895571	-59.260030
41054	9.730384	-0.020304	0.866963	0.002740	-0.000943	0.003762	-8.823712	-85.898929	-59.222629
41055	9.778665	0.004478	0.862605	0.000970	0.002170	0.002676	-8.679730	-85.898873	-59.363560
41056	9.751130	-0.011999	0.876323	-0.004871	0.003700	0.007464	-8.739918	-85.899279	-59.302818
41057	9.782172	-0.013866	0.806408	0.000237	0.011416	0.009245	-8.683195	-85.890795	-59.354944
41058	9.760816	0.017029	0.890713	-0.007332	0.015589	0.007255	-8.728474	-85.884475	-59.310553
41059	9.757533	-0.007925	0.857609	-0.009872	0.018773	0.013941	-8.739676	-85.870068	-59.299024
41060	9.750627	-0.016282	0.881834	-0.008274	0.017854	0.015247	-8.844910	-85.861749	-59.195053
41061	9.725551	0.001322	0.855345	-0.013487	0.016297	0.018662	-8.841324	-85.848571	-59.199383
41062	9.697866	-0.016428	0.870448	-0.008720	0.018752	0.016398	-8.953721	-85.839614	-59.088470
41063	9.750150	-0.021829	0.886971	-0.010915	0.017549	0.022644	-9.068232	-85.827112	-58.977735
41064	9.756736	-0.017230	0.866489	-0.014723	0.022483	0.021402	-9.217014	-85.815547	-58.833785
41065	9.711360	-0.020809	0.907427	-0.017548	0.014722	0.024530	-9.316785	-85.808788	-58.746109
41066	9.749665	-0.028991	0.892084	-0.009420	0.013139	0.024662	-9.498181	-85.802153	-58.566410
41067	9.739624	-0.062187	0.881072	-0.015664	0.015103	0.024905	-9.706434	-85.791125	-58.366817
41068	9.749383	-0.034002	0.894981	-0.011176	0.016258	0.023575	-9.875120	-85.782743	-58.200873
41069	9.735219	-0.038447	0.865349	-0.012371	0.021973	0.020628	-9.934461	-85.772341	-58.151484
41070	9.739112	-0.068911	0.886207	-0.007210	0.014348	0.018417	-10.062867	-85.765507	-58.023652
41071	9.711414	-0.086321	0.900659	-0.006380	0.008593	0.011134	-10.049750	-85.757814	-58.035769
41072	9.734858	-0.042604	0.869203	-0.003166	0.011496	0.001879	-10.053363	-85.754224	-58.030739
41073	9.752803	-0.068873	0.920611	-0.003071	0.005339	-0.003323	-9.959585	-85.759602	-58.135168
41074	9.734720	-0.042145	0.870766	0.001528	0.009984	-0.005360	-9.907438	-85.757592	-58.183369
41075	9.766249	-0.054146	0.877761	-0.000400	0.015297	-0.006225	-9.759616	-85.749275	-58.328984
41076	9.727690	-0.047649	0.895644	-0.000754	0.010037	-0.010276	-9.671476	-85.747689	-58.414585
41077	9.734420	-0.039909	0.874224	0.002263	0.010386	-0.007441	-9.650437	-85.738767	-58.431169
41078	9.727520	-0.046073	0.897567	0.000106	0.008713	-0.006888	-9.589626	-85.737584	-58.488873
41079	9.712869	-0.006711	0.958683	0.007420	0.002759	-0.009650	-9.359102	-85.733349	-58.706295
41080	9.719705	0.000956	0.936098	0.004299	-0.006303	-0.005598	-9.324271	-85.740498	-58.735521
41081	9.727582	-0.044042	0.897005	0.005211	-0.013315	-0.001720	-9.101724	-85.751413	-58.953739
41082	9.730838	-0.019807	0.930045	0.003320	-0.023341	-0.006589	-9.079689	-85.768278	-58.970687
41083	9.718045	-0.073718	0.880659	0.004295	-0.021171	-0.003911	-8.894931	-85.786686	-59.156891
41084	9.745822	-0.057326	0.865150	0.008668	-0.023510	-0.004529	-8.884615	-85.803463	-59.159017
41085	9.755928	-0.026098	0.875319	0.008953	-0.022211	-0.005459	-8.794621	-85.814675	-59.240329
41086	9.762901	-0.018577	0.850883	0.007192	-0.019093	-0.006546	-8.763705	-85.829117	-59.263952
41087	9.756271	-0.024704	0.871528	0.009351	-0.017418	-0.007100	-8.608745	-85.836694	-59.406895
41088	9.735617	-0.032763	0.861090	0.010760	-0.010928	-0.011754	-8.524605	-85.846935	-59.481822
41089	9.745592	-0.000991	0.872705	0.009519	-0.004746	-0.009011	-8.348205	-85.850163	-59.650456
41090	9.745627	0.000131	0.872307	0.008658	-0.003422	-0.012400	-8.250641	-85.856170	-59.740044
41091	9.729008	-0.036400	0.881743	0.004925	-0.009391	-0.006970	-8.199574	-85.856017	-59.780088
41092	9.714118	0.014070	0.864890	0.004774	-0.012413	-0.000569	-8.206884	-85.866127	-59.766749
41093	9.739115	-0.005253	0.891850	0.000572	-0.012269	-0.000169	-8.129842	-85.873534	-59.842269
41094	9.766764	0.010575	0.877371	0.001545	-0.010099	0.002508	-8.160405	-85.882077	-59.807471
41095	9.736157	-0.029564	0.855075	-0.003560	-0.008163	0.005211	-8.182717	-85.881926	-59.780228
41096	9.750208	-0.027882	0.886156	-0.001916	0.000094	0.005315	-8.225990	-85.884442	-59.734666
41097	9.756967	-0.021657	0.863781	-0.006570	0.001134	0.006867	-8.148420	-85.884875	-59.815656
41098	9.746050	-0.000719	0.867574	-0.004473	0.008495	0.005820	-8.187402	-85.882584	-59.775861
41099	9.743317	-0.036798	0.909858	-0.005485	0.006796	0.008833	-8.262152	-85.871673	-59.695052
41100	9.715226	-0.041905	0.847583	-0.005896	0.007222	0.004294	-8.291347	-85.870207	-59.665879
41101	9.735949	-0.033259	0.857306	-0.003569	0.006702	0.003518	-8.503432	-85.864771	-59.457736
41102	9.735901	-0.033468	0.857845	-0.000340	0.004389	0.000441	-8.502901	-85.865226	-59.455188
41103	9.738993	-0.009924	0.893145	-0.001974	0.005781	0.004825	-8.427137	-85.864549	-59.534501
41104	9.749813	-0.031856	0.890360	-0.000791	0.005285	0.001592	-8.434664	-85.864399	-59.524135
41105	9.724887	-0.012824	0.862765	-0.004301	0.006301	0.005600	-8.376586	-85.866333	-59.591279
41106	9.728916	-0.041780	0.882519	-0.001692	0.007079	0.003894	-8.400451	-85.864981	-59.565059
41107	9.745540	-0.004656	0.873268	-0.001862	0.009273	0.004114	-8.331640	-85.866330	-59.643274
41108	9.717889	-0.020927	0.887564	-0.005331	0.009820	0.002432	-8.342830	-85.863555	-59.631864
41109	9.701111	-0.058576	0.898445	-0.002102	0.007506	-0.000645	-8.298353	-85.859163	-59.677875
41110	9.734450	0.016432	0.879059	-0.004710	0.006729	0.001060	-8.301986	-85.858250	-59.673686
41111	9.753412	-0.062532	0.914596	-0.006626	0.006823	0.006374	-8.421283	-85.854291	-59.561477
41112	9.749275	-0.034578	0.896135	-0.005442	0.006328	0.003142	-8.442252	-85.853428	-59.540338
41113	9.717554	-0.022496	0.891180	-0.008387	0.009940	0.005288	-8.474525	-85.848972	-59.516055
41114	9.728338	-0.044769	0.888724	-0.000999	0.007950	0.007503	-8.525107	-85.846817	-59.462679
41115	9.744979	-0.008018	0.879482	-0.005200	0.008096	0.007901	-8.386450	-85.843303	-59.602106
41116	9.710523	-0.031618	0.916031	-0.005199	0.008096	0.007901	-8.442001	-85.841033	-59.546154
41117	9.717251	-0.025564	0.894398	-0.005198	0.008097	0.007901	-8.408878	-85.842454	-59.590908
41118	9.748840	-0.039123	0.900667	-0.008203	0.002529	0.011245	-8.498514	-85.843062	-59.502518
41119	9.762424	-0.026610	0.856122	-0.008652	0.003427	0.012396	-8.299357	-85.842732	-59.704044
41120	9.744739	-0.012988	0.882085	-0.005425	0.001112	0.009320	-8.373452	-85.844312	-59.629631
41121	9.745637	-0.066305	0.866588	-0.012118	0.003976	0.010712	-8.234091	-85.837394	-59.764515
41122	9.734746	-0.045430	0.870308	-0.005268	0.004136	0.002921	-8.254301	-85.837777	-59.744018
41123	9.748693	-0.043534	0.902059	-0.004651	0.001044	0.001548	-8.076403	-85.843630	-59.932193
41124	9.734705	-0.045741	0.870759	-0.001760	0.003118	-0.001086	-8.064114	-85.844923	-59.942272
41125	9.710222	-0.037498	0.919003	0.000491	-0.001365	-0.006841	-8.038301	-85.842673	-59.964278
41126	9.733799	0.007468	0.886357	0.001801	-0.003587	-0.004605	-8.003977	-85.848040	-59.994403
41127	9.755529	-0.035822	0.879420	-0.005949	-0.001954	0.005489	-8.154690	-85.843202	-59.843180
41128	9.710308	-0.037188	0.918104	-0.002965	-0.006036	-0.002348	-8.143907	-85.849768	-59.852439
41129	9.748803	-0.042786	0.900903	-0.007615	-0.004992	-0.000799	-8.159446	-85.849801	-59.839100
41130	9.787278	-0.048394	0.883892	-0.005175	-0.002021	-0.002282	-8.146035	-85.854074	-59.852263
41131	9.724929	-0.075089	0.856682	0.000155	0.003025	-0.006399	-8.089335	-85.846440	-59.900429
41132	9.723972	-0.021952	0.872842	0.001904	0.005127	-0.011491	-7.992013	-85.847378	-59.993649
41133	9.749692	-0.092323	0.885782	0.003370	0.005931	-0.015653	-7.718675	-85.861277	-60.289053
41134	9.707145	-0.056412	0.884042	0.010462	0.007860	-0.018684	-7.556414	-85.861188	-60.442493
41135	9.723834	-0.017079	0.874486	0.006035	0.001021	-0.016870	-7.284041	-85.868576	-60.721343
41136	9.723835	-0.015128	0.874512	0.011873	-0.000515	-0.021650	-7.105351	-85.873382	-60.890453
41137	9.748698	-0.032418	0.902472	0.007560	-0.003862	-0.020545	-6.933168	-85.880341	-61.066772
41138	9.717099	-0.018062	0.896238	0.005812	-0.005964	-0.015452	-6.811254	-85.887757	-61.182451
41139	9.744745	-0.000619	0.882105	0.011494	-0.010523	-0.013834	-6.608503	-85.892518	-61.375358
41140	9.744832	0.000724	0.881149	0.008718	-0.009106	-0.011908	-6.514868	-85.901435	-61.461009
41141	9.755786	-0.019811	0.877067	0.007364	-0.006417	-0.008455	-6.570127	-85.902979	-61.404631
41142	9.776581	-0.010019	0.885876	0.011746	0.000894	-0.004582	-6.523999	-85.905717	-61.440920
41143	9.758874	0.004835	0.911893	0.002677	0.004740	0.003276	-6.425700	-85.912397	-61.553934
41144	9.747945	0.026109	0.915665	-0.003400	0.004507	0.003297	-6.447413	-85.912581	-61.530929
41145	9.776458	-0.011031	0.887217	-0.002924	0.008042	0.012817	-6.315816	-85.913142	-61.668729
41146	9.783175	-0.005487	0.865699	-0.007295	0.010380	0.013435	-6.414872	-85.909343	-61.570426
41147	9.773168	-0.037670	0.854611	-0.008534	0.016564	0.016178	-6.363288	-85.896082	-61.617782
41148	9.734533	-0.033595	0.873233	-0.006429	0.023928	0.015136	-6.462451	-85.884443	-61.518860
41149	9.727504	-0.041837	0.897948	-0.005241	0.023434	0.011904	-6.384102	-85.865735	-61.591353
41150	9.737204	-0.012349	0.912411	-0.006777	0.018670	0.011085	-6.455306	-85.857332	-61.520645
41151	9.705416	-0.000864	0.908204	-0.004113	0.013759	0.009870	-6.376365	-85.854948	-61.610637
41152	9.736962	-0.014440	0.914963	-0.002017	0.006251	0.010515	-6.450964	-85.853659	-61.533799
41153	9.761432	-0.023530	0.867451	-0.009278	0.006516	0.013763	-6.280614	-85.848002	-61.703288
41154	9.772216	-0.046597	0.864999	-0.007736	0.011283	0.014583	-6.385398	-85.843587	-61.599458
41155	9.733622	-0.042427	0.882941	-0.006194	0.016050	0.015403	-6.297320	-85.834844	-61.690936
41156	9.733468	-0.043935	0.884564	-0.005908	0.017349	0.014474	-6.394210	-85.826976	-61.593965
41157	9.726477	-0.052156	0.908477	-0.002963	0.013736	0.012329	-6.323105	-85.817860	-61.664066
41158	9.708674	-0.038591	0.935172	-0.006213	0.006400	0.010908	-6.401319	-85.816444	-61.585990
41159	9.733155	-0.047484	0.887818	-0.003769	0.009372	0.009428	-6.415700	-85.811157	-61.576020
41160	9.757846	-0.068162	0.916747	-0.003481	0.005450	0.014676	-6.522256	-85.810025	-61.467961
41161	9.763710	-0.010262	0.910734	-0.007801	0.007325	0.009600	-6.399486	-85.803886	-61.588974
41162	9.750612	-0.065673	0.864660	-0.006302	0.017782	0.009935	-6.459544	-85.796033	-61.529148
41163	9.735804	-0.028096	0.926884	-0.003526	0.016362	0.008012	-6.504766	-85.788382	-61.495341
41164	9.718872	-0.066240	0.938264	-0.004050	0.013297	0.004180	-6.522716	-85.783451	-61.476453
41165	9.704864	-0.068680	0.907893	-0.006899	0.010755	0.001120	-6.424735	-85.786154	-61.596495
41166	9.753199	-0.043958	0.904536	-0.008729	0.004691	0.001227	-6.429963	-85.786326	-61.593075
41167	9.725499	-0.059875	0.918417	-0.003673	0.008438	-0.001953	-6.355988	-85.787743	-61.683253
41168	9.707713	-0.045257	0.944790	0.000360	0.005262	0.004054	-6.377298	-85.787418	-61.658502
41169	9.686914	-0.054503	0.935990	-0.006239	0.001972	0.000233	-6.278825	-85.790962	-61.769494
41170	9.724504	-0.008181	0.934936	-0.002852	-0.007765	0.003115	-6.305717	-85.798121	-61.741005
41171	9.707826	-0.046132	0.943593	-0.003213	-0.018250	0.005237	-6.326037	-85.809850	-61.727191
41172	9.711838	-0.063537	0.884273	-0.005042	-0.024313	0.005343	-6.386132	-85.826289	-61.666677
41173	9.743648	-0.076587	0.887841	-0.000271	-0.021864	0.003092	-6.458506	-85.850025	-61.620730
41174	9.742925	-0.024596	0.901656	-0.002024	-0.018743	0.002006	-6.486772	-85.863518	-61.590434
41175	9.750849	-0.070055	0.861639	-0.003163	-0.018714	-0.000453	-6.332477	-85.871164	-61.740575
41176	9.754083	-0.046371	0.894822	-0.003776	-0.015621	0.000920	-6.349888	-85.882941	-61.722160
41177	9.764117	-0.015687	0.906279	-0.008759	-0.004960	-0.003266	-6.267256	-85.886758	-61.814247
41178	9.754230	-0.046405	0.893217	-0.005170	-0.007240	0.003888	-6.301498	-85.893574	-61.779764
41179	9.744336	-0.077294	0.880195	-0.008066	-0.004091	0.000344	-6.010070	-85.899406	-62.071668
41180	9.733528	-0.055751	0.883234	-0.004033	-0.002045	0.000172	-6.008862	-85.903495	-62.072070
41181	9.715873	-0.040963	0.908687	-0.003134	-0.003839	-0.002131	-5.898367	-85.900150	-62.170479
41182	9.733616	-0.055379	0.882289	-0.000030	-0.009650	-0.004500	-5.863667	-85.908832	-62.202145
41183	9.754465	-0.045875	0.890674	-0.007574	-0.005454	-0.006497	-5.948821	-85.912747	-62.133156
41184	9.775278	-0.036625	0.899445	-0.002158	-0.001672	0.000551	-5.949363	-85.916586	-62.130730
41185	9.788943	-0.022925	0.854880	-0.006569	0.006363	0.000684	-5.863157	-85.916954	-62.228584
41186	9.754429	-0.046251	0.891052	-0.013251	0.004008	0.008249	-5.926652	-85.917106	-62.169429
41187	9.792849	-0.052786	0.874835	-0.012516	0.004410	0.006168	-5.820025	-85.899098	-62.252284
41188	9.761168	-0.040890	0.869772	-0.016759	0.010251	0.006080	-5.862739	-85.895788	-62.215936
41189	9.781819	-0.032635	0.880303	-0.015095	0.018510	0.006199	-6.037640	-85.866280	-62.018036
41190	9.778487	-0.056991	0.848126	-0.019140	0.037032	0.004218	-6.044624	-85.847777	-62.018845
41191	9.785230	-0.062353	0.905434	-0.014608	0.032492	0.003378	-6.008915	-85.836780	-62.080721
41192	9.735422	-0.023823	0.852820	-0.015872	0.044371	0.005647	-6.019209	-85.814021	-62.076357
41193	9.665951	-0.069754	0.928468	-0.014962	0.047810	-0.002828	-5.782008	-85.786365	-62.320564
41194	9.682443	-0.044233	0.999135	-0.013207	0.039462	0.004427	-5.786090	-85.766469	-62.320894
41195	9.664369	-0.018235	0.951270	-0.009983	0.016574	0.003497	-5.664320	-85.761742	-62.462233
41196	9.699797	-0.059838	0.977108	-0.011327	0.003921	0.002924	-5.683221	-85.762199	-62.446637
41197	9.720502	-0.039778	0.910063	-0.011620	-0.002609	0.010022	-5.876235	-85.768597	-62.277520
41198	9.748167	-0.025021	0.896869	-0.014267	0.002308	0.011241	-5.962455	-85.769486	-62.196138
41199	9.742097	-0.085239	0.903935	-0.009537	0.010449	0.008518	-6.155363	-85.756738	-62.002860
41200	9.710381	-0.073801	0.899344	-0.009907	0.015303	0.014658	-6.254520	-85.749971	-61.905995
41201	9.696432	-0.088826	0.945249	-0.010958	0.009182	0.006985	-6.418020	-85.732952	-61.735967
41202	9.703266	-0.082625	0.923676	-0.004728	0.007204	0.006753	-6.460314	-85.731252	-61.693131
41203	9.706252	-0.059428	0.958915	-0.002609	-0.000775	0.001697	-6.378574	-85.736275	-61.787796
41204	9.737866	-0.060273	0.888092	-0.001387	-0.006961	-0.001056	-6.371317	-85.743146	-61.792744
41205	9.724096	-0.074069	0.932135	-0.001387	-0.006961	-0.001056	-6.491444	-85.753782	-61.695967
41206	9.758797	-0.051285	0.895450	-0.004082	-0.016925	0.001822	-6.516982	-85.766151	-61.669609
41207	9.728233	-0.090643	0.872146	0.002606	-0.014567	-0.005731	-6.298815	-85.767037	-61.867226
41208	9.721424	-0.097099	0.893458	0.001671	-0.007082	-0.003905	-6.267756	-85.774146	-61.894292
41209	9.745305	-0.063680	0.936798	0.008682	-0.009117	-0.011908	-5.795725	-85.779464	-62.352464
41210	9.738396	-0.057577	0.882440	0.009906	0.000040	-0.010628	-5.700824	-85.782870	-62.438800
41211	9.742338	-0.085042	0.901347	0.005874	-0.002003	-0.010463	-5.776048	-85.788956	-62.380015
41212	9.741452	-0.031819	0.917212	0.003390	0.000718	-0.009468	-5.693462	-85.791915	-62.457772
41213	9.769098	-0.015127	0.904238	0.002043	0.003407	-0.006013	-5.787811	-85.793301	-62.377905
41214	9.752215	-0.052288	0.914644	-0.001790	0.008817	-0.001562	-5.763396	-85.791197	-62.400333
41215	9.710650	-0.070369	0.896717	-0.005380	0.000645	0.003620	-5.656139	-85.788202	-62.503209
41216	9.738347	-0.066453	0.959996	-0.003623	0.002752	-0.001465	-5.638051	-85.789537	-62.520340
41217	9.734419	-0.038064	0.940973	-0.007376	-0.003224	0.003942	-5.653282	-85.800656	-62.535699
41218	9.752204	-0.053244	0.914701	-0.001717	-0.007800	0.005563	-5.696794	-85.807624	-62.490001
41219	9.731500	-0.062669	0.904855	-0.003017	-0.005572	0.003328	-5.719340	-85.806630	-62.465473
41220	9.738440	-0.056086	0.882053	-0.003180	-0.003376	0.003552	-5.744777	-85.811178	-62.438737
41221	9.763151	-0.075954	0.910015	-0.004481	-0.001147	0.001317	-5.690395	-85.806900	-62.487400
41222	9.703013	-0.026970	0.933144	-0.000975	-0.002164	-0.002685	-5.664979	-85.811100	-62.510379
41223	9.756319	-0.082466	0.931702	0.000249	-0.008349	-0.005438	-5.566960	-85.816283	-62.613771
41224	9.738587	-0.055669	0.880453	-0.001832	-0.006064	0.000097	-5.566463	-85.822545	-62.612262
41225	9.714024	-0.047761	0.927921	0.001673	-0.007081	-0.003905	-5.216197	-85.813529	-62.927104
41226	9.791050	-0.058502	0.894383	-0.002516	-0.001696	-0.009684	-5.135636	-85.817773	-63.006223
41227	9.714071	-0.046381	0.927496	-0.000117	0.001736	-0.005466	-4.969589	-85.821467	-63.183696
41228	9.714079	-0.046047	0.927430	0.000613	-0.003092	-0.001377	-4.952557	-85.826078	-63.197334
41229	9.721016	-0.038879	0.904595	-0.000647	-0.006556	-0.003134	-5.035979	-85.836737	-63.137515
41230	9.745837	-0.058122	0.931615	0.002043	-0.017164	-0.003878	-5.008409	-85.849518	-63.160927
41231	9.787380	-0.027835	0.872448	0.000251	-0.008348	-0.005438	-4.938703	-85.852906	-63.231969
41232	9.742960	-0.080745	0.894996	-0.001827	-0.000832	-0.006071	-4.884603	-85.856462	-63.284206
41233	9.738979	-0.051537	0.876354	-0.003620	0.007984	-0.007632	-4.673969	-85.855762	-63.507123
41234	9.661917	-0.039400	0.910441	0.002569	0.011701	-0.008344	-4.590984	-85.852249	-63.585809
41235	9.700342	-0.044365	0.894611	0.002041	0.003409	-0.006013	-4.417296	-85.852757	-63.768401
41236	9.734976	-0.032506	0.935397	0.004003	-0.002370	-0.010845	-4.322268	-85.857365	-63.858348
41237	9.714268	-0.040535	0.925707	0.005184	-0.008094	-0.007908	-4.365997	-85.852589	-63.798459
41238	9.710410	-0.011391	0.905615	0.003758	-0.014594	-0.003272	-4.338368	-85.863832	-63.820957
41239	9.732241	-0.054238	0.897405	0.000014	-0.015339	-0.004033	-4.193016	-85.884943	-64.002850
41240	9.753134	-0.044830	0.905186	0.004045	-0.013293	-0.004200	-4.156222	-85.895494	-64.034411
41241	9.725609	-0.060231	0.917221	0.004616	-0.010693	-0.006054	-4.072245	-85.895327	-64.107878
41242	9.739463	-0.045555	0.871294	-0.000102	-0.013602	-0.009499	-3.995291	-85.906247	-64.182074
41243	9.742609	-0.020995	0.905152	0.009381	-0.008242	-0.008302	-4.062656	-85.901115	-64.099788
41244	9.732791	-0.050730	0.891620	0.007391	-0.012110	-0.007979	-3.992907	-85.911102	-64.162442
41245	9.742818	-0.019224	0.902941	0.007842	-0.013005	-0.009131	-3.665372	-85.914536	-64.477784
41246	9.771487	-0.054657	0.872732	0.006777	-0.009018	-0.006602	-3.603881	-85.922661	-64.532499
41247	9.760680	-0.032173	0.875594	0.007748	-0.001623	-0.010088	-3.234699	-85.923119	-64.898310
41248	9.742962	-0.016647	0.901433	0.006233	0.003260	-0.006408	-3.168181	-85.924177	-64.958375
41249	9.733048	-0.046345	0.889049	0.008034	-0.000322	-0.011016	-2.963304	-85.921529	-65.157975
41250	9.726207	-0.052314	0.911356	0.010762	-0.001279	-0.007250	-2.889086	-85.925178	-65.223155
41251	9.750830	-0.059073	0.862676	0.010289	-0.010030	-0.010605	-2.897849	-85.935389	-65.225742
41252	9.740039	-0.036362	0.865270	0.008085	-0.006012	-0.010537	-2.800456	-85.941840	-65.315716
41253	9.740063	-0.035207	0.865046	0.010193	0.001352	-0.011566	-2.703355	-85.936728	-65.401912
41254	9.736260	-0.017523	0.922348	0.002371	-0.000983	-0.006464	-2.639957	-85.940162	-65.461085
41255	9.771742	-0.045837	0.870381	0.005243	-0.008551	-0.013598	-2.448957	-85.946551	-65.657567
41256	9.733350	-0.039105	0.886092	0.007237	-0.009910	-0.007752	-2.374886	-85.955106	-65.724653
41257	9.726601	-0.045335	0.907517	0.008376	-0.009940	-0.005293	-2.199175	-85.948920	-65.872070
41258	9.695088	-0.031907	0.900447	0.004729	-0.016840	-0.011261	-2.099459	-85.961471	-65.966276
41259	9.750443	0.001128	0.872129	0.004616	-0.020334	-0.010556	-1.758874	-85.974803	-66.313549
41260	9.733891	-0.035438	0.880282	0.001957	-0.015422	-0.009336	-1.673733	-85.986456	-66.394743
41261	9.734020	-0.034381	0.878902	0.006722	-0.012968	-0.011588	-1.619783	-85.998298	-66.464123
41262	9.740956	-0.026263	0.855247	0.006723	-0.012967	-0.011588	-1.512099	-86.008571	-66.565198
41263	9.734260	-0.031797	0.876333	0.010235	-0.013978	-0.015594	-1.123724	-86.020328	-66.964897
41264	9.727594	-0.037143	0.897185	0.008250	-0.017846	-0.015267	-0.983232	-86.033371	-67.097995
41265	9.741356	-0.021425	0.850819	0.010285	-0.014437	-0.021286	-0.802657	-86.028769	-67.243773
41266	9.734689	-0.026049	0.871741	0.017264	-0.015994	-0.023609	-0.586506	-86.040727	-67.447505
41267	9.737924	0.000104	0.904780	0.017327	-0.021680	-0.023126	-0.156601	-86.047109	-67.862423
41268	9.755815	-0.012137	0.876880	0.015459	-0.022054	-0.023504	0.060911	-86.062364	-68.068539
41269	9.717552	-0.004464	0.891481	0.014964	-0.020695	-0.016661	0.221417	-86.064132	-68.204581
41270	9.772807	0.029378	0.862867	0.019449	-0.019535	-0.017989	0.397278	-86.077852	-68.366633
41271	9.713760	0.027215	0.868590	0.011413	-0.019220	-0.006961	0.721365	-86.074600	-68.653380
41272	9.724838	0.006594	0.863388	0.006809	-0.018647	-0.011101	0.834694	-86.087745	-68.759976
41273	9.763446	0.002029	0.844810	0.013744	-0.019736	-0.007738	1.129646	-86.088415	-69.028956
41274	9.752678	0.024589	0.846421	0.008513	-0.016074	-0.010503	1.240508	-86.100018	-69.132075
41275	9.742957	-0.005002	0.832541	0.008342	-0.013880	-0.010281	1.275715	-86.101501	-69.153411
41276	9.743070	-0.003989	0.831232	0.007891	-0.012984	-0.009129	1.374632	-86.111323	-69.244905
41277	9.784685	0.015201	0.848348	0.007825	-0.007297	-0.009616	1.549688	-86.109829	-69.408228
41278	9.746298	0.021736	0.864509	0.011400	-0.004348	-0.008643	1.645404	-86.114671	-69.494490
41279	9.718837	0.006646	0.877344	0.005500	-0.006780	-0.008839	1.886270	-86.122189	-69.754171
41280	9.736578	-0.007161	0.850750	0.007268	-0.009894	-0.007755	1.974663	-86.130192	-69.835487
41281	9.725726	0.015416	0.853218	0.012483	-0.008329	-0.011169	2.131464	-86.133506	-69.990927
41282	9.743471	0.001797	0.826523	0.009598	-0.010410	-0.008532	2.228744	-86.141759	-70.079817
41283	9.764320	0.011934	0.834564	0.010332	-0.010005	-0.010614	2.355706	-86.138513	-70.184744
41284	9.736892	-0.002826	0.847175	0.011171	-0.006108	-0.013405	2.494289	-86.144143	-70.314111
41285	9.730223	-0.008110	0.868965	0.014687	-0.007114	-0.017416	2.703235	-86.140226	-70.501683
41286	9.719386	0.015392	0.871132	0.013969	-0.017160	-0.019827	2.903296	-86.151927	-70.691045
41287	9.698780	0.008387	0.860319	0.022554	-0.019624	-0.020853	3.061208	-86.155848	-70.823644
41288	9.737391	0.005374	0.841410	0.022957	-0.024474	-0.026986	3.332905	-86.171404	-71.079628
41289	9.747404	0.038817	0.851336	0.020357	-0.025254	-0.025277	3.488652	-86.184659	-71.229344
41290	9.747621	0.041246	0.848739	0.020949	-0.027872	-0.020959	3.712695	-86.202254	-71.438721
41291	9.775304	0.059580	0.832493	0.019536	-0.029144	-0.022484	4.205440	-86.208646	-71.909855
41292	9.772376	0.037970	0.795348	0.020251	-0.019095	-0.020080	4.420641	-86.221069	-72.110751
41293	9.738423	0.017261	0.829219	0.017140	-0.022942	-0.022197	4.712734	-86.222149	-72.372435
41294	9.720973	0.034478	0.852688	0.016914	-0.024705	-0.026956	4.992321	-86.237296	-72.639747
41295	9.748594	0.053168	0.836820	0.021813	-0.023962	-0.023757	5.466153	-86.240364	-73.091336
41296	9.742149	0.048874	0.856699	0.024510	-0.028856	-0.024975	5.741109	-86.257737	-73.349624
41297	9.742402	0.051350	0.853675	0.017609	-0.032998	-0.022141	5.957244	-86.279833	-73.576971
41298	9.742689	0.053832	0.850232	0.021042	-0.037486	-0.025444	6.247623	-86.301953	-73.852718
41299	9.794632	0.064601	0.784712	0.014238	-0.038140	-0.023321	6.627168	-86.320239	-74.232827
41300	9.743305	0.058625	0.842831	0.017266	-0.037774	-0.020496	6.878897	-86.342646	-74.472008
41301	9.733854	0.029970	0.826797	0.013249	-0.039834	-0.020304	7.162471	-86.354527	-74.730962
41302	9.753964	0.052488	0.755365	0.016461	-0.041658	-0.017699	7.398721	-86.379184	-74.955067
41303	9.741082	0.040958	0.796510	0.014543	-0.036828	-0.024256	7.720356	-86.388182	-75.249276
41304	9.734780	0.036408	0.815560	0.015055	-0.033759	-0.020433	7.976458	-86.407982	-75.494052
41305	9.720843	0.036222	0.780807	0.015977	-0.035543	-0.022737	8.582868	-86.404516	-76.053163
41306	9.730883	0.069244	0.789351	0.019378	-0.039556	-0.020351	8.855192	-86.427329	-76.311660
41307	9.729117	0.036339	0.827141	0.020574	-0.040041	-0.023589	9.117697	-86.436645	-76.535246
41308	9.758814	0.089976	0.767594	0.019957	-0.046118	-0.021005	9.411906	-86.462934	-76.815300
41309	9.736332	0.047853	0.796211	0.018718	-0.040417	-0.023958	9.888932	-86.468521	-77.256716
41310	9.780165	0.103832	0.768608	0.016520	-0.032460	-0.018917	10.147948	-86.487055	-77.503445
41311	9.743338	0.058855	0.767267	0.014086	-0.026273	-0.018632	10.363676	-86.498895	-77.712636
41312	9.759750	0.098348	0.754563	0.011380	-0.021384	-0.017413	10.591260	-86.511220	-77.930825
41313	9.732600	0.084216	0.766398	0.008709	-0.016969	-0.021884	10.669569	-86.511706	-77.977618
41314	9.771040	0.080578	0.747569	0.013494	-0.019226	-0.012292	10.848641	-86.523288	-78.145969
41315	9.750362	0.072557	0.737255	0.007110	-0.011626	-0.012521	11.080785	-86.521888	-78.365282
41316	9.760175	0.104599	0.748200	0.008719	-0.012535	-0.011221	11.236795	-86.529743	-78.513261
41317	9.712187	0.080493	0.752254	0.007730	-0.005546	-0.015110	11.546306	-86.508488	-78.767725
41318	9.731130	0.056312	0.801967	0.012782	-0.010936	-0.017117	11.756507	-86.514648	-78.967611
41319	9.737666	0.065114	0.778472	0.010297	-0.008713	-0.021805	12.253357	-86.510948	-79.468095
41320	9.722050	0.117192	0.761803	0.010568	-0.007415	-0.022740	12.508547	-86.514277	-79.714330
41321	9.712383	0.088757	0.748785	0.013557	-0.011001	-0.024895	12.864323	-86.500997	-80.025823
41322	9.736465	0.124628	0.791113	0.007473	-0.011270	-0.024837	13.145026	-86.506017	-80.299361
41323	9.726854	0.096337	0.777560	0.010388	-0.018340	-0.026273	13.606951	-86.496660	-80.730304
41324	9.750953	0.091043	0.727314	0.012001	-0.019246	-0.024973	13.910330	-86.505851	-81.023932
41325	9.792605	0.112278	0.743151	0.009743	-0.015255	-0.024906	14.388102	-86.500807	-81.493489
41326	9.738290	0.082513	0.768957	0.010595	-0.020523	-0.026489	14.710128	-86.510221	-81.806596
41327	9.720917	0.099809	0.792581	0.014473	-0.025416	-0.025258	15.303423	-86.505703	-82.376313
41328	9.745066	0.094923	0.741260	0.017902	-0.033847	-0.033536	15.730656	-86.521041	-82.790610
41329	9.727759	0.113022	0.763875	0.012088	-0.032823	-0.034410	16.212870	-86.522572	-83.239627
41330	9.755171	0.132642	0.746477	0.014296	-0.040289	-0.033757	16.663536	-86.540989	-83.679440
41331	9.731382	0.102705	0.699283	0.015300	-0.038583	-0.036783	17.145513	-86.549173	-84.140962
41332	9.746033	0.108913	0.726483	0.018930	-0.044763	-0.034617	17.627909	-86.569434	-84.609879
41333	9.779810	0.135346	0.685821	0.014068	-0.041569	-0.032822	18.165948	-86.560916	-85.077566
41334	9.729073	0.130056	0.744179	0.014304	-0.039795	-0.028069	18.578558	-86.579129	-85.479160
41335	9.750165	0.142333	0.748211	0.021077	-0.055220	-0.027555	19.008783	-86.605450	-85.903925
41336	9.783974	0.168051	0.706235	0.021981	-0.056521	-0.024169	19.453893	-86.633087	-86.333662
41337	9.778027	0.163244	0.723265	0.018170	-0.056350	-0.013507	19.804429	-86.656693	-86.662829
41338	9.791005	0.177747	0.672719	0.008326	-0.052984	-0.003491	20.050796	-86.686146	-86.901300
41339	9.850323	0.182015	0.659626	0.008765	-0.036809	0.004059	20.133583	-86.697524	-86.947119
41340	9.831139	0.206762	0.606583	0.004116	-0.015267	0.013626	20.092506	-86.709997	-86.900056
41341	9.823491	0.162824	0.670718	-0.004984	0.009041	0.029535	20.094611	-86.689903	-86.886892
41342	9.797808	0.178453	0.644205	-0.011186	0.018383	0.034071	19.740714	-86.688194	-86.535240
41343	9.770630	0.158455	0.660467	-0.014352	0.028107	0.041414	19.203458	-86.660856	-85.943729
41344	9.819820	0.127480	0.643139	-0.019556	0.039153	0.042922	18.700502	-86.649166	-85.447495
41345	9.743125	0.133885	0.681999	-0.022644	0.047933	0.038882	18.171919	-86.622298	-84.909524
41346	9.795513	0.127026	0.701276	-0.021047	0.060146	0.043916	17.606748	-86.598788	-84.351783
41347	9.767959	0.106531	0.721547	-0.026454	0.069435	0.040668	17.072848	-86.558988	-83.815953
41348	9.716224	0.053318	0.698653	-0.027846	0.063732	0.028493	16.651686	-86.530346	-83.406331
41349	9.767071	0.100379	0.734339	-0.020975	0.063946	0.020644	16.516005	-86.488526	-83.284703
41350	9.752237	0.095664	0.709287	-0.024708	0.063177	0.019919	16.187313	-86.458569	-82.965895
41351	9.716799	0.122956	0.767233	-0.020476	0.063071	0.019490	15.893729	-86.413877	-82.652481
41352	9.711378	0.061903	0.779424	-0.016191	0.040688	0.016543	15.666189	-86.395578	-82.430081
41353	9.727247	0.097995	0.772424	-0.014492	0.030151	0.013375	15.660329	-86.364918	-82.425691
41354	9.703034	0.063463	0.731467	-0.012071	0.020017	0.008119	15.562105	-86.356658	-82.330469
41355	9.712601	0.093700	0.745342	-0.006017	0.016331	0.003088	15.427600	-86.348860	-82.187803
41356	9.710698	0.058600	0.788096	-0.002680	0.004410	-0.004471	15.481568	-86.347282	-82.239694
41357	9.624391	0.039148	0.810067	0.000196	-0.006619	-0.010879	15.691696	-86.334714	-82.423995
41358	9.726954	0.098617	0.776027	0.009053	-0.024818	-0.021598	15.971238	-86.346523	-82.695155
41359	9.751121	0.092546	0.724881	0.004656	-0.031199	-0.014044	16.184845	-86.365090	-82.926172
41360	9.741753	0.104115	0.801244	0.003326	-0.037679	-0.009366	16.391616	-86.385804	-83.127716
41361	9.734110	0.109537	0.743677	0.006856	-0.038667	-0.013395	16.402019	-86.406437	-83.106849
41362	9.763007	0.074877	0.710263	0.008367	-0.047013	-0.016348	16.700871	-86.431083	-83.397741
41363	9.768301	0.135652	0.698876	0.009668	-0.040055	-0.015337	17.086807	-86.440536	-83.774089
41364	9.757167	0.071090	0.724875	0.012311	-0.035302	-0.012093	17.325617	-86.459267	-84.002541
41365	9.762397	0.131686	0.714161	0.015576	-0.037586	-0.015188	17.538614	-86.476408	-84.192012
41366	9.741848	0.123734	0.701880	0.012324	-0.035297	-0.012093	17.782058	-86.495021	-84.425090
41367	9.780322	0.119523	0.681444	0.010751	-0.030431	-0.008421	18.232533	-86.490059	-84.851990
41368	9.729547	0.112144	0.740885	0.011020	-0.029134	-0.009358	18.437484	-86.505610	-85.047224
41369	9.779294	0.173490	0.691093	0.008653	-0.028157	-0.002875	18.627996	-86.514315	-85.217124
41370	9.780857	0.121344	0.673403	0.001316	-0.018793	-0.000789	18.722520	-86.525744	-85.307290
41371	9.806520	0.102421	0.699766	0.006090	-0.012357	0.001875	18.575009	-86.528475	-85.112909
41372	9.797060	0.158608	0.660573	-0.000097	-0.003009	0.006412	18.556301	-86.532650	-85.090417
41373	9.785780	0.091925	0.690409	-0.001150	0.004444	0.008212	18.541153	-86.520894	-85.062060
41374	9.801809	0.128742	0.680236	-0.001413	0.003149	0.009148	18.478841	-86.522202	-84.996621
41375	9.812852	0.106303	0.677799	-0.006348	0.015493	0.009722	18.383599	-86.507518	-84.894194
41376	9.753703	0.101157	0.688046	-0.007004	0.018573	0.011090	18.255582	-86.500759	-84.766124
41377	9.795164	0.118742	0.707571	-0.005715	0.025525	0.012098	18.164834	-86.481577	-84.670380
41378	9.822112	0.133757	0.696830	-0.009917	0.038277	0.010582	17.984513	-86.463949	-84.491571
41379	9.746683	0.090954	0.720200	-0.008287	0.050012	0.009932	17.758140	-86.425259	-84.216655
41380	9.724159	0.132863	0.731711	-0.008541	0.048721	0.010868	17.552104	-86.401879	-84.011241
41381	9.711075	0.117968	0.780931	-0.005062	0.035567	0.014473	17.334320	-86.375040	-83.761652
41382	9.717261	0.123271	0.761303	-0.002934	0.024613	0.015844	17.158155	-86.365590	-83.582915
41383	9.749007	0.109651	0.768525	-0.005714	0.012896	0.014040	17.005104	-86.359504	-83.429703
41384	9.768204	0.128333	0.701602	-0.005505	0.002025	0.020739	16.845763	-86.363186	-83.269302
41385	9.779251	0.104376	0.699070	-0.006965	0.014334	0.028662	16.595284	-86.351138	-82.988335
41386	9.772769	0.094740	0.722903	-0.008644	0.011759	0.028083	16.346086	-86.350569	-82.739675
41387	9.790182	0.077212	0.698386	-0.009025	0.016138	0.028515	16.071869	-86.342245	-82.469921
41388	9.745344	0.073142	0.740080	-0.007879	0.024809	0.024051	15.826662	-86.333701	-82.224815
41389	9.777013	0.058916	0.748042	-0.005429	0.027316	0.016852	15.511617	-86.316074	-81.860282
41390	9.778657	0.092460	0.708987	-0.004699	0.027721	0.014764	15.343734	-86.304357	-81.690802
41391	9.733702	0.089690	0.751644	-0.004082	0.033800	0.012173	15.159132	-86.279956	-81.481273
41392	9.738062	0.060222	0.773906	-0.001361	0.028917	0.010952	15.025463	-86.266933	-81.344138
41393	9.749485	0.125034	0.747016	-0.007714	0.027356	0.011946	14.982036	-86.247986	-81.290682
41394	9.774649	0.104624	0.777729	-0.007019	0.028235	0.015549	14.809875	-86.235977	-81.118217
41395	9.743925	0.063100	0.759433	-0.007516	0.025170	0.011729	14.777936	-86.211562	-81.077887
41396	9.753495	0.092783	0.773882	-0.004989	0.022475	0.010726	14.662185	-86.201988	-80.960767
41397	9.722807	0.051689	0.755059	-0.004070	0.020689	0.008423	14.611416	-86.187466	-80.919570
41398	9.743478	0.060023	0.765390	-0.002436	0.010617	0.010946	14.522022	-86.184471	-80.827401
41399	9.735618	0.104863	0.804295	-0.001481	0.008357	0.002952	14.509258	-86.177831	-80.807164
41400	9.732339	0.080207	0.770136	-0.001682	0.001858	0.010080	14.446520	-86.179556	-80.741278
41401	9.738829	0.086137	0.747884	-0.004895	0.003679	0.007478	14.470752	-86.170173	-80.748524
41402	9.753091	0.087634	0.779563	-0.004474	0.003260	0.012017	14.387573	-86.171379	-80.663744
41403	9.759569	0.093238	0.757539	-0.008602	0.006869	0.011718	14.314643	-86.170909	-80.612819
41404	9.760816	0.039539	0.742492	-0.005471	0.001561	0.015039	14.209359	-86.173469	-80.506479
41405	9.746539	0.076766	0.803034	-0.007159	-0.001014	0.014456	14.009522	-86.179404	-80.297480
41406	9.762843	0.072069	0.700571	-0.002724	-0.003800	0.008129	13.973906	-86.183960	-80.259394
41407	9.749832	0.057492	0.745547	-0.004013	0.002367	0.010866	13.732254	-86.193197	-80.016267
41408	9.767342	0.041825	0.720032	-0.001138	0.004451	0.008210	13.679346	-86.193171	-79.959959
41409	9.743281	0.049267	0.768663	-0.000457	0.000894	0.001152	13.782337	-86.185652	-80.055707
41410	9.743270	0.049120	0.768805	0.005172	0.002049	0.002250	13.787947	-86.186142	-80.054422
41411	9.770543	0.065071	0.755541	0.001316	0.006955	0.001016	13.667922	-86.181587	-79.918443
41412	9.754965	0.114940	0.740493	0.003734	0.009933	-0.000488	13.679341	-86.177316	-79.923799
41413	9.738586	0.077282	0.752008	0.000757	0.013526	0.001666	13.684981	-86.163083	-79.932292
41414	9.711189	0.061017	0.766830	-0.001203	0.009655	0.002018	13.673342	-86.159294	-79.917367
41415	9.759218	0.086216	0.762880	0.001131	0.009146	0.001233	13.721927	-86.150948	-79.975479
41416	9.759147	0.086057	0.763798	-0.001203	0.009655	0.002017	13.710380	-86.147153	-79.960653
41417	9.722002	0.039079	0.766101	0.001775	0.006062	-0.000135	13.689296	-86.149573	-79.963617
41418	9.741477	0.101098	0.791163	-0.001584	0.009601	-0.008212	13.762152	-86.144426	-80.033634
41419	9.742655	0.049584	0.776536	0.004690	0.007672	-0.008480	13.883618	-86.134107	-80.167602
41420	9.717320	0.069625	0.749244	0.003543	0.007690	-0.010933	13.985195	-86.129621	-80.263466
41421	9.734757	0.097381	0.815575	0.007352	-0.001178	-0.014669	14.246015	-86.123321	-80.532969
41422	9.731564	0.074461	0.780428	0.008750	-0.008588	-0.006239	14.345698	-86.128487	-80.623956
41423	9.769976	0.069629	0.762426	0.004455	-0.011951	-0.005103	14.420788	-86.139037	-80.718442
41424	9.731742	0.075550	0.778106	0.006249	-0.015052	-0.004018	14.515119	-86.148094	-80.805526
41425	9.759186	0.091688	0.762649	0.003709	-0.021042	0.003895	14.502728	-86.165491	-80.800434
41426	9.783391	0.083463	0.712474	-0.000146	-0.016136	0.002660	14.541075	-86.176109	-80.835101
41427	9.770467	0.069501	0.756129	0.002963	-0.012280	0.004760	14.547154	-86.180654	-80.829352
41428	9.804349	0.092033	0.719016	0.001253	-0.005693	0.002955	14.561497	-86.185517	-80.839159
41429	9.760787	0.038210	0.742941	0.004024	0.002067	-0.000203	14.530142	-86.184734	-80.797066
41430	9.770538	0.068971	0.755251	0.003296	0.001665	0.001883	14.538609	-86.185362	-80.799816
41431	9.738705	0.081103	0.750062	0.001502	0.004766	0.000798	14.436344	-86.181324	-80.665026
41432	9.732166	0.074419	0.772901	0.000999	0.001698	-0.003022	14.484011	-86.181230	-80.708371
41433	9.738688	0.081430	0.750237	0.004586	-0.004503	-0.000851	14.499583	-86.187448	-80.728742
41434	9.732198	0.074804	0.772454	0.000915	-0.001788	-0.002303	14.548787	-86.189392	-80.773697
41435	9.770560	0.069522	0.754914	0.000749	-0.008760	-0.000864	14.673421	-86.197720	-80.938618
41436	9.749828	0.060454	0.745366	0.005502	-0.006291	-0.003154	14.742582	-86.202030	-81.000977
41437	9.749863	0.060895	0.744875	0.006043	-0.003698	-0.005025	14.810218	-86.192949	-81.027186
41438	9.753161	0.085523	0.778919	0.008753	-0.008586	-0.006242	14.912093	-86.198050	-81.120438
41439	9.711648	0.067822	0.760415	0.012275	-0.009586	-0.010266	14.881616	-86.207298	-81.079562
41440	9.711730	0.068773	0.759287	0.011466	-0.013473	-0.007459	15.006384	-86.214923	-81.194208
41441	9.739125	0.085791	0.744059	0.014449	-0.017064	-0.009612	15.209790	-86.214502	-81.391705
41442	9.748990	0.117722	0.754618	0.010778	-0.014350	-0.011063	15.367274	-86.222009	-81.539524
41443	9.760132	0.097031	0.749771	0.012540	-0.016971	-0.004287	15.530160	-86.225642	-81.690872
41444	9.771287	0.075970	0.744822	0.010206	-0.016463	-0.003501	15.630045	-86.235420	-81.781295
41445	9.742866	0.112622	0.772276	0.008061	-0.018145	-0.002930	15.520644	-86.247699	-81.637817
41446	9.760527	0.098074	0.744480	0.009134	-0.021644	0.000243	15.600736	-86.260918	-81.709012
41447	9.771707	0.076627	0.739222	0.009215	-0.018158	-0.000478	15.575491	-86.268260	-81.658929
41448	9.771824	0.076556	0.737680	0.007652	-0.013286	0.003190	15.610322	-86.277315	-81.685606
41449	9.727144	0.075154	0.776265	0.008727	-0.008105	-0.000555	15.707397	-86.280506	-81.781100
41450	9.778438	0.083261	0.713145	0.002100	-0.010961	0.001377	15.749362	-86.287989	-81.818128
41451	9.757711	0.074027	0.703371	0.005431	-0.009772	-0.002434	15.797275	-86.294930	-81.842742
41452	9.761080	0.098314	0.737156	0.002905	-0.007075	-0.001432	15.854549	-86.299831	-81.894658
41453	9.761138	0.098602	0.736357	0.001944	-0.009250	-0.004098	15.920914	-86.300641	-81.955342
41454	9.789716	0.062675	0.706332	0.001486	-0.008356	-0.002947	15.993644	-86.305994	-82.023559
41455	9.713177	0.074133	0.740021	0.005163	-0.002387	-0.008417	16.077426	-86.307232	-82.120435
41456	9.745034	0.062966	0.745078	0.004660	-0.005456	-0.012234	16.224388	-86.309495	-82.261233
41457	9.734050	0.085646	0.747599	0.002438	-0.010622	-0.010939	16.337220	-86.311197	-82.362089
41458	9.737458	0.110819	0.780883	0.006767	-0.016414	-0.010857	16.501575	-86.319659	-82.519105
41459	9.740708	0.094431	0.721957	0.003630	-0.019792	-0.007258	16.828577	-86.324922	-82.869236
41460	9.707165	0.072297	0.756494	0.001562	-0.017989	-0.007407	16.966546	-86.334728	-83.002821
41461	9.728148	0.082587	0.762813	0.003898	-0.031613	-0.011934	17.176611	-86.347958	-83.193244
41462	9.741214	0.097143	0.714744	0.002526	-0.028931	-0.008480	17.355497	-86.363510	-83.367275
41463	9.758879	0.083608	0.685881	0.009305	-0.032220	-0.015602	17.664739	-86.367870	-83.660519
41464	9.731848	0.069248	0.696916	0.002211	-0.025508	-0.019431	17.931452	-86.379517	-83.922715
41465	9.770304	0.065660	0.676767	0.009968	-0.035296	-0.016969	18.357936	-86.390971	-84.361249
41466	9.756410	0.106459	0.734372	0.005087	-0.023420	-0.022095	18.647343	-86.400785	-84.644545
41467	9.746856	0.077785	0.719402	0.009747	-0.037063	-0.021724	18.977374	-86.409061	-84.952414
41468	9.748795	0.115027	0.673850	0.009949	-0.039248	-0.021939	19.319234	-86.427259	-85.285454
41469	9.763498	0.119807	0.701073	0.008011	-0.043115	-0.021576	19.559192	-86.451377	-85.508550
41470	9.762164	0.087082	0.738368	0.007454	-0.049660	-0.024669	19.963277	-86.474443	-85.905362
41471	9.722509	0.105848	0.673902	0.014084	-0.059422	-0.024664	20.377987	-86.498105	-86.311061
41472	9.764509	0.127154	0.685529	0.012288	-0.056322	-0.025748	20.827322	-86.524159	-86.750412
41473	9.785707	0.138861	0.688345	0.008657	-0.062283	-0.020265	21.227966	-86.546780	-87.122716
41474	9.777842	0.144560	0.628801	0.006870	-0.054748	-0.010690	21.547254	-86.574762	-87.434859
41475	9.789236	0.124131	0.620300	0.006484	-0.050370	-0.010263	21.924353	-86.594814	-87.816270
41476	9.810342	0.134413	0.624374	0.006853	-0.041634	-0.006959	22.172320	-86.616408	-88.056972
41477	9.783476	0.118923	0.634671	0.010015	-0.034293	-0.005604	22.409116	-86.624160	-88.278748
41478	9.778829	0.147683	0.612524	0.008758	-0.024656	-0.003595	22.569361	-86.637380	-88.430464
41479	9.821962	0.114167	0.612189	0.004123	-0.019693	0.002966	22.846072	-86.641839	-88.735416
41480	9.745740	0.124625	0.645413	-0.001853	-0.013013	0.001604	22.911669	-86.649998	-88.798435
41481	9.745826	0.124527	0.644131	0.006580	-0.013236	0.000719	22.879651	-86.654342	-88.747321
41482	9.772988	0.140631	0.628851	-0.001592	-0.011719	0.000665	22.949090	-86.661603	-88.814027
41483	9.750787	0.096038	0.661601	-0.003056	0.000100	0.002889	22.913153	-86.658629	-88.768483
41484	9.712681	0.101247	0.678335	0.000947	-0.014406	-0.000347	23.003644	-86.667073	-88.854817
41485	9.778004	0.112161	0.645476	-0.000672	-0.013502	-0.001640	23.018639	-86.672989	-88.852932
41486	9.746166	0.124329	0.639012	-0.007225	-0.012888	-0.000399	23.099564	-86.680611	-88.934369
41487	9.763534	0.109619	0.611988	0.002683	-0.008351	-0.000503	23.150838	-86.680644	-88.978558
41488	9.799062	0.121615	0.650831	-0.006006	-0.009421	0.001323	23.203729	-86.686812	-89.031213
41489	9.789331	0.090483	0.638284	0.001104	-0.003490	0.003170	23.123258	-86.686217	-88.933610
41490	9.784502	0.118699	0.618690	0.002998	-0.003579	-0.002166	23.190209	-86.688518	-88.995170
41491	9.810212	0.100104	0.646313	0.004933	0.000290	-0.002536	23.139777	-86.685901	-88.919246
41492	9.796926	0.132638	0.573688	0.005748	0.008127	-0.000385	23.146394	-86.682434	-88.918783
41493	9.736475	0.093855	0.625780	0.006638	0.018965	-0.004650	23.150226	-86.664349	-88.893744
41494	9.691983	0.093419	0.667429	0.014332	0.013904	-0.014103	23.263105	-86.654733	-88.994786
41495	9.760671	0.130042	0.671237	0.012302	0.002598	-0.017974	23.388582	-86.651451	-89.115396
41496	9.707880	0.134379	0.657499	0.017365	-0.002294	-0.014307	23.567104	-86.650275	-89.280467
41497	9.766907	0.139903	0.647845	0.021414	-0.012839	-0.012575	23.635908	-86.655991	-89.333927
41498	9.760786	0.134377	0.668703	0.018910	-0.022772	-0.009600	23.854227	-86.666599	-89.537975
41499	9.787978	0.151440	0.652471	0.015654	-0.020486	-0.006497	24.024703	-86.671785	-89.693454
41500	9.796960	0.141425	0.570997	0.015048	-0.013929	-0.005857	24.173473	-86.678564	-89.830049
41501	9.773501	0.149757	0.618683	0.010002	-0.004598	0.001130	24.088542	-86.681742	-89.701695
41502	9.757570	0.112013	0.629011	0.007663	-0.004097	0.001929	24.123283	-86.685201	-89.728298
