// Start Time: Unknown
// Update Rate: 100.0Hz
// Filter Profile: human (46.1)
// Firmware Version: 4.6.0
PacketCounter	Acc_X	Acc_Y	Acc_Z	Gyr_X	Gyr_Y	Gyr_Z	Roll	Pitch	Yaw
21392	9.638661	1.187612	0.585942	-0.023046	-0.003652	0.009194	63.747525	-82.174071	-38.174783
21393	9.654091	1.123089	0.526875	-0.023333	-0.001197	0.011069	64.882033	-82.674696	-39.552752
21394	9.606212	1.113756	0.523550	-0.000529	0.001656	0.008508	64.281528	-82.425967	-38.839473
21395	9.650680	1.144545	0.521102	0.004015	-0.002134	0.011354	64.270873	-82.432358	-38.826403
21396	9.628291	1.253714	0.568104	0.014927	-0.002428	0.011894	64.275362	-82.440609	-38.822161
21397	9.628448	1.252706	0.567664	0.016085	-0.002666	0.010884	64.274546	-82.446891	-38.812041
21398	9.622339	1.280521	0.584778	0.015106	-0.006105	0.014525	64.280445	-82.455651	-38.809249
21399	9.651863	1.272444	0.538555	0.014058	-0.004654	0.011028	64.285937	-82.462501	-38.806663
21400	9.656630	1.230050	0.573180	0.014236	-0.008329	0.013660	64.303413	-82.470814	-38.816022
21401	9.629226	1.247998	0.564833	0.007248	-0.003650	0.014959	64.293690	-82.479444	-38.802026
21402	9.656094	1.245229	0.542361	0.010742	-0.005992	0.014310	64.300056	-82.486929	-38.802175
21403	9.614586	1.206603	0.520429	0.005375	-0.007680	0.015357	64.304270	-82.496765	-38.803320
21404	9.633503	1.220436	0.568483	0.006686	-0.009963	0.014600	64.326802	-82.504860	-38.822060
21405	9.666628	1.188828	0.527786	0.007974	-0.010616	0.011463	64.351435	-82.513414	-38.842297
21406	9.663230	1.211071	0.520757	0.010027	-0.010264	0.013697	64.380925	-82.520608	-38.866089
21407	9.633184	1.234763	0.535716	0.010004	-0.008635	0.011318	64.399299	-82.528594	-38.878840
21408	9.652107	1.248939	0.583457	0.006100	-0.014647	0.011862	64.451987	-82.535218	-38.928220
21409	9.657607	1.236786	0.534697	-0.006712	-0.016738	0.009347	64.496605	-82.544183	-38.977098
21410	9.624935	1.266162	0.573215	-0.006431	-0.007970	0.011579	64.519261	-82.547804	-39.003382
21411	9.616205	1.197464	0.511550	-0.005993	-0.012475	0.009958	64.546422	-82.556028	-39.034237
21412	9.630598	1.252915	0.523801	-0.000447	-0.014469	0.011540	64.602374	-82.560105	-39.090579
21413	9.591647	1.208995	0.477706	-0.003786	-0.014171	0.012444	64.632996	-82.570027	-39.123648
21414	9.639178	1.185963	0.562513	0.002739	-0.012727	0.010383	64.694668	-82.572147	-39.183764
21415	9.617015	1.193284	0.506061	0.004485	-0.019516	0.008004	64.759821	-82.581067	-39.246876
21416	9.614603	1.197932	0.528065	0.008132	-0.012679	0.011711	64.823966	-82.583316	-39.306386
21417	9.633630	1.212050	0.575308	0.019507	-0.019133	0.012999	64.887108	-82.594715	-39.358788
21418	9.660507	1.209431	0.551311	0.015142	-0.019011	0.012788	64.979917	-82.598248	-39.443059
21419	9.653609	1.254991	0.537709	0.024314	-0.012540	0.015693	65.014744	-82.609437	-39.464135
21420	9.634116	1.106036	0.467641	0.015168	-0.020650	0.015170	65.110975	-82.613251	-39.551923
21421	9.660365	1.223140	0.515933	0.036718	-0.018837	0.018094	65.173971	-82.627197	-39.594238
21422	9.647398	1.297437	0.519291	0.033815	-0.023050	0.017381	65.292134	-82.632683	-39.693114
21423	9.644177	1.319212	0.510994	0.023496	-0.018049	0.019593	65.342063	-82.647202	-39.729884
21424	9.669549	1.303768	0.539840	0.011135	-0.026264	0.017857	65.468982	-82.651149	-39.850386
21425	9.666363	1.325259	0.531805	0.005626	-0.014656	0.022757	65.489538	-82.666497	-39.867857
21426	9.598702	1.167243	0.458813	-0.003804	-0.020297	0.024116	65.578226	-82.669827	-39.958861
21427	9.647107	1.173090	0.460153	0.010300	-0.018893	0.023473	65.617659	-82.686540	-39.992649
21428	9.653272	1.261665	0.512583	0.014745	-0.023935	0.030825	65.725557	-82.695104	-40.092292
21429	9.649277	1.299736	0.474403	0.014800	-0.027213	0.035589	65.779731	-82.720089	-40.138337
21430	9.623318	1.297909	0.493685	0.004914	-0.026710	0.036189	65.894834	-82.729416	-40.249528
21431	9.619384	1.335689	0.455438	0.001854	-0.028873	0.035227	65.949966	-82.754583	-40.303992
21432	9.629607	1.279405	0.440666	0.006179	-0.033517	0.044705	66.083223	-82.769261	-40.434320
21433	9.637333	1.348487	0.521607	-0.002551	-0.033254	0.044297	66.138226	-82.800167	-40.491205
21434	9.658576	1.251366	0.441740	-0.007918	-0.034937	0.045362	66.273712	-82.813235	-40.631655
21435	9.629324	1.271797	0.454444	0.000723	-0.036461	0.050277	66.334087	-82.847983	-40.692076
21436	9.654189	1.270764	0.452442	-0.002582	-0.037806	0.053572	66.498914	-82.867195	-40.858907
21437	9.655055	1.265346	0.449136	-0.010822	-0.032445	0.058029	66.523135	-82.905092	-40.889565
21438	9.654944	1.277353	0.416342	-0.017042	-0.037996	0.060622	66.678220	-82.926176	-41.054021
21439	9.651989	1.265068	0.490084	-0.029310	-0.032079	0.056119	66.695157	-82.962994	-41.088003
21440	9.639537	1.215227	0.420295	-0.034968	-0.044204	0.057349	66.876959	-82.982394	-41.289036
21441	9.646261	1.180322	0.399005	-0.039861	-0.039164	0.060899	66.911045	-83.023330	-41.346377
21442	9.667427	1.171623	0.473766	-0.032893	-0.043931	0.059575	67.086096	-83.042836	-41.538393
21443	9.604313	1.119375	0.424293	-0.044213	-0.039077	0.060709	67.119487	-83.083635	-41.597528
21444	9.612981	1.048688	0.461742	-0.035660	-0.050254	0.059123	67.313354	-83.106061	-41.812628
21445	9.596487	0.992251	0.468018	-0.036265	-0.040412	0.055735	67.368206	-83.144491	-41.888781
21446	9.545757	1.002366	0.455358	-0.013222	-0.044731	0.060444	67.567743	-83.169870	-42.093004
21447	9.660198	1.062611	0.446590	0.004506	-0.047823	0.059336	67.674938	-83.211827	-42.198327
21448	9.545921	0.870598	0.374783	-0.038543	-0.029987	0.066403	67.770521	-83.239414	-42.315176
21449	9.695750	1.169153	0.388460	0.074627	-0.059037	0.072140	67.947862	-83.290571	-42.450639
21450	9.572003	1.232322	0.632368	-0.026432	-0.032283	0.068264	68.056473	-83.325920	-42.575429
21451	9.682444	1.099916	0.366489	-0.003932	-0.051739	0.059469	68.182478	-83.368770	-42.704585
21452	9.705786	1.211118	0.512644	0.003232	-0.045665	0.060106	68.356134	-83.399050	-42.880346
21453	9.641334	1.021294	0.419283	-0.014133	-0.050032	0.066504	68.458881	-83.445232	-42.991986
21454	9.686108	1.063397	0.382005	0.007342	-0.048013	0.071436	68.612531	-83.478674	-43.141285
21455	9.674987	1.102170	0.465925	0.004192	-0.051449	0.074996	68.720202	-83.529627	-43.247280
21456	9.626816	1.105306	0.428814	0.014619	-0.046980	0.079208	68.859659	-83.570845	-43.383886
21457	9.627935	1.097648	0.423328	0.015741	-0.063524	0.081227	69.023762	-83.627569	-43.540023
21458	9.665498	1.142714	0.508836	0.007460	-0.057759	0.087860	69.206221	-83.675326	-43.719753
21459	9.654389	1.084896	0.413278	-0.015431	-0.055441	0.083476	69.314636	-83.731558	-43.837844
21460	9.662104	0.886422	0.352898	-0.028140	-0.059496	0.081320	69.521618	-83.775392	-44.056279
21461	9.700826	0.800405	0.318775	0.001255	-0.058856	0.081198	69.666204	-83.831085	-44.201121
21462	9.617826	0.827515	0.398607	0.018644	-0.045875	0.087887	69.847442	-83.880863	-44.364552
21463	9.632233	0.767220	0.281138	0.027621	-0.053369	0.095633	69.959216	-83.943279	-44.461178
21464	9.727912	0.921974	0.371289	0.064780	-0.047394	0.080944	70.139565	-83.991475	-44.602595
21465	9.712184	0.775055	0.120990	0.038793	-0.047126	0.075655	70.267749	-84.041926	-44.709322
21466	9.708687	0.809037	0.081626	0.055879	-0.026693	0.077046	70.378554	-84.086483	-44.782954
21467	9.685507	0.607050	0.122752	0.057856	-0.036439	0.070655	70.475473	-84.132225	-44.847233
21468	9.756343	0.617212	0.146260	0.084424	-0.032911	0.051502	70.671883	-84.171351	-45.004275
21469	9.838934	0.624240	-0.054691	0.101672	-0.026655	0.044776	70.793455	-84.201287	-45.068182
21470	9.813324	0.724387	0.167073	0.124072	-0.016338	0.038809	70.996921	-84.234079	-45.199210
21471	9.730147	0.786838	0.166896	0.094649	-0.015237	0.036606	71.071260	-84.257531	-45.219696
21472	9.723482	0.818799	0.205970	0.081842	-0.015856	0.029716	71.282913	-84.287345	-45.379623
21473	9.780115	0.740982	0.278003	0.059643	-0.005689	0.021191	71.316045	-84.300781	-45.378842
21474	9.775971	0.619123	0.205317	0.076431	-0.006614	0.009862	71.462570	-84.316672	-45.481146
21475	9.766801	0.526761	0.150346	0.094637	-0.004477	0.015641	71.520123	-84.326923	-45.484773
21476	9.787282	0.731424	0.150546	0.126936	0.000479	0.018255	71.683446	-84.351918	-45.570830
21477	9.757670	0.906092	0.255080	0.127669	0.008027	0.014058	71.695535	-84.359160	-45.509723
21478	9.742812	1.022241	0.224410	0.106615	0.013339	0.013789	71.817161	-84.381841	-45.561109
21479	9.710797	1.070897	0.234823	0.089429	0.012966	0.006730	71.794784	-84.384366	-45.487349
21480	9.725670	0.982413	0.183229	0.052244	0.016499	0.002885	71.840615	-84.394472	-45.496920
21481	9.791797	0.877632	0.140269	0.048552	0.009287	-0.002864	71.833490	-84.392494	-45.461954
21482	9.709424	0.926270	0.172386	0.041351	0.015373	0.004850	71.852155	-84.401527	-45.454900
21483	9.745842	0.997539	0.234313	0.033621	0.017626	0.003217	71.779538	-84.401388	-45.362671
21484	9.735893	1.056311	0.270518	0.006571	0.016358	-0.000782	71.771807	-84.402226	-45.334409
21485	9.755011	1.089286	0.290857	-0.016462	0.019410	-0.003022	71.672319	-84.398305	-45.243879
21486	9.738724	1.033323	0.280373	-0.043222	0.012339	-0.004095	71.737297	-84.405214	-45.329562
21487	9.699282	0.956567	0.298399	-0.052092	0.014845	-0.004710	71.646995	-84.401293	-45.268737
21488	9.691239	1.009532	0.312010	-0.065785	0.022513	-0.001779	71.586114	-84.402306	-45.240032
21489	9.710067	0.880371	0.298047	-0.060894	0.013997	-0.000537	71.488242	-84.400815	-45.176644
21490	9.671688	0.814645	0.262840	-0.056875	0.018298	0.001233	71.446199	-84.403652	-45.161261
21491	9.658425	0.734913	0.258734	-0.038407	0.020882	-0.001746	71.325701	-84.400253	-45.062173
21492	9.634371	0.864303	0.378024	-0.026337	0.020071	-0.002328	71.327537	-84.405871	-45.079670
21493	9.658547	0.896835	0.298104	-0.017437	0.015896	0.000680	71.242937	-84.404784	-45.004597
21494	9.692634	0.841463	0.266202	-0.009996	0.019445	-0.000606	71.222969	-84.406855	-44.979187
21495	9.685570	0.876663	0.308922	-0.004197	0.013170	0.001471	71.160087	-84.406708	-44.918254
21496	9.692533	0.841604	0.269440	0.004328	0.019797	-0.005615	71.146162	-84.406202	-44.898717
21497	9.697439	0.812808	0.253848	0.019496	0.021098	-0.005261	71.066423	-84.400956	-44.807142
21498	9.692539	0.871568	0.189850	0.025096	0.015624	0.001072	71.050623	-84.404696	-44.778368
21499	9.691582	1.021719	0.280113	0.034239	0.025660	0.001211	70.941933	-84.402106	-44.649238
21500	9.691517	1.021784	0.282144	0.019300	0.021887	-0.001009	70.880151	-84.400780	-44.576514
21501	9.710561	1.054709	0.302894	0.014802	0.024169	-0.001453	70.773919	-84.396980	-44.461012
21502	9.711392	1.037232	0.334920	-0.005980	0.023749	0.001151	70.781598	-84.403016	-44.463181
21503	9.691334	1.021675	0.288743	-0.015709	0.020712	0.004468	70.666916	-84.403148	-44.356663
21504	9.694293	0.997646	0.297061	-0.026607	0.019594	0.006410	70.641631	-84.408240	-44.329911
21505	9.693105	0.985345	0.352620	-0.035346	0.020026	0.006050	70.516953	-84.409359	-44.224587
21506	9.693114	0.984418	0.354961	-0.050715	0.019517	0.009936	70.439125	-84.416649	-44.182880
21507	9.666068	1.003207	0.349677	-0.052616	0.013817	0.012766	70.325718	-84.422610	-44.098859
21508	9.644095	0.992471	0.326611	-0.060183	0.012316	0.013777	70.265539	-84.430999	-44.074543
21509	9.640015	1.002725	0.375553	-0.067648	0.010409	0.012660	70.162472	-84.437570	-44.009565
21510	9.665126	0.986826	0.408090	-0.073003	0.007121	0.016150	70.117573	-84.447342	-44.005677
21511	9.624094	0.942945	0.365685	-0.078484	0.005891	0.019378	70.019740	-84.458423	-43.952189
21512	9.656351	0.891471	0.356598	-0.071697	0.003082	0.017785	70.014065	-84.468094	-43.973094
21513	9.678576	0.898441	0.382507	-0.071895	0.003846	0.022042	69.926384	-84.481008	-43.925885
21514	9.654624	0.892705	0.381815	-0.059450	-0.003149	0.022257	69.852864	-84.490896	-43.895059
21515	9.656899	0.884645	0.358738	-0.065233	0.003093	0.020191	69.775683	-84.502912	-43.854638
21516	9.708275	0.733982	0.248847	-0.058350	-0.000091	0.016465	69.675253	-84.503711	-43.785197
21517	9.712127	0.690957	0.284952	-0.042272	0.003438	0.017694	69.613274	-84.514199	-43.746797
21518	9.708859	0.683137	0.362737	-0.030510	0.010141	0.011843	69.582933	-84.520393	-43.722424
21519	9.707289	0.717289	0.304585	-0.017385	0.007837	0.014772	69.516811	-84.528432	-43.665476
21520	9.681105	0.718547	0.327847	-0.004230	0.010172	0.008416	69.508317	-84.532504	-43.640320
21521	9.719469	0.782970	0.366494	0.007263	0.002675	0.005383	69.505256	-84.536525	-43.632436
21522	9.689543	0.826210	0.353873	0.004581	0.011039	0.004265	69.494841	-84.540373	-43.613337
21523	9.699999	0.797230	0.236549	0.011358	0.008270	0.002666	69.468776	-84.541829	-43.579947
21524	9.719165	0.829592	0.256230	0.016867	0.007813	0.001829	69.444050	-84.546674	-43.560239
21525	9.729156	0.902627	0.340839	0.014582	0.008306	0.003867	69.416745	-84.548801	-43.523860
21526	9.704219	0.916782	0.310470	0.013666	0.006097	0.003014	69.454352	-84.557918	-43.562118
21527	9.712074	0.864027	0.299450	0.007071	0.009761	-0.002031	69.427423	-84.556667	-43.530480
21528	9.692879	0.831574	0.281237	0.009277	0.007981	0.000446	69.415116	-84.556324	-43.507968
21529	9.714904	0.840710	0.306790	0.009503	0.005525	-0.001425	69.412192	-84.556232	-43.499009
21530	9.714873	0.840802	0.307511	0.002602	0.010360	-0.000086	69.415702	-84.561571	-43.509092
21531	9.712725	0.846556	0.332419	0.005453	0.016589	0.000343	69.344744	-84.560255	-43.434156
21532	9.706909	0.893432	0.322070	0.016144	0.018515	0.002673	69.284967	-84.560903	-43.360769
21533	9.686970	0.878271	0.274969	0.009740	0.015092	0.005041	69.215051	-84.562394	-43.284390
21534	9.689097	0.871957	0.252834	0.024675	0.018868	0.007300	69.164789	-84.563219	-43.201914
21535	9.684864	0.882973	0.301408	0.019743	0.012352	0.004651	69.117195	-84.565024	-43.142096
21536	9.689863	0.853259	0.285196	0.008351	0.019462	0.005541	69.058349	-84.565611	-43.066334
21537	9.692721	0.829435	0.292744	0.013172	0.014339	0.001987	69.001897	-84.565561	-43.001316
21538	9.665000	0.819911	0.369799	0.016128	0.020171	0.000287	68.915558	-84.563833	-42.906868
21539	9.693355	0.811763	0.325556	0.012112	0.015864	-0.001510	68.857368	-84.561578	-42.840738
21540	9.720306	0.791869	0.334341	0.016583	0.015257	-0.003451	68.846551	-84.562116	-42.816901
21541	9.714477	0.839294	0.323713	0.021971	0.016854	-0.004540	68.795363	-84.558060	-42.752130
21542	9.732813	0.889902	0.314325	0.023155	0.013259	-0.000782	68.798957	-84.566936	-42.762682
21543	9.723392	0.931244	0.380547	0.028381	0.020256	-0.006905	68.737787	-84.561011	-42.684308
21544	9.694105	0.957678	0.398378	0.030377	0.019258	-0.000167	68.749273	-84.563115	-42.660564
21545	9.655094	0.910338	0.332108	0.022118	0.013106	-0.001892	68.714539	-84.561382	-42.612264
21546	9.669111	0.972372	0.369963	0.016254	0.018085	0.000542	68.564285	-84.548602	-42.440404
21547	9.640580	0.980664	0.417018	0.010197	0.010161	0.001300	68.531474	-84.549046	-42.400853
21548	9.667564	0.960456	0.425302	0.002730	0.008280	0.000164	68.553201	-84.546955	-42.398670
21549	9.679119	0.913450	0.337579	-0.003785	0.005268	0.004655	68.532840	-84.550187	-42.379546
21550	9.674115	0.942261	0.355463	-0.001355	0.001037	0.005272	68.470727	-84.553237	-42.339515
21551	9.682741	0.871419	0.373792	-0.012169	0.001184	0.002668	68.471943	-84.556257	-42.347014
21552	9.677051	0.917866	0.361937	-0.010195	0.001861	0.007019	68.537001	-84.566762	-42.411127
21553	9.682825	0.870284	0.374245	-0.018702	-0.000162	0.004770	68.538171	-84.571243	-42.422301
21554	9.696276	0.949194	0.381191	-0.016499	-0.001940	0.007254	68.466868	-84.569610	-42.360736
21555	9.677243	0.915733	0.362209	-0.018788	-0.001442	0.009287	68.464253	-84.576693	-42.368194
21556	9.679509	0.908952	0.338542	-0.020848	-0.003398	0.009451	68.448270	-84.580082	-42.361574
21557	9.677470	0.913481	0.361843	-0.017588	-0.006706	0.015433	68.462041	-84.591512	-42.384791
21558	9.653465	0.908847	0.359932	-0.006583	-0.005968	0.011393	68.490130	-84.596531	-42.405576
21559	9.674909	0.934328	0.354773	-0.027238	-0.008483	0.014202	68.511307	-84.607641	-42.441731
21560	9.709248	0.877484	0.320393	-0.022975	-0.008312	0.016520	68.519558	-84.620230	-42.472243
21561	9.671789	0.793181	0.311234	-0.020460	-0.011266	0.012617	68.564023	-84.631089	-42.527933
21562	9.692561	0.836277	0.276067	-0.016196	-0.011095	0.014935	68.682292	-84.644699	-42.635981
21563	9.669923	0.796146	0.333133	-0.010930	-0.007436	0.013590	68.709495	-84.655286	-42.668759
21564	9.705542	0.883576	0.364539	-0.015089	-0.008001	0.009145	68.772537	-84.670864	-42.762794
21565	9.689316	0.826631	0.350674	-0.018067	-0.012162	0.008456	68.834702	-84.679762	-42.834885
21566	9.718554	0.799764	0.333489	-0.016006	-0.010209	0.008292	68.935071	-84.695011	-42.954778
21567	9.695181	0.777926	0.361020	-0.011882	-0.006300	0.007964	68.969060	-84.702497	-42.995058
21568	9.672568	0.785811	0.305686	0.001339	-0.009009	0.008785	69.063466	-84.718178	-43.105152
21569	9.694686	0.793983	0.329766	0.010073	-0.009440	0.009160	69.126319	-84.727014	-43.161848
21570	9.694089	0.810926	0.299238	0.011094	-0.007627	0.007885	69.117578	-84.730724	-43.157229
21571	9.713368	0.842780	0.317499	0.014299	-0.005921	0.006703	69.167426	-84.737491	-43.198488
21572	9.691429	0.833033	0.291727	0.012135	-0.007489	0.008996	69.273262	-84.752205	-43.302984
21573	9.714989	0.853171	0.262643	0.014319	-0.007599	0.009089	69.328501	-84.760644	-43.349667
21574	9.679627	0.895516	0.348826	0.015378	-0.009135	0.012587	69.418753	-84.768576	-43.411587
21575	9.706713	0.874469	0.355197	0.003728	-0.009898	0.004625	69.491889	-84.775048	-43.482252
21576	9.686895	0.858912	0.305639	0.003421	-0.008732	0.011010	69.581313	-84.788169	-43.572337
21577	9.709041	0.867010	0.329926	0.005465	-0.005104	0.008458	69.619584	-84.795764	-43.606997
21578	9.716900	0.813275	0.317357	0.010215	-0.013190	0.011807	69.663429	-84.805380	-43.655766
21579	9.690051	0.832503	0.308890	0.013178	-0.007359	0.010106	69.715747	-84.814299	-43.700144
21580	9.684552	0.878438	0.295950	0.015381	-0.009146	0.012586	69.743516	-84.821699	-43.721345
21581	9.703946	0.909687	0.313932	0.013096	-0.008649	0.014621	69.793568	-84.833274	-43.763505
21582	9.691863	0.840688	0.252741	0.004483	-0.010273	0.014510	69.875614	-84.847102	-43.845940
21583	9.671027	0.944415	0.375349	0.014157	-0.010190	0.018119	69.928590	-84.860878	-43.890427
21584	9.676121	0.913592	0.356412	-0.002747	-0.016275	0.013901	70.034329	-84.876329	-44.006594
21585	9.680488	0.900550	0.307829	-0.016069	-0.013157	0.015216	70.094987	-84.889144	-44.076211
21586	9.656505	0.895840	0.305167	-0.019053	-0.017317	0.014533	70.182760	-84.906974	-44.193897
21587	9.691305	0.821262	0.299490	-0.015947	-0.015229	0.015476	70.256271	-84.920362	-44.276427
21588	9.672894	0.769523	0.308522	-0.018811	-0.021456	0.015051	70.390844	-84.931745	-44.408311
21589	9.691687	0.817976	0.296100	-0.007292	-0.016972	0.020358	70.470536	-84.948060	-44.492009
21590	9.383687	1.150669	0.160532	-0.014361	-0.013027	0.028340	70.588432	-84.970285	-44.603106
21591	9.818124	0.357809	0.441006	-0.066600	-0.015788	0.031186	70.605322	-84.992232	-44.657801
21592	9.854834	1.017244	0.431502	-0.027313	-0.040540	0.011636	70.986520	-85.021222	-45.057952
21593	9.769162	0.657624	0.155379	0.017244	-0.021832	0.013090	71.131559	-85.034563	-45.193057
21594	9.645978	0.765452	0.343174	-0.026089	-0.015089	0.024911	71.250744	-85.054891	-45.317184
21595	9.699930	0.770246	0.243039	0.017741	-0.031792	0.016502	71.453768	-85.071872	-45.510150
21596	9.715457	0.812709	0.306443	0.004285	-0.024925	0.015191	71.676843	-85.090281	-45.725254
21597	9.687252	0.866991	0.237611	0.006252	-0.022588	0.017152	71.816829	-85.105886	-45.861520
21598	9.648117	0.770770	0.280100	-0.007533	-0.028258	0.016281	71.972808	-85.125057	-46.041673
21599	9.707860	0.878184	0.280902	0.004353	-0.029988	0.022350	72.150257	-85.144772	-46.216698
21600	9.691427	0.820483	0.264804	0.004859	-0.033603	0.014093	72.466245	-85.160661	-46.503808
21601	9.671469	0.803924	0.213016	-0.004235	-0.033302	0.024643	72.659724	-85.182075	-46.699743
21602	9.659080	0.854121	0.322301	-0.015196	-0.029374	0.019431	72.910227	-85.208499	-46.972136
21603	9.725009	0.776845	0.191703	0.008133	-0.036973	0.020058	73.148648	-85.227958	-47.206088
21604	9.692464	0.812290	0.251822	0.007850	-0.035829	0.026445	73.434836	-85.257444	-47.496408
21605	9.659208	0.865344	0.282361	-0.003897	-0.037857	0.023033	73.671549	-85.278566	-47.735578
21606	9.691113	0.813296	0.268057	-0.003752	-0.041625	0.025678	73.955015	-85.303005	-48.023604
21607	9.693342	0.805237	0.240385	-0.005747	-0.042289	0.021335	74.228666	-85.323721	-48.300891
21608	9.667505	0.805921	0.258786	-0.010019	-0.042453	0.019036	74.501296	-85.343469	-48.588100
21609	9.723518	0.757135	0.245387	-0.014543	-0.043156	0.025512	74.772907	-85.366422	-48.868406
21610	9.726760	0.761082	0.164107	-0.006433	-0.048675	0.020999	75.102727	-85.384958	-49.195051
21611	9.717798	0.817550	0.195310	-0.015726	-0.039551	0.021765	75.361126	-85.405062	-49.462739
21612	9.721615	0.774183	0.226832	-0.019647	-0.045935	0.020241	75.663737	-85.428341	-49.795126
21613	9.727313	0.724849	0.234774	-0.024634	-0.038348	0.025694	75.906779	-85.450285	-50.052574
21614	9.697097	0.784235	0.188827	0.004507	-0.032195	0.022587	76.186112	-85.469781	-50.319198
21615	9.682798	0.857189	0.291784	-0.008541	-0.039593	0.036155	76.434716	-85.497539	-50.572921
21616	9.643794	1.003867	0.197633	0.011551	-0.047262	0.035531	76.878130	-85.538031	-51.029382
21617	9.616431	1.008678	0.239802	-0.013193	-0.036546	0.040001	77.104974	-85.567405	-51.263994
21618	9.626817	0.928180	0.230010	-0.019216	-0.047908	0.045559	77.706543	-85.614953	-51.860490
21619	9.672224	0.940886	0.274800	-0.026693	-0.054499	0.053759	78.048348	-85.654023	-52.218058
21620	9.628921	0.900119	0.250000	-0.026975	-0.051694	0.057765	78.461878	-85.697260	-52.641707
21621	9.633961	0.894771	0.144575	-0.044343	-0.055883	0.064292	78.802803	-85.742074	-53.008468
21622	9.590608	0.852902	0.119952	-0.057886	-0.051629	0.072090	79.233018	-85.796883	-53.475209
21623	9.581664	0.922427	0.121432	-0.071710	-0.055637	0.068903	79.567832	-85.843959	-53.851517
21624	9.614584	0.817527	0.217997	-0.108679	-0.060514	0.077138	79.936783	-85.898329	-54.299602
21625	9.662874	0.833505	0.185428	-0.110698	-0.064288	0.079704	80.321237	-85.952035	-54.748067
21626	9.616893	0.813985	0.154289	-0.103050	-0.066334	0.083423	80.875732	-86.017622	-55.384484
21627	9.659582	0.833597	0.245532	-0.120582	-0.068189	0.091861	81.298876	-86.078104	-55.877404
21628	9.659567	0.842559	0.210604	-0.109794	-0.065105	0.089606	81.682978	-86.140132	-56.359452
21629	9.604427	0.898493	0.186170	-0.144579	-0.068506	0.095591	82.119122	-86.202311	-56.879215
21630	9.710494	0.621157	0.174553	-0.158250	-0.076438	0.095056	82.845759	-86.274398	-57.709344
21631	9.747494	0.705102	0.224373	-0.147152	-0.074833	0.084268	83.388500	-86.329911	-58.337363
21632	9.743108	0.566938	0.096920	-0.155439	-0.078052	0.075712	84.232363	-86.388426	-59.270845
21633	9.808010	0.448521	0.019124	-0.140221	-0.078673	0.078336	84.862624	-86.439812	-59.982494
21634	9.707873	0.428314	0.109330	-0.117514	-0.071168	0.068252	85.646993	-86.498678	-60.881161
21635	9.787814	0.390195	0.039758	-0.107613	-0.070583	0.062986	86.273703	-86.539967	-61.570590
21636	9.737166	0.207238	-0.055443	-0.061965	-0.069251	0.061765	87.058931	-86.583610	-62.397599
21637	9.731133	0.449183	0.032313	-0.048738	-0.070697	0.057891	87.757958	-86.620956	-63.125629
21638	9.738041	0.404043	-0.040162	-0.032490	-0.067947	0.054700	88.619556	-86.660881	-64.016551
21639	9.780556	0.456520	-0.032158	-0.011879	-0.068568	0.058508	89.354172	-86.697402	-64.759032
21640	9.752424	0.464196	0.032392	-0.019038	-0.055687	0.056902	90.224557	-86.743629	-65.665530
21641	9.799165	0.500667	-0.030346	-0.014087	-0.066777	0.056076	90.978013	-86.777628	-66.428161
21642	9.790948	0.571896	-0.028966	-0.007762	-0.059816	0.048913	91.894340	-86.814946	-67.364398
21643	9.788561	0.577884	0.013158	-0.018900	-0.053309	0.045768	92.536738	-86.842177	-68.018559
21644	9.723621	0.520511	-0.084118	-0.025356	-0.056487	0.050331	93.465898	-86.881636	-68.986340
21645	9.670478	0.744999	0.056899	-0.036144	-0.058024	0.050271	94.181205	-86.910314	-69.723447
21646	9.651496	0.703288	0.008515	-0.068520	-0.062579	0.050097	95.175253	-86.945714	-70.777567
21647	9.701470	0.685103	0.033453	-0.068409	-0.064733	0.050335	95.977474	-86.972880	-71.620233
21648	9.717139	0.546112	-0.017051	-0.070458	-0.065350	0.046011	96.948965	-87.003149	-72.656199
21649	9.728774	0.654184	0.027661	-0.038065	-0.065480	0.057539	97.820836	-87.032981	-73.551222
21650	9.714149	0.795995	0.013390	-0.051088	-0.066577	0.059576	98.981086	-87.066689	-74.737134
21651	9.698469	0.724699	-0.054065	-0.084720	-0.067064	0.057892	99.886013	-87.094923	-75.691977
21652	9.708017	0.637572	-0.091781	-0.097679	-0.068533	0.057804	101.029781	-87.126877	-76.911587
21653	9.711707	0.576573	-0.010676	-0.097454	-0.071391	0.053767	102.007482	-87.150554	-77.946598
21654	9.669059	0.527397	-0.084560	-0.119067	-0.072743	0.051342	103.463515	-87.178245	-79.476805
21655	9.700327	0.453546	-0.074926	-0.102698	-0.075333	0.055167	104.528533	-87.199952	-80.602240
21656	9.601208	0.448880	-0.036459	-0.113420	-0.077283	0.053010	105.801275	-87.215790	-81.921874
21657	9.634421	0.601654	-0.025575	-0.113148	-0.080479	0.046831	106.923535	-87.229775	-83.110527
21658	9.660168	0.580811	-0.003160	-0.142356	-0.083090	0.047702	108.184405	-87.247441	-84.488080
21659	9.651520	0.421314	-0.028356	-0.171355	-0.088517	0.044534	109.380219	-87.256293	-85.783816
21660	9.694317	0.451850	0.108000	-0.150524	-0.090580	0.039639	110.729010	-87.263357	-87.235627
21661	9.717419	0.219425	0.073067	-0.132847	-0.093231	0.029317	111.946048	-87.260351	-88.530563
21662	9.626134	-0.123149	0.155881	-0.113634	-0.082951	0.019854	113.111029	-87.257195	-89.788657
21663	9.639900	-0.568614	0.412024	-0.008541	-0.118805	0.004405	114.547093	-87.232554	-91.231660
21664	9.727548	-0.685880	0.277338	-0.005357	-0.136026	-0.009000	116.153697	-87.199788	-92.872321
21665	9.680465	-0.847474	-0.377772	0.125851	-0.151398	-0.020904	117.806267	-87.150004	-94.455160
21666	9.741846	-0.268938	-0.059393	0.259943	-0.158575	-0.032629	119.829537	-87.097772	-96.379162
21667	9.891092	0.005363	-0.399874	0.242099	-0.144868	-0.045142	121.228525	-87.033231	-97.641657
21668	9.906394	0.119132	-0.610959	0.307823	-0.128355	-0.064651	122.693486	-86.962982	-98.928807
21669	10.018301	0.475709	-0.670640	0.350411	-0.108355	-0.068552	123.581622	-86.895765	-99.617735
21670	9.925515	0.678442	-0.877416	0.326658	-0.067538	-0.060193	124.482395	-86.848547	-100.341104
21671	9.870063	0.978870	-0.878877	0.352211	-0.057325	-0.050242	124.992011	-86.805619	-100.650029
21672	9.779630	1.364339	-0.599911	0.300486	-0.023133	-0.041504	125.510774	-86.781315	-101.010672
21673	9.710579	1.537974	-0.271022	0.196137	-0.024275	-0.033602	125.741170	-86.756920	-101.129582
21674	9.682864	1.322600	-0.225911	0.082804	-0.020341	-0.026328	126.264607	-86.734510	-101.593876
21675	9.711094	1.040856	-0.162430	0.016714	-0.026038	-0.020798	126.477567	-86.715319	-101.798307
21676	9.830078	0.605609	-0.361048	-0.039138	-0.019294	-0.014425	126.909014	-86.697183	-102.232036
21677	9.915020	0.260318	-0.480588	-0.018962	-0.010834	-0.007615	127.056076	-86.689119	-102.390932
21678	9.874862	0.183133	-0.689778	0.042377	0.002203	-0.009691	127.186493	-86.681973	-102.473182
21679	9.893715	0.239292	-0.676214	0.065705	0.014889	-0.015304	127.133315	-86.679258	-102.382898
21680	9.906824	0.355839	-0.725190	0.066761	0.037735	-0.020098	127.044144	-86.676518	-102.223206
21681	9.785138	0.580552	-0.576446	0.112123	0.043722	-0.018232	126.774007	-86.682329	-101.888919
21682	9.782840	0.828228	-0.277895	0.057783	0.066588	-0.031144	126.457109	-86.689035	-101.551281
21683	9.764760	0.770400	-0.307464	0.023352	0.081189	-0.034240	125.740920	-86.699806	-100.821185
21684	9.787601	0.563789	-0.450704	0.006260	0.075510	-0.035918	125.148728	-86.701387	-100.187602
21685	9.725817	0.677335	-0.269743	0.007546	0.091603	-0.029078	124.360907	-86.716968	-99.394789
21686	9.722694	0.709088	-0.241842	0.003289	0.109952	-0.023647	123.510527	-86.737402	-98.527485
21687	9.710627	0.597639	-0.280364	-0.004104	0.105945	-0.024352	122.604248	-86.758369	-97.622726
21688	9.761887	0.588457	-0.340505	-0.015216	0.110784	-0.025045	121.883912	-86.779524	-96.924170
21689	9.811178	0.609613	-0.481753	-0.003351	0.132495	-0.018733	120.753415	-86.809586	-95.794486
21690	9.791320	0.567336	-0.433952	-0.007760	0.134428	-0.021194	119.734219	-86.836605	-94.781790
21691	9.783681	0.626863	-0.283194	-0.023510	0.146856	-0.029384	118.368287	-86.862806	-93.427958
21692	9.772186	0.516288	-0.318110	-0.057878	0.139686	-0.033391	117.131697	-86.877241	-92.191288
21693	9.835800	0.370929	-0.216236	-0.082980	0.144027	-0.041888	115.664558	-86.892805	-90.770219
21694	9.838634	0.339366	-0.143386	-0.095520	0.136909	-0.049969	114.116093	-86.899562	-89.274737
21695	9.837834	0.144252	-0.233174	-0.107723	0.147424	-0.067705	112.473736	-86.898107	-87.692421
21696	9.849223	0.026217	-0.114010	-0.081297	0.145727	-0.080119	110.797790	-86.890040	-86.086846
21697	9.840707	-0.089617	-0.196583	-0.061832	0.152843	-0.093645	109.048992	-86.870659	-84.371623
21698	9.895755	-0.139936	-0.139567	-0.013053	0.160594	-0.105589	107.343536	-86.846966	-82.690954
21699	9.890015	-0.050400	-0.216758	0.031495	0.167876	-0.121872	105.470398	-86.808838	-80.797604
21700	9.857401	0.035540	-0.193017	0.083090	0.182591	-0.129035	103.403471	-86.767191	-78.697755
21701	9.779507	0.062409	-0.082194	0.077893	0.184475	-0.143521	101.448852	-86.711826	-76.696042
21702	9.878751	0.121051	-0.244260	0.136241	0.181441	-0.164727	99.502318	-86.644289	-74.701678
21703	10.025497	0.192094	-0.379326	0.156489	0.212591	-0.172240	97.430784	-86.567309	-72.537521
21704	9.910474	0.159735	-0.403895	0.229898	0.226144	-0.176406	95.197954	-86.483151	-70.178854
21705	9.905270	0.573308	-0.199896	0.266545	0.227786	-0.162634	93.251838	-86.403032	-68.076832
21706	9.859751	0.916821	-0.058283	0.299881	0.253339	-0.158302	91.073649	-86.316064	-65.696195
21707	9.764618	0.997992	-0.334844	0.295210	0.276861	-0.153709	88.903521	-86.231608	-63.352809
21708	9.791943	1.032420	-0.438297	0.263773	0.305780	-0.139718	86.437712	-86.145206	-60.731044
21709	10.000896	1.084395	-0.252587	0.259245	0.309698	-0.138221	84.173429	-86.055887	-58.313481
21710	10.262674	1.005923	-0.302710	0.192420	0.359448	-0.149968	81.560822	-85.945261	-55.565298
21711	9.959424	0.821839	-0.116147	0.154894	0.386333	-0.149271	78.894469	-85.828018	-52.803922
21712	9.787063	0.843301	0.306707	0.187579	0.357029	-0.155309	76.532337	-85.693600	-50.311340
21713	9.700602	1.620675	0.846465	0.132743	0.368693	-0.163330	74.310434	-85.554887	-48.007488
21714	9.605550	1.866642	0.635603	0.039627	0.365684	-0.173291	72.112120	-85.394571	-45.770020
21715	9.376551	1.564527	0.248739	-0.071324	0.378411	-0.172039	70.015132	-85.236334	-43.707830
21716	9.264075	1.162863	0.201707	-0.132971	0.346124	-0.159738	68.023107	-85.059975	-41.745573
21717	9.271726	0.932238	0.551307	-0.199221	0.323068	-0.155517	66.404660	-84.911688	-40.236268
21718	9.232604	0.309066	0.308104	-0.167747	0.315145	-0.161781	64.838854	-84.739659	-38.747211
21719	9.569295	0.915751	0.304819	-0.043449	0.299481	-0.159125	63.624650	-84.588642	-37.553486
21720	9.370590	1.137647	0.537930	-0.080715	0.322854	-0.142211	62.238165	-84.422238	-36.179067
21721	9.465954	1.073255	0.423283	-0.160497	0.311701	-0.145074	60.993823	-84.269996	-35.021773
21722	9.666933	1.106759	0.627058	-0.164832	0.288697	-0.155565	59.886068	-84.095785	-33.967756
21723	9.600901	1.386802	0.634152	-0.188288	0.286280	-0.160997	58.910209	-83.938713	-33.095702
21724	9.620427	1.212746	0.712668	-0.227300	0.275046	-0.150996	57.847155	-83.769333	-32.185147
21725	9.732858	1.386317	0.821301	-0.252194	0.285834	-0.128751	56.841561	-83.624714	-31.319538
21726	9.623181	1.217820	0.700586	-0.198067	0.251757	-0.116981	55.879385	-83.463908	-30.463203
21727	9.673829	1.595414	0.851903	-0.146953	0.275670	-0.104712	54.988813	-83.330706	-29.652172
21728	9.622467	1.421407	0.891057	-0.181646	0.274474	-0.071896	53.902882	-83.188830	-28.696801
21729	9.615959	1.450114	0.914411	-0.132656	0.287159	-0.065878	52.937217	-83.066277	-27.801480
21730	9.512043	1.253076	0.796456	-0.105030	0.267889	-0.049767	51.901109	-82.929910	-26.871558
21731	9.618776	1.482457	1.065798	-0.046994	0.250225	-0.017539	51.042749	-82.838522	-26.034526
21732	9.596042	1.664343	1.223240	-0.058669	0.255094	0.020351	49.979402	-82.733890	-25.021095
21733	9.597185	1.750638	1.304760	-0.074783	0.254377	0.048746	48.944514	-82.666122	-24.021840
21734	9.579573	1.669410	1.345856	-0.140926	0.262024	0.065971	47.732287	-82.576529	-22.917438
21735	9.645181	1.545752	1.181196	-0.130435	0.239074	0.079225	46.664978	-82.522469	-21.917357
21736	9.695450	1.363536	1.203261	-0.173365	0.238112	0.100119	45.453623	-82.445806	-20.825641
21737	9.781710	1.132154	1.013745	-0.180434	0.237381	0.108368	44.307522	-82.398892	-19.774720
21738	9.896654	0.838526	0.868019	-0.169470	0.242221	0.118447	43.105011	-82.336762	-18.696981
21739	9.969862	0.543370	0.842682	-0.181538	0.258745	0.119945	41.891594	-82.279529	-17.578534
21740	9.871358	0.282231	0.931602	-0.159932	0.250462	0.102920	40.779097	-82.203914	-16.561574
21741	9.948719	-0.057012	0.915049	-0.117474	0.233950	0.077622	39.840089	-82.136104	-15.682715
21742	10.247967	-0.495644	0.681075	-0.037794	0.235719	0.050093	38.958054	-82.032723	-14.903418
21743	9.858345	-0.982357	0.766380	0.090112	0.276804	0.029889	38.216368	-81.925001	-14.103426
21744	10.383232	-0.898230	0.695602	0.239166	0.235122	0.003479	37.724286	-81.810659	-13.520180
21745	10.442145	-1.275344	0.694091	0.367044	0.279467	-0.016900	37.317719	-81.683279	-12.898077
21746	10.807445	-1.423656	0.455119	0.578312	0.309928	-0.054615	37.042230	-81.510397	-12.350788
21747	10.760414	-1.501538	0.562698	0.779039	0.335469	-0.114433	37.069706	-81.322938	-11.928447
21748	11.110567	-1.648809	0.315180	1.015873	0.354206	-0.176694	37.371622	-81.095612	-11.664739
21749	10.950239	-1.826327	0.340817	1.300339	0.347642	-0.255405	38.080087	-80.853917	-11.628979
21750	10.970645	-1.327924	0.309802	1.660854	0.347188	-0.343149	39.185270	-80.575962	-11.801931
21751	10.784152	-0.742760	0.512506	1.839951	0.374262	-0.421248	40.525917	-80.262009	-12.093705
21752	10.561588	-0.153227	0.142839	2.014147	0.377213	-0.487751	42.067172	-79.907411	-12.451695
21753	10.461398	0.497021	0.121763	2.104953	0.348670	-0.544250	43.786731	-79.553972	-12.974781
21754	10.429434	0.333079	-0.018024	2.131383	0.358705	-0.586171	45.532348	-79.163087	-13.422445
21755	10.739588	0.474285	-0.292810	2.269786	0.298057	-0.619593	47.457230	-78.793100	-14.059657
21756	10.774616	0.841224	-0.442533	2.324786	0.275005	-0.605282	49.372733	-78.425686	-14.569932
21757	10.688195	1.092019	-0.512668	2.315007	0.252685	-0.604322	51.233678	-78.071702	-15.116875
21758	10.437303	1.322878	-0.356283	2.233424	0.213946	-0.614854	53.079311	-77.725897	-15.666631
21759	10.128262	1.608010	0.054883	2.120243	0.159100	-0.631264	54.931047	-77.384468	-16.319793
21760	10.218119	1.702349	0.159799	1.932159	0.081090	-0.612306	56.741936	-77.079731	-17.041071
21761	10.428719	2.234799	0.378896	1.754153	0.020887	-0.609208	58.517259	-76.783160	-17.832728
21762	10.268763	2.277396	0.343316	1.472278	-0.005736	-0.619530	60.143312	-76.491119	-18.637223
21763	10.410184	2.509363	0.149389	1.246698	-0.031338	-0.621246	61.644116	-76.193368	-19.447520
21764	10.385441	2.491497	0.541870	0.941892	-0.044617	-0.627605	62.960225	-75.898233	-20.247746
21765	10.729213	2.209984	0.540517	0.694246	-0.050245	-0.636425	64.108754	-75.589030	-21.023271
21766	10.580223	2.342401	0.616797	0.348628	-0.103492	-0.604611	65.102446	-75.312702	-21.843628
21767	10.793157	2.746826	0.999920	0.132784	-0.074840	-0.511383	65.796398	-75.068318	-22.483649
21768	10.947576	2.482939	1.077640	-0.084801	-0.192284	-0.474272	66.548596	-74.875223	-23.312851
21769	10.659526	1.094093	0.428521	-0.447762	-0.249345	-0.429357	67.141096	-74.709458	-24.193631
21770	10.869941	2.588480	0.866927	-0.272087	-0.227418	-0.373561	67.739037	-74.573005	-24.975341
21771	10.757713	1.361447	1.093882	-0.610130	-0.342333	-0.350701	68.327683	-74.464213	-25.949808
21772	10.806310	1.801790	1.224463	-0.524717	-0.391197	-0.289759	69.010159	-74.402464	-26.970216
21773	10.509861	1.830920	1.465997	-0.709604	-0.490309	-0.211038	69.708005	-74.392463	-28.117808
21774	10.823074	1.527379	1.029975	-0.629149	-0.466005	-0.137157	70.359075	-74.421349	-29.167759
21775	10.477475	1.650130	1.621812	-0.676115	-0.493149	-0.084225	70.997850	-74.473357	-30.233837
21776	10.701982	1.690488	1.363315	-0.628133	-0.520745	-0.016085	71.684759	-74.572020	-31.319659
21777	10.562835	1.595422	1.488993	-0.655890	-0.528588	0.057346	72.331607	-74.700810	-32.381117
21778	10.681445	1.635760	1.445079	-0.601226	-0.506654	0.122010	72.943336	-74.866448	-33.371571
21779	10.553627	1.804262	1.603315	-0.579840	-0.514598	0.192100	73.555847	-75.060748	-34.350707
21780	10.438255	1.697077	1.281386	-0.534521	-0.532421	0.264402	74.211645	-75.303570	-35.345247
21781	10.335568	1.691567	1.243226	-0.462567	-0.564116	0.339937	74.959694	-75.581107	-36.392832
21782	10.203032	1.720589	1.396953	-0.380090	-0.587953	0.411850	75.803497	-75.907342	-37.487388
21783	10.415245	1.810183	1.239515	-0.309542	-0.609594	0.476248	76.747880	-76.259063	-38.643940
21784	10.295311	2.020404	1.216552	-0.250241	-0.617893	0.547463	77.764033	-76.656164	-39.835738
21785	10.238571	2.071576	1.033929	-0.204608	-0.597942	0.601734	78.799088	-77.066993	-41.019880
21786	10.068346	2.222652	0.943540	-0.195017	-0.630550	0.653186	79.970662	-77.514391	-42.334410
21787	9.907112	2.418306	0.942330	-0.182645	-0.642123	0.707601	81.249686	-77.977946	-43.751210
21788	9.970461	1.949556	0.363155	-0.193174	-0.660902	0.736357	82.671273	-78.461317	-45.315353
21789	9.844743	2.004274	0.406137	-0.150292	-0.645047	0.771478	84.189421	-78.946093	-46.952162
21790	9.872245	2.086092	0.325422	-0.122780	-0.679335	0.818121	85.963895	-79.458855	-48.829038
21791	10.042132	1.739638	0.051817	-0.073572	-0.694176	0.855643	87.990770	-79.972559	-50.932689
21792	10.362327	2.682435	-0.097658	0.019385	-0.729044	0.893883	90.418021	-80.502331	-53.383043
21793	10.240572	1.966708	-0.581939	-0.032992	-0.714959	0.918928	93.040742	-81.019109	-56.060209
21794	10.146899	2.002079	-0.511341	-0.018151	-0.709429	0.934177	95.987430	-81.531501	-59.050635
21795	10.023436	1.856607	-0.686006	0.049234	-0.745886	0.946071	99.481305	-82.013602	-62.553141
21796	9.945893	2.073958	-0.646494	0.079112	-0.745066	0.968199	103.468838	-82.481850	-66.530435
21797	9.891851	2.074140	-0.720374	0.061676	-0.757747	0.985471	107.998165	-82.909531	-71.061970
21798	9.902940	2.137950	-0.629324	0.089760	-0.744214	0.994413	113.083007	-83.300984	-76.130872
21799	9.898478	2.166142	-0.604033	0.056819	-0.753652	0.995413	118.727115	-83.626450	-81.779900
21800	10.022118	2.008263	-0.726967	0.013681	-0.748070	0.997575	124.917101	-83.890896	-87.997904
21801	10.226581	1.783546	-0.843718	0.006054	-0.741943	0.995539	131.489686	-84.076115	-94.604155
21802	10.251824	1.584305	-0.901618	0.012969	-0.765879	0.988108	138.506264	-84.167627	-101.649539
21803	10.365468	1.462824	-0.887641	-0.018482	-0.769314	0.961911	145.450817	-84.158199	-108.641677
21804	10.164424	1.167281	-1.145255	-0.003404	-0.772410	0.950826	152.287372	-84.059113	-115.515861
21805	10.167736	1.205230	-1.342235	0.067509	-0.778801	0.957247	158.843274	-83.876669	-122.070117
21806	10.031197	1.099816	-1.280804	0.087826	-0.773922	0.960791	165.011999	-83.621171	-128.224681
21807	9.859377	1.018878	-1.333778	0.132799	-0.760202	0.951672	170.577734	-83.306713	-133.750998
21808	9.714775	0.931818	-1.353652	0.218211	-0.757623	0.941378	175.635532	-82.933884	-138.719348
21809	9.688731	0.947113	-1.073334	0.278792	-0.738856	0.941244	-179.834124	-82.526031	-143.126147
21810	9.762289	0.900872	-1.121386	0.313304	-0.737185	0.932459	-175.781898	-82.075855	-147.034142
21811	9.785519	0.949111	-1.130483	0.374406	-0.722542	0.911611	-172.229205	-81.604730	-150.407242
21812	9.854629	1.077051	-1.155485	0.398509	-0.718680	0.897028	-169.077366	-81.106841	-153.364668
21813	9.681665	1.055523	-1.219000	0.396154	-0.711740	0.868683	-166.357590	-80.597477	-155.890377
21814	9.518718	1.083043	-1.193082	0.392636	-0.714528	0.837135	-164.009562	-80.070851	-158.044702
21815	9.439449	0.945060	-1.308780	0.343320	-0.706553	0.792737	-162.045944	-79.545966	-159.840752
21816	9.408720	0.823702	-1.406187	0.325725	-0.680410	0.752096	-160.360588	-79.030030	-161.367151
21817	9.196154	0.530776	-1.549076	0.310341	-0.647261	0.716354	-158.888406	-78.534318	-162.687560
21818	9.122119	0.396291	-1.565229	0.333224	-0.631724	0.684089	-157.588488	-78.045012	-163.821599
21819	8.979537	0.286635	-1.688815	0.389358	-0.606382	0.653323	-156.395362	-77.573713	-164.814854
21820	8.945316	0.235178	-1.605413	0.449025	-0.569415	0.626983	-155.276953	-77.121371	-165.699231
21821	8.996385	0.226946	-1.611543	0.528895	-0.534661	0.589050	-154.220721	-76.695106	-166.473371
21822	8.783132	0.340871	-1.457837	0.585745	-0.490210	0.556069	-153.220609	-76.294859	-167.158905
21823	8.737318	0.330724	-1.461723	0.621752	-0.462579	0.525610	-152.271199	-75.916089	-167.770808
21824	8.846136	0.356245	-1.316566	0.661091	-0.451380	0.483107	-151.422548	-75.550515	-168.258111
21825	8.922419	0.288196	-1.449606	0.655421	-0.400543	0.439367	-150.627943	-75.222538	-168.692057
21826	8.823381	0.225145	-1.454910	0.681215	-0.370826	0.397617	-149.903298	-74.918583	-169.040885
21827	8.920688	0.084621	-1.571345	0.723475	-0.348823	0.342474	-149.238733	-74.641604	-169.300883
21828	8.932379	0.072823	-1.650685	0.748599	-0.304658	0.304419	-148.610134	-74.396040	-169.511215
21829	8.722329	0.095009	-1.603675	0.791205	-0.279211	0.272591	-147.983623	-74.172587	-169.691994
21830	8.596139	0.119958	-1.516067	0.820910	-0.260083	0.235876	-147.408410	-73.968789	-169.804511
21831	8.537630	0.121345	-1.573613	0.836962	-0.236204	0.207134	-146.838899	-73.785435	-169.899037
21832	8.383995	0.005152	-1.676726	0.823153	-0.218789	0.174525	-146.336113	-73.620539	-169.935288
21833	8.375065	-0.034889	-1.714003	0.843072	-0.193780	0.140176	-145.838193	-73.478319	-169.951679
21834	8.403187	-0.076876	-1.577366	0.822843	-0.185792	0.102974	-145.425085	-73.352296	-169.894928
21835	8.376646	-0.094673	-1.585847	0.790660	-0.156203	0.068685	-145.035810	-73.251070	-169.829268
21836	8.466091	-0.359057	-1.758419	0.775039	-0.134058	0.023140	-144.723918	-73.176132	-169.695614
21837	8.786438	-0.551268	-1.705068	0.761187	-0.102367	-0.017714	-144.428968	-73.128959	-169.548997
21838	8.716298	-0.781599	-1.809464	0.719079	-0.053473	-0.049202	-144.174148	-73.116315	-169.389331
21839	8.871867	-1.004794	-1.915788	0.806050	-0.045655	-0.081686	-143.889556	-73.117377	-169.205003
21840	8.885877	-0.949056	-1.991351	0.859531	-0.028638	-0.102761	-143.609085	-73.134910	-168.988130
21841	8.780087	-0.822847	-1.958856	0.880874	-0.022562	-0.125565	-143.322664	-73.162102	-168.760954
21842	8.807675	-0.889988	-1.916561	0.924908	-0.050211	-0.147052	-143.097276	-73.185588	-168.447570
21843	8.808189	-0.894032	-1.912314	0.921175	-0.040353	-0.162398	-142.863918	-73.217909	-168.140914
21844	8.603490	-0.969358	-1.662938	0.917595	-0.036089	-0.175947	-142.671573	-73.258616	-167.797603
21845	8.601692	-0.887659	-1.593087	0.880318	-0.046360	-0.190721	-142.512235	-73.298666	-167.438231
21846	8.538788	-1.059170	-1.686990	0.833367	-0.045956	-0.199948	-142.417293	-73.343907	-167.043776
21847	8.313768	-0.910121	-1.636710	0.820975	-0.039470	-0.208718	-142.312716	-73.393793	-166.662911
21848	8.333246	-0.923157	-1.656601	0.756887	-0.049813	-0.213195	-142.288422	-73.442328	-166.240668
21849	8.342319	-0.849191	-1.649045	0.693752	-0.053420	-0.208659	-142.275151	-73.486034	-165.840790
21850	8.393954	-1.121331	-1.983676	0.632448	-0.025688	-0.208876	-142.289819	-73.544118	-165.452516
21851	8.384690	-1.026247	-1.720485	0.566458	-0.001429	-0.207345	-142.288507	-73.610920	-165.116446
21852	8.386758	-1.325327	-1.809284	0.499234	0.027298	-0.214385	-142.328521	-73.694921	-164.781608
21853	8.738197	-1.787312	-2.188747	0.550731	0.035842	-0.187946	-142.264668	-73.771812	-164.520347
21854	8.821264	-1.317733	-1.538943	0.547121	0.100096	-0.170042	-142.122667	-73.873286	-164.346684
21855	9.159981	-1.720087	-2.129419	0.486554	0.092932	-0.165725	-141.992999	-73.968455	-164.192437
21856	9.272174	-1.851871	-2.015212	0.561705	0.149601	-0.168722	-141.779316	-74.092038	-164.084711
21857	9.364519	-1.340226	-1.805002	0.496468	0.176117	-0.175836	-141.555915	-74.228480	-164.022180
21858	9.183623	-1.855920	-2.334454	0.639899	0.116269	-0.188113	-141.368706	-74.344247	-163.840436
21859	9.362292	-1.343607	-1.815163	0.673733	0.116760	-0.166611	-141.102562	-74.450992	-163.716910
21860	9.055807	-0.914680	-1.421357	0.557861	0.129246	-0.186029	-140.941524	-74.572064	-163.556936
21861	8.973921	-1.502415	-1.559069	0.523564	0.197566	-0.198997	-140.706585	-74.726662	-163.490429
21862	9.209633	-1.395026	-0.783245	0.462566	0.231788	-0.187109	-140.463905	-74.893960	-163.471745
21863	9.305134	-1.737376	-1.023817	0.346435	0.270687	-0.153453	-140.152247	-75.064289	-163.589857
21864	9.317931	-1.557761	-1.694402	0.471836	0.250081	-0.147319	-139.804616	-75.225249	-163.673903
21865	9.071246	-1.603236	-1.793601	0.630604	0.209126	-0.117435	-139.346655	-75.354944	-163.774775
21866	9.210086	-1.611574	-1.440405	0.665591	0.150545	-0.093303	-138.930466	-75.452145	-163.814756
21867	9.330202	-1.518122	-1.369212	0.659959	0.114408	-0.076292	-138.516765	-75.525114	-163.852449
21868	9.396207	-1.092111	-1.348121	0.637940	0.118465	-0.070911	-138.119883	-75.599941	-163.888652
21869	9.373444	-0.997318	-1.100052	0.614632	0.107257	-0.064771	-137.719410	-75.665310	-163.939479
21870	9.188007	-1.109801	-1.242547	0.503692	0.077301	-0.057680	-137.435435	-75.717679	-163.938433
21871	8.980885	-0.972276	-1.214396	0.445722	0.088164	-0.030220	-137.100466	-75.761437	-164.021508
21872	8.240844	-1.086318	-1.544955	0.416909	-0.004193	-0.031693	-136.946516	-75.769659	-163.937555
21873	8.557558	-1.632240	-1.437869	0.452517	-0.065715	-0.008372	-136.807827	-75.740374	-163.814104
21874	7.514263	-0.415202	-0.356025	0.229981	-0.055087	0.047362	-136.709263	-75.696392	-163.783478
21875	7.553174	-1.584022	-1.790841	0.218407	-0.106610	0.052517	-136.667877	-75.626232	-163.697995
21876	7.890437	-0.748295	-0.598177	0.235990	-0.144478	0.062759	-136.677230	-75.539052	-163.552324
21877	8.340401	-1.448038	-1.340776	-0.082936	-0.083078	0.128096	-136.650156	-75.448995	-163.630338
21878	8.087674	-2.104619	-1.976357	0.153949	-0.143454	0.180271	-136.515139	-75.316203	-163.682205
21879	8.441501	-1.244192	-1.849888	0.230042	-0.194951	0.215122	-136.342133	-75.145264	-163.725784
21880	8.590611	-1.009793	-1.976010	0.259276	-0.200683	0.197788	-136.208531	-74.981599	-163.713867
21881	9.040202	-0.485066	-1.315220	0.085898	-0.214701	0.178551	-136.206634	-74.816956	-163.665831
21882	9.312957	-0.589214	-1.272540	-0.132948	-0.114905	0.117051	-136.296744	-74.720932	-163.655130
21883	8.859183	-0.549170	-2.257590	-0.002454	-0.167339	-0.005324	-136.552943	-74.648528	-163.391935
21884	9.057794	0.140031	-0.661809	-0.335945	-0.288730	-0.080801	-137.304283	-74.557328	-162.816268
21885	9.904293	-0.460167	-0.096617	-0.564436	-0.121136	-0.151588	-138.034325	-74.559442	-162.395380
21886	9.406796	-1.189200	-1.519903	-0.663202	-0.215719	-0.215442	-139.070002	-74.547082	-161.718990
21887	9.617097	-3.390899	-1.404489	-0.885881	-0.028667	-0.184986	-139.912696	-74.598349	-161.372330
21888	10.196040	-3.382478	-2.180845	-0.171330	-0.167185	-0.111737	-140.433949	-74.564271	-160.937002
21889	9.915078	-1.993664	-0.990749	0.045520	0.013538	-0.085844	-140.531694	-74.596450	-160.809542
21890	10.082495	-1.446820	-1.034483	0.107917	0.046704	-0.089901	-140.572334	-74.648263	-160.706410
21891	10.215346	-1.228108	-1.853348	0.325187	0.019442	-0.115443	-140.550731	-74.693786	-160.536610
21892	10.225870	-0.043938	-1.588249	0.338125	0.038374	-0.199892	-140.649291	-74.782097	-160.236641
21893	9.713317	-0.296364	-1.274963	0.236011	0.094300	-0.286067	-140.860867	-74.922537	-159.878352
21894	9.431056	-0.507086	-0.953741	0.074212	0.077954	-0.333633	-141.289196	-75.076340	-159.394041
21895	9.586941	-0.620822	-0.864233	-0.070716	0.097997	-0.337724	-141.773557	-75.235575	-158.935868
21896	9.773156	-2.504516	-2.085738	-0.255108	0.078429	-0.272561	-142.304112	-75.366353	-158.541515
21897	9.492224	-2.437111	-2.301881	0.063683	0.188524	-0.198099	-142.363236	-75.516107	-158.443727
21898	9.655580	-2.369786	-2.671423	0.491653	0.333591	-0.197031	-141.991622	-75.735337	-158.539399
21899	9.888621	-0.724147	-1.028188	0.274335	0.236272	-0.164516	-141.801455	-75.894933	-158.574417
21900	9.846679	-1.469941	-2.445448	0.194254	0.367989	-0.168323	-141.488288	-76.119147	-158.785223
21901	9.659299	-0.838910	-1.818916	0.338510	0.413390	-0.177708	-141.017645	-76.362521	-159.071084
21902	10.165165	-0.236004	-1.300581	0.154697	0.404906	-0.169222	-140.653692	-76.602640	-159.357103
21903	10.272032	0.473338	-0.937470	-0.187393	0.568170	-0.204690	-140.269436	-76.923292	-159.863141
21904	9.757998	-1.554907	-2.615836	-0.336746	0.504557	-0.213863	-140.089433	-77.223303	-160.248709
21905	9.778452	-1.117996	-1.769602	-0.228824	0.492630	-0.185493	-139.778279	-77.502676	-160.702944
21906	9.620221	-1.339454	-1.598780	-0.265891	0.492290	-0.184337	-139.489693	-77.785400	-161.157341
21907	9.900484	-1.459428	-1.344847	-0.286180	0.494204	-0.168006	-139.137910	-78.057841	-161.685765
21908	9.297011	-2.189362	-1.997576	-0.125898	0.505232	-0.155800	-138.647298	-78.334131	-162.263560
21909	8.623350	-3.372370	-2.691519	0.185165	0.498329	-0.178399	-137.991065	-78.610343	-162.826022
21910	9.704237	-1.511926	-0.971799	0.300236	0.436625	-0.110579	-137.234231	-78.836864	-163.425102
21911	9.099053	-0.884431	-1.139545	0.088601	0.392162	-0.023608	-136.456396	-79.005063	-164.166977
21912	8.779077	-0.917915	-1.709999	0.148842	0.264844	-0.047278	-135.954978	-79.132531	-164.593440
21913	9.110247	-0.639443	-1.756781	0.052884	0.292299	-0.066638	-135.462832	-79.274134	-165.064607
21914	8.840622	-0.995115	-1.608314	-0.085686	0.302124	-0.053917	-135.009758	-79.417989	-165.578391
21915	9.249793	-0.320162	-1.370556	-0.090787	0.241675	-0.062149	-134.677131	-79.535969	-165.970616
21916	9.180198	-0.589353	-1.433296	-0.336787	0.205263	-0.064447	-134.587399	-79.644134	-166.260995
21917	8.990844	-0.916693	-1.449119	-0.357853	0.202362	-0.084194	-134.533174	-79.754961	-166.525505
21918	9.121349	-1.317126	-1.660647	-0.378885	0.146888	-0.086704	-134.644605	-79.848705	-166.635925
21919	9.244355	-1.880692	-1.659805	-0.382113	0.193966	-0.051658	-134.545306	-79.942915	-166.960178
21920	8.850158	-1.712063	-1.536410	-0.323400	0.285335	-0.024536	-134.157444	-80.066365	-167.545243
21921	8.808123	-0.791864	-1.191135	-0.305687	0.290073	-0.048915	-133.766524	-80.197042	-168.120818
21922	8.567016	-1.236687	-2.158519	-0.355119	0.214119	-0.035422	-133.570642	-80.295519	-168.529098
21923	9.105132	-0.582224	-0.545624	-0.288139	0.245762	-0.042475	-133.242752	-80.405113	-169.030165
21924	9.341762	-1.337841	-1.543103	-0.532641	0.193544	0.009559	-133.082460	-80.476092	-169.505338
21925	9.510894	-1.340625	-1.582938	-0.314339	0.162296	0.020791	-132.818027	-80.525904	-169.957067
21926	9.760603	-1.345161	-1.286961	-0.361046	0.092191	0.062515	-132.684614	-80.534489	-170.305240
21927	9.256962	-3.087663	-2.418219	-0.340331	0.076274	0.133697	-132.387721	-80.502778	-170.804957
21928	9.794715	-2.403137	-2.198701	0.560565	-0.142297	0.237657	-131.920269	-80.345819	-170.956456
21929	9.622000	0.581459	0.962597	0.164260	0.138875	0.254408	-130.922845	-80.284385	-171.873846
21930	9.087154	-1.260687	-1.901543	-0.184971	0.100625	0.220329	-130.331217	-80.225084	-172.584752
21931	9.242221	-0.445180	-1.222618	0.161686	0.113518	0.166784	-129.606156	-80.188909	-173.227549
21932	9.254747	-0.208469	-0.696844	-0.182370	0.095096	0.120408	-129.252195	-80.169296	-173.696081
21933	9.271857	-0.463364	-0.894881	-0.154148	0.110224	0.097172	-128.867705	-80.161179	-174.176971
21934	9.431448	-1.276952	-1.069006	-0.272640	0.075931	0.098407	-128.663893	-80.143835	-174.545740
21935	9.426636	-1.842419	-1.580925	-0.123887	0.077191	0.095322	-128.353067	-80.123980	-174.934310
21936	9.467851	-1.224546	-0.958686	0.088754	0.040490	0.091664	-128.049931	-80.096364	-175.193755
21937	9.530558	-1.442584	-0.653085	-0.086692	-0.076488	0.117763	-128.072025	-80.011590	-175.222786
21938	9.384117	-1.046733	-0.344354	-0.139038	0.169296	0.177204	-127.401334	-79.990017	-175.987991
21939	8.752889	-1.659126	-1.771555	-0.069992	-0.012517	0.193014	-127.109337	-79.893058	-176.326313
21940	9.140888	-0.445851	-0.732055	0.004859	0.067431	0.171798	-126.639735	-79.836891	-176.803791
21941	8.925572	-0.876416	-0.345498	-0.224465	0.021083	0.163226	-126.418322	-79.764372	-177.160476
21942	8.967949	-1.605866	-1.267237	-0.064684	0.030359	0.129167	-126.171824	-79.714664	-177.451906
21943	10.600174	-1.189146	-0.039741	-0.165299	0.004302	0.196072	-125.906492	-79.620741	-177.818927
21944	10.705481	-0.892053	-0.752046	-0.372296	0.166475	0.246124	-125.284781	-79.561339	-178.671072
21945	10.446089	-1.761242	-1.033372	-0.556626	0.231117	0.260488	-124.566973	-79.510301	-179.726385
21946	10.385283	-2.643452	-1.824749	-0.167945	0.129997	0.325304	-123.802782	-79.397947	179.395303
21947	10.359165	-0.549988	-0.789420	0.176724	0.193465	0.262389	-122.783033	-79.328723	178.459700
21948	10.013912	-0.684253	-0.676694	-0.067422	0.143422	0.172853	-122.205790	-79.289440	177.829807
21949	10.363114	-1.710829	-1.105656	0.013429	0.069979	0.104923	-121.865061	-79.255405	177.489792
21950	10.013630	-1.951884	-1.227359	0.170964	0.099071	0.090099	-121.403140	-79.241513	177.116153
21951	10.008039	-1.773403	-1.163360	0.289351	0.003991	0.097902	-121.089298	-79.190445	176.964375
21952	9.734923	-1.539867	-1.122069	0.224300	-0.071635	0.137262	-120.965628	-79.102110	176.966152
21953	10.226004	-1.408810	-0.626221	0.316124	-0.086765	0.152363	-120.788401	-78.997400	176.969058
21954	9.630336	-1.652778	-1.037668	0.257933	-0.131085	0.154153	-120.771676	-78.883323	177.099440
21955	9.708577	-1.347083	-0.999927	0.392987	-0.139370	0.120517	-120.729994	-78.778892	177.285398
21956	9.313290	-0.939229	-0.560912	0.238805	-0.094929	0.101701	-120.710446	-78.701234	177.401779
21957	9.331333	-1.006501	-0.866915	0.104942	-0.158870	0.087263	-120.926769	-78.607407	177.682667
21958	9.300951	-1.380167	-1.102265	0.101114	-0.176930	0.089218	-121.199411	-78.511643	178.016679
21959	9.455813	-0.942304	-0.337609	0.079051	-0.190223	0.097347	-121.481988	-78.403046	178.350240
21960	9.641993	-1.380036	-1.118109	-0.098031	-0.262638	0.110809	-122.027375	-78.270228	178.846471
21961	15.839695	1.591978	3.524432	0.519111	-0.922364	0.643946	-122.906138	-77.670902	-179.952025
21962	9.563645	-6.784153	-2.876331	-1.326504	-0.939641	0.889696	-124.427542	-76.949148	-179.174808
21963	9.167058	-3.847766	-2.731449	0.665776	-0.342772	0.875289	-123.560876	-76.419170	-179.674498
21964	6.261332	-0.115326	-0.109901	0.350840	-0.023641	0.885615	-122.305119	-75.985816	179.236548
21965	7.702376	1.339431	1.205743	-0.096525	-0.278575	0.755133	-121.997107	-75.530279	178.860617
21966	7.157644	-0.015492	0.519822	-0.686835	-0.364974	0.758756	-122.206117	-75.051510	178.666898
21967	3.803043	-4.942247	-5.073764	-0.608188	-0.446508	0.292928	-123.028894	-74.767943	179.157042
21968	9.363804	0.630804	0.149444	0.021456	-0.201961	0.120097	-123.254269	-74.647136	179.400323
21969	10.271563	-2.261259	-2.449283	-0.509930	-0.349522	0.000754	-124.160124	-74.531298	-179.964211
21970	12.715399	-3.339416	-3.252050	0.110627	-0.192791	0.049816	-124.389485	-74.445854	-179.663770
21971	11.166594	-4.635941	-2.743214	0.675876	0.148812	0.210391	-123.517234	-74.389138	179.831611
21972	8.900894	-3.438505	-0.070298	0.588146	0.463719	0.091869	-122.298653	-74.489300	178.913107
21973	8.765412	-2.608877	1.255990	0.079183	0.115953	-0.158076	-122.235576	-74.597089	178.893620
21974	9.387102	-1.929781	-0.992083	-0.081799	-0.094914	-0.313441	-122.819018	-74.719111	179.447463
21975	9.700589	-1.982563	-1.422493	-0.046461	-0.073125	-0.377476	-123.420116	-74.873064	-179.958338
21976	10.610601	-1.972906	-2.318791	0.085344	0.052027	-0.235149	-123.572784	-75.001679	-179.752153
21977	9.692634	-1.899384	-1.405939	0.233896	0.189318	-0.144025	-123.280439	-75.126000	-179.917136
21978	9.335549	-1.938935	-1.037262	0.169236	-0.034977	-0.087508	-123.369435	-75.156729	-179.727454
21979	9.559377	-1.726389	-1.279743	0.167363	-0.149115	-0.040470	-123.601010	-75.124631	-179.389774
21980	9.097409	-2.189534	-1.475363	0.076897	-0.145089	-0.003381	-123.839771	-75.079948	-179.099828
21981	8.968992	-2.596322	-1.642114	0.058378	-0.128500	0.030128	-124.009548	-75.020221	-178.890603
21982	9.435971	-1.276912	-0.397627	0.083700	-0.131368	0.063135	-124.137000	-74.947757	-178.711677
21983	9.094334	-2.657004	-1.544413	-0.391837	-0.110119	0.100685	-124.444588	-74.860225	-178.626748
21984	9.248621	-2.048587	-1.204459	-0.126880	-0.202472	0.081851	-124.788268	-74.755383	-178.348539
21985	9.296774	-2.576792	-1.770608	-0.381003	-0.097488	0.104181	-125.059136	-74.670118	-178.295166
21986	9.301232	-1.999176	-1.417504	-0.320044	-0.011917	0.073182	-125.191892	-74.631424	-178.350198
21987	9.321696	-3.094547	-2.130580	-0.228760	0.008013	0.071424	-125.233491	-74.596284	-178.444122
21988	9.403851	-2.542714	-1.549651	-0.183806	0.015493	0.021769	-125.303012	-74.590580	-178.483756
21989	9.326128	-2.372732	-1.383879	-0.166202	0.013186	0.022215	-125.359058	-74.580212	-178.525529
21990	9.450819	-2.042180	-1.365084	-0.150809	-0.010793	0.034161	-125.438624	-74.559905	-178.535033
21991	9.441371	-1.463451	-0.574960	-0.261932	0.028931	0.054272	-125.484402	-74.539841	-178.644373
21992	9.851564	-2.453719	-2.377142	-0.388328	-0.044140	0.087034	-125.691709	-74.483902	-178.662473
21993	9.850961	-1.919651	-1.659260	-0.238657	0.047505	0.161702	-125.564684	-74.420096	-178.937392
21994	9.883858	-2.131822	-1.548449	-0.245617	0.015033	0.211878	-125.444151	-74.325565	-179.211134
21995	9.615308	-2.423279	-1.730587	-0.240474	0.078911	0.232327	-125.187131	-74.238746	-179.622409
21996	9.641902	-2.237412	-1.727514	-0.256440	0.069022	0.250756	-124.943813	-74.143156	179.969564
21997	9.207613	-2.368758	-1.461971	-0.170347	0.119672	0.243106	-124.574553	-74.063505	179.482999
21998	9.025433	-2.519028	-1.148105	-0.196475	-0.038343	0.173462	-124.568695	-73.968466	179.357393
21999	9.461958	-2.160201	-1.458492	-0.171231	0.016743	0.163020	-124.465379	-73.892648	179.146636
22000	9.191281	-2.315817	-1.797054	-0.260706	0.045961	0.162483	-124.372343	-73.829956	178.891972
22001	9.209011	-2.192417	-1.619643	-0.100920	0.053720	0.120434	-124.218448	-73.786014	178.670365
22002	9.283959	-2.458308	-1.669123	-0.044962	0.105448	0.115467	-123.959482	-73.764277	178.371489
22003	9.236807	-2.357756	-1.578569	0.060731	0.115068	0.104850	-123.631818	-73.746774	178.065297
22004	9.273971	-2.182564	-1.509342	0.090135	0.150920	0.086630	-123.253365	-73.752162	177.722578
22005	9.210749	-2.025570	-1.424435	0.126514	0.189398	0.090040	-122.782106	-73.763824	177.306082
22006	9.046244	-2.023340	-1.542743	0.118800	0.142974	0.096394	-122.389679	-73.760626	176.965927
22007	9.501654	-1.800369	-1.191268	0.130185	0.122831	0.079986	-122.037112	-73.755198	176.675245
22008	9.451082	-1.912054	-1.848128	0.145142	0.229520	0.073440	-121.508842	-73.788024	176.209297
22009	9.129605	-1.981067	-1.129674	0.127969	0.183548	0.042035	-121.093626	-73.817960	175.852120
22010	9.287241	-1.993061	-1.045353	0.007512	0.129117	-0.013768	-120.900227	-73.862297	175.652799
22011	9.193435	-2.644762	-1.758151	-0.112439	0.151394	-0.050139	-120.768405	-73.927330	175.447386
22012	9.446326	-1.281333	-0.702203	-0.120884	0.118766	-0.019990	-120.670438	-73.971398	175.270948
22013	9.123469	-1.802979	-1.441572	-0.204673	0.123329	-0.059709	-120.647380	-74.032779	175.123814
22014	9.199393	-2.031560	-1.540221	-0.235408	0.088820	-0.068886	-120.715737	-74.092355	175.052124
22015	9.167555	-2.212875	-1.349632	-0.219032	0.091044	-0.071214	-120.767846	-74.150009	174.974670
22016	8.967511	-2.239828	-1.326714	-0.243547	0.078735	-0.078145	-120.868154	-74.211237	174.931343
22017	9.131247	-2.308651	-1.329192	-0.248484	0.067816	-0.075726	-120.982379	-74.264343	174.900940
22018	9.103801	-2.273676	-1.409404	-0.241037	0.104906	-0.069926	-121.027096	-74.329248	174.801416
22019	9.285537	-2.121304	-1.346370	-0.205899	0.115857	-0.049321	-121.004917	-74.383590	174.654716
22020	9.585316	-2.111654	-1.353543	-0.139855	0.097171	-0.014035	-120.945424	-74.418722	174.507241
22021	9.805395	-2.219418	-1.236718	-0.091283	0.085154	0.003890	-120.854489	-74.437794	174.357387
22022	9.745908	-1.938584	-1.503078	-0.038803	0.097202	0.051687	-120.666995	-74.440449	174.137175
22023	9.838571	-2.016212	-1.453345	-0.003569	0.132401	0.126882	-120.313359	-74.412249	173.766778
22024	9.652745	-2.059697	-1.266258	0.029023	0.144256	0.173004	-119.879902	-74.367682	173.331394
22025	9.572999	-2.158723	-1.623963	0.083321	0.268725	0.257415	-119.106525	-74.311117	172.576618
22026	9.436956	-2.335977	-1.693378	0.135576	0.309550	0.305868	-118.194823	-74.242253	171.707540
22027	9.278203	-2.264256	-1.412268	0.263141	0.348022	0.350240	-117.102673	-74.153135	170.728018
22028	9.176362	-2.450512	-1.613200	0.295188	0.393560	0.355608	-115.922678	-74.071503	169.674334
22029	9.025887	-2.506551	-1.244963	0.396349	0.394470	0.343777	-114.699648	-73.986311	168.637243
22030	8.888929	-2.453514	-0.911200	0.427582	0.310739	0.289295	-113.671967	-73.908188	167.820123
22031	9.701723	-2.036683	-1.024838	0.331756	0.268241	0.333474	-112.746690	-73.789517	167.053547
22032	9.130976	-2.655063	-0.779689	0.291929	0.305088	0.347711	-111.784005	-73.671700	166.222295
22033	9.288749	-2.494528	-0.389120	0.242444	0.241036	0.248665	-111.043159	-73.585960	165.593747
22034	9.608167	-2.188722	-0.550784	0.203116	0.139959	0.188096	-110.559851	-73.514050	165.208661
22035	9.642380	-2.299003	-0.799219	0.214449	0.106177	0.186786	-110.132255	-73.431407	164.889624
22036	9.721783	-2.668366	-0.748828	0.231828	0.067723	0.147188	-109.796826	-73.365906	164.675725
22037	9.408121	-2.482613	-0.401065	0.212419	0.034443	0.095407	-109.564437	-73.317676	164.559013
22038	9.284044	-2.550461	-0.545390	0.139708	-0.024311	0.018110	-109.532301	-73.303761	164.606637
22039	9.438705	-2.756677	-0.598403	0.038726	-0.100613	-0.040591	-109.730110	-73.302903	164.835133
22040	9.506758	-2.727759	-0.783063	0.000727	-0.072934	-0.079371	-109.927465	-73.331951	165.039301
22041	9.464120	-2.569323	-0.783103	0.002070	-0.062300	-0.104843	-110.120118	-73.372754	165.240435
22042	9.281113	-2.399012	-0.685315	-0.008516	-0.040092	-0.130591	-110.298973	-73.435415	165.419724
22043	9.343758	-2.713766	-0.700634	-0.016389	-0.038278	-0.159983	-110.498223	-73.510254	165.616579
22044	9.413165	-2.745593	-0.710481	0.001060	-0.049157	-0.181453	-110.725563	-73.597967	165.852063
22045	9.394336	-2.599977	-0.693965	-0.022110	-0.056724	-0.202375	-110.995365	-73.691291	166.118854
22046	9.447384	-2.588439	-0.704013	-0.075358	-0.054455	-0.229699	-111.315563	-73.802977	166.405308
22047	9.559499	-2.637291	-0.773617	-0.098427	-0.076996	-0.250406	-111.708564	-73.916789	166.754538
22048	9.719910	-2.588166	-0.777124	-0.113264	-0.080837	-0.259408	-112.130275	-74.037487	167.123748
22049	9.976880	-2.448890	-1.027548	-0.084512	-0.071728	-0.230128	-112.500690	-74.140329	167.457381
22050	9.922112	-2.504446	-0.979337	-0.065899	-0.013822	-0.196404	-112.731083	-74.241214	167.655578
22051	9.705986	-2.571711	-0.743482	-0.061044	-0.017996	-0.175200	-112.951341	-74.326164	167.846868
22052	9.648040	-2.558658	-0.897787	-0.058173	-0.010776	-0.175970	-113.159919	-74.416509	168.026880
22053	8.885741	-3.639618	-1.583105	-0.155650	0.036563	-0.198329	-113.354408	-74.525604	168.134989
22054	10.119781	-1.266197	0.021983	-0.079695	0.055518	-0.169437	-113.447519	-74.627050	168.182352
22055	9.267341	-2.395736	-1.106982	-0.246074	0.057822	-0.181615	-113.642584	-74.732088	168.237231
22056	9.133121	-2.299841	-1.146636	-0.214917	0.056880	-0.171781	-113.815093	-74.835158	168.286531
22057	9.362552	-2.550249	-1.187240	-0.161313	0.076681	-0.094838	-113.853402	-74.899014	168.229282
22058	9.370506	-2.634285	-0.919645	-0.058861	0.226876	-0.092989	-113.537732	-74.999830	167.865613
22059	9.082401	-1.946086	-0.999125	-0.094121	0.133764	-0.041899	-113.378066	-75.048785	167.643321
22060	9.063628	-2.060856	-1.006560	-0.013815	0.170593	-0.029384	-113.087570	-75.102593	167.332653
22061	9.139546	-2.741935	-0.813504	0.017968	0.154961	0.007288	-112.777212	-75.129801	167.020984
22062	9.292351	-2.401173	-0.848662	0.082542	0.125328	0.043836	-112.457303	-75.133962	166.737145
22063	9.342105	-2.481679	-1.012044	0.135256	0.148870	0.075284	-112.034903	-75.122833	166.379097
22064	9.246218	-2.551088	-0.782276	0.185241	0.157875	0.115055	-111.534158	-75.094889	165.969044
22065	9.457720	-2.440317	-0.854294	0.217054	0.230817	0.128260	-110.861296	-75.070763	165.400224
22066	9.370484	-2.529362	-0.806645	0.255690	0.231755	0.161606	-110.140461	-75.030221	164.804115
22067	9.174844	-2.411016	-0.661748	0.286292	0.200846	0.177944	-109.457776	-74.969930	164.265975
22068	9.344793	-2.321072	-0.540593	0.276917	0.170819	0.189502	-108.835912	-74.899140	163.784706
22069	9.110849	-2.611916	-0.687035	0.224645	0.144586	0.166005	-108.319283	-74.832113	163.381656
22070	9.345318	-2.022061	-0.548931	0.183739	0.115272	0.143031	-107.901272	-74.774416	163.056085
22071	9.208203	-2.201952	-0.653164	0.088577	0.109758	0.103189	-107.579185	-74.734060	162.773656
22072	9.251149	-2.358480	-0.716416	0.025058	0.091456	0.081767	-107.342528	-74.704855	162.541696
22073	9.307532	-2.165131	-0.776626	0.007096	0.076260	0.075007	-107.154056	-74.673597	162.349307
22074	9.510932	-2.260854	-0.832713	0.012230	0.060027	0.064924	-106.999594	-74.647952	162.194870
22075	9.573598	-2.208202	-0.759445	0.015736	0.059219	0.046327	-106.858863	-74.629292	162.057077
22076	9.494221	-2.250552	-0.699177	-0.014688	0.057377	0.029022	-106.747839	-74.622777	161.931613
22077	9.533530	-2.312548	-0.679945	-0.041294	0.054983	0.017555	-106.665888	-74.619071	161.820881
22078	9.568276	-2.407957	-0.627932	-0.060660	0.039924	0.007287	-106.629214	-74.621579	161.745183
22079	9.438478	-2.313906	-0.583700	-0.073058	0.043713	-0.009884	-106.604297	-74.631049	161.674729
22080	9.626750	-2.344513	-0.694112	-0.070646	0.030626	-0.030442	-106.614221	-74.652750	161.641435
22081	9.613631	-2.286396	-0.673629	-0.044808	0.029225	-0.026724	-106.612009	-74.669095	161.611318
22082	9.579442	-2.348348	-0.636401	-0.013278	0.036492	-0.017495	-106.569551	-74.684684	161.557776
22083	9.521210	-2.125169	-0.625587	0.026574	0.043114	-0.024852	-106.497301	-74.702258	161.497452
22084	9.585923	-2.309005	-0.661665	0.013571	0.048075	-0.034282	-106.425961	-74.728981	161.429900
22085	9.557326	-2.333770	-0.655588	0.010158	0.059756	-0.069203	-106.355471	-74.773589	161.361668
22086	9.470768	-2.236467	-0.782181	-0.025606	0.077608	-0.126965	-106.301132	-74.856021	161.288490
22087	9.432899	-2.338327	-0.689532	-0.053131	0.087603	-0.173842	-106.271432	-74.962622	161.224998
22088	9.596685	-2.801224	-0.801280	-0.054597	0.103910	-0.224738	-106.236931	-75.103058	161.155203
22089	9.191110	-1.541765	-0.356309	-0.018693	0.054430	-0.183345	-106.260766	-75.209561	161.167579
22090	9.270985	-1.864332	-0.690805	-0.007272	0.030435	-0.219818	-106.349223	-75.335536	161.253012
22091	9.470716	-2.158339	-0.666892	0.004473	0.034582	-0.204590	-106.415979	-75.450506	161.323445
22092	9.380465	-2.003624	-0.502033	0.046218	0.020379	-0.191726	-106.480443	-75.559444	161.415598
22093	9.397796	-2.021489	-0.638136	0.050826	0.029441	-0.185107	-106.521294	-75.662842	161.486635
22094	9.361086	-2.102075	-0.633851	0.057386	0.047722	-0.198671	-106.526903	-75.780090	161.524537
22095	9.265510	-2.120523	-0.503388	0.039475	0.073770	-0.222287	-106.503001	-75.911132	161.522010
22096	9.365717	-2.095262	-0.619819	0.031784	0.076202	-0.241547	-106.489020	-76.056587	161.524553
22097	9.338187	-1.980637	-0.557405	0.038524	0.075467	-0.248570	-106.478850	-76.202350	161.535611
22098	9.403240	-1.897895	-0.516871	0.057392	0.052708	-0.239079	-106.501482	-76.342662	161.590924
22099	9.513899	-1.979002	-0.567654	0.061754	0.055202	-0.227433	-106.510275	-76.473517	161.635171
22100	9.583251	-1.984536	-0.719193	0.072356	0.051870	-0.198536	-106.500018	-76.591473	161.665390
22101	9.518164	-1.958774	-0.604488	0.090113	0.097309	-0.160594	-106.349508	-76.692436	161.562560
22102	9.472764	-2.130497	-0.507096	0.105209	0.117297	-0.142544	-106.128024	-76.790145	161.395052
22103	9.301692	-2.265719	-0.661683	0.096511	0.153370	-0.131137	-105.817006	-76.883535	161.131229
22104	9.230907	-2.727526	-0.891953	0.005904	0.150786	-0.170469	-105.584799	-77.001426	160.894466
22105	9.325674	-0.904097	0.230700	-0.019862	0.170117	-0.149192	-105.304007	-77.106789	160.593472
22106	9.197185	-1.408001	-0.052147	-0.117241	0.150210	-0.187207	-105.146254	-77.233467	160.360933
22107	8.872603	-2.284009	-0.322462	-0.162998	0.137916	-0.176807	-105.036192	-77.348890	160.151169
22108	9.186503	-2.208145	-0.083230	-0.133586	0.014500	-0.183851	-105.215321	-77.453270	160.254492
22109	9.631081	-2.719277	-0.326202	0.015904	0.010837	-0.147390	-105.297522	-77.533409	160.346823
22110	9.580128	-2.422393	-0.068503	0.531481	0.061333	-0.151742	-104.956627	-77.626827	160.307914
22111	10.046444	-2.045864	-0.227390	-0.162835	0.241254	-0.217343	-104.601035	-77.779566	159.847282
22112	9.297078	-2.787046	0.269998	0.091379	0.312421	-0.159877	-103.861935	-77.912672	159.143251
22113	9.659096	-2.068637	0.178400	0.048925	0.219258	-0.150717	-103.375674	-78.023329	158.673528
22114	9.620617	-2.170951	0.078222	0.039844	0.205008	-0.121221	-102.899414	-78.117743	158.208918
22115	9.867215	-2.155670	-0.079494	0.060729	0.137843	-0.075758	-102.562848	-78.174701	157.899371
22116	9.970772	-2.110902	-0.153202	0.096278	0.096460	-0.019068	-102.270007	-78.197040	157.654928
22117	10.206838	-2.174415	-0.353242	0.131445	0.052300	0.031811	-102.056105	-78.182790	157.512139
22118	10.080626	-2.180924	-0.568192	0.141221	0.054393	0.078567	-101.797759	-78.145282	157.329714
22119	9.766372	-2.325514	-0.592215	0.148098	0.056211	0.106841	-101.524059	-78.089131	157.135531
22120	9.619274	-2.319408	-0.512209	0.112917	0.082358	0.125208	-101.187901	-78.028054	156.857458
22121	9.559064	-2.201782	-0.619428	0.104013	0.132408	0.111868	-100.740288	-77.976899	156.459573
22122	9.487064	-1.995538	-0.636086	0.109472	0.175532	0.121991	-100.166157	-77.926040	155.935692
22123	9.510334	-1.820576	-0.598174	0.113630	0.210152	0.143849	-99.502152	-77.862819	155.321969
22124	9.117668	-1.628069	-0.387538	0.099900	0.178147	0.182086	-98.916064	-77.776771	154.779848
22125	9.330696	-1.692671	-0.666181	0.085547	0.110235	0.202461	-98.519199	-77.669187	154.422652
22126	9.493815	-1.580187	-0.565013	0.057846	0.179653	0.252885	-97.943443	-77.541480	153.865628
22127	9.639764	-1.419143	-0.512083	-0.004663	0.194754	0.318606	-97.359391	-77.372999	153.263354
22128	9.650547	-1.350860	-0.489752	-0.110322	0.286923	0.398002	-96.589772	-77.166613	152.408262
22129	9.730855	-1.493518	-0.582585	-0.126259	0.310507	0.503518	-95.778347	-76.896649	151.500159
22130	9.513420	-1.444588	-0.210011	-0.232981	0.358256	0.590889	-94.925195	-76.579901	150.484787
22131	9.474077	-2.021892	-0.353728	-0.349615	0.398217	0.660718	-94.081157	-76.218227	149.409095
22132	9.135036	-4.655157	-1.816924	-0.257150	0.360325	0.642660	-93.317112	-75.865149	148.468311
22133	9.845387	-1.935661	1.298477	-0.100186	0.550914	0.668962	-92.086509	-75.495103	147.137795
22134	9.223940	-2.549705	0.699329	-0.063269	0.412154	0.640742	-91.193546	-75.135591	146.175717
22135	9.215982	-2.088877	1.113398	-0.034378	0.236523	0.610030	-90.704738	-74.786455	145.647957
22136	8.683246	-4.786860	-0.881588	-0.006478	0.173710	0.536851	-90.346560	-74.480634	145.271388
22137	9.876893	-1.547509	0.768919	0.220030	0.222663	0.565880	-89.781557	-74.154715	144.814255
22138	9.309711	-2.712247	0.279728	-0.060997	0.259079	0.516553	-89.316582	-73.858100	144.293113
22139	9.478566	-2.389237	0.154907	-0.300163	0.267913	0.482165	-88.993265	-73.577841	143.775890
22140	9.437259	-3.661590	-0.047595	-0.567307	0.426907	0.507058	-88.526735	-73.282602	142.948958
22141	9.041554	-3.136038	0.027341	-0.304992	0.217057	0.566294	-88.336849	-72.953151	142.566667
22142	9.302650	-2.493244	0.651693	-0.464150	0.219359	0.606539	-88.239738	-72.602325	142.185626
22143	9.355492	-3.573579	-0.028175	-0.273899	-0.054556	0.641432	-88.542967	-72.234135	142.337848
22144	9.635356	-3.378359	0.166581	-0.044939	-0.199575	0.677397	-88.955692	-71.848760	142.743772
22145	9.748627	-3.332111	0.552191	0.002914	-0.234390	0.673895	-89.390245	-71.462865	143.202099
22146	9.091242	-3.638057	0.408729	-0.139905	-0.136545	0.595054	-89.716790	-71.122543	143.461459
22147	8.916531	-3.387769	0.548506	-0.045342	-0.154868	0.531813	-90.015929	-70.816235	143.749158
22148	8.871739	-3.443078	0.547876	0.004640	-0.196544	0.463789	-90.338905	-70.549880	144.093625
22149	9.068908	-3.402003	0.177097	-0.039520	-0.218382	0.444848	-90.720103	-70.291997	144.472925
22150	8.572069	-2.806265	0.115657	0.088822	-0.330126	0.431910	-91.188276	-70.040951	145.024250
22151	9.397674	-3.333999	-0.291456	0.217490	-0.431964	0.449994	-91.735042	-69.774962	145.737872
22152	8.633037	-2.864915	-0.107884	0.285705	-0.335564	0.439570	-92.072886	-69.516441	146.272306
22153	8.482951	-2.995868	0.229854	0.183394	-0.263519	0.368535	-92.360189	-69.297620	146.690204
22154	8.157155	-2.208337	0.008796	0.173186	-0.319645	0.341205	-92.725671	-69.093822	147.186810
22155	8.595051	-3.346298	-0.590542	0.090747	-0.304609	0.354572	-93.112759	-68.880007	147.655904
22156	9.174424	-3.850248	-0.363007	0.191239	-0.270507	0.371214	-93.376719	-68.658658	148.056009
22157	9.224930	-3.920883	-0.356330	0.235642	-0.157326	0.322069	-93.454833	-68.467014	148.283705
22158	9.002075	-3.796339	-0.206194	0.217103	-0.101864	0.273565	-93.459827	-68.306721	148.422266
22159	8.858374	-3.419293	-0.032369	0.171051	-0.055808	0.245605	-93.432349	-68.162262	148.496932
22160	8.716344	-3.142196	-0.240378	0.107092	-0.063728	0.217062	-93.449155	-68.035572	148.580601
22161	8.771417	-3.377434	-0.398219	0.114620	-0.068896	0.195212	-93.475825	-67.919475	148.678934
22162	9.036485	-3.915461	-0.537499	0.074701	-0.073186	0.208714	-93.524185	-67.797294	148.776703
22163	8.980638	-3.903643	-0.072576	0.162627	-0.044114	0.177614	-93.488941	-67.692102	148.838022
22164	9.065057	-3.785921	0.155739	0.233515	-0.073278	0.153688	-93.450332	-67.601332	148.940310
22165	9.047078	-3.685940	-0.014923	0.391364	-0.135661	0.149083	-93.412946	-67.509350	149.141193
22166	9.375755	-3.862365	-0.164248	0.502573	-0.200974	0.137912	-93.396726	-67.423263	149.434819
22167	9.878500	-3.659439	-0.248676	0.583661	-0.247066	0.100519	-93.404716	-67.355314	149.804449
22168	9.472666	-3.714721	-0.079315	0.462275	-0.169633	0.032807	-93.375727	-67.330519	150.059437
22169	9.411768	-3.586583	-0.083251	0.466473	-0.212037	-0.027575	-93.412374	-67.337039	150.387508
22170	9.106461	-3.501518	-0.143603	0.489943	-0.272372	-0.076657	-93.517559	-67.371245	150.805007
22171	9.169885	-3.387966	-0.207737	0.539259	-0.318763	-0.113017	-93.667447	-67.422357	151.300763
22172	9.110771	-3.414954	-0.303350	0.623140	-0.347357	-0.142528	-93.808028	-67.490778	151.838836
22173	9.390165	-3.258383	-0.010043	0.628977	-0.329067	-0.188680	-93.931602	-67.583823	152.361239
22174	9.411942	-3.436109	-0.218473	0.617034	-0.330457	-0.221487	-94.065354	-67.697266	152.887347
22175	9.569969	-3.911760	-0.411292	0.688406	-0.384773	-0.209887	-94.241024	-67.799132	153.502037
22176	9.414249	-3.352789	-0.398331	0.766937	-0.354493	-0.204382	-94.327546	-67.900857	154.069023
22177	9.139910	-3.167027	-0.272931	0.743204	-0.323007	-0.190167	-94.389165	-67.993314	154.593667
22178	9.179616	-2.875558	-0.336042	0.722514	-0.312703	-0.221807	-94.450058	-68.106505	155.104658
22179	9.198788	-2.480082	-0.168809	0.638628	-0.288872	-0.271102	-94.538165	-68.246260	155.592446
22180	9.128655	-2.706805	-0.207617	0.554503	-0.296063	-0.286716	-94.686904	-68.396953	156.093232
22181	9.332213	-2.786899	-0.670620	0.390113	-0.330596	-0.317519	-94.992636	-68.560098	156.660872
22182	9.495906	-3.009551	-0.255516	0.235391	-0.312367	-0.349912	-95.368683	-68.744447	157.208062
22183	9.462730	-3.126820	-0.123313	0.132345	-0.303842	-0.363276	-95.804606	-68.932452	157.755546
22184	9.501114	-3.089007	-0.046607	0.020921	-0.295764	-0.356456	-96.297230	-69.118626	158.294519
22185	9.759721	-3.075143	-0.101665	-0.083718	-0.294910	-0.341786	-96.858197	-69.291543	158.841996
22186	9.746009	-2.862421	-0.024382	-0.200067	-0.168052	-0.308068	-97.293406	-69.455841	159.183054
22187	9.628863	-3.820866	-0.150752	-0.377741	-0.102464	-0.256082	-97.729063	-69.591300	159.415801
22188	9.700948	-3.861288	0.070670	-0.399269	-0.101821	-0.196756	-98.164358	-69.695839	159.634649
22189	9.987980	-3.934292	0.095007	-0.410393	-0.043266	-0.147627	-98.511166	-69.773548	159.752422
22190	9.931361	-4.608383	0.059814	-0.317606	0.099119	-0.107204	-98.573327	-69.843465	159.623507
22191	9.958681	-4.281873	0.600185	-0.289633	0.098372	-0.105244	-98.623854	-69.909114	159.499317
22192	10.410342	-4.801952	-0.120709	-0.260067	0.161317	-0.110329	-98.555199	-69.985790	159.266688
22193	10.339072	-4.982842	-0.094378	-0.240984	0.218146	-0.116489	-98.392347	-70.067833	158.945240
22194	9.434574	-4.121048	-0.140891	-0.229163	0.346283	-0.168284	-98.024319	-70.191547	158.413676
22195	8.521282	-2.717563	-0.218209	-0.319145	0.480275	-0.287354	-97.520635	-70.389556	157.683150
22196	7.510109	-1.866498	-0.161844	-0.502551	0.529138	-0.347643	-97.035933	-70.625404	156.862998
22197	7.264920	-2.305890	-0.812629	-0.505448	0.301533	-0.338851	-96.915189	-70.836816	156.427044
22198	8.040540	-1.819720	-1.429292	-0.301105	-0.025800	-0.306608	-97.198716	-71.009342	156.543840
22199	9.306152	-3.175849	-1.613069	-0.180628	-0.108845	-0.222633	-97.543146	-71.125540	156.797302
22200	9.333265	-4.671975	-1.739192	0.164534	-0.039936	-0.098102	-97.544622	-71.178475	156.897480
22201	9.116375	-3.772342	-0.836382	0.390543	0.164832	-0.008570	-97.060740	-71.193050	156.621426
22202	8.745139	-3.574429	-0.059281	0.379839	0.348895	-0.030438	-96.273631	-71.233593	156.018895
22203	8.491825	-3.283835	0.330289	0.289569	0.318264	-0.089990	-95.601806	-71.301540	155.483428
22204	8.493784	-2.973802	0.284718	0.175282	0.152705	-0.173982	-95.278953	-71.408916	155.247865
22205	8.807603	-2.525105	-0.085639	0.008364	0.054572	-0.256192	-95.234777	-71.555800	155.205078
22206	9.160932	-2.529574	-0.552396	-0.225903	0.081006	-0.320265	-95.283062	-71.742611	155.118797
22207	9.189846	-2.734416	-0.845652	-0.435827	0.148248	-0.387606	-95.351167	-71.969456	154.926438
22208	9.080168	-2.571301	-0.760619	-0.565782	0.256852	-0.399013	-95.295838	-72.210695	154.526692
22209	8.961872	-1.778607	-0.217584	-0.694959	0.411869	-0.369219	-95.030233	-72.440484	153.828773
22210	8.997907	-1.833712	-0.063291	-0.837136	0.535591	-0.350675	-94.599482	-72.666675	152.873385
22211	9.289063	-1.862001	0.147505	-0.918022	0.586868	-0.276553	-94.098369	-72.848097	151.796711
22212	9.378780	-2.819343	0.046328	-0.954388	0.655677	-0.209568	-93.459976	-72.993185	150.555642
22213	9.349191	-2.931057	0.365071	-0.941617	0.770635	-0.171122	-92.584305	-73.112402	149.074980
22214	8.870178	-3.857365	0.460419	-1.076882	0.828724	-0.150159	-91.652162	-73.216357	147.455374
22215	8.804697	-4.028204	0.608482	-0.872982	0.675059	-0.166583	-90.888366	-73.318509	146.134273
22216	8.831110	-4.404340	0.493351	-0.621012	0.566489	-0.275828	-90.167959	-73.479496	145.010509
22217	8.927694	-4.449811	0.505287	-0.522102	0.594899	-0.359480	-89.322974	-73.682222	143.816504
22218	8.901253	-4.436601	0.258750	-0.262422	0.520923	-0.417446	-88.436774	-73.914788	142.736659
22219	9.340702	-2.915664	0.862444	-0.235846	0.480938	-0.438971	-87.595109	-74.155013	141.719445
22220	9.520899	-2.215344	0.630190	-0.238918	0.464957	-0.432292	-86.749979	-74.388133	140.699022
22221	9.498857	-2.131149	0.456404	-0.262326	0.375165	-0.357639	-86.098423	-74.577759	139.865600
22222	10.141985	-1.733947	0.572464	-0.232229	0.330036	-0.282710	-85.507448	-74.724485	139.114570
22223	10.410245	-1.836552	0.358267	-0.310910	0.360578	-0.230078	-84.905644	-74.837195	138.305050
22224	10.618274	-2.357484	0.269209	-0.382007	0.429588	-0.193835	-84.184922	-74.923644	137.331396
22225	10.815933	-3.024761	-0.012740	-0.390331	0.497217	-0.187381	-83.328685	-74.998110	136.211990
22226	10.185794	-2.725296	-0.101019	-0.270337	0.438233	-0.175790	-82.511898	-75.066590	135.205788
22227	10.018929	-1.868321	-0.054059	-0.102718	0.173437	-0.205468	-82.158966	-75.168838	134.778483
22228	10.189494	-1.489501	0.543774	-0.188198	0.119836	-0.230555	-81.947086	-75.289800	134.447303
22229	9.644205	-1.772148	0.503378	-0.259268	0.058515	-0.249221	-81.910044	-75.425331	134.254256
22230	9.613909	-1.597887	0.951302	-0.319671	-0.113872	-0.249878	-82.274585	-75.576077	134.440966
22231	9.290301	-2.383128	0.491539	-0.423826	-0.235766	-0.324695	-82.967029	-75.776732	134.903775
22232	9.300525	-2.024622	0.529653	-0.479939	-0.251467	-0.379127	-83.718804	-76.009164	135.394725
22233	9.271896	-2.325651	0.592852	-0.457959	-0.272673	-0.393997	-84.535969	-76.248403	135.964940
22234	9.717306	-1.812000	1.145427	-0.301094	-0.294743	-0.369936	-85.332150	-76.474341	136.606034
22235	9.313876	-1.908951	0.669980	-0.313257	-0.331753	-0.335322	-86.266352	-76.678445	137.380730
22236	9.251802	-2.555374	0.054659	-0.287468	-0.385840	-0.340558	-87.331483	-76.885475	138.304999
22237	8.979703	-2.676451	0.644070	-0.093032	-0.358090	-0.355127	-88.258013	-77.095115	139.200010
22238	8.878248	-2.519296	0.769539	0.046324	-0.365558	-0.360433	-89.139431	-77.305944	140.130519
22239	8.793412	-2.249631	0.387030	0.140587	-0.374798	-0.382452	-90.033871	-77.524908	141.128291
22240	8.909191	-1.999275	0.328772	0.170922	-0.347783	-0.401589	-90.859683	-77.752803	142.073457
22241	8.978960	-1.517185	0.304536	0.170376	-0.302291	-0.395210	-91.610590	-77.973626	142.940168
22242	10.521820	-3.053642	0.416233	0.085796	-0.252759	-0.375017	-92.287808	-78.182804	143.682043
22243	7.197244	-1.386617	0.376529	0.605120	-0.225640	-0.392184	-92.632014	-78.399833	144.386428
22244	9.475194	-2.048469	-0.173599	0.481239	-0.393085	-0.411779	-93.530941	-78.622519	145.584670
22245	9.304156	-1.433166	-0.137059	0.567654	-0.356843	-0.469696	-94.345656	-78.874940	146.745754
22246	8.997954	-2.203396	-0.232071	0.618180	-0.328357	-0.474885	-95.077502	-79.129917	147.851603
22247	9.477897	-2.169462	-0.405152	0.721725	-0.323494	-0.495818	-95.801319	-79.393029	149.008002
22248	9.487373	-1.654340	-0.418312	0.802198	-0.320541	-0.543700	-96.518184	-79.682187	150.203885
22249	9.739947	-1.123948	-0.502337	0.758702	-0.344179	-0.554661	-97.412368	-79.971504	151.552793
22250	9.632806	-0.699865	-0.569530	0.688979	-0.272653	-0.515985	-98.142310	-80.242573	152.693821
22251	9.602915	-0.785587	-0.835866	0.553693	-0.263084	-0.499819	-98.979151	-80.500984	153.863191
22252	9.697016	-0.769932	-0.628665	0.496945	-0.203972	-0.504454	-99.687806	-80.766828	154.869150
22253	9.614183	-0.824093	-0.333785	0.398794	-0.149799	-0.505726	-100.326546	-81.034828	155.746234
22254	9.694123	-0.763636	-0.498192	0.280689	-0.116744	-0.510009	-100.948344	-81.309507	156.537232
22255	9.720282	-0.751949	-0.574132	0.149253	-0.061535	-0.493079	-101.484178	-81.577249	157.164378
22256	9.692493	-1.171129	-0.388065	0.102630	-0.010148	-0.476520	-101.857555	-81.843452	157.599950
22257	9.520781	-1.220282	-0.356681	0.162966	-0.042527	-0.451816	-102.345115	-82.088889	158.185446
22258	9.465880	-1.382453	-0.325849	0.162782	-0.066052	-0.444375	-102.944547	-82.329047	158.883389
22259	9.385646	-1.595067	-0.278005	0.171531	-0.060003	-0.462090	-103.586289	-82.576207	159.628684
22260	9.468025	-1.467025	-0.090538	0.225586	-0.066219	-0.490101	-104.289812	-82.839502	160.467059
22261	9.651295	-1.269460	-0.007953	0.281460	-0.101448	-0.534039	-105.248691	-83.117828	161.594473
22262	9.648075	-0.748857	0.101441	0.258597	-0.110846	-0.560415	-106.375277	-83.409205	162.876883
22263	9.720830	-0.923865	-0.128978	0.194984	-0.112911	-0.553507	-107.663910	-83.690658	164.284960
22264	9.604492	-0.834558	-0.173173	0.121085	-0.090145	-0.532502	-108.951978	-83.963808	165.649125
22265	9.582306	-0.886723	-0.144057	0.054052	-0.064893	-0.521992	-110.264140	-84.230053	166.998224
22266	9.461784	-0.971375	0.093429	0.038258	-0.060099	-0.491203	-111.604251	-84.480256	168.365709
22267	9.539902	-0.946628	-0.033344	0.030385	-0.084300	-0.444648	-113.116189	-84.694323	169.900716
22268	9.495193	-0.873397	-0.112487	0.036473	-0.119550	-0.386378	-114.783766	-84.868351	171.595036
22269	9.644656	-0.635815	-0.300277	0.061272	-0.145712	-0.310834	-116.500525	-84.989431	173.352598
22270	9.693734	-0.351537	-0.337257	0.102459	-0.184807	-0.222749	-118.214036	-85.053520	175.130351
22271	9.986577	-0.405460	-0.563758	0.142592	-0.237147	-0.141917	-119.994954	-85.054942	176.998741
22272	9.789025	-0.189110	-0.557487	0.208659	-0.279300	-0.074777	-121.728561	-85.008969	178.857633
22273	9.666933	-0.305605	-0.494357	0.201942	-0.273363	-0.016308	-123.201583	-84.929082	-179.548683
22274	9.451834	-0.926467	-0.330383	0.214056	-0.267351	0.039756	-124.378885	-84.824320	-178.244827
22275	9.407347	-1.584525	-0.232229	0.263655	-0.267668	0.042024	-125.478254	-84.712971	-176.990352
22276	9.216368	-2.294878	-0.174814	0.355132	-0.217188	0.010373	-126.336679	-84.634339	-175.925040
22277	9.019111	-1.950074	-0.161612	0.413279	-0.264444	-0.020146	-127.478174	-84.548702	-174.541777
22278	9.594411	-1.544036	-0.588226	0.744373	-0.404293	-0.070296	-129.207737	-84.435442	-172.376812
22279	9.653950	0.464589	-0.568643	0.409581	-0.356677	-0.032471	-130.707209	-84.314460	-170.635465
22280	9.914434	1.294822	-0.619138	0.384878	-0.376880	0.002684	-132.094438	-84.169246	-169.020555
22281	10.308278	0.731550	-1.399204	0.216106	-0.256642	0.147594	-132.491035	-84.003678	-168.498542
22282	10.204720	0.408183	-0.864853	0.167312	-0.130078	0.264441	-131.975003	-83.840505	-168.922457
22283	10.266384	0.151896	-0.520163	0.081610	-0.082227	0.376855	-130.965374	-83.643476	-169.892285
22284	10.210699	0.268427	-0.742504	0.044912	-0.068973	0.486229	-129.636917	-83.404744	-171.204798
22285	9.976176	0.364972	-0.540040	-0.088445	-0.038858	0.592357	-128.051560	-83.122478	-172.853387
22286	9.860462	0.342803	-0.437962	-0.154826	-0.047000	0.704912	-126.357524	-82.784073	-174.651305
22287	9.903612	0.237956	-0.635942	-0.212346	-0.117371	0.868695	-124.702626	-82.336085	-176.444128
22288	10.020922	0.015922	-0.695793	-0.183564	-0.082504	1.072160	-122.664575	-81.798536	-178.609436
22289	9.333422	0.151568	-0.409550	-0.132591	-0.058340	1.256068	-120.435286	-81.164001	179.058437
22290	9.577948	-0.579379	-0.177816	-0.113246	-0.157358	1.387889	-118.583920	-80.427925	177.115073
22291	9.428403	-1.286736	0.376107	-0.246664	-0.084680	1.475202	-116.752240	-79.653272	175.110727
22292	9.731084	-2.350735	0.020613	-0.521669	-0.071661	1.423799	-115.367859	-78.903333	173.395287
22293	8.930893	-1.879811	0.725172	-0.822519	-0.047301	1.328441	-114.395415	-78.198105	171.921078
22294	22.545209	-13.374173	-0.232878	-1.579553	-0.218036	0.171687	-115.654508	-78.057657	172.280758
22295	-8.059723	8.722592	1.889099	0.108807	0.725186	1.508730	-112.243305	-77.432802	168.852696
22296	12.330451	-5.297254	-2.695030	-1.298884	-1.019459	0.877156	-114.464776	-76.741349	170.365329
22297	10.888042	-7.088013	-4.157582	-0.286254	0.203845	0.709596	-113.503207	-76.414123	169.206928
22298	23.670365	-13.440836	8.443346	-0.599231	0.167547	0.028893	-113.460900	-76.437474	168.807457
22299	22.928215	-16.719165	-16.302424	0.409021	2.557846	-2.309406	-109.320958	-78.202027	164.803590
22300	-33.090586	25.494849	16.083223	1.857535	-0.728793	-0.304080	-110.426845	-78.221012	167.021631
22301	20.183658	4.315584	-13.214787	-1.347911	-4.078877	0.107478	-120.759279	-77.148795	176.804106
22302	12.220209	-10.464273	-6.490477	-0.498270	1.836609	1.053959	-115.744875	-77.114366	171.367815
22303	5.377821	-6.004929	2.634079	-0.101877	-0.099537	0.489576	-115.515102	-76.833490	171.070846
22304	9.361633	-2.569142	-0.758352	-0.098817	0.014501	0.596974	-114.930268	-76.526642	170.410521
22305	8.157625	-2.758041	0.411668	-0.391416	0.579423	0.512368	-113.411619	-76.391512	168.616564
22306	8.141859	-3.621846	0.786712	-0.412192	0.323053	0.448791	-112.540453	-76.225727	167.476050
22307	7.261236	-5.658586	-0.845178	0.117827	-0.009842	0.405254	-112.150871	-76.005705	167.143067
22308	8.685169	-5.028574	-0.618169	0.372804	-0.192744	0.229981	-112.149124	-75.839929	167.361749
22309	10.493835	-4.135098	-1.101348	0.524097	-0.142661	0.169765	-112.017093	-75.715962	167.534104
22310	10.083451	-3.268303	-0.002770	0.362404	0.148710	0.046198	-111.459485	-75.719920	167.173558
22311	10.789425	-1.767148	0.169977	0.519077	0.132747	-0.075226	-110.958070	-75.784560	166.961860
22312	11.294019	-0.714314	0.727338	0.299425	0.257268	-0.049423	-110.278590	-75.859447	166.439613
22313	11.527244	-0.977002	0.245921	-0.000426	0.232121	-0.013683	-109.806854	-75.909400	165.951724
22314	11.917024	-0.058669	0.351972	-0.046073	0.128307	0.030879	-109.533887	-75.914947	165.644686
22315	10.674970	-1.318768	0.062573	-0.584035	0.327867	-0.098802	-109.248922	-76.027761	165.004836
22316	10.502878	-2.584143	-0.101986	-0.623106	0.338236	-0.238026	-109.044751	-76.217670	164.428100
22317	9.173708	-3.532640	-1.119666	-0.772159	0.491596	-0.375490	-108.690156	-76.509414	163.606767
22318	8.099040	-3.129990	-0.589835	-0.442703	0.186648	-0.478636	-108.887176	-76.801009	163.549382
22319	7.178089	-0.983314	-1.912815	-0.491539	-0.238964	-0.439076	-110.099136	-76.989515	164.503382
22320	8.615121	-0.494769	-2.014195	-0.399528	-0.190793	-0.280450	-111.018563	-77.099103	165.213559
22321	8.503867	-0.986817	-2.478069	-0.094423	-0.236879	-0.114645	-111.744270	-77.107717	165.901347
22322	9.472052	-1.029388	-0.715735	0.215833	-0.191117	-0.109295	-112.168416	-77.122398	166.464192
22323	8.852148	0.413411	-1.132341	0.240814	-0.099986	-0.190969	-112.460128	-77.198749	166.903703
22324	10.816950	-0.640098	-0.934630	0.196694	0.134353	-0.275750	-112.301846	-77.372816	166.856593
22325	9.869131	-0.213113	0.017937	0.436120	0.412508	-0.330203	-111.395227	-77.633287	166.182724
22326	9.612323	-0.116324	0.234857	0.138012	0.294421	-0.354173	-110.932006	-77.882152	165.789103
22327	9.195971	-0.473274	-0.664779	-0.221595	0.323971	-0.298507	-110.543709	-78.104801	165.261126
22328	8.090452	-0.250931	-1.564691	-0.287811	0.117281	-0.233692	-110.638180	-78.252706	165.189256
22329	9.878708	-1.105324	0.014899	-0.271817	-0.037369	-0.225713	-111.129940	-78.362863	165.531208
22330	10.286118	-1.625315	-0.095033	-0.747144	0.188538	-0.281717	-111.356943	-78.551798	165.325242
22331	10.444493	-2.292898	0.147401	-0.797915	0.297528	-0.368238	-111.422560	-78.807359	164.924731
22332	9.379922	-1.962659	0.280113	-0.584893	0.270208	-0.310819	-111.358702	-79.029385	164.517246
22333	9.255561	-2.118871	-0.353022	-0.373660	0.213095	-0.275240	-111.297011	-79.217634	164.235234
22334	8.428908	-2.812185	-0.590934	-0.149213	0.173845	-0.355595	-111.286326	-79.443025	164.136608
22335	9.001229	-2.271789	-0.606902	0.141181	-0.157862	-0.488141	-112.241798	-79.666166	165.189249
22336	10.134509	-1.707811	-0.584010	0.134349	-0.332996	-0.413489	-113.647533	-79.808491	166.696137
22337	10.802219	-1.514260	-1.059300	0.158050	-0.441944	-0.351178	-115.327176	-79.883433	168.493318
22338	10.421141	-1.487937	-0.702182	0.152663	-0.529031	-0.255867	-117.129038	-79.880020	170.411685
22339	9.699252	-2.063445	-0.439269	0.295686	-0.728063	-0.209636	-119.342442	-79.785057	172.831330
22340	10.692266	-1.083138	0.344922	0.414047	-1.050387	-0.144643	-122.177880	-79.547430	175.954509
22341	11.036027	-1.065434	-0.738685	0.078714	-0.831408	-0.024670	-124.321708	-79.294384	178.180092
22342	10.008180	-0.950623	-0.828220	0.115912	-0.715471	-0.013773	-126.033460	-79.063769	179.989842
22343	10.023485	-0.005376	-0.539706	0.084341	-0.768282	-0.113325	-127.998666	-78.846781	-177.959823
22344	10.381829	0.428180	-1.092201	-0.153730	-0.701964	-0.141319	-129.917965	-78.656204	-176.093211
22345	10.473594	-0.166857	-1.206018	-0.328342	-0.564325	-0.132676	-131.574935	-78.498820	-174.595875
22346	9.546723	-0.832249	-0.287571	-0.383485	-0.373056	-0.013041	-132.598216	-78.360800	-173.776532
22347	7.935256	-1.704081	-2.719782	-0.647440	-0.659590	-0.015711	-134.325245	-78.103356	-172.392536
22348	9.125613	-0.391375	-1.675469	-0.176227	-0.893185	-0.044728	-136.200488	-77.757438	-170.579075
22349	8.603371	-1.316878	-1.754917	-0.656035	-0.850822	0.039014	-138.015304	-77.380944	-169.106797
22350	9.480689	-1.557498	-2.049383	-0.678320	-0.998025	0.091135	-139.882307	-76.914955	-167.591588
22351	9.413922	-2.361757	-2.816178	-0.662873	-1.009109	0.153231	-141.526337	-76.407695	-166.293515
22352	9.284761	-1.182876	-2.266337	-0.596375	-1.069447	0.232955	-142.964176	-75.840781	-165.165529
22353	9.429408	-1.799614	-2.574631	-0.725328	-1.118875	0.285638	-144.346460	-75.223173	-164.168384
22354	9.678851	-1.055933	-2.360551	-0.742126	-1.255352	0.224346	-145.908248	-74.558693	-162.992401
22355	9.741775	-1.120925	-2.622715	-1.035416	-1.306035	0.177378	-147.654940	-73.872680	-161.794998
22356	9.498521	-1.039237	-2.182195	-1.179646	-1.231477	0.167180	-149.307660	-73.220191	-160.777867
22357	9.225824	-1.146567	-2.117152	-1.344432	-1.189345	0.176648	-150.899615	-72.574651	-159.919436
22358	9.543926	-1.374693	-1.958962	-1.438848	-1.207849	0.153994	-152.509866	-71.922566	-159.095774
22359	8.710267	-0.650294	-1.145144	-1.630562	-1.309390	0.132833	-154.250642	-71.213416	-158.246882
22360	9.681638	-1.753859	-2.963327	-1.816069	-1.321807	0.124450	-156.024926	-70.495560	-157.471644
22361	9.541784	-1.548855	-2.767092	-1.687977	-1.173582	0.130424	-157.538002	-69.843804	-156.892547
22362	9.361422	-1.718685	-2.651461	-1.686789	-1.107988	0.114389	-158.973645	-69.229128	-156.393163
22363	9.188967	-2.396567	-2.771657	-1.545989	-0.949992	0.126774	-160.176977	-68.689362	-156.054185
22364	9.009701	-2.150921	-2.495517	-1.279185	-0.859176	0.159281	-161.105688	-68.193966	-155.844830
22365	9.029755	-2.284664	-3.000228	-1.034406	-0.818181	0.207675	-161.788494	-67.707365	-155.748836
22366	8.676481	-2.423615	-3.517257	-0.755355	-0.761866	0.257910	-162.207041	-67.245884	-155.765085
22367	8.732074	-2.134503	-3.296546	-0.337674	-0.707974	0.287234	-162.322503	-66.805077	-155.851074
22368	9.305239	-1.464052	-2.840664	0.010704	-0.813750	0.213862	-162.371519	-66.322892	-155.791496
22369	8.823308	-0.730037	-3.764552	-0.276227	-0.559992	0.292205	-162.388869	-65.962105	-155.946841
22370	8.561488	-1.895688	-4.289794	0.062365	-0.544386	0.332315	-162.159399	-65.606358	-156.159767
22371	9.256032	-1.417935	-4.147452	0.172916	-0.519336	0.308971	-161.893179	-65.264387	-156.344816
22372	9.265978	-0.950980	-3.904857	0.203899	-0.436888	0.277492	-161.618023	-64.976081	-156.519765
22373	9.445987	-0.673690	-3.887328	0.423602	-0.497079	0.235887	-161.295903	-64.658774	-156.608794
22374	9.307912	0.017433	-4.116410	0.226416	-0.412698	0.212505	-161.083100	-64.394937	-156.701356
22375	8.785063	-0.388084	-4.651156	0.181286	-0.417229	0.176866	-160.942358	-64.131614	-156.743569
22376	9.289806	-0.213040	-4.178799	0.115211	-0.467552	0.078310	-160.968557	-63.862996	-156.641885
22377	8.363643	0.497462	-4.340329	-0.077865	-0.552210	0.005262	-161.215506	-63.558398	-156.417496
22378	8.718355	-0.490464	-4.687725	-0.372128	-0.383999	-0.026998	-161.599712	-63.354083	-156.227733
22379	8.512203	0.224411	-3.747629	-0.407982	-0.427490	-0.113863	-162.108216	-63.137357	-155.921339
22380	8.644645	-0.497212	-4.514269	-0.706372	-0.279901	-0.116249	-162.735384	-63.003898	-155.673590
22381	8.339818	-1.269852	-4.465986	-0.664797	-0.321289	-0.126189	-163.356884	-62.844617	-155.404673
22382	8.583625	-1.280514	-4.769073	-0.639259	-0.287042	-0.107578	-163.930506	-62.703412	-155.173411
22383	8.625424	-1.528928	-4.562058	-0.525681	-0.245154	-0.085217	-164.396704	-62.577338	-154.988921
22384	8.692219	-1.241240	-4.382353	-0.418897	-0.242094	-0.076390	-164.790917	-62.454383	-154.817033
22385	8.322951	-1.339455	-4.805155	-0.503302	-0.134729	-0.056896	-165.177901	-62.384016	-154.707078
22386	8.390939	-1.067213	-4.303977	-0.294822	-0.177628	-0.044147	-165.444888	-62.291046	-154.598291
22387	8.365559	-1.143822	-4.227778	-0.300483	-0.154079	-0.063715	-165.726004	-62.210387	-154.476484
22388	8.730213	-0.845470	-3.972265	-0.193286	-0.231739	-0.120124	-166.026524	-62.097459	-154.263796
22389	8.771112	-0.957923	-4.606662	-0.247297	-0.216145	-0.143299	-166.374024	-61.992541	-154.032106
22390	8.607133	-1.517664	-4.858067	-0.210333	-0.184398	-0.110262	-166.658202	-61.903594	-153.848642
22391	8.654364	-1.568184	-4.803877	-0.039629	-0.195649	-0.089344	-166.821940	-61.802000	-153.690002
22392	8.542693	-1.215805	-4.424404	0.017053	-0.207281	-0.091775	-166.959460	-61.697221	-153.524688
22393	8.384929	-1.178516	-4.663869	0.017366	-0.225957	-0.082650	-167.088655	-61.577478	-153.367873
22394	8.154037	-1.114859	-4.826082	-0.015128	-0.254150	-0.074285	-167.235141	-61.443874	-153.212930
22395	8.122406	-0.988762	-4.603833	-0.074732	-0.305831	-0.079144	-167.429139	-61.278644	-153.041990
22396	8.056887	-0.742101	-4.529884	-0.157992	-0.374279	-0.096198	-167.703146	-61.079916	-152.834462
22397	7.957298	-0.635549	-4.575383	-0.246805	-0.422693	-0.099866	-168.036762	-60.850960	-152.615947
22398	8.382641	-0.863550	-4.500604	-0.338339	-0.443131	-0.112024	-168.437017	-60.614249	-152.381359
22399	8.060264	-0.052065	-4.386308	-0.293197	-0.504569	-0.125335	-168.829628	-60.340788	-152.124548
22400	8.602935	-0.633247	-5.245834	-0.529685	-0.513740	-0.108176	-169.338871	-60.062275	-151.889614
22401	8.487285	-0.891590	-5.234626	-0.444104	-0.463343	-0.076355	-169.750465	-59.804976	-151.709376
22402	8.488720	-1.209899	-5.037271	-0.442708	-0.491706	-0.067695	-170.155634	-59.533026	-151.536113
22403	8.467507	-1.237336	-4.964315	-0.374276	-0.499353	-0.070589	-170.518204	-59.253612	-151.365351
22404	8.352321	-1.123639	-5.198321	-0.384331	-0.527473	-0.067374	-170.885604	-58.960255	-151.196017
22405	8.212380	-1.216291	-5.520421	-0.371298	-0.515200	-0.050674	-171.221069	-58.669035	-151.053910
22406	8.013780	-0.973327	-5.049444	-0.330828	-0.554042	-0.048115	-171.534485	-58.357872	-150.910798
22407	7.631004	-0.569141	-5.423254	-0.471149	-0.560039	-0.010344	-171.887956	-58.037075	-150.813880
22408	8.123105	-1.213731	-5.138958	-0.466023	-0.498995	0.001721	-172.218037	-57.752246	-150.741610
22409	8.395331	-1.087288	-5.094629	-0.513947	-0.524242	0.003263	-172.571658	-57.450162	-150.672921
22410	8.187054	-0.633950	-5.178663	-0.388655	-0.496824	0.006549	-172.846086	-57.165793	-150.613489
22411	8.525464	-0.679504	-5.572671	-0.353931	-0.518338	0.011486	-173.094220	-56.866139	-150.560805
22412	8.592307	-0.616449	-5.294108	-0.440302	-0.479881	0.036532	-173.365429	-56.589088	-150.540234
22413	8.304260	-0.837845	-5.254799	-0.269557	-0.526442	0.028509	-173.546620	-56.283479	-150.509521
22414	8.541686	-0.616186	-5.526708	-0.281837	-0.501587	0.037696	-173.724675	-55.993955	-150.491600
22415	8.082476	-0.421095	-5.539155	-0.246253	-0.451444	0.039199	-173.873442	-55.730311	-150.483722
22416	8.043177	-0.426985	-5.894976	-0.367602	-0.400340	0.056063	-174.073681	-55.497311	-150.498382
22417	8.128896	-0.724926	-5.061341	-0.352520	-0.379379	0.047533	-174.267785	-55.274238	-150.509352
22418	8.760523	-0.819376	-4.709267	-0.439903	-0.352798	0.024444	-174.529209	-55.070182	-150.500010
22419	8.190844	0.349425	-5.331117	-0.402338	-0.383381	-0.004694	-174.792073	-54.847674	-150.461918
22420	8.687291	-0.164732	-5.550896	-0.416235	-0.303766	-0.043444	-175.088486	-54.675130	-150.393126
22421	8.721099	0.161976	-4.917949	-0.476007	-0.237882	-0.056337	-175.421704	-54.537936	-150.320343
22422	8.156490	-0.555861	-5.874551	-0.456902	-0.161851	-0.041436	-175.727955	-54.446086	-150.267969
22423	8.353957	-0.759091	-5.318824	-0.350130	-0.175925	-0.063710	-175.988875	-54.344170	-150.195210
22424	8.324656	-0.873272	-4.950744	-0.288961	-0.172129	-0.081463	-176.229598	-54.247761	-150.104805
22425	8.292268	-0.822080	-5.241025	-0.194218	-0.113348	-0.080415	-176.409716	-54.181904	-150.021368
22426	8.253605	-0.856834	-5.449291	-0.146315	-0.027988	-0.056579	-176.540402	-54.166853	-149.965506
22427	8.153797	-0.872927	-5.380865	-0.041645	-0.018009	-0.043146	-176.598534	-54.154036	-149.924653
22428	8.104162	-0.362336	-5.253353	-0.009247	0.006716	-0.039798	-176.635335	-54.158259	-149.887495
22429	8.154151	-0.399736	-5.173357	0.032582	-0.031887	-0.046322	-176.654060	-54.137583	-149.842785
22430	8.405257	-0.223748	-5.223056	0.038561	0.001129	-0.049768	-176.671521	-54.139018	-149.795621
22431	8.152884	0.005033	-5.392172	0.022944	0.041499	-0.042913	-176.689686	-54.160192	-149.758414
22432	8.012359	0.236142	-5.471924	-0.002268	0.069155	-0.036658	-176.717188	-54.200178	-149.727774
22433	8.412006	-1.714834	-4.675011	-0.523077	0.203206	0.018321	-176.992674	-54.311876	-149.759030
22434	6.557155	-0.306507	-6.489953	0.517574	0.088185	0.032782	-176.666061	-54.360640	-149.797495
22435	8.318578	1.063074	-5.828611	0.299304	0.017495	-0.076998	-176.554420	-54.369273	-149.725277
22436	8.048700	0.892716	-5.433679	0.066362	0.061577	-0.091930	-176.587337	-54.406810	-149.639778
22437	8.167363	0.124931	-5.461010	-0.151112	0.091750	-0.078853	-176.731941	-54.457944	-149.569863
22438	8.030813	0.133050	-5.309509	-0.214038	0.003845	-0.096959	-176.932992	-54.462412	-149.475521
22439	8.321017	0.135052	-5.254311	-0.302594	0.030208	-0.101659	-177.185779	-54.478721	-149.379356
22440	8.215468	-0.102862	-5.491935	-0.321113	0.035877	-0.118221	-177.464358	-54.501690	-149.265287
22441	8.033962	0.001407	-5.600159	-0.288704	0.056968	-0.119760	-177.723167	-54.533234	-149.152008
22442	8.212419	-0.372700	-5.330717	-0.228394	0.042643	-0.119915	-177.950328	-54.559542	-149.035977
22443	7.347935	0.355662	-5.914758	-0.132151	0.013931	-0.121466	-178.122497	-54.565969	-148.919009
22444	7.754240	-0.162889	-6.322823	-0.172917	0.065342	-0.115427	-178.314168	-54.604707	-148.807647
22445	7.759007	0.186825	-5.624249	-0.147486	-0.001017	-0.136185	-178.507525	-54.602367	-148.675524
22446	7.817363	-0.334778	-5.713647	-0.145867	-0.014711	-0.134093	-178.700839	-54.594971	-148.543238
22447	7.918649	0.001220	-5.375116	-0.128288	-0.037906	-0.134588	-178.882434	-54.570975	-148.412017
22448	7.872890	-0.054797	-5.410114	-0.116353	-0.035867	-0.140503	-179.064037	-54.551020	-148.273269
22449	7.764467	0.066894	-5.248218	-0.106200	-0.035146	-0.136579	-179.234165	-54.528151	-148.140518
22450	7.771056	-0.124481	-5.161688	-0.073962	-0.040288	-0.128471	-179.381526	-54.505129	-148.013935
22451	7.694799	0.002787	-5.324685	-0.052985	-0.012578	-0.106261	-179.496317	-54.494633	-147.911639
22452	7.702889	0.024087	-5.547220	-0.046526	-0.002189	-0.083740	-179.591539	-54.492960	-147.829736
22453	7.687948	-0.154855	-5.543863	-0.024477	0.005170	-0.071734	-179.662109	-54.492312	-147.761688
22454	7.807478	0.044542	-5.609780	0.009183	-0.002154	-0.071571	-179.715602	-54.490470	-147.691822
22455	7.827365	0.288064	-5.456734	-0.030531	0.012265	-0.079372	-179.795750	-54.493819	-147.616268
22456	7.899994	0.348230	-5.519908	-0.070616	0.015485	-0.091853	-179.911321	-54.501978	-147.526371
22457	7.858020	0.159534	-5.706029	-0.090640	-0.005118	-0.096305	179.960449	-54.495206	-147.434067
22458	7.894986	0.159442	-5.692752	-0.068885	-0.022077	-0.096830	179.841769	-54.481587	-147.339205
22459	8.023484	0.284134	-5.607803	-0.086521	-0.014959	-0.096769	179.715659	-54.468948	-147.246579
22460	8.070156	0.241796	-5.488456	-0.130738	0.002885	-0.094873	179.563028	-54.469365	-147.153585
22461	8.029129	-0.033609	-5.543584	-0.172942	0.005923	-0.081717	179.399434	-54.468492	-147.075736
22462	7.972239	0.008490	-5.492601	-0.150052	0.007932	-0.072358	179.253757	-54.471678	-147.004883
22463	7.862133	0.128705	-5.567531	-0.159531	0.009872	-0.069017	179.107987	-54.472937	-146.939498
22464	7.719732	0.239368	-5.649433	-0.178805	0.005542	-0.074419	178.944225	-54.474522	-146.866650
22465	7.704415	0.231757	-5.629796	-0.190429	-0.010376	-0.088926	178.765099	-54.463741	-146.782027
22466	7.953222	0.411305	-5.572778	-0.197469	-0.019771	-0.101299	178.569535	-54.450157	-146.683268
22467	8.038452	0.345357	-5.583679	-0.218600	-0.007806	-0.100014	178.365488	-54.440348	-146.587827
22468	8.242759	0.080827	-5.663248	-0.222417	-0.009502	-0.089609	178.164842	-54.432445	-146.500432
22469	8.409102	-0.320428	-5.542586	-0.180177	-0.000993	-0.069530	178.007171	-54.426753	-146.434923
22470	8.035051	0.116968	-5.817719	-0.115635	0.022770	-0.050148	177.898681	-54.437917	-146.385471
22471	8.219155	-0.197301	-5.655483	-0.125144	0.033806	-0.043830	177.792080	-54.452545	-146.343990
22472	8.150705	0.006617	-5.549901	-0.072275	0.016466	-0.039132	177.717549	-54.460252	-146.305653
22473	7.980610	0.145299	-5.480088	-0.081896	0.022207	-0.030721	177.646525	-54.468478	-146.277453
22474	7.960397	0.422095	-5.614670	-0.077388	0.003580	-0.028715	177.577928	-54.469031	-146.249938
22475	7.973476	0.423813	-5.736489	-0.120070	0.034429	-0.024852	177.489271	-54.484358	-146.226951
22476	7.991988	0.349550	-5.766362	-0.136180	0.029459	-0.023094	177.390467	-54.499796	-146.203768
22477	8.298220	0.099267	-5.582221	-0.149000	0.023065	-0.026528	177.284219	-54.508531	-146.179541
22478	7.900668	0.337878	-5.875941	-0.087079	0.007292	-0.025653	177.212320	-54.511173	-146.154824
22479	8.125346	0.187212	-5.812133	-0.133340	0.011525	-0.006043	177.131899	-54.513846	-146.151299
22480	8.090546	0.101123	-5.455291	-0.062429	-0.015502	-0.013620	177.084727	-54.503715	-146.139595
22481	7.723543	0.609686	-5.555905	-0.117047	0.003595	-0.015876	177.006070	-54.501558	-146.126770
22482	7.669181	0.496125	-5.475047	-0.130244	-0.039569	-0.033476	176.905183	-54.477037	-146.096816
22483	7.819295	0.486182	-5.225707	-0.140960	-0.039239	-0.052258	176.785598	-54.449204	-146.050526
22484	7.525524	0.799547	-5.281470	-0.232234	-0.031185	-0.055324	176.608529	-54.428684	-145.998787
22485	7.464594	0.344392	-5.797202	-0.144506	-0.051880	-0.044713	176.493820	-54.393746	-145.960961
22486	7.400575	0.732271	-5.596898	-0.145252	-0.031423	0.002061	176.412496	-54.374934	-145.965744
22487	8.074495	-0.306296	-5.802870	-0.274808	-0.029012	0.036334	176.286834	-54.355953	-146.006277
22488	8.212964	-0.124800	-5.684016	-0.133858	0.039649	0.044126	176.242087	-54.379318	-146.047978
22489	8.421031	0.332574	-5.063189	-0.118163	0.018707	0.027430	176.196631	-54.387339	-146.076762
22490	8.450474	0.583660	-5.446608	-0.138535	-0.018983	0.001514	176.118509	-54.375695	-146.080561
22491	8.142020	0.838958	-5.676875	-0.050995	-0.034653	-0.020505	176.076174	-54.351382	-146.065840
22492	8.143227	0.899167	-5.376930	-0.133631	-0.038361	-0.012564	175.990601	-54.328141	-146.057092
22493	7.914910	1.022609	-5.209950	-0.181984	-0.023702	-0.026955	175.867577	-54.309802	-146.035421
22494	7.978169	0.678654	-5.455567	-0.266975	-0.021541	-0.038627	175.683764	-54.295087	-145.999936
22495	8.077460	0.254274	-5.658852	-0.234773	-0.013090	-0.038396	175.520915	-54.282238	-145.966460
22496	8.098054	0.047058	-5.523402	-0.148867	-0.000185	-0.018031	175.419944	-54.280561	-145.949643
22497	7.950488	0.133888	-5.562909	-0.048093	-0.004188	0.001029	175.394864	-54.274541	-145.954111
22498	7.780077	0.311095	-5.717261	-0.005932	-0.016837	0.009882	175.399261	-54.264662	-145.966063
22499	7.612430	0.648428	-5.643935	0.011327	-0.032914	0.013444	175.419900	-54.242807	-145.984917
22500	7.484434	0.934509	-5.514300	-0.044275	-0.057138	0.000332	175.397305	-54.209420	-145.990690
22501	7.598328	0.987484	-5.456009	-0.129503	-0.100080	-0.020081	175.315028	-54.147667	-145.982150
22502	7.743315	0.935463	-5.461960	-0.207578	-0.110859	-0.036059	175.173518	-54.081831	-145.956811
22503	7.908488	0.899542	-5.336791	-0.261091	-0.114229	-0.038214	175.002960	-54.011091	-145.932338
22504	7.826767	0.701845	-5.511975	-0.316462	-0.114703	-0.050518	174.788434	-53.942243	-145.893943
22505	7.792030	0.618558	-5.492028	-0.317846	-0.116679	-0.056711	174.571852	-53.869023	-145.852712
22506	7.833398	0.697699	-5.312897	-0.316002	-0.134327	-0.069377	174.345220	-53.787779	-145.798956
22507	7.834894	0.657160	-5.272571	-0.334379	-0.138272	-0.088847	174.096878	-53.700207	-145.730003
22508	7.994784	0.537213	-5.321130	-0.308954	-0.151183	-0.100715	173.852589	-53.607264	-145.649210
22509	8.033190	0.597400	-5.340844	-0.282223	-0.127841	-0.102331	173.624202	-53.524451	-145.567759
22510	8.004324	0.610386	-5.480657	-0.238334	-0.115361	-0.099079	173.419967	-53.451717	-145.486244
22511	8.008396	0.380776	-5.340943	-0.219216	-0.082922	-0.099861	173.226690	-53.394285	-145.403408
22512	7.704538	1.181418	-5.647937	-0.081462	-0.106269	-0.111407	173.103120	-53.325659	-145.310193
22513	7.822889	0.965071	-5.694183	-0.231255	-0.047538	-0.097016	172.902511	-53.288276	-145.226691
22514	7.876533	0.591893	-5.791529	-0.145374	-0.078964	-0.102456	172.747158	-53.235454	-145.139513
22515	7.778004	0.580462	-5.673895	-0.119439	-0.045100	-0.093852	172.613278	-53.199409	-145.059239
22516	7.660047	0.702727	-5.741718	-0.075496	-0.063124	-0.089748	172.506688	-53.156290	-144.982806
22517	7.607699	0.856368	-5.741459	-0.075888	-0.055991	-0.088369	172.403384	-53.114284	-144.909474
22518	7.574418	1.067306	-5.742234	-0.094186	-0.047152	-0.093674	172.281899	-53.079727	-144.827731
22519	7.488417	1.068928	-5.693425	-0.161100	-0.047755	-0.097989	172.122060	-53.041457	-144.744679
22520	7.610413	0.927025	-5.767010	-0.191818	-0.057362	-0.106442	171.936391	-52.999767	-144.652633
22521	7.517743	0.956743	-5.722453	-0.176231	-0.037003	-0.140754	171.735068	-52.963799	-144.528397
22522	8.142100	0.418096	-5.935494	-0.195055	-0.084584	-0.113284	171.545976	-52.905688	-144.434326
22523	7.669734	0.570281	-5.489675	-0.121457	-0.034189	-0.097154	171.409000	-52.874552	-144.351274
22524	7.750281	0.889346	-5.648867	-0.150830	-0.055887	-0.097551	171.254607	-52.833791	-144.268704
22525	7.761481	0.732763	-5.628025	-0.127358	-0.054779	-0.098482	171.116034	-52.790628	-144.187806
22526	8.033445	0.699887	-5.622150	-0.099879	-0.038649	-0.099107	170.988172	-52.759259	-144.101771
22527	8.126396	0.608098	-5.640215	-0.070541	-0.022133	-0.096880	170.879868	-52.734500	-144.017932
22528	8.040993	0.674055	-5.759926	-0.016368	0.004589	-0.094872	170.798257	-52.727856	-143.929722
22529	7.765642	1.010242	-5.780847	0.019240	0.018692	-0.099711	170.734499	-52.725779	-143.837196
22530	7.656170	1.248480	-5.889208	0.019553	0.020450	-0.110254	170.660219	-52.726561	-143.732281
22531	7.774215	1.239509	-5.889690	0.015203	0.015959	-0.119824	170.579556	-52.720918	-143.621415
22532	7.947797	1.039623	-5.763129	-0.005607	0.029696	-0.119369	170.482815	-52.725821	-143.506480
22533	7.952331	0.712951	-5.758295	0.011420	0.042143	-0.109808	170.404146	-52.735721	-143.400853
22534	7.918318	0.597036	-5.661338	0.046819	0.045843	-0.095016	170.353487	-52.751913	-143.306056
22535	7.744229	0.716494	-5.719907	0.097251	0.040027	-0.087591	170.340664	-52.762647	-143.221405
22536	7.573577	0.927593	-5.698939	0.115306	0.034944	-0.073680	170.346586	-52.774729	-143.148294
22537	7.693360	0.838354	-5.673063	0.092408	0.014383	-0.066924	170.349551	-52.772967	-143.086975
22538	7.463995	1.098176	-5.964918	0.130953	0.004626	-0.046599	170.388452	-52.770524	-143.043990
22539	7.600700	0.776963	-6.072094	0.084589	-0.007945	-0.014057	170.429051	-52.761236	-143.035559
22540	7.627182	0.744321	-5.991198	0.115073	-0.022909	0.003520	170.499588	-52.747948	-143.043725
22541	7.601788	0.828866	-5.632753	0.082911	-0.032757	0.022749	170.569618	-52.728119	-143.073479
22542	7.653309	0.986685	-5.550281	0.050553	-0.037444	0.031109	170.625519	-52.709158	-143.109648
22543	7.646489	1.104060	-5.713025	0.000437	-0.025959	0.052329	170.669333	-52.695892	-143.165862
22544	8.289802	0.919958	-5.388694	-0.046317	0.000643	0.084178	170.704390	-52.703346	-143.245626
22545	7.890508	0.521793	-5.813372	0.072389	0.014421	0.108820	170.826481	-52.718043	-143.348405
22546	6.059846	1.545747	-6.687564	-0.215479	0.218521	0.237828	170.853298	-52.862709	-143.539305
22547	6.229406	-0.870725	-7.288741	-0.085432	0.067223	0.282027	171.008800	-52.922746	-143.797115
22548	8.202493	1.223069	-4.973274	0.376745	-0.165705	0.107095	171.323705	-52.837309	-143.923415
22549	8.138772	3.567468	-3.642714	-0.183115	-0.077195	0.019877	171.243966	-52.791839	-143.956467
22550	8.200173	1.805489	-4.722742	-0.635503	0.008827	-0.045170	170.844013	-52.791964	-143.914007
22551	8.101643	1.094708	-4.799996	-0.607186	0.013351	-0.077584	170.438268	-52.788830	-143.842816
22552	7.853720	0.729183	-4.746682	-0.619365	0.024467	-0.085017	170.015697	-52.793742	-143.760476
22553	7.767269	0.563638	-4.565719	-0.504685	0.006445	-0.139091	169.623995	-52.779869	-143.633171
22554	7.842755	0.268503	-4.493614	-0.373316	0.003979	-0.162146	169.288214	-52.764708	-143.482617
22555	7.903774	0.085619	-4.599579	-0.180297	0.045297	-0.142612	169.074541	-52.771467	-143.345445
22556	7.527521	0.529693	-5.024588	0.050685	0.104488	-0.095731	169.016986	-52.819702	-143.238928
22557	6.974982	1.478530	-5.290852	0.077113	0.152510	-0.043071	169.008872	-52.897392	-143.174771
22558	6.957219	1.062603	-6.116445	0.164933	0.135849	-0.019371	169.068697	-52.971596	-143.133497
22559	7.449342	1.338884	-5.891091	0.270323	0.142425	-0.012318	169.195632	-53.047016	-143.099950
22560	7.914412	1.484797	-5.607710	0.301447	0.148871	-0.003418	169.343932	-53.130191	-143.071638
22561	8.247212	1.410472	-5.608945	0.219749	0.168794	0.013595	169.457975	-53.223289	-143.058260
22562	8.333837	1.163704	-5.734267	0.189537	0.125369	0.003432	169.550737	-53.294012	-143.040812
22563	8.403615	1.543386	-5.692807	0.117287	0.119926	-0.015147	169.591440	-53.356619	-143.009214
22564	8.125669	1.601008	-5.609900	-0.017316	0.100068	-0.044734	169.532604	-53.408126	-142.950637
22565	8.073009	1.711102	-5.663849	-0.153921	0.083391	-0.072010	169.379644	-53.444155	-142.871425
22566	8.037266	1.437844	-5.762790	-0.268056	0.080403	-0.081070	169.151595	-53.480517	-142.781282
22567	7.955592	1.351180	-5.929184	-0.319930	0.075710	-0.082676	168.896014	-53.510708	-142.692804
22568	7.846440	1.213233	-6.063589	-0.344333	0.058687	-0.071887	168.633832	-53.535377	-142.614718
22569	7.932380	1.035548	-6.031225	-0.336122	0.037384	-0.051069	168.398429	-53.547189	-142.562915
22570	8.215513	0.834560	-5.870164	-0.288998	0.007537	-0.032633	168.205568	-53.547275	-142.531605
22571	8.506158	0.918354	-5.696644	-0.241673	0.020637	-0.022931	168.048188	-53.552807	-142.509530
22572	8.518719	1.096356	-5.665881	-0.215603	0.031294	-0.022035	167.901799	-53.567426	-142.483584
22573	8.488054	0.861898	-5.849438	-0.214761	0.036950	-0.016181	167.762234	-53.582844	-142.464493
22574	8.301210	0.889607	-5.720520	-0.204872	0.046146	-0.008581	167.629819	-53.607420	-142.448162
22575	8.102263	0.598183	-5.771788	-0.154390	0.004105	-0.013391	167.532340	-53.604755	-142.438390
22576	8.240815	0.893655	-5.533346	-0.096363	0.024431	-0.015083	167.461003	-53.616398	-142.420520
22577	8.065292	1.082473	-5.667226	-0.111017	0.041317	-0.010995	167.383892	-53.634829	-142.405182
22578	7.863597	0.907867	-6.071858	-0.066121	0.035476	0.015310	167.351208	-53.656480	-142.413690
22579	7.893903	0.815328	-6.054278	0.011431	0.028841	0.032104	167.379094	-53.673330	-142.441608
22580	7.933137	0.942605	-5.942330	0.058213	0.027067	0.041635	167.439391	-53.693503	-142.476958
22581	8.059005	1.262021	-5.908505	0.064458	0.048006	0.045479	167.504678	-53.722706	-142.513570
22582	7.997775	1.526296	-5.870867	0.007631	0.065811	0.035529	167.525021	-53.763713	-142.535220
22583	7.801666	1.606176	-5.786165	-0.056898	0.073126	0.029914	167.504747	-53.805027	-142.551927
22584	7.682353	1.435806	-5.659570	-0.109558	0.070196	0.025788	167.449630	-53.847206	-142.563346
22585	7.739562	1.314543	-5.410729	-0.129154	0.080848	0.025079	167.382875	-53.892254	-142.573743
22586	7.767188	1.340647	-5.306843	-0.080451	0.097546	0.016238	167.332259	-53.948500	-142.570123
22587	8.017039	1.264705	-5.941727	-0.143795	0.087082	0.032582	167.261701	-53.997992	-142.586177
22588	7.735504	1.160503	-5.232532	-0.027416	0.210018	0.045099	167.243952	-54.120708	-142.585631
22589	7.661913	1.270463	-5.322690	-0.013757	0.185731	0.051130	167.245002	-54.227685	-142.598069
22590	7.666495	1.206312	-5.340843	0.030545	0.244615	0.063568	167.268763	-54.372075	-142.607732
22591	7.539579	1.280408	-5.189873	0.055722	0.274678	0.084163	167.320005	-54.532925	-142.632889
22592	7.485621	1.198706	-5.167489	0.054040	0.308794	0.094145	167.370355	-54.717003	-142.658609
22593	7.379749	1.426713	-4.873724	0.142595	0.338773	0.084242	167.460841	-54.913676	-142.670768
22594	7.497922	1.537050	-4.626700	-0.026210	0.305224	0.054525	167.434881	-55.090778	-142.659381
22595	7.888574	1.259070	-5.353340	0.093350	0.333882	0.041890	167.464269	-55.279440	-142.631432
22596	7.724319	1.384113	-4.687154	0.044340	0.330306	0.037368	167.460123	-55.468438	-142.597540
22597	8.082377	1.292634	-4.997672	0.049080	0.347879	0.032968	167.454031	-55.663822	-142.557456
22598	7.952717	1.092980	-4.949031	0.053391	0.396229	0.037432	167.442460	-55.889736	-142.508509
22599	8.100529	1.491863	-5.161106	0.162166	0.414047	0.026020	167.482670	-56.121269	-142.446330
22600	7.998326	1.135379	-5.437121	0.077941	0.454763	0.032105	167.469188	-56.379281	-142.378456
22601	7.913086	1.242360	-5.303135	0.164921	0.446762	0.005716	167.486789	-56.626601	-142.287631
22602	7.882053	1.310658	-5.185433	0.167339	0.436987	-0.003912	167.496193	-56.870143	-142.186263
22603	7.856032	1.645781	-4.904285	0.132835	0.418108	-0.027451	167.470970	-57.097325	-142.066791
22604	7.994465	1.374100	-5.121877	0.060347	0.382522	-0.049260	167.388177	-57.304630	-141.929283
22605	8.014935	1.336883	-4.884046	0.060938	0.421534	-0.056512	167.293098	-57.529917	-141.776376
22606	7.844219	1.288532	-4.697056	0.062653	0.394912	-0.068299	167.189218	-57.741446	-141.613061
22607	7.829930	1.478873	-4.046144	0.081973	0.410151	-0.094755	167.071036	-57.955192	-141.419359
22608	7.993134	1.649317	-4.996498	0.006148	0.254113	-0.105773	166.926664	-58.082946	-141.247230
22609	8.070545	1.436438	-4.871646	-0.010344	0.403763	-0.100715	166.747633	-58.291823	-141.044880
22610	7.929255	1.488141	-4.126206	-0.011788	0.330342	-0.101401	166.577103	-58.462043	-140.854875
22611	8.221488	1.347674	-4.607540	-0.066205	0.388139	-0.083575	166.380428	-58.663842	-140.670173
22612	8.189474	1.058046	-4.568270	-0.051354	0.439846	-0.048557	166.206670	-58.901581	-140.503778
22613	8.241630	1.164908	-4.712689	-0.010207	0.476633	-0.029517	166.067004	-59.159452	-140.349057
22614	8.387974	1.032651	-4.873826	0.029142	0.466891	-0.013148	165.961433	-59.416721	-140.209168
22615	8.527002	0.915005	-4.927101	0.078897	0.472327	0.019373	165.915781	-59.678729	-140.105109
22616	8.609593	0.811638	-4.797340	0.170428	0.510448	0.040471	165.928825	-59.967549	-140.009470
22617	8.601899	1.094774	-4.153795	0.243090	0.516940	0.038271	165.982807	-60.257000	-139.912417
22618	8.695564	1.085548	-4.193183	0.185885	0.537929	0.031103	165.987534	-60.559910	-139.797498
22619	8.813292	1.012229	-4.080864	0.194005	0.564918	0.024700	165.986251	-60.874178	-139.669906
22620	8.894540	1.020324	-4.141369	0.200216	0.571161	0.024707	165.981872	-61.194780	-139.535832
22621	8.890093	0.763894	-3.755317	0.195890	0.650696	0.048204	165.980664	-61.559989	-139.407907
22622	8.880204	0.637169	-3.702950	0.193418	0.669051	0.068222	165.988716	-61.941194	-139.293171
22623	9.206276	0.402104	-4.053640	0.224819	0.719276	0.092130	166.028974	-62.350647	-139.194317
22624	9.035931	0.255310	-3.742746	0.317069	0.754497	0.117108	166.135608	-62.786382	-139.111496
22625	9.000447	0.725568	-3.278448	0.404086	0.735218	0.104032	166.286905	-63.206494	-139.022746
22626	9.512677	0.703374	-3.532629	0.302425	0.755619	0.091707	166.357772	-63.639781	-138.909753
22627	9.360278	0.832683	-2.885664	0.311105	0.862490	0.082443	166.395585	-64.127967	-138.754632
22628	9.432774	0.522533	-3.390752	0.254815	0.914748	0.087095	166.385828	-64.649562	-138.583292
22629	9.090890	0.410992	-3.589847	0.350956	0.960805	0.109938	166.444987	-65.196251	-138.427870
22630	9.262082	0.079271	-3.704960	0.393877	0.983747	0.160292	166.578960	-65.766393	-138.328285
22631	9.246460	0.030481	-3.620271	0.524739	1.001549	0.210357	166.850566	-66.349363	-138.297760
22632	9.283616	0.342516	-3.760979	0.623561	0.933455	0.212254	167.205694	-66.898576	-138.296382
22633	9.256995	0.938055	-3.409901	0.691314	0.870488	0.187438	167.596266	-67.405508	-138.291637
22634	9.182797	1.417765	-3.099885	0.634843	0.789069	0.165636	167.954401	-67.868204	-138.286457
