// Start Time: Unknown
// Update Rate: 100.0Hz
// Filter Profile: human (46.1)
// Firmware Version: 4.6.0
PacketCounter	Acc_X	Acc_Y	Acc_Z	Gyr_X	Gyr_Y	Gyr_Z	Roll	Pitch	Yaw
21392	9.797257	0.000174	-0.343371	-0.002436	0.000633	-0.010109	-179.945687	-87.992553	-48.959994
21393	9.785157	0.001514	-0.452383	-0.000315	-0.010831	-0.008643	179.861684	-87.356109	-49.178623
21394	9.747938	0.022166	-0.372044	-0.001583	-0.005134	-0.014069	179.817763	-87.671326	-48.930967
21395	9.761121	0.038683	-0.429201	-0.000842	-0.011510	-0.015816	179.595593	-87.664685	-48.709095
21396	9.750818	0.016630	-0.407326	-0.002516	-0.012079	-0.015736	179.402752	-87.658327	-48.517133
21397	9.770030	0.033244	-0.410540	-0.002287	-0.010861	-0.020166	179.121250	-87.651956	-48.236707
21398	9.732646	0.037688	-0.451793	-0.001424	-0.019725	-0.016682	178.891120	-87.640461	-48.007201
21399	9.710358	0.033127	-0.417918	-0.001939	-0.012132	-0.019365	178.624856	-87.633271	-47.741822
21400	9.659615	0.005796	-0.523516	-0.000671	-0.014729	-0.021388	178.329434	-87.624309	-47.446539
21401	9.710255	0.037025	-0.419978	0.001191	-0.000839	-0.018055	178.081295	-87.623505	-47.197505
21402	9.730630	0.086149	-0.466572	-0.004302	-0.010158	-0.020893	177.790415	-87.616578	-46.908851
21403	9.732392	0.047135	-0.456354	0.002060	0.001667	-0.017528	177.549556	-87.617124	-46.666602
21404	9.760657	0.054869	-0.437895	0.000039	-0.009001	-0.015294	177.329581	-87.610400	-46.446442
21405	9.747965	0.146707	-0.480309	0.000219	0.004318	-0.011879	177.163876	-87.612545	-46.280468
21406	9.681197	0.111894	-0.494682	0.003396	0.000411	-0.010964	176.980507	-87.610712	-46.095052
21407	9.633697	0.091589	-0.510804	0.003808	0.011850	-0.004531	176.911792	-87.617354	-46.024093
21408	9.637400	0.010378	-0.488224	0.008599	0.015444	-0.007792	176.742486	-87.622983	-45.849806
21409	9.663947	0.058290	-0.478250	0.010562	0.021674	-0.011167	176.576802	-87.635008	-45.677924
21410	9.706156	0.007438	-0.459126	0.005653	0.020570	-0.013141	176.324569	-87.642297	-45.422331
21411	9.676168	0.043493	-0.486281	0.007157	0.027463	-0.015105	176.092899	-87.657425	-45.186363
21412	9.689540	0.076840	-0.418996	0.010049	0.029270	-0.013856	175.824247	-87.668611	-44.911815
21413	9.751522	0.146482	-0.499629	0.010804	0.031168	-0.011114	175.641118	-87.685946	-44.722340
21414	9.722243	0.109051	-0.471166	0.016008	0.037934	-0.012437	175.352156	-87.701146	-44.424099
21415	9.683947	0.080155	-0.463526	0.018610	0.034084	-0.007891	175.209909	-87.720236	-44.271068
21416	9.675110	0.089602	-0.480769	0.019312	0.042913	-0.009253	174.934498	-87.737003	-43.984530
21417	9.742589	0.053350	-0.407199	0.017760	0.042951	-0.011394	174.722821	-87.760919	-43.762503
21418	9.766892	0.019848	-0.427640	0.021119	0.044098	-0.011557	174.401741	-87.777809	-43.429223
21419	9.810156	0.018379	-0.329294	0.016562	0.041719	-0.012735	174.161601	-87.800871	-43.179406
21420	9.854935	0.032125	-0.396215	0.016735	0.035399	-0.010848	173.863211	-87.813357	-42.871391
21421	9.811669	0.052680	-0.366238	0.014076	0.031712	-0.009082	173.683535	-87.830862	-42.683516
21422	9.864143	0.025019	-0.368990	0.012972	0.027990	-0.005176	173.458224	-87.838768	-42.450740
21423	9.804747	0.021535	-0.370832	0.010834	0.028081	-0.003689	173.359255	-87.854506	-42.345495
21424	9.813792	0.013446	-0.347404	0.012172	0.021648	-0.009052	173.101473	-87.858934	-42.080617
21425	9.755697	0.042491	-0.393752	0.012112	0.025484	-0.005707	172.973463	-87.873025	-41.945582
21426	9.782609	0.017319	-0.328890	0.008362	0.012888	-0.011962	172.692854	-87.872352	-41.660174
21427	9.797420	0.065495	-0.427951	0.009453	0.013518	-0.008413	172.541648	-87.879378	-41.503448
21428	9.762969	0.077291	-0.379002	0.007433	0.014216	-0.009143	172.325994	-87.880756	-41.283599
21429	9.727764	0.039627	-0.406756	0.010322	0.016027	-0.007889	172.176021	-87.889205	-41.127613
21430	9.665157	0.044857	-0.376500	0.008926	0.018019	-0.003660	172.023770	-87.891641	-40.970058
21431	9.722163	0.040819	-0.457527	0.010972	0.020414	-0.010391	171.823702	-87.902342	-40.763571
21432	9.712676	0.067458	-0.355210	0.006461	0.030754	-0.005971	171.684211	-87.913395	-40.620572
21433	9.778664	0.054634	-0.414632	0.014428	0.019078	-0.005305	171.565321	-87.923723	-40.493321
21434	9.872079	0.065266	-0.334354	0.003797	0.027065	-0.004204	171.426150	-87.933556	-40.352627
21435	9.854782	0.009829	-0.319273	0.006447	0.019383	-0.002984	171.336005	-87.944250	-40.258727
21436	9.747517	0.058123	-0.395293	0.007526	-0.007921	-0.005380	171.296370	-87.930491	-40.213529
21437	9.691339	0.045877	-0.431525	0.002481	0.044876	-0.001848	171.159826	-87.955674	-40.075416
21438	9.664327	0.016462	-0.317074	0.009329	-0.006741	-0.007673	171.052667	-87.941278	-39.961566
21439	9.633383	0.075502	-0.477424	0.007999	0.029370	-0.012429	170.787558	-87.956672	-39.691603
21440	9.691574	0.048408	-0.425928	0.007476	0.025591	-0.012146	170.544409	-87.960713	-39.442817
21441	9.835984	0.121783	-0.285018	0.008847	0.020508	-0.008912	170.354264	-87.971346	-39.247354
21442	9.752197	0.159195	-0.516279	0.013389	0.011523	-0.004736	170.215367	-87.971185	-39.100867
21443	9.691876	0.050012	-0.418823	0.012079	0.057276	0.003544	170.121021	-88.003791	-38.999442
21444	9.689596	0.034845	-0.249668	0.012692	0.030634	0.002573	170.053456	-88.011559	-38.924207
21445	9.741301	0.030061	-0.384107	0.014851	0.022260	-0.003377	169.944147	-88.023682	-38.806207
21446	9.808264	-0.006401	-0.311413	0.009382	0.032575	-0.004744	169.778098	-88.030853	-38.632552
21447	9.857827	0.024278	-0.204957	0.011390	0.003935	-0.009929	169.612020	-88.031941	-38.459702
21448	9.860883	0.045764	-0.620445	0.010722	0.034421	-0.005635	169.374127	-88.039696	-38.213185
21449	9.794297	-0.025266	0.004522	0.004200	0.037175	-0.006432	169.155103	-88.059734	-37.991441
21450	9.887190	0.015358	-0.300375	0.001301	-0.019174	-0.010924	169.270938	-88.046644	-38.106600
21451	9.941414	0.069951	-0.274803	-0.001526	-0.016542	-0.011062	169.144234	-88.035981	-37.980439
21452	9.846120	0.051467	-0.442173	0.003523	-0.013458	-0.002703	169.153703	-88.023517	-37.987513
21453	9.738233	0.043734	-0.343638	-0.003112	0.008347	0.000174	169.132506	-88.028022	-37.967814
21454	9.673950	0.016361	-0.271264	-0.001794	-0.009467	-0.002165	169.107039	-88.018566	-37.943996
21455	9.655460	0.057353	-0.446190	-0.005080	-0.014457	-0.005353	169.065368	-88.009635	-37.904968
21456	9.706454	-0.002396	-0.407093	-0.002826	0.020932	-0.007269	168.975988	-88.012369	-37.814116
21457	9.758128	0.037213	-0.214556	0.001364	-0.014726	-0.009807	168.868363	-88.002675	-37.705298
21458	9.879631	0.061144	-0.370390	-0.005133	-0.000602	-0.013608	168.756174	-88.000101	-37.597106
21459	9.818269	0.098949	-0.386698	0.001295	-0.010886	-0.006468	168.691905	-87.992944	-37.531705
21460	9.780609	0.046204	-0.251403	-0.004593	0.004537	-0.005308	168.718747	-87.991566	-37.558404
21461	9.670782	0.158537	-0.471856	0.000742	-0.026040	-0.003176	168.756682	-87.976307	-37.595568
21462	9.686115	-0.118078	-0.309198	-0.001054	0.010739	-0.006557	168.693112	-87.975876	-37.528779
21463	9.781211	0.103390	-0.429117	-0.006624	-0.014427	-0.007497	168.622546	-87.966646	-37.461561
21464	9.688875	0.070189	-0.376479	0.003214	-0.000812	-0.006522	168.642647	-87.968201	-37.484281
21465	9.676792	-0.034756	-0.385722	-0.006814	0.008465	-0.000481	168.610991	-87.972707	-37.456145
21466	9.743129	0.124494	-0.348966	0.000089	-0.012125	-0.007803	168.617531	-87.961573	-37.461766
21467	9.742791	0.075229	-0.425572	-0.003872	0.014726	0.001897	168.605520	-87.969872	-37.451597
21468	9.727752	0.028032	-0.324167	-0.004453	0.006500	0.001063	168.783560	-87.966171	-37.626080
21469	9.741415	0.043010	-0.379977	-0.002702	0.003236	-0.002354	168.743782	-87.967449	-37.587321
21470	9.681984	0.039103	-0.384032	-0.007099	0.014181	-0.000170	168.882561	-87.969280	-37.723850
21471	9.731163	0.019873	-0.355133	-0.001237	0.005688	-0.005459	168.788777	-87.971547	-37.630107
21472	9.721905	0.101902	-0.429850	-0.003088	0.019720	-0.002829	168.843574	-87.976068	-37.679993
21473	9.722392	0.029101	-0.373535	0.002388	0.009409	-0.001460	168.805015	-87.980836	-37.639355
21474	9.757486	0.067879	-0.342536	-0.005050	0.024861	-0.002444	168.736253	-87.988301	-37.572228
21475	9.785348	0.024737	-0.398220	-0.002192	0.015303	0.001819	168.728123	-87.996685	-37.564629
21476	9.775327	0.050668	-0.296615	-0.004365	0.022321	-0.000825	168.810275	-88.002700	-37.641670
21477	9.790962	0.024969	-0.340592	-0.004192	0.007713	-0.003379	168.743131	-88.006215	-37.576100
21478	9.762952	0.018933	-0.358800	-0.001646	0.010799	-0.002931	168.812112	-88.012255	-37.646877
21479	9.813807	0.081491	-0.297131	-0.002854	0.009560	-0.004265	168.726077	-88.016779	-37.561652
21480	9.829422	0.056077	-0.342135	-0.002625	-0.000603	-0.005697	168.722238	-88.005812	-37.549862
21481	9.769969	0.052525	-0.346988	-0.004247	0.003267	-0.004501	168.652574	-88.006652	-37.481719
21482	9.815700	0.042238	-0.285699	-0.005510	-0.002419	-0.006957	168.573948	-87.989294	-37.394324
21483	9.822449	0.025536	-0.352502	-0.007318	-0.003601	-0.004663	168.522675	-87.986021	-37.346186
21484	9.778780	0.045576	-0.326774	-0.005355	-0.008742	-0.005049	168.307811	-87.974079	-37.138741
21485	9.778749	0.046195	-0.327624	-0.006902	-0.008711	-0.007194	168.231127	-87.967541	-37.064985
21486	9.748560	0.031777	-0.435375	-0.007557	-0.013099	-0.004689	168.575871	-87.958749	-37.403043
21487	9.687817	0.045450	-0.320171	-0.004773	-0.000514	-0.004214	168.525061	-87.957209	-37.353838
21488	9.666508	0.022069	-0.406013	-0.015438	-0.003915	-0.000137	168.531911	-87.953956	-37.374490
21489	9.666510	0.021958	-0.405970	-0.007937	0.004739	0.003430	168.581800	-87.956243	-37.427903
21490	9.675399	0.013101	-0.384140	-0.013936	0.011269	0.002346	168.654974	-87.965107	-37.516480
21491	9.741851	0.049116	-0.367851	-0.015742	0.010086	0.004639	168.702865	-87.970595	-37.572421
21492	9.759186	0.104623	-0.379438	-0.016422	0.012628	0.003018	168.930798	-87.977380	-37.807805
21493	9.776930	0.087114	-0.336185	-0.011915	0.010575	0.003080	168.957516	-87.982987	-37.840316
21494	9.780350	0.078412	-0.368483	-0.005131	0.009042	-0.000559	168.893021	-87.986445	-37.786076
21495	9.753859	0.104296	-0.430601	-0.004734	0.012216	0.001375	168.889970	-87.992793	-37.784735
21496	9.691438	0.035744	-0.346617	-0.004319	0.007107	-0.001158	169.001097	-87.984867	-37.881485
21497	9.696373	0.059596	-0.423036	-0.001645	0.010802	-0.002925	168.936991	-87.989827	-37.817151
21498	9.731767	0.025514	-0.337795	-0.002720	0.010171	-0.006480	168.904488	-87.995702	-37.791974
21499	9.715662	0.075500	-0.422475	-0.003079	0.019725	-0.002823	168.812601	-88.005734	-37.700684
21500	9.686194	0.037185	-0.395845	-0.001927	0.016519	-0.002612	168.773575	-88.002229	-37.650082
21501	9.714287	0.043635	-0.374771	-0.004829	0.022987	0.000591	168.724487	-88.014337	-37.602531
21502	9.738955	0.058844	-0.320120	0.000072	0.022758	-0.006000	169.044521	-88.023632	-37.901674
21503	9.763524	0.024765	-0.342510	-0.002734	0.018455	-0.002016	168.974913	-88.032941	-37.832230
21504	9.791592	0.031568	-0.321409	-0.002808	0.020944	-0.007265	168.777114	-88.045225	-37.647079
21505	9.823093	0.029763	-0.333743	-0.003260	0.014673	-0.001733	168.721149	-88.052485	-37.591666
21506	9.800507	0.023532	-0.297037	-0.002393	0.017184	-0.001208	168.911874	-88.054802	-37.768754
21507	9.824760	0.062414	-0.374938	-0.002505	0.008293	-0.003455	168.851447	-88.058230	-37.708317
21508	9.756856	0.043572	-0.268592	-0.001637	0.010804	-0.002929	168.818057	-88.055114	-37.666722
21509	9.746196	0.044079	-0.376446	-0.001222	0.005695	-0.005461	168.733332	-88.056772	-37.581187
21510	9.699043	0.023463	-0.393220	-0.000616	0.005641	-0.009089	168.739977	-88.059498	-37.588991
21511	9.742775	0.054120	-0.341767	-0.003520	0.012108	-0.005888	168.626396	-88.064747	-37.475891
21512	9.746278	0.046102	-0.374085	-0.007402	0.007172	-0.005459	168.581552	-88.049353	-37.405864
21513	9.742833	0.055115	-0.339947	-0.001637	0.010804	-0.002930	168.522686	-88.053991	-37.346280
21514	9.765535	0.061995	-0.373862	-0.002179	0.013957	-0.006771	168.167666	-88.052191	-37.000789
21515	9.763984	0.030207	-0.328675	-0.003313	0.010228	-0.002859	168.107022	-88.056397	-36.940418
21516	9.783207	0.045363	-0.329282	-0.003730	0.015337	-0.000328	167.693865	-88.039926	-36.519469
21517	9.755270	0.039130	-0.347469	-0.001825	0.005750	-0.001835	167.661789	-88.041429	-36.486774
21518	9.764087	0.030697	-0.325548	-0.005800	0.011586	-0.002191	167.677960	-88.042345	-36.498412
21519	9.776404	0.013940	-0.336763	-0.001894	0.008240	-0.007084	167.550940	-88.044568	-36.370734
21520	9.764138	0.031849	-0.323902	0.000933	0.005611	-0.006942	167.194417	-88.039406	-36.014715
21521	9.783328	0.047652	-0.325322	-0.001476	0.003132	-0.009616	167.041605	-88.038356	-35.861071
21522	9.792116	0.039808	-0.304059	-0.002950	0.000674	-0.006515	166.953291	-88.027253	-35.764270
21523	9.783326	0.049339	-0.325130	-0.003546	-0.000619	-0.011480	166.783822	-88.023742	-35.595100
21524	9.776434	0.018069	-0.335683	-0.003004	-0.003772	-0.007639	166.766524	-88.021052	-35.590397
21525	9.774516	0.059696	-0.346601	-0.002476	0.000012	-0.007924	166.653594	-88.018360	-35.477189
21526	9.770992	0.069027	-0.313679	-0.001854	-0.006978	-0.007426	166.837460	-88.013487	-35.657229
21527	9.774477	0.060953	-0.347484	-0.007439	-0.004211	-0.002462	166.827735	-88.009186	-35.650078
21528	9.751787	0.054856	-0.312733	-0.001935	-0.003141	-0.004083	166.759044	-87.994151	-35.571362
21529	9.748399	0.014422	-0.356834	0.001231	-0.007042	-0.003130	166.753569	-87.988057	-35.563444
21530	9.741379	0.031956	-0.290716	-0.000596	-0.001292	-0.004965	166.938683	-87.980105	-35.732347
21531	9.774404	0.062606	-0.349239	-0.003192	-0.008827	-0.006545	166.884799	-87.972523	-35.678426
21532	9.779794	0.013860	-0.372702	-0.000703	-0.010183	-0.007214	166.833851	-87.962595	-35.629044
21533	9.772764	0.031742	-0.307165	-0.004395	-0.010066	-0.007883	166.763254	-87.954125	-35.559097
21534	9.777765	0.056227	-0.385742	-0.003769	-0.017055	-0.007386	166.573215	-87.930361	-35.362745
21535	9.767357	0.033377	-0.364054	-0.003056	-0.008216	-0.008765	166.483001	-87.922663	-35.272392
21536	9.735856	0.036342	-0.351050	0.000451	-0.013388	-0.007004	166.327101	-87.895300	-35.092152
21537	9.702407	0.080091	-0.348757	-0.005205	-0.008132	-0.007285	166.258273	-87.887653	-35.024377
21538	9.695514	0.048424	-0.359828	-0.002459	-0.006924	-0.003800	166.089547	-87.886910	-34.881536
21539	9.679814	0.025344	-0.391720	-0.003476	-0.003109	-0.006232	166.017763	-87.882243	-34.809924
21540	9.677855	0.066738	-0.402400	-0.002561	0.003848	-0.004579	165.969289	-87.890008	-34.776201
21541	9.707805	0.032643	-0.372074	-0.003034	0.004509	-0.003170	165.914728	-87.890087	-34.721649
21542	9.735797	0.039450	-0.352345	0.000453	0.006275	-0.005533	166.195400	-87.901048	-35.002708
21543	9.786435	0.052695	-0.367614	-0.002170	0.007021	-0.002643	166.142717	-87.902715	-34.949500
21544	9.814425	0.059439	-0.347845	-0.000883	0.004426	-0.004651	166.046792	-87.901623	-34.852112
21545	9.776129	0.029825	-0.343636	-0.003372	0.005781	-0.003981	165.976722	-87.902407	-34.782229
21546	9.756991	0.015123	-0.341285	0.000659	0.004394	-0.002503	165.859683	-87.897309	-34.666985
21547	9.714765	0.067115	-0.358540	-0.005048	0.005203	-0.003910	165.790654	-87.897717	-34.599119
21548	9.735904	0.041747	-0.349119	0.000455	0.006276	-0.005533	165.686188	-87.889625	-34.482624
21549	9.760544	0.007897	-0.372939	-0.001222	0.005698	-0.005462	165.593527	-87.889989	-34.388887
21550	9.755091	0.057845	-0.349883	-0.004574	0.004542	-0.005320	165.835149	-87.896915	-34.635682
21551	9.786568	0.056355	-0.363494	-0.000274	0.004375	-0.008280	165.707780	-87.896225	-34.506622
21552	9.785049	0.024570	-0.319144	-0.002693	0.003237	-0.002361	165.888985	-87.897265	-34.677700
21553	9.786583	0.057286	-0.362934	0.000744	0.000560	-0.005848	165.814911	-87.894824	-34.601351
21554	9.763930	0.051315	-0.327663	-0.005911	0.002691	-0.004439	165.735703	-87.898981	-34.543934
21555	9.748289	0.028138	-0.359013	-0.002744	-0.001208	-0.003487	165.701555	-87.895934	-34.509595
21556	9.744779	0.037182	-0.325742	-0.001271	0.001253	-0.006588	165.703233	-87.891506	-34.509583
21557	9.729143	0.014180	-0.357041	-0.003422	0.001336	-0.005108	165.634951	-87.889615	-34.441450
21558	9.777772	0.068681	-0.383535	-0.002338	0.000624	-0.010146	165.530131	-87.874407	-34.320981
21559	9.727155	0.056398	-0.367643	-0.003217	-0.000547	-0.002078	165.514973	-87.871780	-34.305824
21560	9.758623	0.054723	-0.381618	-0.003286	0.001947	-0.007328	165.425594	-87.861693	-34.216822
21561	9.763929	0.055105	-0.327085	-0.006046	0.002080	-0.002219	165.396472	-87.860416	-34.189271
21562	9.715061	0.025418	-0.431599	-0.002644	0.007682	-0.001235	165.416670	-87.864602	-34.211640
21563	9.704539	0.051256	-0.331170	-0.001356	0.005088	-0.003242	165.363216	-87.864866	-34.157071
21564	9.723920	0.017255	-0.409386	-0.001830	0.005749	-0.001833	165.686942	-87.870993	-34.474650
21565	9.708105	0.043248	-0.363046	-0.001984	0.012077	-0.003737	165.601493	-87.875122	-34.388356
21566	9.739616	0.041509	-0.376027	-0.002847	0.009566	-0.004266	165.773620	-87.888945	-34.564918
21567	9.760795	0.015844	-0.366044	-0.001392	0.013368	0.001229	165.759651	-87.894602	-34.549820
21568	9.746503	0.073920	-0.363603	-0.001829	0.005749	-0.001834	166.021483	-87.898623	-34.802790
21569	9.718604	0.067649	-0.381663	-0.004897	0.018538	-0.000535	165.961724	-87.906941	-34.743824
21570	9.750589	-0.007623	-0.339354	-0.002068	0.015912	-0.000393	165.900746	-87.913796	-34.695454
21571	9.755463	0.065518	-0.337955	-0.003219	0.019118	-0.000606	165.837140	-87.922420	-34.631699
21572	9.757505	0.024807	-0.325654	0.000898	0.013897	-0.002470	166.045283	-87.936046	-34.836523
21573	9.797822	0.014267	-0.317283	-0.002454	0.012740	-0.002331	165.981836	-87.940967	-34.772472
21574	9.827362	0.053266	-0.340789	0.000036	0.011386	-0.002999	165.830595	-87.942799	-34.623087
21575	9.817029	0.029993	-0.317069	-0.001215	0.005700	-0.005464	165.745028	-87.943342	-34.536228
21576	9.836185	0.045539	-0.318375	-0.000877	0.004428	-0.004653	165.853929	-87.945793	-34.638001
21577	9.757635	0.026488	-0.321599	-0.002014	0.000693	-0.000742	165.861460	-87.944243	-34.644741
21578	9.776772	0.041884	-0.323519	-0.003465	-0.003108	-0.006238	165.782103	-87.944313	-34.583089
21579	9.767970	0.051139	-0.345053	-0.002314	-0.006314	-0.006025	165.734765	-87.938166	-34.535145
21580	9.789087	0.026001	-0.336635	-0.001313	-0.003190	-0.007716	165.680368	-87.931094	-34.483252
21581	9.785502	0.035379	-0.303863	-0.003376	-0.006942	-0.009584	165.580820	-87.924065	-34.383667
21582	9.799385	0.051491	-0.360789	0.001128	-0.008989	-0.009510	165.741229	-87.911647	-34.517532
21583	9.780214	0.037119	-0.359883	-0.003312	-0.009438	-0.004334	165.733331	-87.903945	-34.509537
21584	9.718743	0.074214	-0.376868	-0.002022	-0.012031	-0.006341	165.772596	-87.897271	-34.554580
21585	9.739843	0.049137	-0.369164	-0.003560	-0.011999	-0.008492	165.711769	-87.887582	-34.493776
21586	9.666840	-0.018925	-0.395952	-0.001450	-0.003801	-0.005497	165.873334	-87.894940	-34.668278
21587	9.704752	0.061015	-0.323165	-0.003987	-0.006893	-0.005956	165.831852	-87.888548	-34.627099
21588	9.729441	0.027581	-0.348029	-0.002715	-0.002545	-0.012088	165.549967	-87.878063	-34.352140
21589	9.780032	0.041615	-0.364294	-0.001698	-0.006362	-0.009656	165.452352	-87.871379	-34.253504
21590	9.729406	0.029752	-0.348832	-0.003054	-0.001273	-0.012899	165.276702	-87.861879	-34.072453
21591	9.758834	0.069433	-0.373745	0.000227	-0.003221	-0.005568	165.229483	-87.857473	-34.023138
21592	9.746468	0.087115	-0.361602	-0.001741	0.001916	-0.005181	165.465681	-87.861806	-34.245950
21593	9.730909	0.063882	-0.392685	-0.001832	0.005749	-0.001834	165.439613	-87.862967	-34.218939
21594	9.667964	0.068169	-0.364057	-0.002307	0.006409	-0.000424	165.569620	-87.856246	-34.326649
21595	9.652438	0.044529	-0.394495	-0.003890	0.014719	0.001900	165.564352	-87.862851	-34.321562
21596	9.692783	0.033660	-0.386081	-0.001399	0.013367	0.001232	165.580691	-87.869378	-34.339280
21597	9.778655	0.012085	-0.315976	-0.003568	0.020389	-0.001414	165.503895	-87.878662	-34.262445
21598	9.869601	0.014552	-0.323367	-0.002169	0.007022	-0.002645	165.581345	-87.881494	-34.340404
21599	9.844881	0.049370	-0.298336	-0.002754	0.005734	-0.007615	165.468965	-87.881767	-34.227481
21600	9.836097	0.058622	-0.318962	-0.004229	0.003269	-0.004515	165.479559	-87.882009	-34.235676
21601	9.764716	0.022544	-0.389044	0.002105	-0.004525	-0.002606	165.484992	-87.877314	-34.237863
21602	9.710522	0.018441	-0.340005	-0.006243	0.003961	-0.005256	165.507422	-87.875093	-34.258556
21603	9.682607	0.012480	-0.359238	-0.001922	-0.003140	-0.004090	165.483369	-87.870939	-34.233522
21604	9.656227	0.038966	-0.422256	-0.005244	0.007086	-0.006948	165.494854	-87.877206	-34.256515
21605	9.703291	0.061031	-0.403966	-0.002846	0.009567	-0.004267	165.418804	-87.880111	-34.179985
21606	9.771535	0.057295	-0.376462	-0.002185	0.013965	-0.006769	165.363076	-87.882485	-34.121237
21607	9.767988	0.066205	-0.341975	-0.003798	0.010887	-0.001449	165.323440	-87.886504	-34.081673
21608	9.817096	0.046989	-0.312877	-0.000969	0.008262	-0.001306	165.444801	-87.884569	-34.186430
21609	9.761317	0.034473	-0.350529	0.002659	0.010649	-0.005884	165.344006	-87.887782	-34.081912
21610	9.796479	0.000465	-0.265615	-0.005426	0.002029	-0.005857	165.257568	-87.883822	-33.998799
21611	9.829523	0.031672	-0.323576	-0.004379	-0.003123	-0.012023	165.114823	-87.878474	-33.856343
21612	9.780420	0.052338	-0.352296	-0.003946	-0.008227	-0.014561	165.108759	-87.870776	-33.849735
21613	9.827938	0.002045	-0.281143	-0.001117	-0.010851	-0.014417	164.965202	-87.860786	-33.704570
21614	9.673356	0.102314	-0.431661	-0.001731	-0.010804	-0.010788	164.851085	-87.850619	-33.597074
21615	9.641822	0.105123	-0.418282	-0.002258	-0.001868	-0.004902	164.812692	-87.846997	-33.557816
21616	9.705886	-0.021025	-0.468216	-0.001649	0.010807	-0.002927	165.022675	-87.859794	-33.767968
21617	9.610448	0.083838	-0.271466	-0.000018	0.006943	-0.004124	164.963195	-87.861232	-33.706307
21618	9.691500	0.038004	-0.464698	-0.002387	0.015851	-0.009802	164.931964	-87.869530	-33.664700
21619	9.729839	0.044951	-0.334833	-0.003635	0.022887	-0.006667	164.768367	-87.879420	-33.500912
21620	9.787763	0.017749	-0.283914	-0.000892	0.011375	-0.008779	164.787241	-87.881700	-33.506424
21621	9.824462	0.040566	-0.373835	-0.001567	0.013920	-0.010402	164.605077	-87.886045	-33.322836
21622	9.826028	0.049931	-0.285157	-0.002947	0.007621	-0.010651	164.607682	-87.886307	-33.313611
21623	9.819366	0.042568	-0.426468	-0.001213	0.005704	-0.005466	164.533861	-87.886847	-33.238202
21624	9.780599	0.038223	-0.213556	-0.002903	0.012067	-0.009523	164.473535	-87.879395	-33.153278
21625	9.738798	0.065553	-0.439892	-0.001046	-0.013349	-0.009167	164.424502	-87.868766	-33.102507
21626	9.707285	0.068469	-0.425744	-0.004874	0.017203	-0.009139	164.509962	-87.872993	-33.172538
21627	9.667000	0.055868	-0.300187	-0.001072	0.006317	-0.007687	164.403137	-87.873430	-33.063880
21628	9.744011	0.067783	-0.383519	-0.005716	0.007745	-0.005545	164.459422	-87.871268	-33.116550
21629	9.766794	0.074792	-0.417395	0.000070	0.015835	-0.001869	164.401025	-87.877823	-33.055653
21630	9.747699	0.035865	-0.282310	-0.003434	0.021003	-0.003639	164.357612	-87.885009	-33.007843
21631	9.772036	0.075570	-0.359878	-0.000928	0.006932	-0.009909	164.215396	-87.885386	-32.863627
21632	9.717782	0.071558	-0.310057	-0.001646	0.010809	-0.002930	164.302460	-87.893519	-32.952141
21633	9.824833	0.048851	-0.362932	0.000170	0.012004	-0.005219	164.209738	-87.897448	-32.856820
21634	9.857817	0.055822	-0.288435	-0.000251	0.004387	-0.008286	164.374580	-87.907031	-33.027828
21635	9.763354	0.086689	-0.378063	0.002057	-0.002022	-0.007858	164.303673	-87.902887	-32.953244
21636	9.812987	-0.005282	-0.295218	-0.000534	0.003159	-0.003845	164.207799	-87.905575	-32.875180
21637	9.794614	0.037895	-0.129838	-0.000642	-0.022898	-0.012833	164.149387	-87.889160	-32.814691
21638	9.786145	0.143842	-0.678861	0.002510	-0.014070	-0.006270	164.050230	-87.887110	-32.747021
21639	9.719781	0.011250	-0.168237	0.002403	0.020818	-0.004440	163.932120	-87.896145	-32.625126
21640	9.714754	0.036060	-0.354138	0.005300	-0.021137	-0.007251	164.124022	-87.887592	-32.809823
21641	9.695618	0.021776	-0.353760	0.002496	-0.007125	-0.010396	164.037637	-87.880340	-32.719616
21642	9.738923	0.077088	-0.435238	0.001780	-0.009025	-0.013148	163.947252	-87.875960	-32.633406
21643	9.751307	0.037096	-0.315998	0.001224	0.006855	-0.011388	163.786350	-87.876259	-32.469385
21644	9.837899	0.122478	-0.345964	0.003316	-0.009056	-0.010995	163.836225	-87.871295	-32.510882
21645	9.784274	0.069708	-0.375202	0.006108	-0.016121	-0.011977	163.769369	-87.858872	-32.438162
21646	9.681565	0.036030	-0.432225	0.001720	-0.000748	-0.008672	163.734932	-87.860858	-32.409306
21647	9.721859	0.002232	-0.293880	0.003695	-0.005883	-0.009056	163.666517	-87.854565	-32.336433
21648	9.679352	0.078614	-0.443588	0.004213	-0.002096	-0.009338	163.602863	-87.855590	-32.279066
21649	9.609693	0.051089	-0.425950	0.006783	0.005446	-0.007748	163.506700	-87.855761	-32.176686
21650	9.607546	0.092734	-0.435772	0.000781	0.011959	-0.008853	163.357949	-87.860002	-32.025338
21651	9.675834	0.089437	-0.406579	0.005160	0.044811	-0.006951	163.096466	-87.881882	-31.758473
21652	9.619454	0.126304	-0.366304	0.014086	-0.003654	-0.008648	163.064323	-87.879062	-31.719846
21653	9.693696	0.097556	-0.490908	0.005979	0.066995	-0.004957	162.724534	-87.913382	-31.374171
21654	9.690044	0.082400	-0.321721	0.018150	0.023528	-0.003431	162.709009	-87.924540	-31.334559
21655	9.685111	0.083019	-0.372550	0.014893	0.049589	-0.008185	162.396228	-87.948719	-31.010798
21656	9.746211	0.120614	-0.406410	0.021757	0.045595	-0.006547	162.079458	-87.967563	-30.672521
21657	9.700761	0.107852	-0.331968	0.019271	0.046945	-0.005890	161.803259	-87.990562	-30.382875
21658	9.743787	0.080628	-0.440727	0.023719	0.053192	-0.001341	161.574369	-88.019032	-30.142437
21659	9.674852	-0.020727	-0.363681	0.024693	0.051876	-0.004164	161.288462	-88.044942	-29.839994
21660	9.677225	-0.060993	-0.347276	0.018704	0.065334	-0.009434	160.845491	-88.073345	-29.376318
21661	9.766174	0.041182	-0.195591	0.014842	0.060382	-0.009023	160.406902	-88.102758	-28.926762
21662	9.799566	0.072489	-0.247861	0.016449	0.052073	-0.011334	159.967320	-88.126292	-28.476147
21663	9.789615	0.146694	-0.406216	0.023500	0.053142	-0.010785	159.522343	-88.151225	-28.015260
21664	9.778589	0.100597	-0.246507	0.027797	0.055490	-0.018998	158.851832	-88.169563	-27.321927
21665	9.760931	0.037738	-0.316824	0.029923	0.044025	-0.017447	158.332280	-88.187897	-26.782763
21666	9.725518	0.050227	-0.265533	0.036237	0.045685	-0.024907	157.768302	-88.213967	-26.203718
21667	9.765503	0.115161	-0.308578	0.035390	0.043171	-0.025440	157.097087	-88.229793	-25.509717
21668	9.778592	0.027359	-0.261317	0.033430	0.048310	-0.025087	156.323720	-88.248328	-24.710865
21669	9.853105	0.058053	-0.219682	0.030892	0.038266	-0.021400	155.730376	-88.261995	-24.097390
21670	9.834135	0.044720	-0.213991	0.029967	0.044042	-0.017482	155.296281	-88.282324	-23.640660
21671	9.849008	-0.012150	-0.211154	0.021145	0.036791	-0.005226	154.971816	-88.298845	-23.301771
21672	9.841063	0.005720	-0.141200	0.012580	0.035742	-0.007954	154.728728	-88.317554	-23.047044
21673	9.908461	-0.006218	-0.198731	0.012860	0.023079	-0.004087	154.523681	-88.327185	-22.832374
21674	9.866388	-0.027460	-0.159907	0.005151	0.024546	-0.006293	154.378443	-88.344138	-22.675051
21675	9.887322	0.020284	-0.203804	-0.000430	0.012055	-0.001647	154.299737	-88.348690	-22.594405
21676	9.813023	-0.008012	-0.240426	-0.001659	0.006355	-0.004098	154.335390	-88.352991	-22.622846
21677	9.804645	0.082580	-0.228219	-0.004977	0.009633	-0.002863	154.252966	-88.356005	-22.541086
21678	9.791521	0.091294	-0.303304	0.000312	0.001219	-0.004450	154.273934	-88.350162	-22.550372
21679	9.711303	0.039356	-0.263501	-0.004177	0.000759	0.000712	154.332843	-88.349456	-22.609534
21680	9.806838	0.042524	-0.216509	-0.004196	0.003249	-0.004558	154.326758	-88.348571	-22.588529
21681	9.814929	0.026023	-0.282812	-0.003103	-0.001915	-0.010702	154.205119	-88.343644	-22.466454
21682	9.749874	0.080095	-0.179333	-0.004586	-0.006873	-0.002326	154.327639	-88.346625	-22.590709
21683	9.786758	0.011741	-0.391034	-0.002107	-0.005728	-0.008244	154.283236	-88.340388	-22.545359
21684	9.771077	0.055759	-0.171042	-0.002068	-0.001277	-0.007135	154.342403	-88.338660	-22.585805
21685	9.768359	0.088632	-0.269903	-0.003296	-0.006976	-0.009587	154.284658	-88.331455	-22.527783
21686	9.804403	0.005926	-0.262663	-0.003978	-0.011376	-0.007066	154.443385	-88.325270	-22.672285
21687	9.815337	0.039482	-0.198762	-0.000817	-0.005830	-0.015506	154.273754	-88.317203	-22.500900
21688	9.895457	0.093296	-0.240183	-0.003323	-0.028622	-0.017361	154.493053	-88.306386	-22.712355
21689	9.793434	0.059527	-0.299515	-0.002390	-0.017200	-0.014620	154.435200	-88.292720	-22.653691
21690	9.728233	0.032488	-0.230503	-0.003628	-0.029841	-0.012915	154.675586	-88.279610	-22.882828
21691	9.714932	0.042359	-0.308605	-0.003946	-0.021627	-0.017894	154.596870	-88.262889	-22.804180
21692	9.581335	0.092172	-0.321655	-0.004288	-0.027298	-0.014556	154.673907	-88.250397	-22.863176
21693	9.544352	0.086340	-0.451507	-0.002437	-0.004456	-0.009066	154.608667	-88.244767	-22.797166
21694	9.619309	0.124404	-0.326260	-0.004501	0.008969	-0.004262	154.622761	-88.247183	-22.793703
21695	9.633752	0.139582	-0.380865	0.001147	0.020933	0.002743	154.555569	-88.257592	-22.723675
21696	9.706286	0.053860	-0.329947	-0.001995	0.022327	0.007025	154.752732	-88.275567	-22.910529
21697	9.789306	0.073445	-0.268586	-0.007467	0.032618	0.005572	154.634160	-88.292756	-22.794026
21698	9.755374	0.033909	-0.295816	-0.003513	0.022350	0.004861	154.860654	-88.310286	-23.012125
21699	9.760011	0.033664	-0.239233	-0.005034	0.022374	0.002698	154.778030	-88.321500	-22.930167
21700	9.833827	0.053549	-0.287378	-0.004090	0.016602	-0.001226	154.782524	-88.332143	-22.929802
21701	9.819404	0.038545	-0.229598	-0.003233	0.019122	-0.000702	154.666319	-88.340855	-22.813220
21702	9.806778	0.056006	-0.216150	-0.000980	0.010758	-0.006617	154.677114	-88.351082	-22.822798
21703	9.759264	0.098731	-0.375853	-0.007340	0.004642	-0.000279	154.688755	-88.352435	-22.836475
21704	9.730330	0.068431	-0.262509	0.000825	0.022207	0.001921	154.726375	-88.368033	-22.865932
21705	9.683736	0.046302	-0.278891	-0.004437	0.010930	0.002112	154.729765	-88.373253	-22.869693
21706	9.721823	0.076707	-0.280739	-0.002408	0.017191	-0.001291	154.707464	-88.382753	-22.826805
21707	9.753572	0.074813	-0.292270	-0.002003	0.024823	0.001749	154.584298	-88.395087	-22.702566
21708	9.847247	0.045667	-0.199419	-0.003263	0.014672	-0.001816	154.719821	-88.408278	-22.828851
21709	9.887543	0.035600	-0.190570	-0.002809	0.009561	-0.004332	154.617038	-88.411255	-22.725457
21710	9.957284	0.064677	-0.207248	-0.007289	-0.008100	-0.005839	154.852064	-88.414397	-22.942194
21711	9.970302	-0.024542	-0.165296	0.000525	-0.010909	-0.012232	154.784436	-88.404894	-22.872062
21712	9.925902	-0.004003	-0.142219	-0.006730	-0.038697	-0.019470	155.073536	-88.385672	-23.142935
21713	9.965251	0.052393	-0.280715	-0.002738	-0.035074	-0.028498	154.914312	-88.359721	-22.983023
21714	9.918140	-0.054322	-0.028965	-0.002707	-0.052263	-0.035175	155.049102	-88.327246	-23.100696
21715	9.850326	0.204130	-0.271416	-0.002532	-0.082728	-0.035768	155.156343	-88.274803	-23.207216
21716	9.555159	0.302105	-0.626307	0.001916	-0.064257	-0.014007	155.610983	-88.239262	-23.621486
21717	9.042485	0.313566	-0.641093	-0.000421	-0.013768	0.021373	156.139245	-88.236233	-24.148011
21718	8.816368	0.160185	-0.663876	-0.001817	0.047335	0.039244	156.707973	-88.276191	-24.688600
21719	8.659123	0.179620	-0.809590	-0.003458	0.073650	0.068456	157.433080	-88.329501	-25.413778
21720	8.916422	-0.036778	-0.872978	-0.009577	0.212177	0.067360	157.354324	-88.458756	-25.284310
21721	9.789516	-0.167183	0.149240	-0.009681	0.217135	0.047305	156.499016	-88.583024	-24.432013
21722	10.629431	-0.096719	0.056111	-0.000172	0.137244	0.011942	155.673216	-88.661466	-23.549765
21723	11.199012	-0.329476	0.562383	-0.009805	0.121943	-0.029636	153.776417	-88.716685	-21.655843
21724	11.340537	-0.127972	0.785240	-0.004788	-0.048566	-0.052811	153.476277	-88.688866	-21.340562
21725	10.811275	0.075527	0.026939	-0.001578	-0.148425	-0.064033	153.764928	-88.595757	-21.627968
21726	10.091358	0.032643	-0.086802	0.001215	-0.188514	-0.069743	154.357544	-88.483245	-22.158334
21727	9.560460	0.123988	-0.390218	-0.005738	-0.172371	-0.063723	154.769920	-88.377734	-22.571930
21728	9.144127	0.086668	-0.536361	0.007070	-0.176482	-0.062872	155.445521	-88.274330	-23.170353
21729	9.227894	0.144620	-0.534424	-0.001653	-0.101287	-0.054735	155.366547	-88.207859	-23.090037
21730	9.264305	0.156458	-0.415435	-0.000583	-0.100639	-0.051190	155.511918	-88.146835	-23.192005
21731	9.503632	0.155043	-0.607174	-0.004605	-0.040161	-0.039026	155.241068	-88.115973	-22.921391
21732	9.784819	0.225959	-0.361097	-0.003232	-0.028603	-0.017409	155.322375	-88.102900	-22.913420
21733	9.968295	0.169430	-0.237753	-0.002341	-0.035523	-0.007460	155.518279	-88.082020	-23.108534
21734	10.069462	0.115192	-0.305655	-0.003990	-0.050002	0.000908	156.057909	-88.062672	-23.563361
21735	10.012757	0.054192	-0.086569	-0.004493	-0.053790	0.001195	156.495981	-88.034149	-24.002039
21736	9.951138	-0.154835	-0.208807	-0.008504	-0.094343	-0.007338	157.166699	-87.987993	-24.565281
21737	9.947081	-0.145111	-0.185103	-0.021274	-0.096611	-0.015730	157.574761	-87.932845	-24.983584
21738	9.949375	-0.102056	-0.152031	-0.029578	-0.114235	-0.027394	158.083836	-87.876239	-25.405316
21739	9.911353	-0.024538	-0.259718	-0.032898	-0.135686	-0.026511	158.505492	-87.797830	-25.843945
21740	9.824950	0.103560	-0.440247	-0.044458	-0.128968	-0.017430	159.147842	-87.729342	-26.293515
21741	9.632593	0.074143	-0.412367	-0.047112	-0.122454	-0.004828	159.718834	-87.662104	-26.889777
21742	9.409479	0.101604	-0.544863	-0.055327	-0.114563	0.004139	160.549028	-87.607902	-27.761840
21743	9.225005	0.109811	-0.755444	-0.058533	-0.080184	0.013296	161.092544	-87.566430	-28.337213
21744	9.214410	0.109769	-0.528863	-0.066086	-0.025410	0.024712	161.724491	-87.563130	-28.888473
21745	9.307365	0.257455	-0.595398	-0.055808	-0.039582	0.029177	162.276664	-87.546142	-29.470969
21746	9.295164	0.572313	-1.000737	-0.040998	0.002543	0.036810	162.949160	-87.558861	-30.128662
21747	9.162572	0.323866	-0.841743	-0.026279	0.083279	0.036622	163.128576	-87.610036	-30.321137
21748	9.151007	0.151875	-0.417439	0.001346	0.065945	0.011984	163.183169	-87.652431	-30.183909
21749	9.472018	-0.159240	-0.672502	0.000698	0.094403	-0.003112	162.802021	-87.703081	-29.799891
21750	10.065275	0.185675	-0.093289	0.000342	0.102634	-0.008068	162.622307	-87.763132	-29.594207
21751	10.342540	0.268363	-0.451130	0.001489	0.057690	0.007461	162.527218	-87.795446	-29.496040
21752	10.330377	0.153379	-0.202293	0.006771	0.074158	0.028700	162.754600	-87.842958	-29.595760
21753	9.970324	-0.140192	-0.164058	-0.001610	0.035092	0.031619	163.114503	-87.866999	-29.954693
21754	9.715452	-0.039738	-0.324060	-0.003937	0.011003	0.021041	163.556631	-87.878014	-30.278447
21755	9.644928	0.027726	-0.490886	-0.005229	0.026170	0.006176	163.587586	-87.892891	-30.310272
21756	9.498288	-0.119176	-0.289235	-0.001150	0.019040	-0.002079	163.687210	-87.905948	-30.335961
21757	9.748668	0.072456	-0.342967	-0.003078	0.015150	-0.026453	163.278035	-87.909483	-29.926146
21758	10.169174	0.133557	-0.380867	-0.003169	0.000629	-0.015971	163.150998	-87.909187	-29.647643
21759	10.073263	0.188819	-0.261494	-0.003545	0.012108	-0.005904	163.062907	-87.914396	-29.559407
21760	9.916563	0.067010	-0.302298	0.002651	-0.012117	0.000109	163.353239	-87.911028	-29.710256
21761	9.674113	0.047122	-0.380495	-0.001872	-0.025936	0.001891	163.554254	-87.896657	-29.910374
21762	9.422825	0.036070	-0.479374	-0.002733	-0.005660	-0.004637	163.857447	-87.894377	-30.201949
21763	9.430370	0.020004	-0.546139	-0.000603	0.001227	-0.010243	163.757324	-87.892979	-30.099985
21764	9.584482	0.078378	-0.416704	-0.000786	0.018958	-0.015145	163.630736	-87.902684	-29.903662
21765	9.814418	0.140629	-0.457375	-0.001863	0.028538	-0.007834	163.444351	-87.916683	-29.716116
21766	9.924279	0.135228	-0.333250	-0.004604	0.026132	0.002538	163.605563	-87.934068	-29.819883
21767	9.968498	0.034836	-0.389987	-0.002104	0.024795	0.001873	163.582346	-87.947611	-29.795775
21768	9.772847	0.093321	-0.282247	0.002184	0.012077	0.015798	163.979509	-87.958210	-30.116690
21769	9.634107	0.058701	-0.378052	-0.006414	0.013528	0.007822	164.098906	-87.966504	-30.237762
21770	9.687086	-0.050308	-0.415014	-0.000003	0.011398	-0.002999	164.217873	-87.974691	-30.237139
21771	9.698510	0.063704	-0.315356	-0.005021	0.021027	-0.005804	164.093749	-87.984997	-30.113752
21772	9.884202	0.062844	-0.363981	-0.001272	0.003774	-0.011870	164.012310	-87.985335	-30.009470
21773	9.986391	0.099305	-0.307477	0.000063	-0.005761	-0.009749	163.948734	-87.980260	-29.943767
21774	9.956159	0.134250	-0.337791	-0.002562	-0.000598	-0.005731	164.064540	-87.980977	-29.918668
21775	9.842387	0.042952	-0.329087	-0.002766	-0.025947	-0.003903	164.180030	-87.965714	-30.033766
21776	9.704694	0.018086	-0.340751	-0.002937	-0.019611	-0.005810	164.395363	-87.955587	-30.166564
21777	9.622680	0.031338	-0.444915	0.001510	-0.023566	-0.012119	164.373553	-87.940368	-30.141835
21778	9.661680	0.071512	-0.362413	-0.003364	-0.013319	-0.017148	164.262686	-87.930630	-29.929234
21779	9.776460	0.010318	-0.352609	-0.002729	-0.013354	-0.020785	164.064398	-87.919686	-29.730338
21780	9.878700	0.153552	-0.396494	-0.000722	-0.029877	-0.018175	164.075248	-87.901175	-29.653540
21781	9.896255	0.137737	-0.356369	-0.005454	-0.011320	-0.009278	164.042708	-87.893158	-29.622067
21782	9.827990	0.060655	-0.418411	0.003209	-0.034368	-0.009197	164.204106	-87.873071	-29.721923
21783	9.673866	0.061255	-0.384727	-0.009104	-0.018182	-0.005832	164.249233	-87.861816	-29.770262
21784	9.653543	0.038491	-0.472861	0.000391	-0.027314	-0.008216	164.374522	-87.845468	-29.850658
21785	9.656056	0.055940	-0.299970	-0.004024	-0.022167	-0.015784	164.292422	-87.830474	-29.768768
21786	9.804762	0.082370	-0.523976	-0.002532	-0.015241	-0.017754	164.212382	-87.819325	-29.616636
21787	9.871787	0.105039	-0.290800	-0.000480	-0.022876	-0.012882	164.179110	-87.804388	-29.581567
21788	9.842539	0.091313	-0.400258	-0.001123	-0.027284	-0.010381	164.211893	-87.788571	-29.452339
21789	9.800595	0.094493	-0.497999	-0.000305	-0.033652	-0.012119	164.233048	-87.767818	-29.471627
21790	9.698657	0.011296	-0.293656	-0.002119	-0.014580	-0.010549	164.366228	-87.757391	-29.673743
21791	9.785375	0.130513	-0.370733	-0.003214	-0.057698	-0.019082	164.381272	-87.722296	-29.688599
21792	9.547443	0.054666	-0.561259	-0.002374	-0.034899	-0.019270	164.302414	-87.700204	-29.507774
21793	9.673798	0.025611	-0.488123	-0.003014	-0.014584	-0.016348	164.189943	-87.689314	-29.394891
21794	9.735627	0.073034	-0.441154	-0.001172	-0.029210	-0.016791	164.198053	-87.671570	-29.286113
21795	9.688759	0.133937	-0.427595	-0.003154	-0.015203	-0.014125	164.119820	-87.660690	-29.207582
21796	9.758015	0.082844	-0.480129	-0.001290	-0.020944	-0.012295	164.169780	-87.647214	-29.221255
21797	9.669685	0.120971	-0.428996	-0.000775	-0.008271	-0.010297	164.118831	-87.640759	-29.168675
21798	9.689588	0.088274	-0.509081	-0.001420	-0.017121	-0.008933	164.036891	-87.628961	-29.036568
21799	9.707409	0.071902	-0.467866	-0.000414	-0.000659	-0.007211	163.998562	-87.627179	-28.996408
21800	9.715313	0.031470	-0.403172	-0.003409	-0.003115	-0.006263	163.967326	-87.623927	-28.919967
21801	9.772997	0.110932	-0.452613	-0.000624	-0.003209	-0.011385	163.883338	-87.620078	-28.834233
21802	9.744138	0.072596	-0.428100	-0.006943	0.002033	-0.008026	163.879838	-87.619285	-28.830283
21803	9.776645	0.104302	-0.486108	-0.002577	-0.005040	-0.006867	163.861932	-87.615145	-28.811810
21804	9.722565	0.099277	-0.436978	-0.001866	0.005741	-0.001830	163.908198	-87.616918	-28.879374
21805	9.683234	0.060572	-0.520343	-0.003528	0.009590	-0.000624	163.916587	-87.621823	-28.887767
21806	9.681160	0.077287	-0.398752	-0.002562	0.003844	-0.004591	163.948633	-87.621309	-29.029154
21807	9.755288	0.049699	-0.525555	-0.002600	0.019680	-0.006438	163.841905	-87.630842	-28.921813
21808	9.804130	0.056433	-0.288296	-0.004798	-0.006910	-0.011786	163.786010	-87.624082	-28.879167
21809	9.863925	0.119780	-0.458446	-0.005474	0.004518	-0.011132	163.673546	-87.624508	-28.767736
21810	9.838659	0.154490	-0.433870	-0.005075	-0.003708	-0.006198	163.664332	-87.620692	-28.705501
21811	9.765771	0.052708	-0.416875	-0.001884	-0.007584	-0.005246	163.678830	-87.615406	-28.719074
21812	9.636585	0.043331	-0.536158	-0.002764	0.005736	-0.007628	163.626558	-87.615976	-28.700598
21813	9.687960	0.090790	-0.256046	-0.002300	-0.012682	-0.013598	163.550774	-87.606535	-28.624055
21814	9.715096	0.123146	-0.709691	-0.003421	-0.016439	-0.009683	163.613538	-87.595332	-28.734874
21815	9.729350	0.115359	-0.294107	-0.005662	0.019735	-0.010751	163.448381	-87.604164	-28.570817
21816	9.758703	0.131017	-0.526992	0.004643	-0.014714	-0.005571	163.542898	-87.594581	-28.656193
21817	9.694711	0.101658	-0.454748	-0.005186	0.022320	0.002863	163.546675	-87.607045	-28.660942
21818	9.703733	0.093070	-0.432010	-0.002551	0.012727	-0.002313	163.585393	-87.613270	-28.717784
21819	9.701243	0.052611	-0.474719	-0.001861	0.010182	-0.000691	163.591824	-87.618489	-28.723286
21820	9.744286	0.083386	-0.422729	-0.002407	0.013347	-0.004539	163.586327	-87.624940	-28.722945
21821	9.825227	0.063778	-0.407927	-0.003254	0.001947	-0.007354	163.535995	-87.624557	-28.672441
21822	9.921311	0.068207	-0.362121	-0.002624	0.001916	-0.010994	163.522339	-87.623703	-28.703073
21823	9.899700	0.094737	-0.371392	-0.001254	-0.012056	-0.010028	163.493021	-87.615194	-28.672459
21824	9.870833	0.056171	-0.348429	-0.002867	-0.019604	-0.005838	163.607256	-87.602699	-28.824935
21825	9.776587	0.118784	-0.483951	0.001726	-0.027361	-0.015534	163.566855	-87.584888	-28.781520
21826	9.656815	0.076805	-0.453286	-0.003215	-0.027213	-0.008930	163.693017	-87.567678	-28.927634
21827	9.688204	0.076517	-0.469650	-0.000627	-0.020968	-0.015952	163.622064	-87.553316	-28.854974
21828	9.661181	0.103606	-0.534939	-0.001744	-0.024726	-0.012038	163.645948	-87.536531	-28.900501
21829	9.676288	0.128436	-0.504680	-0.003119	-0.001873	-0.010719	163.569809	-87.533506	-28.824078
21830	9.730993	0.110299	-0.423147	-0.001186	-0.014568	-0.004770	163.707570	-87.525595	-29.014310
21831	9.711357	0.120089	-0.553571	-0.001938	-0.000628	-0.009372	163.645165	-87.523483	-28.950963
21832	9.678955	0.089598	-0.495518	0.000630	0.004410	-0.002500	163.717934	-87.525216	-29.028882
21833	9.709582	0.055936	-0.465076	-0.006594	0.009640	-0.004934	163.671262	-87.529467	-28.983946
21834	9.729179	0.047439	-0.334977	-0.002079	-0.001249	-0.007146	163.669994	-87.525476	-29.007562
21835	9.879497	0.114759	-0.514315	-0.004299	-0.007559	-0.013208	163.583809	-87.518928	-28.921754
21836	9.947617	0.055671	-0.313323	-0.004786	-0.002467	-0.010652	163.542763	-87.515093	-28.899051
21837	9.886294	0.124930	-0.375300	-0.000345	-0.047573	-0.013369	163.606321	-87.486525	-28.960863
21838	9.809171	0.113337	-0.633514	-0.002079	-0.001248	-0.007147	163.601625	-87.483653	-28.977451
21839	9.670402	0.022594	-0.215916	-0.002497	-0.029754	-0.007321	163.672857	-87.465854	-29.048181
21840	9.656990	0.040876	-0.547087	-0.005750	-0.041127	-0.018102	163.685723	-87.439506	-29.073531
21841	9.680948	0.114689	-0.672425	-0.003950	-0.013269	-0.013543	163.619346	-87.429766	-29.007349
21842	9.696884	0.139389	-0.301973	-0.005759	-0.010045	-0.010105	163.631651	-87.421566	-29.060183
21843	9.733873	0.090014	-0.680607	-0.002206	-0.024068	-0.010637	163.641004	-87.406356	-29.068803
21844	9.745292	0.147263	-0.408669	-0.001730	-0.006959	-0.007480	163.660911	-87.399953	-29.109521
21845	9.783188	0.097372	-0.446228	-0.004233	-0.005632	-0.006805	163.650005	-87.395495	-29.099022
21846	9.772261	0.098432	-0.556853	0.002599	-0.034920	-0.003421	163.803029	-87.373439	-29.263551
21847	9.723702	0.092878	-0.454338	-0.006125	0.013425	-0.005195	163.743704	-87.379719	-29.205668
21848	9.695776	0.086580	-0.474698	0.000242	-0.037410	-0.006118	163.894570	-87.358119	-29.373298
21849	9.663122	0.113263	-0.593847	-0.004098	-0.000571	-0.007887	163.853363	-87.356275	-29.332389
21850	9.700007	0.112139	-0.553963	0.000979	-0.005740	-0.003978	163.909026	-87.350753	-29.388846
21851	9.629098	0.099490	-0.415652	-0.001734	-0.002519	-0.006337	163.894475	-87.348080	-29.373260
21852	9.684764	0.089442	-0.585565	-0.004595	0.008958	-0.004181	163.888667	-87.350541	-29.370946
21853	9.652272	0.140129	-0.494262	0.002165	-0.008933	-0.003776	163.928844	-87.344739	-29.407909
21854	9.702929	0.072913	-0.542029	-0.006019	0.040682	-0.000552	163.892148	-87.369142	-29.387763
21855	9.660676	0.099510	-0.426982	0.003360	-0.021006	-0.005862	163.950064	-87.356373	-29.441798
21856	9.738919	0.096632	-0.630640	-0.010964	0.055353	-0.004402	163.801782	-87.384913	-29.310818
21857	9.784151	0.078631	-0.314541	-0.000895	-0.004441	-0.006945	163.787475	-87.381090	-29.294986
21858	9.819015	0.126918	-0.536955	-0.000142	0.009472	-0.009381	163.720877	-87.382574	-29.241261
21859	9.903754	0.099306	-0.554703	-0.003984	0.026689	-0.003250	163.639639	-87.396456	-29.160199
21860	9.804021	0.071510	-0.182373	0.000301	-0.016514	-0.009030	163.689538	-87.384954	-29.213369
21861	9.828980	0.128733	-0.766788	-0.003262	0.001947	-0.007352	163.646842	-87.384571	-29.170467
21862	9.758095	0.083050	-0.244237	-0.003194	-0.000569	-0.002089	163.690932	-87.380656	-29.216582
21863	9.729325	0.077128	-0.604112	-0.001229	-0.012047	-0.010045	163.666416	-87.372136	-29.190711
21864	9.692312	0.103814	-0.436204	-0.001735	0.001921	-0.005194	163.720533	-87.373797	-29.241436
21865	9.632709	0.155694	-0.616714	0.001882	-0.005738	0.001823	163.818023	-87.370658	-29.335903
21866	9.674671	0.039718	-0.510272	-0.008031	0.036920	-0.002441	163.747921	-87.390225	-29.271427
21867	9.675325	0.096987	-0.344822	0.000867	-0.024119	-0.006330	163.811547	-87.375670	-29.332574
21868	9.798555	0.108636	-0.619717	-0.005387	0.036217	-0.005344	163.715136	-87.395110	-29.247661
21869	9.819939	0.164954	-0.576517	0.005228	-0.013425	-0.000603	163.813229	-87.387360	-29.340810
21870	9.822876	0.091375	-0.180226	-0.008461	0.054029	-0.005085	163.647326	-87.414606	-29.185980
21871	9.737693	0.096168	-0.709459	0.008543	-0.055328	-0.003550	163.859915	-87.383332	-29.391835
21872	9.666392	0.107323	-0.362788	-0.007206	0.043878	-0.000762	163.764822	-87.405609	-29.309064
21873	9.673223	0.034354	-0.592784	0.000649	-0.013346	-0.007077	163.782018	-87.396860	-29.323858
21874	9.643977	0.101115	-0.325877	-0.003144	0.020328	-0.005002	163.736097	-87.405135	-29.284394
21875	9.784494	0.120233	-0.689604	-0.000065	0.002517	-0.005264	163.718964	-87.405399	-29.265230
21876	9.695130	0.148648	-0.383363	-0.001269	0.019030	-0.002034	163.721059	-87.415568	-29.274670
21877	9.712785	0.074954	-0.504117	-0.002800	0.023497	-0.003050	163.654416	-87.427727	-29.207515
21878	9.700156	0.091949	-0.490665	0.000000	0.000000	0.000000	163.697242	-87.428496	-29.251789
21879	9.688352	0.141623	-0.520440	-0.005030	0.034948	-0.004542	163.569123	-87.446710	-29.124375
21880	9.748281	0.065774	-0.545686	-0.001072	0.026016	0.003288	163.603991	-87.459291	-29.166193
21881	9.711095	0.091576	-0.374878	-0.001615	0.024744	-0.001705	163.548676	-87.472347	-29.109696
21882	9.787044	0.129230	-0.587645	-0.005449	0.033082	0.002131	163.549563	-87.487576	-29.122294
21883	9.762496	0.138036	-0.428854	-0.001897	0.023500	0.002746	163.553957	-87.500662	-29.125715
21884	9.759357	0.064578	-0.426596	-0.004399	0.024826	0.003417	163.576373	-87.511265	-29.162709
21885	9.791875	0.095399	-0.481773	-0.002388	0.028590	0.005303	163.594132	-87.527554	-29.179793
21886	9.764792	0.063512	-0.367448	0.000962	0.016462	0.001740	163.635654	-87.533113	-29.238360
21887	9.768045	0.079794	-0.530419	-0.003900	0.019737	0.000855	163.629403	-87.543806	-29.232278
21888	9.837851	0.084832	-0.414670	-0.001591	0.015867	-0.003997	163.603239	-87.549763	-29.216300
21889	9.859562	0.059711	-0.404916	-0.005208	0.004547	-0.001697	163.620791	-87.551691	-29.234797
21890	9.851541	0.101284	-0.469048	-0.002418	0.008908	-0.005679	163.593108	-87.551676	-29.218179
21891	9.812484	0.119734	-0.388180	-0.001373	-0.003790	-0.005531	163.595172	-87.548390	-29.218974
21892	9.782348	0.072873	-0.451914	-0.003872	-0.006905	-0.006003	163.637167	-87.542206	-29.264607
21893	9.750775	0.074983	-0.438629	-0.001223	-0.007607	-0.008901	163.610608	-87.536276	-29.236665
21894	9.716332	0.118272	-0.435828	-0.000586	-0.007633	-0.012543	163.567565	-87.526360	-29.202757
21895	9.713950	0.078661	-0.480545	-0.004701	-0.009424	-0.006542	163.576155	-87.519803	-29.211990
21896	9.723778	0.103482	-0.503518	-0.003937	0.004495	-0.008982	163.533756	-87.518053	-29.175652
21897	9.747776	0.119360	-0.451127	-0.001020	-0.009503	-0.005864	163.553465	-87.511558	-29.193900
21898	9.745430	0.079480	-0.495232	-0.004428	0.005144	-0.007566	163.521602	-87.509211	-29.173845
21899	9.728072	0.072646	-0.405829	-0.000880	-0.004439	-0.006948	163.508881	-87.505312	-29.159552
21900	9.740179	0.081130	-0.550093	-0.000188	-0.006984	-0.005326	163.547037	-87.495662	-29.210645
21901	9.769411	0.096490	-0.443026	-0.002422	0.008908	-0.005677	163.499853	-87.499290	-29.162740
21902	9.719072	0.082795	-0.427278	-0.002000	-0.008205	-0.003033	163.579702	-87.493722	-29.241047
21903	9.746215	0.114968	-0.539998	0.001279	-0.004490	-0.008430	163.549928	-87.489543	-29.208450
21904	9.704874	0.092971	-0.502705	-0.003122	0.015894	-0.006156	163.507522	-87.494484	-29.169414
21905	9.737015	0.067373	-0.384858	0.001335	-0.007010	-0.003165	163.553323	-87.489769	-29.212429
21906	9.791917	0.106653	-0.478545	-0.001065	-0.011422	-0.012274	163.505197	-87.473827	-29.186825
21907	9.767883	0.092347	-0.531358	-0.002077	0.007636	-0.004866	163.473526	-87.476861	-29.154253
21908	9.765588	0.109059	-0.410160	-0.003382	-0.003114	-0.006278	163.484650	-87.468597	-29.178787
21909	9.718996	0.087425	-0.428099	-0.000733	-0.003814	-0.009176	163.442567	-87.464623	-29.135022
21910	9.727317	0.104459	-0.539045	-0.001216	-0.007606	-0.008904	163.440138	-87.455094	-29.138698
21911	9.722702	0.080692	-0.462242	-0.003882	0.001974	-0.003717	163.442705	-87.455181	-29.141435
21912	9.708521	0.090099	-0.537167	-0.001587	0.006987	-0.006282	163.403188	-87.450055	-29.122922
21913	9.736923	0.073201	-0.386124	-0.007118	-0.000516	-0.012223	163.308251	-87.447358	-29.029919
21914	9.755071	0.114384	-0.519453	0.000791	-0.003840	-0.007016	163.325172	-87.437326	-29.058844
21915	9.736287	0.099513	-0.517497	-0.002425	0.008908	-0.005677	163.279026	-87.440856	-29.011983
21916	9.792480	0.089219	-0.346521	-0.002771	0.010181	-0.006488	163.253096	-87.443203	-28.981998
21917	9.813575	0.089297	-0.469325	-0.001348	-0.012669	-0.007823	163.260889	-87.434535	-28.988511
21918	9.800792	0.106844	-0.457680	-0.000393	-0.000646	-0.007222	163.268135	-87.426420	-29.005731
21919	9.799940	0.075023	-0.414428	-0.000373	-0.009525	-0.009512	163.244423	-87.419180	-28.980141
21920	9.745160	0.094699	-0.497852	-0.003359	-0.011994	-0.008569	163.261796	-87.406080	-29.005874
21921	9.742146	0.136396	-0.509323	-0.002530	-0.009475	-0.008030	163.254811	-87.399100	-28.998267
21922	9.691009	0.090196	-0.450187	-0.000057	0.002521	-0.005266	163.261882	-87.396161	-29.008244
21923	9.736073	0.105279	-0.520368	-0.004699	-0.004985	-0.005402	163.269101	-87.392070	-29.016101
21924	9.690937	0.091462	-0.451493	-0.002160	-0.019626	-0.009511	163.302581	-87.376817	-29.053444
21925	9.760795	0.097856	-0.677539	-0.005304	0.020382	-0.003523	163.240494	-87.386949	-28.992274
21926	9.723865	0.041854	-0.202100	-0.000862	-0.008876	-0.008097	163.241758	-87.374386	-29.008775
21927	9.775782	0.123127	-0.646193	-0.004396	-0.008175	-0.011004	163.193751	-87.367596	-28.961186
21928	9.778720	0.139739	-0.471419	-0.003378	-0.003114	-0.006280	163.190762	-87.360169	-28.971760
21929	9.749386	0.068168	-0.403291	-0.003245	0.001950	-0.007362	163.150607	-87.359523	-28.931381
21930	9.702870	0.103806	-0.596360	0.000662	-0.008902	-0.005937	163.192102	-87.346855	-28.982975
21931	9.663062	0.089427	-0.471977	-0.004097	0.008310	-0.005609	163.149639	-87.349970	-28.940774
21932	9.666835	0.081854	-0.504802	-0.003245	0.001950	-0.007362	163.119436	-87.345761	-28.921171
21933	9.726913	0.120937	-0.542881	-0.002765	0.005742	-0.007633	163.062965	-87.347119	-28.864191
21934	9.763712	0.119978	-0.501844	-0.002431	0.008909	-0.005676	163.038864	-87.351298	-28.829874
21935	9.762991	0.087650	-0.457018	-0.003081	0.013370	-0.000885	163.034468	-87.357966	-28.825215
21936	9.781024	0.070761	-0.414049	-0.003402	0.005765	-0.003989	163.032269	-87.354334	-28.841640
21937	9.754835	0.129461	-0.520333	0.000625	0.004417	-0.002498	163.043253	-87.355810	-28.850258
21938	9.739095	0.073330	-0.507507	-0.003414	0.010204	-0.002843	163.072508	-87.355088	-28.885495
21939	9.768342	0.088383	-0.399561	-0.001401	0.009530	-0.002098	163.068745	-87.359419	-28.880504
21940	9.757927	0.089567	-0.507837	-0.002055	-0.001242	-0.007158	163.059608	-87.350875	-28.887697
21941	9.754144	0.098280	-0.474537	-0.003533	0.000700	-0.002908	163.076886	-87.350214	-28.904997
21942	9.767718	0.114536	-0.530070	-0.002921	0.009557	-0.004260	163.086215	-87.351113	-28.912059
21943	9.777368	0.081813	-0.377219	-0.001909	-0.000617	-0.009386	163.032545	-87.348641	-28.857398
21944	9.752738	0.092235	-0.561374	-0.005879	-0.001793	-0.005611	163.048951	-87.340360	-28.885308
21945	9.722633	0.101916	-0.459509	-0.004921	0.005791	-0.006152	163.008888	-87.341924	-28.845997
21946	9.717435	0.102881	-0.513537	0.000785	0.000604	-0.005873	163.020239	-87.335461	-28.864232
21947	9.735410	0.086265	-0.471564	-0.002200	-0.001867	-0.004931	163.023764	-87.333018	-28.866995
21948	9.739987	0.111310	-0.548206	-0.002776	0.010182	-0.006488	163.021936	-87.337506	-28.848370
21949	9.713668	0.112635	-0.479491	-0.002346	-0.002493	-0.002704	163.054001	-87.335095	-28.879778
21950	9.667176	0.090529	-0.496724	-0.003268	0.010830	-0.005071	163.048978	-87.335036	-28.882268
21951	9.758026	0.095604	-0.504820	-0.002893	0.000678	-0.006554	163.024091	-87.333708	-28.856971
21952	9.735515	0.088653	-0.468939	-0.002603	0.017163	-0.001156	163.017228	-87.334773	-28.874000
21953	9.789669	0.095028	-0.516756	-0.000068	0.006964	-0.004120	163.000001	-87.337275	-28.854755
21954	9.790286	0.070771	-0.384839	-0.001919	0.003824	-0.008241	162.968624	-87.333716	-28.832503
21955	9.786697	0.137100	-0.526027	-0.002574	0.008284	-0.003450	162.953089	-87.337044	-28.816392
21956	9.744603	0.081976	-0.445405	-0.001357	-0.003787	-0.005538	162.972321	-87.328815	-28.850201
21957	9.722826	0.107896	-0.454020	-0.004918	0.005791	-0.006154	162.932695	-87.330311	-28.811324
21958	9.733479	0.051381	-0.509899	-0.001078	0.001905	-0.008848	162.909834	-87.324458	-28.794764
21959	9.741590	0.124913	-0.455069	-0.002065	0.003198	-0.006014	162.882943	-87.324544	-28.766996
21960	9.789747	0.099197	-0.514484	-0.003531	0.000699	-0.002910	162.944593	-87.320580	-28.830969
21961	9.745400	0.117825	-0.488130	-0.002249	0.000658	-0.010200	162.877912	-87.318562	-28.763469
21962	9.776166	0.084642	-0.458302	0.000294	0.001252	-0.004456	162.891367	-87.313664	-28.783272
21963	9.736392	0.127632	-0.509272	-0.000515	-0.005706	-0.006145	162.896034	-87.308832	-28.786210
21964	9.735614	0.095376	-0.465551	-0.005559	0.005811	-0.002509	162.929639	-87.308105	-28.824908
21965	9.717647	0.112942	-0.507360	-0.004208	-0.001194	-0.005680	162.921464	-87.305816	-28.817109
21966	9.671165	0.090955	-0.524995	-0.001718	0.001926	-0.005203	162.945517	-87.304021	-28.836400
21967	9.726657	0.105358	-0.485675	-0.005428	0.010877	-0.003590	162.917894	-87.308692	-28.809829
21968	9.739494	0.089132	-0.497231	-0.002411	0.004472	-0.006826	162.916150	-87.306005	-28.806474
21969	9.748502	0.081073	-0.475645	-0.005905	0.007084	-0.003321	162.905003	-87.308635	-28.796667
21970	9.758278	0.105595	-0.497922	0.000295	0.001253	-0.004456	162.956345	-87.305740	-28.846770
21971	9.782193	0.121214	-0.444834	-0.003745	0.007038	-0.004803	162.929508	-87.308092	-28.820008
21972	9.757538	0.073825	-0.453306	-0.004223	0.003245	-0.004533	162.918819	-87.303470	-28.828330
21973	9.786036	0.113993	-0.477581	-0.002194	-0.001867	-0.004934	162.923134	-87.300909	-28.831877
21974	9.771137	0.090792	-0.508899	-0.002427	0.008912	-0.005678	162.894406	-87.301926	-28.803262
21975	9.744732	0.092187	-0.440550	-0.001336	-0.008225	-0.006688	162.901585	-87.295582	-28.809191
21976	9.730573	0.101644	-0.516280	-0.003530	0.000699	-0.002911	162.952505	-87.292933	-28.857953
21977	9.726734	0.110385	-0.483008	-0.001551	-0.001886	-0.008580	162.915090	-87.289739	-28.819362
21978	9.720808	0.078798	-0.493618	-0.003728	0.002599	-0.005951	162.941436	-87.287908	-28.839554
21979	9.749298	0.119060	-0.517762	-0.003381	0.001326	-0.005140	162.931520	-87.287048	-28.829535
21980	9.748542	0.086943	-0.473780	-0.002410	0.004473	-0.006826	162.915591	-87.279204	-28.833822
21981	9.739572	0.096086	-0.494391	-0.002557	0.003846	-0.004598	162.903541	-87.279793	-28.821188
21982	9.785268	0.086419	-0.432737	-0.003381	0.001326	-0.005140	162.904528	-87.276984	-28.828036
21983	9.798865	0.102821	-0.488394	0.000278	0.005693	-0.003309	162.902410	-87.278798	-28.823730
21984	9.752415	0.080759	-0.506040	-0.000856	-0.004431	-0.006958	162.934081	-87.269100	-28.857345
21985	9.758302	0.113803	-0.495628	-0.004056	-0.000567	-0.007911	162.898851	-87.266697	-28.822367
21986	9.730574	0.107380	-0.515103	-0.004352	-0.001821	-0.003454	162.949759	-87.262154	-28.878357
21987	9.699011	0.108978	-0.501186	-0.005046	0.000725	-0.005077	162.942000	-87.260930	-28.871449
21988	9.711832	0.092857	-0.513490	-0.000379	-0.000638	-0.007228	162.966663	-87.259015	-28.880826
21989	9.734402	0.100860	-0.548316	-0.002557	0.003846	-0.004598	162.954971	-87.259584	-28.868548
21990	9.734973	0.076301	-0.416510	-0.005064	0.005164	-0.003928	162.975526	-87.257114	-28.901897
21991	9.767285	0.108543	-0.473935	-0.001894	-0.000611	-0.009393	162.925113	-87.254426	-28.850472
21992	9.730578	0.110728	-0.514311	-0.003528	0.000698	-0.002912	162.978460	-87.249505	-28.910930
21993	9.752403	0.085942	-0.505417	0.000098	0.003156	-0.007497	162.937828	-87.249189	-28.868150
21994	9.757554	0.086181	-0.450759	-0.002062	0.003200	-0.006016	162.920201	-87.241098	-28.874290
21995	9.721607	0.120996	-0.534640	-0.001368	0.000654	-0.004394	162.922859	-87.239913	-28.875693
21996	9.699048	0.114156	-0.499320	-0.001090	0.006348	-0.007702	162.888767	-87.235809	-28.852127
21997	9.742723	0.064140	-0.481317	-0.003399	0.005765	-0.003993	162.876998	-87.237476	-28.840253
21998	9.750632	0.137336	-0.426563	0.002329	-0.003855	-0.004859	162.892501	-87.224097	-28.894682
21999	9.719859	0.140068	-0.752190	-0.001576	0.013343	0.001282	162.915087	-87.230778	-28.916165
22000	9.631949	0.068137	-0.260112	-0.006510	0.023573	-0.003728	162.878686	-87.242439	-28.871739
22001	9.738539	0.098615	-0.575686	0.000101	0.003157	-0.007497	162.838233	-87.242063	-28.829148
22002	9.786219	0.129608	-0.469794	-0.003248	0.006393	-0.006222	162.816735	-87.241390	-28.813292
22003	9.839681	0.103628	-0.473485	-0.005340	0.024820	-0.002376	162.755010	-87.253730	-28.752532
22004	9.829961	0.079940	-0.450292	-0.000958	-0.013936	-0.007030	162.793514	-87.235872	-28.814894
22005	9.835818	0.112865	-0.439639	-0.006122	0.013422	-0.005216	162.739345	-87.241472	-28.762150
22006	9.793268	0.082748	-0.490972	0.002739	-0.018444	-0.007494	162.803342	-87.231604	-28.810917
22007	9.785457	0.099689	-0.425553	-0.003832	-0.006907	-0.006024	162.812798	-87.225948	-28.820564
22008	9.775188	0.101267	-0.535051	-0.002492	-0.009470	-0.008048	162.833866	-87.214897	-28.842578
22009	9.708116	0.112406	-0.475113	-0.003441	-0.017057	-0.007512	162.861906	-87.203423	-28.870609
22010	9.615986	0.100542	-0.555028	-0.003378	0.001326	-0.005143	162.866660	-87.196825	-28.895649
22011	9.615970	0.100922	-0.555235	-0.001147	-0.005686	-0.002504	162.912550	-87.192407	-28.940239
22012	9.593413	0.093804	-0.519924	-0.004115	0.012750	-0.004465	162.910655	-87.200754	-28.915933
22013	9.647617	0.100574	-0.567616	-0.000439	0.012681	-0.003781	162.879485	-87.206187	-28.882966
22014	9.698469	0.090358	-0.450369	-0.002471	0.017791	-0.003380	162.884840	-87.214244	-28.879325
22015	9.753463	0.129806	-0.540982	-0.006167	0.022299	-0.002917	162.826526	-87.225087	-28.822461
22016	9.802336	0.079016	-0.467274	-0.002619	0.017163	-0.001152	162.819138	-87.230242	-28.818336
22017	9.774739	0.071870	-0.484932	-0.002097	0.018426	0.003848	162.853007	-87.240101	-28.851436
22018	9.790383	0.128416	-0.495579	-0.000413	0.008243	-0.004932	162.821999	-87.233136	-28.864049
22019	9.770948	0.080525	-0.449271	-0.004109	0.012751	-0.004470	162.780190	-87.238456	-28.822545
22020	9.753058	0.098152	-0.490323	-0.002077	0.007641	-0.004870	162.788612	-87.240874	-28.824693
22021	9.724640	0.058808	-0.465393	-0.001730	0.006368	-0.004058	162.775253	-87.242770	-28.810308
22022	9.722307	0.132820	-0.518885	-0.004713	0.003889	-0.003122	162.846351	-87.245177	-28.859357
22023	9.740258	0.116177	-0.476236	-0.001925	0.008270	-0.007099	162.791734	-87.247605	-28.803766
22024	9.706812	0.077199	-0.505305	0.000583	0.013301	-0.000199	162.818828	-87.247762	-28.842266
22025	9.677193	0.118845	-0.446142	-0.004258	0.012123	-0.002242	162.804584	-87.253106	-28.828431
22026	9.694055	0.094305	-0.490529	-0.004604	0.013397	-0.003054	162.813633	-87.256506	-28.843470
22027	9.762329	0.091887	-0.462471	-0.002614	0.017165	-0.001156	162.794923	-87.264788	-28.824218
22028	9.768219	0.124454	-0.450181	-0.003283	0.015273	-0.003929	162.773759	-87.268207	-28.817513
22029	9.812755	0.107019	-0.475111	-0.003413	0.010205	-0.002849	162.759785	-87.272385	-28.803465
22030	9.852530	0.064876	-0.423272	-0.001748	0.010808	-0.002911	162.755975	-87.271743	-28.811647
22031	9.848596	0.073494	-0.389560	-0.007022	-0.003044	-0.006986	162.739651	-87.267956	-28.797320
22032	9.856458	0.057922	-0.456830	-0.000971	-0.009496	-0.005883	162.769516	-87.256382	-28.842655
22033	9.826670	0.100276	-0.400085	-0.005637	-0.014484	-0.011308	162.745281	-87.245590	-28.819623
22034	9.803656	0.118939	-0.498330	-0.000902	-0.022812	-0.009333	162.809678	-87.228364	-28.895006
22035	9.780916	0.112224	-0.465421	-0.003085	-0.018331	-0.006706	162.852261	-87.216241	-28.937406
22036	9.684953	0.108358	-0.513190	-0.001572	-0.018358	-0.004539	162.954223	-87.201862	-29.047341
22037	9.579257	0.080294	-0.538120	-0.002609	-0.014536	-0.006974	162.980162	-87.191762	-29.072801
22038	9.566311	0.097592	-0.526741	-0.004666	-0.004988	-0.005423	162.991643	-87.181452	-29.111416
22039	9.597892	0.097173	-0.540556	0.000581	0.006957	-0.007766	162.937155	-87.182980	-29.054531
22040	9.679788	0.111437	-0.569180	-0.002273	0.009546	-0.007910	162.895485	-87.186340	-29.014840
22041	9.762824	0.133187	-0.509787	-0.002447	0.013355	-0.004531	162.853213	-87.191914	-28.971932
22042	9.734478	0.093605	-0.484174	-0.003940	0.015287	-0.000278	162.894970	-87.200644	-29.009545
22043	9.775097	0.084111	-0.475678	-0.002598	0.012725	-0.002302	162.879666	-87.206253	-28.993723
22044	9.775146	0.084555	-0.474585	-0.004431	0.009587	-0.006432	162.839583	-87.210516	-28.958916
22045	9.811787	0.083656	-0.433332	-0.003241	0.006396	-0.006227	162.801622	-87.211998	-28.920794
22046	9.793885	0.101541	-0.474882	-0.001899	0.003834	-0.008250	162.771729	-87.206638	-28.914760
22047	9.771249	0.094443	-0.439930	-0.002484	-0.003124	-0.000484	162.831741	-87.203869	-28.974295
22048	9.725666	0.104986	-0.501659	-0.007364	-0.001771	-0.007800	162.812576	-87.199007	-28.965944
22049	9.670359	0.091462	-0.540657	-0.001013	-0.000617	-0.003586	162.829889	-87.197081	-28.981900
22050	9.638784	0.092958	-0.526365	-0.002422	0.008917	-0.005682	162.817536	-87.198793	-28.977399
22051	9.676201	0.124868	-0.528539	-0.003113	0.011465	-0.007306	162.750195	-87.202847	-28.909806
22052	9.735502	0.131446	-0.521671	-0.003290	0.015273	-0.003926	162.728507	-87.203820	-28.912829
22053	9.725845	0.107519	-0.497638	-0.005106	0.014040	-0.001636	162.714415	-87.210231	-28.899694
22054	9.766471	0.098124	-0.488962	-0.000459	0.017125	-0.002631	162.713236	-87.220252	-28.881572
22055	9.743886	0.090753	-0.452630	-0.006423	0.012162	-0.000765	162.714766	-87.225789	-28.884838
22056	9.806356	0.056080	-0.435551	0.001576	0.012016	-0.003030	162.705278	-87.229906	-28.883549
22057	9.816125	0.080791	-0.457394	-0.005720	0.003272	-0.006714	162.671243	-87.229564	-28.850819
22058	9.847738	0.080367	-0.470995	-0.001702	0.001931	-0.005211	162.704787	-87.226861	-28.883403
22059	9.830819	0.105677	-0.425578	-0.002151	-0.006303	-0.006095	162.713564	-87.221382	-28.891483
22060	9.794200	0.107870	-0.466912	-0.002126	-0.010741	-0.007245	162.760994	-87.214445	-28.927914
22061	9.734916	0.102413	-0.473468	-0.001460	-0.008850	-0.004471	162.797169	-87.207850	-28.963030
22062	9.688563	0.080085	-0.492195	-0.001958	-0.008207	-0.003054	162.907934	-87.205178	-29.056393
22063	9.639022	0.098695	-0.520931	0.000332	-0.003177	-0.005610	162.912535	-87.201503	-29.058864
22064	9.657673	0.115162	-0.522803	-0.000526	-0.003163	-0.011426	162.888467	-87.196074	-29.034197
22065	9.657675	0.115892	-0.522610	-0.005901	0.007079	-0.003332	162.879748	-87.198397	-29.026906
22066	9.697506	0.073869	-0.470995	-0.001255	0.010165	-0.004326	162.902607	-87.203635	-29.031503
22067	9.716231	0.089849	-0.471444	-0.002599	0.012726	-0.002303	162.887923	-87.209228	-29.016342
22068	9.766567	0.104795	-0.485657	-0.002099	0.012083	-0.003720	162.905982	-87.215923	-29.029900
22069	9.784519	0.088040	-0.442351	-0.002444	0.013357	-0.004533	162.864063	-87.221490	-28.987383
22070	9.816173	0.087614	-0.455086	0.001409	0.009484	-0.007222	162.849043	-87.226645	-28.969599
22071	9.847800	0.087404	-0.468437	-0.004374	0.000711	-0.008739	162.802514	-87.224580	-28.923579
22072	9.825129	0.080547	-0.433544	-0.002519	-0.000590	-0.005757	162.834247	-87.221238	-28.950014
22073	9.757705	0.116349	-0.504311	0.000553	-0.009520	-0.003720	162.882814	-87.214419	-28.996373
22074	9.698445	0.110590	-0.510517	-0.002328	-0.002495	-0.002715	162.950513	-87.210612	-29.072233
22075	9.639210	0.104865	-0.516225	-0.001355	0.000658	-0.004399	162.954975	-87.209248	-29.075530
22076	9.611607	0.098272	-0.535366	0.000436	0.006332	-0.005538	162.956805	-87.209156	-29.083575
22077	9.670892	0.104791	-0.528575	-0.002472	0.017796	-0.003382	162.912939	-87.217347	-29.039132
22078	9.670984	0.105237	-0.526793	-0.000653	0.019032	-0.005672	162.885524	-87.229390	-29.004207
22079	9.707627	0.104083	-0.484387	-0.005479	0.019752	-0.001301	162.856254	-87.239009	-28.976108
22080	9.807503	0.100684	-0.469478	-0.000987	0.022209	-0.000063	162.834666	-87.247326	-28.968474
22081	9.853055	0.090878	-0.405904	-0.002312	0.018429	-0.005615	162.762246	-87.255482	-28.895376
22082	9.906620	0.065093	-0.409565	-0.003414	0.010205	-0.002852	162.796919	-87.258455	-28.920264
22083	9.853125	0.091633	-0.404016	-0.001007	-0.000616	-0.003588	162.815693	-87.256528	-28.937708
22084	9.807663	0.102220	-0.465785	-0.003333	-0.003111	-0.006305	162.848501	-87.254568	-28.973340
22085	9.761378	0.080272	-0.484194	0.000176	-0.005708	-0.009804	162.815025	-87.248806	-28.937804
22086	9.707825	0.107362	-0.479697	-0.003651	-0.006276	-0.008268	162.816503	-87.241652	-28.950706
22087	9.698850	0.117006	-0.501315	0.000833	-0.005719	-0.013452	162.742351	-87.235261	-28.874079
22088	9.758046	0.124033	-0.495820	-0.001697	0.001933	-0.005213	162.812352	-87.241937	-28.915851
22089	9.735360	0.116827	-0.460826	-0.003516	0.000696	-0.002924	162.832770	-87.240859	-28.936397
22090	9.711784	0.102042	-0.513807	-0.003488	-0.003743	-0.004075	162.877175	-87.235664	-28.990201
22091	9.697169	0.078739	-0.545322	-0.002916	0.009562	-0.004269	162.851642	-87.239210	-28.964407
22092	9.715941	0.069643	-0.414866	-0.002387	0.004481	-0.006838	162.853178	-87.240024	-28.968466
22093	9.811598	0.100368	-0.499809	-0.001512	-0.001874	-0.008595	162.819465	-87.236579	-28.933682
22094	9.844068	0.107808	-0.426210	-0.000666	-0.003790	-0.009200	162.809414	-87.228428	-28.939178
22095	9.866725	0.116170	-0.461529	-0.006312	-0.005596	-0.005376	162.822542	-87.223482	-28.954043
22096	9.779866	0.103448	-0.487699	-0.001074	-0.014563	-0.004814	162.930094	-87.214603	-29.057233
22097	9.729532	0.089245	-0.473509	-0.000948	-0.009492	-0.005893	162.953731	-87.207436	-29.079537
22098	9.701869	0.083024	-0.494207	-0.001423	-0.015188	-0.012052	162.973472	-87.194968	-29.100363
22099	9.720441	0.099829	-0.497029	-0.003115	-0.011355	-0.010841	162.946887	-87.185948	-29.073622
22100	9.730071	0.125071	-0.520571	-0.004462	-0.008797	-0.008818	162.963037	-87.179634	-29.097329
22101	9.679761	0.111088	-0.505981	0.000372	-0.007612	-0.006766	162.971137	-87.173351	-29.103326
22102	9.702386	0.119307	-0.541315	-0.002169	-0.001863	-0.004948	163.020944	-87.171581	-29.149814
22103	9.688669	0.103703	-0.485652	-0.001167	-0.003147	-0.007784	163.001725	-87.167576	-29.129344
22104	9.687010	0.063964	-0.529752	-0.004208	0.003243	-0.004548	163.029847	-87.166560	-29.154537
22105	9.742221	0.078672	-0.490464	0.001627	0.003145	-0.005332	163.018178	-87.166412	-29.140022
22106	9.784441	0.110345	-0.439050	-0.003365	-0.000572	-0.011580	162.949192	-87.157829	-29.086886
22107	9.798120	0.127513	-0.495037	-0.002013	-0.001231	-0.007178	162.929926	-87.154961	-29.066858
22108	9.751881	0.105141	-0.512980	-0.004017	0.001336	-0.001505	163.011300	-87.156433	-29.142360
22109	9.674044	0.083560	-0.516831	-0.002546	0.003849	-0.004607	163.002992	-87.156786	-29.133610
22110	9.661084	0.100498	-0.504083	-0.003548	0.005132	-0.001771	163.064611	-87.160487	-29.191960
22111	9.661114	0.100940	-0.503433	-0.001921	0.008278	-0.007103	163.014211	-87.162854	-29.140715
22112	9.679801	0.117078	-0.503854	-0.003457	0.014641	-0.001695	163.024177	-87.168286	-29.155370
22113	9.670919	0.125841	-0.523461	-0.003456	0.014641	-0.001696	163.011154	-87.175042	-29.142435
22114	9.701909	0.092134	-0.491799	-0.000194	0.024730	0.000492	163.008498	-87.182253	-29.151492
22115	9.715756	0.108331	-0.545500	-0.002325	0.020328	0.000815	163.004670	-87.192534	-29.147109
22116	9.702135	0.091994	-0.487361	-0.002700	0.026041	0.001154	163.036723	-87.209347	-29.162568
22117	9.733893	0.091160	-0.498639	-0.002039	0.026033	-0.002495	162.976168	-87.222207	-29.101231
22118	9.779444	0.081363	-0.434520	-0.003700	0.025427	-0.002438	162.942545	-87.234895	-29.073893
22119	9.771415	0.122853	-0.496684	-0.002350	0.024768	0.001963	162.936063	-87.247809	-29.066883
22120	9.761819	0.098457	-0.471785	-0.003509	0.023521	0.000602	162.955657	-87.257510	-29.094654
22121	9.806588	0.081005	-0.495487	-0.001686	0.024761	-0.001687	162.907729	-87.269801	-29.045765
22122	9.811511	0.080466	-0.438775	-0.001499	0.022854	0.001355	162.957879	-87.282970	-29.089575
22123	9.788839	0.072911	-0.402278	-0.003757	0.011480	-0.003669	162.932713	-87.287658	-29.064659
22124	9.793833	0.098154	-0.477899	-0.004947	0.014672	-0.003878	162.920269	-87.290471	-29.059286
22125	9.807559	0.089431	-0.401561	-0.002535	0.003851	-0.004613	162.911967	-87.290813	-29.050548
22126	9.793892	0.099200	-0.476486	-0.001057	0.006366	-0.007713	162.852702	-87.285618	-29.010181
22127	9.802801	0.091104	-0.455151	-0.003167	-0.000580	-0.002117	162.888602	-87.283942	-29.046062
22128	9.750039	0.150393	-0.493974	-0.005142	-0.004350	-0.004025	162.950820	-87.277111	-29.113111
22129	9.707150	0.086900	-0.501947	-0.004516	0.001978	-0.000095	163.000118	-87.277166	-29.163170
22130	9.703863	0.128072	-0.512049	-0.005014	0.000722	-0.005103	163.027243	-87.274404	-29.199497
22131	9.707170	0.087680	-0.501431	-0.003726	0.007042	-0.004821	163.004782	-87.276440	-29.177266
22132	9.716105	0.079441	-0.479633	-0.004732	0.008325	-0.001987	163.056488	-87.281436	-29.233553
22133	9.721742	0.112058	-0.468129	-0.003381	0.005768	-0.004009	163.048150	-87.282913	-29.225270
22134	9.708128	0.121460	-0.542503	-0.002284	0.015893	-0.000344	163.121881	-87.293264	-29.281339
22135	9.716265	0.079670	-0.476344	-0.003609	0.015908	0.006952	163.205267	-87.302128	-29.365000
22136	9.707457	0.087996	-0.495786	-0.002625	0.017169	-0.001158	163.218999	-87.307404	-29.384921
22137	9.703406	0.096260	-0.460475	-0.006506	0.023578	-0.003751	163.149150	-87.318693	-29.316837
22138	9.765974	0.061993	-0.442229	0.000520	0.020292	-0.004315	163.143825	-87.328229	-29.312054
22139	9.852739	0.075886	-0.415074	-0.003933	0.013392	-0.006717	163.076292	-87.333437	-29.244807
22140	9.868122	0.133189	-0.425674	-0.001896	0.008285	-0.007111	163.072011	-87.334707	-29.229515
22141	9.871420	0.092935	-0.415064	-0.002500	-0.000587	-0.005767	163.066498	-87.332407	-29.223523
22142	9.834146	0.062185	-0.412395	-0.002811	-0.003750	-0.007732	163.086690	-87.327759	-29.245814
22143	9.788843	0.073243	-0.474834	0.000738	-0.010780	-0.012378	163.042005	-87.318768	-29.198752
22144	9.757111	0.075254	-0.462170	-0.001428	-0.010746	-0.010906	163.066548	-87.312868	-29.211547
22145	9.774811	0.059226	-0.421421	-0.000548	-0.017100	-0.012662	163.040674	-87.300371	-29.184059
22146	9.781148	0.125800	-0.455685	-0.004902	-0.014490	-0.014991	162.978106	-87.285690	-29.140134
22147	9.858029	0.116332	-0.409320	-0.001703	-0.018347	-0.014026	162.940956	-87.272272	-29.102031
22148	9.870971	0.101048	-0.423753	-0.003147	-0.025302	-0.012080	162.981974	-87.253585	-29.143040
22149	9.830265	0.111669	-0.433947	-0.005747	-0.033505	-0.011497	163.024344	-87.232284	-29.186865
22150	9.807495	0.130507	-0.533483	-0.002109	-0.029125	-0.009645	163.136003	-87.214611	-29.279510
22151	9.792738	0.082218	-0.437408	-0.002195	-0.038635	-0.009725	163.215881	-87.190786	-29.358839
22152	9.750518	0.052463	-0.492544	-0.004038	-0.037332	-0.012714	163.310469	-87.170572	-29.447563
22153	9.724967	0.119615	-0.515301	0.000671	-0.041214	-0.009582	163.399441	-87.145351	-29.534363
22154	9.719181	0.088507	-0.529911	-0.003872	-0.036694	-0.014951	163.446029	-87.121745	-29.582766
22155	9.727937	0.081324	-0.512389	-0.002709	-0.035445	-0.013592	163.468520	-87.099030	-29.604947
22156	9.670719	0.149486	-0.520935	-0.000697	-0.036110	-0.012841	163.543666	-87.077586	-29.686420
22157	9.637390	0.111107	-0.554415	-0.002085	-0.029118	-0.009661	163.587594	-87.058987	-29.729717
22158	9.556040	0.130630	-0.571186	-0.003978	-0.021487	-0.005059	163.673436	-87.041218	-29.819534
22159	9.491806	0.125457	-0.632555	0.002051	-0.006995	-0.006835	163.679806	-87.035226	-29.822842
22160	9.482208	0.101901	-0.609782	-0.002968	0.012106	-0.009536	163.617455	-87.039406	-29.765467
22161	9.578043	0.107692	-0.562155	-0.003857	0.018457	-0.007772	163.530866	-87.047250	-29.679095
22162	9.700591	0.113140	-0.582087	-0.004745	0.024809	-0.006009	163.449262	-87.056108	-29.609131
22163	9.751805	0.136033	-0.507144	-0.002271	0.027941	-0.005519	163.356415	-87.069510	-29.515594
22164	9.847650	0.141506	-0.458260	-0.003583	0.026058	-0.004650	163.307886	-87.081280	-29.465672
22165	9.836653	0.077251	-0.477850	-0.003818	0.015914	-0.002502	163.284410	-87.088569	-29.442488
22166	9.779006	0.111280	-0.437735	-0.003164	0.017802	0.000278	163.325809	-87.098028	-29.485246
22167	9.787246	0.095526	-0.502961	-0.002116	0.012086	-0.003717	163.302569	-87.103018	-29.461326
22168	9.768708	0.080347	-0.500417	-0.002264	0.009559	-0.007917	163.267653	-87.103949	-29.427014
22169	9.783921	0.137628	-0.511023	-0.005783	0.012143	-0.004415	163.234428	-87.108850	-29.395198
22170	9.742692	0.114392	-0.473812	-0.000227	0.006348	-0.001887	163.283123	-87.108520	-29.437038
22171	9.764732	0.089523	-0.464387	-0.002580	0.008288	-0.003455	163.274823	-87.111460	-29.428330
22172	9.728274	0.091311	-0.504250	-0.001729	0.006374	-0.004062	163.303858	-87.113480	-29.460563
22173	9.755835	0.098894	-0.484132	-0.005051	0.005157	-0.003948	163.299077	-87.114621	-29.456800
22174	9.755850	0.099289	-0.483751	-0.002194	0.002577	-0.003799	163.335026	-87.114629	-29.504844
22175	9.787508	0.099189	-0.497127	-0.004229	0.005789	-0.009830	163.264645	-87.115149	-29.434939
22176	9.791627	0.091903	-0.530216	-0.000997	-0.000612	-0.003594	163.306021	-87.109765	-29.475421
22177	9.792338	0.099723	-0.442678	-0.003310	-0.003109	-0.006318	163.303508	-87.105974	-29.472935
22178	9.746879	0.110311	-0.504654	-0.002964	-0.004384	-0.005506	163.350914	-87.100618	-29.520068
22179	9.710356	0.112297	-0.545782	-0.003774	-0.006907	-0.006056	163.363271	-87.094784	-29.532734
22180	9.669733	0.122178	-0.553346	-0.003004	0.000053	-0.004349	163.414625	-87.094012	-29.585703
22181	9.578936	0.116790	-0.544854	-0.003590	0.009567	-0.000616	163.432824	-87.098114	-29.604116
22182	9.564530	0.093462	-0.575665	0.000209	0.012693	-0.007424	163.401987	-87.103494	-29.573536
22183	9.660275	0.098989	-0.527612	-0.006209	0.022293	-0.002916	163.352454	-87.114208	-29.525642
22184	9.719581	0.105598	-0.519350	-0.003431	0.028588	-0.000454	163.353077	-87.128400	-29.527921
22185	9.783684	0.111518	-0.456628	0.000784	0.023456	-0.002331	163.309625	-87.139847	-29.482101
22186	9.801019	0.087344	-0.499918	-0.003227	0.024788	-0.003845	163.289275	-87.154046	-29.460224
22187	9.806618	0.119954	-0.486934	-0.003001	0.018440	-0.001958	163.263905	-87.162804	-29.434689
22188	9.810133	0.079290	-0.475102	-0.005471	0.015307	-0.002453	163.258986	-87.165754	-29.435335
22189	9.784019	0.112676	-0.449119	-0.000448	0.012698	-0.003776	163.233923	-87.171054	-29.408635
22190	9.784065	0.113228	-0.447963	-0.004763	0.010868	-0.007261	163.206400	-87.173145	-29.381496
22191	9.773865	0.081990	-0.512460	-0.001540	0.004464	-0.001020	163.238884	-87.174381	-29.413035
22192	9.779376	0.114639	-0.500962	-0.004073	0.008317	-0.005635	163.214364	-87.173613	-29.400657
22193	9.716066	0.116520	-0.472812	-0.001884	0.005740	-0.001833	163.233355	-87.175407	-29.418887
22194	9.747757	0.116093	-0.486043	-0.000872	0.004463	-0.004670	163.255126	-87.172913	-29.443402
22195	9.778708	0.082881	-0.455763	-0.001216	0.005738	-0.005483	163.234000	-87.174097	-29.421072
22196	9.850974	0.073578	-0.461917	-0.005491	-0.000531	-0.010125	163.237735	-87.172618	-29.416248
22197	9.902473	0.129890	-0.433339	-0.003910	-0.009433	-0.010261	163.212934	-87.164692	-29.391776
22198	9.906589	0.122828	-0.467864	-0.002531	-0.014534	-0.007010	163.247888	-87.150804	-29.437157
22199	9.841867	0.084916	-0.486364	0.000530	-0.020913	-0.010247	163.263896	-87.136575	-29.451001
22200	9.769486	0.095939	-0.482149	-0.005766	-0.024628	-0.009214	163.339686	-87.120114	-29.523786
22201	9.719112	0.082156	-0.469735	0.000476	-0.032311	-0.016766	163.321429	-87.098557	-29.503348
22202	9.724437	0.141424	-0.593135	-0.001706	-0.030394	-0.008860	163.410737	-87.079259	-29.594075
22203	9.719498	0.117308	-0.518373	-0.002711	-0.012620	-0.010057	163.399433	-87.069613	-29.582432
22204	9.623758	0.113043	-0.566547	-0.002596	-0.024042	-0.007098	163.458394	-87.049761	-29.655937
22205	9.605729	0.131033	-0.610234	-0.001901	-0.010096	-0.009507	163.445381	-87.041583	-29.642119
22206	9.582371	0.090754	-0.532495	-0.006481	-0.001805	-0.002007	163.519209	-87.039558	-29.719940
22207	9.587116	0.116171	-0.609516	-0.002149	-0.001860	-0.004959	163.528381	-87.036646	-29.728483
22208	9.605089	0.099378	-0.566612	-0.003365	0.019712	-0.002761	163.573722	-87.050008	-29.767050
22209	9.623753	0.115356	-0.566165	-0.001863	0.019686	-0.000586	163.562049	-87.059654	-29.754547
22210	9.645952	0.090225	-0.554985	-0.003148	0.031748	0.001524	163.580357	-87.077392	-29.774509
22211	9.737574	0.103311	-0.472116	-0.002478	0.031749	-0.002129	163.513111	-87.093418	-29.706715
22212	9.769376	0.102814	-0.482954	-0.002938	0.027950	-0.001869	163.476783	-87.105390	-29.671171
22213	9.814288	0.085868	-0.506303	-0.002429	0.027313	-0.003290	163.410099	-87.118780	-29.603918
22214	9.852072	0.124952	-0.419017	-0.000540	0.021574	-0.001459	163.402391	-87.127986	-29.592635
22215	9.832337	0.069214	-0.460300	-0.002921	0.009566	-0.004271	163.382020	-87.131466	-29.572041
22216	9.806847	0.135662	-0.478103	-0.005778	0.012144	-0.004424	163.390552	-87.137133	-29.583946
22217	9.769776	0.104619	-0.474399	0.000951	0.005713	-0.006957	163.355527	-87.138059	-29.546464
22218	9.742326	0.097986	-0.493402	-0.003729	0.007042	-0.004823	163.374039	-87.141178	-29.568100
22219	9.720308	0.123527	-0.501478	-0.001724	0.006377	-0.004065	163.367105	-87.142945	-29.560288
22220	9.733468	0.107403	-0.513068	-0.002575	0.008291	-0.003459	163.387800	-87.146093	-29.591072
22221	9.733513	0.107724	-0.512136	-0.001767	0.010815	-0.002908	163.379030	-87.150486	-29.581461
22222	9.791988	0.081576	-0.461818	-0.004235	0.007680	-0.003405	163.379394	-87.149709	-29.594207
22223	9.832604	0.072688	-0.454014	0.001986	0.001887	-0.004518	163.384393	-87.148931	-29.596234
22224	9.875108	0.137185	-0.446044	-0.000783	-0.004410	-0.006986	163.439956	-87.147081	-29.652290
22225	9.891701	0.080319	-0.449014	-0.006045	-0.011956	-0.003517	163.496668	-87.138868	-29.710706
22226	9.806221	0.107272	-0.431717	-0.003833	-0.016420	-0.006149	163.526968	-87.122583	-29.754924
22227	9.755399	0.085467	-0.506050	-0.003142	-0.018970	-0.004523	163.596104	-87.110339	-29.824123
22228	9.705078	0.070920	-0.492795	-0.000466	-0.019634	-0.007417	163.696496	-87.099773	-29.923988
22229	9.655445	0.089599	-0.522784	-0.004013	-0.014505	-0.009195	163.699373	-87.089229	-29.927344
22230	9.646427	0.098967	-0.545150	-0.005027	-0.013230	-0.006357	163.752225	-87.077938	-29.988373
22231	9.605773	0.108901	-0.553108	-0.000322	-0.000609	-0.007248	163.734393	-87.075347	-29.968872
22232	9.615371	0.134005	-0.575423	-0.005692	0.003269	-0.006738	163.738492	-87.073826	-29.972375
22233	9.637470	0.109328	-0.566154	-0.001082	0.008263	-0.001279	163.756703	-87.077070	-29.989398
22234	9.673949	0.108334	-0.524337	-0.003154	0.015916	-0.006155	163.701839	-87.079933	-29.940313
22235	9.723577	0.090958	-0.494335	-0.000849	0.018414	-0.003426	163.664903	-87.088407	-29.901983
22236	9.782814	0.097948	-0.486539	-0.003198	0.020354	-0.004998	163.647377	-87.098572	-29.883445
22237	9.823496	0.089245	-0.477597	-0.001953	0.012729	-0.005951	163.600211	-87.103513	-29.835506
22238	9.882687	0.096403	-0.470576	-0.000755	0.009541	-0.005745	163.554032	-87.101740	-29.804126
22239	9.878476	0.104940	-0.436904	-0.006957	-0.003055	-0.007033	163.542678	-87.097820	-29.794924
22240	9.814603	0.099773	-0.497579	-0.000779	-0.004408	-0.006989	163.572306	-87.092996	-29.823065
22241	9.760810	0.125996	-0.493204	-0.001912	-0.008210	-0.003077	163.623041	-87.086883	-29.873140
22242	9.701609	0.120055	-0.500106	-0.001031	-0.012006	-0.010120	163.676769	-87.081651	-29.916128
22243	9.701069	0.113633	-0.588324	-0.001679	0.001941	-0.005223	163.672226	-87.080778	-29.910721
22244	9.664514	0.089614	-0.497691	-0.002993	0.000054	-0.004356	163.724912	-87.078943	-29.959991
22245	9.696849	0.122391	-0.554900	-0.000989	-0.000610	-0.003598	163.746360	-87.076928	-29.980206
22246	9.705812	0.114137	-0.533272	-0.006291	0.012779	-0.003003	163.761905	-87.082378	-30.006563
22247	9.683112	0.106476	-0.497561	-0.002234	0.007015	-0.002645	163.769025	-87.084710	-30.013152
22248	9.737610	0.113859	-0.544777	-0.003690	0.018437	0.001699	163.818833	-87.093347	-30.078670
22249	9.723874	0.097183	-0.487267	-0.001176	0.017137	0.001039	163.834808	-87.101835	-30.093523
22250	9.773474	0.079601	-0.457438	-0.001952	0.012730	-0.005951	163.825269	-87.107120	-30.087560
22251	9.829107	0.127734	-0.460439	-0.001098	0.010818	-0.006558	163.778567	-87.110919	-30.039614
22252	9.792090	0.096556	-0.456733	-0.002577	0.008291	-0.003459	163.834337	-87.116934	-30.092793
22253	9.761113	0.130585	-0.485968	-0.002185	0.002579	-0.003805	163.843206	-87.116645	-30.101114
22254	9.678790	0.109062	-0.544718	-0.004517	0.001964	-0.000100	163.894139	-87.112490	-30.166712
22255	9.628611	0.094049	-0.528911	0.001204	0.013316	-0.003826	163.870811	-87.118101	-30.140852
22256	9.632928	0.086607	-0.561037	0.000054	0.012068	-0.005193	163.861150	-87.122016	-30.133627
22257	9.665810	0.126636	-0.528780	-0.004047	0.022269	-0.004396	163.799928	-87.132460	-30.072844
22258	9.728615	0.092812	-0.510352	-0.005243	0.025458	-0.004605	163.760907	-87.145646	-30.045292
22259	9.793211	0.132139	-0.491008	-0.002894	0.023519	-0.003032	163.710589	-87.156993	-29.994778
22260	9.787979	0.100032	-0.499671	-0.003057	0.022880	-0.000800	163.664419	-87.160880	-29.961794
22261	9.814761	0.074360	-0.434406	-0.003862	0.020355	-0.001354	163.641842	-87.170742	-29.939610
22262	9.824465	0.098956	-0.455242	-0.002274	0.011454	-0.001491	163.710553	-87.180636	-30.003397
22263	9.856228	0.098935	-0.467657	-0.003269	0.013400	-0.010369	163.610360	-87.185230	-29.903177
22264	9.882921	0.073752	-0.403557	-0.001884	0.005741	-0.001836	163.681782	-87.190026	-29.975194
22265	9.870471	0.123647	-0.434896	-0.000889	-0.009484	-0.005916	163.707699	-87.182761	-29.999884
22266	9.847327	0.109110	-0.488655	-0.004599	-0.004995	-0.005467	163.737673	-87.175693	-30.030549
22267	9.756440	0.103706	-0.482002	-0.000841	-0.013921	-0.007075	163.764846	-87.165796	-30.056469
22268	9.720070	0.105692	-0.523919	-0.002548	-0.010096	-0.005865	163.819492	-87.157899	-30.117911
22269	9.669789	0.091065	-0.509808	-0.001232	-0.008207	-0.006731	163.831541	-87.151199	-30.128920
22270	9.683973	0.115380	-0.478449	-0.004598	-0.004995	-0.005468	163.871077	-87.146170	-30.180223
22271	9.670447	0.125459	-0.554153	-0.001801	-0.000577	-0.009432	163.828558	-87.143238	-30.136933
22272	9.737747	0.091078	-0.483555	-0.000178	0.001916	-0.003046	163.916253	-87.146671	-30.210615
22273	9.706768	0.125320	-0.512974	-0.000534	0.005749	-0.009139	163.857551	-87.147276	-30.150395
22274	9.697162	0.101461	-0.490263	-0.003497	0.000690	-0.002942	163.909483	-87.145662	-30.219642
22275	9.705775	0.086042	-0.556579	-0.002230	0.007016	-0.002649	163.917511	-87.147996	-30.227219
22276	9.720029	0.110103	-0.523772	-0.002918	0.009569	-0.004276	163.908761	-87.148768	-30.232271
22277	9.765267	0.100735	-0.461103	-0.001897	0.008297	-0.007114	163.863507	-87.151093	-30.186315
22278	9.796996	0.100871	-0.474240	-0.003163	0.001971	-0.007408	163.847634	-87.148189	-30.188621
22279	9.783805	0.118066	-0.461502	0.000617	0.006999	-0.007772	163.800695	-87.149689	-30.139549
22280	9.782828	0.078414	-0.505362	-0.006009	0.001989	-0.002286	163.862292	-87.148931	-30.196424
22281	9.729023	0.104529	-0.500219	0.000156	0.003198	-0.007512	163.830197	-87.148381	-30.162473
22282	9.729039	0.105098	-0.499781	-0.003378	0.005767	-0.004017	163.837987	-87.148120	-30.187022
22283	9.733360	0.097813	-0.532903	-0.001963	-0.001217	-0.007201	163.822285	-87.145187	-30.170716
22284	9.756438	0.113651	-0.479806	-0.003162	0.001971	-0.007409	163.788261	-87.139439	-30.143149
22285	9.788147	0.113808	-0.493402	-0.001963	-0.001217	-0.007201	163.772638	-87.136497	-30.126925
22286	9.815543	0.121629	-0.473592	-0.000521	0.003193	-0.003860	163.784458	-87.133425	-30.142975
22287	9.782845	0.082516	-0.504381	-0.006252	-0.005610	-0.005419	163.799984	-87.128346	-30.160405
22288	9.756383	0.115822	-0.480394	0.001416	-0.006984	-0.003185	163.860135	-87.119534	-30.235859
22289	9.742166	0.092472	-0.512956	-0.005104	-0.004361	-0.004051	163.887111	-87.115354	-30.264096
22290	9.760626	0.108957	-0.514934	-0.000713	-0.008841	-0.008154	163.913008	-87.107080	-30.288230
22291	9.719977	0.118694	-0.522854	-0.004299	-0.001836	-0.003497	163.938406	-87.104376	-30.314424
22292	9.701467	0.103177	-0.521660	-0.002640	-0.001222	-0.003549	163.988732	-87.101700	-30.377748
22293	9.655565	0.080459	-0.540020	-0.003329	0.001331	-0.005176	163.986484	-87.100472	-30.375712
22294	9.701474	0.104147	-0.521335	-0.002869	0.005132	-0.005435	163.993260	-87.101073	-30.391875
22295	9.723613	0.079684	-0.512130	0.001304	0.004448	-0.006145	163.973429	-87.101409	-30.369588
22296	9.769524	0.103590	-0.493260	-0.000532	0.005752	-0.009140	163.944519	-87.101843	-30.340598
22297	9.751760	0.121465	-0.534473	-0.005778	0.012142	-0.004432	163.915161	-87.106685	-30.312840
22298	9.755693	0.088060	-0.435564	-0.001261	0.010183	-0.004327	163.938423	-87.112791	-30.345856
22299	9.760034	0.080802	-0.468474	-0.001960	-0.001216	-0.007202	163.923007	-87.109843	-30.329881
22300	9.734740	0.173186	-0.618166	-0.004401	0.007037	-0.001178	163.980932	-87.112127	-30.401091
22301	9.705536	0.073947	-0.419163	-0.004234	0.007679	-0.003411	163.977720	-87.114678	-30.398640
22302	9.665003	0.095308	-0.731992	-0.004681	0.017829	-0.001905	163.979876	-87.120678	-30.400904
22303	9.724769	0.111824	-0.154369	-0.002466	0.015931	-0.009816	163.881422	-87.126753	-30.302069
22304	9.828921	0.126493	-0.788215	0.002536	-0.031077	-0.009593	163.963278	-87.106463	-30.387389
22305	9.781027	0.205835	-0.507934	-0.012597	0.055336	0.002907	163.874039	-87.136249	-30.303597
22306	9.731721	0.017054	-0.306430	0.002462	0.003140	0.000504	163.952592	-87.135010	-30.378303
22307	9.728419	0.077520	-0.535859	-0.000486	-0.012635	-0.011549	163.926427	-87.125079	-30.350713
22308	9.753609	0.192557	-0.612446	-0.003417	0.024157	-0.001611	163.920723	-87.136094	-30.348839
22309	9.740106	-0.015980	-0.151830	-0.007542	0.022963	-0.007346	163.823554	-87.146421	-30.254203
22310	9.820465	0.137663	-0.803503	0.002597	-0.038075	-0.005472	163.999006	-87.126160	-30.425718
22311	9.789696	0.180887	-0.263388	-0.008389	0.038826	-0.005492	163.871977	-87.145526	-30.301673
22312	9.722885	0.026661	-0.806863	-0.003154	-0.017100	0.001900	164.057074	-87.137327	-30.490400
22313	9.714493	0.058546	-0.082287	-0.005541	0.022301	-0.006582	163.972218	-87.147431	-30.406948
22314	9.802164	0.130872	-0.713753	0.001616	-0.036121	-0.014357	164.017217	-87.123106	-30.466355
22315	9.775178	0.145733	-0.471624	0.000278	0.008281	-0.008586	163.958300	-87.125168	-30.405538
22316	9.815123	0.104241	-0.419830	-0.006922	0.010893	-0.005805	163.957829	-87.129669	-30.401289
22317	9.719559	0.092253	-0.555465	0.001353	-0.030449	-0.004524	164.065683	-87.111043	-30.506831
22318	9.679071	0.108796	-0.475769	-0.006174	0.017855	-0.004087	164.059991	-87.119569	-30.500354
22319	9.678225	0.069335	-0.519642	-0.002703	-0.008176	-0.008922	164.047463	-87.112518	-30.487686
22320	9.728566	0.092606	-0.447291	-0.001442	-0.001848	-0.008625	164.033331	-87.106535	-30.478188
22321	9.828790	0.117362	-0.564916	-0.002129	0.000705	-0.010253	163.979084	-87.104161	-30.423418
22322	9.792828	0.133360	-0.430921	0.001020	-0.015220	-0.004090	164.088482	-87.094463	-30.531794
22323	9.742252	0.104318	-0.591866	-0.004235	0.007678	-0.003412	164.085919	-87.097011	-30.529972
22324	9.678123	0.072530	-0.521115	-0.003093	-0.005024	-0.003294	164.155551	-87.093381	-30.599956
22325	9.673744	0.080782	-0.488062	-0.004125	-0.001195	-0.005735	164.155273	-87.090676	-30.600367
22326	9.683814	0.132008	-0.641454	-0.002009	0.003223	-0.006044	164.187916	-87.093422	-30.629188
22327	9.729358	0.136550	-0.403315	-0.004634	0.013391	-0.003064	164.171510	-87.099180	-30.613753
22328	9.760110	0.089508	-0.548214	0.000163	0.003205	-0.007514	164.187421	-87.099933	-30.626680
22329	9.797210	0.128952	-0.462872	-0.004980	0.000716	-0.005130	164.187468	-87.098384	-30.627914
22330	9.800771	0.081401	-0.539951	-0.000630	0.012069	-0.001538	164.246971	-87.105875	-30.675892
22331	9.778774	0.113935	-0.460689	-0.003042	-0.006899	-0.009738	164.221409	-87.099413	-30.650366
22332	9.774219	0.115590	-0.515509	-0.003610	-0.001828	-0.007156	164.234997	-87.095720	-30.667422
22333	9.742482	0.116677	-0.501897	-0.001664	0.001947	-0.005231	164.232167	-87.094837	-30.663869
22334	9.692273	0.101784	-0.487175	-0.000407	-0.005676	-0.006185	164.289502	-87.091507	-30.721305
22335	9.706052	0.112096	-0.630551	-0.003722	0.007044	-0.004832	164.274301	-87.093500	-30.706550
22336	9.651673	0.111835	-0.493868	-0.000062	0.006999	-0.004119	164.316343	-87.096665	-30.743092
22337	9.660469	0.096825	-0.559648	-0.001438	0.012106	-0.007375	164.259334	-87.101057	-30.685156
22338	9.706346	0.120553	-0.539982	-0.002633	0.012730	-0.002301	164.307218	-87.109550	-30.728175
22339	9.741987	0.086518	-0.454178	-0.003206	0.020363	-0.005002	164.249482	-87.118870	-30.670535
22340	9.832871	0.093466	-0.460153	-0.002405	0.008937	-0.005698	164.212137	-87.116951	-30.649581
22341	9.887587	0.108720	-0.419861	-0.003206	0.006411	-0.006254	164.183574	-87.118372	-30.621153
22342	9.923724	0.101195	-0.466628	-0.001091	-0.003122	-0.007814	164.221356	-87.117583	-30.650129
22343	9.860212	0.102819	-0.440021	-0.001204	-0.008202	-0.006742	164.233877	-87.110877	-30.661698
22344	9.810635	0.121264	-0.469647	-0.003948	-0.014504	-0.009225	164.279356	-87.100948	-30.707898
22345	9.764728	0.098953	-0.490097	-0.003144	-0.025929	-0.009923	164.310177	-87.083972	-30.738897
22346	9.718823	0.076497	-0.510438	-0.003316	-0.012620	-0.006436	164.410424	-87.079457	-30.848028
22347	9.687640	0.110934	-0.541835	-0.003029	-0.020848	-0.010996	164.413655	-87.065124	-30.851341
22348	9.678628	0.120464	-0.564524	-0.002801	-0.013253	-0.007857	164.456729	-87.055045	-30.899713
22349	9.687480	0.112702	-0.544334	-0.002235	-0.004371	-0.009185	164.430520	-87.050084	-30.873094
22350	9.687445	0.113497	-0.544786	-0.002404	-0.005014	-0.006951	164.464658	-87.045652	-30.908612
22351	9.691791	0.106294	-0.578409	-0.004634	-0.000562	-0.004317	164.477886	-87.043542	-30.922861
22352	9.701508	0.138413	-0.512673	-0.003043	0.007054	-0.008486	164.436743	-87.042353	-30.904186
22353	9.737000	0.097569	-0.515958	0.000514	-0.000633	-0.001420	164.484081	-87.040646	-30.949642
22354	9.778262	0.122148	-0.551682	-0.004355	0.005161	-0.007622	164.526251	-87.047126	-30.994467
22355	9.723744	0.114967	-0.502852	-0.001723	0.006383	-0.004068	164.523347	-87.048895	-30.990904
22356	9.719228	0.116239	-0.556748	-0.002522	0.003857	-0.004625	164.562876	-87.050233	-31.035638
22357	9.696442	0.108456	-0.521478	-0.000924	0.008910	-0.003511	164.558997	-87.053484	-31.030641
22358	9.669143	0.101531	-0.540212	0.000044	0.012080	-0.005189	164.578670	-87.060424	-31.061838
22359	9.678142	0.093226	-0.517449	-0.001448	0.023494	-0.000835	164.560010	-87.072142	-31.042350
22360	9.651626	0.126295	-0.491290	0.001763	0.008262	-0.006402	164.584755	-87.077768	-31.071078
22361	9.728469	0.109411	-0.529359	-0.010247	0.021043	0.000831	164.586482	-87.088391	-31.077064
22362	9.630039	0.170806	-0.716004	0.003709	0.009473	0.000808	164.635563	-87.089181	-31.147426
22363	9.633523	0.110334	-0.483387	-0.006495	0.067938	0.004236	164.535354	-87.126220	-31.049204
22364	9.651489	0.092917	-0.437186	0.004623	0.017081	0.000293	164.552349	-87.130716	-31.081432
22365	9.734333	0.127346	-0.680761	-0.005847	0.058438	0.000479	164.437582	-87.161921	-30.968273
22366	9.846003	0.070371	-0.236725	-0.001605	0.039374	-0.002642	164.379761	-87.181579	-30.918493
22367	9.943812	0.147907	-0.667799	-0.000060	0.018391	0.002413	164.412945	-87.190972	-30.950144
22368	9.982075	0.060188	-0.263734	-0.005655	0.045134	-0.003019	164.356861	-87.217773	-30.898658
22369	9.963794	0.037848	-0.348792	-0.005768	-0.015767	-0.006948	164.389280	-87.206880	-30.932824
22370	9.925491	0.140161	-0.574992	-0.000279	-0.000593	-0.007260	164.387834	-87.202928	-30.921670
22371	9.833659	0.114982	-0.349307	-0.001536	-0.006924	-0.007559	164.387710	-87.196818	-30.920832
22372	9.756925	0.119163	-0.487148	-0.001132	-0.026592	-0.009158	164.446945	-87.177708	-30.992552
22373	9.706839	0.090559	-0.649042	-0.001997	0.003226	-0.006050	164.431720	-87.177429	-30.976864
22374	9.627505	0.029480	-0.217623	-0.002616	-0.029131	-0.006063	164.546318	-87.159098	-31.093702
22375	9.636472	0.186885	-0.951678	-0.007023	-0.008143	-0.005997	164.563878	-87.152550	-31.113722
22376	9.606627	0.128596	-0.226269	-0.004296	0.026068	-0.001004	164.545329	-87.163391	-31.095124
22377	9.634476	0.087972	-0.820194	0.006352	-0.014644	-0.003421	164.619130	-87.153641	-31.163779
22378	9.759695	0.061689	-0.259372	-0.011045	0.048993	-0.002520	164.527010	-87.179079	-31.086435
22379	9.828679	0.072948	-0.537244	0.001439	-0.020933	-0.004440	164.606454	-87.165702	-31.163566
22380	9.852179	0.121666	-0.527816	-0.004115	0.012759	-0.004493	164.614284	-87.171793	-31.175000
22381	9.924411	0.126483	-0.356938	-0.006631	0.014052	-0.003841	164.587911	-87.177831	-31.150822
22382	9.824177	0.082190	-0.504059	0.002480	-0.036151	-0.008534	164.658421	-87.151026	-31.223077
22383	9.742133	0.067638	-0.477275	-0.007028	0.005811	-0.004745	164.647180	-87.152368	-31.214284
22384	9.661641	0.112397	-0.623874	-0.000960	-0.014559	-0.004861	164.748809	-87.144375	-31.314949
22385	9.569973	0.080174	-0.486519	0.000297	-0.005660	-0.009844	164.720115	-87.138611	-31.284476
22386	9.589878	0.156296	-0.661920	-0.003776	0.011482	-0.003676	164.757911	-87.145894	-31.321902
22387	9.561191	0.089719	-0.505834	-0.001380	0.019063	-0.002004	164.740420	-87.154983	-31.303612
22388	9.630050	0.114608	-0.607238	-0.005500	0.029255	-0.001213	164.726865	-87.169304	-31.300596
22389	9.733542	0.078760	-0.492640	-0.002525	0.031769	-0.002124	164.668099	-87.185396	-31.241639
22390	9.806851	0.102747	-0.538524	-0.005098	0.037498	-0.000312	164.644492	-87.205107	-31.229314
22391	9.883529	0.099483	-0.399378	-0.002232	0.020975	-0.001403	164.626697	-87.215341	-31.211214
22392	9.924993	0.123974	-0.432916	-0.006570	0.023572	-0.003756	164.573110	-87.223015	-31.169344
22393	9.923754	0.051188	-0.432667	-0.004164	0.003242	-0.004587	164.573352	-87.222964	-31.170412
22394	9.865246	0.084534	-0.394417	-0.003998	0.001319	-0.001538	164.632051	-87.220962	-31.231902
22395	9.834423	0.111660	-0.512564	-0.001643	-0.012005	-0.006491	164.659703	-87.212196	-31.258970
22396	9.761197	0.088471	-0.464463	-0.001984	-0.010727	-0.007306	164.648682	-87.196846	-31.269118
22397	9.675587	0.107980	-0.535004	-0.002843	-0.008818	-0.006702	164.663112	-87.189798	-31.283635
22398	9.662167	0.124930	-0.523606	-0.000843	-0.009477	-0.005933	164.707080	-87.181166	-31.338973
22399	9.621516	0.134368	-0.531548	-0.003823	0.001965	-0.003771	164.720574	-87.180518	-31.353126
22400	9.639426	0.110586	-0.576740	-0.004401	0.007033	-0.001189	164.774514	-87.182476	-31.414399
22401	9.661469	0.092659	-0.479268	-0.004287	0.012115	-0.002261	164.773712	-87.187665	-31.414504
22402	9.748047	0.100500	-0.539618	-0.000113	0.011443	-0.002958	164.815154	-87.194095	-31.461237
22403	9.752420	0.099809	-0.483807	-0.002690	0.017170	-0.001145	164.812511	-87.202250	-31.458587
22404	9.765879	0.083648	-0.494316	-0.001373	0.019067	-0.002006	164.804040	-87.208776	-31.463950
22405	9.788647	0.098979	-0.439652	-0.003425	0.010207	-0.002867	164.802862	-87.212818	-31.463196
22406	9.757164	0.092837	-0.513078	-0.004223	0.007679	-0.003426	164.829512	-87.215058	-31.496674
22407	9.729969	0.085942	-0.532000	-0.003590	0.012131	-0.005917	164.787638	-87.219706	-31.455275
22408	9.693671	0.094430	-0.484085	-0.001768	0.010825	-0.002913	164.796175	-87.221461	-31.485633
22409	9.735107	0.119123	-0.518849	-0.004046	0.008326	-0.005661	164.768643	-87.224039	-31.458863
22410	9.725571	0.094983	-0.495356	-0.004167	0.017200	-0.003336	164.756499	-87.229452	-31.462418
22411	9.744841	0.144367	-0.538414	-0.002802	0.012089	-0.000076	164.781758	-87.234947	-31.487785
22412	9.712335	0.111500	-0.480019	-0.002746	0.021609	0.000014	164.802647	-87.245277	-31.507153
22413	9.676415	0.112620	-0.518821	-0.002124	0.023491	0.002807	164.826146	-87.257508	-31.530373
22414	9.671515	0.080123	-0.527683	-0.001604	0.022860	0.001387	164.875828	-87.270650	-31.566872
22415	9.739483	0.078307	-0.497469	-0.003379	0.031116	0.003754	164.886246	-87.287241	-31.577713
22416	9.794042	0.092816	-0.454804	-0.002799	0.026048	0.001172	164.888184	-87.297353	-31.584501
22417	9.834760	0.083903	-0.444679	-0.005074	0.023549	-0.001579	164.859085	-87.308958	-31.556750
22418	9.857423	0.099117	-0.389354	-0.001019	0.017793	-0.001197	164.860901	-87.315118	-31.554628
22419	9.853328	0.100207	-0.442431	-0.001418	0.009550	-0.002102	164.872230	-87.318898	-31.565260
22420	9.811514	0.036137	-0.450562	-0.003534	0.005125	-0.001802	164.903136	-87.316342	-31.619328
22421	9.771296	0.085439	-0.413496	-0.003295	0.001335	-0.005198	164.903063	-87.315110	-31.619623
22422	9.762136	0.054671	-0.479220	-0.002377	-0.005012	-0.006962	164.909550	-87.306819	-31.636235
22423	9.784667	0.070491	-0.426443	-0.001858	-0.005643	-0.008381	164.895026	-87.301246	-31.621237
22424	9.775849	0.080145	-0.448204	-0.001958	-0.008155	-0.012594	164.856462	-87.291964	-31.592242
22425	9.812623	0.113264	-0.451325	-0.003793	-0.009421	-0.010316	164.830420	-87.284009	-31.566826
22426	9.763170	0.131758	-0.481092	0.000201	-0.010739	-0.008772	164.803753	-87.268820	-31.561312
22427	9.685687	0.109279	-0.487466	-0.003532	-0.008834	-0.003053	164.860311	-87.262269	-31.618447
22428	9.662242	0.061439	-0.498182	-0.002036	-0.006290	-0.006147	164.859355	-87.250878	-31.635673
22429	9.663044	0.095153	-0.541815	-0.000959	-0.000603	-0.003610	164.884901	-87.248786	-31.660289
22430	9.694423	0.101980	-0.467192	-0.003358	0.005772	-0.004035	164.900422	-87.248443	-31.679578
22431	9.735057	0.093641	-0.458940	-0.002660	0.005788	-0.007689	164.858171	-87.249274	-31.637295
22432	9.812501	0.117309	-0.452948	-0.003358	0.005772	-0.004035	164.860535	-87.247134	-31.658791
22433	9.835531	0.126266	-0.487285	-0.004711	-0.003074	-0.008552	164.834823	-87.242928	-31.634248
22434	9.789094	0.070209	-0.463077	-0.002275	-0.002500	-0.002751	164.868465	-87.234555	-31.685974
22435	9.762240	0.103304	-0.438765	-0.003574	-0.001824	-0.007176	164.855343	-87.231239	-31.673382
22436	9.699022	0.097911	-0.500290	-0.002311	-0.009448	-0.008127	164.858883	-87.219019	-31.699811
22437	9.716571	0.081526	-0.458827	-0.003851	-0.004982	-0.009156	164.832919	-87.213653	-31.674517
22438	9.703570	0.092147	-0.534717	-0.004012	-0.003056	-0.012206	164.781064	-87.206764	-31.639077
22439	9.726918	0.141311	-0.524953	-0.002095	-0.001852	-0.004986	164.793920	-87.203751	-31.651646
22440	9.703111	0.100253	-0.446867	-0.004040	0.008328	-0.005666	164.780497	-87.204237	-31.656331
22441	9.667138	0.101802	-0.487397	0.001316	0.001898	-0.000859	164.830488	-87.203914	-31.704127
22442	9.690195	0.110411	-0.521161	-0.004103	0.012765	-0.004503	164.847182	-87.210734	-31.722488
22443	9.734696	0.060999	-0.502503	-0.002562	0.008300	-0.003475	164.845753	-87.213561	-31.721021
22444	9.784482	0.083862	-0.428248	-0.005759	0.012145	-0.004460	164.861453	-87.220557	-31.734679
22445	9.825947	0.108702	-0.462863	-0.002041	0.007670	-0.004895	164.846147	-87.222827	-31.719021
22446	9.856976	0.075711	-0.432611	-0.002434	-0.000573	-0.005802	164.863147	-87.219499	-31.734278
22447	9.866564	0.101002	-0.454928	-0.003570	-0.001823	-0.007178	164.850256	-87.216175	-31.721917
22448	9.797930	0.069859	-0.439792	-0.003345	-0.008187	-0.005292	164.883529	-87.205919	-31.787467
22449	9.748468	0.088032	-0.469425	-0.002305	-0.009446	-0.008130	164.883938	-87.198232	-31.787701
22450	9.698981	0.106502	-0.499323	-0.003717	-0.013854	-0.011487	164.867237	-87.184729	-31.775547
22451	9.730729	0.107349	-0.513906	-0.001264	-0.010706	-0.010970	164.840269	-87.175916	-31.747774
22452	9.698842	0.108565	-0.501579	-0.001442	-0.011354	-0.008736	164.876029	-87.167900	-31.803897
22453	9.726424	0.110079	-0.570288	-0.001508	-0.006918	-0.007571	164.875582	-87.161692	-31.802819
22454	9.757778	0.117091	-0.496158	-0.003815	0.001965	-0.003779	164.922075	-87.161196	-31.866919
22455	9.689191	0.085744	-0.480553	0.000424	-0.003139	-0.005635	164.932912	-87.157368	-31.876032
22456	9.721761	0.119386	-0.537224	-0.005633	0.003271	-0.006786	164.911475	-87.151669	-31.896042
22457	9.725191	0.085887	-0.439329	-0.000598	0.000696	-0.008082	164.883048	-87.149590	-31.866429
22458	9.775380	0.102476	-0.453849	-0.003910	-0.000545	-0.007995	164.887999	-87.147463	-31.885668
22459	9.798373	0.111619	-0.488408	-0.001913	-0.001203	-0.007223	164.874141	-87.144462	-31.871399
22460	9.748166	0.096422	-0.474025	-0.002092	-0.001851	-0.004988	164.890879	-87.137372	-31.911156
22461	9.752767	0.089287	-0.507832	-0.001684	-0.007566	-0.005338	164.916993	-87.131128	-31.936781
22462	9.702539	0.074022	-0.493937	-0.006198	-0.005621	-0.005461	164.946661	-87.124016	-31.966327
22463	9.730439	0.115489	-0.517624	0.000783	-0.001840	-0.010107	164.904589	-87.120225	-31.922264
22464	9.725788	0.124160	-0.484508	-0.006180	-0.003045	-0.010748	164.862370	-87.112744	-31.907922
22465	9.757585	0.124769	-0.498088	-0.002433	-0.000573	-0.005804	164.862120	-87.110292	-31.907586
22466	9.752665	0.092947	-0.509141	-0.002159	0.002585	-0.003823	164.906846	-87.110608	-31.954643
22467	9.712035	0.102166	-0.516578	-0.003815	0.001964	-0.003779	164.920499	-87.109862	-31.969017
22468	9.693682	0.086478	-0.515136	-0.003021	0.004492	-0.003218	164.963788	-87.110061	-32.036965
22469	9.712081	0.103011	-0.515543	-0.002731	0.010227	-0.006523	164.923637	-87.113478	-31.996842
22470	9.761564	0.086080	-0.486210	-0.003814	0.001964	-0.003779	164.966914	-87.112650	-32.056464
22471	9.843593	0.102345	-0.513502	-0.002551	0.010877	-0.008759	164.900400	-87.116093	-31.989840
22472	9.807157	0.110774	-0.466179	-0.003473	0.000686	-0.002964	164.946119	-87.112499	-32.062474
22473	9.779966	0.103706	-0.486249	-0.001748	-0.003129	-0.004174	164.971736	-87.108873	-32.087639
22474	9.784585	0.096492	-0.519905	-0.001748	-0.003129	-0.004174	165.008844	-87.102780	-32.128407
22475	9.675651	0.113798	-0.467690	-0.003745	-0.002472	-0.004946	165.022812	-87.099399	-32.143053
22476	9.716737	0.098917	-0.547849	-0.001117	0.001328	-0.006663	165.013125	-87.093014	-32.179679
22477	9.698646	0.123460	-0.501928	-0.002320	0.004513	-0.006874	164.986480	-87.093206	-32.152849
22478	9.680047	0.068219	-0.544891	-0.000144	0.004506	-0.008338	164.964877	-87.092341	-32.149842
22479	9.697968	0.091312	-0.457611	-0.003270	0.008278	0.000183	165.003630	-87.095662	-32.189044
22480	9.780002	0.107496	-0.484700	-0.006995	0.008385	-0.010050	164.937900	-87.094229	-32.144354
22481	9.744030	0.109554	-0.525159	0.000199	0.003228	-0.007522	164.909429	-87.093606	-32.114259
22482	9.739410	0.117687	-0.491092	-0.000121	0.011450	-0.002954	164.921624	-87.095696	-32.148446
22483	9.775216	0.076986	-0.493520	-0.004906	0.010235	-0.005061	164.896449	-87.099313	-32.124583
22484	9.721106	0.102550	-0.488793	-0.001676	-0.007565	-0.005341	164.956712	-87.094015	-32.223704
22485	9.731168	0.121053	-0.598274	-0.004183	0.017200	-0.003333	164.930454	-87.101745	-32.198345
22486	9.720444	0.070151	-0.444046	-0.000321	0.003857	-0.006103	164.944353	-87.100225	-32.227867
22487	9.712389	0.112785	-0.507646	-0.008376	0.010921	-0.008028	164.882810	-87.103779	-32.169574
22488	9.757741	0.096966	-0.532360	-0.002568	0.008300	-0.003474	164.913910	-87.106437	-32.241548
22489	9.757255	0.103974	-0.443523	-0.002457	0.013386	-0.004543	164.886534	-87.111874	-32.214071
22490	9.780872	0.106298	-0.564714	-0.002045	0.007672	-0.004894	164.891520	-87.110194	-32.266313
22491	9.779622	0.079980	-0.432818	-0.003429	0.010207	-0.002870	164.891329	-87.114117	-32.266615
22492	9.766729	0.090036	-0.507567	-0.002837	0.005143	-0.005457	164.907427	-87.114285	-32.323012
22493	9.775724	0.121828	-0.441483	-0.000841	0.004487	-0.004683	164.905817	-87.114773	-32.320410
22494	9.749179	0.108231	-0.548531	-0.001252	0.010201	-0.004333	164.924398	-87.116325	-32.405011
22495	9.699186	0.132745	-0.488952	-0.005283	0.001992	-0.005977	164.913466	-87.115238	-32.395622
22496	9.716651	0.075935	-0.490770	-0.003610	0.009557	-0.000635	164.970185	-87.121557	-32.456436
22497	9.712742	0.117099	-0.499851	-0.000048	0.007016	-0.004121	164.967837	-87.123529	-32.452634
22498	9.703849	0.086218	-0.564385	-0.003317	0.015294	-0.003941	164.970197	-87.129576	-32.470479
22499	9.739240	0.092055	-0.434131	-0.002453	0.013388	-0.004545	164.942890	-87.135010	-32.443059
22500	9.758254	0.101952	-0.521924	-0.002564	0.008301	-0.003476	164.971296	-87.136567	-32.517848
22501	9.816527	0.076307	-0.470834	-0.001660	0.015917	-0.003984	164.943105	-87.143483	-32.489091
22502	9.771222	0.093259	-0.444137	-0.000995	0.006417	-0.007736	164.924658	-87.142590	-32.500172
22503	9.776721	0.119670	-0.520303	-0.005280	0.001992	-0.005980	164.913769	-87.141502	-32.490816
22504	9.757634	0.070746	-0.475498	-0.002564	0.008301	-0.003477	164.947490	-87.144029	-32.601716
22505	9.721847	0.112272	-0.471612	0.000889	0.000674	-0.005892	164.945083	-87.142225	-32.597323
22506	9.735367	0.096541	-0.483562	-0.003356	0.005772	-0.004039	164.967110	-87.145818	-32.631395
22507	9.726604	0.105642	-0.504111	-0.002832	0.005144	-0.005459	164.954053	-87.146554	-32.618478
22508	9.744963	0.122268	-0.504640	-0.001177	0.005767	-0.005501	164.965777	-87.147795	-32.647817
22509	9.762558	0.105469	-0.461814	-0.004218	0.007679	-0.003436	164.966867	-87.150235	-32.649859
22510	9.767317	0.098219	-0.494563	-0.003015	0.004493	-0.003224	165.024073	-87.153055	-32.785004
22511	9.785676	0.114827	-0.495051	-0.005166	0.007080	-0.007051	164.986267	-87.154631	-32.748643
22512	9.749020	0.083187	-0.492560	0.002362	0.000646	-0.003697	165.032345	-87.153968	-32.816128
22513	9.725957	0.074961	-0.457905	-0.005193	0.004498	-0.001763	165.061140	-87.154900	-32.846472
22514	9.735527	0.100003	-0.479634	-0.002491	0.003866	-0.004644	165.091562	-87.152635	-32.923991
22515	9.740279	0.092843	-0.512694	-0.003806	0.001964	-0.003787	165.106171	-87.151861	-32.939336
22516	9.708431	0.093351	-0.499155	-0.002151	0.002587	-0.003828	165.157349	-87.149095	-33.075831
22517	9.749091	0.085080	-0.490821	-0.002379	0.008953	-0.005714	165.130748	-87.151906	-33.049100
22518	9.735591	0.101871	-0.477933	-0.000312	0.003861	-0.006105	165.135921	-87.157503	-33.067774
22519	9.826423	0.109709	-0.484228	-0.005276	0.001992	-0.005983	165.125218	-87.156427	-33.058624
22520	9.812128	0.093112	-0.428486	-0.004145	0.003243	-0.004604	165.142451	-87.161478	-33.070695
22521	9.794569	0.110916	-0.470586	0.000101	-0.001853	-0.006455	165.140953	-87.158209	-33.067676
22522	9.776218	0.095483	-0.469874	-0.002345	-0.005006	-0.006978	165.167005	-87.156831	-33.111566
22523	9.699670	0.105966	-0.519101	-0.002078	-0.001849	-0.004995	165.180530	-87.153785	-33.124832
22524	9.708446	0.097892	-0.498007	-0.005276	0.001992	-0.005983	165.211250	-87.151475	-33.247055
22525	9.640690	0.099725	-0.525898	-0.001213	-0.003755	-0.005599	165.224136	-87.147282	-33.259189
22526	9.672570	0.100229	-0.538681	-0.000615	0.014665	-0.006823	165.225563	-87.145380	-33.405348
22527	9.712528	0.098492	-0.442071	-0.002224	0.007023	-0.002661	165.238993	-87.147579	-33.418621
22528	9.745186	0.132254	-0.497771	-0.008022	0.009642	-0.007226	165.231833	-87.150408	-33.515222
22529	9.799407	0.108099	-0.501245	0.001115	0.010853	-0.008031	165.176182	-87.153943	-33.457421
22530	9.776362	0.099954	-0.465923	-0.003272	0.008277	0.000178	165.252203	-87.155105	-33.596267
22531	9.771611	0.067844	-0.476586	-0.000495	0.003211	-0.003869	165.264516	-87.155013	-33.607447
22532	9.730994	0.116822	-0.439364	-0.003353	0.005773	-0.004042	165.306879	-87.154429	-33.735412
22533	9.722244	0.085992	-0.504461	-0.003353	0.005773	-0.004042	165.308191	-87.155729	-33.737226
22534	9.695170	0.118856	-0.479436	-0.004483	0.004522	-0.005422	165.288254	-87.160924	-33.675042
22535	9.681666	0.095645	-0.510945	-0.002111	0.012112	-0.003732	165.275105	-87.165789	-33.661658
22536	9.691273	0.120799	-0.531881	-0.005759	0.012144	-0.004469	165.289690	-87.171227	-33.775556
22537	9.740744	0.103891	-0.501618	-0.001659	0.015921	-0.003985	165.262710	-87.178166	-33.748073
22538	9.718508	0.128793	-0.508839	-0.003419	0.017150	0.002510	165.358857	-87.183634	-33.957025
22539	9.722602	0.087786	-0.497192	-0.001917	0.019706	-0.000583	165.359129	-87.193163	-33.956978
22540	9.749775	0.095195	-0.475130	-0.002965	0.020960	0.002256	165.419573	-87.204096	-34.085817
22541	9.763436	0.079046	-0.485363	-0.001728	0.020359	-0.002821	165.392778	-87.213665	-34.058562
22542	9.804089	0.110501	-0.431003	0.000792	0.019077	-0.003463	165.367423	-87.227279	-34.062793
22543	9.786663	0.128122	-0.471728	-0.005414	0.010866	-0.003658	165.356979	-87.231470	-34.054029
22544	9.772401	0.071362	-0.459566	-0.000184	0.015895	-0.001791	165.408455	-87.236795	-34.213352
22545	9.777207	0.103650	-0.447012	-0.004658	0.010811	0.002195	165.466078	-87.241797	-34.272304
22546	9.709584	0.105115	-0.473741	-0.000599	0.014671	-0.006828	165.381572	-87.254347	-34.140359
22547	9.741543	0.105465	-0.485513	-0.001837	0.015271	-0.001753	165.381898	-87.261263	-34.140322
22548	9.750336	0.097110	-0.463075	-0.002101	0.012115	-0.003737	165.389166	-87.267171	-34.180026
22549	9.768818	0.073669	-0.507592	-0.001425	0.009555	-0.002103	165.403040	-87.270869	-34.193323
22550	9.768756	0.113753	-0.461723	-0.002173	0.016552	-0.002572	165.433612	-87.280160	-34.351479
22551	9.740904	0.073132	-0.437444	-0.004733	0.008308	-0.002028	165.450448	-87.283179	-34.369648
22552	9.750526	0.098105	-0.458843	0.003951	0.005711	-0.002565	165.490430	-87.287491	-34.463959
22553	9.723536	0.090724	-0.478044	-0.005332	0.013371	0.000557	165.522036	-87.293693	-34.497249
22554	9.741027	0.073806	-0.434585	-0.001383	0.012142	-0.007394	165.501815	-87.296950	-34.525885
22555	9.764262	0.082887	-0.467801	-0.003415	0.010212	-0.002884	165.503814	-87.300904	-34.528438
22556	9.809643	0.106854	-0.447657	-0.002888	0.009585	-0.004303	165.544712	-87.303933	-34.697492
22557	9.777766	0.107337	-0.433708	-0.003342	0.005775	-0.004050	165.546643	-87.305260	-34.699936
22558	9.804986	0.075474	-0.457439	-0.002361	0.008959	-0.005723	165.519462	-87.309811	-34.649238
22559	9.786504	0.099564	-0.411776	-0.000717	-0.006968	-0.001730	165.588987	-87.304401	-34.717851
22560	9.796270	0.084996	-0.478502	-0.006272	0.005833	-0.008449	165.578389	-87.304912	-34.792759
22561	9.745869	0.109559	-0.419736	0.001843	-0.005662	-0.007660	165.575488	-87.299379	-34.787403
22562	9.769238	0.079103	-0.498599	-0.004618	0.006458	-0.008486	165.560229	-87.300843	-34.853892
22563	9.741138	0.078909	-0.431198	-0.001391	-0.011348	-0.008752	165.559947	-87.292000	-34.853021
22564	9.729450	0.122844	-0.550199	-0.002626	0.005802	-0.007706	165.514427	-87.295559	-34.802571
22565	9.758548	0.063068	-0.389212	-0.000864	-0.005034	-0.004785	165.541970	-87.290791	-34.829252
22566	9.737268	0.082070	-0.486173	-0.005523	-0.001163	-0.007980	165.524806	-87.291279	-34.861432
22567	9.755552	0.098987	-0.487339	-0.001012	-0.003100	-0.007839	165.510616	-87.287151	-34.846417
22568	9.791279	0.098390	-0.446203	-0.003457	0.000684	-0.002980	165.578800	-87.287210	-35.019569
22569	9.818473	0.066592	-0.470972	-0.001463	-0.006910	-0.007587	165.578762	-87.281007	-35.018987
22570	9.818230	0.107337	-0.427253	-0.002852	-0.011318	-0.010953	165.562129	-87.272863	-35.010218
22571	9.791323	0.061075	-0.493487	-0.003754	-0.018938	-0.010449	165.563557	-87.259579	-35.012417
22572	9.767888	0.093319	-0.415919	-0.002062	-0.008786	-0.010390	165.603807	-87.248324	-35.150404
22573	9.755215	0.104033	-0.493003	-0.000556	-0.022778	-0.009456	165.629656	-87.233045	-35.175224
22574	9.660423	0.098617	-0.542832	-0.000858	-0.011971	-0.010176	165.613605	-87.226676	-35.172097
22575	9.704875	0.089803	-0.481483	-0.002588	-0.008160	-0.008971	165.600809	-87.219584	-35.159394
22576	9.687300	0.108073	-0.525144	-0.000362	-0.022122	-0.011695	165.568013	-87.212039	-35.138457
22577	9.736658	0.091801	-0.496532	-0.007900	0.014732	-0.008309	165.492546	-87.217751	-35.066055
22578	9.758805	0.107723	-0.443455	-0.000548	-0.022776	-0.009460	165.601375	-87.198699	-35.326109
22579	9.754866	0.109656	-0.498659	-0.005153	0.007082	-0.007063	165.564550	-87.200342	-35.290821
22580	9.786744	0.110311	-0.512003	-0.000781	-0.009468	-0.005956	165.645702	-87.191523	-35.480359
22581	9.717285	0.085095	-0.409947	-0.002246	-0.009439	-0.008156	165.646237	-87.183842	-35.480808
22582	9.751039	0.073138	-0.599334	-0.003003	-0.002444	-0.008621	165.654768	-87.179270	-35.541979
22583	9.699699	0.103749	-0.453405	-0.002282	-0.012028	-0.002865	165.722168	-87.170900	-35.609396
22584	9.718133	0.080826	-0.499433	-0.002707	0.003302	-0.011927	165.632008	-87.175202	-35.575357
22585	9.745910	0.122485	-0.522600	-0.001046	-0.005686	-0.002551	165.685445	-87.170406	-35.628081
22586	9.722775	0.114414	-0.488322	-0.003761	0.004552	-0.009086	165.619060	-87.176308	-35.615916
22587	9.727824	0.067770	-0.566043	-0.001277	0.000684	-0.004436	165.632884	-87.174789	-35.629109
22588	9.708422	0.098209	-0.432455	-0.000491	0.003214	-0.003871	165.674791	-87.175963	-35.757073
22589	9.741278	0.092282	-0.532951	-0.002036	0.007679	-0.004901	165.662860	-87.178263	-35.744912
22590	9.736442	0.100401	-0.499099	-0.001428	0.002618	-0.007491	165.691961	-87.175085	-35.846703
22591	9.763496	0.108632	-0.478384	-0.004368	0.009612	-0.006498	165.655248	-87.178231	-35.811070
22592	9.750104	0.085470	-0.510316	-0.000937	-0.000596	-0.003620	165.682408	-87.177670	-35.824133
22593	9.763522	0.109412	-0.477688	-0.001885	0.005744	-0.001847	165.710609	-87.179329	-35.852073
22594	9.777165	0.093763	-0.489439	-0.005940	0.004551	-0.007629	165.738695	-87.174578	-35.912161
22595	9.745271	0.094429	-0.476105	-0.001535	-0.002472	-0.006423	165.739171	-87.171021	-35.912149
22596	9.754769	0.119916	-0.498188	-0.003080	0.001993	-0.007454	165.746329	-87.174816	-36.096722
22597	9.736491	0.104395	-0.497330	-0.002848	-0.004378	-0.005569	165.761139	-87.170328	-36.111816
22598	9.709466	0.097268	-0.517349	-0.003878	0.006398	-0.002627	165.796394	-87.173634	-36.206084
22599	9.777147	0.096750	-0.489203	-0.001006	-0.003096	-0.007844	165.782998	-87.169540	-36.191881
22600	9.745240	0.097376	-0.476151	-0.002401	-0.000567	-0.005820	165.795837	-87.169302	-36.256018
22601	9.777129	0.098089	-0.489308	-0.003080	0.001993	-0.007454	165.771197	-87.168093	-36.231746
22602	9.741343	0.099829	-0.530388	0.000905	0.000686	-0.005895	165.832476	-87.165460	-36.424173
22603	9.758890	0.083181	-0.487674	-0.002715	0.010239	-0.006536	165.795049	-87.168960	-36.386891
22604	9.754003	0.091457	-0.454499	-0.002153	-0.013873	-0.009330	165.778149	-87.164887	-36.443902
22605	9.764450	0.110688	-0.564678	-0.001509	0.007055	-0.006322	165.752813	-87.166656	-36.418032
22606	9.762740	0.084286	-0.433731	-0.001450	-0.006906	-0.007595	165.814308	-87.157550	-36.548321
22607	9.745430	0.062737	-0.521039	-0.003932	-0.003037	-0.012246	165.750146	-87.152877	-36.484968
22608	9.741962	0.137949	-0.574397	-0.002505	-0.005657	-0.004754	165.858617	-87.144170	-36.688535
22609	9.690114	0.095227	-0.429559	-0.003864	-0.000538	-0.008021	165.834779	-87.141478	-36.665524
22610	9.687169	0.090632	-0.571907	0.001585	-0.001872	-0.004262	165.816406	-87.142541	-36.580713
22611	9.668660	0.114660	-0.526192	-0.002483	0.003869	-0.004651	165.818441	-87.142773	-36.582817
22612	9.672861	0.074194	-0.515595	-0.004114	0.012768	-0.004510	165.776088	-87.153195	-36.576141
22613	9.723057	0.090910	-0.528700	-0.002906	0.009584	-0.004298	165.765613	-87.156658	-36.565960
22614	9.745246	0.106396	-0.474100	-0.002461	0.013395	-0.004548	165.713739	-87.167949	-36.557422
22615	9.773308	0.108211	-0.540699	-0.001848	0.008336	-0.007140	165.675358	-87.170324	-36.518688
22616	9.785996	0.098904	-0.464104	-0.000997	0.013367	-0.002348	165.756698	-87.176261	-36.793227
22617	9.745686	0.067851	-0.515579	-0.001102	0.008275	-0.001281	165.784987	-87.179431	-36.820818
22618	9.740823	0.075775	-0.481542	-0.002631	0.005805	-0.007707	165.825584	-87.179535	-37.015207
22619	9.768578	0.117380	-0.503969	-0.003349	0.005773	-0.004049	165.828693	-87.180926	-37.018881
22620	9.741603	0.110331	-0.523484	-0.001506	0.007057	-0.006324	165.760468	-87.189082	-36.965591
22621	9.713587	0.109570	-0.455116	-0.004217	0.007677	-0.003446	165.764363	-87.191623	-36.970549
22622	9.624621	0.129244	-0.578795	-0.002648	0.012740	-0.002312	165.819599	-87.198824	-37.173404
22623	9.632717	0.087166	-0.513127	-0.003451	0.017143	0.002516	165.864746	-87.207462	-37.219225
22624	9.632835	0.087084	-0.510920	-0.003576	0.028607	-0.000438	165.879383	-87.223101	-37.307895
22625	9.678210	0.110903	-0.488866	-0.000268	0.029863	-0.000512	165.855368	-87.238384	-37.282651
22626	9.800317	0.085497	-0.461893	-0.005792	0.035634	-0.003109	165.696961	-87.267618	-37.203146
22627	9.899999	0.084896	-0.443798	-0.003038	0.027986	-0.001864	165.659622	-87.281677	-37.166139
22628	9.917952	0.140876	-0.397683	-0.000479	0.019680	0.001621	165.599017	-87.299148	-37.057353
22629	9.823041	0.060941	-0.446067	-0.002494	0.010805	0.000738	165.643709	-87.304049	-37.102150
22630	9.736825	0.085358	-0.427841	-0.002604	0.005712	0.001806	165.702508	-87.312095	-37.225916
22631	9.702407	0.080268	-0.556196	-0.002894	0.009587	-0.004305	165.691295	-87.315610	-37.214978
22632	9.674267	0.079492	-0.487676	-0.000710	0.009591	-0.005760	165.682246	-87.319565	-37.231695
22633	9.760141	0.095432	-0.459590	-0.002955	0.007089	-0.008530	165.628405	-87.321094	-37.178117
22634	9.801655	0.120860	-0.493544	-0.002722	0.017179	-0.001150	165.591378	-87.336375	-37.180112
22635	9.809607	0.078939	-0.427844	-0.002638	0.012743	-0.002319	165.594073	-87.341933	-37.182948
22636	9.760283	0.096288	-0.456377	-0.001122	-0.001251	-0.001385	165.618680	-87.347251	-37.289153
22637	9.751621	0.105069	-0.476554	-0.003926	0.020364	-0.001367	165.608628	-87.357184	-37.279962
