// Start Time: Unknown
// Update Rate: 100.0Hz
// Filter Profile: human (46.1)
// Firmware Version: 4.6.0
PacketCounter	Acc_X	Acc_Y	Acc_Z	Gyr_X	Gyr_Y	Gyr_Z	Roll	Pitch	Yaw
46937	9.620049	1.484253	-0.428225	-0.044496	0.011944	-0.016609	106.134947	-80.880915	-60.993636
46938	9.587054	1.485403	-0.437530	-0.041275	0.004392	-0.012339	106.437982	-80.827864	-61.516520
46939	9.595044	1.474257	-0.405121	-0.041779	0.008284	-0.009893	106.265943	-80.853962	-61.265246
46940	9.596668	1.385039	-0.516787	-0.041858	0.002512	-0.006886	106.226526	-80.850577	-61.249612
46941	9.597374	1.416357	-0.407899	-0.033042	0.013467	-0.003450	106.142959	-80.857200	-61.186685
46942	9.606897	1.399580	-0.435059	-0.040423	0.002159	-0.000653	106.111769	-80.857184	-61.178553
46943	9.625541	1.451310	-0.437796	-0.033658	0.004443	-0.007663	106.060779	-80.856450	-61.147630
46944	9.605387	1.405461	-0.373903	-0.028186	0.001452	-0.003389	106.036329	-80.854814	-61.139223
46945	9.609222	1.341970	-0.437827	-0.031286	0.010518	-0.008031	105.957939	-80.857207	-61.080149
46946	9.641955	1.343178	-0.426334	-0.019601	-0.002020	-0.006232	105.947524	-80.853456	-61.080975
46947	9.653506	1.352691	-0.406317	-0.012454	0.006259	-0.008250	105.913770	-80.850994	-61.053828
46948	9.628035	1.310246	-0.492875	-0.001349	0.006127	-0.009231	105.883044	-80.846869	-61.023489
46949	9.572539	1.323636	-0.434755	0.008008	0.003241	-0.009149	105.875311	-80.844117	-61.010506
46950	9.613280	1.447986	-0.453134	0.008395	0.003531	-0.007687	105.860578	-80.840434	-60.990711
46951	9.623382	1.462141	-0.373746	0.009523	0.002964	-0.009443	105.875200	-80.833320	-60.997061
46952	9.621153	1.437312	-0.421508	-0.002238	0.004028	-0.011772	105.848746	-80.827463	-60.971564
46953	9.624529	1.459548	-0.432637	-0.006512	0.003632	-0.009044	105.823214	-80.828528	-60.950122
46954	9.590190	1.464490	-0.383519	-0.007990	-0.000349	-0.006135	105.813892	-80.825092	-60.945316
46955	9.635944	1.469791	-0.412735	-0.011908	-0.001894	-0.008088	105.813229	-80.823551	-60.950987
46956	9.618616	1.414823	-0.468724	-0.014821	0.000175	-0.007884	105.796527	-80.819232	-60.942671
46957	9.619624	1.360680	-0.414460	-0.015170	-0.004374	-0.006732	105.804763	-80.819193	-60.959443
46958	9.620462	1.442121	-0.420858	-0.015169	-0.004374	-0.006732	105.804490	-80.814800	-60.967971
46959	9.629886	1.425879	-0.449484	-0.013924	-0.003425	-0.008872	105.824679	-80.810443	-60.993905
46960	9.629780	1.426702	-0.449135	-0.018629	0.005840	-0.006687	105.787664	-80.807667	-60.967221
46961	9.618051	1.418800	-0.468286	-0.021882	-0.002337	-0.008863	105.785680	-80.808413	-60.977430
46962	9.611862	1.457952	-0.451250	-0.021495	-0.002047	-0.007400	105.773212	-80.804014	-60.977275
46963	9.616351	1.425273	-0.408440	-0.027583	-0.002382	-0.012366	105.778513	-80.803360	-60.997508
46964	9.605968	1.413299	-0.487529	-0.030726	-0.003349	-0.011394	105.761372	-80.796560	-60.997978
46965	9.619994	1.363814	-0.473352	-0.024667	-0.004451	-0.012571	105.777064	-80.789138	-61.024693
46966	9.585568	1.369258	-0.424426	-0.019776	-0.000727	-0.014602	105.754202	-80.780968	-61.013008
46967	9.627724	1.354249	-0.442090	-0.012204	-0.002102	-0.016075	105.776392	-80.777333	-61.039770
46968	9.606309	1.364139	-0.433214	-0.004015	-0.000153	-0.016850	105.758461	-80.768009	-61.023932
46969	9.602560	1.344829	-0.421761	-0.002529	-0.001861	-0.023288	105.775210	-80.759790	-61.038840
46970	9.589402	1.393333	-0.495729	0.008960	-0.001686	-0.022808	105.764226	-80.746936	-61.022506
46971	9.616972	1.379359	-0.414253	0.007688	-0.004073	-0.026813	105.794167	-80.740893	-61.046025
46972	9.635128	1.433024	-0.418094	0.016649	-0.001542	-0.024663	105.785319	-80.727044	-61.027393
46973	9.610873	1.503177	-0.404013	0.016493	0.001200	-0.026889	105.823457	-80.724363	-61.053126
46974	9.622768	1.429182	-0.438131	0.014865	-0.000044	-0.026212	105.807146	-80.709908	-61.027965
46975	9.638890	1.456904	-0.490006	0.017309	-0.002479	-0.021355	105.845924	-80.710962	-61.055792
46976	9.607761	1.484207	-0.452990	0.015638	0.000535	-0.023287	105.830938	-80.698233	-61.031528
46977	9.607408	1.486416	-0.453229	0.013625	-0.001000	-0.024071	105.880614	-80.695649	-61.069511
46978	9.607065	1.488545	-0.453516	0.009352	-0.001406	-0.021342	105.870561	-80.683702	-61.053889
46979	9.606732	1.490613	-0.453777	0.007453	-0.001424	-0.022509	105.906959	-80.683190	-61.084303
46980	9.596162	1.428915	-0.419488	0.007725	-0.002650	-0.020664	105.900875	-80.671444	-61.073648
46981	9.628658	1.431462	-0.409150	0.004197	-0.003913	-0.021154	105.930086	-80.671814	-61.100775
46982	9.631764	1.454651	-0.420907	0.006822	0.000947	-0.019673	105.912371	-80.661213	-61.078866
46983	9.629481	1.430900	-0.468965	0.007681	0.001606	-0.023274	105.943141	-80.656828	-61.099056
46984	9.644182	1.462863	-0.460930	0.012139	0.000712	-0.017632	105.931393	-80.647299	-61.080093
46985	9.622639	1.473101	-0.452386	0.009605	-0.004074	-0.025636	105.952740	-80.636751	-61.090498
46986	9.622285	1.475362	-0.452549	0.008179	0.003411	-0.022195	105.925308	-80.625089	-61.057929
46987	9.594484	1.523962	-0.426627	0.001124	0.000882	-0.023174	105.944480	-80.624422	-61.074560
46988	9.610036	1.470920	-0.472017	0.001013	-0.000635	-0.022790	105.925997	-80.611820	-61.055224
46989	9.603411	1.511458	-0.455122	-0.004303	-0.000405	-0.024830	105.943015	-80.601103	-61.066232
46990	9.601117	1.487999	-0.502998	0.001349	0.003913	-0.023939	105.908609	-80.588516	-61.030538
46991	9.617240	1.465184	-0.440581	0.005200	-0.000301	-0.018993	105.927594	-80.583491	-61.041837
46992	9.639621	1.454350	-0.509001	0.003523	0.002710	-0.020927	105.901345	-80.572352	-61.013142
46993	9.592074	1.455942	-0.420046	0.008344	0.000672	-0.019964	105.923880	-80.562478	-61.021486
46994	9.629341	1.475399	-0.480603	0.010223	-0.000750	-0.024937	105.909194	-80.548501	-61.000596
46995	9.594743	1.481567	-0.431801	0.006172	0.001872	-0.022976	105.961972	-80.541759	-61.039128
46996	9.617091	1.470963	-0.500338	0.012509	-0.000435	-0.022307	105.950535	-80.529245	-61.020165
46997	9.630211	1.507756	-0.432947	0.008983	-0.001704	-0.022796	105.963231	-80.520772	-61.022545
46998	9.631292	1.505362	-0.492914	0.006973	-0.003244	-0.023579	105.956563	-80.507077	-61.011628
46999	9.619810	1.529098	-0.405330	0.007247	-0.004467	-0.021734	106.003452	-80.497027	-61.044698
47000	9.617540	1.505593	-0.453843	0.002791	-0.003587	-0.027374	105.992102	-80.481126	-61.031436
47001	9.587414	1.447717	-0.470255	0.004327	-0.002411	-0.021529	106.039351	-80.475726	-61.069387
47002	9.603797	1.505885	-0.414540	0.006592	-0.003540	-0.025039	106.032597	-80.461117	-61.058553
47003	9.601578	1.482137	-0.463123	0.012567	-0.004689	-0.019692	106.081743	-80.456042	-61.094509
47004	9.619412	1.535333	-0.467341	0.020642	-0.004228	-0.020086	106.090139	-80.444044	-61.090858
47005	9.604231	1.507114	-0.475972	0.017336	-0.002468	-0.021342	106.137140	-80.430991	-61.113551
47006	9.616894	1.513264	-0.516502	0.019237	-0.002444	-0.020175	106.139025	-80.419113	-61.104065
47007	9.590616	1.506603	-0.436820	0.013281	0.000149	-0.019382	106.192955	-80.406935	-61.133732
47008	9.614805	1.521750	-0.457897	0.014236	-0.009151	-0.023891	106.210699	-80.391815	-61.143174
47009	9.601428	1.519724	-0.418884	0.003129	-0.009079	-0.022908	106.257280	-80.384220	-61.183732
47010	9.605632	1.457850	-0.484614	0.002855	-0.007860	-0.024753	106.263625	-80.368842	-61.188216
47011	9.616753	1.469237	-0.466060	0.011463	-0.011286	-0.027594	106.316362	-80.344924	-61.214594
47012	9.627863	1.480619	-0.447777	0.021823	-0.010496	-0.025361	106.341543	-80.328592	-61.227097
47013	9.597879	1.503401	-0.471191	0.027190	-0.004943	-0.026322	106.397205	-80.311653	-61.251079
47014	9.618747	1.497554	-0.480983	0.027851	-0.005868	-0.023015	106.413254	-80.297224	-61.250762
47015	9.616946	1.585199	-0.428439	0.024865	0.000434	-0.025428	106.453939	-80.282885	-61.262100
47016	9.603184	1.552548	-0.496507	0.021511	-0.003578	-0.023682	106.458671	-80.268351	-61.253934
47017	9.589867	1.550429	-0.457033	0.025527	-0.000490	-0.022120	106.466758	-80.262402	-61.244110
47018	9.614050	1.565319	-0.478094	0.018281	-0.004618	-0.016185	106.479958	-80.251830	-61.246421
47019	9.580939	1.566027	-0.489526	0.015998	-0.004946	-0.018811	106.570736	-80.238042	-61.309090
47020	9.570902	1.584708	-0.461806	0.014865	-0.004381	-0.017057	106.581072	-80.226887	-61.310397
47021	9.580325	1.569392	-0.490778	0.006129	-0.003936	-0.019967	106.616458	-80.213684	-61.329063
47022	9.586489	1.533205	-0.508170	0.012950	-0.005871	-0.024357	106.623839	-80.198181	-61.328433
47023	9.576355	1.552502	-0.480381	0.008505	-0.003554	-0.023861	106.657781	-80.176390	-61.335279
47024	9.585736	1.537521	-0.509336	0.022284	-0.002986	-0.020759	106.664839	-80.163136	-61.328828
47025	9.575653	1.556372	-0.481853	0.021862	-0.009049	-0.019211	106.721676	-80.142206	-61.350757
47026	9.581669	1.600559	-0.506329	0.030046	-0.007058	-0.019994	106.746726	-80.128495	-61.357991
47027	9.579927	1.607139	-0.448000	0.021759	-0.010568	-0.018823	106.838578	-80.113623	-61.423107
47028	9.544988	1.581771	-0.507723	0.020942	-0.005456	-0.018230	106.855517	-80.101031	-61.427336
47029	9.583867	1.626530	-0.521246	0.032070	-0.004047	-0.013082	106.941946	-80.087034	-61.476534
47030	9.564113	1.661852	-0.465510	0.028060	-0.007144	-0.014637	106.972162	-80.075972	-61.490019
47031	9.550565	1.627788	-0.533793	0.026489	-0.001165	-0.010833	107.033236	-80.060051	-61.513558
47032	9.547256	1.607203	-0.522928	0.028738	-0.006593	-0.005196	107.071450	-80.054056	-61.534688
47033	9.565030	1.658699	-0.527986	0.025020	-0.009437	0.001230	107.172183	-80.052237	-61.613075
47034	9.571295	1.701003	-0.552479	0.013349	-0.006952	-0.001479	107.206779	-80.048153	-61.639435
47035	9.563286	1.744363	-0.476909	0.003961	-0.004134	-0.001564	107.221020	-80.037348	-61.633286
47036	9.602244	1.675950	-0.590745	-0.009911	-0.004757	0.001859	107.238403	-80.035309	-61.655670
47037	9.579907	1.608032	-0.515898	-0.012668	-0.005437	0.004295	107.296145	-80.033046	-61.711704
47038	9.578135	1.581612	-0.564116	-0.013052	-0.005738	0.002835	107.316085	-80.031306	-61.738471
47039	9.588211	1.483285	-0.586188	-0.014763	-0.007032	0.010038	107.328150	-80.018321	-61.731688
47040	9.612722	1.495797	-0.607091	-0.009144	-0.004157	0.004778	107.346815	-80.017667	-61.754841
47041	9.580459	1.525231	-0.510392	-0.004364	-0.000460	0.009251	107.421861	-80.019502	-61.823667
47042	9.617934	1.541619	-0.570831	-0.008812	0.001858	0.009746	107.427416	-80.022534	-61.833268
47043	9.611497	1.579157	-0.553938	-0.008166	-0.000525	0.006921	107.506314	-80.026257	-61.912760
47044	9.605282	1.536196	-0.530268	-0.014411	0.003275	0.005862	107.501158	-80.027394	-61.914698
47045	9.605398	1.535583	-0.529936	-0.014343	-0.000971	0.008486	107.553819	-80.021379	-61.957953
47046	9.635185	1.514662	-0.507256	-0.014027	0.003575	0.007323	107.549770	-80.023209	-61.960724
47047	9.587951	1.402395	-0.518749	-0.007589	0.001338	0.001472	107.518926	-80.027460	-61.931626
47048	9.594334	1.444645	-0.541663	-0.003470	0.005948	0.002639	107.508414	-80.027178	-61.921735
47049	9.623793	1.505034	-0.525637	0.004658	0.000713	-0.001271	107.525400	-80.020728	-61.921926
47050	9.596178	1.470782	-0.493160	0.006981	0.006807	-0.001656	107.513945	-80.018150	-61.904973
47051	9.605674	1.534602	-0.527760	0.009528	0.004457	-0.003316	107.545168	-80.010033	-61.915432
47052	9.595922	1.551955	-0.498917	0.013263	0.008767	-0.003608	107.529584	-80.006611	-61.890582
47053	9.628746	1.553062	-0.487762	0.010295	0.005056	-0.000397	107.500861	-79.992036	-61.826522
47054	9.612021	1.577442	-0.549729	0.012024	0.007819	-0.001467	107.489071	-79.989401	-61.806214
47055	9.577843	1.581483	-0.500312	0.015060	0.007283	-0.002054	107.533477	-79.987579	-61.833479
47056	9.608866	1.556456	-0.537150	0.009912	0.004755	-0.001856	107.530010	-79.984158	-61.822811
47057	9.562901	1.632268	-0.513834	0.002255	0.010339	-0.003011	107.575058	-79.973474	-61.848360
47058	9.633342	1.569922	-0.556341	0.000699	0.004846	0.000295	107.568797	-79.971085	-61.840130
47059	9.566335	1.573003	-0.517579	-0.002998	0.006296	-0.002425	107.506318	-79.979392	-61.779652
47060	9.602352	1.595278	-0.517755	-0.006680	0.009214	0.000987	107.482311	-79.978229	-61.757763
47061	9.599253	1.573908	-0.505214	-0.006508	0.006484	0.003223	107.509756	-79.969220	-61.770297
47062	9.602493	1.594925	-0.516231	-0.003855	0.005649	0.001176	107.498933	-79.967384	-61.760084
47063	9.594462	1.526030	-0.540147	-0.000805	0.006581	0.006722	107.493636	-79.967925	-61.743051
47064	9.599540	1.572776	-0.503268	-0.002706	0.006549	0.005556	107.484827	-79.968575	-61.734203
47065	9.579771	1.575491	-0.553351	0.006614	0.007973	0.003019	107.557014	-79.972408	-61.798234
47066	9.596560	1.550752	-0.490305	0.000330	0.006013	0.004969	107.551731	-79.972649	-61.791160
47067	9.619349	1.537448	-0.558096	-0.000329	0.006928	0.001661	107.602160	-79.976856	-61.841414
47068	9.606463	1.533223	-0.517317	-0.005266	0.007432	0.001081	107.586082	-79.975236	-61.826602
47069	9.594996	1.524116	-0.536060	-0.005266	0.007432	0.001081	107.603125	-79.974222	-61.836779
47070	9.587024	1.567350	-0.458960	-0.004025	0.008379	-0.001060	107.582958	-79.971555	-61.817067
47071	9.593614	1.529260	-0.474819	-0.002889	0.007811	-0.002813	107.600956	-79.955319	-61.814617
47072	9.560810	1.528513	-0.484757	-0.000989	0.007843	-0.001646	107.584003	-79.952032	-61.796319
47073	9.593623	1.529666	-0.473320	0.002047	0.007308	-0.002232	107.587260	-79.954509	-61.796742
47074	9.565658	1.464557	-0.548016	0.009744	0.007485	-0.004084	107.575297	-79.949838	-61.777262
47075	9.591885	1.503900	-0.520158	0.017240	0.006099	0.000972	107.542761	-79.946749	-61.722790
47076	9.601488	1.567385	-0.554890	0.016858	0.005798	-0.000488	107.543191	-79.943676	-61.711758
47077	9.593454	1.610643	-0.478216	0.012027	0.007816	-0.001458	107.559400	-79.938192	-61.710627
47078	9.609848	1.555300	-0.522745	0.011922	0.006301	-0.001069	107.555105	-79.934803	-61.697631
47079	9.594988	1.605593	-0.536846	0.006507	0.006458	0.003409	107.537797	-79.940501	-61.673137
47080	9.595039	1.605491	-0.536246	0.007091	0.008318	-0.002040	107.523342	-79.936943	-61.652651
47081	9.609994	1.555074	-0.520726	-0.003048	0.012008	0.001079	107.554697	-79.927638	-61.669049
47082	9.538057	1.510703	-0.517978	0.003843	0.005824	-0.000678	107.547911	-79.924251	-61.658169
47083	9.561080	1.528812	-0.478441	0.002219	0.004577	0.000003	107.618168	-79.919370	-61.719264
47084	9.559197	1.583332	-0.532533	-0.000712	0.006628	0.000199	107.607812	-79.916530	-61.707347
47085	9.543048	1.558021	-0.480117	-0.003748	0.007163	0.000784	107.561801	-79.913206	-61.652475
47086	9.547991	1.605184	-0.443597	0.000658	-0.000914	0.003308	107.578070	-79.910693	-61.666805
47087	9.511856	1.663350	-0.449283	-0.006827	0.001940	0.004381	107.626196	-79.906394	-61.708314
47088	9.592238	1.583255	-0.520532	-0.005140	-0.001057	0.006325	107.642869	-79.905419	-61.726381
47089	9.620273	1.535922	-0.546240	0.001006	-0.004904	0.013914	107.655518	-79.916031	-61.739421
47090	9.615417	1.567770	-0.589219	0.006209	0.004850	0.016841	107.670579	-79.921855	-61.749272
47091	9.623854	1.634508	-0.564485	0.017983	0.003873	0.019176	107.802897	-79.931338	-61.871770
47092	9.581638	1.648587	-0.546630	0.007738	0.006051	0.022681	107.821998	-79.940533	-61.884768
47093	9.567304	1.616238	-0.554046	0.002313	0.004741	0.021026	107.865833	-79.958503	-61.931988
47094	9.566151	1.619257	-0.494120	-0.004737	0.002185	0.020051	107.887367	-79.965638	-61.954718
47095	9.607363	1.574880	-0.559261	-0.010534	0.002045	0.023068	107.925504	-79.978460	-61.997174
47096	9.604486	1.551675	-0.547111	-0.014226	0.003497	0.020344	107.938049	-79.985982	-62.016290
47097	9.619674	1.499092	-0.531795	-0.017525	0.006718	0.025213	107.924821	-80.004024	-62.013475
47098	9.641393	1.488489	-0.539765	-0.008787	0.006269	0.028134	107.939534	-80.016315	-62.031649
47099	9.625582	1.541126	-0.493942	-0.001352	0.009118	0.030572	107.967716	-80.045234	-62.070833
47100	9.619587	1.576565	-0.476246	-0.006178	0.011141	0.029600	107.970478	-80.059290	-62.075378
47101	9.600297	1.496365	-0.519054	-0.011387	0.012866	0.027167	107.959510	-80.077674	-62.069586
47102	9.635351	1.520543	-0.458935	-0.014900	0.013056	0.032813	107.954475	-80.093835	-62.071298
47103	9.622575	1.482736	-0.525134	-0.017411	0.008233	0.024826	107.958113	-80.119841	-62.094287
47104	9.654036	1.455250	-0.560807	-0.019899	0.016346	0.023472	107.930394	-80.131598	-62.075912
47105	9.623420	1.478398	-0.521867	-0.021907	0.014802	0.022691	107.880972	-80.162650	-62.053773
47106	9.640060	1.420862	-0.565228	-0.016970	0.014288	0.023278	107.860774	-80.174090	-62.041393
47107	9.663473	1.436841	-0.524265	-0.017404	0.018235	0.019195	107.793672	-80.192134	-61.985580
47108	9.632776	1.460471	-0.485242	-0.016760	0.015853	0.016370	107.761180	-80.200117	-61.960635
47109	9.664139	1.433726	-0.520504	-0.018167	0.017638	0.016275	107.766806	-80.219215	-61.980326
47110	9.630081	1.436373	-0.469782	-0.018548	0.017340	0.014814	107.727243	-80.226672	-61.949245
47111	9.625505	1.468705	-0.510658	-0.014538	0.018962	0.010246	107.683194	-80.240793	-61.914854
47112	9.619095	1.425302	-0.485355	-0.007594	0.019987	0.011618	107.638083	-80.247001	-61.871794
47113	9.611181	1.436574	-0.514670	-0.011613	0.016904	0.010050	107.607952	-80.276189	-61.865755
47114	9.619586	1.423337	-0.481365	-0.008888	0.023285	0.011138	107.550886	-80.282882	-61.811376
47115	9.601857	1.420847	-0.589676	-0.001523	0.018901	0.010456	107.504561	-80.311713	-61.782310
47116	9.628492	1.489753	-0.452508	0.000710	0.023470	0.010470	107.451321	-80.318232	-61.726299
47117	9.630389	1.484113	-0.510007	-0.007218	0.018823	0.006943	107.451566	-80.354391	-61.753869
47118	9.645438	1.513599	-0.499992	-0.003578	0.021606	0.007053	107.398439	-80.358969	-61.700527
47119	9.601356	1.534329	-0.420644	-0.012576	0.023290	0.002272	107.369482	-80.384116	-61.692176
47120	9.601535	1.503358	-0.525850	-0.017732	0.020777	0.002452	107.306343	-80.386196	-61.636944
47121	9.606409	1.469750	-0.480602	-0.017507	0.023805	0.001681	107.229078	-80.401925	-61.577353
47122	9.570408	1.447696	-0.477623	-0.019852	0.017721	0.002051	107.173966	-80.403334	-61.531529
47123	9.606676	1.469440	-0.476185	-0.012305	0.022068	0.004123	107.069912	-80.428767	-61.453209
47124	9.582171	1.455991	-0.453696	-0.007484	0.020036	0.005102	107.016803	-80.432378	-61.402309
47125	9.600540	1.506947	-0.455358	-0.004942	0.017683	0.003446	106.981197	-80.452531	-61.380468
47126	9.628438	1.460093	-0.479095	-0.006191	0.016735	0.005583	106.939898	-80.455966	-61.340831
47127	9.610676	1.489122	-0.480143	-0.001682	0.020169	0.002099	106.927438	-80.474361	-61.334029
47128	9.615485	1.455274	-0.435256	-0.000809	0.022274	0.004638	106.870345	-80.478312	-61.275270
47129	9.643710	1.489322	-0.464927	-0.003352	0.023173	0.000156	106.821618	-80.496124	-61.235275
47130	9.614492	1.509675	-0.485387	-0.003310	0.018924	0.002773	106.772133	-80.498596	-61.185715
47131	9.619237	1.476030	-0.440592	-0.006990	0.020389	0.000041	106.716467	-80.514095	-61.142543
47132	9.640631	1.467876	-0.447290	-0.007102	0.018874	0.000426	106.662493	-80.515350	-61.090667
47133	9.629287	1.459058	-0.464962	-0.007368	0.020093	-0.001421	106.580518	-80.541877	-61.033951
47134	9.632761	1.480517	-0.474431	-0.002590	0.022309	-0.003054	106.513970	-80.541956	-60.966783
47135	9.608108	1.467678	-0.452127	-0.007480	0.018578	-0.001036	106.426487	-80.566006	-60.903938
47136	9.585360	1.450053	-0.489335	-0.002096	0.024117	-0.001974	106.354767	-80.567114	-60.831316
47137	9.600243	1.480439	-0.479213	-0.003306	0.017469	-0.003363	106.339566	-80.582392	-60.821888
47138	9.629586	1.460271	-0.454860	-0.006340	0.018010	-0.002787	106.284965	-80.582167	-60.769105
47139	9.577073	1.493933	-0.407367	-0.006340	0.018010	-0.002787	106.305705	-80.594789	-60.789760
47140	9.636504	1.503313	-0.474351	-0.006339	0.018009	-0.002787	106.251571	-80.594643	-60.737443
47141	9.636554	1.503628	-0.472327	-0.009147	0.021578	-0.002979	106.181550	-80.612545	-60.686353
47142	9.601933	1.507889	-0.421616	-0.004216	0.021061	-0.002378	106.118670	-80.613212	-60.623981
47143	9.621864	1.474129	-0.476112	-0.005997	0.022550	-0.003937	106.025652	-80.624962	-60.542784
47144	9.523466	1.391603	-0.500740	-0.003075	0.020495	-0.004127	105.963323	-80.624630	-60.480348
47145	9.577907	1.464962	-0.502974	0.006058	0.016074	0.002906	105.913943	-80.634069	-60.431687
47146	9.618703	1.645332	-0.364031	0.002724	0.022081	-0.000981	105.852401	-80.635738	-60.366703
47147	9.630396	1.543250	-0.443384	-0.014827	0.021501	-0.006512	105.707437	-80.654485	-60.258075
47148	9.582603	1.432194	-0.453970	-0.015703	0.020846	-0.002915	105.636852	-80.654996	-60.194709
47149	9.653523	1.450507	-0.501167	-0.011720	0.012465	-0.001857	105.599967	-80.656791	-60.164840
47150	9.592325	1.526894	-0.377311	-0.004748	0.024945	0.000073	105.524632	-80.659563	-60.090302
47151	9.630271	1.463633	-0.428815	-0.006219	0.019518	-0.003168	105.461259	-80.670490	-60.038997
47152	9.612119	1.412392	-0.423398	-0.006607	0.020671	0.001509	105.400319	-80.673442	-59.980154
47153	9.621192	1.450177	-0.504196	0.000491	0.017512	-0.001000	105.385052	-80.686851	-59.965211
47154	9.585674	1.484895	-0.346198	-0.001060	0.022029	-0.003326	105.318312	-80.687406	-59.897284
47155	9.651861	1.456185	-0.429531	-0.008110	0.019492	-0.004346	105.141213	-80.706688	-59.762228
47156	9.633656	1.405289	-0.424202	-0.000031	0.019950	-0.004691	105.079742	-80.706262	-59.699141
47157	9.621357	1.451761	-0.496444	-0.005564	0.017142	-0.005997	105.089375	-80.711528	-59.702687
47158	9.623909	1.504372	-0.398285	-0.000699	0.025120	-0.010612	105.005057	-80.708623	-59.616822
47159	9.607801	1.449455	-0.452181	-0.006231	0.022313	-0.011919	104.880641	-80.715485	-59.510304
47160	9.604246	1.429556	-0.438600	-0.001024	0.019130	-0.015602	104.811584	-80.708958	-59.440137
47161	9.625812	1.503271	-0.451654	0.007297	0.019819	-0.007957	104.715484	-80.714663	-59.354553
47162	9.608777	1.478897	-0.398111	0.003335	0.026747	-0.015156	104.623290	-80.709496	-59.258445
47163	9.625370	1.424936	-0.441056	0.006175	0.018934	-0.012347	104.561796	-80.708594	-59.196363
47164	9.633404	1.494349	-0.414183	0.012196	0.023550	-0.009955	104.490150	-80.705830	-59.115939
47165	9.634516	1.521321	-0.364069	0.004888	0.022228	-0.012828	104.471786	-80.712193	-59.085488
47166	9.615295	1.526039	-0.412892	0.000075	0.024253	-0.013823	104.387779	-80.707433	-58.999576
47167	9.633139	1.497837	-0.407690	0.000594	0.021816	-0.010130	104.283163	-80.710737	-58.903547
47168	9.614014	1.502144	-0.456584	0.004493	0.023380	-0.008150	104.209344	-80.708998	-58.825421
47169	9.608451	1.567095	-0.389631	-0.000549	0.022378	-0.008382	104.171778	-80.719140	-58.788551
47170	9.579224	1.588252	-0.410387	0.001114	0.019377	-0.006436	104.111237	-80.717845	-58.725852
47171	9.608386	1.568514	-0.385507	-0.003470	0.024428	-0.008199	104.013756	-80.719295	-58.636335
47172	9.571225	1.520980	-0.430890	-0.009913	0.022412	0.000218	103.942048	-80.722103	-58.568737
47173	9.607401	1.543079	-0.429063	-0.008996	0.018821	-0.000764	103.917963	-80.732140	-58.544075
47174	9.587159	1.577185	-0.370411	-0.013435	0.021140	-0.000299	103.848216	-80.734521	-58.480514
47175	9.614275	1.505019	-0.441366	-0.016357	0.023189	-0.000116	103.714944	-80.748065	-58.375213
47176	9.615458	1.530770	-0.391022	-0.010914	0.020241	0.004195	103.652843	-80.752859	-58.317985
47177	9.633537	1.501096	-0.385713	-0.018762	0.022801	0.003759	103.548543	-80.761517	-58.231016
47178	9.643836	1.484019	-0.411443	-0.016238	0.024700	-0.000496	103.463837	-80.764288	-58.154001
47179	9.608892	1.487729	-0.360667	-0.013834	0.022288	0.004379	103.387814	-80.783178	-58.097903
47180	9.637401	1.521748	-0.389799	-0.015351	0.022555	0.004661	103.314851	-80.788591	-58.032307
47181	9.591242	1.516421	-0.358980	-0.017727	0.020722	0.002395	103.163940	-80.790216	-57.905165
47182	9.645355	1.509075	-0.353831	-0.019871	0.021914	-0.000633	103.085579	-80.792534	-57.836759
47183	9.590440	1.490552	-0.402283	-0.020646	0.022769	0.002578	103.022243	-80.797828	-57.786740
47184	9.562186	1.455869	-0.368495	-0.018987	0.019767	0.004523	102.955843	-80.802721	-57.729935
47185	9.561576	1.510614	-0.420699	-0.013655	0.018107	0.000470	102.868884	-80.807094	-57.661585
47186	9.562656	1.536247	-0.370463	-0.013829	0.022281	0.004386	102.796280	-80.812211	-57.595520
47187	9.590949	1.489589	-0.393631	-0.014546	0.017447	0.004062	102.781508	-80.831696	-57.590038
47188	9.591116	1.489022	-0.391697	-0.008393	0.019328	0.008701	102.725612	-80.838929	-57.537759
47189	9.609515	1.539577	-0.392786	-0.011429	0.019864	0.009262	102.668676	-80.869561	-57.499043
47190	9.645564	1.479953	-0.384734	-0.008022	0.019620	0.010167	102.612754	-80.877780	-57.446575
47191	9.617635	1.525298	-0.357417	-0.009539	0.019887	0.010448	102.546742	-80.900878	-57.397765
47192	9.628110	1.507450	-0.383631	-0.011427	0.019862	0.009263	102.486907	-80.908694	-57.343348
47193	9.596626	1.531723	-0.344925	-0.015435	0.016787	0.007651	102.436196	-80.919234	-57.302527
47194	9.617927	1.442129	-0.345230	-0.019386	0.020910	0.009198	102.367835	-80.927151	-57.244106
47195	9.610502	1.453724	-0.374371	-0.019618	0.017883	0.009957	102.311837	-80.938002	-57.202140
47196	9.593718	1.507891	-0.327340	-0.016329	0.016124	0.011243	102.263331	-80.946478	-57.162063
47197	9.571657	1.489030	-0.365371	-0.025535	0.011973	0.015903	102.277982	-80.963739	-57.183914
47198	9.635644	1.600131	-0.239466	-0.023724	0.009047	0.011325	102.250366	-80.971437	-57.169276
47199	9.591723	1.427570	-0.467428	-0.029636	0.010198	0.005923	102.178260	-80.989140	-57.132360
47200	9.569553	1.490832	-0.301511	-0.016694	0.015828	0.009783	102.129130	-80.996865	-57.091904
47201	9.615250	1.469484	-0.376398	-0.027747	0.010220	0.007109	102.085614	-81.007702	-57.069584
47202	9.629704	1.418252	-0.360652	-0.009960	0.012389	0.005833	102.049292	-81.012825	-57.038205
47203	9.604049	1.378458	-0.387416	-0.002469	0.018159	0.014124	101.944294	-81.032060	-56.957587
47204	9.657864	1.424631	-0.437129	0.016616	0.012784	0.015926	101.928778	-81.042928	-56.931903
47205	9.599172	1.519954	-0.325596	0.032581	0.022120	0.016634	101.935533	-81.064111	-56.910348
47206	9.600297	1.544275	-0.275795	0.026184	0.021470	0.010141	101.890277	-81.072817	-56.849011
47207	9.540892	1.532768	-0.416258	0.018978	0.018857	0.015602	101.804543	-81.095995	-56.773994
47208	9.559861	1.527720	-0.363556	0.008278	0.017793	0.011788	101.762709	-81.105242	-56.726557
47209	9.571245	1.535265	-0.342309	-0.003309	0.011822	0.014163	101.772288	-81.119581	-56.735296
47210	9.608003	1.500859	-0.286877	-0.008231	0.012338	0.013532	101.741902	-81.129192	-56.709020
47211	9.599845	1.486562	-0.365106	-0.016015	0.009226	0.009536	101.717833	-81.148069	-56.705503
47212	9.566979	1.404177	-0.369479	-0.013759	0.009538	0.012191	101.693189	-81.156668	-56.688271
47213	9.625624	1.442389	-0.328630	-0.011623	0.008336	0.015224	101.643456	-81.178170	-56.662309
47214	9.640616	1.470947	-0.319265	-0.016415	0.006119	0.016815	101.632719	-81.189032	-56.660729
47215	9.687877	1.555253	-0.352465	-0.021585	0.007859	0.014339	101.648197	-81.213510	-56.687752
47216	9.681994	1.481969	-0.226415	-0.018668	0.005806	0.014161	101.635485	-81.222936	-56.685496
47217	9.673025	1.442076	-0.352925	-0.032043	0.009827	0.009765	101.589024	-81.237458	-56.668497
47218	9.597790	1.456874	-0.346485	-0.016249	0.006197	0.010295	101.573214	-81.244799	-56.661723
47219	9.583428	1.371033	-0.299870	-0.020029	0.010406	0.005320	101.511777	-81.255786	-56.625250
47220	9.636674	1.337447	-0.343974	-0.017722	0.005038	0.004428	101.494719	-81.259735	-56.618093
47221	9.618359	1.285828	-0.340373	0.003223	0.008163	0.002238	101.486273	-81.268924	-56.606313
47222	9.647944	1.345477	-0.322730	0.010277	0.006440	0.005904	101.481216	-81.273901	-56.595079
47223	9.670046	1.417644	-0.336408	0.022899	0.010334	0.002172	101.478738	-81.292521	-56.588180
47224	9.605812	1.441890	-0.310591	0.024049	0.009774	0.000428	101.465250	-81.294890	-56.560462
47225	9.659073	1.408306	-0.354630	0.019933	0.018062	0.005898	101.474094	-81.316808	-56.554038
47226	9.625036	1.572858	-0.317541	0.030203	0.007385	0.007686	101.478499	-81.323070	-56.540868
47227	9.577875	1.541483	-0.336972	0.011008	0.011268	0.006238	101.410107	-81.337053	-56.486054
47228	9.642288	1.516463	-0.361113	0.004202	0.011768	0.004414	101.380608	-81.342017	-56.453695
47229	9.643193	1.541633	-0.312045	0.000804	0.007771	0.006101	101.335361	-81.347302	-56.428170
47230	9.628582	1.510876	-0.319544	-0.009331	0.011465	0.009131	101.302405	-81.354873	-56.400174
47231	9.600673	1.556226	-0.293288	-0.012482	0.006245	0.012662	101.290825	-81.378635	-56.404436
47232	9.599422	1.448845	-0.334761	-0.020144	0.004654	0.008281	101.276116	-81.385048	-56.401195
47233	9.599618	1.447784	-0.333716	-0.014417	0.011901	0.015020	101.227897	-81.408280	-56.373707
47234	9.582081	1.475925	-0.335801	-0.019282	0.002497	0.013436	101.225325	-81.417419	-56.382274
47235	9.571217	1.465713	-0.355213	-0.013258	0.002842	0.018474	101.275284	-81.444141	-56.435998
47236	9.582603	1.472763	-0.334776	-0.018178	0.003364	0.017838	101.273686	-81.455934	-56.444923
47237	9.614612	1.446068	-0.370915	-0.013625	0.002552	0.017007	101.244242	-81.480193	-56.447297
47238	9.637097	1.461950	-0.330359	-0.017811	0.007901	0.016709	101.224718	-81.491932	-56.437924
47239	9.637358	1.460370	-0.329722	-0.012229	0.000767	0.017107	101.238950	-81.507450	-56.467498
47240	9.633922	1.437563	-0.317739	-0.011618	0.008330	0.015225	101.220183	-81.518430	-56.455316
47241	9.590535	1.426765	-0.348414	-0.013133	0.004350	0.018099	101.261107	-81.539868	-56.497719
47242	9.601932	1.433708	-0.327879	-0.012765	0.004638	0.019567	101.259088	-81.552930	-56.503142
47243	9.605940	1.397955	-0.284750	-0.013009	0.001612	0.020319	101.254092	-81.568381	-56.514348
47244	9.595113	1.442577	-0.358119	-0.012641	0.006149	0.019192	101.245992	-81.581418	-56.513567
47245	9.560007	1.444326	-0.309682	0.000600	0.000591	0.023973	101.320630	-81.611100	-56.581990
47246	9.609767	1.387505	-0.343092	-0.005590	0.004414	0.022862	101.326321	-81.626087	-56.591079
47247	9.622068	1.474877	-0.328481	-0.009482	0.002869	0.020858	101.326283	-81.647451	-56.602917
47248	9.628978	1.434537	-0.345049	-0.003827	0.002915	0.024430	101.339888	-81.663197	-56.619004
47249	9.589406	1.444394	-0.387606	-0.005834	0.001386	0.023615	101.380834	-81.690100	-56.660436
47250	9.655642	1.468678	-0.316218	-0.011491	-0.002911	0.022639	101.411354	-81.704246	-56.698075
47251	9.579773	1.456976	-0.359327	-0.019566	-0.003351	0.022933	101.450733	-81.722707	-56.755190
47252	9.586637	1.416600	-0.376280	-0.027272	-0.003503	0.024696	101.476385	-81.737960	-56.797054
47253	9.584053	1.418734	-0.316932	-0.020673	-0.008466	0.021125	101.528522	-81.750028	-56.864758
47254	9.622519	1.353421	-0.370877	-0.032679	-0.004774	0.022970	101.554898	-81.764161	-56.910484
47255	9.617204	1.414864	-0.305866	-0.019565	-0.007611	0.025529	101.608619	-81.793946	-56.981814
47256	9.638039	1.378826	-0.362784	-0.029274	-0.005035	0.023886	101.639061	-81.808635	-57.029704
47257	9.625354	1.453167	-0.328961	-0.028988	-0.007679	0.019579	101.688085	-81.831546	-57.100563
47258	9.643247	1.421765	-0.326262	-0.030009	-0.005609	0.020952	101.718338	-81.844575	-57.148705
47259	9.642422	1.339176	-0.320976	-0.030995	-0.009207	0.018765	101.741043	-81.871181	-57.203555
47260	9.642669	1.337363	-0.321102	-0.026229	-0.001334	0.020744	101.756632	-81.884673	-57.234734
47261	9.636505	1.373492	-0.303985	-0.018036	-0.003644	0.022663	101.812345	-81.909359	-57.300999
47262	9.607092	1.367041	-0.375321	-0.012341	-0.005022	0.020082	101.850266	-81.922099	-57.346711
47263	9.604493	1.369258	-0.316340	-0.013211	-0.011360	0.020109	101.893452	-81.946943	-57.410610
47264	9.614933	1.350632	-0.345491	-0.006771	-0.007914	0.017874	101.944371	-81.958166	-57.466260
47265	9.614211	1.323309	-0.394532	-0.004272	-0.008850	0.022374	101.988247	-81.983470	-57.525255
47266	9.625621	1.329896	-0.375461	0.004578	-0.009262	0.018861	102.052131	-81.995138	-57.587459
47267	9.647215	1.319700	-0.384930	0.012896	-0.010064	0.020404	102.112809	-82.025483	-57.648748
47268	9.638506	1.415208	-0.363074	0.015404	-0.006745	0.022314	102.176191	-82.039468	-57.704220
47269	9.625056	1.463861	-0.378092	0.004175	-0.008137	0.023546	102.252836	-82.065196	-57.783348
47270	9.639076	1.410881	-0.364782	0.001549	-0.008714	0.019421	102.314191	-82.077366	-57.844808
47271	9.629183	1.425647	-0.337210	-0.005413	-0.008289	0.024126	102.381227	-82.103651	-57.924179
47272	9.608139	1.431643	-0.329584	-0.010581	-0.010777	0.024244	102.448737	-82.118309	-57.998890
47273	9.629804	1.421046	-0.338902	-0.010580	-0.010778	0.024244	102.602057	-82.145109	-58.140101
47274	9.600050	1.359025	-0.357058	-0.012095	-0.010504	0.024524	102.669045	-82.159986	-58.215158
47275	9.607736	1.343788	-0.326910	-0.015260	-0.015726	0.028047	102.768194	-82.185916	-58.330852
47276	9.661931	1.333275	-0.325229	-0.014857	-0.016851	0.023363	102.859106	-82.199362	-58.431670
47277	9.654508	1.288477	-0.304015	-0.021287	-0.016034	0.023014	102.959209	-82.222115	-58.547748
47278	9.661312	1.303642	-0.376329	-0.010682	-0.017963	0.021056	103.055709	-82.234138	-58.651804
47279	9.666509	1.348184	-0.340855	-0.009937	-0.017400	0.023993	103.174510	-82.255902	-58.782491
47280	9.659378	1.358788	-0.373452	-0.011568	-0.014379	0.022059	103.257596	-82.268948	-58.873532
47281	9.639423	1.390484	-0.318207	-0.017865	-0.021969	0.020362	103.484021	-82.292005	-59.087087
47282	9.652403	1.367715	-0.407896	-0.020637	-0.018390	0.020178	103.578058	-82.303464	-59.194413
47283	9.612319	1.323056	-0.398403	-0.019249	-0.020181	0.020271	103.647992	-82.327108	-59.303431
47284	9.661406	1.376408	-0.331526	-0.020262	-0.018111	0.021648	103.743094	-82.339448	-59.411647
47285	9.613928	1.344478	-0.353378	-0.017988	-0.023489	0.020737	103.902127	-82.362890	-59.579651
47286	9.625393	1.351047	-0.335395	-0.017859	-0.021976	0.020365	104.014401	-82.373983	-59.703817
47287	9.614323	1.340597	-0.357365	-0.021269	-0.025968	0.022047	104.201516	-82.395151	-59.897843
47288	9.620657	1.300629	-0.376619	-0.018602	-0.022540	0.017430	104.313801	-82.404504	-60.022452
47289	9.674716	1.290497	-0.375852	-0.011306	-0.025556	0.022921	104.518513	-82.428255	-60.223960
47290	9.614898	1.334729	-0.363787	-0.004620	-0.023355	0.022517	104.649006	-82.440281	-60.358859
47291	9.606380	1.320074	-0.445511	-0.013957	-0.024724	0.024957	104.744836	-82.464216	-60.487231
47292	9.601815	1.381152	-0.382390	-0.000086	-0.028454	0.024255	104.902015	-82.476444	-60.646457
47293	9.604249	1.319404	-0.391113	-0.010172	-0.030381	0.023761	105.095881	-82.499924	-60.844735
47294	9.640918	1.338651	-0.393562	-0.005117	-0.025156	0.021423	105.234518	-82.511023	-60.988178
47295	9.635834	1.289954	-0.433339	-0.005629	-0.031217	0.022914	105.401969	-82.526528	-61.168300
47296	9.604787	1.313038	-0.399261	0.000554	-0.030815	0.021408	105.568615	-82.536679	-61.336722
47297	9.601097	1.289453	-0.390854	0.000299	-0.028185	0.025725	105.725089	-82.559904	-61.506539
47298	9.626462	1.299811	-0.413662	0.004831	-0.033287	0.027460	105.913053	-82.572935	-61.694007
47299	9.659293	1.297269	-0.405493	0.011271	-0.029857	0.025206	106.117244	-82.593192	-61.892760
47300	9.626871	1.294762	-0.419922	0.012657	-0.031653	0.025296	106.301721	-82.605176	-62.072194
47301	9.656116	1.326338	-0.454041	0.017203	-0.026829	0.028013	106.532469	-82.625531	-62.289330
47302	9.628915	1.314356	-0.377478	0.006853	-0.030380	0.034436	106.721580	-82.642609	-62.476785
47303	9.646843	1.337005	-0.431585	0.008749	-0.031779	0.029464	106.948838	-82.659106	-62.702893
47304	9.658494	1.342596	-0.415039	0.001556	-0.035767	0.028791	107.152391	-82.672028	-62.907962
47305	9.643427	1.309986	-0.427118	-0.007776	-0.037121	0.031253	107.459351	-82.687338	-63.203893
47306	9.642032	1.281760	-0.478991	-0.011306	-0.038358	0.030732	107.671329	-82.700651	-63.424864
47307	9.640010	1.282794	-0.422785	-0.009153	-0.035332	0.031168	107.909784	-82.721615	-63.670294
47308	9.641926	1.305196	-0.377940	-0.016856	-0.041111	0.029406	108.130480	-82.733536	-63.903261
47309	9.596296	1.268997	-0.461120	-0.024170	-0.042343	0.026526	108.408039	-82.749498	-64.195100
47310	9.617656	1.257778	-0.473880	-0.017116	-0.048420	0.032744	108.666587	-82.761669	-64.466369
47311	9.631063	1.288563	-0.410177	-0.015229	-0.049820	0.027769	108.944406	-82.783413	-64.764613
47312	9.592853	1.239331	-0.462854	-0.015335	-0.045677	0.031715	109.192923	-82.795290	-65.024753
47313	9.604520	1.244777	-0.447502	-0.011567	-0.051351	0.030505	109.483928	-82.807097	-65.329708
47314	9.629513	1.199220	-0.418792	-0.002493	-0.053044	0.028775	109.768593	-82.815670	-65.618865
47315	9.641178	1.204755	-0.403966	0.004581	-0.050588	0.029809	110.101618	-82.827670	-65.946078
47316	9.652919	1.180986	-0.497281	0.014289	-0.053246	0.031382	110.402672	-82.837230	-66.242054
47317	9.651062	1.181898	-0.443100	0.018315	-0.055891	0.029422	110.750465	-82.849234	-66.582123
47318	9.649427	1.238428	-0.442686	0.023367	-0.054950	0.029648	111.063019	-82.857123	-66.884447
47319	9.637930	1.227217	-0.468478	0.028129	-0.062707	0.027052	111.445631	-82.857950	-67.249274
47320	9.599657	1.262659	-0.468612	0.025753	-0.063109	0.030946	111.797697	-82.864331	-67.590032
47321	9.646303	1.348757	-0.449546	0.026244	-0.062715	0.025884	112.201991	-82.870020	-67.972410
47322	9.582061	1.202109	-0.538261	0.021714	-0.066143	0.029355	112.563264	-82.874352	-68.324774
47323	9.622079	1.156564	-0.610820	0.025901	-0.065885	0.033174	112.970205	-82.881326	-68.717133
47324	9.632676	1.250324	-0.484005	0.029057	-0.069217	0.034811	113.359705	-82.887256	-69.093701
47325	9.617207	1.272715	-0.553414	0.027901	-0.074332	0.033012	113.819527	-82.891546	-69.536385
47326	9.643012	1.366637	-0.526510	0.025449	-0.066305	0.038256	114.202649	-82.899281	-69.908605
47327	9.633786	1.324561	-0.451137	0.010780	-0.073004	0.035168	114.625892	-82.900664	-70.327428
47328	9.651631	1.257725	-0.623690	0.008370	-0.079073	0.035510	115.048540	-82.903232	-70.749336
47329	9.615950	1.317666	-0.576219	0.002176	-0.069628	0.044570	115.535337	-82.910262	-71.222347
47330	9.534487	1.373285	-0.499320	-0.000626	-0.075975	0.043450	115.957224	-82.916870	-71.648667
47331	9.597708	1.343441	-0.533770	-0.016082	-0.087496	0.040053	116.429101	-82.913728	-72.131728
47332	9.626696	1.318075	-0.519805	-0.030309	-0.088237	0.042023	116.882478	-82.915608	-72.606918
47333	9.635843	1.352663	-0.610215	-0.044927	-0.089255	0.042534	117.413862	-82.917059	-73.155564
47334	9.617379	1.293965	-0.675161	-0.054023	-0.097495	0.043369	117.895022	-82.916149	-73.672442
47335	9.608393	1.251481	-0.601028	-0.063262	-0.088873	0.046896	118.381750	-82.918831	-74.197629
47336	9.569127	1.345392	-0.596659	-0.060152	-0.102179	0.047556	118.887702	-82.917660	-74.743034
47337	9.536978	1.430069	-0.501835	-0.078231	-0.098744	0.051181	119.400790	-82.924686	-75.312206
47338	9.617841	1.458186	-0.421185	-0.118339	-0.107451	0.051577	119.904011	-82.922864	-75.888465
47339	9.623162	1.176033	-0.742046	-0.150579	-0.118717	0.045789	120.481551	-82.911675	-76.548010
47340	9.624578	1.001673	-0.651043	-0.146337	-0.114234	0.047013	120.983454	-82.904281	-77.139128
47341	9.549581	1.015806	-0.653208	-0.137763	-0.126381	0.049287	121.577898	-82.893869	-77.816343
47342	9.591868	1.086146	-0.507906	-0.100451	-0.119790	0.045129	122.120449	-82.882469	-78.421963
47343	9.650093	1.241821	-0.407154	-0.117741	-0.121336	0.041652	122.703798	-82.869087	-79.070959
47344	9.688956	1.245598	-0.657113	-0.134753	-0.124138	0.040026	123.226719	-82.852434	-79.676647
47345	9.710327	1.227351	-0.796203	-0.142768	-0.124535	0.040511	123.797218	-82.836196	-80.331284
47346	9.648312	1.191529	-0.784329	-0.163676	-0.110258	0.032846	124.227814	-82.819223	-80.860675
47347	9.616860	1.068201	-0.877633	-0.163796	-0.130406	0.037361	124.761913	-82.799912	-81.498760
47348	9.614609	1.134650	-0.702222	-0.182160	-0.131413	0.035734	125.262636	-82.776210	-82.109569
47349	9.678961	0.925912	-0.822459	-0.208128	-0.136647	0.032098	125.756417	-82.749690	-82.734074
47350	9.638153	0.825967	-0.769399	-0.186648	-0.136151	0.026603	126.239887	-82.718861	-83.330166
47351	9.667979	1.002395	-0.749285	-0.164756	-0.139494	0.018567	126.734478	-82.684585	-83.929531
47352	9.602363	0.879301	-0.914762	-0.148279	-0.126024	0.024475	127.188896	-82.655025	-84.474264
47353	9.630065	0.848503	-1.084254	-0.117150	-0.128200	0.020273	127.675146	-82.622624	-85.035033
47354	9.582071	1.026070	-0.923177	-0.072971	-0.124963	0.019651	128.147506	-82.590121	-85.554433
47355	9.592137	1.151223	-0.899642	-0.068322	-0.124316	0.018334	128.618149	-82.557755	-86.075925
47356	9.655934	1.202992	-1.002822	-0.072835	-0.119157	0.016776	129.054337	-82.524994	-86.558852
47357	9.651662	1.182924	-0.942680	-0.080600	-0.116486	0.016596	129.462601	-82.491290	-87.025711
47358	9.652585	1.065753	-0.908604	-0.091611	-0.116306	0.017798	129.873418	-82.459119	-87.493976
47359	9.729319	1.188874	-0.864258	-0.081225	-0.111644	0.023867	130.288179	-82.427923	-87.963299
47360	9.552215	1.068522	-0.897397	-0.096149	-0.106831	0.013738	130.646774	-82.396652	-88.381579
47361	9.656291	1.152371	-0.701532	-0.063998	-0.105404	0.011561	131.006264	-82.361495	-88.785693
47362	9.603000	1.224890	-0.582549	-0.093079	-0.097235	0.007683	131.312371	-82.330563	-89.149308
47363	9.750104	0.957215	-1.132549	-0.100135	-0.099690	0.006818	131.611082	-82.294871	-89.513178
47364	9.735376	1.068239	-1.144904	-0.061532	-0.099379	0.011255	131.946458	-82.264121	-89.888151
47365	9.749762	1.095341	-1.204112	-0.067113	-0.083445	0.006103	132.205663	-82.234394	-90.194347
47366	9.648651	1.037772	-1.307734	-0.073817	-0.085393	0.000165	132.454235	-82.203859	-90.488872
47367	9.610226	1.197573	-1.229569	-0.066730	-0.082977	0.001042	132.689866	-82.171167	-90.770888
47368	9.613420	1.385579	-0.912400	-0.089937	-0.067232	-0.009139	132.843428	-82.143478	-90.978879
47369	9.657063	1.151353	-1.101499	-0.128139	-0.079373	0.000304	133.035589	-82.111993	-91.252188
47370	9.618145	1.130430	-1.165553	-0.118272	-0.066266	-0.000180	133.192582	-82.088255	-91.480067
47371	9.581849	1.095922	-0.919765	-0.122455	-0.070824	-0.001350	133.348846	-82.059381	-91.715491
47372	9.576665	0.852621	-1.257571	-0.116598	-0.060975	0.003170	133.498096	-82.038951	-91.934616
47373	9.586053	0.857669	-1.362380	-0.070282	-0.054885	0.009061	133.668831	-82.020174	-92.153379
47374	9.550824	0.856913	-1.435924	-0.033914	-0.049127	0.014409	133.860446	-82.008907	-92.367470
47375	9.622350	0.996427	-1.295476	-0.006176	-0.041162	0.016717	134.043754	-81.998784	-92.563264
47376	9.619458	1.212494	-1.135000	0.015623	-0.040520	0.018880	134.250228	-81.992589	-92.763715
47377	9.617601	1.310275	-0.991811	0.010935	-0.040939	0.013722	134.433805	-81.981052	-92.950154
47378	9.593214	1.295997	-0.974969	-0.021773	-0.043945	0.008484	134.598351	-81.969053	-93.129915
47379	9.618214	1.131583	-1.024986	-0.053207	-0.035960	0.002251	134.695140	-81.954639	-93.266264
47380	9.566415	1.024507	-0.984514	-0.041491	-0.041282	0.000215	134.816168	-81.940242	-93.413501
47381	9.594114	1.000791	-1.028102	-0.043408	-0.041250	-0.000900	134.927236	-81.921831	-93.557245
47382	9.607393	0.968780	-1.150664	-0.013508	-0.032516	-0.009125	135.011682	-81.907116	-93.651359
47383	9.726832	1.017298	-1.127918	-0.005796	-0.030848	-0.011546	135.086000	-81.889086	-93.736956
47384	9.743271	1.066794	-1.251406	0.020524	-0.014879	-0.018694	135.112113	-81.877627	-93.752464
47385	9.723151	1.196528	-1.165961	0.019191	-0.021511	-0.020208	135.141271	-81.860177	-93.780160
47386	9.737988	1.167112	-1.226794	0.002794	-0.002266	-0.024668	135.104543	-81.851421	-93.742454
47387	9.700809	1.148702	-1.225590	0.005143	-0.002059	-0.022092	135.070405	-81.839845	-93.711365
47388	9.589056	1.129382	-1.082665	-0.004890	-0.002125	-0.029131	135.016451	-81.829327	-93.660710
47389	9.609844	1.166052	-0.894950	-0.034114	-0.012102	-0.041944	134.930342	-81.805623	-93.600053
47390	9.678128	0.951281	-1.042124	-0.074902	-0.011165	-0.049032	134.806410	-81.783343	-93.519228
47391	9.621453	0.748115	-0.927537	-0.056278	-0.023732	-0.057937	134.701811	-81.749684	-93.454157
47392	9.638729	0.784770	-0.861392	-0.062882	-0.038477	-0.062848	134.624247	-81.710730	-93.413220
47393	9.671175	0.791058	-0.855223	-0.062596	-0.031773	-0.077309	134.481491	-81.664803	-93.312009
47394	9.748330	0.644771	-1.096670	-0.054165	-0.037486	-0.091394	134.329911	-81.614531	-93.191211
47395	9.722046	0.798382	-1.321163	-0.029864	-0.031398	-0.100826	134.143091	-81.559632	-93.027065
47396	9.685775	0.789242	-1.262657	-0.031755	-0.029560	-0.108812	133.939494	-81.505229	-92.840667
47397	9.609507	0.996238	-1.166694	-0.000403	-0.020980	-0.117413	133.705500	-81.447584	-92.611359
47398	9.608924	0.948805	-1.177776	0.006445	-0.023862	-0.126779	133.466465	-81.387756	-92.366935
47399	9.589298	1.049860	-1.171502	0.013069	-0.027559	-0.124540	133.248038	-81.322695	-92.143491
47400	9.516906	1.081097	-1.042504	0.035867	-0.017057	-0.129609	133.006678	-81.264050	-91.879591
47401	9.537368	1.186391	-0.788354	0.022406	-0.032802	-0.135691	132.785639	-81.192383	-91.648264
47402	9.547074	0.906480	-1.055120	0.020844	-0.022292	-0.140691	132.529300	-81.126704	-91.377830
47403	9.601585	0.811754	-1.206856	0.055785	-0.024452	-0.136655	132.315132	-81.057226	-91.132772
47404	9.565551	0.883684	-1.209358	0.085286	-0.011930	-0.135837	132.087039	-80.997257	-90.853466
47405	9.530541	1.055683	-1.343834	0.123898	-0.017646	-0.146650	131.867905	-80.927311	-90.566404
47406	9.482335	1.362807	-1.092453	0.132808	-0.007243	-0.160959	131.601948	-80.858032	-90.221076
47407	9.579424	1.394896	-1.198010	0.077305	-0.011008	-0.166320	131.300262	-80.780527	-89.876990
47408	9.595063	0.978519	-1.349370	0.103511	-0.006608	-0.167780	131.009920	-80.707989	-89.523827
47409	9.443688	1.047414	-1.059069	0.147193	-0.013062	-0.171622	130.755821	-80.624549	-89.185493
47410	9.359406	0.972342	-1.156250	0.138361	-0.008229	-0.176748	130.479613	-80.546960	-88.826269
47411	9.440830	0.877151	-1.139152	0.134236	-0.038305	-0.190281	130.254492	-80.445110	-88.524068
47412	9.593660	1.268726	-1.119810	0.214992	-0.012588	-0.204443	129.984052	-80.353252	-88.125982
47413	9.579421	1.650274	-0.617786	0.190623	-0.038110	-0.223201	129.733635	-80.234979	-87.764507
47414	9.655004	1.325751	-1.183404	0.167875	-0.034781	-0.212907	129.488488	-80.130671	-87.419248
47415	9.639391	1.790544	-0.687465	0.163108	-0.061578	-0.218712	129.303783	-80.006414	-87.140195
47416	9.425524	1.331614	-1.099044	0.146964	-0.043350	-0.232992	129.039757	-79.889616	-86.787698
47417	9.638107	1.322503	-1.112366	0.133586	-0.071614	-0.227981	128.852944	-79.755960	-86.523189
47418	9.368803	1.322107	-1.060911	0.181758	-0.057055	-0.231059	128.659697	-79.634644	-86.222106
47419	9.739839	1.759894	-1.031089	0.179939	-0.082375	-0.257372	128.482008	-79.486345	-85.937119
47420	9.604224	1.448358	-1.400507	0.151899	-0.058607	-0.245401	128.260269	-79.357661	-85.624203
47421	9.750512	1.961912	-1.008457	0.088168	-0.090477	-0.238976	128.097144	-79.215969	-85.411237
47422	9.667464	1.803456	-1.386397	0.078283	-0.079756	-0.232216	127.919451	-79.085406	-85.185842
47423	9.564040	2.431717	-0.881172	-0.013845	-0.085013	-0.258356	127.659124	-78.938008	-84.934184
47424	9.804473	1.638455	-1.467835	-0.125987	-0.097261	-0.253110	127.379261	-78.791481	-84.723731
47425	9.836100	1.797336	-1.154629	-0.056531	-0.109796	-0.237935	127.199521	-78.644467	-84.579028
47426	9.726305	1.877269	-1.181860	-0.118538	-0.102598	-0.235893	126.976279	-78.503660	-84.421778
47427	9.847420	1.879154	-1.264640	-0.111558	-0.120962	-0.227037	126.816695	-78.357577	-84.329764
47428	9.472773	1.931068	-1.229002	-0.128263	-0.097924	-0.226116	126.602009	-78.222656	-84.186789
47429	9.402846	1.958598	-0.913459	-0.196119	-0.107133	-0.233328	126.360563	-78.078190	-84.060636
47430	9.430566	1.420796	-1.377872	-0.207430	-0.111728	-0.243809	126.111025	-77.930178	-83.928260
47431	9.396762	1.386356	-1.401457	-0.163953	-0.098176	-0.256935	125.840816	-77.777580	-83.753654
47432	9.425118	1.245567	-1.793134	-0.123758	-0.093466	-0.260692	125.583822	-77.627574	-83.564436
47433	9.403696	1.427705	-1.764795	-0.082058	-0.076894	-0.269165	125.308472	-77.476035	-83.336261
47434	9.541913	1.801051	-1.490771	-0.034912	-0.075800	-0.257765	125.080281	-77.332871	-83.124185
47435	9.538310	1.952119	-1.461920	-0.013452	-0.069083	-0.247187	124.871215	-77.193793	-82.923435
47436	9.614126	2.261239	-1.432000	-0.032912	-0.064721	-0.242870	124.651984	-77.060911	-82.719149
47437	9.447700	2.260017	-1.288410	-0.055165	-0.057780	-0.249749	124.401350	-76.923861	-82.500181
47438	9.391124	2.481237	-1.066842	-0.094800	-0.057811	-0.258461	124.120369	-76.785428	-82.268679
47439	9.246324	2.097089	-1.197998	-0.138639	-0.046487	-0.268591	123.783808	-76.642444	-82.010477
47440	9.306428	1.833292	-1.174048	-0.127596	-0.059690	-0.271810	123.481382	-76.496475	-81.775980
47441	9.212572	1.546889	-1.381892	-0.121539	-0.042317	-0.285437	123.136647	-76.346075	-81.498971
47442	9.283337	1.439143	-1.653986	-0.066101	-0.049795	-0.282493	122.848169	-76.197457	-81.242274
47443	9.175452	1.603397	-1.496109	-0.020906	-0.028460	-0.278393	122.555824	-76.054130	-80.959364
47444	9.201537	1.799276	-1.315833	0.006885	-0.032909	-0.294608	122.272983	-75.904228	-80.665057
47445	9.348906	2.191966	-1.340074	0.074388	-0.060553	-0.313063	122.066795	-75.733720	-80.414229
47446	9.287301	2.308899	-1.444155	0.045243	-0.001983	-0.300565	121.751792	-75.589660	-80.063638
47447	9.291056	2.384947	-1.288887	0.076803	-0.017862	-0.287593	121.507615	-75.443773	-79.771890
47448	9.380927	2.609250	-1.323854	0.092092	-0.009944	-0.275638	121.274814	-75.308746	-79.478065
47449	9.410724	2.660782	-1.270074	0.089990	-0.009064	-0.271997	121.049361	-75.172435	-79.197631
47450	9.265699	2.626288	-1.343539	0.088796	0.000115	-0.267263	120.814782	-75.043893	-78.903566
47451	9.289329	2.393660	-1.587863	0.046968	-0.012137	-0.262912	120.589185	-74.910478	-78.648327
47452	9.289083	2.271273	-1.555154	0.052295	-0.012074	-0.267575	120.364542	-74.777641	-78.385865
47453	9.389617	2.354718	-1.435555	0.051328	-0.015611	-0.282692	120.135558	-74.632848	-78.124292
47454	9.347070	2.224443	-1.590062	0.044058	-0.014228	-0.292393	119.893093	-74.486527	-77.847889
47455	9.416789	2.309178	-1.418645	0.055200	-0.007659	-0.295251	119.648920	-74.337152	-77.567902
47456	9.501880	2.515595	-1.443076	0.063546	-0.017200	-0.298467	119.426419	-74.186352	-77.300246
47457	9.419217	2.637791	-1.254986	0.019377	0.001523	-0.292656	119.158024	-74.040203	-77.016024
47458	9.498977	2.602664	-1.218189	-0.005483	-0.021821	-0.301612	118.910651	-73.885907	-76.763250
47459	9.548468	2.589270	-1.140904	-0.010421	-0.010858	-0.310955	118.639162	-73.726429	-76.493173
47460	9.474330	2.370809	-1.258667	-0.024998	-0.028172	-0.325679	118.378936	-73.557642	-76.238253
47461	9.414570	2.383864	-1.406430	-0.042868	-0.018025	-0.334642	118.090024	-73.383592	-75.968858
47462	9.394463	2.384997	-1.414762	-0.073223	-0.016083	-0.339984	117.779969	-73.210094	-75.690313
47463	9.554332	2.045472	-1.678976	-0.045938	-0.023715	-0.358350	117.489985	-73.021732	-75.421070
47464	9.469992	2.129294	-1.687967	0.013726	-0.005669	-0.363778	117.203982	-72.838050	-75.115037
47465	9.428032	2.357402	-1.514758	0.016231	-0.000845	-0.355822	116.926532	-72.656257	-74.820930
47466	9.459486	2.736012	-1.370778	0.013139	0.010150	-0.364065	116.626516	-72.475623	-74.499965
47467	9.381420	2.959371	-0.982917	-0.056020	0.027324	-0.359630	116.271555	-72.298158	-74.167326
47468	9.533563	2.927846	-1.013157	-0.124827	0.031102	-0.369967	115.867778	-72.118585	-73.819778
47469	9.603669	2.651213	-1.207849	-0.173044	0.027311	-0.387173	115.438984	-71.925512	-73.479280
47470	9.737234	2.428983	-1.249597	-0.116610	0.012487	-0.411327	115.053917	-71.718446	-73.145715
47471	9.603505	2.728330	-1.208414	-0.109795	0.018623	-0.424236	114.663985	-71.502676	-72.806972
47472	9.483036	2.702462	-1.443798	-0.175725	0.033728	-0.438140	114.209787	-71.285204	-72.435379
47473	9.344146	2.408963	-1.557401	-0.180409	0.047757	-0.446677	113.737251	-71.062892	-72.051111
47474	9.245453	2.718685	-1.384492	-0.137904	0.026123	-0.455756	113.323493	-70.832576	-71.698395
47475	9.155842	2.835233	-1.557227	-0.118467	0.015871	-0.468017	112.939759	-70.590111	-71.369388
47476	9.133731	3.009576	-1.395301	-0.143974	0.024469	-0.481235	112.526993	-70.344382	-71.020384
47477	11.021820	1.130517	-1.301080	-0.092390	-0.090937	-0.654697	112.220656	-69.978287	-70.756627
47478	8.277028	5.424861	-1.028631	-0.032711	0.116032	-0.516810	111.737897	-69.731773	-70.263825
47479	8.896565	2.378782	-1.235984	-0.023504	-0.028284	-0.496288	111.491694	-69.462147	-70.021074
47480	9.462251	2.974956	-1.895437	-0.139083	0.026722	-0.529989	111.087872	-69.187992	-69.676092
47481	9.678628	3.063524	-0.894946	-0.078117	-0.006898	-0.543922	110.770406	-68.896352	-69.389463
47482	9.483716	3.385805	-1.429178	-0.083188	0.028904	-0.541429	110.407779	-68.615028	-69.053009
47483	9.331431	3.088916	-1.159090	-0.121145	0.011716	-0.545524	110.056327	-68.325068	-68.755054
47484	9.607176	3.329624	-1.112517	-0.103175	0.016054	-0.559138	109.708739	-68.030214	-68.445800
47485	9.519743	3.269924	-1.161204	-0.114709	0.018384	-0.568097	109.358381	-67.728129	-68.143600
47486	9.533442	3.258855	-1.075768	-0.091961	0.025947	-0.582037	109.011050	-67.421366	-67.826354
47487	9.462732	3.334497	-0.959450	-0.088306	0.009410	-0.588699	108.695339	-67.105241	-67.543726
47488	9.497074	3.397392	-0.958294	-0.064666	0.014710	-0.599069	108.387703	-66.785837	-67.251165
47489	9.390760	3.562760	-0.874007	-0.064150	0.001315	-0.599243	108.107286	-66.461526	-66.990283
47490	9.387158	3.791226	-0.975423	-0.070560	0.006969	-0.607105	107.818232	-66.135232	-66.720278
47491	9.189541	3.864404	-0.884129	-0.109927	0.006488	-0.624768	107.509975	-65.796938	-66.456114
47492	9.066371	3.795683	-1.001903	-0.137793	-0.000387	-0.635689	107.195866	-65.452615	-66.199479
47493	8.997311	3.687431	-1.281703	-0.135365	-0.015374	-0.642414	106.907988	-65.099905	-65.972211
47494	8.815967	3.624573	-1.249367	-0.116650	-0.014940	-0.647132	106.633914	-64.745839	-65.744956
47495	8.677654	3.834329	-1.055558	-0.098802	-0.035293	-0.657934	106.398321	-64.380551	-65.550917
47496	8.682540	4.010309	-1.167021	-0.130067	-0.031421	-0.675562	106.138936	-64.007371	-65.347142
47497	8.588068	3.888221	-1.118572	-0.127152	-0.022791	-0.691334	105.874743	-63.624963	-65.138020
47498	8.637417	4.012529	-1.130528	-0.121127	-0.035994	-0.697770	105.631399	-63.238040	-64.945120
47499	8.596726	3.985348	-1.257403	-0.095071	-0.039212	-0.706586	105.411478	-62.843969	-64.763513
47500	8.657667	4.201353	-1.084607	-0.062698	-0.052345	-0.711289	105.226552	-62.446457	-64.597345
47501	8.727056	4.384064	-1.052660	-0.088839	-0.065620	-0.718099	105.045218	-62.041567	-64.453884
47502	8.764945	4.184738	-1.183941	-0.109766	-0.066469	-0.727575	104.853192	-61.632465	-64.309019
47503	8.769090	4.294603	-1.168534	-0.085175	-0.081488	-0.746081	104.691647	-61.209396	-64.184462
47504	8.695539	4.284095	-1.198332	-0.108596	-0.073424	-0.757194	104.508416	-60.782457	-64.047726
47505	8.698579	4.254918	-1.132175	-0.093981	-0.092979	-0.772238	104.354823	-60.342971	-63.936878
47506	8.777393	4.273292	-1.131745	-0.093497	-0.101209	-0.796409	104.205805	-59.889967	-63.828438
47507	8.830744	4.339510	-0.961508	-0.096770	-0.105333	-0.828810	104.056284	-59.417175	-63.722885
47508	8.778707	4.218382	-0.904189	-0.130759	-0.117724	-0.871397	103.891477	-58.919908	-63.619870
47509	8.730610	4.133761	-0.837361	-0.174343	-0.136706	-0.916662	103.714386	-58.393846	-63.532608
47510	8.485690	4.224619	-0.811422	-0.203509	-0.160230	-0.951352	103.537029	-57.846008	-63.462748
47511	8.871690	3.706626	-0.719592	-0.222056	-0.205390	-0.984917	103.386457	-57.272733	-63.437810
47512	8.696494	4.344342	-0.846400	-0.110404	-0.236171	-1.031538	103.317837	-56.669975	-63.433125
47513	8.765155	4.612539	-0.868451	-0.188675	-0.253158	-1.061478	103.215078	-56.048035	-63.441688
47514	8.878911	4.243489	-0.983975	-0.217012	-0.315982	-1.080555	103.144161	-55.407500	-63.508071
47515	8.993424	4.931944	-0.766624	-0.128393	-0.340175	-1.109101	103.138129	-54.747980	-63.592066
47516	8.950977	4.652472	-0.960524	-0.244747	-0.365796	-1.134749	103.078809	-54.070777	-63.693327
47517	8.899254	4.546387	-0.825452	-0.197052	-0.400028	-1.166091	103.066461	-53.372074	-63.819168
47518	9.076131	4.587537	-0.701894	-0.180094	-0.422212	-1.198205	103.071588	-52.652187	-63.956564
47519	8.794022	4.805930	-0.793263	-0.192647	-0.438369	-1.221729	103.074760	-51.917904	-64.100499
47520	8.727997	4.993322	-0.902633	-0.193237	-0.461376	-1.220418	103.090402	-51.180521	-64.263675
47521	8.522194	5.458372	-0.698022	-0.192694	-0.469766	-1.232896	103.106796	-50.436284	-64.427038
47522	8.298717	5.663843	-1.000108	-0.301718	-0.492163	-1.235378	103.071782	-49.686547	-64.608703
47523	7.942931	6.000751	-1.111180	-0.329671	-0.469847	-1.222734	103.005426	-48.948355	-64.769615
47524	7.674736	6.310190	-0.963208	-0.413190	-0.479805	-1.232912	102.894031	-48.201871	-64.938686
47525	7.278561	6.381739	-1.065016	-0.529215	-0.461553	-1.240757	102.702692	-47.455226	-65.088831
47526	6.946541	6.671072	-0.988051	-0.616563	-0.438674	-1.268344	102.444061	-46.694811	-65.220016
47527	6.881492	7.010675	-0.707666	-0.730659	-0.391740	-1.379529	102.080018	-45.879948	-65.294814
47528	6.547484	7.661181	-1.142549	-0.883018	-0.344827	-1.513379	101.590636	-44.994369	-65.320049
47529	4.911186	9.521333	-1.372460	-0.935664	-0.234897	-1.641257	101.003590	-44.050925	-65.247022
47530	5.038003	8.632022	-1.729266	-1.618889	-0.146052	-1.837000	99.972746	-43.004425	-65.099147
47531	5.941660	7.926482	-2.582299	-1.516570	-0.188075	-1.923064	99.034809	-41.904323	-64.997926
47532	7.342620	9.046386	-2.117316	-1.294229	-0.441575	-1.696525	98.384317	-40.908914	-65.137746
47533	8.399421	7.355002	-4.012593	-0.644430	-0.683915	-1.463542	98.242756	-40.026678	-65.489952
47534	9.601800	9.813721	-2.807582	0.262072	-0.902493	-1.355062	98.721565	-39.186231	-66.007673
47535	9.756044	10.916288	-0.679088	0.239836	-0.532129	-1.440818	98.999511	-38.327944	-66.233004
47536	8.606596	7.784987	-3.368194	0.114984	-0.597521	-1.614950	99.214395	-37.363833	-66.478152
47537	7.726699	7.977588	-2.700517	0.366086	-0.469465	-1.711403	99.504354	-36.357220	-66.612154
47538	6.690451	7.594311	-2.040807	0.274868	-0.416881	-1.793779	99.708117	-35.307707	-66.693600
47539	5.878891	7.792801	-2.703094	0.303327	-0.432799	-1.866798	99.925821	-34.216336	-66.770412
47540	5.355271	8.524082	-2.349879	0.421846	-0.387690	-1.899735	100.186578	-33.109483	-66.807319
47541	5.363710	9.267371	-2.114147	0.481656	-0.388994	-1.898971	100.478963	-32.003873	-66.837600
47542	5.442255	9.754668	-2.356030	0.551807	-0.384197	-1.863286	100.806745	-30.917660	-66.862540
47543	5.460242	9.811341	-2.196562	0.527254	-0.343587	-1.778331	101.109614	-29.884461	-66.864090
47544	5.428330	9.865479	-1.891928	0.547354	-0.343062	-1.709127	101.423847	-28.889311	-66.868208
47545	5.192664	9.658887	-1.763917	0.461636	-0.323980	-1.667420	101.684151	-27.920576	-66.859566
47546	4.756927	9.116244	-2.126230	0.369885	-0.312200	-1.630430	101.887652	-26.973185	-66.844321
47547	4.520913	8.554336	-2.147490	0.346625	-0.281449	-1.579288	102.072078	-26.058955	-66.812843
47548	4.175510	8.728186	-1.719356	0.446195	-0.201839	-1.541764	102.292206	-25.174682	-66.733917
47549	4.151927	7.518491	-2.287277	0.102255	-0.216811	-1.469280	102.324751	-24.330101	-66.672037
47550	3.702474	7.812005	-1.817399	0.474977	-0.119411	-1.378214	102.550633	-23.547835	-66.561480
47551	3.564586	6.871895	-2.344247	0.427333	-0.139724	-1.252664	102.762292	-22.834449	-66.477359
47552	3.456716	6.981931	-1.873844	0.685946	-0.115266	-1.114514	103.122235	-22.200888	-66.394646
47553	3.775673	7.893744	-1.945105	0.750640	-0.085407	-0.981956	103.520068	-21.646636	-66.308130
47554	3.602498	7.787437	-1.973256	0.700875	-0.014978	-0.859577	103.878681	-21.169661	-66.194268
47555	3.556391	7.461738	-2.041294	0.802067	-0.003689	-0.756351	104.299322	-20.753408	-66.085202
47556	3.449275	7.607399	-1.948892	0.853186	-0.017362	-0.649533	104.756218	-20.394173	-65.998280
47557	3.670701	7.848885	-2.148456	0.838286	-0.001866	-0.542996	105.207932	-20.098030	-65.915165
47558	3.399998	7.910512	-2.216822	0.802429	0.051789	-0.446528	105.632032	-19.862767	-65.814900
47559	3.441981	8.113816	-1.945953	0.757282	0.075311	-0.342447	106.032429	-19.690533	-65.715217
47560	3.189322	7.779992	-2.188900	0.710756	0.062715	-0.232401	106.413561	-19.576165	-65.641689
47561	3.453287	8.256880	-2.077033	0.705456	0.143931	-0.120250	106.783323	-19.538511	-65.538080
47562	3.564061	8.350217	-2.010711	0.619184	0.192860	-0.007270	107.099606	-19.570142	-65.427261
47563	3.609390	8.509257	-1.946671	0.470987	0.257796	0.088157	107.325051	-19.667010	-65.294223
47564	3.438736	8.259236	-1.874083	0.325212	0.325498	0.171026	107.457534	-19.819662	-65.138931
47565	3.487013	8.364561	-1.763059	0.201633	0.323355	0.247293	107.524903	-20.015506	-64.996846
47566	3.408244	7.466720	-2.564223	0.078087	0.470713	0.327546	107.495536	-20.279022	-64.785716
47567	3.355056	7.493340	-1.822881	0.138828	0.476466	0.457341	107.507783	-20.616161	-64.592270
47568	3.461417	7.699395	-2.044747	0.075657	0.493732	0.572492	107.485623	-21.017448	-64.411834
47569	3.501163	7.688579	-2.040684	0.075677	0.549413	0.683237	107.458252	-21.490616	-64.215814
47570	3.820434	7.792984	-1.825406	0.042821	0.634056	0.786050	107.397894	-22.032525	-63.990562
47571	3.356389	7.537866	-1.849486	-0.072058	0.681663	0.888829	107.266055	-22.640402	-63.751257
47572	3.417198	7.239126	-1.902761	-0.025246	0.716374	0.992468	107.156390	-23.308447	-63.510883
47573	3.067265	6.962162	-1.723086	-0.032117	0.777770	1.112157	107.033610	-24.053958	-63.249922
47574	2.783298	6.765790	-1.500896	0.041986	0.779105	1.249468	106.958412	-24.872494	-63.013558
47575	3.289522	7.138434	-1.071832	0.008600	0.808018	1.387120	106.863406	-25.772969	-62.778920
47576	3.315271	7.239528	-1.234746	0.022649	0.854478	1.491070	106.766982	-26.735826	-62.534705
47577	3.231398	7.026882	-0.936688	-0.111324	0.909168	1.620766	106.583559	-27.780282	-62.272629
47578	3.442154	6.870449	-0.960536	-0.078915	0.892022	1.714106	106.424552	-28.870574	-62.035690
47579	3.848141	7.644082	-0.976969	-0.211815	0.925426	1.788844	106.178398	-30.008504	-61.781073
47580	3.708039	7.624295	-1.695871	-0.360995	0.981303	1.888176	105.828349	-31.206908	-61.502495
47581	3.571574	7.330949	-1.622588	-0.282442	1.049029	1.997501	105.499006	-32.476434	-61.184466
47582	3.517547	7.477746	-1.526851	-0.477222	0.907704	2.142471	105.109800	-33.801227	-60.975191
47583	3.666671	7.294555	-1.714285	-0.544212	0.905313	2.245488	104.680817	-35.182933	-60.768122
47584	3.629841	7.093048	-1.770030	-0.561880	0.830918	2.322466	104.266300	-36.593907	-60.612528
47585	3.852432	6.677062	-1.622626	-0.670174	0.803523	2.385156	103.794520	-38.036089	-60.467949
47586	4.023201	6.330152	-1.529941	-0.667734	0.692243	2.450854	103.367589	-39.497774	-60.399313
47587	4.329698	6.918341	-1.142576	-0.680056	0.679543	2.505345	102.933717	-40.988685	-60.331402
47588	4.002075	6.851275	-1.244238	-0.831194	0.691383	2.564082	102.400660	-42.512518	-60.248144
47589	4.298643	6.630334	-1.292703	-0.837000	0.642579	2.607133	101.878256	-44.054522	-60.186725
47590	4.858248	6.358634	-1.248890	-0.834420	0.621715	2.666586	101.359957	-45.626452	-60.131650
47591	5.055357	6.696141	-1.305233	-0.898539	0.605033	2.704412	100.801003	-47.217625	-60.072255
47592	5.550544	6.534714	-1.238134	-0.958579	0.616837	2.740148	100.184231	-48.829416	-59.983257
47593	5.863445	6.006954	-1.398346	-0.959814	0.557251	2.805277	99.589488	-50.471302	-59.926470
47594	6.069766	5.903962	-0.841668	-0.916990	0.547638	2.867521	99.010084	-52.147118	-59.859052
47595	5.846111	5.650346	-0.970556	-0.945929	0.554125	2.879530	98.383494	-53.829457	-59.755396
47596	5.689010	5.550495	-0.794332	-0.969325	0.511198	2.856006	97.744167	-55.494511	-59.654195
47597	6.089804	5.640040	-0.711608	-0.926464	0.405334	2.856109	97.187862	-57.150451	-59.626305
47598	6.093010	5.736045	-0.737670	-0.996810	0.356960	2.875039	96.610017	-58.814181	-59.620018
47599	6.420807	5.208537	-0.783875	-0.986329	0.354634	2.913692	96.014644	-60.498699	-59.588298
47600	6.802236	5.197250	-0.602539	-0.948024	0.302581	2.990622	95.471421	-62.224797	-59.589827
47601	6.933624	4.464480	-0.744475	-1.016687	0.323563	3.061332	94.837047	-63.990964	-59.535545
47602	7.322798	4.480598	-0.227240	-0.932418	0.332408	3.077314	94.196190	-65.767544	-59.419337
47603	7.537515	4.369499	-0.467877	-0.969719	0.373053	3.072884	93.419215	-67.540899	-59.182464
47604	8.726874	5.258178	-0.365142	-0.908487	0.223643	3.117693	92.823672	-69.335458	-59.103309
47605	8.645050	4.483513	-0.451868	-1.128668	0.401199	3.122716	91.738280	-71.134510	-58.641962
47606	8.674192	4.235017	-0.127628	-1.244257	0.337454	3.097836	90.541379	-72.916921	-58.134683
47607	8.813925	4.024863	0.151672	-1.265498	0.296525	3.046553	89.222370	-74.664000	-57.521556
47608	9.180551	3.774647	-0.507396	-1.231920	0.269206	2.997768	87.746879	-76.380987	-56.728214
47609	9.118874	4.456947	-0.411021	-1.262424	0.228273	2.988587	86.041371	-78.085386	-55.727131
47610	10.245485	3.938036	-0.594017	-1.610741	0.112804	2.847977	84.077987	-79.709689	-54.668353
47611	9.533860	2.560846	-1.289597	-1.116570	0.145111	2.968932	81.681180	-81.388715	-52.894175
47612	10.957918	4.074014	-0.125981	-1.489670	0.223583	2.978973	77.669173	-83.049751	-49.708137
47613	10.654430	2.445269	-0.317280	-1.520567	0.217476	3.112193	71.211730	-84.737074	-44.098442
47614	9.580907	-1.404264	-0.875859	-1.143851	0.205639	2.977589	60.274882	-86.254416	-33.787626
47615	12.587122	-0.342155	0.827448	-0.670635	0.090948	3.105742	37.217710	-87.585320	-11.091832
47616	11.627627	-0.076630	0.326175	-0.277611	0.323974	3.076076	-8.386239	-87.868666	34.383674
47617	10.730917	0.319501	-0.637761	0.044873	0.367132	2.986813	-41.083109	-86.924191	67.129957
47618	9.858454	0.817131	-0.823381	0.462263	0.234014	2.903191	-56.158693	-85.573225	82.500505
47619	11.367382	2.132914	-0.412132	0.341834	0.161927	2.838274	-64.077076	-84.113574	90.639195
47620	12.036749	1.612711	-0.440796	0.332194	0.267921	2.616505	-67.964894	-82.677432	94.742840
47621	12.141998	2.415252	1.260675	0.280281	0.173538	2.457183	-70.692643	-81.325379	97.650164
47622	11.642628	1.906653	-0.052180	0.098769	0.307316	2.259129	-72.149665	-80.038901	99.182483
47623	11.047852	2.327715	0.833587	-0.250227	0.279006	2.142915	-73.430511	-78.820178	100.328683
47624	10.727665	0.715443	0.414278	-0.522611	0.320329	1.968902	-74.398163	-77.681939	101.009695
47625	10.432023	-0.613962	0.459902	-0.424491	0.125958	1.762959	-75.495148	-76.689913	101.872897
47626	11.222902	-0.711636	-0.623715	-0.185379	0.323333	1.532883	-75.769551	-75.789632	102.044560
47627	10.665278	-0.768765	0.722229	-0.404704	0.137287	1.427482	-76.467320	-74.979325	102.512859
47628	10.540539	-2.494378	-0.227753	0.017152	0.263437	1.211456	-76.523083	-74.265625	102.579369
47629	9.673275	-1.427264	0.375459	-0.042518	0.159794	0.994154	-76.702498	-73.693091	102.727062
47630	9.504782	-1.418595	-0.441927	0.200610	0.124047	0.756261	-76.699593	-73.251525	102.842387
47631	9.060242	-1.007557	-0.037363	0.102342	0.061144	0.510425	-76.755762	-72.961923	102.948169
47632	8.532421	-0.430346	0.486196	0.152081	-0.137320	0.358118	-77.076892	-72.776341	103.373825
47633	8.809753	-0.161517	0.328823	0.000884	-0.138512	0.208622	-77.416246	-72.680751	103.714729
47634	8.605508	-0.189316	0.455848	-0.008659	-0.179465	0.054547	-77.773413	-72.668767	104.082091
47635	8.965533	-0.341980	0.401359	-0.081451	-0.189055	-0.104074	-78.126449	-72.753672	104.386934
47636	8.991573	-0.361188	0.290053	-0.107860	-0.176913	-0.239030	-78.428126	-72.904795	104.636401
47637	8.812553	-0.726769	0.235819	-0.114323	-0.162273	-0.339121	-78.671744	-73.118141	104.805652
47638	8.906202	-0.883417	-0.160651	-0.099603	-0.179915	-0.408882	-78.922315	-73.364397	105.006119
47639	8.655483	-1.341104	-0.403582	-0.006346	-0.122115	-0.473371	-78.988863	-73.648824	105.053970
47640	8.831855	-1.558499	0.156794	0.134242	-0.139537	-0.550289	-78.983911	-73.970005	105.127269
47641	8.727718	-2.897086	0.103839	0.280826	-0.134117	-0.695760	-78.825502	-74.381024	105.111651
47642	10.084829	-3.991216	-0.251536	0.187144	-0.085538	-0.577012	-78.668403	-74.711276	105.058255
47643	11.062849	-9.610413	-1.352777	-0.937851	-0.047590	-0.104235	-79.269941	-74.779924	105.106973
47644	12.384882	-13.865858	-2.025994	-0.572524	0.031746	0.398172	-79.694186	-74.548724	105.205065
47645	11.237589	-13.490022	-0.516018	-0.544398	0.027608	0.575269	-80.167031	-74.224293	105.357824
47646	9.995211	-7.470871	-0.019396	0.831836	-0.128583	0.094417	-79.989100	-74.180106	105.666531
47647	9.991761	0.930599	6.081737	1.189180	-0.125769	-0.598333	-79.353633	-74.531425	105.703073
47648	11.299537	2.394737	7.277507	-0.130371	0.055629	-1.034658	-78.910894	-75.104053	105.165229
47649	11.508622	-3.132984	2.572080	-0.668887	0.216984	-1.005261	-78.401262	-75.646233	104.230342
47650	11.912961	-3.724258	-0.289434	-0.380397	0.108069	-0.864971	-77.985851	-76.115170	103.575548
47651	11.383810	-3.143702	0.306643	-0.007665	0.144133	-0.806508	-77.259635	-76.550583	102.811916
47652	10.690120	-0.572720	2.735828	0.530384	-0.028119	-0.811160	-76.586723	-77.003486	102.431133
47653	10.567334	-0.144163	2.300195	0.500292	-0.112487	-0.784644	-76.116602	-77.457440	102.231152
47654	10.553231	-0.750622	1.369757	0.622456	-0.146971	-0.740210	-75.673523	-77.885880	102.140954
47655	10.793091	-0.689809	0.015019	0.713829	-0.131240	-0.713023	-75.128926	-78.302399	101.989935
47656	10.400779	-0.764705	-1.589511	0.798313	-0.095200	-0.675359	-74.445229	-78.686756	101.757271
47657	9.768791	-0.547001	-1.967347	0.761934	-0.065346	-0.628422	-73.698625	-79.045901	101.428125
47658	9.270642	0.130125	-1.029616	0.563367	-0.040294	-0.658677	-72.937957	-79.410765	100.980651
47659	8.992924	0.063821	-1.206159	0.295183	-0.109205	-0.661063	-72.492105	-79.794136	100.685294
47660	9.349041	0.183695	-1.385673	-0.027221	-0.176658	-0.612912	-72.472430	-80.156259	100.647722
47661	9.578502	-0.365390	-1.513176	-0.027895	-0.222611	-0.622585	-72.587020	-80.538401	100.732832
47662	9.556457	-0.357583	-0.473866	-0.134126	-0.246497	-0.646949	-72.833057	-80.931069	100.902490
47663	9.494398	-1.074461	0.184155	-0.243180	-0.222267	-0.650659	-73.067343	-81.328713	100.983063
47664	9.478761	-1.230106	0.496647	-0.222581	-0.226837	-0.633498	-73.345295	-81.710505	101.133366
47665	9.515335	-0.775019	1.216348	-0.219638	-0.194346	-0.633787	-73.509998	-82.094195	101.157058
47666	9.542303	-0.671672	1.565513	-0.166939	-0.201642	-0.649581	-73.668506	-82.480600	101.218695
47667	9.691353	-0.665693	1.584576	-0.125573	-0.226089	-0.620156	-73.954562	-82.861831	101.418975
47668	10.085286	-0.392769	1.316922	-0.118713	-0.239376	-0.591592	-74.368559	-83.222081	101.765709
47669	10.086053	-0.432441	1.076933	-0.000333	-0.272159	-0.582774	-74.922330	-83.589254	102.307292
47670	10.586532	-0.064687	0.689452	-0.015125	-0.320567	-0.524818	-75.887762	-83.923223	103.267938
47671	10.853095	-0.044646	0.002386	0.113704	-0.401775	-0.467800	-77.406156	-84.241151	104.844010
47672	10.816077	-0.182377	-0.593169	0.357890	-0.418848	-0.457685	-79.075428	-84.543399	106.725503
47673	10.392936	0.074575	-0.674488	0.553041	-0.380355	-0.474971	-80.578085	-84.853827	108.536454
47674	10.005843	0.190293	-0.351557	0.499285	-0.296085	-0.452759	-81.778082	-85.132671	110.026350
47675	9.758165	0.427262	-0.290317	0.406591	-0.269777	-0.414427	-83.048886	-85.392617	111.518402
47676	9.373142	0.568505	-0.590715	0.268663	-0.223591	-0.387751	-84.230089	-85.624002	112.855774
47677	9.360981	0.561081	-0.470737	0.206490	-0.268959	-0.367630	-85.971794	-85.851334	114.703530
47678	9.316269	0.337691	-0.627056	0.112124	-0.290670	-0.375149	-88.134315	-86.070871	116.933938
47679	9.412703	0.254609	-0.341022	0.081061	-0.300304	-0.369876	-90.684732	-86.288870	119.518661
47680	9.486254	0.255032	-0.186985	0.036684	-0.321682	-0.363608	-93.733891	-86.486144	122.593032
47681	9.586864	0.368624	0.028393	-0.019717	-0.307049	-0.357202	-97.067725	-86.677442	125.903219
47682	9.585731	0.094352	-0.063690	-0.110963	-0.306514	-0.350673	-100.768349	-86.844783	129.544144
47683	9.463412	-0.169361	-0.174051	-0.106106	-0.312208	-0.346378	-104.981577	-87.002103	133.684023
47684	9.352737	-0.220457	-0.055996	-0.087994	-0.357365	-0.342186	-109.998576	-87.123560	138.655175
47685	9.584949	-0.463703	-0.142827	-0.115167	-0.365371	-0.342514	-115.621818	-87.226221	144.200584
47686	9.721255	-0.617012	-0.324108	-0.035553	-0.363904	-0.352823	-121.491891	-87.300088	150.054981
47687	9.636583	-0.491218	-0.317405	0.005990	-0.347396	-0.366083	-127.678235	-87.361532	156.232985
47688	9.626779	-0.488297	-0.286464	0.055692	-0.353354	-0.381247	-134.084598	-87.390275	162.676009
47689	9.694985	-0.270036	-0.457006	0.104148	-0.349849	-0.401757	-140.858712	-87.398500	169.498497
47690	9.669401	-0.049590	-0.630879	0.140249	-0.320817	-0.413297	-147.315316	-87.384929	176.040210
47691	9.780486	-0.350440	-0.724633	0.131870	-0.292121	-0.410147	-153.611461	-87.354107	-177.599737
47692	9.692797	-0.445070	-0.859538	0.237459	-0.284497	-0.417246	-159.503823	-87.296536	-171.566792
47693	9.608153	-0.329184	-0.389815	0.361008	-0.275097	-0.424471	-165.242933	-87.217605	-165.632257
47694	9.669841	-0.399644	-0.269235	0.384917	-0.270967	-0.416349	-170.332113	-87.113763	-160.318096
47695	9.582801	-0.618015	-1.126264	0.380594	-0.283711	-0.400806	-175.020935	-86.978497	-155.422710
47696	9.613905	-0.562799	-1.600141	0.507393	-0.274234	-0.389955	-178.944911	-86.831349	-151.203943
47697	9.379013	-0.061908	-1.113055	0.599058	-0.261731	-0.392622	177.398768	-86.674273	-147.215740
47698	9.408543	0.028369	-0.906894	0.581527	-0.269689	-0.412351	174.036278	-86.501020	-143.515596
47699	9.567481	0.488524	-0.859633	0.584855	-0.248422	-0.426332	170.756144	-86.322945	-139.910996
47700	9.708247	0.589232	-0.724838	0.523938	-0.247307	-0.427396	167.861490	-86.137205	-136.711339
47701	9.908003	0.881258	-1.119306	0.489955	-0.248318	-0.422583	165.179922	-85.937334	-133.759810
47702	9.919754	1.189277	-0.941446	0.431475	-0.204696	-0.427803	162.684114	-85.756106	-131.011701
47703	10.129713	1.056357	-0.925258	0.318002	-0.195643	-0.418980	160.300672	-85.568152	-128.456881
47704	10.013132	1.331052	-0.949881	0.289973	-0.173084	-0.399506	158.251571	-85.394053	-126.236886
47705	10.072042	1.118736	-0.878991	0.209998	-0.179771	-0.370408	156.443408	-85.211520	-124.320445
47706	9.965543	1.519091	-0.817662	0.192952	-0.175984	-0.346799	154.963109	-85.037775	-122.725991
47707	9.759744	1.189486	-0.876210	0.116142	-0.162866	-0.346855	153.440961	-84.861307	-121.150002
47708	9.847726	1.095198	-0.897448	0.082490	-0.153788	-0.351663	152.013699	-84.690779	-119.671522
47709	9.712243	0.655301	-1.234103	0.028365	-0.144725	-0.342843	150.607136	-84.517593	-118.261513
47710	9.664470	0.305092	-1.319144	0.062309	-0.133844	-0.330904	149.390501	-84.356687	-117.005468
47711	9.581785	0.524246	-1.290818	0.142120	-0.127241	-0.337387	148.184931	-84.187903	-115.731105
47712	9.551764	0.740137	-1.002511	0.132556	-0.117892	-0.324657	147.125120	-84.031779	-114.591555
47713	9.560925	0.914315	-1.201000	0.139417	-0.132363	-0.327683	146.108596	-83.858802	-113.508072
47714	9.683470	1.016339	-0.925762	0.031131	-0.077060	-0.316790	145.015224	-83.720343	-112.392563
47715	9.694706	1.000331	-1.142457	0.036281	-0.145518	-0.327982	144.088761	-83.537000	-111.458582
47716	9.679656	1.310155	-0.883975	-0.045517	-0.081539	-0.341688	142.964522	-83.383786	-110.355511
47717	9.656848	1.108726	-0.977584	-0.092962	-0.131062	-0.337761	141.987882	-83.199841	-109.445057
47718	9.625083	1.219195	-0.929812	-0.133094	-0.124657	-0.329118	141.087711	-83.027485	-108.617460
47719	9.645908	1.219606	-0.712839	-0.183592	-0.113620	-0.331116	140.126638	-82.850214	-107.774422
47720	9.730435	1.248153	-0.926301	-0.225457	-0.145809	-0.345553	139.263808	-82.659412	-107.037191
47721	9.737412	1.130745	-1.234117	-0.227179	-0.109669	-0.351557	138.285304	-82.472834	-106.201128
47722	9.974370	0.700984	-1.351971	-0.276972	-0.108588	-0.352258	137.347855	-82.292297	-105.417787
47723	9.481460	0.715493	-1.280368	-0.168910	-0.141062	-0.348745	136.585393	-82.090294	-104.765280
47724	9.717095	1.418810	-0.236893	-0.122985	-0.112080	-0.341253	135.852087	-81.909839	-104.098296
47725	9.697104	1.278847	-0.788384	-0.150921	-0.120070	-0.340335	135.132296	-81.717574	-103.477800
47726	9.577897	1.031728	-1.399430	-0.116790	-0.101946	-0.329728	134.466281	-81.543641	-102.874644
47727	9.655070	1.125367	-1.504898	-0.078565	-0.113346	-0.332344	133.847985	-81.355293	-102.314235
47728	9.593349	1.087000	-1.520973	-0.061878	-0.101371	-0.335352	133.247539	-81.177363	-101.745029
47729	9.531644	1.125062	-1.376051	-0.004052	-0.087189	-0.335720	132.643137	-80.996014	-101.154861
47730	9.520033	1.521383	-1.139190	-0.005589	-0.090214	-0.346057	132.065522	-80.816084	-100.575574
47731	9.597934	1.777833	-1.224156	-0.017197	-0.078692	-0.363598	131.413991	-80.624097	-99.944660
47732	9.600569	1.794627	-1.203154	-0.063007	-0.071628	-0.358081	130.774910	-80.443993	-99.335816
47733	9.450351	1.547834	-1.256993	-0.068021	-0.074521	-0.346565	130.170590	-80.258638	-98.781795
47734	9.521892	1.640583	-1.210042	-0.064281	-0.095487	-0.343045	129.667464	-80.074342	-98.311030
47735	9.315235	1.462614	-1.304757	-0.020420	-0.086711	-0.327602	129.200225	-79.891202	-97.867935
47736	9.390299	1.626116	-1.188832	-0.055538	-0.077367	-0.318972	128.739189	-79.722842	-97.434342
47737	9.550330	1.391357	-1.327442	-0.029943	-0.089922	-0.332400	128.296889	-79.535130	-97.021650
47738	9.463256	1.772290	-1.398662	-0.022520	-0.079594	-0.332659	127.863159	-79.358627	-96.596111
47739	9.619344	1.558670	-1.152293	-0.059464	-0.072645	-0.329594	127.397841	-79.177040	-96.176692
47740	9.712255	1.914200	-1.245544	-0.032135	-0.093656	-0.334300	127.017094	-78.993738	-95.810234
47741	9.692840	1.826772	-1.064897	-0.114390	-0.064651	-0.316723	126.552080	-78.819612	-95.422675
47742	9.569770	2.332554	-1.147046	-0.052145	-0.115669	-0.296582	126.299351	-78.645269	-95.198017
47743	9.567904	2.481383	-1.097897	-0.166965	-0.058986	-0.294527	125.850857	-78.482335	-94.857690
47744	9.543394	2.473897	-0.812805	-0.156179	-0.087228	-0.293574	125.496567	-78.318322	-94.589961
47745	9.528358	2.159510	-1.021146	-0.252236	-0.084250	-0.305279	125.059335	-78.140932	-94.310892
47746	9.398563	2.129676	-1.255285	-0.214084	-0.060684	-0.308055	124.609509	-77.978014	-93.979113
47747	9.378974	1.438967	-1.360884	-0.252298	-0.040952	-0.290269	124.120385	-77.820748	-93.646755
47748	9.422756	1.805383	-2.016291	-0.118712	-0.072566	-0.291646	123.795556	-77.660782	-93.386595
47749	9.223353	1.515312	-1.424743	-0.138640	-0.018347	-0.280557	123.355562	-77.514337	-93.037339
47750	9.506447	1.776544	-1.523700	-0.080319	-0.053232	-0.303503	123.010581	-77.354004	-92.733710
47751	9.285968	1.992867	-1.375761	-0.074819	-0.029434	-0.313090	122.604251	-77.187449	-92.380883
47752	9.296611	1.735563	-1.133903	-0.131103	-0.005822	-0.285906	122.170755	-77.049268	-92.015943
47753	9.525509	2.043751	-1.091778	-0.046815	-0.063041	-0.297119	121.890537	-76.879199	-91.775560
47754	9.493034	2.134157	-1.063996	-0.093814	-0.024709	-0.297029	121.519199	-76.728938	-91.452077
47755	9.539416	2.135850	-1.062545	-0.092707	-0.042261	-0.294910	121.187158	-76.565496	-91.185084
47756	9.473789	1.902219	-1.016753	-0.119853	-0.039082	-0.306853	120.833499	-76.405272	-90.894720
47757	9.548007	1.970935	-1.139734	-0.143012	-0.048235	-0.324645	120.464168	-76.224692	-90.618518
47758	9.548324	1.805108	-1.301468	-0.141368	-0.036777	-0.344255	120.065676	-76.045745	-90.294261
47759	9.468010	1.989507	-1.235311	-0.124114	-0.038119	-0.356927	119.667918	-75.851166	-89.976951
47760	9.415401	1.821792	-1.242559	-0.130276	-0.034734	-0.368414	119.263542	-75.659666	-89.639548
47761	9.428615	1.854721	-1.256896	-0.076585	-0.050588	-0.391026	118.900111	-75.443534	-89.328781
47762	9.342886	1.978562	-1.322631	-0.043770	-0.044318	-0.401124	118.548493	-75.231891	-88.994063
47763	9.156229	2.144635	-1.425716	-0.000319	-0.051287	-0.410827	118.229436	-75.004709	-88.683136
47764	9.167163	2.288099	-1.234098	0.009831	-0.040094	-0.405583	117.914968	-74.790989	-88.354424
47765	9.160871	2.606408	-1.318996	0.044800	-0.047595	-0.399995	117.643924	-74.569432	-88.065708
47766	9.161364	2.507621	-1.263475	0.013444	-0.037552	-0.405288	117.344256	-74.355671	-87.749542
47767	9.339896	2.715493	-1.289349	0.033166	-0.065851	-0.405295	117.110789	-74.125842	-87.506172
47768	9.189410	2.986109	-1.452290	0.052489	-0.037850	-0.381014	116.871416	-73.923652	-87.228790
47769	9.145146	2.619160	-1.351835	0.035278	-0.066317	-0.381727	116.674163	-73.705142	-87.021426
47770	9.518127	2.623167	-1.476199	0.060591	-0.065295	-0.389000	116.492456	-73.491275	-86.798737
47771	9.307370	3.104049	-1.699535	0.167983	-0.082649	-0.415274	116.381097	-73.251028	-86.601123
47772	8.743698	3.511069	-1.528024	0.085522	-0.017477	-0.346814	116.177485	-73.070622	-86.340136
47773	8.794178	2.889669	-1.404586	0.014721	-0.015465	-0.291828	115.976764	-72.910287	-86.140755
47774	9.124575	3.209893	-1.295631	0.053817	-0.039382	-0.304203	115.834982	-72.745860	-85.963050
47775	9.104253	3.166709	-1.540959	0.028719	-0.024369	-0.304088	115.654344	-72.576545	-85.776057
47776	9.103260	3.161155	-1.568613	-0.005029	-0.015732	-0.294203	115.454499	-72.422804	-85.572526
47777	9.157860	3.195266	-1.463534	-0.021815	-0.023695	-0.285080	115.265799	-72.263005	-85.407249
47778	9.259532	3.152347	-1.454235	-0.029520	-0.028247	-0.283828	115.086779	-72.111182	-85.239996
47779	9.281791	3.159914	-1.349300	-0.040787	-0.011512	-0.279899	114.877976	-71.956600	-85.064805
47780	9.425052	3.205214	-1.482138	-0.045088	-0.026392	-0.282890	114.693811	-71.805355	-84.901254
47781	9.331288	3.266679	-1.438914	-0.064435	-0.000035	-0.279714	114.460014	-71.653153	-84.713738
47782	9.345579	2.924044	-1.751801	-0.103750	0.008826	-0.277944	114.196852	-71.512392	-84.502090
47783	9.355957	2.989171	-1.531265	-0.104367	0.028240	-0.275823	113.906274	-71.368229	-84.278472
47784	9.399828	2.870949	-1.601626	-0.115207	0.017235	-0.285557	113.625718	-71.224757	-84.055055
47785	9.518441	2.939794	-1.390704	-0.096485	0.016564	-0.287507	113.357826	-71.071080	-83.850117
47786	9.823753	2.857523	-1.221541	-0.060546	-0.026088	-0.323323	113.157405	-70.897287	-83.677939
47787	9.556978	3.616222	-1.112754	-0.090890	0.020314	-0.313637	112.877806	-70.730175	-83.456574
47788	9.626031	3.126755	-1.170922	-0.096945	-0.020317	-0.317161	112.659041	-70.560435	-83.286722
47789	9.709607	3.303741	-1.033398	-0.148747	0.024254	-0.309216	112.351374	-70.395851	-83.070247
47790	9.738263	3.021564	-1.248261	-0.142867	0.001486	-0.299514	112.092073	-70.239655	-82.884964
47791	9.637990	3.300450	-1.148443	-0.126828	0.002943	-0.288205	111.848782	-70.081031	-82.722963
47792	9.552173	3.367129	-0.989241	-0.147898	0.003412	-0.295193	111.593023	-69.926995	-82.544169
47793	9.677626	3.453723	-0.906783	-0.186136	0.002530	-0.289205	111.322306	-69.767270	-82.388713
47794	9.769782	3.289494	-0.988891	-0.223403	0.004433	-0.285503	111.033980	-69.618040	-82.220986
47795	9.789957	3.173353	-1.247725	-0.240671	0.029933	-0.284389	110.702111	-69.465966	-82.033153
47796	9.944556	3.300514	-1.309551	-0.224978	0.021605	-0.285955	110.395004	-69.319306	-81.846015
47797	10.055994	3.185176	-1.415139	-0.242238	0.026225	-0.285030	110.074543	-69.165483	-81.670721
47798	10.159155	3.225984	-1.503828	-0.228101	0.060512	-0.279442	109.721160	-69.029172	-81.435617
47799	10.025192	3.178928	-1.357627	-0.250546	0.080877	-0.279319	109.329690	-68.888207	-81.188686
47800	10.139146	3.262650	-1.282942	-0.259808	0.095918	-0.283680	108.914529	-68.755115	-80.906395
47801	10.419669	3.177869	-1.340062	-0.302665	0.124077	-0.293403	108.435308	-68.613198	-80.596512
47802	10.613613	2.962485	-1.387047	-0.311768	0.157595	-0.301948	107.905996	-68.479497	-80.223048
47803	10.736012	2.733078	-1.263833	-0.351030	0.197058	-0.309434	107.302340	-68.339516	-79.808039
47804	10.802754	2.601086	-1.339492	-0.310241	0.228463	-0.327987	106.677379	-68.200616	-79.329974
47805	10.636277	2.722467	-1.000423	-0.318537	0.280822	-0.337609	105.979900	-68.055495	-78.792222
47806	10.341839	2.836534	-0.729243	-0.294307	0.304425	-0.364817	105.261174	-67.903794	-78.202209
47807	10.043198	3.058964	-0.314408	-0.324992	0.330289	-0.388779	104.491360	-67.732783	-77.588441
47808	10.014575	3.212658	-0.003097	-0.327640	0.368574	-0.444086	103.659460	-67.540048	-76.895274
47809	9.826324	3.333240	0.237018	-0.389436	0.391881	-0.502586	102.757366	-67.307062	-76.175955
47810	9.505503	2.687242	-0.053193	-0.417081	0.468808	-0.570600	101.733584	-67.047336	-75.327910
47811	8.568609	1.838924	-0.576372	-0.288751	0.529453	-0.695526	100.694421	-66.711877	-74.393347
47812	8.432729	2.079458	-0.341725	-0.205444	0.497699	-0.787320	99.749792	-66.321425	-73.495221
47813	8.182902	1.620532	-0.817393	0.060813	0.454862	-0.867611	99.026250	-65.870435	-72.680335
47814	8.168307	2.767430	0.169448	0.249364	0.402790	-0.899775	98.494966	-65.399016	-71.943762
47815	9.097857	2.764440	-0.042293	0.124739	0.321251	-0.884271	98.020260	-64.921422	-71.355863
47816	9.724914	2.489555	-0.167953	0.293376	0.506549	-0.921425	97.432907	-64.440289	-70.523681
47817	8.327915	2.658759	0.038396	0.481719	0.404719	-1.064005	97.079390	-63.862670	-69.837335
47818	8.496221	4.206904	-0.926232	0.526250	0.404834	-1.081385	96.769479	-63.278592	-69.158130
47819	8.000681	4.729681	-0.156329	0.266084	0.531893	-1.220068	96.178654	-62.616432	-68.336339
47820	8.025403	6.821793	0.222430	0.363196	0.372522	-1.399072	95.826152	-61.844599	-67.706421
47821	8.785947	8.866593	-0.975036	0.468015	0.085050	-1.471227	95.851401	-61.008839	-67.443154
47822	9.250182	11.459213	-0.691916	0.477188	-0.113632	-1.521580	96.080366	-60.138063	-67.395830
47823	9.933047	10.840732	-2.076301	0.226956	-0.416724	-1.553284	96.453361	-59.224223	-67.692484
47824	9.627610	9.567072	-1.860473	0.179332	-0.509933	-1.617963	96.858394	-58.272611	-68.049852
47825	9.143536	7.741660	-2.174174	0.106538	-0.602041	-1.691483	97.276284	-57.264376	-68.488511
47826	8.591132	7.162199	-0.970942	0.094385	-0.638760	-1.802795	97.679398	-56.195587	-68.909847
47827	8.489062	7.285536	-0.914031	-0.126433	-0.695270	-1.923391	97.967148	-55.045232	-69.363731
47828	8.609146	7.063347	-1.295106	-0.119714	-0.779555	-2.062895	98.283822	-53.814956	-69.841376
47829	8.767191	8.017633	-1.673204	-0.110786	-0.815544	-2.188082	98.593715	-52.501687	-70.325864
47830	8.009240	8.806253	-2.184532	-0.235497	-0.872919	-2.196043	98.845473	-51.185072	-70.821787
47831	9.148734	7.633190	-1.952345	-0.379670	-0.985042	-2.199610	99.068017	-49.847324	-71.410699
47832	8.929057	8.695199	-1.552987	-0.444699	-0.967114	-2.234464	99.211000	-48.498183	-71.940731
47833	8.019481	8.606275	-1.335511	-0.603833	-0.899676	-2.207655	99.204349	-47.162058	-72.417610
47834	8.018926	7.730539	-1.962594	-0.649747	-1.015947	-2.147952	99.229604	-45.856890	-72.970131
47835	8.255883	8.155530	-0.856832	-0.677673	-0.840560	-2.140388	99.123768	-44.564287	-73.387580
47836	7.957123	6.334922	-1.764730	-0.911815	-0.859543	-2.164038	98.882208	-43.265468	-73.797359
47837	7.437975	5.619573	-1.325788	-0.573925	-0.858890	-2.078836	98.832252	-42.007877	-74.228476
47838	7.013872	5.508508	-1.562568	-0.407183	-0.787646	-1.960058	98.839306	-40.831728	-74.596852
47839	6.822579	5.437896	-1.493077	-0.140158	-0.749554	-1.876497	98.977102	-39.698495	-74.953149
47840	6.390799	6.112059	-0.642518	-0.025579	-0.695524	-1.744324	99.153736	-38.651622	-75.261298
47841	6.200813	5.466164	-0.941135	0.182724	-0.624968	-1.671541	99.414096	-37.644461	-75.531787
47842	6.233771	6.576643	-0.462114	0.359062	-0.601095	-1.622058	99.758690	-36.673540	-75.767281
47843	5.936772	5.325299	-1.668358	0.321676	-0.503422	-1.624001	100.033029	-35.703407	-75.938007
47844	5.708634	6.274620	-1.015062	0.694528	-0.633876	-1.581913	100.567503	-34.749490	-76.180597
47845	5.818472	6.673564	-1.221424	0.694642	-0.564475	-1.503997	101.070824	-33.838734	-76.385400
47846	5.599128	6.821188	-1.420484	0.826441	-0.585349	-1.412365	101.654611	-32.982018	-76.591847
47847	5.559904	7.195277	-1.731272	0.879139	-0.582052	-1.314166	102.265879	-32.172845	-76.809365
47848	5.471399	7.485546	-1.581095	0.886445	-0.570755	-1.227627	102.875191	-31.417811	-77.008339
47849	5.671908	8.095271	-1.400885	0.880190	-0.594029	-1.194588	103.483679	-30.670469	-77.228092
47850	5.925253	7.349707	-2.121023	0.633715	-0.569185	-1.147891	103.939226	-29.956806	-77.418077
47851	5.763229	7.255134	-2.383203	0.590332	-0.540171	-1.085639	104.360086	-29.274874	-77.602937
47852	5.611070	7.366800	-2.505382	0.561263	-0.527231	-1.013185	104.760971	-28.639599	-77.773864
47853	5.249200	8.542946	-2.345278	0.673568	-0.519398	-0.985802	105.221525	-28.014165	-77.948406
47854	5.381565	7.377990	-3.410669	0.384120	-0.511884	-0.906268	105.516115	-27.438237	-78.115990
47855	5.024817	7.564086	-3.108529	0.575464	-0.516013	-0.857466	105.921974	-26.882528	-78.299807
47856	5.260697	7.594338	-3.681901	0.455887	-0.566116	-0.773254	106.275951	-26.369356	-78.514564
47857	5.175948	7.493942	-3.584797	0.537867	-0.511176	-0.695971	106.664961	-25.901422	-78.714575
47858	5.343790	7.548145	-3.231043	0.542573	-0.550621	-0.634813	107.068341	-25.464204	-78.936070
47859	5.410456	7.289582	-3.173014	0.538330	-0.464323	-0.610967	107.446227	-25.048737	-79.114681
47860	5.110896	7.090775	-3.085894	0.609070	-0.417254	-0.588592	107.851382	-24.657234	-79.256673
47861	5.199422	7.155812	-2.994349	0.701340	-0.328891	-0.561525	108.287981	-24.290995	-79.355687
47862	5.068429	7.179232	-2.898580	0.722659	-0.230076	-0.509187	108.714543	-23.974790	-79.394851
47863	5.018745	7.080066	-3.006791	0.765582	-0.165321	-0.473517	109.152563	-23.685820	-79.407692
47864	4.917334	7.283207	-3.046114	0.831752	-0.090085	-0.451172	109.610894	-23.427074	-79.370873
47865	4.660211	7.910195	-2.873687	0.835801	-0.017370	-0.469606	110.053231	-23.169279	-79.292153
47866	4.591302	7.934405	-3.118275	0.737843	0.045993	-0.470550	110.423702	-22.927616	-79.167605
47867	4.568589	8.007555	-3.639017	0.779606	0.102955	-0.458671	110.806967	-22.701291	-79.017362
47868	4.701178	8.567501	-3.880518	0.756821	0.209837	-0.433000	111.154750	-22.514830	-78.803234
47869	4.705031	8.596383	-4.060477	0.835375	0.310177	-0.417415	111.527922	-22.355783	-78.539659
47870	4.215905	8.846279	-4.183350	0.646959	0.370688	-0.367425	111.783670	-22.240590	-78.246061
47871	3.633489	8.454391	-4.287347	0.814104	0.380203	-0.281376	112.141964	-22.171688	-77.972170
47872	3.667243	9.385726	-3.753158	0.709867	0.362163	-0.186371	112.451855	-22.153665	-77.724863
47873	3.014615	8.528006	-4.180635	0.508922	0.450569	-0.128586	112.633788	-22.183660	-77.446457
47874	2.833188	8.425538	-4.062810	0.343768	0.530514	0.002980	112.714192	-22.304431	-77.147911
47875	3.111400	7.499544	-4.016322	0.275920	0.575983	0.057259	112.751268	-22.461122	-76.842342
47876	3.695815	7.423488	-3.345874	0.144581	0.624317	0.116531	112.705641	-22.662925	-76.516780
47877	3.439734	7.443736	-3.817323	0.044716	0.737151	0.189855	112.584299	-22.924877	-76.149282
47878	2.795895	7.924977	-3.824993	0.094908	0.828194	0.349936	112.482360	-23.293939	-75.760077
47879	3.061488	7.894034	-3.510992	0.034542	0.802790	0.470482	112.361349	-23.717461	-75.418620
47880	3.916908	7.248180	-2.734592	-0.095428	0.829938	0.571120	112.164180	-24.202486	-75.076520
47881	3.781908	7.709235	-4.854407	0.382876	0.882470	0.428913	112.212688	-24.619910	-74.674426
47882	1.212439	9.309457	-1.407572	-0.557555	1.081789	0.778349	111.701452	-25.267334	-74.228163
47883	3.721322	5.281290	-3.833386	-0.372512	0.916535	0.898614	111.343986	-25.937623	-73.906666
47884	3.998678	6.090822	-2.622853	-0.008681	1.087693	1.069408	111.159552	-26.736665	-73.510238
47885	4.215623	6.247530	-2.219827	0.014327	1.167922	1.144783	110.968173	-27.588141	-73.083903
47886	4.992334	6.486340	-2.753851	0.143182	1.188393	1.316096	110.852843	-28.537676	-72.671998
47887	4.631167	6.155858	-2.440592	0.099547	1.298534	1.468976	110.689232	-29.587640	-72.227879
47888	4.932441	5.758996	-2.712057	0.189391	1.313417	1.603892	110.575146	-30.714956	-71.791872
47889	5.057873	5.711015	-3.230250	0.614005	1.320943	1.540575	110.686138	-31.807130	-71.337087
47890	3.065683	8.413387	-1.114325	0.395029	1.403931	1.669189	110.647655	-32.987981	-70.849555
47891	6.044734	4.639104	-1.803329	0.127285	1.239239	1.690890	110.505996	-34.143909	-70.470733
47892	7.761084	5.029324	0.208717	0.553769	1.409982	1.664854	110.529300	-35.322569	-69.961084
47893	5.924024	7.150986	-6.487001	1.907432	1.097243	1.212401	111.378990	-36.196183	-69.552822
47894	0.677952	10.451941	-1.808754	-0.135816	1.532283	1.767364	110.960915	-37.459614	-68.991229
47895	3.008955	2.133744	-6.030151	-0.246474	1.334669	2.040492	110.584915	-38.823384	-68.620020
47896	5.247503	6.315721	-1.086989	0.912654	1.250373	2.104230	110.906739	-40.206717	-68.309643
47897	5.547646	8.795329	-0.640870	-0.178180	1.323071	2.091061	110.559745	-41.595047	-67.944041
47898	3.935768	8.038112	-2.751091	-0.364770	1.392412	2.127816	110.054344	-43.017429	-67.509108
47899	4.159384	7.354707	-1.386557	-0.586960	1.317362	2.166539	109.441619	-44.439886	-67.118643
47900	4.968315	5.795478	-1.676996	-0.684719	1.254242	2.234462	108.787795	-45.887070	-66.755035
47901	5.786330	5.060065	-1.874229	-0.535483	1.164451	2.300968	108.256935	-47.347965	-66.456743
47902	6.210840	5.676506	-2.010590	-0.296936	1.144641	2.345827	107.856341	-48.831366	-66.151981
47903	5.490468	5.857884	-1.699644	-0.386009	1.140528	2.355829	107.386474	-50.314591	-65.835142
47904	5.730052	5.529006	-1.731152	-0.208142	1.035870	2.357998	107.061278	-51.783078	-65.575041
47905	6.122358	5.348721	-1.995285	-0.167715	0.939503	2.372387	106.813404	-53.239010	-65.393919
47906	6.403968	5.873340	-1.839580	-0.079598	0.920943	2.367853	106.610260	-54.692445	-65.203634
47907	6.636135	4.971539	-2.238975	0.040080	0.836456	2.334863	106.524316	-56.109961	-65.081795
47908	6.845744	5.567775	-1.608908	0.158400	0.790853	2.293182	106.523664	-57.500801	-64.976931
47909	6.973636	6.266978	-1.837112	0.091793	0.751806	2.235322	106.502236	-58.849606	-64.900557
47910	6.964829	5.766017	-2.749182	0.119635	0.778063	2.175399	106.447006	-60.173600	-64.761176
47911	7.127379	5.720206	-2.718288	0.137506	0.840050	2.117971	106.317608	-61.471651	-64.534212
47912	6.765956	6.029291	-1.565462	0.053796	0.741970	2.065390	106.206072	-62.729069	-64.377291
47913	7.156291	5.615864	-2.218207	-0.053827	0.668308	1.975906	106.076509	-63.920616	-64.279133
47914	6.861366	5.412158	-1.892230	-0.094202	0.583207	1.894222	105.980727	-65.058342	-64.236891
47915	6.852949	6.030641	-1.946247	-0.189112	0.398475	1.803342	106.024490	-66.111631	-64.417139
47916	7.026667	5.628683	-2.130789	-0.242789	0.516956	1.737914	105.863232	-67.152784	-64.397037
47917	6.905107	5.677769	-1.105117	-0.328385	0.425653	1.658339	105.742896	-68.129985	-64.484736
47918	7.393515	5.068084	-1.552148	-0.368626	0.328051	1.599291	105.708428	-69.065308	-64.678542
47919	7.901561	4.806477	-2.596848	-0.265622	0.316917	1.547226	105.741692	-69.963845	-64.891924
47920	7.859914	5.293064	-2.184545	-0.225222	0.428625	1.487482	105.600649	-70.853112	-64.883135
47921	7.616086	5.582645	-2.188731	-0.265976	0.379319	1.412645	105.482154	-71.686617	-64.935330
47922	7.724483	4.944701	-2.233074	-0.346347	0.345120	1.312189	105.318029	-72.466318	-64.975320
47923	8.115751	4.688693	-1.729479	-0.288140	0.245100	1.184275	105.307828	-73.152706	-65.155063
47924	8.209794	4.755240	-1.616243	-0.286220	0.168789	1.041901	105.368786	-73.756342	-65.393636
47925	8.050969	4.969931	-1.719806	-0.203257	0.167156	0.903601	105.424561	-74.275239	-65.591383
47926	7.863275	5.056672	-1.620210	-0.313190	0.076160	0.789192	105.536850	-74.724992	-65.898029
47927	11.199970	2.706935	-0.083769	-0.271473	-0.033281	0.548738	105.778576	-75.016255	-66.329354
47928	15.076882	4.659210	-1.031513	1.028040	-0.539394	0.024440	107.494866	-74.943447	-67.500404
47929	13.084494	13.251450	-1.170303	0.816456	0.105356	-0.412765	107.502568	-74.729603	-67.043515
47930	8.107593	11.975582	-4.978593	-0.161607	0.426226	-0.571352	106.224410	-74.489387	-65.817799
47931	4.960265	3.490187	-3.727700	-0.173268	0.485968	-0.425434	104.944033	-74.320925	-64.615478
47932	7.002978	1.072200	-1.745898	0.581681	0.038719	-0.291269	105.056188	-74.167804	-64.389688
47933	8.570569	0.385472	-0.348207	0.371648	-0.042866	-0.408560	105.154379	-73.926789	-64.294519
47934	8.581358	1.680680	-2.318747	0.448200	-0.297960	-0.548572	105.696647	-73.580694	-64.595858
47935	8.239866	3.457526	-2.201133	0.454608	-0.152617	-0.594374	105.943302	-73.220864	-64.604943
47936	7.898627	4.352210	-0.082167	0.369592	-0.155338	-0.587788	106.137588	-72.874859	-64.590710
47937	9.232952	2.686032	0.328131	0.071303	-0.097410	-0.566145	106.076220	-72.539090	-64.507675
47938	10.291209	1.458549	-0.451883	0.380123	-0.199099	-0.536566	106.375174	-72.214263	-64.596904
47939	10.929869	1.434418	-0.951013	0.464861	-0.082396	-0.506427	106.541086	-71.914274	-64.514767
47940	10.323092	2.135802	-0.509606	0.598932	-0.069626	-0.459990	106.777259	-71.652541	-64.406241
47941	10.510199	2.328191	-0.379772	0.519518	-0.095298	-0.408167	107.041042	-71.404966	-64.393114
47942	10.570937	2.477483	-0.413645	0.532951	-0.131644	-0.365626	107.382350	-71.184693	-64.435209
47943	9.486250	3.759794	-1.018554	0.482481	-0.173252	-0.333380	107.779268	-70.964961	-64.584550
47944	8.898837	4.140650	-1.695534	0.402698	-0.208579	-0.317336	108.181881	-70.757226	-64.770663
47945	8.656808	4.336953	-1.121374	0.366800	-0.190461	-0.278790	108.555951	-70.563370	-64.966650
47946	8.658348	4.517764	-0.406946	0.260476	-0.181022	-0.256282	108.855390	-70.393066	-65.130210
47947	8.747343	3.783809	-0.702213	0.157820	-0.188626	-0.236204	109.119733	-70.221782	-65.337708
47948	8.822637	3.559346	-0.996840	0.203318	-0.202941	-0.213014	109.434413	-70.070186	-65.552653
47949	8.856505	3.725272	-1.110968	0.229793	-0.207230	-0.196568	109.780204	-69.915993	-65.803464
47950	8.765931	3.794584	-1.224872	0.173271	-0.208391	-0.188426	110.090728	-69.775736	-66.032752
47951	8.950463	3.566272	-1.579150	0.161292	-0.214998	-0.183808	110.407230	-69.625907	-66.294806
47952	9.256049	3.599911	-1.755621	0.164836	-0.212543	-0.169045	110.721942	-69.494342	-66.534166
47953	9.321673	3.234165	-1.891926	0.114005	-0.218683	-0.149212	111.027886	-69.361324	-66.814408
47954	9.505658	2.901122	-2.081611	0.167582	-0.201534	-0.130606	111.342884	-69.251665	-67.052811
47955	9.365364	3.111131	-1.618923	0.184393	-0.178406	-0.116802	111.644148	-69.143469	-67.285133
47956	9.383339	2.978462	-1.590323	0.125606	-0.155582	-0.098632	111.883544	-69.059731	-67.468700
47957	9.314671	2.751691	-1.413770	0.147615	-0.104110	-0.071642	112.082001	-68.990931	-67.613512
47958	9.390335	2.705085	-0.915292	0.108664	-0.058716	-0.025579	112.216419	-68.966436	-67.695187
47959	9.457795	2.378369	-0.575531	0.074442	-0.036464	0.036045	112.339271	-68.969407	-67.803561
47960	9.680881	2.234269	-0.511967	0.038424	-0.039788	0.099178	112.478056	-69.014986	-67.933036
47961	9.308157	2.998347	-0.510583	0.051517	0.003511	0.130563	112.586932	-69.076979	-68.039808
47962	8.340309	4.243868	-1.459555	0.376524	-0.104435	0.022165	112.965334	-69.067225	-68.218377
47963	7.348453	6.700151	-3.406868	0.677811	-0.333113	-0.052695	113.788036	-68.955838	-68.705462
47964	7.395109	5.551721	-5.010818	0.466906	-0.329180	-0.091080	114.451837	-68.832739	-69.134675
47965	7.809607	4.642869	-3.350672	0.507132	-0.258886	-0.012443	115.090691	-68.755153	-69.531807
47966	8.235966	4.225510	-0.724557	0.306097	-0.222833	0.053636	115.602042	-68.729783	-69.896765
47967	9.358186	4.183097	0.252889	0.033424	-0.286478	0.056579	116.044798	-68.678108	-70.375615
47968	9.674211	3.215717	-1.332196	0.011792	-0.312677	0.050267	116.500759	-68.626073	-70.862396
47969	9.744299	2.792196	-2.407488	0.133674	-0.275788	0.061781	116.985412	-68.577258	-71.324859
47970	9.362897	3.382982	-2.619011	0.200282	-0.255407	0.090086	117.497374	-68.557527	-71.756085
47971	9.032747	3.431588	-2.495306	0.244249	-0.162047	0.092756	117.916754	-68.552066	-72.080351
47972	8.657222	4.052695	-2.120601	0.305675	-0.149776	0.100074	118.359046	-68.563450	-72.371900
47973	8.546306	3.841712	-2.066462	0.208953	-0.171015	0.109349	118.781300	-68.562086	-72.721199
47974	8.715970	3.871860	-1.922604	0.262970	-0.193713	0.109730	119.262509	-68.564437	-73.080855
47975	9.053940	3.834513	-2.038760	0.217381	-0.200589	0.131557	119.742980	-68.563714	-73.487820
47976	9.222618	3.996035	-1.960028	0.196100	-0.160570	0.147171	120.171541	-68.591976	-73.832064
47977	9.189349	3.627955	-2.138437	0.156764	-0.138224	0.177955	120.573574	-68.630014	-74.192229
47978	9.145590	3.688626	-2.116345	0.084284	-0.113243	0.188285	120.911551	-68.690645	-74.507832
47979	9.047477	3.744751	-1.916332	0.113971	-0.107439	0.193725	121.265134	-68.743916	-74.842232
47980	9.147264	3.593596	-1.789583	0.119036	-0.126689	0.221759	121.669492	-68.815415	-75.207449
47981	9.467235	3.258508	-2.046791	0.148387	-0.123783	0.264498	122.122582	-68.896509	-75.627280
47982	9.046498	3.140553	-1.989466	0.149246	-0.001026	0.297252	122.452011	-69.041122	-75.893234
47983	9.092637	3.438156	-2.130964	0.123417	-0.042679	0.304211	122.828008	-69.164597	-76.245168
47984	8.919191	3.909712	-1.950785	0.098118	-0.045173	0.263648	123.164412	-69.278084	-76.549489
47985	9.077215	3.788205	-2.290721	-0.014989	-0.043541	0.241219	123.416826	-69.369678	-76.853857
47986	8.922762	3.625963	-2.214840	-0.113407	-0.017212	0.240097	123.582315	-69.479789	-77.104684
47987	9.117778	3.457295	-2.153141	-0.130841	-0.023819	0.243482	123.749337	-69.577943	-77.388676
47988	9.040238	3.325029	-2.386613	-0.178521	0.012212	0.257553	123.859057	-69.705261	-77.619480
47989	8.957207	3.304435	-2.454596	-0.218766	0.020452	0.278667	123.953206	-69.833841	-77.879246
47990	9.124776	3.167603	-2.635776	-0.213344	0.021420	0.298442	124.071228	-69.983226	-78.139761
47991	9.180181	3.013488	-2.695221	-0.238040	0.049435	0.305945	124.145292	-70.133685	-78.389602
47992	9.207405	3.092787	-2.357839	-0.163353	0.079326	0.333079	124.252261	-70.317827	-78.607433
47993	9.293566	3.254733	-2.289221	-0.224165	0.109896	0.359244	124.307672	-70.512752	-78.828570
47994	9.477273	2.728107	-1.889347	-0.246254	0.126071	0.371568	124.345304	-70.730031	-79.022740
47995	9.618399	3.012165	-1.944547	-0.180727	0.078464	0.346169	124.461474	-70.908472	-79.281339
47996	9.460146	3.145988	-2.371281	-0.253670	0.142007	0.375335	124.482275	-71.132521	-79.461756
47997	9.255801	2.696540	-2.522667	-0.222155	0.137480	0.388301	124.539173	-71.349853	-79.682259
47998	9.215928	2.382375	-2.575705	-0.210618	0.149966	0.378223	124.581656	-71.577749	-79.859076
47999	8.943311	2.621983	-2.082260	-0.164877	0.127322	0.361675	124.665976	-71.779098	-80.073270
48000	8.781325	2.119960	-1.929357	-0.173047	0.182871	0.348686	124.658609	-72.003684	-80.174576
48001	9.082315	2.777127	-1.461012	-0.110766	0.082044	0.338180	124.822002	-72.179117	-80.438682
48002	9.046686	2.518019	-1.528320	-0.190356	0.172902	0.351471	124.826554	-72.401648	-80.562705
48003	8.992093	1.753545	-1.745141	-0.192387	0.165723	0.344338	124.831114	-72.607301	-80.708697
48004	9.660217	2.726647	-1.469595	0.188164	-0.029811	0.344478	125.356163	-72.759588	-81.150509
48005	9.147433	2.109713	-2.571441	0.028779	0.211360	0.352162	125.436099	-72.983777	-81.242302
48006	9.476512	2.983085	-2.742428	0.201246	-0.041200	0.372512	126.032471	-73.143801	-81.749953
48007	9.160592	3.347112	-2.155377	0.158135	0.150081	0.425544	126.375941	-73.380780	-82.039429
48008	9.100350	3.220792	-2.139491	0.003375	0.110698	0.466286	126.752559	-73.633632	-82.434974
48009	9.396156	2.482048	-1.856004	-0.072903	0.175337	0.444041	126.963093	-73.886686	-82.723577
48010	9.322806	3.114151	-1.748484	-0.155629	0.118448	0.420094	127.200961	-74.120064	-83.068580
48011	9.110195	2.444095	-2.034392	-0.201135	0.207902	0.450085	127.307142	-74.386593	-83.324598
48012	9.148214	3.044875	-2.329397	-0.303585	0.188281	0.439940	127.385820	-74.652829	-83.591529
48013	9.119512	2.873934	-1.884891	-0.394733	0.211582	0.427474	127.355976	-74.910094	-83.821148
48014	8.790599	2.229791	-1.149883	-0.489075	0.157881	0.408544	127.348653	-75.151442	-84.108443
48015	9.131171	2.740251	-1.215245	-0.505441	0.081181	0.406945	127.460329	-75.353925	-84.549680
48016	8.975086	2.117142	-1.740956	-0.538304	0.123378	0.408727	127.496360	-75.583152	-84.910343
48017	9.479386	2.055634	-1.603499	-0.557246	0.079494	0.417886	127.610526	-75.789735	-85.384072
48018	9.702673	0.933683	-2.102970	-0.562759	0.089860	0.390497	127.681324	-75.998684	-85.794369
48019	9.547830	1.124449	-1.687398	-0.354129	0.101861	0.393616	127.853248	-76.201848	-86.206550
48020	9.524381	1.478714	-2.126564	-0.357040	0.119698	0.399538	128.016626	-76.424873	-86.590098
48021	9.621143	1.161912	-1.718648	-0.294769	0.171733	0.379407	128.087227	-76.645978	-86.861998
48022	9.500032	1.103419	-1.471966	-0.279764	0.150605	0.337072	128.157704	-76.851467	-87.103942
48023	9.741803	1.073047	-1.190301	-0.106751	0.184815	0.284848	128.176454	-77.034682	-87.211131
48024	9.548578	0.671288	-2.285322	-0.097860	0.065744	0.295700	128.463632	-77.191221	-87.568121
48025	9.570098	1.159849	-2.013697	-0.052182	0.212255	0.306243	128.500541	-77.393909	-87.661184
48026	9.203769	1.019451	-1.506919	0.119059	0.087661	0.317139	128.917814	-77.567330	-88.023628
48027	9.628494	1.752847	-1.537961	0.110476	0.132107	0.302998	129.217863	-77.739583	-88.290149
48028	9.349647	1.835867	-0.889344	0.055408	0.128769	0.274057	129.460830	-77.907957	-88.511128
48029	9.314626	2.086022	-0.995484	0.002886	0.130558	0.252901	129.630112	-78.057113	-88.706603
48030	9.213021	2.034136	-1.438686	-0.100627	0.110756	0.258634	129.805699	-78.211772	-88.949849
48031	9.501030	1.719377	-1.935667	-0.130122	0.076735	0.247296	130.011400	-78.338426	-89.260271
48032	9.525294	1.491710	-1.351420	-0.188323	0.131400	0.212370	130.019188	-78.480115	-89.383293
48033	9.465879	0.829289	-0.901529	-0.199854	0.104547	0.153685	129.962374	-78.575851	-89.466255
48034	9.725617	1.023691	-0.438891	-0.185253	0.017954	0.140981	130.090728	-78.644399	-89.710402
48035	9.697716	0.709792	-1.115400	-0.209667	0.051151	0.132363	130.107602	-78.711320	-89.873765
48036	9.444573	0.716587	-1.426878	-0.133299	0.026959	0.091114	130.156834	-78.761247	-90.006793
48037	9.364757	1.353538	-1.249977	-0.151139	0.026095	0.060050	130.130013	-78.787433	-90.090854
48038	9.190387	1.053656	-1.205138	-0.233402	0.019313	0.060092	130.081662	-78.820945	-90.182861
48039	9.429402	0.886476	-0.801688	-0.287308	0.001587	0.022975	129.962178	-78.821976	-90.251732
48040	9.461049	0.896788	-0.981873	-0.280698	-0.029423	-0.026423	129.833729	-78.799601	-90.289728
48041	9.454889	1.337747	-1.817794	-0.267684	-0.036635	-0.042619	129.689018	-78.758001	-90.321004
48042	9.505477	1.658984	-2.253050	-0.170591	-0.012546	-0.018118	129.601776	-78.745481	-90.336717
48043	9.424654	1.893168	-1.997002	-0.117834	0.009698	0.031271	129.576727	-78.753400	-90.402357
48044	9.382259	2.238766	-1.570057	-0.101762	0.002822	0.077652	129.671076	-78.788752	-90.563015
48045	9.355301	2.635276	-1.395194	-0.179464	0.025250	0.113438	129.728350	-78.838455	-90.748735
48046	9.551255	2.909800	-0.830161	-0.318666	0.040489	0.090373	129.639244	-78.893154	-90.849043
48047	9.352355	1.812795	-0.765889	-0.502336	0.036471	0.054209	129.375389	-78.920717	-90.896487
48048	9.789541	1.754679	-1.350480	-0.473974	-0.009926	0.044999	129.226082	-78.937119	-91.026121
48049	9.606326	1.306819	-1.390141	-0.507759	0.044052	0.059107	128.949291	-78.969687	-91.063558
48050	9.547505	0.811026	-1.553315	-0.430831	0.008714	0.050795	128.792700	-78.995553	-91.160581
48051	9.811268	0.675988	-2.026840	-0.311111	0.013428	0.046472	128.674971	-79.011647	-91.244930
48052	9.434000	0.910236	-1.916486	-0.220442	0.033092	0.042963	128.568008	-79.042795	-91.269720
48053	9.374821	2.020723	-0.603956	-0.125886	0.032305	0.051184	128.522372	-79.067896	-91.318916
48054	9.288624	2.039517	-0.735250	-0.201770	0.061210	0.033467	128.342719	-79.104801	-91.258793
48055	9.375746	1.841793	-1.587924	-0.204463	0.038596	0.032768	128.202067	-79.123892	-91.257225
48056	9.352921	1.303259	-1.946119	-0.203066	0.075574	0.046889	128.011211	-79.171852	-91.186480
48057	9.547734	1.513082	-1.692196	-0.069184	0.016022	0.051553	128.035821	-79.191411	-91.274182
48058	9.557362	1.558608	-1.529535	-0.072666	0.067879	0.071774	127.983135	-79.247857	-91.268066
48059	9.568893	1.873525	-1.205379	-0.068343	0.054959	0.081625	127.972204	-79.294737	-91.318979
48060	9.602791	2.030977	-1.135684	-0.037716	0.057315	0.086200	127.991632	-79.353961	-91.365888
48061	9.557311	2.060174	-0.899505	-0.126530	0.060662	0.092099	127.953328	-79.407549	-91.422970
48062	9.594538	1.739700	-1.239452	-0.213152	0.055773	0.091143	127.885473	-79.468464	-91.483340
48063	9.539587	1.468896	-1.450563	-0.240788	0.051537	0.079761	127.779820	-79.513270	-91.538583
48064	9.499740	1.116950	-1.271839	-0.256947	0.049618	0.055218	127.633159	-79.555774	-91.544329
48065	9.508988	0.833928	-1.337489	-0.219340	0.036456	0.037107	127.495386	-79.576041	-91.554202
48066	9.551742	0.817971	-1.352781	-0.166703	0.031495	0.042494	127.420194	-79.606436	-91.580058
48067	9.602584	1.049181	-1.473795	-0.133063	0.040693	0.043253	127.333208	-79.631128	-91.590876
48068	9.510215	1.090943	-1.457521	-0.137104	0.056711	0.032816	127.193226	-79.665863	-91.533640
48069	9.560633	1.123422	-1.312982	-0.116222	0.045063	0.012152	127.045846	-79.677943	-91.472945
48070	9.568515	1.253573	-1.091084	-0.104954	0.036948	0.002901	126.916195	-79.692113	-91.407510
48071	9.638811	1.543350	-1.032707	-0.134725	0.027728	0.004373	126.787031	-79.694702	-91.375861
48072	9.709358	1.668885	-1.091200	-0.104308	0.021327	0.006031	126.702706	-79.704897	-91.356136
48073	9.482907	1.531376	-1.039988	-0.246695	0.058396	-0.049353	126.330619	-79.693187	-91.142741
48074	9.649993	1.315796	-1.349844	-0.264033	0.027225	-0.052965	126.029625	-79.678048	-90.995822
48075	9.495091	1.044280	-1.171236	-0.264741	0.000008	-0.043903	125.807236	-79.648868	-90.944939
48076	9.618958	1.068963	-1.039767	-0.238167	0.012764	-0.053257	125.558735	-79.628523	-90.836310
48077	9.636680	1.149818	-1.226626	-0.219522	0.000430	-0.063541	125.327489	-79.590357	-90.749745
48078	9.620575	1.048234	-1.411851	-0.252548	0.019464	-0.075076	125.016199	-79.561821	-90.585644
48079	9.667227	1.251258	-1.209752	-0.211618	-0.001262	-0.082918	124.762477	-79.513929	-90.471272
48080	9.692284	1.460967	-0.997769	-0.193922	0.003068	-0.091494	124.500400	-79.472027	-90.323030
48081	9.595596	1.388839	-0.724609	-0.252029	0.000199	-0.097045	124.198931	-79.417792	-90.183402
48082	9.687233	1.358746	-0.793014	-0.236807	-0.018620	-0.118111	123.925362	-79.356020	-90.048430
48083	9.574143	1.284544	-0.959532	-0.301860	-0.003133	-0.139992	123.536036	-79.280080	-89.848198
48084	9.560174	0.927437	-1.080683	-0.317630	-0.022507	-0.156284	123.168584	-79.198502	-89.664747
48085	9.701003	0.854665	-1.133377	-0.304450	-0.038796	-0.174126	122.820252	-79.094678	-89.507305
48086	9.592025	0.782355	-0.943392	-0.322113	0.006688	-0.205694	122.307736	-78.997772	-89.178611
48087	9.710590	1.008005	-1.001484	-0.205194	-0.074544	-0.213425	122.054868	-78.863752	-89.059857
48088	9.689739	1.162776	-0.951119	-0.256585	-0.029460	-0.231390	121.642848	-78.742631	-88.795076
48089	9.810697	1.333965	-1.019656	-0.185839	-0.043318	-0.257998	121.270152	-78.596031	-88.542285
48090	9.718977	1.469353	-1.036323	-0.199941	-0.024368	-0.257934	120.854187	-78.462684	-88.240122
48091	9.786727	1.668729	-1.052929	-0.168008	-0.046695	-0.256996	120.517433	-78.315023	-88.013054
48092	9.840981	1.835051	-0.960791	-0.149415	-0.029866	-0.260028	120.156037	-78.178292	-87.736766
48093	9.704244	1.883020	-1.068745	-0.129657	-0.036256	-0.275068	119.806530	-78.024132	-87.473832
48094	9.590088	1.821087	-1.179599	-0.150756	-0.012279	-0.259679	119.418562	-77.891846	-87.170878
48095	9.555946	2.016659	-1.221909	-0.110149	-0.010336	-0.246250	119.073057	-77.758668	-86.900219
48096	9.455341	1.956859	-1.251433	-0.145907	-0.001055	-0.238851	118.702617	-77.639141	-86.612077
48097	9.761668	2.025320	-1.212337	-0.142652	-0.015714	-0.246551	118.363804	-77.503611	-86.367012
48098	9.710482	1.894724	-1.215796	-0.199182	-0.015671	-0.254631	117.989539	-77.371400	-86.105946
48099	9.813461	1.889072	-1.145561	-0.227176	0.001385	-0.269880	117.549820	-77.227915	-85.806699
48100	9.825268	1.722307	-1.170374	-0.252947	-0.014926	-0.290765	117.115822	-77.076678	-85.515684
48101	9.843427	1.796736	-1.254999	-0.239868	0.001057	-0.301752	116.650848	-76.915863	-85.197378
48102	9.819131	2.000089	-1.152533	-0.234208	-0.004026	-0.290983	116.220542	-76.766293	-84.898775
48103	9.900316	2.121249	-0.906257	-0.197777	-0.010926	-0.303702	115.821869	-76.600439	-84.623178
48104	9.820465	2.547799	-0.911055	-0.198987	-0.004302	-0.310949	115.407862	-76.439520	-84.320198
48105	9.642346	2.141958	-0.975917	-0.281440	0.003064	-0.284998	114.966697	-76.285849	-84.049806
48106	9.931406	2.032929	-1.094576	-0.186499	-0.026170	-0.319671	114.614180	-76.114133	-83.802378
48107	9.919799	2.471396	-0.788145	-0.231266	0.002312	-0.347018	114.159984	-75.927079	-83.488346
48108	9.867797	2.274969	-1.264754	-0.280526	-0.004198	-0.338201	113.707511	-75.749896	-83.193014
48109	9.884293	2.137048	-1.298299	-0.288968	0.031798	-0.299182	113.222005	-75.593502	-82.880210
48110	10.032143	2.409963	-1.256470	-0.257851	0.018000	-0.274148	112.810285	-75.453929	-82.613147
48111	10.272608	2.475547	-0.989741	-0.241644	0.034708	-0.290665	112.369055	-75.301528	-82.317454
48112	10.499459	2.285053	-0.859453	-0.293350	0.036458	-0.306739	111.886891	-75.147616	-81.998220
48113	10.436506	2.459340	-1.187345	-0.305225	0.035279	-0.316290	111.403628	-74.980526	-81.696097
48114	10.441814	2.290930	-0.730972	-0.324309	0.056566	-0.308728	110.879092	-74.828321	-81.350883
48115	10.829356	2.047671	-0.815904	-0.338725	0.062106	-0.298045	110.354807	-74.675114	-81.025437
48116	10.663412	1.779450	-0.783835	-0.313547	0.090654	-0.261193	109.820593	-74.553562	-80.663325
48117	10.635010	1.960661	-0.484975	-0.218657	0.105698	-0.274392	109.312656	-74.420146	-80.282501
48118	10.796935	2.319857	-0.031957	-0.265874	0.097823	-0.277338	108.795085	-74.289471	-79.908862
48119	10.926048	1.850841	-0.562064	-0.268993	0.121412	-0.269270	108.246307	-74.160050	-79.514692
48120	10.504795	2.412885	0.322688	-0.195500	0.142686	-0.292322	107.688941	-74.027246	-79.057275
48121	10.375133	2.426385	0.214603	-0.379745	0.151676	-0.306078	107.013070	-73.880908	-78.595954
48122	10.481557	2.181125	-0.050107	-0.322841	0.159981	-0.316421	106.354943	-73.734942	-78.108942
48123	10.363885	2.065333	-0.089725	-0.314718	0.185683	-0.320861	105.664356	-73.583048	-77.592469
48124	10.051695	2.352433	-0.155560	-0.207263	0.201464	-0.333290	105.007141	-73.430887	-77.036605
48125	9.989211	2.474533	-0.097041	-0.289982	0.254175	-0.369431	104.202661	-73.258603	-76.385237
48126	9.499509	2.242583	-0.582939	-0.333627	0.287782	-0.405547	103.307231	-73.073686	-75.655156
48127	9.034829	2.073060	-0.639484	-0.312279	0.368718	-0.469103	102.272728	-72.854492	-74.774926
48128	8.666016	2.165565	-0.687471	-0.320455	0.329273	-0.527614	101.303729	-72.598814	-73.958188
48129	9.114477	2.242614	-0.670027	-0.322010	0.235286	-0.538138	100.526670	-72.318067	-73.350948
48130	8.396197	0.992396	-2.116217	-0.262838	0.239209	-0.696321	99.746193	-71.951266	-72.694932
48131	8.209686	2.610757	-0.993974	0.053022	0.298125	-0.769209	99.058453	-71.541257	-71.952204
48132	8.851718	2.637923	-0.403914	-0.295071	0.229817	-0.724484	98.323843	-71.152730	-71.361115
48133	8.795406	1.525382	-1.220408	-0.329292	0.284657	-0.642895	97.529942	-70.807501	-70.734144
48134	8.888045	2.091968	-0.955792	-0.003496	0.219996	-0.604274	97.052214	-70.482073	-70.235762
48135	8.940224	3.798599	-0.801147	0.181864	0.195503	-0.638204	96.733894	-70.130024	-69.799411
48136	9.425991	3.986189	-0.977821	-0.191158	0.241462	-0.780000	96.116347	-69.703457	-69.264378
48137	8.212645	2.943958	-2.307235	0.434896	0.419458	-1.028146	95.579246	-69.139452	-68.437033
48138	9.085821	7.091744	-0.447337	0.914960	-0.155269	-0.997027	96.185085	-68.564179	-68.530447
48139	9.000404	8.426584	-1.596877	0.588394	0.007120	-1.032428	96.359851	-67.973798	-68.368735
48140	9.039828	8.883339	-1.813998	0.438071	-0.149248	-1.069345	96.652342	-67.357410	-68.419571
48141	9.046009	8.052789	-2.272284	0.261820	-0.242999	-1.129866	96.956832	-66.694147	-68.602468
48142	9.062459	6.416466	-2.444963	0.257908	-0.407929	-1.186314	97.442636	-65.992496	-68.977553
48143	9.087528	5.564791	-1.916888	0.231487	-0.451052	-1.300076	97.929111	-65.214968	-69.382379
48144	8.761451	4.731016	-1.673302	0.161985	-0.448185	-1.409570	98.322170	-64.381080	-69.720337
48145	8.523741	4.600684	-1.081892	0.155070	-0.429450	-1.527769	98.652422	-63.473962	-70.005603
48146	8.420116	5.577634	-1.010877	0.142891	-0.399974	-1.616914	98.903373	-62.525294	-70.201600
48147	8.335673	6.195512	-1.036209	0.102578	-0.422152	-1.681144	99.134680	-61.530827	-70.413747
48148	8.570922	6.733366	-1.149276	0.062334	-0.443492	-1.753709	99.333553	-60.500112	-70.606628
48149	8.452488	6.728266	-0.801188	-0.062134	-0.436701	-1.824402	99.436065	-59.422374	-70.783713
48150	8.447848	5.854237	-0.673033	-0.204117	-0.477535	-1.877638	99.474260	-58.318055	-70.971476
48151	8.476694	5.276835	-1.031132	-0.192073	-0.507608	-1.917939	99.536069	-57.180359	-71.192818
48152	8.374718	5.224830	-0.675686	-0.116183	-0.506780	-1.924375	99.625839	-56.046630	-71.386748
48153	8.240439	5.355572	-0.455604	-0.012483	-0.526493	-1.925296	99.784551	-54.902657	-71.606143
48154	8.263364	5.567507	-0.875758	0.087961	-0.530134	-1.904808	99.990686	-53.777114	-71.804711
48155	8.408709	5.837780	-0.713832	0.133187	-0.542019	-1.892867	100.224443	-52.649201	-72.019347
48156	8.459050	5.727166	-0.937786	0.214201	-0.550901	-1.878582	100.496795	-51.535377	-72.216091
48157	8.373173	5.937040	-0.716230	0.329430	-0.542474	-1.880791	100.818903	-50.413286	-72.405666
48158	8.641094	5.560712	-0.951635	0.265592	-0.589459	-1.908109	101.116629	-49.277426	-72.603454
48159	8.436579	5.471893	-1.197979	0.324178	-0.563909	-1.906478	101.421833	-48.137665	-72.780066
48160	8.482180	6.202027	-1.002383	0.396727	-0.592048	-1.867471	101.776113	-47.022974	-72.959686
48161	8.495137	6.430339	-0.907934	0.378409	-0.618939	-1.848062	102.128480	-45.908569	-73.163817
48162	8.467777	6.569964	-0.928492	0.406191	-0.623413	-1.836507	102.485909	-44.805963	-73.347002
48163	8.331906	6.599421	-1.476372	0.376570	-0.654401	-1.808424	102.837443	-43.708044	-73.558439
48164	8.151393	7.354687	-1.369072	0.331206	-0.678769	-1.805960	103.162442	-42.613875	-73.764388
48165	7.835066	7.196078	-1.702756	0.209206	-0.680926	-1.804799	103.410643	-41.513280	-73.972579
48166	7.609358	7.467536	-1.670056	0.127363	-0.705815	-1.769840	103.617185	-40.434304	-74.184912
48167	7.502675	7.616457	-1.663567	0.019204	-0.711157	-1.706084	103.765523	-39.383786	-74.415472
48168	7.329901	7.437431	-1.870900	-0.030046	-0.701204	-1.648795	103.878504	-38.371936	-74.631941
48169	7.318183	7.210062	-1.980177	-0.085713	-0.718653	-1.592794	103.968812	-37.382947	-74.875411
48170	7.416711	7.045327	-1.955789	-0.044824	-0.724145	-1.552531	104.080908	-36.420827	-75.114334
48171	7.275027	7.435120	-2.190083	-0.024584	-0.733707	-1.512517	104.207948	-35.473990	-75.370678
48172	7.180171	7.306202	-2.589343	-0.007648	-0.749557	-1.441096	104.349700	-34.569312	-75.635233
48173	7.110526	7.315361	-2.381008	0.021502	-0.751313	-1.370996	104.510860	-33.697871	-75.915841
48174	6.883648	7.498087	-2.206264	0.038483	-0.740752	-1.312321	104.675167	-32.864689	-76.185463
48175	6.981512	7.552820	-2.407573	-0.010675	-0.710407	-1.271208	104.800347	-32.053700	-76.444878
48176	6.674707	7.369506	-2.597334	0.036184	-0.678233	-1.244506	104.936697	-31.266187	-76.676022
48177	6.378010	7.290922	-2.778192	0.097591	-0.718031	-1.225498	105.119975	-30.478706	-76.938311
48178	6.196014	7.627860	-2.588588	0.171073	-0.706179	-1.178562	105.338172	-29.722217	-77.189324
48179	6.037672	7.153307	-2.792162	0.168828	-0.660541	-1.117185	105.542877	-29.002129	-77.422955
48180	5.835775	7.458586	-2.769219	0.240738	-0.653109	-1.057798	105.784864	-28.318844	-77.651821
48181	5.756153	7.222833	-3.154412	0.239116	-0.623455	-0.995060	106.020051	-27.670658	-77.873685
48182	5.921537	7.246556	-3.324334	0.400618	-0.601834	-0.946087	106.339246	-27.055248	-78.081191
48183	5.905898	7.693809	-3.319183	0.496904	-0.570862	-0.887647	106.707849	-26.472987	-78.279138
48184	5.428125	7.562885	-3.439125	0.541650	-0.572647	-0.799457	107.103484	-25.940535	-78.485232
48185	5.212519	7.564822	-3.547463	0.649134	-0.612754	-0.714055	107.576777	-25.444003	-78.729693
48186	5.194751	7.166916	-3.540699	0.725040	-0.529020	-0.671840	108.068852	-24.985919	-78.923068
48187	4.990189	6.499320	-3.495888	0.867769	-0.436106	-0.671372	108.618549	-24.541035	-79.058021
